time /s	I /nA	E /V
0.100	3.584	0.099
0.200	-20.098	0.099
0.300	-5.640	0.099
0.400	-6.613	0.099
0.500	8.794	0.099
0.600	-11.317	0.099
0.700	-2.371	0.099
0.800	-19.353	0.099
0.900	-8.556	0.099
1.000	-0.207	0.099
1.100	-1.405	0.099
1.200	5.267	0.099
1.300	-19.676	0.099
1.400	-5.222	0.099
1.500	-10.996	0.099
1.600	5.114	0.099
1.700	-23.436	0.099
1.800	4.902	0.099
1.900	7.076	0.099
2.000	-15.845	0.099
2.100	-8.066	0.099
2.200	3.946	0.099
2.300	-4.295	0.099
2.400	-4.949	0.099
2.500	-16.533	0.099
2.600	-8.483	0.099
2.700	-3.934	0.099
2.800	-7.169	0.099
2.900	5.900	0.099
3.000	-8.960	0.099
3.100	2.825	0.099
3.200	-9.647	0.099
3.300	-10.348	0.099
3.400	-9.661	0.099
3.500	-14.857	0.099
3.600	-0.459	0.099
3.700	-13.967	0.100
3.800	-6.188	0.099
3.900	-3.093	0.099
4.000	9.757	0.099
4.100	-7.786	0.099
4.200	1.458	0.099
4.300	5.700	0.099
4.400	-15.712	0.099
4.500	-17.898	0.099
4.600	-15.165	0.099
4.700	6.184	0.099
4.800	-3.951	0.099
4.900	-10.478	0.099
5.000	-1.653	0.099
5.100	-11.173	0.099
5.200	-9.956	0.099
5.300	-7.361	0.099
5.400	-7.209	0.099
5.500	-6.900	0.099
5.600	-10.481	0.099
5.700	-8.619	0.099
5.800	-6.664	0.099
5.900	3.038	0.099
6.000	-6.077	0.099
6.100	-7.395	0.099
6.200	-4.036	0.099
6.300	-9.142	0.099
6.400	-12.628	0.099
6.500	-4.384	0.099
6.600	-4.303	0.099
6.700	-10.972	0.099
6.800	-7.220	0.099
6.900	-2.723	0.099
7.000	-16.340	0.099
7.100	3.312	0.099
7.200	-10.749	0.099
7.300	-13.959	0.099
7.400	8.110	0.100
7.500	-18.148	0.099
7.600	-17.343	0.099
7.700	7.673	0.099
7.800	-12.415	0.099
7.900	-27.119	0.099
8.000	-4.602	0.099
8.100	2.715	0.099
8.200	4.986	0.099
8.300	-6.764	0.099
8.400	-14.823	0.099
8.500	5.882	0.099
8.600	-0.120	0.100
8.700	-23.375	0.100
8.800	1.510	0.100
8.900	-6.838	0.100
9.000	7.419	0.099
9.100	-10.867	0.099
9.200	-17.143	0.100
9.300	1.668	0.099
9.400	-25.683	0.099
9.500	-6.699	0.099
9.600	0.562	0.099
9.700	-12.241	0.099
9.800	-14.274	0.099
9.900	-3.594	0.100
10.000	-2.585	0.099
10.100	-14.722	0.099
10.200	-11.578	0.099
10.300	0.232	0.099
10.400	1.942	0.099
10.500	-16.099	0.099
10.600	-8.849	0.100
10.700	-23.829	0.099
10.800	0.266	0.099
10.900	-6.914	0.099
11.000	-0.110	0.099
11.100	-15.922	0.099
11.200	-3.120	0.099
11.300	-8.301	0.100
11.400	-7.566	0.099
11.500	-4.395	0.099
11.600	-21.904	0.099
11.700	-4.999	0.099
11.800	-10.457	0.099
11.900	5.663	0.099
12.000	-5.298	0.099
12.100	-12.215	0.099
12.200	-5.617	0.099
12.300	-5.176	0.099
12.400	-0.156	0.099
12.500	1.952	0.099
12.600	-3.899	0.099
12.700	11.448	0.099
12.800	-9.846	0.099
12.900	-2.993	0.099
13.000	-11.006	0.099
13.100	-8.826	0.099
13.200	-2.707	0.099
13.300	-6.217	0.100
13.400	-3.145	0.099
13.500	-9.339	0.099
13.600	-0.879	0.099
13.700	-4.284	0.099
13.800	-16.864	0.099
13.900	-10.228	0.099
14.000	2.255	0.099
14.100	-1.190	0.099
14.200	-8.879	0.099
14.300	-2.862	0.099
14.400	-0.611	0.099
14.500	-7.151	0.099
14.600	-2.999	0.100
14.700	-12.087	0.100
14.800	-12.286	0.099
14.900	6.073	0.099
15.000	-17.277	0.099
15.100	7.102	0.099
15.200	-5.232	0.099
15.300	-8.441	0.099
15.400	2.561	0.099
15.500	0.628	0.099
15.600	-3.684	0.100
15.700	-5.550	0.099
15.800	-13.179	0.099
15.900	-3.984	0.099
16.000	5.855	0.099
16.100	-0.696	0.099
16.200	0.780	0.099
16.300	-9.329	0.099
16.400	-15.813	0.099
16.500	0.502	0.099
16.600	-7.210	0.099
16.700	-5.001	0.100
16.800	-6.453	0.099
16.900	-2.192	0.099
17.000	-7.756	0.099
17.100	-3.309	0.099
17.200	-2.342	0.099
17.300	-2.778	0.099
17.400	-10.182	0.099
17.500	-8.822	0.099
17.600	-8.333	0.099
17.700	0.788	0.099
17.800	-6.628	0.099
17.900	-14.273	0.099
18.000	-11.253	0.099
18.100	9.384	0.099
18.200	-8.433	0.099
18.300	-5.436	0.099
18.400	-20.581	0.099
18.500	-3.152	0.099
18.600	2.877	0.099
18.700	10.083	0.099
18.800	-14.063	0.099
18.900	-12.819	0.099
19.000	-2.913	0.099
19.100	-4.008	0.099
19.200	-15.032	0.099
19.300	-3.209	0.099
19.400	3.797	0.099
19.500	-0.961	0.099
19.600	-2.972	0.099
19.700	-0.436	0.099
19.800	-6.353	0.099
19.900	-3.816	0.099
20.000	0.751	0.099
20.100	-13.330	0.099
20.200	1.204	0.099
20.300	-9.467	0.099
20.400	-5.316	0.099
20.500	-3.950	0.099
20.600	-9.219	0.099
20.700	3.426	0.099
20.800	-4.480	0.099
20.900	-9.740	0.099
21.000	0.293	0.100
21.100	-23.206	0.100
21.200	10.648	0.100
21.300	-2.376	0.099
21.400	1.899	0.099
21.500	2.317	0.099
21.600	1.367	0.099
21.700	-12.587	0.100
21.800	-6.182	0.099
21.900	-0.794	0.099
22.000	-4.023	0.099
22.100	12.406	0.100
22.200	-1.900	0.099
22.300	-7.867	0.099
22.400	-9.188	0.099
22.500	2.874	0.099
22.600	-7.209	0.099
22.700	-15.046	0.099
22.800	-4.045	0.099
22.900	-11.275	0.099
23.000	-8.138	0.100
23.100	-34.061	0.099
23.200	0.210	0.099
23.300	-15.120	0.099
23.400	1.778	0.099
23.500	1.538	0.099
23.600	-10.979	0.099
23.700	-0.214	0.100
23.800	3.562	0.099
23.900	-9.991	0.099
24.000	-16.703	0.099
24.100	11.703	0.099
24.200	-4.448	0.099
24.300	-10.357	0.099
24.400	3.996	0.099
24.500	-9.105	0.099
24.600	-9.545	0.099
24.700	-13.688	0.099
24.800	0.755	0.099
24.900	-13.325	0.099
25.000	-10.114	0.099
25.100	0.434	0.099
25.200	-9.845	0.099
25.300	-16.266	0.099
25.400	7.211	0.099
25.500	-0.090	0.099
25.600	-9.530	0.099
25.700	4.855	0.099
25.800	0.739	0.099
25.900	-6.726	0.099
26.000	0.087	0.099
26.100	0.575	0.099
26.200	-4.642	0.099
26.300	-4.365	0.099
26.400	-6.598	0.099
26.500	-19.179	0.099
26.600	-1.266	0.099
26.700	-11.511	0.099
26.800	-5.081	0.099
26.900	-2.701	0.099
27.000	-6.672	0.099
27.100	1.313	0.099
27.200	-2.954	0.099
27.300	-4.320	0.099
27.400	-8.479	0.099
27.500	-1.345	0.099
27.600	-9.751	0.099
27.700	8.136	0.099
27.800	-23.329	0.099
27.900	-17.963	0.099
28.000	0.893	0.099
28.100	-7.131	0.099
28.200	9.485	0.099
28.300	-5.076	0.099
28.400	-2.638	0.100
28.500	-2.147	0.099
28.600	-5.009	0.099
28.700	-13.343	0.099
28.800	2.908	0.099
28.900	0.080	0.099
29.000	-3.759	0.100
29.100	-6.823	0.099
29.200	-5.402	0.100
29.300	-5.954	0.099
29.400	-4.970	0.099
29.500	-16.908	0.099
29.600	10.539	0.099
29.700	-5.593	0.099
29.800	-4.040	0.099
29.900	6.926	0.099
30.000	-7.680	0.099
30.100	-9.479	0.099
30.200	5.847	0.099
30.300	3.657	0.099
30.400	9.085	0.099
30.500	-10.115	0.099
30.600	0.757	0.100
30.700	-2.357	0.099
30.800	13.724	0.099
30.900	3.264	0.099
31.000	-10.080	0.099
31.100	4.323	0.099
31.200	-3.584	0.099
31.300	13.861	0.099
31.400	8.194	0.099
31.500	13.542	0.099
31.600	-1.190	0.099
31.700	10.465	0.099
31.800	8.354	0.099
31.900	18.326	0.099
32.000	8.805	0.099
32.100	4.080	0.100
32.200	9.530	0.099
32.300	22.248	0.099
32.400	15.194	0.099
32.500	3.484	0.099
32.600	16.505	0.099
32.700	3.814	0.099
32.800	18.983	0.100
32.900	12.274	0.099
33.000	14.884	0.099
33.100	11.856	0.099
33.200	34.225	0.100
33.300	5.242	0.099
33.400	15.484	0.099
33.500	10.270	0.099
33.600	3.806	0.099
33.700	15.186	0.099
33.800	19.100	0.099
33.900	22.564	0.099
34.000	18.473	0.099
34.100	21.295	0.100
34.200	19.396	0.099
34.300	25.394	0.099
34.400	21.831	0.099
34.500	20.456	0.099
34.600	12.933	0.099
34.700	21.992	0.099
34.800	14.882	0.099
34.900	-4.245	0.099
35.000	22.069	0.099
35.100	38.496	0.099
35.200	23.290	0.099
35.300	11.976	0.099
35.400	27.183	0.099
35.500	20.159	0.099
35.600	18.899	0.099
35.700	20.909	0.099
35.800	23.505	0.099
35.900	14.055	0.099
36.000	39.575	0.099
36.100	28.154	0.100
36.200	21.579	0.099
36.300	26.445	0.099
36.400	25.856	0.099
36.500	48.880	0.099
36.600	28.493	0.099
36.700	32.874	0.099
36.800	21.431	0.099
36.900	20.714	0.099
37.000	26.634	0.099
37.100	15.074	0.099
37.200	17.957	0.099
37.300	27.166	0.099
37.400	21.992	0.099
37.500	21.816	0.099
37.600	31.992	0.099
37.700	23.647	0.099
37.800	7.713	0.099
37.900	39.037	0.099
38.000	38.467	0.099
38.100	41.396	0.099
38.200	1.738	0.099
38.300	21.192	0.099
38.400	26.392	0.099
38.500	25.805	0.099
38.600	26.169	0.099
38.700	26.775	0.099
38.800	19.470	0.099
38.900	21.562	0.099
39.000	34.995	0.099
39.100	24.682	0.099
39.200	34.253	0.099
39.300	6.257	0.099
39.400	16.648	0.099
39.500	15.624	0.099
39.600	24.659	0.099
39.700	30.077	0.099
39.800	30.975	0.099
39.900	27.250	0.099
40.000	19.797	0.099
40.100	9.912	0.099
40.200	21.803	0.099
40.300	30.066	0.099
40.400	24.087	0.100
40.500	17.314	0.099
40.600	28.888	0.099
40.700	24.539	0.099
40.800	21.004	0.099
40.900	17.388	0.099
41.000	20.900	0.099
41.100	23.869	0.099
41.200	18.090	0.099
41.300	14.849	0.099
41.400	16.060	0.099
41.500	37.172	0.099
41.600	16.007	0.099
41.700	1.747	0.100
41.800	38.822	0.099
41.900	21.174	0.099
42.000	31.830	0.099
42.100	21.497	0.099
42.200	10.495	0.099
42.300	19.019	0.099
42.400	13.749	0.099
42.500	23.116	0.099
42.600	26.604	0.099
42.700	23.580	0.099
42.800	7.093	0.099
42.900	18.872	0.099
43.000	10.088	0.099
43.100	9.582	0.099
43.200	28.758	0.099
43.300	28.388	0.099
43.400	38.847	0.099
43.500	26.780	0.099
43.600	19.344	0.099
43.700	18.528	0.099
43.800	11.152	0.099
43.900	17.491	0.099
44.000	29.865	0.099
44.100	25.601	0.099
44.200	32.129	0.099
44.300	4.484	0.099
44.400	20.390	0.099
44.500	13.723	0.099
44.600	30.629	0.099
44.700	23.548	0.099
44.800	22.850	0.099
44.900	16.546	0.099
45.000	12.467	0.099
45.100	30.439	0.099
45.200	10.527	0.099
45.300	8.017	0.099
45.400	28.004	0.099
45.500	25.914	0.099
45.600	29.385	0.099
45.700	27.566	0.099
45.800	14.466	0.099
45.900	12.552	0.099
46.000	11.692	0.099
46.100	17.556	0.099
46.200	14.827	0.099
46.300	24.862	0.099
46.400	21.650	0.100
46.500	24.728	0.099
46.600	28.177	0.099
46.700	10.504	0.099
46.800	14.654	0.099
46.900	30.067	0.099
47.000	17.686	0.099
47.100	6.376	0.099
47.200	31.909	0.099
47.300	16.834	0.099
47.400	16.713	0.100
47.500	13.831	0.099
47.600	32.611	0.099
47.700	16.708	0.099
47.800	28.277	0.099
47.900	32.807	0.099
48.000	16.984	0.099
48.100	17.913	0.099
48.200	32.170	0.099
48.300	26.666	0.099
48.400	12.805	0.099
48.500	11.411	0.099
48.600	10.677	0.099
48.700	25.062	0.099
48.800	20.659	0.099
48.900	26.926	0.099
49.000	11.864	0.099
49.100	25.620	0.099
49.200	13.172	0.099
49.300	9.930	0.099
49.400	21.416	0.099
49.500	17.070	0.099
49.600	24.976	0.099
49.700	16.947	0.099
49.800	6.923	0.099
49.900	17.939	0.099
50.000	35.425	0.099
50.100	2.077	0.099
50.200	19.694	0.099
50.300	22.762	0.099
50.400	16.453	0.100
50.500	6.767	0.099
50.600	12.547	0.099
50.700	28.364	0.099
50.800	17.077	0.099
50.900	35.642	0.099
51.000	17.773	0.099
51.100	9.930	0.099
51.200	22.328	0.099
51.300	14.633	0.099
51.400	16.138	0.099
51.500	18.993	0.099
51.600	19.058	0.099
51.700	17.010	0.099
51.800	21.307	0.099
51.900	15.682	0.099
52.000	18.464	0.099
52.100	21.131	0.099
52.200	24.850	0.099
52.300	28.151	0.099
52.400	3.028	0.099
52.500	22.454	0.099
52.600	15.851	0.099
52.700	16.176	0.099
52.800	20.287	0.099
52.900	10.817	0.099
53.000	13.750	0.099
53.100	16.305	0.099
53.200	23.550	0.099
53.300	24.459	0.099
53.400	16.037	0.099
53.500	12.958	0.099
53.600	8.002	0.099
53.700	14.193	0.099
53.800	14.419	0.099
53.900	19.874	0.099
54.000	27.901	0.099
54.100	30.020	0.099
54.200	15.142	0.099
54.300	27.322	0.099
54.400	21.874	0.100
54.500	23.831	0.099
54.600	11.289	0.099
54.700	6.425	0.099
54.800	18.518	0.099
54.900	18.604	0.099
55.000	6.032	0.099
55.100	33.455	0.099
55.200	26.264	0.099
55.300	27.039	0.099
55.400	22.117	0.099
55.500	25.040	0.099
55.600	20.199	0.099
55.700	14.215	0.099
55.800	17.493	0.099
55.900	9.423	0.099
56.000	31.983	0.099
56.100	16.738	0.099
56.200	6.189	0.099
56.300	17.710	0.099
56.400	21.122	0.099
56.500	21.170	0.100
56.600	20.787	0.100
56.700	28.521	0.099
56.800	12.860	0.099
56.900	19.460	0.099
57.000	30.594	0.099
57.100	20.341	0.099
57.200	18.343	0.099
57.300	22.176	0.099
57.400	14.538	0.099
57.500	27.365	0.099
57.600	14.707	0.099
57.700	18.790	0.099
57.800	24.538	0.100
57.900	25.224	0.099
58.000	16.065	0.099
58.100	31.365	0.099
58.200	14.067	0.099
58.300	12.708	0.099
58.400	28.469	0.099
58.500	17.459	0.099
58.600	17.777	0.099
58.700	18.628	0.099
58.800	27.172	0.100
58.900	20.824	0.099
59.000	14.664	0.099
59.100	20.588	0.099
59.200	11.537	0.099
59.300	12.521	0.099
59.400	7.215	0.099
59.500	24.164	0.099
59.600	25.825	0.100
59.700	6.354	0.099
59.800	11.071	0.099
59.900	21.022	0.099
60.000	17.176	0.099
60.100	7.886	0.099
60.200	25.839	0.099
60.300	23.562	0.099
60.400	17.704	0.099
60.500	16.196	0.099
60.600	22.796	0.099
60.700	27.240	0.099
60.800	23.460	0.099
60.900	21.366	0.099
61.000	18.068	0.099
61.100	11.163	0.099
61.200	14.628	0.099
61.300	23.868	0.099
61.400	27.348	0.099
61.500	17.207	0.099
61.600	16.371	0.099
61.700	8.398	0.099
61.800	30.464	0.099
61.900	16.454	0.099
62.000	11.517	0.099
62.100	28.027	0.099
62.200	10.431	0.099
62.300	15.114	0.099
62.400	17.936	0.099
62.500	14.417	0.099
62.600	11.872	0.099
62.700	37.818	0.099
62.800	20.813	0.099
62.900	9.470	0.099
63.000	22.087	0.099
63.100	24.710	0.099
63.200	17.591	0.099
63.300	20.148	0.099
63.400	16.060	0.099
63.500	15.501	0.099
63.600	38.623	0.099
63.700	14.679	0.099
63.800	26.649	0.099
63.900	17.978	0.099
64.000	16.443	0.099
64.100	12.809	0.099
64.200	20.795	0.099
64.300	28.947	0.099
64.400	26.960	0.099
64.500	15.031	0.099
64.600	17.001	0.099
64.700	26.536	0.099
64.800	10.718	0.099
64.900	18.595	0.099
65.000	10.380	0.099
65.100	13.507	0.099
65.200	34.635	0.099
65.300	33.446	0.099
65.400	13.648	0.099
65.500	27.165	0.099
65.600	21.722	0.099
65.700	25.972	0.099
65.800	19.123	0.100
65.900	18.857	0.099
66.000	10.670	0.099
66.100	10.516	0.099
66.200	21.176	0.099
66.300	19.857	0.099
66.400	25.961	0.099
66.500	16.174	0.099
66.600	35.921	0.099
66.700	34.065	0.100
66.800	17.918	0.099
66.900	21.780	0.099
67.000	20.635	0.099
67.100	21.972	0.099
67.200	17.462	0.099
67.300	33.324	0.099
67.400	23.436	0.099
67.500	7.784	0.099
67.600	20.599	0.099
67.700	16.964	0.099
67.800	18.667	0.099
67.900	23.214	0.099
68.000	15.241	0.099
68.100	19.447	0.099
68.200	12.531	0.099
68.300	21.439	0.100
68.400	29.241	0.099
68.500	12.924	0.099
68.600	20.642	0.099
68.700	28.086	0.099
68.800	24.899	0.099
68.900	26.201	0.099
69.000	16.011	0.099
69.100	22.876	0.099
69.200	16.095	0.099
69.300	19.979	0.099
69.400	20.477	0.099
69.500	23.568	0.099
69.600	14.804	0.099
69.700	27.903	0.099
69.800	19.869	0.099
69.900	11.373	0.099
70.000	19.772	0.099
70.100	22.699	0.099
70.200	20.540	0.099
70.300	21.133	0.099
70.400	14.700	0.099
70.500	16.391	0.099
70.600	16.140	0.099
70.700	26.846	0.099
70.800	25.215	0.099
70.900	26.710	0.099
71.000	24.527	0.099
71.100	29.745	0.099
71.200	19.831	0.099
71.300	23.938	0.099
71.400	33.482	0.099
71.500	10.438	0.099
71.600	23.020	0.099
71.700	17.229	0.099
71.800	7.045	0.099
71.900	16.139	0.099
72.000	29.340	0.099
72.100	17.181	0.099
72.200	26.637	0.099
72.300	34.036	0.099
72.400	24.342	0.100
72.500	10.945	0.099
72.600	18.308	0.099
72.700	18.897	0.099
72.800	26.980	0.099
72.900	22.122	0.099
73.000	10.377	0.099
73.100	30.124	0.099
73.200	23.079	0.099
73.300	20.774	0.099
73.400	22.626	0.099
73.500	27.642	0.099
73.600	11.578	0.099
73.700	30.236	0.099
73.800	22.663	0.099
73.900	23.513	0.099
74.000	25.083	0.099
74.100	29.320	0.099
74.200	19.492	0.099
74.300	20.265	0.100
74.400	16.827	0.099
74.500	28.274	0.099
74.600	31.967	0.099
74.700	13.192	0.100
74.800	16.663	0.099
74.900	22.029	0.100
75.000	29.147	0.099
75.100	20.199	0.099
75.200	16.072	0.099
75.300	14.410	0.099
75.400	24.974	0.099
75.500	33.811	0.099
75.600	19.780	0.099
75.700	18.354	0.099
75.800	15.996	0.099
75.900	29.933	0.099
76.000	19.524	0.099
76.100	38.790	0.099
76.200	19.728	0.099
76.300	22.997	0.099
76.400	19.080	0.099
76.500	23.028	0.099
76.600	18.584	0.100
76.700	23.177	0.099
76.800	17.851	0.099
76.900	35.316	0.099
77.000	27.445	0.099
77.100	26.060	0.099
77.200	19.470	0.099
77.300	31.714	0.099
77.400	20.532	0.099
77.500	26.319	0.099
77.600	19.941	0.099
77.700	7.310	0.099
77.800	31.510	0.099
77.900	24.902	0.099
78.000	22.530	0.099
78.100	25.466	0.099
78.200	26.225	0.099
78.300	18.146	0.099
78.400	19.256	0.099
78.500	17.265	0.099
78.600	14.198	0.099
78.700	20.720	0.099
78.800	26.265	0.099
78.900	28.183	0.099
79.000	38.321	0.099
79.100	20.520	0.099
79.200	12.274	0.099
79.300	17.950	0.099
79.400	10.895	0.099
79.500	24.878	0.099
79.600	21.815	0.099
79.700	22.411	0.099
79.800	34.467	0.100
79.900	30.378	0.099
80.000	20.154	0.099
80.100	23.593	0.099
80.200	29.642	0.099
80.300	21.879	0.099
80.400	29.024	0.099
80.500	28.399	0.099
80.600	21.414	0.099
80.700	25.027	0.099
80.800	27.264	0.099
80.900	18.269	0.099
81.000	33.579	0.099
81.100	25.950	0.099
81.200	6.839	0.099
81.300	37.441	0.099
81.400	12.451	0.099
81.500	22.275	0.099
81.600	27.033	0.099
81.700	23.620	0.099
81.800	25.519	0.099
81.900	20.894	0.099
82.000	29.935	0.099
82.100	9.129	0.099
82.200	17.509	0.099
82.300	27.515	0.099
82.400	10.382	0.099
82.500	32.145	0.099
82.600	36.707	0.099
82.700	14.513	0.099
82.800	39.627	0.099
82.900	16.126	0.099
83.000	15.514	0.099
83.100	17.794	0.099
83.200	25.892	0.099
83.300	22.913	0.099
83.400	31.099	0.099
83.500	25.542	0.099
83.600	22.800	0.099
83.700	15.707	0.099
83.800	33.441	0.099
83.900	14.413	0.099
84.000	20.747	0.099
84.100	29.154	0.099
84.200	21.266	0.099
84.300	23.561	0.099
84.400	19.668	0.099
84.500	20.234	0.099
84.600	27.491	0.099
84.700	27.993	0.099
84.800	19.522	0.099
84.900	29.272	0.099
85.000	19.874	0.099
85.100	20.608	0.099
85.200	27.697	0.099
85.300	35.299	0.099
85.400	22.885	0.099
85.500	16.112	0.099
85.600	29.431	0.099
85.700	15.032	0.099
85.800	10.790	0.100
85.900	32.753	0.099
86.000	16.779	0.099
86.100	35.529	0.099
86.200	27.323	0.099
86.300	23.601	0.099
86.400	19.936	0.099
86.500	26.054	0.099
86.600	18.506	0.099
86.700	8.990	0.099
86.800	30.149	0.099
86.900	24.460	0.099
87.000	26.318	0.099
87.100	17.447	0.099
87.200	21.498	0.099
87.300	32.000	0.099
87.400	21.025	0.099
87.500	20.505	0.099
87.600	17.761	0.099
87.700	17.627	0.099
87.800	27.268	0.099
87.900	30.257	0.099
88.000	25.878	0.099
88.100	33.139	0.099
88.200	23.816	0.099
88.300	22.335	0.099
88.400	16.128	0.099
88.500	27.794	0.099
88.600	25.174	0.099
88.700	37.731	0.099
88.800	20.664	0.099
88.900	7.982	0.099
89.000	27.026	0.099
89.100	33.711	0.099
89.200	18.826	0.099
89.300	19.614	0.099
89.400	34.452	0.099
89.500	21.286	0.099
89.600	17.372	0.099
89.700	23.053	0.099
89.800	15.523	0.099
89.900	26.268	0.099
90.000	10.237	0.099
90.100	32.380	0.099
90.200	22.577	0.099
90.300	15.474	0.100
90.400	24.679	0.099
90.500	9.136	0.099
90.600	16.920	0.099
90.700	17.237	0.099
90.800	3.089	0.099
90.900	7.023	0.099
91.000	8.333	0.099
91.100	18.358	0.100
91.200	3.986	0.099
91.300	3.338	0.099
91.400	8.028	0.099
91.500	11.408	0.099
91.600	8.415	0.099
91.700	-7.887	0.099
91.800	19.770	0.099
91.900	5.138	0.100
92.000	4.454	0.099
92.100	-13.699	0.099
92.200	-1.347	0.099
92.300	-5.313	0.099
92.400	-1.999	0.099
92.500	5.171	0.099
92.600	-9.251	0.099
92.700	-4.399	0.099
92.800	-8.240	0.099
92.900	-14.358	0.099
93.000	-8.687	0.099
93.100	4.748	0.099
93.200	-14.474	0.099
93.300	3.203	0.099
93.400	-2.024	0.099
93.500	-13.064	0.099
93.600	-6.958	0.099
93.700	-7.935	0.099
93.800	-4.058	0.099
93.900	-14.993	0.099
94.000	-2.630	0.099
94.100	-29.157	0.099
94.200	-16.505	0.099
94.300	-7.907	0.099
94.400	-11.077	0.099
94.500	0.867	0.099
94.600	-2.695	0.100
94.700	-28.894	0.099
94.800	-9.429	0.099
94.900	-19.317	0.099
95.000	-13.207	0.099
95.100	-6.822	0.099
95.200	-9.473	0.099
95.300	-4.921	0.099
95.400	-19.158	0.099
95.500	-9.078	0.099
95.600	7.911	0.099
95.700	-25.941	0.099
95.800	-8.257	0.099
95.900	-10.183	0.100
96.000	-11.480	0.099
96.100	-4.644	0.099
96.200	2.029	0.099
96.300	-12.242	0.099
96.400	-4.651	0.099
96.500	-15.856	0.099
96.600	1.911	0.099
96.700	-11.420	0.099
96.800	2.730	0.099
96.900	-15.192	0.099
97.000	-11.154	0.099
97.100	-4.725	0.099
97.200	-18.155	0.099
97.300	-2.195	0.099
97.400	-12.643	0.099
97.500	-9.182	0.099
97.600	8.932	0.099
97.700	-16.181	0.099
97.800	-20.115	0.099
97.900	-10.721	0.099
98.000	-3.135	0.099
98.100	-2.295	0.099
98.200	-4.727	0.099
98.300	-31.628	0.099
98.400	-9.143	0.099
98.500	-17.225	0.099
98.600	-6.722	0.099
98.700	-7.113	0.099
98.800	-6.683	0.099
98.900	-15.716	0.099
99.000	-12.886	0.099
99.100	-6.452	0.099
99.200	-9.891	0.099
99.300	-7.767	0.099
99.400	-11.555	0.099
99.500	-5.159	0.099
99.600	-4.596	0.099
99.700	-13.347	0.099
99.800	-19.496	0.099
99.900	-7.019	0.099
100.000	-15.784	0.099
100.100	-17.605	0.099
100.200	-7.196	0.099
100.300	-9.986	0.099
100.400	-7.142	0.099
100.500	-11.989	0.099
100.600	-9.172	0.099
100.700	-15.919	0.099
100.800	-9.090	0.099
100.900	-2.929	0.099
101.000	-6.965	0.099
101.100	-13.751	0.099
101.200	-18.912	0.099
101.300	-9.022	0.099
101.400	-14.347	0.099
101.500	2.983	0.099
101.600	-6.478	0.099
101.700	-18.828	0.099
101.800	-9.891	0.099
101.900	-18.735	0.099
102.000	-9.904	0.099
102.100	-18.041	0.099
102.200	-22.175	0.099
102.300	-6.257	0.099
102.400	-21.587	0.099
102.500	-26.544	0.099
102.600	-1.386	0.099
102.700	-1.098	0.099
102.800	-13.126	0.099
102.900	-21.663	0.099
103.000	-3.457	0.099
103.100	5.209	0.099
103.200	-23.063	0.099
103.300	-9.194	0.099
103.400	-14.679	0.099
103.500	-13.122	0.099
103.600	-13.214	0.099
103.700	-10.421	0.099
103.800	-7.220	0.099
103.900	-5.950	0.099
104.000	-1.715	0.099
104.100	-27.443	0.099
104.200	-14.077	0.099
104.300	-15.803	0.099
104.400	-12.732	0.099
104.500	9.699	0.099
104.600	-17.499	0.099
104.700	-7.948	0.099
104.800	-3.511	0.099
104.900	-26.339	0.099
105.000	-11.815	0.099
105.100	-9.803	0.099
105.200	-20.730	0.099
105.300	-5.660	0.099
105.400	-7.705	0.100
105.500	4.896	0.099
105.600	0.154	0.099
105.700	-16.094	0.099
105.800	-10.855	0.099
105.900	-16.047	0.099
106.000	-0.550	0.099
106.100	-11.440	0.099
106.200	-21.441	0.099
106.300	-17.682	0.099
106.400	-0.953	0.099
106.500	-17.014	0.099
106.600	-11.534	0.099
106.700	-25.061	0.099
106.800	-17.115	0.099
106.900	-25.650	0.099
107.000	-12.039	0.099
107.100	14.277	0.099
107.200	-11.548	0.099
107.300	-15.497	0.099
107.400	-9.470	0.099
107.500	-16.757	0.099
107.600	-11.447	0.099
107.700	-5.387	0.099
107.800	-11.516	0.099
107.900	-12.018	0.099
108.000	-3.131	0.099
108.100	-19.751	0.099
108.200	-14.302	0.099
108.300	-21.824	0.099
108.400	-14.008	0.099
108.500	-1.527	0.099
108.600	-24.327	0.099
108.700	-4.983	0.099
108.800	-6.039	0.099
108.900	-13.619	0.099
109.000	-17.179	0.099
109.100	-9.895	0.099
109.200	-6.821	0.099
109.300	-9.697	0.099
109.400	-14.248	0.099
109.500	-9.238	0.099
109.600	-16.348	0.099
109.700	-22.228	0.099
109.800	8.500	0.099
109.900	-4.613	0.099
110.000	-4.380	0.099
110.100	-2.755	0.099
110.200	-19.157	0.100
110.300	-11.870	0.099
110.400	-20.294	0.099
110.500	-7.119	0.099
110.600	-19.305	0.099
110.700	-10.147	0.099
110.800	-0.478	0.099
110.900	-5.235	0.099
111.000	-20.388	0.099
111.100	-31.391	0.099
111.200	1.167	0.099
111.300	-1.690	0.099
111.400	-4.237	0.099
111.500	-21.371	0.099
111.600	-3.770	0.099
111.700	-14.709	0.099
111.800	-23.853	0.099
111.900	3.243	0.099
112.000	-7.548	0.099
112.100	-17.863	0.099
112.200	-3.336	0.099
112.300	-9.232	0.099
112.400	-10.737	0.099
112.500	-15.158	0.099
112.600	-10.824	0.099
112.700	-14.053	0.099
112.800	-17.727	0.099
112.900	-3.571	0.099
113.000	-8.672	0.099
113.100	-14.972	0.099
113.200	-23.169	0.099
113.300	-17.606	0.099
113.400	-3.498	0.099
113.500	-8.188	0.099
113.600	-14.243	0.099
113.700	-8.035	0.099
113.800	-4.255	0.099
113.900	-22.313	0.099
114.000	-4.889	0.099
114.100	-16.394	0.099
114.200	1.011	0.099
114.300	-9.467	0.099
114.400	-15.572	0.099
114.500	-9.275	0.099
114.600	-13.494	0.099
114.700	-27.101	0.099
114.800	-8.223	0.099
114.900	-3.072	0.099
115.000	-11.281	0.099
115.100	-19.172	0.099
115.200	-17.687	0.099
115.300	-7.656	0.099
115.400	-13.498	0.099
115.500	-5.524	0.099
115.600	-28.917	0.099
115.700	-19.008	0.099
115.800	-4.420	0.099
115.900	-17.886	0.099
116.000	-0.072	0.099
116.100	0.330	0.099
116.200	-16.816	0.099
116.300	-10.309	0.099
116.400	-13.714	0.099
116.500	-0.608	0.099
116.600	-17.372	0.099
116.700	-18.527	0.099
116.800	-1.424	0.099
116.900	2.286	0.099
117.000	-17.528	0.099
117.100	-18.539	0.099
117.200	-22.999	0.099
117.300	-2.866	0.099
117.400	-10.772	0.099
117.500	-23.017	0.099
117.600	-19.307	0.099
117.700	-6.344	0.099
117.800	-8.636	0.099
117.900	-2.659	0.099
118.000	-12.999	0.099
118.100	-16.380	0.099
118.200	-0.667	0.099
118.300	-20.222	0.099
118.400	-17.301	0.099
118.500	-6.474	0.099
118.600	-18.252	0.099
118.700	-7.679	0.099
118.800	2.243	0.099
118.900	-16.881	0.099
119.000	-8.406	0.099
119.100	-10.609	0.099
119.200	-22.826	0.099
119.300	-26.744	0.099
119.400	-11.285	0.099
119.500	0.110	0.099
119.600	-14.567	0.099
119.700	-5.360	0.099
119.800	-14.983	0.099
119.900	-9.103	0.099
120.000	-28.139	0.099
120.100	-7.525	0.099
120.200	-6.246	0.099
120.300	1.351	0.099
120.400	-11.847	0.099
120.500	-8.393	0.099
120.600	-1.708	0.099
120.700	-17.468	0.099
120.800	-8.625	0.099
120.900	-14.656	0.099
121.000	-1.398	0.099
121.100	-14.654	0.099
121.200	-10.847	0.099
121.300	-20.483	0.099
121.400	-12.049	0.099
121.500	-17.103	0.099
121.600	-5.970	0.099
121.700	-14.637	0.099
121.800	-12.545	0.099
121.900	-6.196	0.099
122.000	-16.417	0.099
122.100	-4.931	0.099
122.200	-16.356	0.099
122.300	-5.561	0.099
122.400	-0.355	0.099
122.500	-0.069	0.099
122.600	-21.107	0.099
122.700	-0.616	0.099
122.800	-13.261	0.099
122.900	8.128	0.099
123.000	-21.214	0.099
123.100	-18.392	0.099
123.200	-7.082	0.099
123.300	-11.232	0.099
123.400	-9.396	0.099
123.500	-14.946	0.099
123.600	-17.351	0.099
123.700	-1.635	0.099
123.800	-4.736	0.099
123.900	-2.989	0.099
124.000	-10.838	0.099
124.100	-13.700	0.099
124.200	-10.357	0.099
124.300	-14.024	0.099
124.400	-24.557	0.099
124.500	-7.260	0.099
124.600	-2.554	0.099
124.700	-0.697	0.099
124.800	-16.190	0.099
124.900	-14.888	0.099
125.000	-9.130	0.099
125.100	-7.098	0.099
125.200	-13.625	0.099
125.300	4.879	0.099
125.400	-3.849	0.099
125.500	-26.855	0.099
125.600	-11.090	0.099
125.700	-19.122	0.099
125.800	-10.953	0.099
125.900	-2.836	0.099
126.000	-17.961	0.099
126.100	-6.562	0.099
126.200	9.534	0.099
126.300	-10.219	0.099
126.400	-19.931	0.099
126.500	-5.005	0.099
126.600	-4.286	0.099
126.700	0.575	0.099
126.800	-3.582	0.099
126.900	-10.452	0.099
127.000	-11.353	0.099
127.100	-8.010	0.099
127.200	-15.491	0.099
127.300	2.146	0.099
127.400	8.777	0.099
127.500	-14.369	0.099
127.600	-17.298	0.099
127.700	-7.228	0.099
127.800	-18.015	0.099
127.900	-9.317	0.099
128.000	-14.432	0.099
128.100	-13.658	0.099
128.200	-26.511	0.099
128.300	0.987	0.099
128.400	-11.871	0.099
128.500	-16.072	0.099
128.600	-6.411	0.099
128.700	-11.532	0.099
128.800	-1.889	0.099
128.900	-20.791	0.099
129.000	-7.818	0.099
129.100	-13.610	0.099
129.200	-7.638	0.099
129.300	-5.652	0.099
129.400	-24.572	0.099
129.500	-6.053	0.099
129.600	-9.721	0.099
129.700	-11.400	0.099
129.800	-19.015	0.099
129.900	-8.753	0.099
130.000	-5.482	0.099
130.100	0.332	0.099
130.200	-19.134	0.099
130.300	-10.544	0.099
130.400	-5.488	0.099
130.500	-6.990	0.099
130.600	-16.982	0.099
130.700	-5.266	0.099
130.800	-12.395	0.099
130.900	-8.313	0.099
131.000	-4.222	0.099
131.100	-5.769	0.099
131.200	-15.483	0.099
131.300	-0.661	0.099
131.400	-8.333	0.099
131.500	-20.846	0.099
131.600	-5.003	0.099
131.700	-11.615	0.099
131.800	-4.933	0.099
131.900	-19.671	0.099
132.000	-14.930	0.099
132.100	-19.136	0.099
132.200	-1.849	0.099
132.300	-13.225	0.099
132.400	-4.159	0.099
132.500	-14.292	0.099
132.600	-22.602	0.099
132.700	-9.324	0.099
132.800	1.048	0.099
132.900	-12.869	0.099
133.000	-3.910	0.099
133.100	-11.216	0.099
133.200	-16.693	0.099
133.300	-5.362	0.099
133.400	-14.480	0.099
133.500	2.122	0.099
133.600	-1.317	0.099
133.700	-12.127	0.099
133.800	-10.319	0.099
133.900	5.578	0.099
134.000	-7.101	0.099
134.100	-2.649	0.099
134.200	-25.871	0.099
134.300	2.855	0.099
134.400	-9.705	0.099
134.500	-1.694	0.099
134.600	-19.711	0.099
134.700	-14.672	0.099
134.800	-10.788	0.099
134.900	-19.087	0.099
135.000	-21.621	0.099
135.100	-2.300	0.099
135.200	0.251	0.099
135.300	-10.731	0.099
135.400	-2.122	0.099
135.500	-8.910	0.099
135.600	-10.859	0.099
135.700	-14.905	0.099
135.800	-17.648	0.099
135.900	-15.342	0.099
136.000	-12.631	0.099
136.100	-9.341	0.099
136.200	-5.000	0.099
136.300	-16.935	0.099
136.400	-12.197	0.099
136.500	-6.945	0.099
136.600	-19.156	0.099
136.700	-6.341	0.099
136.800	-0.914	0.099
136.900	-4.858	0.099
137.000	-16.594	0.099
137.100	-1.047	0.099
137.200	-9.285	0.099
137.300	-25.463	0.099
137.400	-8.125	0.099
137.500	-25.299	0.099
137.600	-3.503	0.099
137.700	-15.330	0.099
137.800	-5.496	0.099
137.900	-11.133	0.099
138.000	-9.107	0.099
138.100	-3.250	0.099
138.200	-17.117	0.099
138.300	-4.940	0.099
138.400	-10.087	0.099
138.500	-8.497	0.099
138.600	-1.084	0.099
138.700	-14.149	0.099
138.800	-5.652	0.099
138.900	-4.871	0.099
139.000	-2.623	0.099
139.100	-7.125	0.099
139.200	-12.059	0.099
139.300	-13.669	0.099
139.400	-15.777	0.099
139.500	-3.586	0.099
139.600	-10.623	0.099
139.700	-7.697	0.099
139.800	-7.269	0.099
139.900	-16.267	0.099
140.000	-26.825	0.099
140.100	4.979	0.099
140.200	-16.217	0.099
140.300	-7.221	0.099
140.400	-4.462	0.099
140.500	-19.194	0.099
140.600	-1.754	0.099
140.700	-1.036	0.099
140.800	-19.525	0.099
140.900	-23.655	0.099
141.000	-12.582	0.099
141.100	-6.666	0.099
141.200	-9.410	0.099
141.300	-9.702	0.099
141.400	-4.633	0.099
141.500	-16.082	0.099
141.600	-12.855	0.099
141.700	-14.774	0.099
141.800	0.968	0.099
141.900	-1.232	0.099
142.000	-16.173	0.099
142.100	-10.934	0.099
142.200	-14.668	0.099
142.300	-2.206	0.099
142.400	-6.940	0.099
142.500	-10.360	0.099
142.600	-19.876	0.099
142.700	-1.191	0.099
142.800	4.078	0.099
142.900	-4.838	0.099
143.000	-19.432	0.099
143.100	-4.951	0.099
143.200	-10.828	0.099
143.300	-11.838	0.099
143.400	-3.214	0.099
143.500	0.422	0.099
143.600	-9.529	0.099
143.700	-23.830	0.099
143.800	-7.378	0.099
143.900	-6.204	0.099
144.000	-16.685	0.099
144.100	-2.461	0.099
144.200	-13.769	0.099
144.300	-13.475	0.099
144.400	-4.757	0.099
144.500	-5.181	0.099
144.600	-11.951	0.099
144.700	-7.056	0.099
144.800	-18.138	0.099
144.900	-11.958	0.099
145.000	-1.072	0.099
145.100	-8.858	0.099
145.200	0.459	0.099
145.300	0.036	0.099
145.400	-2.277	0.099
145.500	-7.108	0.099
145.600	-19.945	0.099
145.700	-23.928	0.099
145.800	8.661	0.099
145.900	-14.923	0.099
146.000	-16.905	0.099
146.100	-0.859	0.099
146.200	-6.584	0.099
146.300	-11.253	0.099
146.400	-19.349	0.099
146.500	-1.096	0.099
146.600	-14.443	0.099
146.700	-12.967	0.099
146.800	-0.358	0.099
146.900	-11.042	0.099
147.000	-5.232	0.099
147.100	-10.384	0.099
147.200	-15.474	0.099
147.300	-8.719	0.099
147.400	-11.868	0.099
147.500	-2.814	0.099
147.600	5.458	0.099
147.700	-2.544	0.099
147.800	1.813	0.099
147.900	-11.023	0.099
148.000	-3.888	0.099
148.100	4.069	0.099
148.200	-16.128	0.099
148.300	5.649	0.099
148.400	-9.610	0.099
148.500	-1.601	0.099
148.600	-12.762	0.099
148.700	-9.072	0.099
148.800	-3.993	0.099
148.900	-18.427	0.099
149.000	-3.321	0.099
149.100	-16.052	0.099
149.200	-13.211	0.099
149.300	-11.800	0.099
149.400	-18.274	0.099
149.500	-9.455	0.099
149.600	-12.557	0.099
149.700	1.609	0.099
149.800	2.296	0.099
149.900	-6.674	0.099
150.000	-10.370	0.099
150.100	-10.731	0.099
150.200	-10.233	0.099
150.300	-5.510	0.099
150.400	-1.739	0.099
150.500	-8.912	0.099
150.600	-10.691	0.099
150.700	-7.430	0.099
150.800	-15.437	0.099
150.900	-5.650	0.099
151.000	4.562	0.099
151.100	-3.642	0.099
151.200	-22.613	0.099
151.300	0.176	0.099
151.400	-2.164	0.099
151.500	-4.555	0.099
151.600	-19.385	0.099
151.700	-26.666	0.099
151.800	-1.568	0.099
151.900	-10.698	0.099
152.000	0.214	0.099
152.100	-7.295	0.099
152.200	-11.960	0.099
152.300	-8.451	0.099
152.400	-16.511	0.099
152.500	5.237	0.099
152.600	-14.621	0.099
152.700	-10.094	0.099
152.800	-10.797	0.099
152.900	-2.214	0.099
153.000	-19.984	0.099
153.100	-11.013	0.099
153.200	-13.962	0.099
153.300	-8.760	0.099
153.400	-15.195	0.099
153.500	-0.857	0.099
153.600	-11.912	0.099
153.700	-13.246	0.099
153.800	-11.728	0.099
153.900	-19.315	0.099
154.000	-3.837	0.099
154.100	-5.154	0.099
154.200	-1.744	0.099
154.300	-16.774	0.099
154.400	-3.507	0.099
154.500	-10.738	0.099
154.600	-1.289	0.099
154.700	-5.426	0.099
154.800	-12.229	0.099
154.900	-14.788	0.099
155.000	4.144	0.099
155.100	-9.581	0.099
155.200	-6.808	0.099
155.300	-7.593	0.099
155.400	-21.056	0.099
155.500	-11.433	0.099
155.600	-10.708	0.099
155.700	-11.409	0.099
155.800	-11.390	0.099
155.900	6.746	0.099
156.000	-6.418	0.099
156.100	0.922	0.099
156.200	-11.233	0.099
156.300	-15.402	0.099
156.400	-6.124	0.099
156.500	-15.090	0.099
156.600	-11.472	0.099
156.700	-5.535	0.099
156.800	-11.333	0.099
156.900	-8.648	0.099
157.000	-8.658	0.099
157.100	-9.491	0.099
157.200	-15.533	0.099
157.300	-16.101	0.099
157.400	7.622	0.099
157.500	-9.197	0.099
157.600	-11.738	0.099
157.700	-11.288	0.099
157.800	-8.558	0.099
157.900	-16.308	0.099
158.000	-3.513	0.099
158.100	-1.041	0.099
158.200	9.411	0.099
158.300	-14.870	0.099
158.400	-14.662	0.099
158.500	0.781	0.099
158.600	-17.345	0.099
158.700	-10.082	0.099
158.800	1.016	0.099
158.900	-8.730	0.099
159.000	-2.821	0.099
159.100	-6.042	0.099
159.200	-15.781	0.099
159.300	-3.030	0.099
159.400	-4.092	0.099
159.500	6.873	0.099
159.600	-12.357	0.099
159.700	-12.922	0.099
159.800	-4.917	0.099
159.900	-11.557	0.099
160.000	-8.443	0.099
160.100	-9.524	0.099
160.200	4.819	0.099
160.300	-9.727	0.099
160.400	-9.216	0.099
160.500	-8.545	0.099
160.600	-6.784	0.099
160.700	-6.357	0.099
160.800	-3.920	0.099
160.900	-8.933	0.099
161.000	-3.080	0.099
161.100	-11.777	0.099
161.200	-0.382	0.099
161.300	-2.594	0.099
161.400	-7.069	0.099
161.500	-11.512	0.099
161.600	-20.718	0.099
161.700	-2.507	0.099
161.800	-10.673	0.099
161.900	-5.921	0.099
162.000	-7.226	0.099
162.100	-15.662	0.099
162.200	-5.461	0.099
162.300	-5.310	0.099
162.400	-17.748	0.099
162.500	-7.148	0.099
162.600	-1.698	0.099
162.700	-5.655	0.099
162.800	-18.632	0.099
162.900	-8.177	0.099
163.000	-2.286	0.099
163.100	-4.975	0.099
163.200	-14.804	0.099
163.300	0.959	0.099
163.400	-10.462	0.099
163.500	-0.298	0.099
163.600	-10.702	0.099
163.700	-8.888	0.099
163.800	-6.830	0.099
163.900	-14.386	0.099
164.000	-1.972	0.099
164.100	-17.097	0.099
164.200	-6.598	0.099
164.300	11.782	0.099
164.400	-6.961	0.099
164.500	-18.220	0.099
164.600	-17.744	0.099
164.700	-8.302	0.099
164.800	-20.033	0.099
164.900	5.053	0.099
165.000	-10.536	0.099
165.100	-6.958	0.099
165.200	-0.196	0.099
165.300	-0.939	0.099
165.400	-4.133	0.099
165.500	-6.148	0.099
165.600	-7.816	0.099
165.700	-28.581	0.099
165.800	5.175	0.099
165.900	-6.837	0.099
166.000	0.635	0.099
166.100	-13.379	0.099
166.200	-11.275	0.099
166.300	6.540	0.099
166.400	-7.189	0.099
166.500	-15.709	0.099
166.600	1.140	0.099
166.700	-18.190	0.099
166.800	-13.188	0.099
166.900	-8.154	0.099
167.000	-2.437	0.099
167.100	-1.007	0.099
167.200	-11.678	0.099
167.300	-0.235	0.099
167.400	-7.601	0.099
167.500	6.115	0.099
167.600	-8.561	0.099
167.700	-15.968	0.099
167.800	-2.665	0.099
167.900	-9.975	0.099
168.000	-3.977	0.099
168.100	2.193	0.099
168.200	-12.775	0.099
168.300	-17.611	0.099
168.400	-19.538	0.099
168.500	5.896	0.099
168.600	-16.022	0.099
168.700	-11.165	0.099
168.800	-7.991	0.099
168.900	-2.603	0.099
169.000	-7.871	0.099
169.100	-3.558	0.099
169.200	-5.136	0.099
169.300	-15.030	0.099
169.400	-6.545	0.099
169.500	-0.254	0.099
169.600	-4.607	0.099
169.700	-9.677	0.099
169.800	-16.155	0.099
169.900	-12.641	0.099
170.000	7.712	0.099
170.100	-16.853	0.099
170.200	1.419	0.099
170.300	-9.517	0.099
170.400	-15.632	0.099
170.500	-12.328	0.099
170.600	-9.190	0.099
170.700	-14.001	0.099
170.800	-1.907	0.099
170.900	-2.384	0.099
171.000	-5.710	0.099
171.100	-14.372	0.099
171.200	-23.328	0.099
171.300	-12.504	0.099
171.400	-1.112	0.099
171.500	-17.344	0.099
171.600	9.103	0.099
171.700	-21.188	0.099
171.800	-3.261	0.099
171.900	2.145	0.099
172.000	0.263	0.099
172.100	-4.889	0.099
172.200	-4.205	0.099
172.300	-8.655	0.099
172.400	-5.009	0.099
172.500	-6.843	0.099
172.600	-9.868	0.099
172.700	-5.592	0.099
172.800	-15.104	0.099
172.900	-6.224	0.099
173.000	4.798	0.099
173.100	-9.734	0.099
173.200	-7.208	0.099
173.300	-14.651	0.099
173.400	-13.091	0.099
173.500	4.991	0.099
173.600	-11.185	0.099
173.700	-12.461	0.099
173.800	-14.788	0.099
173.900	2.585	0.099
174.000	-14.996	0.099
174.100	-17.189	0.099
174.200	0.903	0.099
174.300	-8.482	0.099
174.400	-1.020	0.099
174.500	3.843	0.099
174.600	-13.079	0.099
174.700	-20.217	0.099
174.800	-7.614	0.099
174.900	6.416	0.099
175.000	-16.178	0.099
175.100	-0.902	0.099
175.200	-15.348	0.099
175.300	-6.929	0.099
175.400	9.039	0.099
175.500	-16.762	0.099
175.600	-24.672	0.099
175.700	-2.208	0.099
175.800	-2.602	0.099
175.900	-10.672	0.099
176.000	1.684	0.099
176.100	-12.195	0.099
176.200	-14.104	0.099
176.300	-9.844	0.099
176.400	-5.492	0.099
176.500	-12.240	0.099
176.600	-13.499	0.099
176.700	-11.243	0.099
176.800	-14.264	0.099
176.900	-5.699	0.099
177.000	5.362	0.099
177.100	-1.874	0.099
177.200	-16.215	0.099
177.300	-9.802	0.099
177.400	-18.109	0.099
177.500	-1.021	0.099
177.600	-3.193	0.099
177.700	-13.722	0.099
177.800	-6.869	0.099
177.900	-7.617	0.099
178.000	-5.835	0.099
178.100	-14.705	0.099
178.200	-18.090	0.099
178.300	11.900	0.099
178.400	-2.513	0.099
178.500	-5.321	0.099
178.600	-27.301	0.099
178.700	-3.832	0.099
178.800	-13.399	0.099
178.900	0.028	0.099
179.000	-11.212	0.099
179.100	-3.486	0.099
179.200	-5.493	0.099
179.300	-12.214	0.099
179.400	-6.921	0.099
179.500	-8.572	0.099
179.600	-10.337	0.099
179.700	-8.886	0.099
179.800	-7.204	0.099
179.900	0.007	0.099
180.000	-6.480	0.099
180.100	-4.434	0.099
180.200	0.761	0.099
180.300	5.521	0.099
180.400	8.617	0.099
180.500	4.235	0.099
180.600	-1.789	0.099
180.700	-2.553	0.099
180.800	1.659	0.099
180.900	10.202	0.099
181.000	0.459	0.099
181.100	19.481	0.099
181.200	5.798	0.099
181.300	14.897	0.099
181.400	10.656	0.099
181.500	3.706	0.099
181.600	17.622	0.099
181.700	16.961	0.099
181.800	5.304	0.099
181.900	18.276	0.099
182.000	8.626	0.099
182.100	7.486	0.099
182.200	4.796	0.099
182.300	12.016	0.099
182.400	3.130	0.099
182.500	24.751	0.099
182.600	12.937	0.099
182.700	-0.001	0.099
182.800	17.395	0.099
182.900	10.395	0.099
183.000	-2.332	0.099
183.100	18.977	0.099
183.200	18.088	0.099
183.300	15.208	0.099
183.400	2.441	0.099
183.500	9.402	0.099
183.600	33.403	0.099
183.700	-3.984	0.099
183.800	7.113	0.099
183.900	23.734	0.099
184.000	19.920	0.099
184.100	2.999	0.099
184.200	12.816	0.099
184.300	21.282	0.099
184.400	11.868	0.099
184.500	9.557	0.099
184.600	22.713	0.099
184.700	17.190	0.099
184.800	5.641	0.099
184.900	6.590	0.099
185.000	22.319	0.099
185.100	17.741	0.099
185.200	6.498	0.099
185.300	16.329	0.099
185.400	13.756	0.099
185.500	14.152	0.099
185.600	-2.358	0.099
185.700	23.689	0.099
185.800	8.738	0.099
185.900	14.762	0.099
186.000	29.379	0.099
186.100	8.090	0.099
186.200	21.557	0.099
186.300	22.753	0.099
186.400	21.113	0.099
186.500	5.824	0.099
186.600	11.221	0.099
186.700	18.023	0.099
186.800	9.565	0.099
186.900	29.910	0.099
187.000	37.586	0.099
187.100	5.754	0.099
187.200	34.680	0.099
187.300	23.682	0.099
187.400	18.456	0.099
187.500	18.659	0.099
187.600	15.599	0.099
187.700	18.698	0.099
187.800	35.055	0.099
187.900	23.282	0.099
188.000	24.469	0.099
188.100	14.930	0.099
188.200	18.031	0.099
188.300	24.934	0.099
188.400	17.991	0.099
188.500	14.105	0.099
188.600	23.353	0.099
188.700	23.399	0.099
188.800	15.096	0.099
188.900	18.851	0.099
189.000	27.322	0.099
189.100	16.904	0.099
189.200	14.003	0.099
189.300	34.492	0.099
189.400	31.985	0.099
189.500	15.734	0.099
189.600	28.103	0.099
189.700	28.519	0.099
189.800	23.098	0.099
189.900	15.549	0.099
190.000	20.382	0.099
190.100	26.685	0.099
190.200	31.767	0.099
190.300	17.319	0.099
190.400	30.030	0.099
190.500	15.587	0.099
190.600	17.821	0.099
190.700	29.635	0.099
190.800	22.395	0.099
190.900	12.506	0.099
191.000	17.990	0.099
191.100	27.314	0.099
191.200	41.931	0.099
191.300	34.812	0.099
191.400	32.788	0.099
191.500	30.752	0.099
191.600	35.222	0.099
191.700	31.675	0.099
191.800	34.307	0.099
191.900	11.264	0.099
192.000	30.867	0.099
192.100	29.292	0.099
192.200	34.289	0.099
192.300	28.739	0.099
192.400	27.747	0.099
192.500	39.381	0.099
192.600	19.580	0.099
192.700	33.069	0.099
192.800	27.581	0.099
192.900	30.071	0.099
193.000	28.278	0.099
193.100	29.680	0.099
193.200	30.398	0.099
193.300	28.723	0.099
193.400	21.896	0.099
193.500	16.647	0.099
193.600	30.127	0.099
193.700	26.953	0.099
193.800	39.345	0.099
193.900	28.631	0.099
194.000	19.168	0.099
194.100	27.855	0.099
194.200	32.362	0.099
194.300	31.298	0.099
194.400	47.841	0.099
194.500	41.360	0.099
194.600	21.856	0.099
194.700	25.318	0.099
194.800	21.858	0.099
194.900	21.596	0.099
195.000	26.688	0.099
195.100	23.767	0.099
195.200	29.742	0.099
195.300	30.050	0.099
195.400	37.095	0.099
195.500	34.349	0.099
195.600	31.647	0.099
195.700	30.712	0.099
195.800	28.710	0.099
195.900	50.764	0.099
196.000	18.187	0.099
196.100	25.592	0.099
196.200	27.767	0.099
196.300	35.709	0.099
196.400	20.203	0.099
196.500	50.204	0.099
196.600	25.075	0.099
196.700	20.647	0.099
196.800	39.993	0.099
196.900	46.465	0.099
197.000	30.502	0.099
197.100	17.616	0.099
197.200	23.567	0.099
197.300	31.801	0.099
197.400	41.490	0.099
197.500	42.058	0.099
197.600	33.169	0.099
197.700	27.364	0.099
197.800	32.166	0.099
197.900	37.308	0.099
198.000	22.718	0.099
198.100	36.613	0.099
198.200	34.296	0.099
198.300	40.774	0.099
198.400	26.994	0.099
198.500	19.256	0.099
198.600	32.532	0.099
198.700	34.785	0.099
198.800	38.273	0.099
198.900	36.648	0.099
199.000	34.803	0.099
199.100	17.846	0.099
199.200	36.271	0.099
199.300	34.757	0.099
199.400	38.579	0.099
199.500	32.048	0.099
199.600	22.942	0.099
199.700	27.018	0.099
199.800	23.030	0.099
199.900	27.661	0.099
200.000	38.001	0.099
200.100	27.874	0.099
200.200	37.877	0.099
200.300	37.449	0.099
200.400	16.314	0.099
200.500	36.489	0.099
200.600	39.714	0.099
200.700	30.751	0.099
200.800	21.114	0.099
200.900	26.397	0.099
201.000	40.438	0.099
201.100	26.931	0.099
201.200	32.952	0.099
201.300	23.731	0.099
201.400	34.690	0.099
201.500	31.947	0.099
201.600	23.288	0.099
201.700	23.636	0.099
201.800	24.753	0.099
201.900	31.756	0.099
202.000	30.398	0.099
202.100	43.825	0.099
202.200	38.232	0.099
202.300	32.442	0.099
202.400	31.616	0.099
202.500	28.645	0.099
202.600	36.564	0.099
202.700	22.522	0.099
202.800	22.452	0.099
202.900	29.719	0.099
203.000	55.610	0.099
203.100	2.213	0.099
203.200	50.139	0.099
203.300	33.464	0.099
203.400	28.345	0.099
203.500	35.505	0.099
203.600	43.547	0.099
203.700	19.151	0.099
203.800	31.439	0.099
203.900	33.848	0.099
204.000	34.147	0.099
204.100	41.327	0.099
204.200	32.573	0.099
204.300	28.271	0.099
204.400	16.894	0.099
204.500	26.326	0.099
204.600	42.211	0.099
204.700	34.014	0.099
204.800	44.089	0.099
204.900	15.721	0.099
205.000	39.643	0.099
205.100	31.437	0.099
205.200	39.952	0.099
205.300	27.983	0.099
205.400	32.332	0.099
205.500	38.433	0.099
205.600	30.926	0.099
205.700	40.095	0.099
205.800	37.728	0.099
205.900	35.291	0.099
206.000	32.153	0.099
206.100	16.499	0.099
206.200	12.766	0.099
206.300	36.768	0.099
206.400	23.876	0.099
206.500	40.986	0.099
206.600	29.417	0.099
206.700	32.452	0.099
206.800	26.561	0.099
206.900	30.995	0.099
207.000	38.529	0.099
207.100	26.130	0.099
207.200	27.549	0.099
207.300	24.681	0.099
207.400	20.109	0.099
207.500	34.980	0.099
207.600	32.077	0.099
207.700	12.067	0.099
207.800	26.897	0.099
207.900	36.058	0.099
208.000	27.681	0.099
208.100	31.501	0.099
208.200	42.452	0.099
208.300	20.462	0.099
208.400	28.771	0.099
208.500	32.441	0.099
208.600	28.088	0.099
208.700	28.932	0.099
208.800	34.444	0.099
208.900	16.889	0.099
209.000	32.292	0.099
209.100	35.963	0.099
209.200	35.027	0.099
209.300	27.619	0.099
209.400	31.167	0.099
209.500	28.819	0.099
209.600	38.445	0.099
209.700	30.476	0.099
209.800	15.544	0.099
209.900	29.632	0.099
210.000	25.336	0.099
210.100	36.962	0.099
210.200	32.872	0.099
210.300	30.416	0.099
210.400	20.051	0.099
210.500	34.009	0.099
210.600	25.213	0.099
210.700	28.065	0.099
210.800	22.060	0.099
210.900	31.839	0.099
211.000	29.888	0.099
211.100	25.967	0.099
211.200	30.680	0.099
211.300	26.565	0.099
211.400	19.021	0.099
211.500	35.376	0.099
211.600	32.060	0.099
211.700	42.394	0.099
211.800	29.413	0.099
211.900	32.499	0.099
212.000	19.707	0.099
212.100	35.571	0.099
212.200	19.151	0.099
212.300	22.338	0.099
212.400	33.704	0.099
212.500	21.049	0.099
212.600	41.617	0.099
212.700	36.378	0.099
212.800	18.492	0.099
212.900	23.561	0.099
213.000	32.724	0.099
213.100	31.427	0.099
213.200	47.068	0.099
213.300	30.225	0.099
213.400	20.322	0.099
213.500	30.706	0.099
213.600	31.698	0.099
213.700	33.172	0.099
213.800	27.086	0.099
213.900	26.043	0.099
214.000	40.547	0.099
214.100	28.694	0.099
214.200	33.880	0.099
214.300	25.805	0.099
214.400	43.662	0.099
214.500	28.751	0.099
214.600	17.807	0.099
214.700	35.113	0.099
214.800	32.942	0.099
214.900	20.012	0.099
215.000	27.708	0.099
215.100	26.569	0.099
215.200	48.068	0.099
215.300	34.167	0.099
215.400	29.613	0.099
215.500	33.325	0.099
215.600	21.650	0.099
215.700	28.319	0.099
215.800	20.672	0.099
215.900	36.799	0.099
216.000	25.014	0.099
216.100	36.861	0.099
216.200	23.295	0.099
216.300	33.537	0.099
216.400	37.413	0.099
216.500	32.940	0.099
216.600	44.654	0.099
216.700	28.140	0.099
216.800	31.267	0.099
216.900	30.612	0.099
217.000	27.842	0.099
217.100	18.677	0.099
217.200	34.541	0.099
217.300	29.863	0.099
217.400	23.132	0.099
217.500	34.657	0.099
217.600	29.736	0.099
217.700	34.494	0.099
217.800	28.209	0.099
217.900	29.987	0.099
218.000	23.884	0.099
218.100	38.635	0.099
218.200	23.782	0.099
218.300	28.994	0.099
218.400	35.057	0.099
218.500	23.695	0.099
218.600	35.029	0.099
218.700	23.183	0.099
218.800	42.708	0.099
218.900	17.920	0.099
219.000	34.714	0.099
219.100	29.448	0.099
219.200	23.957	0.099
219.300	33.567	0.099
219.400	24.745	0.099
219.500	41.538	0.099
219.600	30.939	0.099
219.700	35.825	0.099
219.800	29.668	0.099
219.900	33.845	0.099
220.000	25.486	0.099
220.100	32.407	0.099
220.200	30.936	0.099
220.300	35.160	0.099
220.400	36.743	0.099
220.500	33.988	0.099
220.600	26.711	0.099
220.700	22.022	0.099
220.800	36.885	0.099
220.900	30.742	0.099
221.000	30.583	0.099
221.100	20.427	0.099
221.200	23.999	0.099
221.300	33.330	0.099
221.400	31.886	0.099
221.500	15.187	0.099
221.600	35.540	0.099
221.700	26.984	0.099
221.800	34.424	0.099
221.900	11.826	0.099
222.000	36.634	0.099
222.100	37.297	0.099
222.200	28.976	0.099
222.300	31.130	0.099
222.400	33.409	0.099
222.500	18.029	0.099
222.600	24.679	0.099
222.700	39.413	0.099
222.800	33.654	0.099
222.900	34.393	0.099
223.000	35.379	0.099
223.100	28.939	0.099
223.200	19.692	0.099
223.300	30.130	0.099
223.400	38.001	0.099
223.500	40.428	0.099
223.600	23.559	0.099
223.700	45.533	0.099
223.800	26.839	0.099
223.900	23.101	0.099
224.000	29.048	0.099
224.100	32.511	0.099
224.200	33.127	0.099
224.300	29.373	0.099
224.400	43.210	0.099
224.500	13.560	0.099
224.600	27.823	0.099
224.700	35.266	0.099
224.800	27.379	0.099
224.900	33.191	0.099
225.000	23.188	0.099
225.100	39.021	0.099
225.200	32.616	0.099
225.300	36.958	0.099
225.400	28.144	0.099
225.500	43.683	0.099
225.600	44.473	0.099
225.700	32.493	0.099
225.800	3.030	0.099
225.900	34.083	0.099
226.000	23.855	0.099
226.100	41.529	0.099
226.200	42.626	0.099
226.300	22.163	0.099
226.400	30.434	0.099
226.500	41.931	0.099
226.600	44.418	0.099
226.700	31.904	0.099
226.800	14.212	0.099
226.900	30.414	0.099
227.000	26.256	0.099
227.100	32.230	0.099
227.200	28.547	0.099
227.300	22.151	0.099
227.400	22.561	0.099
227.500	29.084	0.099
227.600	38.502	0.099
227.700	34.274	0.099
227.800	28.533	0.099
227.900	29.618	0.099
228.000	29.839	0.099
228.100	22.566	0.099
228.200	43.096	0.099
228.300	27.038	0.099
228.400	21.194	0.099
228.500	20.192	0.099
228.600	20.794	0.099
228.700	44.378	0.099
228.800	31.344	0.099
228.900	41.894	0.099
229.000	33.102	0.099
229.100	42.902	0.099
229.200	32.794	0.099
229.300	31.218	0.099
229.400	35.041	0.099
229.500	48.004	0.099
229.600	35.377	0.099
229.700	26.985	0.099
229.800	17.495	0.099
229.900	33.594	0.099
230.000	38.849	0.099
230.100	28.794	0.099
230.200	36.182	0.099
230.300	35.748	0.099
230.400	31.800	0.099
230.500	25.839	0.099
230.600	27.565	0.099
230.700	27.310	0.099
230.800	31.555	0.099
230.900	29.001	0.099
231.000	20.377	0.099
231.100	19.535	0.099
231.200	28.227	0.099
231.300	12.525	0.099
231.400	43.862	0.099
231.500	23.663	0.099
231.600	25.512	0.099
231.700	34.895	0.099
231.800	31.327	0.099
231.900	31.419	0.099
232.000	38.933	0.099
232.100	21.788	0.099
232.200	30.219	0.099
232.300	19.956	0.099
232.400	31.950	0.099
232.500	39.397	0.099
232.600	23.522	0.099
232.700	21.706	0.099
232.800	39.160	0.099
232.900	21.457	0.099
233.000	27.084	0.099
233.100	29.136	0.099
233.200	35.331	0.099
233.300	19.789	0.099
233.400	40.052	0.099
233.500	29.965	0.099
233.600	38.453	0.099
233.700	26.070	0.099
233.800	34.822	0.099
233.900	24.334	0.099
234.000	39.810	0.099
234.100	29.638	0.099
234.200	32.005	0.099
234.300	27.185	0.099
234.400	23.807	0.099
234.500	19.001	0.099
234.600	38.879	0.099
234.700	24.967	0.099
234.800	17.510	0.099
234.900	32.019	0.099
235.000	34.249	0.099
235.100	29.159	0.099
235.200	31.060	0.099
235.300	28.132	0.099
235.400	36.448	0.099
235.500	33.042	0.099
235.600	9.992	0.099
235.700	13.555	0.099
235.800	25.514	0.099
235.900	32.661	0.099
236.000	30.376	0.099
236.100	40.003	0.099
236.200	29.979	0.099
236.300	33.374	0.099
236.400	26.154	0.099
236.500	30.969	0.099
236.600	24.801	0.099
236.700	32.656	0.099
236.800	21.089	0.099
236.900	16.178	0.099
237.000	17.854	0.099
237.100	35.662	0.099
237.200	29.628	0.099
237.300	33.045	0.099
237.400	29.496	0.099
237.500	22.236	0.099
237.600	36.161	0.099
237.700	29.551	0.099
237.800	28.715	0.099
237.900	23.575	0.099
238.000	27.450	0.099
238.100	30.177	0.099
238.200	12.019	0.099
238.300	29.860	0.099
238.400	33.998	0.099
238.500	24.832	0.099
238.600	18.781	0.099
238.700	30.455	0.099
238.800	18.454	0.099
238.900	34.501	0.099
239.000	22.715	0.099
239.100	31.853	0.099
239.200	32.820	0.099
239.300	22.367	0.099
239.400	33.911	0.099
239.500	13.189	0.099
239.600	24.421	0.099
239.700	32.427	0.099
239.800	19.268	0.099
239.900	18.204	0.099
240.000	24.362	0.099
240.100	26.884	0.099
240.200	33.555	0.099
240.300	6.233	0.099
240.400	8.841	0.099
240.500	5.540	0.099
240.600	17.421	0.099
240.700	12.180	0.099
240.800	10.882	0.099
240.900	4.725	0.099
241.000	3.461	0.099
241.100	-2.055	0.099
241.200	4.545	0.099
241.300	12.457	0.099
241.400	5.501	0.099
241.500	2.739	0.099
241.600	-4.536	0.099
241.700	6.776	0.099
241.800	1.081	0.099
241.900	1.554	0.099
242.000	-8.058	0.099
242.100	3.352	0.099
242.200	-0.387	0.099
242.300	9.201	0.099
242.400	9.128	0.099
242.500	11.499	0.099
242.600	-9.052	0.099
242.700	5.091	0.099
242.800	-3.767	0.099
242.900	-5.642	0.099
243.000	2.150	0.099
243.100	-12.653	0.099
243.200	11.114	0.099
243.300	-11.268	0.099
243.400	7.612	0.099
243.500	0.273	0.099
243.600	-6.083	0.099
243.700	1.539	0.099
243.800	-11.309	0.099
243.900	1.733	0.099
244.000	0.073	0.099
244.100	-9.877	0.099
244.200	-1.833	0.099
244.300	-8.777	0.099
244.400	-0.971	0.099
244.500	4.729	0.099
244.600	8.056	0.099
244.700	-6.466	0.099
244.800	-0.939	0.099
244.900	-18.476	0.099
245.000	-6.959	0.099
245.100	-0.908	0.099
245.200	-1.099	0.099
245.300	-17.883	0.099
245.400	0.881	0.099
245.500	-10.535	0.099
245.600	-10.020	0.099
245.700	4.663	0.099
245.800	-1.755	0.099
245.900	-4.190	0.099
246.000	-6.796	0.099
246.100	-4.368	0.099
246.200	7.529	0.099
246.300	-7.088	0.099
246.400	-5.194	0.099
246.500	-14.861	0.099
246.600	-0.351	0.099
246.700	-9.776	0.099
246.800	-10.596	0.099
246.900	-5.647	0.099
247.000	-10.679	0.099
247.100	-21.138	0.099
247.200	9.450	0.099
247.300	-6.117	0.099
247.400	-10.521	0.099
247.500	-7.518	0.099
247.600	-9.706	0.099
247.700	-8.653	0.099
247.800	-15.180	0.099
247.900	-0.482	0.099
248.000	-10.658	0.099
248.100	-2.280	0.099
248.200	-13.623	0.099
248.300	-1.302	0.099
248.400	-10.998	0.099
248.500	-2.551	0.099
248.600	-11.314	0.099
248.700	-8.931	0.099
248.800	-11.368	0.099
248.900	-18.493	0.099
249.000	-8.958	0.099
249.100	-7.218	0.099
249.200	-5.316	0.099
249.300	-7.539	0.099
249.400	-6.095	0.099
249.500	-12.064	0.099
249.600	10.518	0.099
249.700	-0.338	0.099
249.800	-8.121	0.099
249.900	-6.357	0.099
250.000	-10.540	0.099
250.100	-12.416	0.099
250.200	-16.221	0.099
250.300	-7.815	0.099
250.400	-4.525	0.099
250.500	-7.359	0.099
250.600	-11.174	0.099
250.700	-17.424	0.099
250.800	-5.679	0.099
250.900	-11.119	0.099
251.000	-28.606	0.099
251.100	4.123	0.099
251.200	-15.955	0.099
251.300	-10.589	0.099
251.400	-13.573	0.099
251.500	-13.647	0.099
251.600	-24.369	0.099
251.700	-7.740	0.099
251.800	-8.981	0.099
251.900	-25.812	0.099
252.000	-17.782	0.099
252.100	-4.693	0.099
252.200	-18.238	0.099
252.300	-25.459	0.099
252.400	-15.072	0.099
252.500	-3.595	0.099
252.600	-5.994	0.099
252.700	-10.259	0.099
252.800	-3.925	0.099
252.900	-39.323	0.099
253.000	-15.447	0.099
253.100	-25.105	0.099
253.200	-1.775	0.099
253.300	-9.349	0.099
253.400	-14.972	0.099
253.500	-15.265	0.099
253.600	-17.663	0.099
253.700	-5.142	0.099
253.800	-11.502	0.099
253.900	-15.132	0.099
254.000	-23.419	0.099
254.100	-26.513	0.099
254.200	-16.291	0.099
254.300	-7.564	0.099
254.400	-16.375	0.099
254.500	-6.080	0.099
254.600	-15.407	0.099
254.700	-3.769	0.099
254.800	-6.113	0.099
254.900	-28.003	0.099
255.000	-26.471	0.099
255.100	-5.303	0.099
255.200	-17.587	0.099
255.300	-12.877	0.099
255.400	-1.404	0.099
255.500	-24.614	0.099
255.600	-24.658	0.099
255.700	-9.370	0.099
255.800	-18.062	0.099
255.900	-16.172	0.099
256.000	-15.744	0.099
256.100	-2.290	0.099
256.200	-18.489	0.099
256.300	-18.581	0.099
256.400	-24.759	0.099
256.500	-10.359	0.099
256.600	-19.743	0.099
256.700	-15.874	0.099
256.800	-8.316	0.099
256.900	-15.958	0.099
257.000	-18.017	0.099
257.100	-12.239	0.099
257.200	-21.582	0.099
257.300	-13.577	0.099
257.400	-1.612	0.099
257.500	-13.988	0.099
257.600	-17.519	0.099
257.700	-10.424	0.099
257.800	-20.615	0.099
257.900	-15.646	0.099
258.000	-13.332	0.099
258.100	-12.890	0.099
258.200	-19.846	0.099
258.300	-16.723	0.099
258.400	-12.581	0.099
258.500	-32.351	0.099
258.600	-11.734	0.099
258.700	-26.133	0.099
258.800	-22.334	0.099
258.900	-6.750	0.099
259.000	-5.419	0.099
259.100	-19.635	0.099
259.200	-23.391	0.099
259.300	-14.459	0.099
259.400	-16.615	0.099
259.500	-22.818	0.099
259.600	-13.570	0.099
259.700	-35.005	0.099
259.800	-17.307	0.099
259.900	-21.061	0.099
260.000	-15.158	0.099
260.100	-15.621	0.099
260.200	-8.353	0.099
260.300	-11.354	0.099
260.400	-18.846	0.099
260.500	-22.041	0.099
260.600	-30.754	0.099
260.700	-10.370	0.099
260.800	-19.189	0.099
260.900	-17.418	0.099
261.000	-17.757	0.099
261.100	-17.328	0.099
261.200	-26.290	0.099
261.300	-9.934	0.099
261.400	-26.631	0.099
261.500	-16.364	0.099
261.600	-15.696	0.099
261.700	-24.922	0.099
261.800	-16.818	0.099
261.900	-15.120	0.099
262.000	-23.968	0.099
262.100	0.934	0.099
262.200	-37.339	0.099
262.300	-19.641	0.099
262.400	-21.828	0.099
262.500	-22.844	0.099
262.600	-29.785	0.099
262.700	-14.978	0.099
262.800	-14.565	0.099
262.900	-17.605	0.099
263.000	-41.220	0.099
263.100	-16.913	0.099
263.200	-5.490	0.099
263.300	-16.789	0.099
263.400	-23.036	0.099
263.500	-12.242	0.099
263.600	-17.151	0.099
263.700	-4.588	0.099
263.800	-21.979	0.099
263.900	-21.578	0.099
264.000	-21.696	0.099
264.100	-21.156	0.099
264.200	-15.813	0.099
264.300	-20.019	0.099
264.400	-17.450	0.099
264.500	-21.795	0.099
264.600	-16.806	0.099
264.700	-22.472	0.099
264.800	-13.772	0.099
264.900	-11.079	0.099
265.000	-12.779	0.099
265.100	-28.588	0.099
265.200	-25.746	0.099
265.300	-9.186	0.099
265.400	-26.165	0.099
265.500	-8.672	0.099
265.600	-16.202	0.099
265.700	-15.511	0.099
265.800	-18.394	0.099
265.900	-19.714	0.099
266.000	-18.626	0.099
266.100	-25.491	0.099
266.200	-15.441	0.099
266.300	-10.451	0.099
266.400	-14.562	0.099
266.500	-12.953	0.099
266.600	-19.285	0.099
266.700	-15.685	0.099
266.800	-23.836	0.099
266.900	-24.330	0.099
267.000	-24.069	0.099
267.100	-28.700	0.099
267.200	-21.006	0.099
267.300	-16.339	0.099
267.400	-15.187	0.099
267.500	-23.545	0.099
267.600	-15.946	0.099
267.700	-9.443	0.099
267.800	-8.648	0.099
267.900	-11.010	0.099
268.000	-13.538	0.099
268.100	-24.221	0.099
268.200	-34.556	0.099
268.300	-26.658	0.099
268.400	-30.083	0.099
268.500	-24.348	0.099
268.600	-13.924	0.099
268.700	-8.043	0.099
268.800	-8.796	0.099
268.900	-19.265	0.099
269.000	-8.764	0.099
269.100	-26.910	0.099
269.200	-22.706	0.099
269.300	-24.975	0.099
269.400	-18.150	0.099
269.500	-13.920	0.099
269.600	-19.114	0.099
269.700	-23.443	0.099
269.800	-16.766	0.099
269.900	-16.511	0.099
270.000	-22.687	0.099
270.100	-7.501	0.099
270.200	-21.487	0.099
270.300	-18.824	0.099
270.400	-3.727	0.099
270.500	-17.060	0.099
270.600	-16.053	0.099
270.700	-17.372	0.099
270.800	-23.558	0.099
270.900	-22.805	0.099
271.000	-12.619	0.099
271.100	-6.874	0.099
271.200	-14.230	0.099
271.300	-18.880	0.099
271.400	-26.061	0.099
271.500	-1.718	0.099
271.600	-12.063	0.099
271.700	-29.742	0.099
271.800	-13.116	0.099
271.900	-17.964	0.099
272.000	-24.656	0.099
272.100	-7.880	0.099
272.200	-18.874	0.099
272.300	-27.006	0.099
272.400	-29.110	0.099
272.500	-11.666	0.099
272.600	-6.203	0.099
272.700	-24.822	0.099
272.800	-21.639	0.099
272.900	-15.039	0.099
273.000	-28.531	0.099
273.100	-15.599	0.099
273.200	-27.659	0.099
273.300	-19.709	0.099
273.400	-16.108	0.099
273.500	-15.685	0.099
273.600	-17.482	0.099
273.700	-23.852	0.099
273.800	-13.794	0.099
273.900	-20.867	0.099
274.000	-23.752	0.099
274.100	-8.719	0.099
274.200	-1.496	0.099
274.300	-5.904	0.099
274.400	-29.107	0.099
274.500	-25.115	0.099
274.600	-11.572	0.099
274.700	-27.216	0.099
274.800	-25.067	0.099
274.900	-17.673	0.099
275.000	-24.639	0.099
275.100	-6.276	0.099
275.200	-17.460	0.099
275.300	-25.053	0.099
275.400	-10.915	0.099
275.500	-16.232	0.099
275.600	-21.949	0.099
275.700	-19.113	0.099
275.800	-19.612	0.099
275.900	-23.490	0.099
276.000	-2.012	0.099
276.100	-21.396	0.099
276.200	-20.330	0.099
276.300	-23.277	0.099
276.400	-14.645	0.099
276.500	-20.937	0.099
276.600	-2.823	0.099
276.700	-14.636	0.099
276.800	-13.811	0.099
276.900	-9.665	0.099
277.000	-3.226	0.099
277.100	-7.034	0.099
277.200	-23.946	0.099
277.300	-23.278	0.099
277.400	-24.323	0.099
277.500	-13.034	0.099
277.600	-10.055	0.099
277.700	-6.159	0.099
277.800	-25.297	0.099
277.900	-13.695	0.099
278.000	-16.493	0.099
278.100	-14.115	0.099
278.200	-23.326	0.099
278.300	-18.919	0.099
278.400	-14.536	0.099
278.500	-16.416	0.099
278.600	-15.309	0.099
278.700	-3.222	0.099
278.800	-16.398	0.099
278.900	-22.017	0.099
279.000	-12.677	0.099
279.100	-18.529	0.099
279.200	-12.418	0.099
279.300	-9.270	0.099
279.400	-9.617	0.099
279.500	-29.054	0.099
279.600	-28.083	0.099
279.700	-4.639	0.099
279.800	-20.825	0.099
279.900	-25.585	0.099
280.000	-13.848	0.099
280.100	-16.188	0.099
280.200	-8.669	0.099
280.300	-17.116	0.099
280.400	-34.112	0.099
280.500	-23.740	0.099
280.600	-24.001	0.099
280.700	-19.519	0.099
280.800	-5.166	0.099
280.900	-24.941	0.099
281.000	-21.099	0.099
281.100	-1.618	0.099
281.200	-19.819	0.099
281.300	-23.049	0.099
281.400	-16.837	0.099
281.500	-14.055	0.099
281.600	-15.393	0.099
281.700	-13.836	0.099
281.800	-21.515	0.099
281.900	-15.066	0.099
282.000	-11.992	0.099
282.100	-18.719	0.099
282.200	-2.197	0.099
282.300	-10.145	0.099
282.400	-19.353	0.099
282.500	-17.653	0.099
282.600	-13.851	0.099
282.700	-16.561	0.099
282.800	-9.076	0.099
282.900	-18.995	0.099
283.000	-22.919	0.099
283.100	-24.329	0.099
283.200	-9.944	0.099
283.300	-8.813	0.099
283.400	-18.984	0.099
283.500	-14.169	0.099
283.600	-18.150	0.099
283.700	-22.230	0.099
283.800	-11.541	0.099
283.900	-15.484	0.099
284.000	-26.958	0.099
284.100	-18.834	0.099
284.200	-16.416	0.099
284.300	-21.813	0.099
284.400	1.913	0.099
284.500	-19.656	0.099
284.600	-17.185	0.099
284.700	-15.108	0.099
284.800	-14.160	0.099
284.900	-16.382	0.099
285.000	-15.634	0.099
285.100	-14.371	0.099
285.200	-24.983	0.099
285.300	-10.356	0.099
285.400	-12.824	0.099
285.500	-17.569	0.099
285.600	-17.036	0.099
285.700	-8.454	0.099
285.800	-27.717	0.099
285.900	-2.551	0.099
286.000	-11.942	0.099
286.100	-13.708	0.099
286.200	-15.851	0.099
286.300	-17.559	0.099
286.400	-13.660	0.099
286.500	-23.959	0.099
286.600	-4.754	0.099
286.700	-24.075	0.099
286.800	-10.998	0.099
286.900	-13.111	0.099
287.000	-19.866	0.099
287.100	-12.644	0.099
287.200	-28.533	0.099
287.300	-19.482	0.099
287.400	-1.269	0.099
287.500	-9.076	0.099
287.600	-11.732	0.099
287.700	-25.961	0.099
287.800	-11.247	0.099
287.900	-2.850	0.099
288.000	-10.411	0.099
288.100	-25.497	0.099
288.200	-18.943	0.099
288.300	-16.917	0.099
288.400	-11.532	0.099
288.500	-14.370	0.099
288.600	-2.811	0.099
288.700	-25.427	0.099
288.800	-6.216	0.099
288.900	-24.643	0.099
289.000	-10.950	0.099
289.100	-11.486	0.099
289.200	-24.450	0.099
289.300	-30.888	0.099
289.400	-13.142	0.099
289.500	-11.378	0.099
289.600	-23.563	0.099
289.700	-25.953	0.099
289.800	-6.143	0.099
289.900	-10.463	0.099
290.000	-9.733	0.099
290.100	-12.812	0.099
290.200	-23.284	0.099
290.300	-14.076	0.099
290.400	-7.024	0.099
290.500	-16.207	0.099
290.600	-17.577	0.099
290.700	-16.397	0.099
290.800	-15.616	0.099
290.900	-5.810	0.099
291.000	-27.098	0.099
291.100	-16.153	0.099
291.200	-22.606	0.099
291.300	-8.157	0.099
291.400	-11.457	0.099
291.500	-9.656	0.099
291.600	-10.521	0.099
291.700	-22.741	0.099
291.800	-24.979	0.099
291.900	-22.384	0.099
292.000	-9.474	0.099
292.100	-10.779	0.099
292.200	-18.508	0.099
292.300	-15.058	0.099
292.400	-14.961	0.099
292.500	-17.224	0.099
292.600	-8.504	0.099
292.700	-6.922	0.099
292.800	-11.296	0.099
292.900	-5.650	0.099
293.000	-26.232	0.099
293.100	-20.148	0.099
293.200	-5.111	0.099
293.300	-13.569	0.099
293.400	-19.355	0.099
293.500	-7.848	0.099
293.600	-11.519	0.099
293.700	-26.196	0.099
293.800	-10.539	0.099
293.900	-10.837	0.099
294.000	-16.571	0.099
294.100	-31.442	0.099
294.200	-2.937	0.099
294.300	-10.580	0.099
294.400	-30.780	0.099
294.500	6.737	0.099
294.600	-10.614	0.099
294.700	-22.230	0.099
294.800	-16.422	0.099
294.900	-6.686	0.099
295.000	-16.191	0.099
295.100	-8.325	0.099
295.200	-11.577	0.099
295.300	-35.189	0.099
295.400	-15.092	0.099
295.500	1.723	0.099
295.600	-33.717	0.099
295.700	-11.207	0.099
295.800	-7.439	0.099
295.900	-6.345	0.099
296.000	-22.519	0.099
296.100	-4.732	0.099
296.200	-14.075	0.099
296.300	-16.696	0.099
296.400	-16.692	0.099
296.500	-24.527	0.099
296.600	-17.641	0.099
296.700	-20.973	0.099
296.800	-10.500	0.099
296.900	-1.240	0.099
297.000	-16.281	0.099
297.100	-16.910	0.099
297.200	-9.924	0.099
297.300	-26.083	0.099
297.400	-20.396	0.099
297.500	-4.952	0.099
297.600	-16.418	0.099
297.700	-7.002	0.099
297.800	-15.652	0.099
297.900	-11.774	0.099
298.000	-20.059	0.099
298.100	-26.750	0.099
298.200	16.515	0.099
298.300	-10.062	0.099
298.400	-15.483	0.099
298.500	-11.229	0.099
298.600	-19.073	0.099
298.700	-8.189	0.099
298.800	-26.542	0.099
298.900	-14.778	0.099
299.000	-10.405	0.099
299.100	-1.952	0.099
299.200	-15.562	0.099
299.300	-13.296	0.099
299.400	-3.421	0.099
299.500	-3.192	0.099
299.600	-19.894	0.099
299.700	-8.439	0.099
299.800	-29.605	0.099
299.900	-15.429	0.099
300.000	7.602	0.099
300.100	-7.320	0.099
300.200	-20.782	0.099
300.300	-7.128	0.099
300.400	-7.483	0.099
300.500	-9.634	0.099
300.600	-18.697	0.099
300.700	-20.076	0.099
300.800	-10.753	0.099
300.900	-16.229	0.099
301.000	1.466	0.099
301.100	-11.025	0.099
301.200	-13.817	0.099
301.300	-14.864	0.099
301.400	-12.792	0.099
301.500	-3.161	0.099
301.600	-21.894	0.099
301.700	-8.797	0.099
301.800	-13.854	0.099
301.900	-12.965	0.099
302.000	-8.469	0.099
302.100	-29.609	0.099
302.200	-22.943	0.099
302.300	-4.907	0.099
302.400	-27.278	0.099
302.500	-9.761	0.099
302.600	-10.690	0.099
302.700	-13.782	0.099
302.800	-4.118	0.099
302.900	-7.819	0.099
303.000	-11.904	0.099
303.100	2.488	0.099
303.200	-22.064	0.099
303.300	-13.365	0.099
303.400	-8.807	0.099
303.500	2.409	0.099
303.600	-11.041	0.099
303.700	-35.540	0.099
303.800	-11.516	0.099
303.900	-17.930	0.099
304.000	-0.749	0.099
304.100	-11.122	0.099
304.200	-8.411	0.099
304.300	-15.711	0.099
304.400	-11.534	0.099
304.500	-0.409	0.099
304.600	-5.568	0.099
304.700	-15.749	0.099
304.800	-18.027	0.099
304.900	-13.560	0.099
305.000	-3.189	0.099
305.100	1.427	0.099
305.200	-15.383	0.099
305.300	-18.277	0.099
305.400	-14.475	0.099
305.500	-8.744	0.099
305.600	-9.090	0.099
305.700	-11.736	0.099
305.800	-12.139	0.099
305.900	-17.915	0.099
306.000	-11.874	0.099
306.100	-18.381	0.099
306.200	-16.418	0.099
306.300	1.870	0.099
306.400	-11.117	0.099
306.500	-23.569	0.099
306.600	-18.866	0.099
306.700	-3.243	0.099
306.800	-25.349	0.099
306.900	-4.376	0.099
307.000	-15.268	0.099
307.100	-17.300	0.099
307.200	-4.442	0.100
307.300	-13.772	0.099
307.400	-16.084	0.099
307.500	-8.391	0.100
307.600	-18.218	0.099
307.700	-5.584	0.100
307.800	-11.304	0.099
307.900	-18.309	0.099
308.000	1.094	0.099
308.100	-16.460	0.099
308.200	-27.147	0.099
308.300	-11.489	0.099
308.400	-3.208	0.099
308.500	-10.988	0.099
308.600	-6.898	0.099
308.700	-1.029	0.100
308.800	-18.340	0.099
308.900	-21.053	0.099
309.000	-11.777	0.100
309.100	-16.443	0.099
309.200	-16.977	0.100
309.300	-0.972	0.099
309.400	-1.660	0.100
309.500	-6.464	0.100
309.600	-16.618	0.100
309.700	-5.578	0.100
309.800	-9.790	0.100
309.900	-13.368	0.099
310.000	-5.484	0.099
310.100	-13.519	0.099
310.200	-13.176	0.099
310.300	-1.143	0.099
310.400	-17.406	0.099
310.500	2.561	0.099
310.600	-13.369	0.100
310.700	-7.440	0.100
310.800	-4.537	0.099
310.900	-6.026	0.100
311.000	-8.784	0.100
311.100	-7.608	0.099
311.200	-7.444	0.099
311.300	-5.361	0.099
311.400	-5.581	0.100
311.500	-14.922	0.099
311.600	-18.798	0.099
311.700	-6.858	0.100
311.800	-17.641	0.099
311.900	-22.310	0.100
312.000	-3.349	0.100
312.100	-20.506	0.100
312.200	-13.506	0.100
312.300	-18.886	0.099
312.400	-6.244	0.100
312.500	-13.180	0.100
312.600	-3.577	0.100
312.700	-6.842	0.100
312.800	-7.624	0.100
312.900	-21.492	0.100
313.000	-4.425	0.100
313.100	-17.039	0.100
313.200	-16.194	0.100
313.300	-20.155	0.100
313.400	-10.034	0.100
313.500	-3.813	0.100
313.600	-17.715	0.100
313.700	-16.268	0.100
313.800	-17.032	0.100
313.900	-12.028	0.100
314.000	-14.227	0.100
314.100	-1.355	0.100
314.200	-9.398	0.100
314.300	-4.394	0.100
314.400	-9.897	0.100
314.500	-1.708	0.100
314.600	-9.154	0.100
314.700	-2.836	0.100
314.800	-10.289	0.100
314.900	-4.321	0.100
315.000	-5.473	0.100
315.100	-20.470	0.100
315.200	-14.384	0.100
315.300	-25.939	0.100
315.400	3.293	0.100
315.500	-16.048	0.100
315.600	-26.741	0.100
315.700	-16.050	0.100
315.800	-15.129	0.100
315.900	-0.369	0.100
316.000	-14.624	0.100
316.100	-26.499	0.100
316.200	-25.916	0.100
316.300	-2.992	0.100
316.400	-15.551	0.100
316.500	-2.730	0.100
316.600	-21.440	0.100
316.700	-26.056	0.100
316.800	-2.737	0.100
316.900	-11.492	0.100
317.000	-8.571	0.100
317.100	-14.976	0.100
317.200	-8.114	0.100
317.300	-9.588	0.100
317.400	-27.697	0.100
317.500	-5.404	0.100
317.600	-6.520	0.100
317.700	-18.992	0.100
317.800	-8.873	0.100
317.900	-6.674	0.100
318.000	-18.324	0.100
318.100	-7.440	0.100
318.200	-1.401	0.100
318.300	-9.181	0.100
318.400	-12.851	0.100
318.500	-10.883	0.100
318.600	-9.224	0.100
318.700	-15.143	0.100
318.800	-18.888	0.100
318.900	-4.092	0.100
319.000	-5.528	0.100
319.100	-8.879	0.100
319.200	-0.143	0.100
319.300	-12.366	0.100
319.400	4.732	0.100
319.500	-27.645	0.100
319.600	-9.891	0.100
319.700	3.115	0.100
319.800	-4.500	0.100
319.900	-1.688	0.100
320.000	-11.663	0.100
320.100	-10.211	0.100
320.200	-5.923	0.100
320.300	-0.992	0.100
320.400	-2.993	0.100
320.500	-18.858	0.100
320.600	-4.594	0.100
320.700	-22.456	0.100
320.800	-8.635	0.100
320.900	-11.504	0.100
321.000	-7.933	0.100
321.100	-7.225	0.100
321.200	-18.250	0.100
321.300	-11.687	0.100
321.400	10.704	0.100
321.500	-18.312	0.100
321.600	0.560	0.100
321.700	-17.408	0.100
321.800	-3.197	0.100
321.900	-12.879	0.100
322.000	-2.644	0.100
322.100	-17.916	0.100
322.200	-7.018	0.100
322.300	-12.185	0.100
322.400	-8.233	0.100
322.500	-4.496	0.100
322.600	-4.026	0.100
322.700	-8.017	0.100
322.800	-7.195	0.100
322.900	-7.784	0.100
323.000	-13.944	0.100
323.100	-0.468	0.100
323.200	-9.837	0.100
323.300	-4.781	0.100
323.400	-19.695	0.100
323.500	0.186	0.100
323.600	-13.991	0.100
323.700	1.640	0.100
323.800	3.203	0.100
323.900	-22.086	0.100
324.000	-12.783	0.100
324.100	-8.500	0.100
324.200	-4.739	0.100
324.300	-18.650	0.100
324.400	-15.621	0.100
324.500	-10.020	0.100
324.600	1.320	0.100
324.700	-7.474	0.100
324.800	-3.905	0.100
324.900	-5.649	0.100
325.000	-11.719	0.100
325.100	-9.459	0.100
325.200	-7.793	0.100
325.300	-3.268	0.100
325.400	-18.608	0.100
325.500	-9.090	0.100
325.600	-6.778	0.100
325.700	-10.322	0.100
325.800	-18.372	0.100
325.900	6.013	0.100
326.000	-11.784	0.100
326.100	-8.450	0.100
326.200	-11.606	0.100
326.300	-5.386	0.100
326.400	-22.178	0.100
326.500	-14.535	0.100
326.600	-11.903	0.100
326.700	-11.127	0.100
326.800	-0.640	0.100
326.900	-3.841	0.100
327.000	0.091	0.100
327.100	-12.335	0.100
327.200	-0.134	0.100
327.300	-4.904	0.100
327.400	-4.135	0.100
327.500	-30.695	0.100
327.600	-23.384	0.100
327.700	-10.164	0.100
327.800	-12.531	0.100
327.900	-6.428	0.100
328.000	0.041	0.100
328.100	-17.229	0.100
328.200	-6.071	0.100
328.300	-15.886	0.100
328.400	-9.271	0.100
328.500	-15.636	0.100
328.600	-6.304	0.100
328.700	-11.061	0.100
328.800	-1.000	0.100
328.900	-11.573	0.100
329.000	-19.520	0.100
329.100	-9.150	0.100
329.200	0.211	0.100
329.300	-23.873	0.100
329.400	-2.533	0.100
329.500	-0.499	0.100
329.600	-16.240	0.100
329.700	-10.903	0.100
329.800	-11.543	0.100
329.900	-5.672	0.100
330.000	5.230	0.100
330.100	-7.365	0.100
330.200	-10.157	0.100
330.300	-4.569	0.100
330.400	5.487	0.100
330.500	-1.226	0.100
330.600	-6.840	0.100
330.700	-3.934	0.100
330.800	13.309	0.100
330.900	-4.352	0.100
331.000	4.964	0.100
331.100	16.368	0.100
331.200	9.116	0.100
331.300	12.731	0.100
331.400	3.105	0.100
331.500	17.059	0.100
331.600	3.335	0.100
331.700	11.954	0.100
331.800	10.972	0.100
331.900	12.035	0.100
332.000	13.627	0.100
332.100	17.552	0.100
332.200	0.623	0.100
332.300	23.678	0.100
332.400	7.828	0.100
332.500	4.045	0.100
332.600	7.511	0.100
332.700	13.883	0.100
332.800	19.214	0.100
332.900	22.601	0.100
333.000	10.556	0.100
333.100	15.919	0.100
333.200	8.375	0.100
333.300	15.255	0.100
333.400	17.947	0.100
333.500	9.506	0.100
333.600	9.699	0.100
333.700	14.695	0.100
333.800	14.400	0.100
333.900	19.819	0.100
334.000	4.700	0.100
334.100	12.609	0.100
334.200	14.904	0.100
334.300	21.737	0.100
334.400	8.991	0.100
334.500	0.805	0.100
334.600	3.145	0.100
334.700	11.721	0.100
334.800	10.456	0.100
334.900	7.088	0.100
335.000	17.844	0.100
335.100	13.653	0.100
335.200	-9.002	0.100
335.300	9.604	0.100
335.400	12.472	0.100
335.500	12.115	0.100
335.600	33.927	0.100
335.700	2.967	0.100
335.800	23.488	0.100
335.900	3.523	0.100
336.000	17.482	0.100
336.100	14.726	0.100
336.200	14.950	0.100
336.300	14.695	0.100
336.400	23.109	0.100
336.500	17.778	0.100
336.600	17.132	0.100
336.700	15.132	0.100
336.800	18.772	0.100
336.900	8.962	0.100
337.000	20.388	0.100
337.100	18.650	0.100
337.200	7.845	0.100
337.300	17.154	0.100
337.400	18.659	0.100
337.500	15.782	0.100
337.600	21.030	0.100
337.700	10.610	0.100
337.800	15.412	0.100
337.900	30.822	0.100
338.000	20.692	0.100
338.100	20.034	0.100
338.200	21.377	0.100
338.300	27.939	0.100
338.400	14.468	0.100
338.500	19.522	0.100
338.600	21.353	0.100
338.700	12.788	0.100
338.800	29.540	0.100
338.900	16.331	0.100
339.000	22.588	0.100
339.100	27.746	0.100
339.200	27.510	0.100
339.300	19.016	0.100
339.400	24.835	0.100
339.500	23.450	0.100
339.600	12.815	0.100
339.700	10.825	0.100
339.800	33.780	0.100
339.900	34.792	0.100
340.000	26.042	0.100
340.100	30.835	0.100
340.200	10.679	0.100
340.300	31.860	0.100
340.400	14.943	0.100
340.500	42.789	0.100
340.600	37.082	0.100
340.700	30.104	0.100
340.800	21.416	0.100
340.900	22.094	0.100
341.000	31.380	0.100
341.100	27.053	0.100
341.200	28.743	0.100
341.300	34.448	0.100
341.400	26.826	0.100
341.500	29.435	0.100
341.600	13.957	0.100
341.700	37.495	0.100
341.800	22.213	0.100
341.900	34.257	0.100
342.000	41.691	0.100
342.100	31.347	0.100
342.200	29.714	0.100
342.300	35.105	0.100
342.400	28.673	0.100
342.500	31.755	0.100
342.600	23.779	0.100
342.700	17.622	0.100
342.800	22.012	0.100
342.900	40.638	0.100
343.000	48.081	0.100
343.100	30.130	0.100
343.200	30.278	0.100
343.300	34.588	0.100
343.400	46.298	0.100
343.500	33.355	0.100
343.600	27.942	0.100
343.700	30.850	0.100
343.800	36.235	0.100
343.900	21.651	0.100
344.000	34.962	0.100
344.100	33.556	0.100
344.200	31.641	0.100
344.300	29.600	0.100
344.400	32.590	0.100
344.500	33.837	0.100
344.600	26.636	0.100
344.700	31.833	0.100
344.800	22.732	0.100
344.900	42.554	0.100
345.000	32.341	0.100
345.100	35.826	0.100
345.200	30.622	0.100
345.300	43.674	0.100
345.400	34.341	0.100
345.500	39.172	0.100
345.600	31.932	0.100
345.700	35.457	0.100
345.800	43.773	0.100
345.900	36.365	0.100
346.000	32.089	0.100
346.100	31.521	0.100
346.200	32.329	0.100
346.300	29.681	0.100
346.400	27.362	0.100
346.500	34.856	0.100
346.600	44.096	0.100
346.700	29.479	0.100
346.800	38.575	0.100
346.900	33.254	0.100
347.000	42.015	0.100
347.100	41.137	0.100
347.200	21.624	0.100
347.300	38.914	0.100
347.400	36.996	0.100
347.500	24.677	0.100
347.600	38.659	0.100
347.700	33.657	0.100
347.800	25.387	0.100
347.900	47.211	0.100
348.000	21.387	0.100
348.100	42.311	0.100
348.200	41.593	0.100
348.300	35.406	0.100
348.400	45.704	0.100
348.500	30.212	0.100
348.600	31.823	0.100
348.700	21.265	0.100
348.800	49.503	0.100
348.900	30.557	0.100
349.000	30.343	0.100
349.100	52.596	0.100
349.200	32.545	0.100
349.300	36.477	0.100
349.400	22.922	0.100
349.500	42.070	0.100
349.600	38.405	0.100
349.700	34.817	0.100
349.800	19.228	0.100
349.900	43.180	0.100
350.000	25.861	0.100
350.100	25.793	0.100
350.200	26.672	0.100
350.300	31.448	0.100
350.400	43.261	0.100
350.500	30.535	0.100
350.600	24.303	0.100
350.700	28.369	0.100
350.800	33.101	0.100
350.900	51.254	0.100
351.000	23.165	0.100
351.100	39.443	0.100
351.200	30.626	0.100
351.300	34.074	0.100
351.400	26.883	0.100
351.500	38.500	0.100
351.600	35.944	0.100
351.700	21.284	0.100
351.800	34.988	0.100
351.900	38.860	0.100
352.000	33.159	0.100
352.100	43.061	0.100
352.200	41.355	0.100
352.300	38.941	0.100
352.400	35.840	0.100
352.500	33.442	0.100
352.600	36.700	0.100
352.700	19.205	0.100
352.800	26.255	0.100
352.900	34.257	0.100
353.000	40.530	0.100
353.100	45.474	0.100
353.200	29.502	0.100
353.300	36.884	0.100
353.400	26.658	0.100
353.500	25.936	0.100
353.600	42.491	0.100
353.700	26.558	0.100
353.800	39.123	0.100
353.900	42.636	0.100
354.000	19.247	0.100
354.100	41.499	0.100
354.200	22.286	0.100
354.300	15.075	0.100
354.400	40.818	0.100
354.500	31.317	0.100
354.600	30.631	0.100
354.700	15.341	0.100
354.800	34.166	0.100
354.900	30.360	0.100
355.000	32.993	0.100
355.100	37.501	0.100
355.200	24.759	0.100
355.300	45.111	0.100
355.400	28.498	0.100
355.500	33.914	0.100
355.600	30.044	0.100
355.700	33.099	0.100
355.800	41.522	0.100
355.900	37.458	0.100
356.000	36.620	0.100
356.100	23.535	0.100
356.200	20.923	0.100
356.300	33.570	0.100
356.400	40.632	0.100
356.500	45.709	0.100
356.600	40.124	0.100
356.700	26.076	0.100
356.800	37.470	0.100
356.900	39.654	0.100
357.000	29.129	0.100
357.100	36.433	0.100
357.200	26.571	0.100
357.300	40.583	0.100
357.400	34.092	0.100
357.500	41.771	0.100
357.600	39.800	0.100
357.700	36.175	0.100
357.800	15.760	0.100
357.900	24.717	0.100
358.000	32.103	0.100
358.100	18.203	0.100
358.200	25.530	0.100
358.300	41.305	0.100
358.400	26.207	0.100
358.500	33.521	0.100
358.600	41.835	0.100
358.700	35.774	0.100
358.800	26.883	0.100
358.900	28.741	0.100
359.000	23.611	0.100
359.100	28.764	0.100
359.200	26.853	0.100
359.300	24.246	0.100
359.400	44.912	0.100
359.500	29.204	0.100
359.600	26.913	0.100
359.700	37.805	0.100
359.800	46.022	0.100
359.900	13.833	0.100
360.000	28.853	0.100
360.100	42.533	0.100
360.200	41.400	0.100
360.300	36.777	0.100
360.400	34.416	0.100
360.500	24.491	0.100
360.600	42.059	0.100
360.700	31.958	0.100
360.800	22.167	0.100
360.900	43.469	0.100
361.000	38.637	0.100
361.100	37.699	0.100
361.200	30.311	0.100
361.300	33.796	0.100
361.400	26.393	0.100
361.500	33.615	0.100
361.600	31.063	0.100
361.700	19.520	0.100
361.800	37.040	0.100
361.900	28.272	0.100
362.000	38.132	0.100
362.100	15.615	0.100
362.200	48.973	0.100
362.300	24.267	0.100
362.400	26.117	0.100
362.500	26.757	0.100
362.600	17.282	0.100
362.700	48.066	0.100
362.800	31.715	0.100
362.900	24.451	0.099
363.000	43.224	0.100
363.100	34.279	0.100
363.200	25.154	0.100
363.300	23.883	0.100
363.400	29.780	0.100
363.500	35.629	0.099
363.600	21.062	0.100
363.700	31.634	0.100
363.800	22.693	0.099
363.900	34.161	0.099
364.000	29.551	0.099
364.100	39.838	0.100
364.200	23.744	0.099
364.300	37.956	0.099
364.400	28.895	0.099
364.500	28.114	0.100
364.600	27.284	0.099
364.700	36.960	0.099
364.800	32.336	0.099
364.900	32.595	0.099
365.000	34.025	0.100
365.100	30.881	0.100
365.200	19.916	0.099
365.300	36.895	0.099
365.400	35.947	0.099
365.500	37.119	0.099
365.600	28.939	0.099
365.700	39.944	0.099
365.800	29.260	0.099
365.900	28.029	0.099
366.000	17.830	0.099
366.100	37.794	0.099
366.200	40.868	0.099
366.300	30.098	0.099
366.400	32.150	0.099
366.500	36.290	0.099
366.600	31.874	0.099
366.700	14.146	0.099
366.800	28.565	0.099
366.900	28.875	0.099
367.000	31.188	0.099
367.100	21.572	0.099
367.200	34.700	0.099
367.300	26.438	0.099
367.400	17.669	0.099
367.500	38.582	0.099
367.600	29.924	0.099
367.700	13.527	0.099
367.800	30.280	0.099
367.900	35.347	0.099
368.000	30.471	0.099
368.100	24.893	0.099
368.200	19.434	0.099
368.300	41.706	0.099
368.400	35.868	0.099
368.500	45.102	0.099
368.600	39.742	0.099
368.700	23.959	0.099
368.800	41.436	0.099
368.900	30.774	0.099
369.000	30.298	0.099
369.100	41.989	0.099
369.200	23.727	0.099
369.300	24.891	0.099
369.400	26.034	0.099
369.500	35.798	0.099
369.600	37.217	0.099
369.700	23.229	0.099
369.800	21.085	0.099
369.900	27.427	0.099
370.000	27.020	0.099
370.100	25.064	0.099
370.200	39.712	0.099
370.300	26.675	0.099
370.400	30.275	0.099
370.500	20.232	0.099
370.600	19.303	0.099
370.700	47.112	0.099
370.800	31.418	0.099
370.900	21.198	0.099
371.000	40.759	0.099
371.100	22.697	0.099
371.200	34.827	0.099
371.300	20.065	0.099
371.400	17.327	0.099
371.500	27.284	0.099
371.600	35.825	0.099
371.700	44.842	0.099
371.800	25.194	0.099
371.900	29.492	0.099
372.000	42.169	0.099
372.100	33.605	0.099
372.200	28.053	0.099
372.300	34.687	0.099
372.400	33.840	0.099
372.500	36.076	0.099
372.600	24.049	0.099
372.700	30.211	0.099
372.800	26.566	0.099
372.900	37.928	0.099
373.000	23.462	0.099
373.100	27.812	0.099
373.200	33.679	0.099
373.300	23.068	0.099
373.400	39.437	0.099
373.500	39.221	0.099
373.600	14.862	0.099
373.700	47.272	0.099
373.800	39.682	0.099
373.900	25.385	0.099
374.000	37.018	0.099
374.100	24.510	0.099
374.200	28.299	0.099
374.300	16.744	0.099
374.400	29.816	0.099
374.500	32.146	0.099
374.600	36.798	0.099
374.700	39.308	0.099
374.800	17.914	0.099
374.900	30.630	0.099
375.000	27.878	0.099
375.100	35.875	0.099
375.200	43.615	0.099
375.300	24.631	0.099
375.400	22.783	0.099
375.500	33.144	0.099
375.600	36.846	0.099
375.700	23.973	0.099
375.800	18.224	0.099
375.900	47.396	0.099
376.000	27.561	0.099
376.100	43.994	0.099
376.200	32.766	0.099
376.300	23.590	0.099
376.400	27.946	0.099
376.500	37.376	0.099
376.600	28.606	0.099
376.700	24.039	0.099
376.800	37.625	0.099
376.900	17.771	0.099
377.000	19.580	0.099
377.100	39.943	0.099
377.200	26.835	0.099
377.300	24.046	0.099
377.400	31.930	0.099
377.500	32.137	0.099
377.600	36.625	0.099
377.700	37.218	0.099
377.800	35.485	0.099
377.900	33.597	0.099
378.000	29.510	0.099
378.100	18.720	0.099
378.200	35.728	0.099
378.300	22.956	0.099
378.400	36.964	0.099
378.500	28.911	0.099
378.600	30.536	0.099
378.700	35.454	0.099
378.800	18.440	0.099
378.900	31.008	0.099
379.000	28.885	0.099
379.100	27.716	0.099
379.200	37.155	0.099
379.300	14.799	0.099
379.400	12.567	0.099
379.500	27.333	0.099
379.600	37.180	0.099
379.700	33.855	0.099
379.800	37.481	0.099
379.900	25.533	0.099
380.000	30.389	0.099
380.100	31.956	0.099
380.200	30.760	0.099
380.300	41.940	0.099
380.400	23.120	0.099
380.500	33.008	0.099
380.600	28.785	0.099
380.700	30.890	0.099
380.800	30.772	0.099
380.900	39.363	0.099
381.000	15.027	0.099
381.100	27.781	0.099
381.200	29.895	0.099
381.300	28.104	0.099
381.400	34.460	0.099
381.500	36.151	0.099
381.600	19.629	0.099
381.700	24.531	0.099
381.800	27.503	0.099
381.900	42.702	0.099
382.000	30.540	0.099
382.100	30.357	0.099
382.200	32.038	0.099
382.300	19.574	0.099
382.400	18.566	0.099
382.500	34.354	0.099
382.600	41.347	0.099
382.700	30.803	0.099
382.800	24.793	0.099
382.900	29.742	0.099
383.000	30.715	0.099
383.100	37.175	0.099
383.200	31.811	0.099
383.300	26.949	0.099
383.400	27.535	0.099
383.500	24.887	0.099
383.600	22.656	0.099
383.700	23.780	0.099
383.800	30.340	0.099
383.900	29.943	0.099
384.000	24.651	0.099
384.100	34.882	0.099
384.200	31.830	0.099
384.300	34.069	0.099
384.400	30.842	0.099
384.500	38.785	0.099
384.600	24.489	0.099
384.700	27.579	0.099
384.800	31.967	0.099
384.900	26.751	0.099
385.000	25.858	0.099
385.100	25.205	0.099
385.200	29.847	0.099
385.300	35.875	0.099
385.400	30.523	0.099
385.500	27.771	0.099
385.600	21.653	0.099
385.700	26.847	0.099
385.800	24.677	0.099
385.900	37.159	0.099
386.000	36.510	0.099
386.100	22.794	0.099
386.200	27.986	0.099
386.300	23.406	0.099
386.400	36.694	0.099
386.500	18.870	0.099
386.600	26.894	0.099
386.700	26.519	0.099
386.800	29.627	0.099
386.900	33.296	0.099
387.000	27.585	0.099
387.100	28.977	0.099
387.200	43.687	0.099
387.300	33.058	0.099
387.400	34.671	0.099
387.500	21.949	0.099
387.600	19.548	0.099
387.700	47.049	0.099
387.800	12.713	0.099
387.900	20.696	0.099
388.000	30.469	0.099
388.100	34.096	0.099
388.200	25.192	0.099
388.300	34.309	0.099
388.400	24.735	0.099
388.500	31.371	0.099
388.600	19.524	0.099
388.700	16.661	0.099
388.800	36.606	0.099
388.900	29.144	0.099
389.000	30.642	0.099
389.100	38.409	0.099
389.200	30.091	0.099
389.300	25.932	0.099
389.400	34.217	0.099
389.500	34.725	0.099
389.600	28.168	0.099
389.700	26.097	0.099
389.800	21.540	0.099
389.900	40.789	0.099
390.000	19.831	0.099
390.100	17.948	0.099
390.200	36.847	0.099
390.300	22.702	0.099
390.400	16.130	0.099
390.500	20.834	0.099
390.600	17.808	0.099
390.700	20.740	0.099
390.800	6.453	0.099
390.900	8.111	0.099
391.000	17.346	0.099
391.100	-2.632	0.099
391.200	27.574	0.099
391.300	4.653	0.099
391.400	3.813	0.099
391.500	12.594	0.099
391.600	-9.216	0.099
391.700	-3.328	0.099
391.800	5.652	0.099
391.900	-5.000	0.099
392.000	-0.616	0.099
392.100	-11.049	0.099
392.200	4.290	0.099
392.300	4.988	0.099
392.400	3.473	0.099
392.500	-9.596	0.099
392.600	6.366	0.099
392.700	2.247	0.099
392.800	-12.804	0.099
392.900	-24.303	0.099
393.000	1.332	0.099
393.100	-7.466	0.099
393.200	-14.234	0.099
393.300	-6.787	0.099
393.400	-2.211	0.099
393.500	-10.016	0.099
393.600	-0.856	0.099
393.700	-4.599	0.099
393.800	-0.747	0.099
393.900	-9.465	0.099
394.000	-8.076	0.099
394.100	-5.436	0.099
394.200	-14.675	0.099
394.300	-3.910	0.099
394.400	-4.985	0.099
394.500	-22.695	0.099
394.600	0.421	0.099
394.700	-5.484	0.099
394.800	-4.448	0.099
394.900	-22.527	0.099
395.000	2.160	0.099
395.100	-13.580	0.099
395.200	-1.179	0.099
395.300	5.204	0.099
395.400	-10.029	0.099
395.500	-4.231	0.099
395.600	-17.864	0.099
395.700	-7.570	0.099
395.800	-10.719	0.099
395.900	-16.243	0.099
396.000	-4.800	0.099
396.100	-8.834	0.099
396.200	1.555	0.099
396.300	-22.715	0.099
396.400	-12.540	0.099
396.500	-7.443	0.099
396.600	3.534	0.099
396.700	-14.213	0.099
396.800	-5.799	0.099
396.900	-0.226	0.099
397.000	-18.749	0.099
397.100	0.364	0.099
397.200	-4.466	0.099
397.300	-9.005	0.099
397.400	-9.011	0.099
397.500	-3.825	0.099
397.600	-11.252	0.099
397.700	-20.124	0.099
397.800	3.253	0.099
397.900	-8.183	0.099
398.000	-17.064	0.099
398.100	-4.721	0.099
398.200	-19.031	0.099
398.300	1.632	0.099
398.400	-16.182	0.099
398.500	-16.441	0.099
398.600	-16.906	0.099
398.700	-18.294	0.099
398.800	11.828	0.099
398.900	-1.010	0.099
399.000	-24.537	0.099
399.100	-4.237	0.099
399.200	-9.663	0.099
399.300	-4.855	0.099
399.400	-6.092	0.099
399.500	-12.767	0.099
399.600	-13.112	0.099
399.700	-28.782	0.099
399.800	-3.571	0.099
399.900	-14.774	0.099
400.000	-10.470	0.099
400.100	-10.378	0.099
400.200	-5.550	0.099
400.300	-19.093	0.099
400.400	-22.852	0.099
400.500	-18.643	0.099
400.600	-7.849	0.099
400.700	-3.536	0.099
400.800	-6.156	0.099
400.900	-2.714	0.099
401.000	-31.045	0.099
401.100	-16.788	0.099
401.200	-11.884	0.099
401.300	-10.875	0.099
401.400	-18.576	0.099
401.500	-4.050	0.099
401.600	-6.288	0.099
401.700	-19.608	0.099
401.800	-20.477	0.099
401.900	-17.863	0.099
402.000	5.538	0.099
402.100	-21.826	0.099
402.200	-8.929	0.099
402.300	-16.751	0.099
402.400	-16.012	0.099
402.500	-8.912	0.099
402.600	-18.762	0.099
402.700	-15.014	0.099
402.800	-10.246	0.099
402.900	-14.072	0.099
403.000	-18.269	0.099
403.100	-16.633	0.099
403.200	-24.905	0.099
403.300	-23.360	0.099
403.400	-18.828	0.099
403.500	-15.397	0.099
403.600	-12.061	0.099
403.700	-25.116	0.099
403.800	-30.984	0.099
403.900	-7.506	0.099
404.000	-15.681	0.099
404.100	-13.398	0.099
404.200	-9.219	0.099
404.300	-24.891	0.099
404.400	-22.569	0.099
404.500	-12.693	0.099
404.600	-13.253	0.099
404.700	-9.661	0.099
404.800	-33.476	0.099
404.900	-13.773	0.099
405.000	-25.632	0.099
405.100	-13.065	0.099
405.200	-26.724	0.099
405.300	4.274	0.099
405.400	-17.962	0.099
405.500	-8.595	0.099
405.600	-33.045	0.099
405.700	-4.061	0.099
405.800	-19.692	0.099
405.900	-13.996	0.099
406.000	-6.155	0.099
406.100	-18.986	0.099
406.200	-13.624	0.099
406.300	-22.863	0.099
406.400	-16.669	0.099
406.500	-18.391	0.099
406.600	-17.394	0.099
406.700	-30.172	0.099
406.800	-17.477	0.099
406.900	-26.146	0.099
407.000	-11.778	0.099
407.100	-22.312	0.099
407.200	-16.030	0.099
407.300	-12.701	0.099
407.400	-20.098	0.099
407.500	-22.858	0.099
407.600	-12.291	0.099
407.700	-11.839	0.099
407.800	-29.955	0.099
407.900	-7.733	0.099
408.000	-28.581	0.099
408.100	-15.479	0.099
408.200	-34.674	0.099
408.300	-27.208	0.099
408.400	-8.810	0.099
408.500	-22.643	0.099
408.600	-14.826	0.099
408.700	-22.814	0.099
408.800	-11.923	0.099
408.900	-5.198	0.099
409.000	-29.014	0.099
409.100	-13.234	0.099
409.200	-18.168	0.099
409.300	-22.868	0.099
409.400	-15.214	0.099
409.500	-17.760	0.099
409.600	-10.923	0.099
409.700	-13.903	0.099
409.800	-21.621	0.099
409.900	-29.191	0.099
410.000	-12.223	0.099
410.100	-32.629	0.099
410.200	-26.122	0.099
410.300	-23.468	0.099
410.400	-12.446	0.099
410.500	-26.347	0.099
410.600	-16.167	0.099
410.700	-17.464	0.099
410.800	-25.595	0.099
410.900	-20.174	0.099
411.000	-19.452	0.099
411.100	-34.643	0.099
411.200	-15.321	0.099
411.300	-15.762	0.099
411.400	-18.723	0.099
411.500	-13.714	0.099
411.600	-21.984	0.099
411.700	-14.446	0.099
411.800	-11.331	0.099
411.900	-7.062	0.099
412.000	-30.620	0.099
412.100	-19.456	0.099
412.200	-27.109	0.099
412.300	-1.435	0.099
412.400	-22.582	0.099
412.500	-24.461	0.099
412.600	-18.377	0.099
412.700	-24.057	0.099
412.800	-10.956	0.099
412.900	-37.155	0.099
413.000	-13.245	0.099
413.100	-25.512	0.099
413.200	-9.696	0.099
413.300	-29.300	0.099
413.400	-20.836	0.099
413.500	-18.081	0.099
413.600	-24.791	0.099
413.700	-12.316	0.099
413.800	-21.960	0.099
413.900	-28.811	0.099
414.000	-17.374	0.099
414.100	-16.686	0.099
414.200	-17.813	0.099
414.300	-7.598	0.099
414.400	-19.555	0.099
414.500	-19.494	0.099
414.600	-14.428	0.099
414.700	-14.153	0.099
414.800	-21.543	0.099
414.900	-28.403	0.099
415.000	-31.625	0.099
415.100	-13.688	0.099
415.200	-9.097	0.099
415.300	-12.303	0.099
415.400	-18.230	0.099
415.500	-11.513	0.099
415.600	-24.161	0.099
415.700	-32.514	0.099
415.800	-25.055	0.099
415.900	-16.211	0.099
416.000	-19.353	0.099
416.100	-18.000	0.099
416.200	-1.405	0.099
416.300	-52.674	0.099
416.400	-31.334	0.099
416.500	-20.867	0.099
416.600	-30.483	0.099
416.700	-14.935	0.099
416.800	-11.238	0.099
416.900	-9.625	0.099
417.000	-17.218	0.099
417.100	-16.054	0.099
417.200	-15.965	0.099
417.300	-30.646	0.099
417.400	-14.843	0.099
417.500	-16.858	0.099
417.600	-15.209	0.099
417.700	-11.470	0.099
417.800	-21.309	0.099
417.900	-17.363	0.099
418.000	-36.060	0.099
418.100	-21.213	0.099
418.200	-17.609	0.099
418.300	-13.479	0.099
418.400	-25.427	0.099
418.500	-12.838	0.099
418.600	-19.785	0.099
418.700	-17.401	0.099
418.800	-18.424	0.099
418.900	-14.389	0.099
419.000	-20.429	0.099
419.100	-17.319	0.099
419.200	-16.868	0.099
419.300	-29.781	0.099
419.400	-19.048	0.099
419.500	-7.612	0.099
419.600	-22.115	0.099
419.700	-30.735	0.099
419.800	-29.771	0.099
419.900	-5.270	0.099
420.000	-20.705	0.099
420.100	-24.423	0.099
420.200	-24.427	0.099
420.300	-23.481	0.099
420.400	-18.926	0.099
420.500	-5.341	0.099
420.600	-27.931	0.099
420.700	-17.834	0.099
420.800	-29.971	0.099
420.900	-17.331	0.099
421.000	-21.588	0.099
421.100	-27.675	0.099
421.200	-8.969	0.099
421.300	-16.406	0.099
421.400	-32.320	0.099
421.500	-25.940	0.099
421.600	-21.942	0.099
421.700	-5.873	0.099
421.800	-19.108	0.099
421.900	-20.891	0.099
422.000	-27.918	0.099
422.100	-25.687	0.099
422.200	-18.432	0.099
422.300	-7.326	0.099
422.400	-28.143	0.099
422.500	-18.356	0.099
422.600	-15.906	0.099
422.700	-20.467	0.099
422.800	-19.154	0.099
422.900	-11.031	0.099
423.000	-23.433	0.099
423.100	-21.834	0.099
423.200	-13.627	0.099
423.300	-26.373	0.099
423.400	-12.796	0.099
423.500	-28.379	0.099
423.600	1.342	0.099
423.700	-8.956	0.099
423.800	-10.970	0.099
423.900	-18.358	0.099
424.000	-17.581	0.099
424.100	-25.319	0.099
424.200	-34.155	0.099
424.300	-25.161	0.099
424.400	-0.289	0.099
424.500	-12.560	0.099
424.600	-10.887	0.099
424.700	-36.770	0.099
424.800	-7.180	0.099
424.900	-30.818	0.099
425.000	-15.717	0.099
425.100	-17.696	0.099
425.200	-16.230	0.099
425.300	-14.841	0.099
425.400	-18.632	0.099
425.500	-42.431	0.099
425.600	-17.770	0.099
425.700	-9.473	0.099
425.800	-12.142	0.099
425.900	-21.734	0.099
426.000	-25.022	0.099
426.100	-19.184	0.099
426.200	-12.198	0.099
426.300	-24.080	0.099
426.400	-26.681	0.099
426.500	-22.469	0.099
426.600	-12.117	0.099
426.700	-17.826	0.099
426.800	-23.271	0.099
426.900	-17.364	0.099
427.000	-11.067	0.099
427.100	-17.176	0.099
427.200	-17.487	0.099
427.300	-10.983	0.099
427.400	-15.683	0.099
427.500	-7.846	0.099
427.600	-18.901	0.099
427.700	-23.006	0.099
427.800	-14.362	0.099
427.900	-15.993	0.099
428.000	-20.619	0.099
428.100	-18.188	0.099
428.200	-17.128	0.099
428.300	-22.486	0.099
428.400	-4.297	0.099
428.500	-29.933	0.099
428.600	-9.973	0.099
428.700	-36.234	0.099
428.800	-11.996	0.099
428.900	-31.162	0.099
429.000	1.317	0.099
429.100	-21.322	0.099
429.200	-20.297	0.099
429.300	-9.496	0.099
429.400	-32.204	0.099
429.500	-14.539	0.099
429.600	-19.551	0.099
429.700	-7.697	0.099
429.800	-20.600	0.099
429.900	-19.444	0.099
430.000	-6.741	0.099
430.100	-13.779	0.099
430.200	-4.027	0.099
430.300	-34.709	0.099
430.400	-18.261	0.099
430.500	-18.487	0.099
430.600	-15.992	0.099
430.700	-10.767	0.099
430.800	-16.365	0.099
430.900	-28.468	0.099
431.000	-24.993	0.099
431.100	-18.585	0.099
431.200	-19.083	0.099
431.300	-26.946	0.099
431.400	-23.096	0.099
431.500	-11.730	0.099
431.600	-10.527	0.099
431.700	-28.917	0.099
431.800	-22.080	0.099
431.900	-25.266	0.099
432.000	-20.558	0.099
432.100	-4.636	0.099
432.200	-11.186	0.099
432.300	-22.384	0.099
432.400	-16.333	0.099
432.500	-27.501	0.099
432.600	-7.910	0.099
432.700	-16.212	0.099
432.800	-16.616	0.099
432.900	-10.148	0.099
433.000	-20.741	0.099
433.100	-20.125	0.099
433.200	-14.845	0.099
433.300	-18.893	0.099
433.400	-20.256	0.099
433.500	-10.643	0.099
433.600	-1.386	0.099
433.700	-11.328	0.099
433.800	-19.844	0.099
433.900	-23.038	0.099
434.000	-11.638	0.099
434.100	-14.294	0.099
434.200	-21.618	0.099
434.300	-13.670	0.099
434.400	-18.632	0.099
434.500	-17.519	0.099
434.600	-13.016	0.099
434.700	-9.644	0.099
434.800	-21.255	0.099
434.900	-16.576	0.099
435.000	-6.294	0.099
435.100	-10.708	0.099
435.200	-24.210	0.099
435.300	-26.730	0.099
435.400	-5.304	0.099
435.500	-17.847	0.099
435.600	-26.438	0.099
435.700	-1.305	0.099
435.800	-12.452	0.099
435.900	-21.803	0.099
436.000	-9.288	0.099
436.100	-18.235	0.099
436.200	-20.676	0.099
436.300	-8.719	0.099
436.400	-28.544	0.099
436.500	-5.641	0.099
436.600	-30.264	0.099
436.700	-14.470	0.099
436.800	-8.709	0.099
436.900	-20.891	0.099
437.000	-16.041	0.099
437.100	-18.411	0.099
437.200	-13.794	0.099
437.300	-14.354	0.099
437.400	-16.679	0.099
437.500	-16.058	0.099
437.600	-13.817	0.099
437.700	-20.160	0.099
437.800	-12.739	0.099
437.900	-30.319	0.099
438.000	-22.998	0.099
438.100	-9.073	0.099
438.200	-10.496	0.099
438.300	-28.739	0.099
438.400	-18.956	0.099
438.500	-21.916	0.099
438.600	-2.922	0.099
438.700	-28.142	0.099
438.800	-15.083	0.099
438.900	-10.241	0.099
439.000	-25.445	0.099
439.100	-15.093	0.099
439.200	-19.268	0.099
439.300	-8.753	0.099
439.400	-12.360	0.099
439.500	-18.079	0.099
439.600	-6.798	0.099
439.700	-18.291	0.099
439.800	-13.027	0.099
439.900	-12.774	0.099
440.000	-9.999	0.099
440.100	-16.162	0.099
440.200	-25.743	0.099
440.300	-3.879	0.099
440.400	-9.987	0.099
440.500	-26.934	0.099
440.600	-7.975	0.099
440.700	-33.449	0.099
440.800	-19.547	0.099
440.900	-31.271	0.099
441.000	-19.187	0.099
441.100	-7.277	0.099
441.200	-22.757	0.099
441.300	-8.591	0.099
441.400	-13.489	0.099
441.500	-7.533	0.099
441.600	-19.032	0.099
441.700	-14.853	0.099
441.800	-16.164	0.099
441.900	-8.650	0.099
442.000	-10.902	0.099
442.100	-28.577	0.099
442.200	-13.690	0.099
442.300	-13.499	0.099
442.400	-12.027	0.099
442.500	-9.664	0.099
442.600	-8.268	0.099
442.700	-12.740	0.099
442.800	-12.067	0.099
442.900	-7.199	0.099
443.000	-14.155	0.099
443.100	-18.874	0.099
443.200	-5.603	0.099
443.300	-7.907	0.099
443.400	-29.946	0.099
443.500	-18.932	0.099
443.600	4.494	0.099
443.700	-27.882	0.099
443.800	-19.738	0.099
443.900	-2.079	0.099
444.000	-23.444	0.099
444.100	-5.616	0.099
444.200	-6.963	0.099
444.300	-25.006	0.099
444.400	-7.085	0.099
444.500	-7.422	0.099
444.600	-12.379	0.099
444.700	-13.905	0.099
444.800	-22.581	0.099
444.900	-9.451	0.099
445.000	-23.534	0.099
445.100	-19.924	0.099
445.200	-26.420	0.099
445.300	4.380	0.099
445.400	-7.673	0.099
445.500	-19.295	0.099
445.600	-26.029	0.099
445.700	-24.708	0.099
445.800	-18.227	0.099
445.900	5.192	0.099
446.000	-19.660	0.099
446.100	-10.322	0.099
446.200	-10.583	0.099
446.300	-13.698	0.099
446.400	-7.159	0.099
446.500	-28.137	0.099
446.600	-25.305	0.099
446.700	-19.476	0.099
446.800	-14.102	0.099
446.900	-21.359	0.099
447.000	-9.270	0.099
447.100	-10.252	0.099
447.200	-10.411	0.099
447.300	-13.989	0.099
447.400	-17.805	0.099
447.500	-13.915	0.099
447.600	-27.864	0.099
447.700	-7.436	0.099
447.800	-4.719	0.099
447.900	-19.077	0.099
448.000	-7.183	0.099
448.100	-24.461	0.099
448.200	-7.682	0.099
448.300	-12.088	0.099
448.400	-15.988	0.099
448.500	-17.488	0.099
448.600	-1.770	0.099
448.700	-21.820	0.099
448.800	-12.510	0.099
448.900	-29.342	0.099
449.000	-34.376	0.099
449.100	-6.719	0.099
449.200	-15.660	0.099
449.300	-18.101	0.099
449.400	-17.581	0.099
449.500	-15.884	0.099
449.600	-17.604	0.099
449.700	-14.595	0.099
449.800	-21.346	0.099
449.900	-14.953	0.099
450.000	2.684	0.099
450.100	-12.420	0.099
450.200	-23.910	0.099
450.300	-16.879	0.099
450.400	-6.503	0.099
450.500	-18.771	0.099
450.600	-12.535	0.099
450.700	-24.448	0.099
450.800	-25.631	0.099
450.900	-18.253	0.099
451.000	-15.778	0.099
451.100	-10.504	0.099
451.200	-14.238	0.099
451.300	-15.302	0.099
451.400	-27.771	0.099
451.500	-1.532	0.099
451.600	-0.186	0.099
451.700	-14.574	0.099
451.800	-8.158	0.099
451.900	-23.820	0.099
452.000	-14.981	0.099
452.100	-6.701	0.099
452.200	-16.365	0.099
452.300	-21.408	0.099
452.400	-32.457	0.099
452.500	-4.279	0.099
452.600	-10.520	0.099
452.700	-16.799	0.099
452.800	-18.071	0.099
452.900	-3.696	0.099
453.000	-14.328	0.099
453.100	-19.267	0.099
453.200	-10.265	0.099
453.300	-4.793	0.099
453.400	-12.018	0.099
453.500	-9.333	0.099
453.600	-17.815	0.099
453.700	-22.260	0.099
453.800	-12.078	0.099
453.900	-21.824	0.099
454.000	-16.404	0.099
454.100	-19.096	0.099
454.200	-21.842	0.099
454.300	-3.874	0.099
454.400	-8.304	0.099
454.500	3.258	0.099
454.600	-25.529	0.099
454.700	-21.170	0.099
454.800	-26.953	0.099
454.900	-7.176	0.099
455.000	-27.410	0.099
455.100	-16.214	0.099
455.200	-11.180	0.099
455.300	-8.738	0.099
455.400	-15.608	0.099
455.500	-21.555	0.099
455.600	-12.823	0.099
455.700	-18.478	0.099
455.800	-8.688	0.099
455.900	4.429	0.099
456.000	-18.085	0.099
456.100	-7.188	0.099
456.200	-26.059	0.099
456.300	-24.928	0.099
456.400	2.851	0.099
456.500	1.850	0.099
456.600	-19.143	0.099
456.700	-2.589	0.099
456.800	-26.878	0.099
456.900	-20.475	0.099
457.000	-5.730	0.099
457.100	-15.298	0.099
457.200	-7.749	0.099
457.300	-7.786	0.099
457.400	-19.583	0.099
457.500	-5.864	0.099
457.600	-18.911	0.099
457.700	-17.078	0.099
457.800	-18.687	0.099
457.900	-3.304	0.099
458.000	-18.267	0.099
458.100	-6.869	0.099
458.200	-27.638	0.099
458.300	-2.722	0.099
458.400	-11.328	0.099
458.500	-6.157	0.099
458.600	-20.641	0.099
458.700	-5.931	0.099
458.800	-18.764	0.099
458.900	-19.258	0.099
459.000	-15.654	0.099
459.100	-10.252	0.099
459.200	-8.661	0.099
459.300	-6.789	0.099
459.400	-4.670	0.099
459.500	-9.953	0.099
459.600	-12.464	0.099
459.700	-0.726	0.099
459.800	-5.355	0.099
459.900	-15.132	0.099
460.000	-13.225	0.099
460.100	0.353	0.099
460.200	-11.766	0.099
460.300	-14.587	0.099
460.400	-10.365	0.099
460.500	-15.590	0.099
460.600	-3.699	0.099
460.700	-13.368	0.099
460.800	-14.500	0.099
460.900	-7.535	0.099
461.000	-9.740	0.099
461.100	-12.453	0.099
461.200	-12.625	0.099
461.300	-20.841	0.099
461.400	-11.970	0.099
461.500	-11.236	0.099
461.600	-7.572	0.099
461.700	-18.343	0.099
461.800	-13.721	0.099
461.900	-3.023	0.099
462.000	-22.270	0.099
462.100	-6.600	0.099
462.200	-19.415	0.099
462.300	-21.297	0.099
462.400	-18.691	0.099
462.500	-11.693	0.099
462.600	-8.308	0.099
462.700	-3.772	0.099
462.800	-36.773	0.099
462.900	-4.667	0.099
463.000	-11.738	0.099
463.100	-16.637	0.099
463.200	-15.873	0.099
463.300	-26.478	0.099
463.400	-5.483	0.099
463.500	-18.639	0.099
463.600	-9.179	0.099
463.700	-5.226	0.099
463.800	11.198	0.099
463.900	-30.055	0.099
464.000	-9.785	0.099
464.100	1.510	0.099
464.200	-3.045	0.099
464.300	-4.304	0.099
464.400	-13.948	0.099
464.500	-17.561	0.099
464.600	-20.309	0.099
464.700	-15.622	0.099
464.800	-21.255	0.099
464.900	-11.994	0.099
465.000	-12.337	0.099
465.100	-13.877	0.099
465.200	-5.973	0.099
465.300	-16.145	0.099
465.400	-0.008	0.099
465.500	-12.835	0.099
465.600	-9.747	0.099
465.700	-10.131	0.099
465.800	-10.602	0.099
465.900	-13.519	0.099
466.000	-6.774	0.099
466.100	-28.419	0.099
466.200	2.469	0.099
466.300	-20.203	0.099
466.400	-7.523	0.099
466.500	-10.032	0.099
466.600	-20.675	0.099
466.700	-14.401	0.099
466.800	-11.153	0.099
466.900	-10.958	0.099
467.000	-5.212	0.099
467.100	-3.019	0.099
467.200	-13.671	0.099
467.300	-4.968	0.099
467.400	1.588	0.099
467.500	-12.196	0.099
467.600	-19.744	0.099
467.700	2.401	0.099
467.800	-28.249	0.099
467.900	-4.993	0.099
468.000	-10.922	0.099
468.100	0.617	0.099
468.200	-29.996	0.099
468.300	-14.882	0.099
468.400	-9.098	0.099
468.500	-6.081	0.099
468.600	-6.386	0.099
468.700	-21.330	0.099
468.800	-12.527	0.099
468.900	-9.393	0.099
469.000	-4.825	0.099
469.100	-19.546	0.099
469.200	-11.748	0.099
469.300	-9.570	0.099
469.400	-11.997	0.099
469.500	7.802	0.099
469.600	-16.170	0.099
469.700	-13.070	0.099
469.800	-20.765	0.099
469.900	-10.207	0.099
470.000	-8.203	0.099
470.100	-10.056	0.099
470.200	-9.507	0.099
470.300	-7.980	0.099
470.400	-19.445	0.099
470.500	-11.946	0.099
470.600	-12.634	0.099
470.700	-21.228	0.099
470.800	-14.931	0.099
470.900	-4.976	0.099
471.000	-3.921	0.099
471.100	-4.862	0.099
471.200	-27.745	0.099
471.300	-3.463	0.099
471.400	-10.596	0.099
471.500	-29.444	0.099
471.600	-4.394	0.099
471.700	-20.968	0.099
471.800	-3.765	0.099
471.900	-8.162	0.099
472.000	-18.944	0.099
472.100	-19.348	0.099
472.200	-18.547	0.099
472.300	-22.367	0.099
472.400	-6.800	0.099
472.500	-22.786	0.099
472.600	-4.849	0.099
472.700	-1.106	0.099
472.800	-9.828	0.099
472.900	-4.692	0.099
473.000	-18.218	0.099
473.100	-13.505	0.099
473.200	-15.577	0.099
473.300	-6.668	0.099
473.400	-11.757	0.099
473.500	-18.499	0.099
473.600	-11.250	0.099
473.700	-17.753	0.099
473.800	-12.219	0.099
473.900	-5.636	0.099
474.000	-24.540	0.099
474.100	-11.287	0.099
474.200	-16.834	0.099
474.300	-6.310	0.099
474.400	-4.833	0.099
474.500	-3.214	0.099
474.600	-12.583	0.099
474.700	-8.388	0.099
474.800	-2.829	0.099
474.900	-8.663	0.099
475.000	-9.391	0.099
475.100	-13.167	0.099
475.200	-16.054	0.099
475.300	3.608	0.099
475.400	-20.378	0.099
475.500	-20.423	0.099
475.600	-20.195	0.099
475.700	-9.080	0.099
475.800	-3.307	0.099
475.900	-7.154	0.099
476.000	-10.097	0.099
476.100	-0.599	0.099
476.200	-18.954	0.099
476.300	0.025	0.099
476.400	-7.096	0.099
476.500	-3.483	0.099
476.600	-21.765	0.099
476.700	-12.816	0.099
476.800	-4.137	0.099
476.900	-13.284	0.099
477.000	-18.000	0.099
477.100	-11.513	0.099
477.200	-2.053	0.099
477.300	-29.778	0.099
477.400	-13.634	0.099
477.500	-13.378	0.099
477.600	-15.415	0.099
477.700	2.119	0.099
477.800	-19.867	0.099
477.900	-3.805	0.099
478.000	-11.024	0.099
478.100	-20.308	0.099
478.200	-6.250	0.099
478.300	-12.317	0.099
478.400	-17.006	0.099
478.500	2.049	0.099
478.600	-13.076	0.099
478.700	-9.854	0.099
478.800	-16.605	0.099
478.900	-9.622	0.099
479.000	-12.019	0.099
479.100	-7.871	0.099
479.200	3.914	0.099
479.300	-23.576	0.099
479.400	-10.069	0.099
479.500	-5.431	0.099
479.600	-0.720	0.099
479.700	-25.683	0.099
479.800	-5.095	0.099
479.900	-7.558	0.099
480.000	-3.267	0.099
480.100	-15.545	0.099
480.200	-1.141	0.099
480.300	-7.310	0.099
480.400	-2.299	0.099
480.500	-3.150	0.099
480.600	-0.093	0.099
480.700	3.261	0.099
480.800	-5.313	0.099
480.900	4.790	0.099
481.000	4.896	0.099
481.100	11.911	0.099
481.200	1.204	0.099
481.300	3.564	0.099
481.400	12.229	0.099
481.500	11.920	0.099
481.600	14.195	0.099
481.700	16.057	0.099
481.800	10.245	0.099
481.900	10.662	0.099
482.000	-7.374	0.099
482.100	27.599	0.099
482.200	-5.805	0.099
482.300	13.815	0.099
482.400	4.351	0.099
482.500	35.876	0.099
482.600	-7.680	0.099
482.700	17.917	0.099
482.800	17.825	0.099
482.900	-5.597	0.099
483.000	24.280	0.099
483.100	15.903	0.099
483.200	14.245	0.099
483.300	9.384	0.099
483.400	9.401	0.099
483.500	-0.093	0.099
483.600	11.059	0.099
483.700	12.056	0.099
483.800	15.670	0.099
483.900	5.716	0.099
484.000	7.434	0.099
484.100	-6.517	0.099
484.200	8.589	0.099
484.300	1.102	0.099
484.400	15.690	0.099
484.500	31.087	0.099
484.600	11.937	0.099
484.700	1.035	0.099
484.800	16.902	0.099
484.900	13.473	0.099
485.000	14.929	0.099
485.100	16.805	0.099
485.200	9.098	0.099
485.300	18.408	0.099
485.400	8.214	0.099
485.500	8.860	0.099
485.600	9.364	0.099
485.700	11.525	0.099
485.800	28.312	0.099
485.900	8.073	0.099
486.000	17.485	0.099
486.100	6.574	0.099
486.200	15.209	0.099
486.300	18.602	0.099
486.400	13.006	0.099
486.500	22.441	0.099
486.600	7.020	0.099
486.700	16.129	0.099
486.800	18.399	0.099
486.900	4.719	0.099
487.000	18.463	0.099
487.100	15.450	0.099
487.200	2.363	0.099
487.300	21.898	0.099
487.400	15.081	0.099
487.500	19.296	0.099
487.600	30.008	0.099
487.700	17.367	0.099
487.800	20.920	0.099
487.900	25.094	0.099
488.000	18.610	0.099
488.100	15.000	0.099
488.200	21.740	0.099
488.300	23.532	0.099
488.400	24.651	0.099
488.500	24.313	0.099
488.600	26.663	0.099
488.700	18.324	0.099
488.800	18.038	0.099
488.900	21.164	0.099
489.000	22.034	0.099
489.100	20.364	0.099
489.200	24.980	0.099
489.300	14.699	0.099
489.400	30.108	0.099
489.500	13.642	0.099
489.600	27.783	0.099
489.700	35.168	0.099
489.800	30.294	0.099
489.900	19.998	0.099
490.000	24.766	0.099
490.100	29.519	0.099
490.200	27.083	0.099
490.300	19.899	0.099
490.400	18.025	0.099
490.500	25.657	0.099
490.600	14.035	0.099
490.700	22.526	0.099
490.800	27.752	0.099
490.900	33.843	0.099
491.000	27.137	0.099
491.100	31.445	0.099
491.200	33.505	0.099
491.300	23.507	0.099
491.400	31.588	0.099
491.500	33.752	0.099
491.600	19.888	0.099
491.700	38.604	0.099
491.800	21.349	0.099
491.900	40.312	0.099
492.000	16.093	0.099
492.100	53.673	0.099
492.200	23.002	0.099
492.300	27.508	0.099
492.400	33.973	0.099
492.500	42.526	0.099
492.600	40.582	0.099
492.700	33.813	0.099
492.800	36.571	0.099
492.900	27.777	0.099
493.000	21.603	0.099
493.100	35.597	0.099
493.200	24.446	0.099
493.300	38.041	0.099
493.400	38.677	0.099
493.500	38.155	0.099
493.600	35.589	0.099
493.700	16.419	0.099
493.800	26.020	0.099
493.900	44.622	0.099
494.000	38.651	0.099
494.100	31.847	0.099
494.200	30.150	0.099
494.300	34.919	0.099
494.400	33.212	0.099
494.500	38.947	0.099
494.600	28.833	0.099
494.700	38.038	0.099
494.800	46.345	0.099
494.900	14.701	0.099
495.000	44.310	0.099
495.100	35.512	0.099
495.200	30.108	0.099
495.300	35.184	0.099
495.400	20.996	0.099
495.500	38.344	0.099
495.600	30.512	0.099
495.700	25.797	0.099
495.800	36.040	0.099
495.900	48.198	0.099
496.000	39.582	0.099
496.100	37.786	0.099
496.200	27.766	0.099
496.300	39.797	0.099
496.400	40.863	0.099
496.500	21.036	0.099
496.600	28.293	0.099
496.700	35.028	0.099
496.800	34.327	0.099
496.900	49.072	0.099
497.000	42.090	0.099
497.100	45.178	0.099
497.200	26.831	0.099
497.300	34.521	0.099
497.400	48.173	0.099
497.500	35.980	0.099
497.600	37.039	0.099
497.700	38.154	0.099
497.800	36.499	0.099
497.900	37.317	0.099
498.000	33.424	0.099
498.100	38.744	0.099
498.200	40.697	0.099
498.300	41.566	0.099
498.400	40.515	0.099
498.500	32.620	0.099
498.600	34.658	0.099
498.700	33.117	0.099
498.800	21.678	0.099
498.900	36.763	0.099
499.000	43.339	0.099
499.100	39.954	0.099
499.200	36.279	0.099
499.300	32.282	0.099
499.400	31.741	0.099
499.500	42.639	0.099
499.600	33.298	0.099
499.700	17.242	0.099
499.800	43.319	0.099
499.900	40.155	0.099
500.000	34.915	0.099
500.100	30.101	0.099
500.200	35.552	0.099
500.300	48.983	0.099
500.400	38.234	0.099
500.500	32.305	0.099
500.600	26.837	0.099
500.700	32.615	0.099
500.800	55.476	0.099
500.900	34.321	0.099
501.000	32.266	0.099
501.100	35.226	0.099
501.200	35.706	0.099
501.300	29.965	0.099
501.400	41.519	0.099
501.500	46.991	0.099
501.600	34.321	0.099
501.700	30.237	0.099
501.800	21.770	0.099
501.900	23.694	0.099
502.000	40.904	0.099
502.100	21.700	0.099
502.200	31.682	0.099
502.300	47.874	0.099
502.400	50.719	0.099
502.500	36.778	0.099
502.600	28.933	0.099
502.700	31.620	0.099
502.800	29.613	0.099
502.900	33.644	0.099
503.000	29.024	0.099
503.100	43.870	0.099
503.200	46.928	0.099
503.300	31.941	0.099
503.400	31.873	0.099
503.500	36.589	0.099
503.600	14.688	0.099
503.700	48.738	0.099
503.800	29.035	0.099
503.900	39.421	0.099
504.000	37.605	0.099
504.100	25.862	0.099
504.200	29.329	0.099
504.300	29.036	0.099
504.400	30.433	0.099
504.500	36.865	0.099
504.600	38.031	0.099
504.700	24.986	0.099
504.800	39.840	0.099
504.900	36.437	0.099
505.000	27.211	0.099
505.100	42.428	0.099
505.200	19.204	0.099
505.300	34.347	0.099
505.400	40.003	0.099
505.500	42.183	0.099
505.600	19.258	0.099
505.700	43.588	0.099
505.800	40.883	0.099
505.900	27.567	0.099
506.000	36.276	0.099
506.100	31.454	0.099
506.200	35.472	0.099
506.300	43.270	0.099
506.400	25.567	0.099
506.500	24.506	0.099
506.600	49.778	0.099
506.700	36.190	0.099
506.800	34.454	0.099
506.900	20.198	0.099
507.000	18.868	0.099
507.100	47.437	0.099
507.200	33.563	0.099
507.300	31.463	0.099
507.400	34.520	0.099
507.500	38.173	0.099
507.600	22.305	0.099
507.700	45.542	0.099
507.800	26.127	0.099
507.900	34.271	0.099
508.000	37.958	0.099
508.100	35.460	0.099
508.200	38.145	0.099
508.300	36.796	0.099
508.400	33.068	0.099
508.500	28.695	0.099
508.600	30.251	0.099
508.700	41.299	0.099
508.800	24.504	0.099
508.900	49.096	0.099
509.000	26.727	0.099
509.100	37.328	0.099
509.200	29.896	0.099
509.300	43.846	0.099
509.400	38.934	0.099
509.500	24.547	0.099
509.600	27.151	0.099
509.700	28.957	0.099
509.800	47.748	0.099
509.900	35.423	0.099
510.000	31.026	0.099
510.100	37.598	0.099
510.200	22.933	0.099
510.300	29.303	0.099
510.400	39.845	0.099
510.500	24.474	0.099
510.600	25.482	0.099
510.700	42.756	0.099
510.800	20.001	0.099
510.900	47.848	0.099
511.000	40.268	0.099
511.100	21.794	0.099
511.200	33.178	0.099
511.300	22.864	0.099
511.400	42.390	0.099
511.500	35.988	0.099
511.600	23.814	0.099
511.700	23.283	0.099
511.800	37.976	0.099
511.900	29.997	0.099
512.000	37.508	0.099
512.100	37.605	0.099
512.200	34.907	0.099
512.300	35.286	0.099
512.400	30.079	0.099
512.500	40.268	0.099
512.600	29.091	0.099
512.700	34.994	0.099
512.800	31.282	0.099
512.900	41.111	0.099
513.000	22.520	0.099
513.100	32.736	0.099
513.200	36.699	0.099
513.300	29.293	0.099
513.400	14.753	0.099
513.500	19.351	0.099
513.600	48.748	0.099
513.700	19.776	0.099
513.800	21.469	0.099
513.900	43.712	0.099
514.000	37.080	0.099
514.100	30.018	0.099
514.200	18.368	0.099
514.300	26.993	0.099
514.400	36.947	0.099
514.500	46.884	0.099
514.600	26.706	0.099
514.700	26.024	0.099
514.800	27.646	0.099
514.900	30.971	0.099
515.000	48.370	0.099
515.100	30.873	0.099
515.200	40.935	0.099
515.300	14.484	0.099
515.400	39.454	0.099
515.500	35.328	0.099
515.600	24.161	0.099
515.700	27.774	0.099
515.800	28.340	0.099
515.900	33.948	0.099
516.000	38.486	0.099
516.100	30.185	0.099
516.200	25.666	0.099
516.300	28.800	0.099
516.400	35.202	0.099
516.500	37.505	0.099
516.600	43.037	0.099
516.700	32.913	0.099
516.800	27.041	0.099
516.900	32.614	0.099
517.000	35.538	0.099
517.100	25.233	0.099
517.200	40.457	0.099
517.300	43.200	0.099
517.400	30.285	0.099
517.500	16.051	0.099
517.600	41.877	0.099
517.700	28.333	0.099
517.800	37.378	0.099
517.900	35.778	0.099
518.000	29.673	0.099
518.100	27.223	0.099
518.200	24.387	0.099
518.300	40.326	0.099
518.400	32.012	0.099
518.500	28.138	0.099
518.600	32.920	0.099
518.700	11.201	0.099
518.800	36.942	0.099
518.900	37.178	0.099
519.000	28.639	0.099
519.100	43.590	0.099
519.200	24.415	0.099
519.300	36.508	0.099
519.400	30.855	0.099
519.500	24.336	0.099
519.600	22.433	0.099
519.700	20.540	0.099
519.800	43.635	0.099
519.900	39.103	0.099
520.000	34.468	0.099
520.100	39.558	0.099
520.200	26.471	0.099
520.300	24.876	0.099
520.400	34.150	0.099
520.500	34.236	0.099
520.600	19.489	0.099
520.700	40.478	0.099
520.800	30.256	0.099
520.900	10.672	0.099
521.000	36.133	0.099
521.100	23.512	0.099
521.200	35.272	0.099
521.300	30.895	0.099
521.400	33.846	0.099
521.500	34.557	0.099
521.600	23.811	0.099
521.700	30.352	0.099
521.800	36.771	0.099
521.900	35.483	0.099
522.000	31.728	0.099
522.100	34.177	0.099
522.200	27.083	0.099
522.300	20.645	0.099
522.400	24.798	0.099
522.500	27.632	0.099
522.600	43.548	0.099
522.700	31.059	0.099
522.800	35.891	0.099
522.900	32.930	0.099
523.000	39.390	0.099
523.100	15.229	0.099
523.200	24.394	0.099
523.300	46.325	0.099
523.400	31.261	0.099
523.500	30.493	0.099
523.600	20.134	0.099
523.700	35.375	0.099
523.800	32.320	0.099
523.900	24.868	0.099
524.000	34.555	0.099
524.100	37.690	0.099
524.200	20.876	0.099
524.300	34.725	0.099
524.400	40.130	0.099
524.500	30.795	0.099
524.600	24.816	0.099
524.700	23.640	0.099
524.800	26.910	0.099
524.900	37.568	0.099
525.000	23.162	0.099
525.100	33.890	0.099
525.200	38.570	0.099
525.300	23.234	0.099
525.400	24.587	0.099
525.500	42.528	0.099
525.600	27.950	0.099
525.700	25.425	0.099
525.800	24.564	0.099
525.900	19.827	0.099
526.000	16.672	0.099
526.100	32.805	0.099
526.200	37.193	0.099
526.300	25.383	0.099
526.400	33.138	0.099
526.500	28.118	0.099
526.600	11.090	0.099
526.700	45.965	0.099
526.800	33.029	0.099
526.900	26.534	0.099
527.000	13.045	0.099
527.100	33.847	0.099
527.200	44.994	0.099
527.300	29.036	0.099
527.400	38.476	0.099
527.500	29.547	0.099
527.600	25.604	0.099
527.700	33.155	0.099
527.800	34.837	0.099
527.900	26.124	0.099
528.000	33.723	0.099
528.100	27.973	0.099
528.200	34.334	0.099
528.300	40.772	0.099
528.400	28.631	0.099
528.500	33.309	0.099
528.600	41.875	0.099
528.700	23.811	0.099
528.800	19.966	0.099
528.900	21.363	0.099
529.000	42.872	0.099
529.100	27.629	0.099
529.200	38.627	0.099
529.300	32.282	0.099
529.400	33.497	0.099
529.500	28.647	0.099
529.600	31.665	0.099
529.700	37.699	0.099
529.800	35.089	0.099
529.900	36.939	0.099
530.000	23.229	0.099
530.100	33.001	0.099
530.200	24.801	0.099
530.300	16.671	0.099
530.400	27.051	0.099
530.500	30.968	0.099
530.600	12.296	0.099
530.700	42.281	0.099
530.800	29.356	0.099
530.900	26.215	0.099
531.000	29.327	0.099
531.100	35.412	0.099
531.200	29.997	0.099
531.300	26.499	0.099
531.400	31.247	0.099
531.500	30.724	0.099
531.600	28.151	0.099
531.700	30.339	0.099
531.800	33.059	0.099
531.900	29.022	0.099
532.000	21.867	0.099
532.100	28.959	0.099
532.200	22.131	0.099
532.300	21.881	0.099
532.400	34.355	0.099
532.500	28.713	0.099
532.600	29.265	0.099
532.700	27.556	0.099
532.800	23.932	0.099
532.900	34.854	0.099
533.000	30.633	0.099
533.100	29.314	0.099
533.200	1.657	0.099
533.300	39.621	0.099
533.400	18.248	0.099
533.500	36.941	0.099
533.600	30.081	0.099
533.700	24.927	0.099
533.800	28.381	0.099
533.900	29.637	0.099
534.000	18.528	0.099
534.100	38.958	0.099
534.200	30.376	0.099
534.300	20.737	0.099
534.400	26.247	0.099
534.500	34.642	0.099
534.600	32.060	0.099
534.700	32.132	0.099
534.800	29.694	0.099
534.900	31.042	0.099
535.000	35.948	0.099
535.100	25.912	0.099
535.200	15.952	0.099
535.300	35.260	0.099
535.400	25.646	0.099
535.500	22.197	0.099
535.600	25.394	0.099
535.700	18.513	0.099
535.800	21.957	0.099
535.900	29.432	0.099
536.000	28.875	0.099
536.100	19.748	0.099
536.200	16.035	0.099
536.300	31.270	0.099
536.400	25.231	0.099
536.500	28.096	0.099
536.600	32.564	0.099
536.700	15.679	0.099
536.800	36.146	0.099
536.900	25.413	0.099
537.000	35.348	0.099
537.100	30.108	0.099
537.200	18.333	0.099
537.300	30.981	0.099
537.400	27.951	0.099
537.500	27.981	0.099
537.600	18.866	0.099
537.700	18.849	0.099
537.800	29.745	0.099
537.900	27.607	0.099
538.000	30.187	0.099
538.100	32.753	0.099
538.200	23.021	0.099
538.300	19.933	0.099
538.400	41.194	0.099
538.500	28.228	0.099
538.600	33.170	0.099
538.700	25.896	0.099
538.800	30.151	0.099
538.900	33.330	0.099
539.000	36.265	0.099
539.100	32.049	0.099
539.200	21.582	0.099
539.300	26.862	0.099
539.400	28.744	0.099
539.500	24.684	0.099
539.600	27.781	0.099
539.700	30.627	0.099
539.800	22.883	0.099
539.900	29.122	0.099
540.000	17.991	0.099
540.100	9.726	0.099
540.200	20.519	0.099
540.300	16.154	0.099
540.400	10.300	0.099
540.500	22.902	0.099
540.600	21.559	0.099
540.700	23.875	0.099
540.800	-11.555	0.099
540.900	-9.424	0.099
541.000	5.960	0.099
541.100	2.385	0.099
541.200	14.937	0.099
541.300	-0.749	0.099
541.400	-7.643	0.099
541.500	1.907	0.099
541.600	4.848	0.099
541.700	1.808	0.099
541.800	-8.406	0.099
541.900	-8.224	0.099
542.000	1.293	0.099
542.100	-2.647	0.099
542.200	0.358	0.099
542.300	-5.119	0.099
542.400	-14.648	0.099
542.500	-14.611	0.099
542.600	-16.875	0.099
542.700	-11.000	0.099
542.800	-10.959	0.099
542.900	-4.925	0.099
543.000	-16.697	0.099
543.100	-6.603	0.099
543.200	-13.354	0.099
543.300	-1.213	0.099
543.400	2.965	0.099
543.500	-7.883	0.099
543.600	-14.968	0.099
543.700	-9.776	0.099
543.800	-8.752	0.099
543.900	-8.734	0.099
544.000	-15.111	0.099
544.100	-2.470	0.099
544.200	-10.204	0.099
544.300	-18.700	0.099
544.400	-11.264	0.099
544.500	-14.303	0.099
544.600	-4.799	0.099
544.700	-8.543	0.099
544.800	-8.705	0.099
544.900	-26.519	0.099
545.000	-11.453	0.099
545.100	-12.208	0.099
545.200	-5.284	0.099
545.300	-3.860	0.099
545.400	-8.622	0.099
545.500	-15.350	0.099
545.600	-11.132	0.099
545.700	4.329	0.099
545.800	-7.019	0.099
545.900	-17.370	0.099
546.000	2.016	0.099
546.100	-2.738	0.099
546.200	-7.254	0.099
546.300	-14.636	0.099
546.400	-17.973	0.099
546.500	-1.342	0.099
546.600	-12.791	0.099
546.700	-22.138	0.099
546.800	-19.863	0.099
546.900	-11.700	0.099
547.000	-15.121	0.099
547.100	-12.567	0.099
547.200	-11.369	0.099
547.300	-20.969	0.099
547.400	-1.786	0.099
547.500	6.314	0.099
547.600	-19.755	0.099
547.700	4.200	0.099
547.800	-9.064	0.099
547.900	-13.197	0.099
548.000	-5.830	0.099
548.100	-19.542	0.099
548.200	-8.073	0.099
548.300	-23.773	0.099
548.400	-16.147	0.099
548.500	-22.389	0.099
548.600	6.514	0.099
548.700	-2.394	0.099
548.800	-16.070	0.099
548.900	-2.003	0.099
549.000	-22.155	0.099
549.100	-10.641	0.099
549.200	-29.900	0.099
549.300	-18.164	0.099
549.400	-10.173	0.099
549.500	-22.646	0.099
549.600	-12.190	0.099
549.700	5.965	0.099
549.800	-5.041	0.099
549.900	-15.446	0.099
550.000	-7.709	0.099
550.100	-17.223	0.099
550.200	-22.470	0.099
550.300	-10.848	0.099
550.400	-30.413	0.099
550.500	-28.659	0.099
550.600	-8.599	0.099
550.700	-22.052	0.099
550.800	-11.234	0.099
550.900	-0.311	0.099
551.000	-22.277	0.099
551.100	-5.156	0.099
551.200	-13.432	0.099
551.300	-15.430	0.099
551.400	-9.371	0.099
551.500	-17.472	0.099
551.600	-25.696	0.099
551.700	-8.261	0.099
551.800	-13.151	0.099
551.900	-8.273	0.099
552.000	-17.631	0.099
552.100	-27.538	0.099
552.200	-32.794	0.099
552.300	-13.696	0.099
552.400	-2.683	0.099
552.500	-25.396	0.099
552.600	-25.605	0.099
552.700	-30.232	0.099
552.800	-23.144	0.099
552.900	-8.389	0.099
553.000	-32.499	0.099
553.100	-25.760	0.099
553.200	-11.316	0.099
553.300	-7.636	0.099
553.400	-2.610	0.099
553.500	-20.027	0.099
553.600	-19.667	0.099
553.700	-25.452	0.099
553.800	-14.634	0.099
553.900	-16.416	0.099
554.000	-20.775	0.099
554.100	-29.633	0.099
554.200	-3.553	0.099
554.300	-39.711	0.099
554.400	2.782	0.099
554.500	-32.021	0.099
554.600	-14.595	0.099
554.700	-4.588	0.099
554.800	-21.392	0.099
554.900	-25.429	0.099
555.000	-24.236	0.099
555.100	-25.140	0.099
555.200	-3.342	0.099
555.300	-11.886	0.099
555.400	-21.429	0.099
555.500	-11.061	0.099
555.600	-32.846	0.099
555.700	-15.963	0.099
555.800	-18.272	0.099
555.900	-17.540	0.099
556.000	-27.225	0.099
556.100	-10.876	0.099
556.200	-29.490	0.099
556.300	-29.657	0.099
556.400	-15.730	0.099
556.500	-19.546	0.099
556.600	-20.956	0.099
556.700	-24.650	0.099
556.800	-27.640	0.099
556.900	-26.931	0.099
557.000	-16.519	0.099
557.100	-13.673	0.099
557.200	-15.082	0.099
557.300	-25.499	0.099
557.400	-18.493	0.099
557.500	-26.259	0.099
557.600	-23.443	0.099
557.700	-17.278	0.099
557.800	-8.438	0.099
557.900	-23.707	0.099
558.000	-14.079	0.099
558.100	-22.986	0.099
558.200	-18.704	0.099
558.300	-16.260	0.099
558.400	-32.730	0.099
558.500	-22.236	0.099
558.600	-6.047	0.099
558.700	-15.309	0.099
558.800	-31.936	0.099
558.900	-18.712	0.099
559.000	-27.624	0.099
559.100	-20.106	0.099
559.200	-43.805	0.099
559.300	-21.515	0.099
559.400	-0.861	0.099
559.500	-23.436	0.099
559.600	-27.022	0.099
559.700	-26.298	0.099
559.800	-10.893	0.099
559.900	-13.838	0.099
560.000	-19.401	0.099
560.100	-30.618	0.099
560.200	-19.792	0.099
560.300	-9.620	0.099
560.400	-23.507	0.099
560.500	-18.633	0.099
560.600	-20.888	0.099
560.700	-34.178	0.099
560.800	-15.777	0.099
560.900	-16.380	0.099
561.000	-16.968	0.099
561.100	-32.800	0.099
561.200	-20.136	0.099
561.300	-8.674	0.099
561.400	-31.141	0.099
561.500	-41.949	0.099
561.600	-22.682	0.099
561.700	-32.529	0.099
561.800	-16.438	0.099
561.900	-22.135	0.099
562.000	-12.865	0.099
562.100	-16.478	0.099
562.200	-22.930	0.099
562.300	-9.330	0.099
562.400	-23.216	0.099
562.500	-30.602	0.099
562.600	-10.350	0.099
562.700	-24.928	0.099
562.800	-28.270	0.099
562.900	-19.796	0.099
563.000	-8.921	0.099
563.100	-29.727	0.099
563.200	-32.776	0.099
563.300	-35.573	0.099
563.400	-18.731	0.099
563.500	-17.194	0.099
563.600	-20.578	0.099
563.700	-24.632	0.099
563.800	-18.523	0.099
563.900	-33.350	0.099
564.000	-28.317	0.099
564.100	-26.611	0.099
564.200	-2.236	0.099
564.300	-7.720	0.099
564.400	-23.953	0.099
564.500	-13.085	0.099
564.600	-30.743	0.099
564.700	-30.368	0.099
564.800	-18.475	0.099
564.900	-19.493	0.099
565.000	-18.594	0.099
565.100	-33.579	0.099
565.200	-10.473	0.099
565.300	-27.275	0.099
565.400	-10.204	0.099
565.500	-15.542	0.099
565.600	-28.929	0.099
565.700	-17.016	0.099
565.800	-22.595	0.099
565.900	-18.221	0.099
566.000	-23.414	0.099
566.100	-27.127	0.099
566.200	-28.551	0.099
566.300	-8.170	0.099
566.400	-8.431	0.099
566.500	-21.889	0.099
566.600	-19.164	0.099
566.700	-10.980	0.099
566.800	-20.303	0.099
566.900	-27.992	0.099
567.000	-28.681	0.099
567.100	-19.251	0.099
567.200	-32.960	0.099
567.300	-15.892	0.099
567.400	-29.081	0.099
567.500	-18.620	0.099
567.600	-13.424	0.099
567.700	-16.332	0.099
567.800	-15.335	0.099
567.900	-24.667	0.099
568.000	-40.408	0.099
568.100	-18.528	0.099
568.200	-25.292	0.099
568.300	-12.352	0.099
568.400	-23.574	0.099
568.500	-22.852	0.099
568.600	-5.166	0.099
568.700	-27.392	0.099
568.800	-35.490	0.099
568.900	9.022	0.099
569.000	-17.022	0.099
569.100	-23.241	0.099
569.200	-26.983	0.099
569.300	-21.167	0.099
569.400	-15.443	0.099
569.500	-22.619	0.099
569.600	-26.896	0.099
569.700	-6.941	0.099
569.800	-15.105	0.099
569.900	-14.124	0.099
570.000	-22.914	0.099
570.100	-32.321	0.099
570.200	-9.430	0.099
570.300	-19.964	0.099
570.400	-26.101	0.099
570.500	-15.686	0.099
570.600	-18.070	0.099
570.700	-25.862	0.099
570.800	-26.767	0.099
570.900	-27.781	0.099
571.000	-13.536	0.099
571.100	-13.897	0.099
571.200	-23.420	0.099
571.300	-18.625	0.099
571.400	-26.403	0.099
571.500	-28.860	0.099
571.600	-22.384	0.099
571.700	-15.080	0.099
571.800	-6.051	0.099
571.900	-23.120	0.099
572.000	-27.848	0.099
572.100	-29.099	0.099
572.200	-28.423	0.099
572.300	-29.295	0.099
572.400	-9.061	0.099
572.500	-25.725	0.099
572.600	-15.157	0.099
572.700	-10.513	0.099
572.800	-33.773	0.099
572.900	-23.932	0.099
573.000	-21.326	0.099
573.100	3.292	0.099
573.200	-27.093	0.099
573.300	-23.146	0.099
573.400	-19.733	0.099
573.500	-26.766	0.099
573.600	-26.269	0.099
573.700	-40.212	0.099
573.800	-25.499	0.099
573.900	-5.586	0.099
574.000	-21.084	0.099
574.100	-5.571	0.099
574.200	-24.183	0.099
574.300	-41.910	0.099
574.400	-13.088	0.099
574.500	-25.048	0.099
574.600	-22.911	0.099
574.700	-16.311	0.099
574.800	-5.342	0.099
574.900	-19.397	0.099
575.000	-17.942	0.099
575.100	-10.312	0.099
575.200	-19.811	0.099
575.300	-17.990	0.099
575.400	-20.173	0.099
575.500	-17.188	0.099
575.600	-18.264	0.099
575.700	-27.217	0.099
575.800	-16.202	0.099
575.900	-26.594	0.099
576.000	-6.079	0.099
576.100	-24.764	0.099
576.200	-19.252	0.099
576.300	-24.689	0.099
576.400	-35.905	0.099
576.500	-4.634	0.099
576.600	-17.903	0.099
576.700	-19.089	0.099
576.800	-6.364	0.099
576.900	-17.570	0.099
577.000	-16.110	0.099
577.100	-20.783	0.099
577.200	-19.870	0.099
577.300	-27.501	0.099
577.400	-10.526	0.099
577.500	-31.748	0.099
577.600	-12.440	0.099
577.700	-18.645	0.099
577.800	-8.323	0.099
577.900	-28.906	0.099
578.000	-18.757	0.099
578.100	-20.679	0.099
578.200	-18.472	0.099
578.300	-44.031	0.099
578.400	-13.331	0.099
578.500	-11.865	0.099
578.600	-15.458	0.099
578.700	-21.293	0.099
578.800	-4.855	0.099
578.900	-12.449	0.099
579.000	-20.445	0.099
579.100	-17.376	0.099
579.200	-13.996	0.099
579.300	-32.020	0.099
579.400	-13.786	0.099
579.500	-15.975	0.099
579.600	-29.110	0.099
579.700	-8.854	0.099
579.800	-27.186	0.099
579.900	-6.862	0.099
580.000	-11.040	0.099
580.100	-15.886	0.099
580.200	-24.616	0.099
580.300	-24.047	0.099
580.400	-38.132	0.099
580.500	-24.705	0.099
580.600	-7.646	0.099
580.700	-15.760	0.099
580.800	-12.365	0.099
580.900	-21.358	0.099
581.000	-11.770	0.099
581.100	-18.656	0.099
581.200	-28.492	0.099
581.300	1.391	0.099
581.400	-33.446	0.099
581.500	-6.551	0.099
581.600	-10.719	0.099
581.700	-25.394	0.099
581.800	0.208	0.099
581.900	-3.030	0.099
582.000	-20.532	0.099
582.100	-15.511	0.099
582.200	-26.642	0.099
582.300	-31.310	0.099
582.400	-12.793	0.099
582.500	-20.581	0.099
582.600	-15.908	0.099
582.700	-11.366	0.099
582.800	-10.742	0.099
582.900	-21.162	0.099
583.000	-22.933	0.099
583.100	-21.671	0.099
583.200	-6.722	0.099
583.300	-20.639	0.099
583.400	-22.156	0.099
583.500	-16.853	0.099
583.600	-13.396	0.099
583.700	-19.468	0.099
583.800	-27.610	0.099
583.900	-16.420	0.099
584.000	-16.315	0.099
584.100	-25.656	0.099
584.200	-13.121	0.099
584.300	-9.309	0.099
584.400	-8.643	0.099
584.500	-18.164	0.099
584.600	-10.186	0.099
584.700	-15.881	0.099
584.800	-21.190	0.099
584.900	-27.862	0.099
585.000	-10.784	0.099
585.100	-6.080	0.099
585.200	-22.930	0.099
585.300	-17.302	0.099
585.400	-31.250	0.099
585.500	-28.097	0.099
585.600	-2.492	0.099
585.700	-25.242	0.099
585.800	-23.910	0.099
585.900	-17.270	0.099
586.000	-21.299	0.099
586.100	-27.344	0.099
586.200	-10.493	0.099
586.300	-6.789	0.099
586.400	-19.744	0.099
586.500	-17.088	0.099
586.600	-6.495	0.099
586.700	-26.427	0.099
586.800	-9.962	0.099
586.900	-21.716	0.099
587.000	-17.036	0.099
587.100	-14.414	0.099
587.200	-12.543	0.099
587.300	-21.970	0.099
587.400	-6.207	0.099
587.500	-21.069	0.099
587.600	-16.932	0.099
587.700	-25.138	0.099
587.800	-17.563	0.099
587.900	-22.373	0.099
588.000	-19.227	0.099
588.100	-12.330	0.099
588.200	-24.433	0.099
588.300	-10.790	0.099
588.400	-19.686	0.099
588.500	-23.243	0.099
588.600	-12.690	0.099
588.700	-16.049	0.099
588.800	-8.960	0.099
588.900	-22.740	0.099
589.000	-15.176	0.099
589.100	-15.691	0.099
589.200	-20.524	0.099
589.300	-7.209	0.099
589.400	-19.986	0.099
589.500	-20.769	0.099
589.600	-9.476	0.099
589.700	-25.700	0.099
589.800	-19.231	0.099
589.900	-22.554	0.099
590.000	1.018	0.099
590.100	-26.850	0.099
590.200	-5.621	0.099
590.300	-33.225	0.099
590.400	-16.221	0.099
590.500	-32.857	0.099
590.600	-18.704	0.099
590.700	-15.555	0.099
590.800	-6.656	0.099
590.900	-12.594	0.099
591.000	-18.836	0.099
591.100	-13.721	0.099
591.200	-23.226	0.099
591.300	-0.726	0.099
591.400	-18.115	0.099
591.500	1.385	0.099
591.600	-24.043	0.099
591.700	-20.911	0.099
591.800	-14.701	0.099
591.900	-14.185	0.099
592.000	-11.038	0.099
592.100	-21.546	0.099
592.200	-15.731	0.099
592.300	-3.329	0.099
592.400	-30.343	0.099
592.500	-13.872	0.099
592.600	-7.681	0.099
592.700	-14.642	0.099
592.800	-14.426	0.099
592.900	-17.110	0.099
593.000	-20.436	0.099
593.100	-23.774	0.099
593.200	-9.200	0.099
593.300	-7.675	0.099
593.400	-10.670	0.099
593.500	-13.247	0.099
593.600	-12.620	0.099
593.700	-31.656	0.099
593.800	-3.813	0.099
593.900	-15.250	0.099
594.000	-5.699	0.099
594.100	-27.929	0.099
594.200	-10.039	0.099
594.300	-22.976	0.099
594.400	-12.317	0.099
594.500	-7.046	0.099
594.600	-4.964	0.099
594.700	-20.850	0.099
594.800	-31.524	0.099
594.900	-15.134	0.099
595.000	2.366	0.099
595.100	-23.309	0.099
595.200	-9.526	0.099
595.300	-8.919	0.099
595.400	-13.268	0.099
595.500	-4.491	0.099
595.600	-23.366	0.099
595.700	-13.322	0.099
595.800	-14.382	0.099
595.900	-8.524	0.099
596.000	-15.776	0.099
596.100	-22.731	0.099
596.200	-3.096	0.099
596.300	-16.180	0.099
596.400	-26.813	0.099
596.500	-22.251	0.099
596.600	-1.634	0.099
596.700	-20.167	0.099
596.800	-9.745	0.099
596.900	-14.656	0.099
597.000	-21.756	0.099
597.100	-19.003	0.099
597.200	-24.418	0.099
597.300	-20.829	0.099
597.400	-12.916	0.099
597.500	-19.025	0.099
597.600	-9.461	0.099
597.700	-17.069	0.099
597.800	-20.244	0.099
597.900	-11.292	0.099
598.000	-12.697	0.099
598.100	-1.920	0.099
598.200	-23.768	0.099
598.300	-20.258	0.099
598.400	-20.597	0.099
598.500	-10.638	0.099
598.600	-11.857	0.099
598.700	-23.086	0.099
598.800	-22.100	0.099
598.900	-2.787	0.099
599.000	-26.499	0.099
599.100	-18.645	0.099
599.200	-19.217	0.099
599.300	-30.833	0.099
599.400	-25.328	0.099
599.500	-20.098	0.099
599.600	2.267	0.099
599.700	-25.746	0.099
599.800	-14.455	0.099
599.900	-22.669	0.099
600.000	-5.237	0.099
600.100	-6.356	0.099
600.200	-10.293	0.099
600.300	-21.568	0.099
600.400	-40.569	0.099
600.500	-17.808	0.099
600.600	-9.212	0.099
600.700	-30.769	0.099
600.800	-10.923	0.099
600.900	-6.229	0.099
601.000	-9.088	0.099
601.100	-14.463	0.099
601.200	-8.047	0.099
601.300	-10.179	0.099
601.400	-13.017	0.099
601.500	-20.385	0.099
601.600	-6.525	0.099
601.700	-20.868	0.099
601.800	-14.653	0.099
601.900	-13.085	0.099
602.000	-12.924	0.099
602.100	-1.275	0.099
602.200	-0.938	0.099
602.300	-11.292	0.099
602.400	-2.281	0.099
602.500	-12.805	0.099
602.600	-25.373	0.099
602.700	-19.901	0.099
602.800	-16.535	0.099
602.900	-14.553	0.099
603.000	-17.936	0.099
603.100	-9.554	0.099
603.200	-9.076	0.099
603.300	-7.905	0.099
603.400	-11.225	0.099
603.500	-10.358	0.099
603.600	-22.285	0.099
603.700	4.020	0.099
603.800	-14.434	0.099
603.900	-10.273	0.099
604.000	-9.554	0.099
604.100	-9.296	0.099
604.200	-11.024	0.099
604.300	-16.643	0.099
604.400	-11.220	0.099
604.500	-8.156	0.099
604.600	-18.247	0.099
604.700	-10.014	0.099
604.800	-8.183	0.099
604.900	-8.972	0.099
605.000	-3.697	0.099
605.100	-6.311	0.099
605.200	-17.001	0.099
605.300	-5.124	0.099
605.400	-15.858	0.099
605.500	-3.283	0.099
605.600	-8.447	0.099
605.700	-10.131	0.099
605.800	-9.229	0.099
605.900	0.475	0.099
606.000	-8.434	0.099
606.100	-15.880	0.099
606.200	-15.227	0.099
606.300	1.905	0.099
606.400	-11.284	0.099
606.500	-18.712	0.099
606.600	-11.367	0.099
606.700	-1.324	0.099
606.800	3.911	0.099
606.900	-11.093	0.099
607.000	-9.133	0.099
607.100	-20.214	0.099
607.200	-8.925	0.099
607.300	0.409	0.099
607.400	-21.780	0.099
607.500	-5.882	0.099
607.600	-21.542	0.099
607.700	3.718	0.099
607.800	-18.178	0.099
607.900	-6.992	0.099
608.000	-14.789	0.099
608.100	-10.618	0.099
608.200	-19.396	0.099
608.300	-6.927	0.099
608.400	-8.110	0.099
608.500	-9.159	0.099
608.600	-8.882	0.099
608.700	-17.973	0.099
608.800	-3.864	0.099
608.900	-14.961	0.099
609.000	0.550	0.099
609.100	-12.167	0.099
609.200	-9.140	0.099
609.300	-9.011	0.099
609.400	-8.732	0.099
609.500	-2.496	0.099
609.600	-18.822	0.099
609.700	-19.025	0.099
609.800	-21.751	0.099
609.900	-22.352	0.099
610.000	-20.100	0.099
610.100	-5.783	0.099
610.200	-6.943	0.099
610.300	-0.092	0.099
610.400	-18.437	0.099
610.500	-13.995	0.099
610.600	-17.578	0.099
610.700	-13.836	0.099
610.800	-9.452	0.099
610.900	-25.597	0.099
611.000	-10.867	0.099
611.100	-18.695	0.099
611.200	-16.287	0.099
611.300	-15.774	0.099
611.400	-1.563	0.099
611.500	-11.131	0.099
611.600	-3.604	0.099
611.700	-14.265	0.099
611.800	-15.800	0.099
611.900	-17.290	0.099
612.000	-15.752	0.099
612.100	-22.588	0.099
612.200	-10.749	0.099
612.300	-13.121	0.099
612.400	-14.645	0.099
612.500	-16.996	0.099
612.600	-19.382	0.099
612.700	-20.338	0.099
612.800	-17.392	0.099
612.900	-18.133	0.099
613.000	-27.276	0.099
613.100	3.574	0.099
613.200	-5.124	0.099
613.300	-6.707	0.099
613.400	-9.832	0.099
613.500	-12.401	0.099
613.600	-5.594	0.099
613.700	-14.112	0.099
613.800	-4.772	0.099
613.900	-6.381	0.099
614.000	-12.279	0.099
614.100	-25.875	0.099
614.200	-10.985	0.099
614.300	-11.180	0.099
614.400	-32.217	0.099
614.500	-10.263	0.099
614.600	-6.546	0.099
614.700	-14.555	0.099
614.800	-20.041	0.099
614.900	1.456	0.099
615.000	-12.972	0.099
615.100	-11.572	0.099
615.200	-15.679	0.099
615.300	-17.345	0.099
615.400	-0.286	0.099
615.500	-11.528	0.099
615.600	-19.171	0.099
615.700	-23.450	0.099
615.800	-7.653	0.099
615.900	-10.744	0.099
616.000	-7.662	0.099
616.100	-26.462	0.099
616.200	-15.382	0.099
616.300	8.682	0.099
616.400	-28.853	0.099
616.500	-16.320	0.099
616.600	-13.770	0.099
616.700	-9.751	0.099
616.800	-19.154	0.099
616.900	-5.930	0.099
617.000	-18.341	0.099
617.100	-17.746	0.099
617.200	-26.467	0.099
617.300	-7.054	0.099
617.400	-25.667	0.099
617.500	-15.407	0.099
617.600	-18.393	0.099
617.700	-6.569	0.099
617.800	-12.662	0.099
617.900	-4.093	0.099
618.000	-8.660	0.099
618.100	-13.198	0.099
618.200	-7.372	0.099
618.300	-11.067	0.099
618.400	-10.679	0.099
618.500	-2.662	0.099
618.600	-6.746	0.099
618.700	-15.865	0.099
618.800	-16.366	0.099
618.900	-12.293	0.099
619.000	-25.181	0.099
619.100	-22.601	0.099
619.200	5.147	0.099
619.300	-14.292	0.099
619.400	-14.459	0.099
619.500	-2.997	0.099
619.600	-20.428	0.099
619.700	-2.466	0.099
619.800	-5.787	0.099
619.900	-14.080	0.099
620.000	-11.000	0.099
620.100	-12.175	0.099
620.200	-4.115	0.099
620.300	-5.643	0.099
620.400	-7.627	0.099
620.500	-19.035	0.099
620.600	-5.885	0.099
620.700	-25.560	0.099
620.800	-6.211	0.099
620.900	-23.120	0.099
621.000	-12.924	0.099
621.100	-5.917	0.099
621.200	-19.929	0.099
621.300	-21.889	0.099
621.400	-11.480	0.099
621.500	-17.770	0.099
621.600	-10.631	0.099
621.700	-21.202	0.099
621.800	-14.458	0.099
621.900	-13.550	0.099
622.000	-0.752	0.099
622.100	-17.105	0.099
622.200	-7.899	0.099
622.300	-9.314	0.099
622.400	1.946	0.099
622.500	-10.420	0.099
622.600	-24.553	0.099
622.700	-17.984	0.099
622.800	-17.976	0.099
622.900	-2.969	0.099
623.000	-10.491	0.099
623.100	-12.224	0.099
623.200	6.519	0.099
623.300	-6.754	0.099
623.400	-22.154	0.099
623.500	-14.307	0.099
623.600	-10.376	0.099
623.700	-6.514	0.099
623.800	-18.955	0.099
623.900	-9.135	0.099
624.000	-18.822	0.099
624.100	-17.946	0.099
624.200	-5.055	0.099
624.300	1.352	0.099
624.400	-13.263	0.099
624.500	-7.113	0.099
624.600	-13.922	0.099
624.700	-21.206	0.099
624.800	-3.151	0.099
624.900	-13.988	0.099
625.000	-14.017	0.099
625.100	-2.510	0.099
625.200	-19.122	0.099
625.300	-3.347	0.099
625.400	-7.369	0.099
625.500	-4.085	0.099
625.600	-8.851	0.099
625.700	-3.515	0.099
625.800	-15.071	0.099
625.900	-3.123	0.099
626.000	-5.140	0.099
626.100	-11.499	0.099
626.200	-4.328	0.099
626.300	-20.140	0.099
626.400	-14.377	0.099
626.500	-18.407	0.099
626.600	-26.145	0.099
626.700	-21.273	0.099
626.800	-13.600	0.099
626.900	-12.958	0.099
627.000	-7.062	0.099
627.100	7.623	0.099
627.200	-14.704	0.099
627.300	-9.291	0.099
627.400	-24.571	0.099
627.500	3.312	0.099
627.600	-31.357	0.099
627.700	-13.558	0.099
627.800	-11.730	0.099
627.900	-10.077	0.099
628.000	-21.754	0.099
628.100	-15.203	0.099
628.200	-8.820	0.099
628.300	-13.407	0.099
628.400	-13.748	0.099
628.500	-17.702	0.099
628.600	-14.465	0.099
628.700	-17.668	0.099
628.800	-6.949	0.099
628.900	-28.520	0.099
629.000	-13.412	0.099
629.100	-4.454	0.099
629.200	0.738	0.099
629.300	-22.975	0.099
629.400	2.728	0.099
629.500	-22.064	0.099
629.600	-5.839	0.099
629.700	-11.324	0.099
629.800	-2.589	0.099
629.900	-0.409	0.099
630.000	-0.958	0.099
630.100	-5.165	0.099
630.200	-11.794	0.099
630.300	-9.446	0.099
630.400	-5.343	0.099
630.500	-15.369	0.099
630.600	-6.930	0.099
630.700	3.669	0.099
630.800	-8.021	0.099
630.900	0.971	0.099
631.000	-8.844	0.099
631.100	4.253	0.099
631.200	9.229	0.099
631.300	13.310	0.099
631.400	10.691	0.099
631.500	9.668	0.099
631.600	2.986	0.099
631.700	16.314	0.099
631.800	-3.972	0.099
631.900	-2.308	0.099
632.000	16.191	0.099
632.100	2.885	0.099
632.200	8.384	0.099
632.300	9.586	0.099
632.400	8.757	0.099
632.500	-0.340	0.099
632.600	17.771	0.099
632.700	5.444	0.099
632.800	-0.432	0.099
632.900	6.873	0.099
633.000	12.311	0.099
633.100	21.089	0.099
633.200	1.606	0.099
633.300	15.730	0.099
633.400	13.826	0.099
633.500	12.926	0.099
633.600	6.756	0.099
633.700	23.427	0.099
633.800	25.106	0.099
633.900	5.535	0.099
634.000	20.353	0.099
634.100	-4.916	0.099
634.200	10.771	0.099
634.300	1.183	0.099
634.400	8.101	0.099
634.500	1.188	0.099
634.600	29.595	0.099
634.700	6.476	0.099
634.800	25.611	0.099
634.900	14.273	0.099
635.000	8.894	0.099
635.100	23.255	0.099
635.200	6.360	0.099
635.300	-1.381	0.099
635.400	13.353	0.099
635.500	6.276	0.099
635.600	20.350	0.099
635.700	15.407	0.099
635.800	11.760	0.099
635.900	30.443	0.099
636.000	13.992	0.099
636.100	14.643	0.099
636.200	13.404	0.099
636.300	21.151	0.099
636.400	3.899	0.099
636.500	24.743	0.099
636.600	7.042	0.099
636.700	26.146	0.099
636.800	7.150	0.099
636.900	21.686	0.099
637.000	14.524	0.099
637.100	9.877	0.099
637.200	18.744	0.099
637.300	9.022	0.099
637.400	16.441	0.099
637.500	27.704	0.099
637.600	15.112	0.099
637.700	24.522	0.099
637.800	19.780	0.099
637.900	16.121	0.099
638.000	17.677	0.099
638.100	18.999	0.099
638.200	6.414	0.099
638.300	24.004	0.099
638.400	20.146	0.099
638.500	8.924	0.099
638.600	22.098	0.099
638.700	27.817	0.099
638.800	21.023	0.099
638.900	7.081	0.099
639.000	20.373	0.099
639.100	5.680	0.099
639.200	23.932	0.099
639.300	16.366	0.099
639.400	31.339	0.099
639.500	25.876	0.099
639.600	26.679	0.099
639.700	17.777	0.099
639.800	41.464	0.099
639.900	18.620	0.099
640.000	16.528	0.099
640.100	18.671	0.099
640.200	32.556	0.099
640.300	19.932	0.099
640.400	16.895	0.099
640.500	35.770	0.099
640.600	18.424	0.099
640.700	36.221	0.099
640.800	30.350	0.099
640.900	22.558	0.099
641.000	30.943	0.099
641.100	23.483	0.099
641.200	23.298	0.099
641.300	32.441	0.099
641.400	19.039	0.099
641.500	32.752	0.099
641.600	46.847	0.099
641.700	26.065	0.099
641.800	20.988	0.099
641.900	41.047	0.099
642.000	20.612	0.099
642.100	28.242	0.099
642.200	36.639	0.099
642.300	36.458	0.099
642.400	20.593	0.099
642.500	37.881	0.099
642.600	29.743	0.099
642.700	45.491	0.099
642.800	20.739	0.099
642.900	31.998	0.099
643.000	36.745	0.099
643.100	39.846	0.099
643.200	30.672	0.099
643.300	50.642	0.099
643.400	26.023	0.099
643.500	32.659	0.099
643.600	29.870	0.099
643.700	35.652	0.099
643.800	27.248	0.099
643.900	42.800	0.099
644.000	27.285	0.099
644.100	48.372	0.099
644.200	42.001	0.099
644.300	25.642	0.099
644.400	30.043	0.099
644.500	39.497	0.099
644.600	38.245	0.099
644.700	37.955	0.099
644.800	32.696	0.099
644.900	32.650	0.099
645.000	41.452	0.099
645.100	27.213	0.099
645.200	50.121	0.099
645.300	37.119	0.099
645.400	24.577	0.099
645.500	41.119	0.099
645.600	32.000	0.099
645.700	46.392	0.099
645.800	28.488	0.099
645.900	37.824	0.099
646.000	30.829	0.099
646.100	48.425	0.099
646.200	53.216	0.099
646.300	30.143	0.099
646.400	36.628	0.099
646.500	36.895	0.099
646.600	33.894	0.099
646.700	39.368	0.099
646.800	20.451	0.099
646.900	44.222	0.099
647.000	32.345	0.099
647.100	28.335	0.099
647.200	40.197	0.099
647.300	43.297	0.099
647.400	37.678	0.099
647.500	28.027	0.099
647.600	26.895	0.099
647.700	29.525	0.099
647.800	46.580	0.099
647.900	35.261	0.099
648.000	38.072	0.099
648.100	42.030	0.099
648.200	38.868	0.099
648.300	38.046	0.099
648.400	21.717	0.099
648.500	43.817	0.099
648.600	32.917	0.099
648.700	40.421	0.099
648.800	36.162	0.099
648.900	35.111	0.099
649.000	36.718	0.099
649.100	35.182	0.099
649.200	37.636	0.099
649.300	44.571	0.099
649.400	30.164	0.099
649.500	40.702	0.099
649.600	29.708	0.099
649.700	38.957	0.099
649.800	15.980	0.099
649.900	32.373	0.099
650.000	38.153	0.099
650.100	41.568	0.099
650.200	41.628	0.099
650.300	38.208	0.099
650.400	40.078	0.099
650.500	33.038	0.099
650.600	32.781	0.099
650.700	30.193	0.099
650.800	33.000	0.099
650.900	45.306	0.099
651.000	32.913	0.099
651.100	41.269	0.099
651.200	33.335	0.099
651.300	30.154	0.099
651.400	36.999	0.099
651.500	39.202	0.099
651.600	19.906	0.099
651.700	34.598	0.099
651.800	47.668	0.099
651.900	28.439	0.099
652.000	29.723	0.099
652.100	41.780	0.099
652.200	26.051	0.099
652.300	38.932	0.099
652.400	34.441	0.099
652.500	31.170	0.099
652.600	37.228	0.099
652.700	37.964	0.099
652.800	47.943	0.099
652.900	33.796	0.099
653.000	22.747	0.099
653.100	35.282	0.099
653.200	36.712	0.099
653.300	33.823	0.099
653.400	24.722	0.099
653.500	32.696	0.099
653.600	54.345	0.099
653.700	16.796	0.099
653.800	53.129	0.099
653.900	33.293	0.099
654.000	27.870	0.099
654.100	31.197	0.099
654.200	23.391	0.099
654.300	46.667	0.099
654.400	39.315	0.099
654.500	47.180	0.099
654.600	34.805	0.099
654.700	34.308	0.099
654.800	27.931	0.099
654.900	53.073	0.099
655.000	32.871	0.099
655.100	28.153	0.099
655.200	45.201	0.099
655.300	8.933	0.099
655.400	31.774	0.099
655.500	29.584	0.099
655.600	37.986	0.099
655.700	48.189	0.099
655.800	33.376	0.099
655.900	41.722	0.099
656.000	21.017	0.099
656.100	29.556	0.099
656.200	33.718	0.099
656.300	39.359	0.099
656.400	31.191	0.099
656.500	44.553	0.099
656.600	28.775	0.099
656.700	30.121	0.099
656.800	39.231	0.099
656.900	24.601	0.099
657.000	41.103	0.099
657.100	38.827	0.099
657.200	36.652	0.099
657.300	19.303	0.099
657.400	21.326	0.099
657.500	41.936	0.099
657.600	42.529	0.099
657.700	18.971	0.099
657.800	25.939	0.099
657.900	45.342	0.099
658.000	44.464	0.099
658.100	22.500	0.099
658.200	45.680	0.099
658.300	59.601	0.099
658.400	34.744	0.099
658.500	33.617	0.099
658.600	35.773	0.099
658.700	33.174	0.099
658.800	27.141	0.099
658.900	23.987	0.099
659.000	30.781	0.099
659.100	36.263	0.099
659.200	33.620	0.099
659.300	44.267	0.099
659.400	18.280	0.099
659.500	39.962	0.099
659.600	23.252	0.099
659.700	26.999	0.099
659.800	37.579	0.099
659.900	37.553	0.099
660.000	33.079	0.099
660.100	24.340	0.099
660.200	46.078	0.099
660.300	29.959	0.099
660.400	31.437	0.099
660.500	15.896	0.099
660.600	28.312	0.099
660.700	41.186	0.099
660.800	31.725	0.099
660.900	28.753	0.099
661.000	24.637	0.099
661.100	30.860	0.099
661.200	34.201	0.099
661.300	31.500	0.099
661.400	36.197	0.099
661.500	11.049	0.099
661.600	40.839	0.099
661.700	44.136	0.099
661.800	31.955	0.099
661.900	20.220	0.099
662.000	42.770	0.099
662.100	30.743	0.099
662.200	27.917	0.099
662.300	28.153	0.099
662.400	39.832	0.099
662.500	29.510	0.099
662.600	40.525	0.099
662.700	33.883	0.099
662.800	24.518	0.099
662.900	23.510	0.099
663.000	30.673	0.099
663.100	35.238	0.099
663.200	28.915	0.099
663.300	29.848	0.099
663.400	32.559	0.099
663.500	32.961	0.099
663.600	37.123	0.099
663.700	21.434	0.099
663.800	28.615	0.099
663.900	47.294	0.099
664.000	28.515	0.099
664.100	9.862	0.099
664.200	43.197	0.099
664.300	18.791	0.099
664.400	30.355	0.099
664.500	24.316	0.099
664.600	27.857	0.099
664.700	42.306	0.099
664.800	34.882	0.099
664.900	31.153	0.099
665.000	36.945	0.099
665.100	27.127	0.099
665.200	26.438	0.099
665.300	31.728	0.099
665.400	23.339	0.099
665.500	34.412	0.099
665.600	14.672	0.099
665.700	28.143	0.099
665.800	40.129	0.099
665.900	40.212	0.099
666.000	33.149	0.099
666.100	33.232	0.099
666.200	23.665	0.099
666.300	31.932	0.099
666.400	18.426	0.099
666.500	32.379	0.099
666.600	36.277	0.099
666.700	31.639	0.099
666.800	14.506	0.099
666.900	53.141	0.099
667.000	33.083	0.099
667.100	39.833	0.099
667.200	42.952	0.099
667.300	40.370	0.099
667.400	16.390	0.099
667.500	35.817	0.099
667.600	29.008	0.099
667.700	36.822	0.099
667.800	17.552	0.099
667.900	33.409	0.099
668.000	56.168	0.099
668.100	30.501	0.099
668.200	32.616	0.099
668.300	35.799	0.099
668.400	36.530	0.099
668.500	39.178	0.099
668.600	21.889	0.099
668.700	34.593	0.099
668.800	38.776	0.099
668.900	34.912	0.099
669.000	15.528	0.099
669.100	29.730	0.099
669.200	44.930	0.099
669.300	28.774	0.099
669.400	28.110	0.099
669.500	27.584	0.099
669.600	35.415	0.099
669.700	30.519	0.099
669.800	35.297	0.099
669.900	20.699	0.099
670.000	37.040	0.099
670.100	30.536	0.099
670.200	28.922	0.099
670.300	29.107	0.099
670.400	40.971	0.099
670.500	23.120	0.099
670.600	30.513	0.099
670.700	24.629	0.099
670.800	26.020	0.099
670.900	44.607	0.099
671.000	22.723	0.099
671.100	25.608	0.099
671.200	23.139	0.099
671.300	25.982	0.099
671.400	42.286	0.099
671.500	24.251	0.099
671.600	33.857	0.099
671.700	23.392	0.099
671.800	32.347	0.099
671.900	34.088	0.099
672.000	39.069	0.099
672.100	33.567	0.099
672.200	40.331	0.099
672.300	19.279	0.099
672.400	32.922	0.099
672.500	36.786	0.099
672.600	33.622	0.099
672.700	39.298	0.099
672.800	34.555	0.099
672.900	21.357	0.099
673.000	32.952	0.099
673.100	27.452	0.099
673.200	26.598	0.099
673.300	26.997	0.099
673.400	36.529	0.099
673.500	33.445	0.099
673.600	26.676	0.099
673.700	34.535	0.099
673.800	24.521	0.099
673.900	26.840	0.099
674.000	34.438	0.099
674.100	37.910	0.099
674.200	43.721	0.099
674.300	31.413	0.099
674.400	29.847	0.099
674.500	31.074	0.099
674.600	38.012	0.099
674.700	23.767	0.099
674.800	25.270	0.099
674.900	25.452	0.099
675.000	28.967	0.099
675.100	30.071	0.099
675.200	32.754	0.099
675.300	24.321	0.099
675.400	23.115	0.099
675.500	45.411	0.099
675.600	31.241	0.099
675.700	33.450	0.099
675.800	27.010	0.099
675.900	34.595	0.099
676.000	21.628	0.099
676.100	29.503	0.099
676.200	27.789	0.099
676.300	22.124	0.099
676.400	31.440	0.099
676.500	24.873	0.099
676.600	32.458	0.099
676.700	27.130	0.099
676.800	32.825	0.099
676.900	26.540	0.099
677.000	20.351	0.099
677.100	45.676	0.099
677.200	33.842	0.099
677.300	25.180	0.099
677.400	40.208	0.099
677.500	33.267	0.099
677.600	21.428	0.099
677.700	36.875	0.099
677.800	34.575	0.099
677.900	35.441	0.099
678.000	21.635	0.099
678.100	20.448	0.099
678.200	39.389	0.099
678.300	26.515	0.099
678.400	21.639	0.099
678.500	34.538	0.099
678.600	39.363	0.099
678.700	18.913	0.099
678.800	39.010	0.099
678.900	39.039	0.099
679.000	26.770	0.099
679.100	31.131	0.099
679.200	29.116	0.099
679.300	28.920	0.099
679.400	33.003	0.099
679.500	31.401	0.099
679.600	28.889	0.099
679.700	18.083	0.099
679.800	29.487	0.099
679.900	25.992	0.099
680.000	28.287	0.099
680.100	19.094	0.099
680.200	25.224	0.099
680.300	18.128	0.099
680.400	24.317	0.099
680.500	27.798	0.099
680.600	22.848	0.099
680.700	32.211	0.099
680.800	37.448	0.099
680.900	15.273	0.099
681.000	24.770	0.099
681.100	5.719	0.099
681.200	25.180	0.099
681.300	21.716	0.099
681.400	16.431	0.099
681.500	28.747	0.099
681.600	28.502	0.099
681.700	37.268	0.099
681.800	27.175	0.099
681.900	37.203	0.099
682.000	29.046	0.099
682.100	27.447	0.099
682.200	33.942	0.099
682.300	28.574	0.099
682.400	32.807	0.099
682.500	31.598	0.099
682.600	29.595	0.099
682.700	22.283	0.099
682.800	28.531	0.099
682.900	30.232	0.099
683.000	19.321	0.099
683.100	22.448	0.099
683.200	38.554	0.099
683.300	15.700	0.099
683.400	24.792	0.099
683.500	55.545	0.099
683.600	14.541	0.099
683.700	33.089	0.099
683.800	21.370	0.099
683.900	17.629	0.099
684.000	40.282	0.099
684.100	28.192	0.099
684.200	20.448	0.099
684.300	38.263	0.099
684.400	27.208	0.099
684.500	22.588	0.099
684.600	35.690	0.099
684.700	25.486	0.099
684.800	30.009	0.099
684.900	28.327	0.099
685.000	17.855	0.099
685.100	39.752	0.099
685.200	14.225	0.099
685.300	35.392	0.099
685.400	45.278	0.099
685.500	25.448	0.099
685.600	37.805	0.099
685.700	33.519	0.099
685.800	23.133	0.099
685.900	20.978	0.099
686.000	35.711	0.099
686.100	26.609	0.099
686.200	21.938	0.099
686.300	31.191	0.099
686.400	27.178	0.099
686.500	30.518	0.099
686.600	32.671	0.099
686.700	38.099	0.099
686.800	28.799	0.099
686.900	22.149	0.099
687.000	24.596	0.099
687.100	26.310	0.099
687.200	27.026	0.099
687.300	21.703	0.099
687.400	33.648	0.099
687.500	33.752	0.099
687.600	27.254	0.099
687.700	38.124	0.099
687.800	20.249	0.099
687.900	51.043	0.099
688.000	26.261	0.099
688.100	34.258	0.099
688.200	25.007	0.099
688.300	38.716	0.099
688.400	30.691	0.099
688.500	21.381	0.099
688.600	28.523	0.099
688.700	27.986	0.099
688.800	25.512	0.099
688.900	17.901	0.099
689.000	22.601	0.099
689.100	41.607	0.099
689.200	25.474	0.099
689.300	25.164	0.099
689.400	24.107	0.099
689.500	25.644	0.099
689.600	30.371	0.099
689.700	31.158	0.099
689.800	32.711	0.099
689.900	13.109	0.099
690.000	11.566	0.099
690.100	24.006	0.099
690.200	7.205	0.099
690.300	24.562	0.099
690.400	22.833	0.099
690.500	14.513	0.099
690.600	4.071	0.099
690.700	14.013	0.099
690.800	19.786	0.099
690.900	13.370	0.099
691.000	8.194	0.099
691.100	-7.526	0.099
691.200	-10.510	0.099
691.300	4.729	0.099
691.400	-3.759	0.099
691.500	13.416	0.099
691.600	-3.566	0.099
691.700	4.763	0.099
691.800	-6.140	0.099
691.900	-25.434	0.099
692.000	-9.920	0.099
692.100	4.111	0.099
692.200	0.027	0.099
692.300	4.315	0.099
692.400	-13.594	0.099
692.500	-0.562	0.099
692.600	-12.600	0.099
692.700	-17.637	0.099
692.800	-3.613	0.099
692.900	-1.846	0.099
693.000	2.071	0.099
693.100	-11.159	0.099
693.200	-9.158	0.099
693.300	-7.520	0.099
693.400	-15.088	0.099
693.500	-14.957	0.099
693.600	-0.561	0.099
693.700	-16.967	0.099
693.800	-10.754	0.099
693.900	-7.213	0.099
694.000	-12.978	0.099
694.100	-12.458	0.099
694.200	-11.467	0.099
694.300	-18.627	0.099
694.400	-12.435	0.099
694.500	-4.678	0.099
694.600	-5.124	0.099
694.700	-5.564	0.099
694.800	-8.717	0.099
694.900	-19.939	0.099
695.000	-8.977	0.099
695.100	4.824	0.099
695.200	-8.660	0.099
695.300	-13.972	0.099
695.400	-12.648	0.099
695.500	-16.669	0.099
695.600	-13.508	0.099
695.700	3.041	0.099
695.800	-7.534	0.099
695.900	-21.447	0.099
696.000	-15.013	0.099
696.100	14.078	0.099
696.200	-10.169	0.099
696.300	-18.331	0.099
696.400	-0.115	0.099
696.500	-12.465	0.099
696.600	-27.124	0.099
696.700	-1.049	0.099
696.800	-33.461	0.099
696.900	-5.220	0.099
697.000	-17.806	0.099
697.100	-10.943	0.099
697.200	-16.766	0.099
697.300	-1.047	0.099
697.400	-28.297	0.099
697.500	-13.931	0.099
697.600	-8.800	0.099
697.700	-7.713	0.099
697.800	-18.424	0.099
697.900	-24.071	0.099
698.000	-18.680	0.099
698.100	-10.383	0.099
698.200	-3.374	0.099
698.300	-20.807	0.099
698.400	-16.027	0.099
698.500	-16.057	0.099
698.600	-11.489	0.099
698.700	-18.545	0.099
698.800	-2.481	0.099
698.900	-13.817	0.099
699.000	-9.472	0.099
699.100	2.801	0.099
699.200	-6.039	0.099
699.300	-11.694	0.099
699.400	-5.101	0.099
699.500	-17.006	0.099
699.600	-9.513	0.099
699.700	-18.306	0.099
699.800	-10.978	0.099
699.900	-23.386	0.099
700.000	-24.392	0.099
700.100	-9.978	0.099
700.200	-34.857	0.099
700.300	-11.357	0.099
700.400	-5.380	0.099
700.500	-7.915	0.099
700.600	-22.522	0.099
700.700	-2.007	0.099
700.800	-35.868	0.099
700.900	-2.733	0.099
701.000	-4.830	0.099
701.100	-27.938	0.099
701.200	-18.646	0.099
701.300	-11.714	0.099
701.400	-12.283	0.099
701.500	-28.169	0.099
701.600	-10.957	0.099
701.700	-23.801	0.099
701.800	-16.774	0.099
701.900	-8.967	0.099
702.000	-18.020	0.099
702.100	-15.604	0.099
702.200	-13.143	0.099
702.300	-12.800	0.099
702.400	-36.008	0.099
702.500	-5.341	0.099
702.600	-24.623	0.099
702.700	-13.447	0.099
702.800	-5.630	0.099
702.900	-16.610	0.099
703.000	-17.486	0.099
703.100	-32.120	0.099
703.200	-27.691	0.099
703.300	-12.519	0.099
703.400	-23.377	0.099
703.500	-11.194	0.099
703.600	-21.297	0.099
703.700	-33.944	0.099
703.800	-11.362	0.099
703.900	-16.181	0.099
704.000	5.067	0.099
704.100	-17.719	0.099
704.200	-24.188	0.099
704.300	-13.969	0.099
704.400	-16.605	0.099
704.500	-20.853	0.099
704.600	-6.960	0.099
704.700	-13.524	0.099
704.800	-23.230	0.099
704.900	-27.459	0.099
705.000	-23.522	0.099
705.100	-17.474	0.099
705.200	-15.586	0.099
705.300	-26.904	0.099
705.400	-12.192	0.099
705.500	-20.201	0.099
705.600	-14.788	0.099
705.700	-34.914	0.099
705.800	-15.600	0.099
705.900	-1.676	0.099
706.000	-16.673	0.099
706.100	-26.346	0.099
706.200	-15.791	0.099
706.300	-14.134	0.099
706.400	-28.619	0.099
706.500	-18.866	0.099
706.600	-35.696	0.099
706.700	-12.062	0.099
706.800	-32.935	0.099
706.900	-22.689	0.099
707.000	-13.399	0.099
707.100	-24.305	0.099
707.200	-27.457	0.099
707.300	-32.894	0.099
707.400	-16.946	0.099
707.500	-11.016	0.099
707.600	-25.028	0.099
707.700	-30.412	0.099
707.800	-12.520	0.099
707.900	-21.518	0.099
708.000	-19.423	0.099
708.100	-22.683	0.099
708.200	-21.264	0.099
708.300	-9.532	0.099
708.400	-22.281	0.099
708.500	-18.683	0.099
708.600	-20.422	0.099
708.700	-24.871	0.099
708.800	-23.987	0.099
708.900	-29.674	0.099
709.000	-19.593	0.099
709.100	-25.286	0.099
709.200	-36.583	0.099
709.300	-11.172	0.099
709.400	-15.434	0.099
709.500	-22.120	0.099
709.600	-17.458	0.099
709.700	-5.496	0.099
709.800	-27.702	0.099
709.900	-29.404	0.099
710.000	-8.037	0.099
710.100	-18.327	0.099
710.200	-15.549	0.099
710.300	-32.653	0.099
710.400	-36.126	0.099
710.500	-7.960	0.099
710.600	-16.137	0.099
710.700	-30.325	0.099
710.800	-27.182	0.099
710.900	-20.448	0.099
711.000	-27.013	0.099
711.100	-7.753	0.099
711.200	-30.196	0.099
711.300	-22.430	0.099
711.400	-8.120	0.099
711.500	-24.463	0.099
711.600	-18.311	0.099
711.700	-21.256	0.099
711.800	-33.737	0.099
711.900	-19.656	0.099
712.000	-17.358	0.099
712.100	-35.104	0.099
712.200	-4.833	0.099
712.300	-12.639	0.099
712.400	-26.586	0.099
712.500	-22.206	0.099
712.600	-24.809	0.099
712.700	-6.276	0.099
712.800	-19.080	0.099
712.900	-28.105	0.099
713.000	-36.496	0.099
713.100	-20.048	0.099
713.200	-31.816	0.099
713.300	-17.240	0.099
713.400	-35.510	0.099
713.500	-23.467	0.099
713.600	-22.986	0.099
713.700	-33.536	0.099
713.800	-24.630	0.099
713.900	-10.821	0.099
714.000	-12.389	0.099
714.100	-28.027	0.099
714.200	-30.986	0.099
714.300	-6.200	0.099
714.400	-19.846	0.099
714.500	-17.335	0.099
714.600	-23.299	0.099
714.700	-30.868	0.099
714.800	-24.352	0.099
714.900	-23.820	0.099
715.000	-23.184	0.099
715.100	-18.455	0.099
715.200	-29.069	0.099
715.300	-19.494	0.099
715.400	-34.934	0.099
715.500	-6.913	0.099
715.600	-11.068	0.099
715.700	-27.546	0.099
715.800	-23.765	0.099
715.900	-13.143	0.099
716.000	-25.232	0.099
716.100	-30.449	0.099
716.200	-24.111	0.099
716.300	-23.192	0.099
716.400	-15.303	0.099
716.500	-23.270	0.099
716.600	-15.159	0.099
716.700	-35.079	0.099
716.800	-39.136	0.099
716.900	-23.133	0.099
717.000	-26.331	0.099
717.100	-16.273	0.099
717.200	-19.596	0.099
717.300	-14.911	0.099
717.400	-20.976	0.099
717.500	-32.473	0.099
717.600	-19.558	0.099
717.700	-26.942	0.099
717.800	-20.995	0.099
717.900	-21.630	0.099
718.000	-20.416	0.099
718.100	-23.018	0.099
718.200	-34.589	0.099
718.300	-21.772	0.099
718.400	-21.099	0.099
718.500	-22.704	0.099
718.600	-6.238	0.099
718.700	-25.889	0.099
718.800	-21.758	0.099
718.900	-28.106	0.099
719.000	-29.473	0.099
719.100	-9.298	0.099
719.200	-10.391	0.099
719.300	-11.381	0.099
719.400	-37.522	0.099
719.500	-9.628	0.099
719.600	-16.063	0.099
719.700	-23.597	0.099
719.800	-25.348	0.099
719.900	-26.232	0.099
720.000	-21.219	0.099
720.100	-24.654	0.099
720.200	-19.085	0.099
720.300	-21.767	0.099
720.400	-29.522	0.099
720.500	-45.505	0.099
720.600	-2.407	0.099
720.700	-7.741	0.099
720.800	-7.985	0.099
720.900	-23.666	0.099
721.000	-30.347	0.099
721.100	-19.509	0.099
721.200	-33.940	0.099
721.300	-20.444	0.099
721.400	-30.240	0.099
721.500	-21.379	0.099
721.600	-19.643	0.099
721.700	-29.525	0.099
721.800	-25.697	0.099
721.900	-20.394	0.099
722.000	-10.679	0.099
722.100	-11.989	0.099
722.200	-18.601	0.099
722.300	-25.930	0.099
722.400	-25.368	0.099
722.500	-26.389	0.099
722.600	-9.535	0.099
722.700	-24.390	0.099
722.800	-17.651	0.099
722.900	-10.930	0.099
723.000	-37.179	0.099
723.100	-36.954	0.099
723.200	-16.654	0.099
723.300	-10.030	0.099
723.400	-28.546	0.099
723.500	-26.490	0.099
723.600	-16.395	0.099
723.700	-23.292	0.099
723.800	-21.682	0.099
723.900	-32.719	0.099
724.000	-2.473	0.099
724.100	-15.093	0.099
724.200	-22.197	0.099
724.300	-15.222	0.099
724.400	-24.340	0.099
724.500	-15.298	0.099
724.600	-21.330	0.099
724.700	-22.346	0.099
724.800	-18.595	0.099
724.900	-29.762	0.099
725.000	-11.603	0.099
725.100	-22.297	0.099
725.200	-13.510	0.099
725.300	-23.358	0.099
725.400	-28.860	0.099
725.500	-18.059	0.099
725.600	-12.562	0.099
725.700	-17.913	0.099
725.800	-31.092	0.099
725.900	-11.775	0.099
726.000	-26.605	0.099
726.100	-23.689	0.099
726.200	-24.410	0.099
726.300	-21.551	0.099
726.400	-19.914	0.099
726.500	-11.179	0.099
726.600	-22.445	0.099
726.700	-11.453	0.099
726.800	-20.256	0.099
726.900	-9.951	0.099
727.000	-24.654	0.099
727.100	-15.706	0.099
727.200	-27.666	0.099
727.300	-19.572	0.099
727.400	-20.224	0.099
727.500	-27.391	0.099
727.600	-16.949	0.099
727.700	-10.231	0.099
727.800	-9.245	0.099
727.900	-29.546	0.099
728.000	-18.534	0.099
728.100	-22.319	0.099
728.200	-19.777	0.099
728.300	-19.412	0.099
728.400	-22.363	0.099
728.500	-27.722	0.099
728.600	-25.955	0.099
728.700	-23.820	0.099
728.800	-25.685	0.099
728.900	-9.147	0.099
729.000	-11.921	0.099
729.100	-26.397	0.099
729.200	-12.565	0.099
729.300	-12.208	0.099
729.400	-20.380	0.099
729.500	-37.700	0.099
729.600	-9.003	0.099
729.700	-23.398	0.099
729.800	-23.467	0.099
729.900	-15.417	0.099
730.000	-12.254	0.099
730.100	-14.663	0.099
730.200	-21.420	0.099
730.300	-15.211	0.099
730.400	-15.546	0.099
730.500	-11.626	0.099
730.600	-29.307	0.099
730.700	-22.249	0.099
730.800	-13.954	0.099
730.900	-28.744	0.099
731.000	-28.471	0.099
731.100	-14.964	0.099
731.200	-15.336	0.099
731.300	-10.909	0.099
731.400	-18.755	0.099
731.500	-17.867	0.099
731.600	-24.668	0.099
731.700	-9.652	0.099
731.800	-19.001	0.099
731.900	-23.872	0.099
732.000	-5.379	0.099
732.100	-21.968	0.099
732.200	-18.837	0.099
732.300	-36.781	0.099
732.400	-17.817	0.099
732.500	-21.550	0.099
732.600	-20.330	0.099
732.700	-33.381	0.099
732.800	-17.200	0.099
732.900	-34.357	0.099
733.000	-31.159	0.099
733.100	-21.475	0.099
733.200	-14.068	0.099
733.300	-15.808	0.099
733.400	-35.980	0.099
733.500	-1.561	0.099
733.600	-31.305	0.099
733.700	-24.297	0.099
733.800	-18.083	0.099
733.900	-21.887	0.099
734.000	-7.773	0.099
734.100	-7.807	0.099
734.200	-8.248	0.099
734.300	-20.310	0.099
734.400	-25.447	0.099
734.500	-6.323	0.099
734.600	-19.175	0.099
734.700	-37.838	0.099
734.800	-10.131	0.099
734.900	-31.423	0.099
735.000	-18.340	0.099
735.100	-15.848	0.099
735.200	-17.255	0.099
735.300	-13.652	0.099
735.400	-10.507	0.099
735.500	-13.256	0.099
735.600	-18.729	0.099
735.700	-36.944	0.099
735.800	-14.354	0.099
735.900	-19.523	0.099
736.000	-13.997	0.099
736.100	-20.876	0.099
736.200	-15.904	0.099
736.300	-12.530	0.099
736.400	-18.254	0.099
736.500	-12.625	0.099
736.600	-21.177	0.099
736.700	-21.011	0.099
736.800	-18.464	0.099
736.900	-19.035	0.099
737.000	-25.650	0.099
737.100	-17.737	0.099
737.200	-14.236	0.099
737.300	-22.000	0.099
737.400	-33.008	0.099
737.500	-8.835	0.099
737.600	-28.205	0.099
737.700	-12.739	0.099
737.800	-35.122	0.099
737.900	-13.857	0.099
738.000	1.133	0.099
738.100	-13.464	0.099
738.200	-11.693	0.099
738.300	-13.125	0.099
738.400	-18.921	0.099
738.500	-17.136	0.099
738.600	-20.017	0.099
738.700	-20.390	0.099
738.800	-6.922	0.099
738.900	-30.840	0.099
739.000	-16.828	0.099
739.100	-8.187	0.099
739.200	-26.874	0.099
739.300	-19.129	0.099
739.400	-5.586	0.099
739.500	-30.786	0.099
739.600	-29.347	0.099
739.700	-18.009	0.099
739.800	-16.806	0.099
739.900	-6.845	0.099
740.000	-25.545	0.099
740.100	-19.584	0.099
740.200	-16.873	0.099
740.300	-12.402	0.099
740.400	-19.171	0.099
740.500	-17.445	0.099
740.600	-11.921	0.099
740.700	-23.044	0.099
740.800	-26.947	0.099
740.900	-17.710	0.099
741.000	0.978	0.099
741.100	-7.951	0.099
741.200	-21.179	0.099
741.300	-17.486	0.099
741.400	-9.539	0.099
741.500	-13.824	0.099
741.600	-16.817	0.099
741.700	-29.951	0.099
741.800	-15.205	0.099
741.900	-22.983	0.099
742.000	-3.657	0.099
742.100	-14.521	0.099
742.200	-36.168	0.099
742.300	-21.316	0.099
742.400	-11.796	0.099
742.500	-20.222	0.099
742.600	-13.687	0.099
742.700	-17.081	0.099
742.800	-25.603	0.099
742.900	-26.625	0.099
743.000	-18.953	0.099
743.100	-18.577	0.099
743.200	-18.430	0.099
743.300	-11.129	0.099
743.400	-24.311	0.099
743.500	-24.033	0.099
743.600	-26.672	0.099
743.700	-13.000	0.099
743.800	-9.401	0.099
743.900	-10.744	0.099
744.000	-14.076	0.099
744.100	-17.116	0.099
744.200	-24.613	0.099
744.300	-6.502	0.099
744.400	-13.675	0.099
744.500	-17.428	0.099
744.600	-8.636	0.099
744.700	-17.208	0.099
744.800	-11.495	0.099
744.900	-26.217	0.099
745.000	-13.148	0.099
745.100	-9.885	0.099
745.200	-19.376	0.099
745.300	-24.008	0.099
745.400	-18.197	0.099
745.500	-4.474	0.099
745.600	-15.170	0.099
745.700	-16.776	0.099
745.800	-19.913	0.099
745.900	-18.671	0.099
746.000	2.979	0.099
746.100	-31.513	0.099
746.200	-22.551	0.099
746.300	-13.041	0.099
746.400	-24.562	0.099
746.500	-14.343	0.099
746.600	-12.485	0.099
746.700	-12.832	0.099
746.800	-19.745	0.099
746.900	-15.501	0.099
747.000	-17.404	0.099
747.100	-10.033	0.099
747.200	-14.842	0.099
747.300	-16.822	0.099
747.400	-10.696	0.099
747.500	-17.779	0.099
747.600	-11.381	0.099
747.700	-23.142	0.099
747.800	-14.707	0.099
747.900	-11.689	0.099
748.000	-26.064	0.099
748.100	-14.418	0.099
748.200	-17.734	0.099
748.300	-10.375	0.099
748.400	-8.357	0.099
748.500	-18.603	0.099
748.600	-22.904	0.099
748.700	-4.804	0.099
748.800	-4.009	0.099
748.900	-21.287	0.099
749.000	-24.840	0.099
749.100	-19.025	0.099
749.200	-15.933	0.099
749.300	-21.409	0.099
749.400	-10.733	0.099
749.500	-32.693	0.099
749.600	-23.802	0.099
749.700	-31.529	0.099
749.800	2.650	0.099
749.900	-21.088	0.099
750.000	-11.393	0.099
750.100	-7.853	0.099
750.200	-12.286	0.099
750.300	-5.693	0.099
750.400	-0.907	0.099
750.500	-13.490	0.099
750.600	-19.524	0.099
750.700	-32.280	0.099
750.800	-18.239	0.099
750.900	-34.720	0.099
751.000	-11.639	0.099
751.100	-5.345	0.099
751.200	-11.915	0.099
751.300	-18.957	0.099
751.400	-24.464	0.099
751.500	-2.705	0.099
751.600	-15.295	0.099
751.700	-10.448	0.099
751.800	-10.974	0.099
751.900	-24.977	0.099
752.000	-14.580	0.099
752.100	-7.586	0.099
752.200	-8.913	0.099
752.300	-23.568	0.099
752.400	-13.750	0.099
752.500	-4.502	0.099
752.600	-16.742	0.099
752.700	-19.592	0.099
752.800	-6.759	0.099
752.900	-8.533	0.099
753.000	-19.123	0.099
753.100	-1.678	0.099
753.200	-9.560	0.099
753.300	-9.991	0.099
753.400	-31.533	0.099
753.500	-8.143	0.099
753.600	-15.478	0.099
753.700	-8.998	0.099
753.800	-19.427	0.099
753.900	-12.405	0.099
754.000	-18.321	0.099
754.100	-10.554	0.099
754.200	-20.130	0.099
754.300	2.568	0.099
754.400	-17.138	0.099
754.500	-22.608	0.099
754.600	-1.116	0.099
754.700	-0.585	0.099
754.800	-15.081	0.099
754.900	-6.402	0.099
755.000	-11.629	0.099
755.100	-18.492	0.099
755.200	-16.042	0.099
755.300	-15.642	0.099
755.400	-19.178	0.099
755.500	-17.228	0.099
755.600	-17.296	0.099
755.700	-11.778	0.099
755.800	-13.171	0.099
755.900	-7.236	0.099
756.000	-20.361	0.099
756.100	-12.808	0.099
756.200	-18.221	0.099
756.300	-4.231	0.099
756.400	-10.895	0.099
756.500	-19.049	0.099
756.600	-1.852	0.099
756.700	-22.100	0.099
756.800	-20.932	0.099
756.900	-1.252	0.099
757.000	-8.749	0.099
757.100	-23.717	0.099
757.200	-19.553	0.099
757.300	-16.531	0.099
757.400	-27.497	0.099
757.500	-22.395	0.099
757.600	-17.901	0.099
757.700	-12.439	0.099
757.800	-10.906	0.099
757.900	-7.890	0.099
758.000	-21.189	0.099
758.100	-6.156	0.099
758.200	-9.141	0.099
758.300	-20.137	0.099
758.400	-18.034	0.099
758.500	-15.236	0.099
758.600	-16.143	0.099
758.700	-12.334	0.099
758.800	-8.959	0.099
758.900	-11.252	0.099
759.000	-17.822	0.099
759.100	-18.064	0.099
759.200	-7.384	0.099
759.300	-14.523	0.099
759.400	-12.762	0.099
759.500	-21.405	0.099
759.600	-9.368	0.099
759.700	-28.447	0.099
759.800	-17.908	0.099
759.900	-12.757	0.099
760.000	-8.548	0.099
760.100	-18.798	0.099
760.200	-20.191	0.099
760.300	-10.512	0.099
760.400	-2.708	0.099
760.500	-22.216	0.099
760.600	-11.635	0.099
760.700	-5.155	0.099
760.800	-14.534	0.099
760.900	-18.759	0.099
761.000	-16.173	0.099
761.100	-14.499	0.099
761.200	-17.601	0.099
761.300	-10.489	0.099
761.400	-10.571	0.099
761.500	-12.115	0.099
761.600	-7.626	0.099
761.700	-6.846	0.099
761.800	-18.288	0.099
761.900	-20.707	0.099
762.000	-16.449	0.099
762.100	-3.147	0.099
762.200	-15.198	0.099
762.300	-20.864	0.099
762.400	-3.752	0.099
762.500	-11.804	0.099
762.600	-21.471	0.099
762.700	-14.604	0.099
762.800	-25.458	0.099
762.900	0.234	0.099
763.000	-24.008	0.099
763.100	-2.552	0.099
763.200	-10.516	0.099
763.300	-25.631	0.099
763.400	-7.784	0.099
763.500	-30.101	0.099
763.600	2.743	0.099
763.700	-18.499	0.099
763.800	-10.359	0.099
763.900	-3.881	0.099
764.000	-13.712	0.099
764.100	-19.942	0.099
764.200	-8.510	0.099
764.300	-22.764	0.099
764.400	-6.184	0.099
764.500	-16.108	0.099
764.600	-21.249	0.099
764.700	-16.419	0.099
764.800	-21.025	0.099
764.900	-4.074	0.099
765.000	-8.617	0.099
765.100	-25.089	0.099
765.200	-9.135	0.099
765.300	-13.818	0.099
765.400	-32.774	0.099
765.500	-3.219	0.099
765.600	-23.925	0.099
765.700	-4.167	0.099
765.800	-10.111	0.099
765.900	-0.521	0.099
766.000	-19.071	0.099
766.100	-12.640	0.099
766.200	-10.920	0.099
766.300	-9.557	0.099
766.400	-12.432	0.099
766.500	-13.354	0.099
766.600	-4.634	0.099
766.700	-22.708	0.099
766.800	-14.565	0.099
766.900	-11.744	0.099
767.000	-17.418	0.099
767.100	-10.353	0.099
767.200	-8.262	0.099
767.300	-18.183	0.099
767.400	-15.619	0.099
767.500	-12.383	0.099
767.600	-28.699	0.099
767.700	-24.517	0.099
767.800	-4.434	0.099
767.900	-9.394	0.099
768.000	-13.521	0.099
768.100	-3.374	0.099
768.200	-12.115	0.099
768.300	-16.184	0.099
768.400	-11.628	0.099
768.500	-10.645	0.099
768.600	-22.468	0.099
768.700	-5.689	0.099
768.800	-12.989	0.099
768.900	-11.454	0.099
769.000	-13.162	0.099
769.100	-9.432	0.099
769.200	-21.071	0.099
769.300	-15.829	0.099
769.400	-21.215	0.099
769.500	-12.670	0.099
769.600	-12.732	0.099
769.700	-21.784	0.099
769.800	6.312	0.099
769.900	3.023	0.099
770.000	-21.936	0.099
770.100	-21.875	0.099
770.200	-23.521	0.099
770.300	-15.759	0.099
770.400	-2.876	0.099
770.500	-20.485	0.099
770.600	-14.111	0.099
770.700	-20.730	0.099
770.800	-2.715	0.099
770.900	-21.340	0.099
771.000	-3.791	0.099
771.100	-20.758	0.099
771.200	2.707	0.099
771.300	-18.324	0.099
771.400	-12.347	0.099
771.500	-11.070	0.099
771.600	-16.851	0.099
771.700	-18.409	0.099
771.800	-11.502	0.099
771.900	-14.935	0.099
772.000	-9.867	0.099
772.100	-13.820	0.099
772.200	-21.748	0.099
772.300	-27.819	0.099
772.400	-12.239	0.099
772.500	-24.599	0.099
772.600	-6.537	0.099
772.700	-19.792	0.099
772.800	-13.158	0.099
772.900	-16.392	0.099
773.000	-8.248	0.099
773.100	-13.846	0.099
773.200	-30.181	0.099
773.300	-5.556	0.099
773.400	-23.313	0.099
773.500	-3.963	0.099
773.600	-17.683	0.099
773.700	-25.923	0.099
773.800	-19.342	0.099
773.900	-5.301	0.099
774.000	-16.643	0.099
774.100	-10.234	0.099
774.200	-17.528	0.099
774.300	-16.458	0.099
774.400	-11.008	0.099
774.500	-9.172	0.099
774.600	-7.464	0.099
774.700	-10.749	0.099
774.800	-13.314	0.099
774.900	-9.697	0.099
775.000	-16.383	0.099
775.100	-12.807	0.099
775.200	-22.330	0.099
775.300	-9.045	0.099
775.400	-31.973	0.099
775.500	-17.754	0.099
775.600	-9.103	0.099
775.700	-7.970	0.099
775.800	-14.708	0.099
775.900	-7.589	0.099
776.000	-17.198	0.099
776.100	-8.966	0.099
776.200	-10.110	0.099
776.300	-25.996	0.099
776.400	-8.716	0.099
776.500	-22.404	0.099
776.600	-1.744	0.099
776.700	5.676	0.099
776.800	-7.937	0.099
776.900	-2.166	0.099
777.000	-8.540	0.099
777.100	-12.837	0.099
777.200	-15.670	0.099
777.300	-10.553	0.099
777.400	-13.552	0.099
777.500	-8.575	0.099
777.600	-3.878	0.099
777.700	-2.341	0.099
777.800	-9.837	0.099
777.900	-19.798	0.099
778.000	-14.475	0.099
778.100	-13.070	0.099
778.200	-11.773	0.099
778.300	-6.504	0.099
778.400	-9.529	0.099
778.500	-11.374	0.099
778.600	-16.983	0.099
778.700	-23.568	0.099
778.800	-9.290	0.099
778.900	-10.822	0.099
779.000	-9.953	0.099
779.100	-18.242	0.099
779.200	-6.816	0.099
779.300	9.986	0.099
779.400	-6.634	0.099
779.500	-20.535	0.099
779.600	1.218	0.099
779.700	-14.762	0.099
779.800	-21.848	0.099
779.900	-12.185	0.099
780.000	-8.938	0.099
780.100	-1.698	0.099
780.200	-5.676	0.099
780.300	-1.927	0.099
780.400	-2.257	0.099
780.500	-6.833	0.099
780.600	2.510	0.099
780.700	-8.082	0.099
780.800	1.343	0.099
780.900	4.230	0.099
781.000	-10.186	0.099
781.100	2.831	0.099
781.200	7.957	0.099
781.300	11.774	0.099
781.400	-3.378	0.099
781.500	15.800	0.099
781.600	4.317	0.099
781.700	11.405	0.099
781.800	25.060	0.099
781.900	9.328	0.099
782.000	-22.106	0.099
782.100	18.618	0.099
782.200	8.802	0.099
782.300	14.586	0.099
782.400	10.116	0.099
782.500	11.061	0.099
782.600	17.293	0.099
782.700	-2.763	0.099
782.800	19.231	0.099
782.900	15.152	0.099
783.000	10.768	0.099
783.100	15.900	0.099
783.200	10.137	0.099
783.300	7.094	0.099
783.400	-1.866	0.099
783.500	14.350	0.099
783.600	13.035	0.099
783.700	24.540	0.099
783.800	10.769	0.099
783.900	10.780	0.099
784.000	-0.683	0.099
784.100	6.677	0.099
784.200	7.337	0.099
784.300	-3.838	0.099
784.400	29.219	0.099
784.500	5.585	0.099
784.600	10.522	0.099
784.700	7.472	0.099
784.800	-5.955	0.099
784.900	20.175	0.099
785.000	15.410	0.099
785.100	1.010	0.099
785.200	7.902	0.099
785.300	17.523	0.099
785.400	2.870	0.099
785.500	22.900	0.099
785.600	19.283	0.099
785.700	6.262	0.099
785.800	-5.415	0.099
785.900	15.875	0.099
786.000	3.683	0.099
786.100	19.396	0.099
786.200	13.590	0.099
786.300	12.844	0.099
786.400	15.823	0.099
786.500	15.137	0.099
786.600	12.139	0.099
786.700	9.241	0.099
786.800	10.217	0.099
786.900	8.954	0.099
787.000	26.522	0.099
787.100	9.498	0.099
787.200	18.831	0.099
787.300	8.854	0.099
787.400	16.710	0.099
787.500	16.203	0.099
787.600	3.722	0.099
787.700	15.897	0.099
787.800	23.341	0.099
787.900	19.132	0.099
788.000	24.035	0.099
788.100	16.735	0.099
788.200	10.299	0.099
788.300	27.697	0.099
788.400	9.114	0.099
788.500	22.712	0.099
788.600	19.060	0.099
788.700	25.332	0.099
788.800	13.680	0.099
788.900	22.092	0.099
789.000	11.894	0.099
789.100	22.954	0.099
789.200	20.316	0.099
789.300	27.517	0.099
789.400	27.573	0.099
789.500	23.173	0.099
789.600	24.886	0.099
789.700	26.121	0.099
789.800	1.973	0.099
789.900	29.106	0.099
790.000	27.973	0.099
790.100	20.164	0.099
790.200	26.613	0.099
790.300	18.323	0.099
790.400	37.576	0.099
790.500	29.638	0.099
790.600	23.925	0.099
790.700	13.226	0.099
790.800	33.111	0.099
790.900	29.667	0.099
791.000	32.136	0.099
791.100	22.476	0.099
791.200	26.679	0.099
791.300	32.710	0.099
791.400	30.339	0.099
791.500	29.124	0.099
791.600	32.263	0.099
791.700	39.255	0.099
791.800	17.414	0.099
791.900	33.754	0.099
792.000	38.331	0.099
792.100	42.104	0.099
792.200	40.549	0.099
792.300	25.796	0.099
792.400	41.813	0.099
792.500	15.500	0.099
792.600	24.297	0.099
792.700	34.983	0.099
792.800	23.369	0.099
792.900	45.642	0.099
793.000	33.790	0.099
793.100	29.511	0.099
793.200	34.650	0.099
793.300	32.518	0.099
793.400	29.530	0.099
793.500	45.994	0.099
793.600	30.188	0.099
793.700	39.345	0.099
793.800	52.590	0.099
793.900	32.972	0.099
794.000	11.800	0.099
794.100	37.459	0.099
794.200	33.332	0.099
794.300	43.327	0.099
794.400	25.366	0.099
794.500	37.953	0.099
794.600	32.097	0.099
794.700	32.984	0.099
794.800	46.203	0.099
794.900	17.803	0.099
795.000	31.404	0.099
795.100	46.547	0.099
795.200	40.551	0.099
795.300	44.370	0.099
795.400	33.344	0.099
795.500	36.402	0.099
795.600	30.773	0.099
795.700	51.889	0.099
795.800	15.948	0.099
795.900	47.129	0.099
796.000	28.239	0.099
796.100	30.063	0.099
796.200	41.085	0.099
796.300	24.978	0.099
796.400	53.979	0.099
796.500	27.701	0.099
796.600	30.159	0.099
796.700	35.173	0.099
796.800	24.330	0.099
796.900	47.968	0.099
797.000	30.331	0.099
797.100	45.722	0.099
797.200	23.164	0.099
797.300	38.098	0.099
797.400	34.202	0.099
797.500	40.450	0.099
797.600	21.356	0.099
797.700	22.890	0.099
797.800	29.817	0.099
797.900	52.599	0.099
798.000	25.260	0.099
798.100	50.813	0.099
798.200	40.992	0.099
798.300	23.204	0.099
798.400	24.099	0.099
798.500	36.334	0.099
798.600	37.611	0.099
798.700	30.216	0.099
798.800	36.463	0.099
798.900	30.162	0.099
799.000	31.719	0.099
799.100	49.507	0.099
799.200	25.449	0.099
799.300	30.544	0.099
799.400	45.388	0.099
799.500	44.915	0.099
799.600	32.513	0.099
799.700	40.177	0.099
799.800	45.332	0.099
799.900	39.599	0.099
800.000	37.220	0.099
