time /s	I /nA	E /V
0.100	-15.636	0.099
0.200	-15.903	0.099
0.300	-1.831	0.099
0.400	-9.792	0.099
0.500	-6.213	0.099
0.600	1.224	0.099
0.700	-3.872	0.099
0.800	-7.826	0.099
0.900	-7.353	0.099
1.000	-9.249	0.099
1.100	-7.323	0.099
1.200	0.081	0.099
1.300	-8.330	0.099
1.400	-0.867	0.099
1.500	-0.830	0.099
1.600	-9.882	0.099
1.700	-7.931	0.099
1.800	-4.203	0.099
1.900	-3.489	0.099
2.000	-6.703	0.099
2.100	-12.543	0.099
2.200	3.075	0.099
2.300	-8.171	0.099
2.400	1.359	0.099
2.500	4.735	0.099
2.600	-12.130	0.099
2.700	-13.470	0.099
2.800	-6.125	0.099
2.900	-5.967	0.099
3.000	-3.692	0.099
3.100	-11.679	0.099
3.200	-9.567	0.099
3.300	-4.500	0.099
3.400	-6.428	0.099
3.500	-3.582	0.099
3.600	-9.671	0.099
3.700	-5.114	0.099
3.800	16.565	0.099
3.900	1.884	0.099
4.000	-8.321	0.099
4.100	1.430	0.099
4.200	-11.720	0.099
4.300	2.660	0.099
4.400	-9.803	0.099
4.500	-9.871	0.100
4.600	-0.497	0.099
4.700	3.549	0.100
4.800	-19.852	0.100
4.900	-8.127	0.100
5.000	-0.840	0.100
5.100	6.228	0.100
5.200	-2.711	0.100
5.300	6.269	0.100
5.400	5.363	0.100
5.500	-3.838	0.100
5.600	-4.492	0.100
5.700	-19.577	0.100
5.800	0.868	0.100
5.900	4.388	0.100
6.000	0.516	0.100
6.100	-14.190	0.100
6.200	-16.090	0.100
6.300	-5.650	0.100
6.400	-2.775	0.100
6.500	-3.867	0.100
6.600	-15.160	0.100
6.700	-20.147	0.100
6.800	2.251	0.100
6.900	-10.155	0.100
7.000	-13.623	0.100
7.100	6.013	0.100
7.200	-0.357	0.100
7.300	0.805	0.100
7.400	-12.193	0.100
7.500	-7.895	0.100
7.600	-14.310	0.100
7.700	11.931	0.100
7.800	5.453	0.100
7.900	-3.597	0.100
8.000	3.434	0.100
8.100	-13.974	0.100
8.200	-5.218	0.100
8.300	-19.300	0.100
8.400	-6.294	0.100
8.500	10.888	0.100
8.600	2.729	0.100
8.700	-9.536	0.100
8.800	-16.125	0.100
8.900	7.248	0.100
9.000	3.285	0.100
9.100	-12.474	0.100
9.200	6.796	0.100
9.300	1.375	0.100
9.400	-7.168	0.100
9.500	1.355	0.100
9.600	-4.602	0.100
9.700	-5.296	0.100
9.800	-7.678	0.100
9.900	9.284	0.100
10.000	-13.017	0.100
10.100	8.435	0.100
10.200	-6.348	0.100
10.300	-11.551	0.100
10.400	-15.072	0.100
10.500	-0.014	0.100
10.600	4.024	0.100
10.700	-14.165	0.100
10.800	-4.822	0.100
10.900	-3.397	0.100
11.000	0.856	0.100
11.100	-19.487	0.100
11.200	13.846	0.100
11.300	7.161	0.100
11.400	-12.099	0.100
11.500	-3.818	0.100
11.600	-8.626	0.100
11.700	-17.136	0.100
11.800	-3.006	0.100
11.900	2.579	0.100
12.000	-3.357	0.100
12.100	2.222	0.100
12.200	-8.559	0.100
12.300	12.541	0.100
12.400	-2.349	0.100
12.500	-10.460	0.100
12.600	0.760	0.100
12.700	-5.625	0.100
12.800	3.336	0.100
12.900	-2.795	0.100
13.000	-12.319	0.100
13.100	-2.048	0.100
13.200	-4.960	0.100
13.300	-12.250	0.100
13.400	11.073	0.100
13.500	2.820	0.100
13.600	-10.663	0.100
13.700	-10.287	0.100
13.800	-12.313	0.100
13.900	6.076	0.100
14.000	-6.190	0.100
14.100	-8.052	0.100
14.200	17.788	0.100
14.300	-5.065	0.100
14.400	-5.433	0.100
14.500	-3.472	0.100
14.600	6.950	0.100
14.700	-7.940	0.100
14.800	-4.846	0.100
14.900	-7.306	0.100
15.000	-4.255	0.100
15.100	-20.193	0.100
15.200	-5.729	0.100
15.300	16.036	0.100
15.400	6.495	0.100
15.500	-12.526	0.100
15.600	-6.600	0.100
15.700	7.132	0.100
15.800	-6.056	0.100
15.900	-9.175	0.100
16.000	-6.176	0.100
16.100	8.583	0.100
16.200	9.537	0.100
16.300	-10.513	0.100
16.400	-5.807	0.100
16.500	-1.233	0.100
16.600	-1.371	0.100
16.700	-17.992	0.100
16.800	6.172	0.100
16.900	-10.123	0.100
17.000	-13.803	0.100
17.100	6.229	0.100
17.200	2.947	0.100
17.300	-14.001	0.100
17.400	10.431	0.100
17.500	-12.320	0.100
17.600	-7.234	0.100
17.700	-12.574	0.100
17.800	1.675	0.100
17.900	-2.848	0.100
18.000	1.278	0.100
18.100	-7.813	0.100
18.200	-12.337	0.100
18.300	3.456	0.100
18.400	-4.954	0.100
18.500	12.312	0.100
18.600	-13.619	0.100
18.700	-7.820	0.100
18.800	-5.078	0.100
18.900	5.808	0.100
19.000	-5.181	0.100
19.100	-13.090	0.100
19.200	-12.531	0.100
19.300	11.054	0.100
19.400	2.397	0.100
19.500	-4.547	0.100
19.600	4.783	0.100
19.700	-6.646	0.100
19.800	-2.229	0.100
19.900	-0.694	0.100
20.000	7.605	0.100
20.100	-5.976	0.100
20.200	-3.324	0.100
20.300	-1.020	0.100
20.400	1.014	0.100
20.500	1.873	0.100
20.600	-4.125	0.100
20.700	-9.927	0.100
20.800	-3.910	0.100
20.900	-0.561	0.100
21.000	-5.199	0.100
21.100	-0.540	0.100
21.200	11.315	0.100
21.300	-8.387	0.100
21.400	2.314	0.100
21.500	-11.248	0.100
21.600	-0.618	0.100
21.700	5.072	0.100
21.800	-9.426	0.100
21.900	-6.097	0.100
22.000	-1.427	0.100
22.100	-1.581	0.100
22.200	0.595	0.100
22.300	-1.151	0.100
22.400	1.228	0.100
22.500	-1.051	0.100
22.600	-9.954	0.100
22.700	-13.470	0.100
22.800	-5.329	0.100
22.900	-0.842	0.100
23.000	1.718	0.100
23.100	-10.545	0.100
23.200	0.440	0.100
23.300	7.101	0.100
23.400	-9.525	0.100
23.500	-4.284	0.100
23.600	0.096	0.100
23.700	-4.961	0.100
23.800	0.982	0.100
23.900	1.569	0.100
24.000	-9.646	0.100
24.100	10.385	0.100
24.200	-1.221	0.100
24.300	4.335	0.100
24.400	-5.473	0.100
24.500	0.297	0.100
24.600	0.321	0.100
24.700	-5.413	0.100
24.800	2.862	0.100
24.900	7.902	0.100
25.000	-16.069	0.100
25.100	1.155	0.100
25.200	-3.194	0.100
25.300	0.776	0.100
25.400	-11.264	0.100
25.500	5.983	0.100
25.600	-4.948	0.100
25.700	-8.189	0.100
25.800	4.482	0.100
25.900	-0.190	0.100
26.000	-2.423	0.100
26.100	1.753	0.100
26.200	1.359	0.100
26.300	0.280	0.100
26.400	-10.768	0.100
26.500	3.461	0.100
26.600	-1.117	0.100
26.700	-3.765	0.100
26.800	1.580	0.100
26.900	-19.794	0.100
27.000	-1.994	0.100
27.100	13.537	0.100
27.200	-5.204	0.100
27.300	-1.746	0.100
27.400	-2.258	0.100
27.500	-1.079	0.100
27.600	0.227	0.100
27.700	0.244	0.100
27.800	2.472	0.100
27.900	1.654	0.100
28.000	-4.220	0.100
28.100	2.356	0.100
28.200	15.280	0.100
28.300	-6.624	0.100
28.400	-13.578	0.100
28.500	-1.792	0.100
28.600	6.617	0.100
28.700	-14.725	0.100
28.800	8.181	0.100
28.900	-9.659	0.100
29.000	3.372	0.100
29.100	-8.772	0.100
29.200	-6.281	0.100
29.300	-10.609	0.100
29.400	10.660	0.100
29.500	-0.210	0.100
29.600	3.471	0.100
29.700	-5.908	0.100
29.800	-4.322	0.100
29.900	0.463	0.100
30.000	1.133	0.100
30.100	-4.291	0.100
30.200	0.618	0.100
30.300	-6.741	0.100
30.400	1.706	0.100
30.500	0.208	0.100
30.600	1.135	0.100
30.700	-0.572	0.100
30.800	13.112	0.100
30.900	3.371	0.100
31.000	-5.799	0.100
31.100	10.607	0.100
31.200	-7.572	0.100
31.300	11.424	0.100
31.400	7.832	0.100
31.500	8.078	0.100
31.600	6.540	0.100
31.700	12.405	0.100
31.800	4.115	0.100
31.900	5.720	0.100
32.000	6.348	0.100
32.100	2.808	0.100
32.200	11.137	0.100
32.300	2.483	0.100
32.400	7.116	0.100
32.500	0.028	0.100
32.600	1.567	0.100
32.700	6.775	0.100
32.800	11.956	0.100
32.900	7.948	0.100
33.000	20.999	0.100
33.100	7.275	0.100
33.200	8.408	0.100
33.300	5.846	0.100
33.400	11.079	0.100
33.500	28.607	0.100
33.600	12.039	0.100
33.700	11.400	0.100
33.800	16.747	0.100
33.900	12.492	0.100
34.000	11.606	0.100
34.100	12.756	0.100
34.200	15.188	0.100
34.300	17.047	0.100
34.400	16.331	0.100
34.500	17.067	0.100
34.600	12.316	0.100
34.700	20.755	0.100
34.800	3.860	0.100
34.900	14.597	0.100
35.000	24.542	0.100
35.100	10.265	0.100
35.200	25.883	0.100
35.300	20.919	0.100
35.400	5.067	0.100
35.500	22.842	0.100
35.600	16.123	0.100
35.700	20.434	0.100
35.800	14.068	0.100
35.900	24.668	0.100
36.000	23.788	0.100
36.100	19.751	0.100
36.200	10.789	0.100
36.300	13.488	0.100
36.400	9.605	0.100
36.500	25.645	0.100
36.600	14.318	0.100
36.700	13.959	0.100
36.800	25.233	0.100
36.900	26.925	0.100
37.000	7.475	0.100
37.100	0.314	0.100
37.200	3.572	0.100
37.300	21.924	0.100
37.400	21.553	0.100
37.500	18.775	0.100
37.600	14.229	0.100
37.700	16.272	0.100
37.800	16.734	0.100
37.900	2.210	0.100
38.000	20.416	0.100
38.100	27.887	0.100
38.200	20.908	0.100
38.300	13.280	0.100
38.400	28.581	0.100
38.500	15.415	0.100
38.600	11.552	0.100
38.700	9.965	0.100
38.800	18.059	0.100
38.900	24.619	0.100
39.000	21.125	0.100
39.100	24.023	0.100
39.200	31.341	0.100
39.300	2.422	0.100
39.400	22.901	0.100
39.500	15.407	0.100
39.600	24.764	0.100
39.700	19.644	0.100
39.800	21.964	0.100
39.900	23.124	0.100
40.000	20.949	0.100
40.100	17.908	0.100
40.200	11.710	0.100
40.300	14.518	0.100
40.400	16.857	0.100
40.500	26.869	0.099
40.600	15.754	0.100
40.700	26.247	0.100
40.800	34.733	0.099
40.900	21.923	0.100
41.000	18.011	0.099
41.100	11.054	0.099
41.200	21.237	0.099
41.300	14.187	0.100
41.400	14.373	0.099
41.500	12.429	0.099
41.600	21.243	0.099
41.700	8.098	0.099
41.800	13.773	0.099
41.900	26.502	0.099
42.000	22.025	0.099
42.100	37.642	0.099
42.200	16.484	0.099
42.300	21.900	0.099
42.400	15.505	0.099
42.500	10.055	0.099
42.600	32.693	0.099
42.700	17.439	0.099
42.800	17.697	0.099
42.900	19.270	0.099
43.000	2.267	0.099
43.100	18.115	0.099
43.200	7.789	0.099
43.300	29.385	0.099
43.400	10.817	0.099
43.500	22.172	0.099
43.600	16.330	0.099
43.700	18.361	0.099
43.800	23.465	0.099
43.900	14.234	0.099
44.000	7.011	0.099
44.100	14.725	0.099
44.200	14.421	0.099
44.300	19.789	0.099
44.400	20.361	0.099
44.500	10.538	0.099
44.600	13.199	0.099
44.700	16.715	0.099
44.800	20.380	0.099
44.900	14.859	0.099
45.000	23.441	0.099
45.100	19.684	0.099
45.200	20.186	0.099
45.300	21.752	0.099
45.400	14.679	0.099
45.500	20.081	0.099
45.600	11.790	0.099
45.700	16.646	0.099
45.800	16.270	0.099
45.900	12.343	0.099
46.000	23.326	0.099
46.100	12.696	0.099
46.200	14.871	0.099
46.300	18.841	0.099
46.400	16.050	0.099
46.500	24.431	0.099
46.600	26.613	0.099
46.700	13.059	0.099
46.800	19.225	0.099
46.900	3.367	0.099
47.000	21.288	0.099
47.100	16.201	0.099
47.200	26.897	0.099
47.300	11.478	0.099
47.400	15.443	0.099
47.500	2.301	0.099
47.600	24.085	0.099
47.700	7.772	0.099
47.800	4.659	0.099
47.900	33.768	0.099
48.000	13.936	0.099
48.100	22.868	0.099
48.200	12.042	0.099
48.300	7.545	0.099
48.400	19.720	0.099
48.500	16.272	0.099
48.600	12.687	0.099
48.700	22.569	0.099
48.800	18.825	0.099
48.900	25.159	0.099
49.000	8.398	0.099
49.100	21.242	0.099
49.200	12.452	0.099
49.300	21.969	0.099
49.400	22.401	0.099
49.500	7.062	0.099
49.600	14.084	0.099
49.700	9.517	0.099
49.800	22.196	0.099
49.900	19.242	0.099
50.000	16.309	0.099
50.100	12.704	0.099
50.200	20.947	0.099
50.300	13.057	0.099
50.400	16.542	0.099
50.500	10.248	0.099
50.600	22.037	0.099
50.700	22.165	0.099
50.800	12.726	0.099
50.900	19.515	0.099
51.000	9.182	0.099
51.100	22.891	0.099
51.200	12.752	0.099
51.300	13.469	0.099
51.400	28.196	0.099
51.500	12.934	0.099
51.600	16.105	0.099
51.700	15.355	0.099
51.800	30.961	0.099
51.900	6.516	0.099
52.000	4.512	0.099
52.100	36.737	0.099
52.200	7.233	0.099
52.300	26.120	0.099
52.400	23.397	0.099
52.500	21.490	0.099
52.600	5.972	0.099
52.700	21.928	0.099
52.800	26.801	0.099
52.900	18.337	0.099
53.000	14.304	0.099
53.100	12.187	0.099
53.200	17.609	0.099
53.300	24.046	0.099
53.400	10.312	0.099
53.500	20.774	0.099
53.600	16.451	0.099
53.700	22.328	0.099
53.800	17.263	0.099
53.900	27.427	0.099
54.000	29.067	0.099
54.100	16.366	0.099
54.200	18.568	0.099
54.300	19.798	0.099
54.400	14.098	0.099
54.500	2.786	0.099
54.600	16.906	0.099
54.700	19.301	0.099
54.800	0.715	0.099
54.900	18.829	0.099
55.000	22.931	0.099
55.100	9.343	0.099
55.200	40.276	0.099
55.300	8.543	0.099
55.400	9.461	0.099
55.500	21.708	0.099
55.600	21.863	0.099
55.700	15.647	0.099
55.800	19.779	0.099
55.900	15.788	0.099
56.000	14.796	0.099
56.100	21.119	0.099
56.200	28.333	0.099
56.300	19.305	0.099
56.400	17.927	0.099
56.500	9.199	0.099
56.600	17.721	0.099
56.700	18.144	0.099
56.800	18.565	0.099
56.900	23.632	0.099
57.000	22.308	0.099
57.100	18.381	0.099
57.200	27.438	0.099
57.300	30.471	0.099
57.400	25.656	0.099
57.500	14.423	0.099
57.600	9.768	0.099
57.700	38.211	0.099
57.800	6.844	0.099
57.900	15.737	0.099
58.000	18.490	0.099
58.100	33.724	0.099
58.200	22.786	0.099
58.300	10.279	0.099
58.400	20.600	0.099
58.500	8.012	0.099
58.600	33.474	0.099
58.700	21.828	0.099
58.800	18.031	0.099
58.900	20.729	0.099
59.000	18.800	0.099
59.100	29.944	0.099
59.200	24.865	0.099
59.300	12.890	0.099
59.400	29.737	0.099
59.500	16.681	0.099
59.600	17.472	0.099
59.700	18.139	0.099
59.800	35.113	0.099
59.900	17.442	0.099
60.000	29.319	0.099
60.100	5.596	0.099
60.200	24.044	0.099
60.300	13.667	0.099
60.400	27.421	0.099
60.500	12.818	0.099
60.600	17.385	0.099
60.700	27.865	0.099
60.800	17.091	0.099
60.900	16.375	0.099
61.000	21.636	0.099
61.100	32.438	0.099
61.200	23.764	0.099
61.300	21.125	0.099
61.400	24.778	0.099
61.500	21.873	0.099
61.600	17.632	0.099
61.700	1.785	0.099
61.800	28.828	0.099
61.900	33.794	0.099
62.000	20.252	0.099
62.100	25.115	0.099
62.200	12.534	0.099
62.300	17.788	0.099
62.400	24.044	0.099
62.500	17.302	0.099
62.600	27.923	0.099
62.700	8.860	0.099
62.800	28.528	0.099
62.900	9.290	0.099
63.000	27.431	0.099
63.100	26.679	0.099
63.200	23.008	0.099
63.300	26.362	0.099
63.400	10.380	0.099
63.500	26.334	0.099
63.600	7.987	0.100
63.700	29.321	0.100
63.800	37.169	0.099
63.900	23.458	0.099
64.000	12.163	0.099
64.100	20.924	0.099
64.200	25.542	0.100
64.300	32.911	0.099
64.400	14.272	0.099
64.500	22.104	0.099
64.600	26.490	0.099
64.700	30.193	0.099
64.800	28.976	0.099
64.900	15.972	0.099
65.000	20.126	0.099
65.100	15.426	0.099
65.200	25.454	0.099
65.300	32.394	0.099
65.400	21.591	0.099
65.500	33.927	0.099
65.600	13.774	0.099
65.700	20.898	0.099
65.800	23.730	0.099
65.900	27.436	0.099
66.000	23.485	0.099
66.100	22.038	0.099
66.200	17.414	0.099
66.300	17.368	0.099
66.400	12.488	0.099
66.500	22.380	0.099
66.600	21.996	0.099
66.700	33.098	0.099
66.800	12.164	0.099
66.900	31.741	0.099
67.000	24.802	0.099
67.100	19.596	0.099
67.200	12.168	0.099
67.300	29.957	0.099
67.400	22.498	0.099
67.500	15.545	0.099
67.600	24.301	0.099
67.700	17.961	0.099
67.800	31.246	0.099
67.900	27.791	0.099
68.000	19.320	0.099
68.100	25.888	0.099
68.200	23.322	0.099
68.300	27.588	0.099
68.400	25.273	0.099
68.500	25.255	0.099
68.600	7.430	0.099
68.700	14.989	0.099
68.800	28.766	0.099
68.900	23.187	0.099
69.000	21.589	0.099
69.100	20.824	0.099
69.200	28.754	0.099
69.300	23.766	0.099
69.400	19.369	0.099
69.500	25.537	0.099
69.600	27.755	0.099
69.700	30.382	0.099
69.800	25.066	0.099
69.900	13.938	0.099
70.000	31.818	0.099
70.100	33.723	0.099
70.200	28.127	0.099
70.300	9.197	0.099
70.400	15.903	0.099
70.500	29.569	0.099
70.600	41.874	0.099
70.700	26.406	0.099
70.800	17.163	0.099
70.900	21.899	0.099
71.000	32.892	0.099
71.100	22.409	0.099
71.200	22.502	0.099
71.300	21.774	0.099
71.400	15.385	0.099
71.500	19.302	0.099
71.600	26.438	0.099
71.700	22.570	0.099
71.800	17.146	0.099
71.900	30.613	0.099
72.000	23.014	0.099
72.100	17.138	0.099
72.200	33.536	0.099
72.300	17.805	0.099
72.400	28.509	0.099
72.500	19.093	0.099
72.600	23.364	0.099
72.700	25.695	0.099
72.800	27.663	0.099
72.900	25.317	0.099
73.000	32.044	0.099
73.100	18.881	0.099
73.200	20.786	0.099
73.300	28.731	0.099
73.400	22.940	0.099
73.500	24.657	0.099
73.600	16.204	0.099
73.700	14.949	0.099
73.800	21.296	0.099
73.900	31.935	0.099
74.000	17.244	0.099
74.100	32.507	0.099
74.200	32.326	0.099
74.300	25.166	0.099
74.400	19.537	0.099
74.500	25.097	0.099
74.600	23.431	0.099
74.700	28.587	0.099
74.800	11.798	0.099
74.900	22.310	0.099
75.000	30.132	0.099
75.100	32.134	0.099
75.200	26.223	0.099
75.300	34.308	0.099
75.400	26.859	0.099
75.500	19.772	0.099
75.600	32.515	0.099
75.700	23.382	0.099
75.800	12.118	0.099
75.900	27.610	0.099
76.000	29.410	0.099
76.100	24.698	0.099
76.200	21.381	0.099
76.300	28.966	0.099
76.400	21.532	0.099
76.500	29.032	0.099
76.600	22.155	0.099
76.700	24.561	0.099
76.800	27.220	0.099
76.900	29.895	0.099
77.000	38.966	0.099
77.100	38.346	0.099
77.200	13.461	0.099
77.300	42.697	0.099
77.400	34.270	0.099
77.500	22.326	0.099
77.600	17.695	0.099
77.700	27.613	0.099
77.800	23.331	0.099
77.900	32.192	0.099
78.000	29.034	0.099
78.100	29.318	0.099
78.200	22.724	0.099
78.300	29.731	0.099
78.400	17.188	0.099
78.500	37.372	0.099
78.600	45.914	0.099
78.700	38.632	0.099
78.800	20.190	0.099
78.900	24.755	0.099
79.000	19.955	0.099
79.100	17.110	0.099
79.200	34.930	0.099
79.300	15.244	0.099
79.400	30.682	0.099
79.500	18.048	0.099
79.600	24.067	0.099
79.700	27.364	0.099
79.800	34.880	0.099
79.900	38.491	0.099
80.000	12.370	0.099
80.100	23.477	0.099
80.200	19.228	0.099
80.300	24.252	0.099
80.400	32.902	0.099
80.500	34.061	0.099
80.600	18.835	0.099
80.700	31.118	0.099
80.800	24.482	0.099
80.900	25.308	0.099
81.000	20.273	0.099
81.100	22.098	0.099
81.200	28.692	0.099
81.300	23.956	0.099
81.400	30.036	0.099
81.500	35.459	0.099
81.600	22.931	0.099
81.700	26.210	0.099
81.800	22.275	0.099
81.900	21.133	0.099
82.000	26.240	0.099
82.100	29.842	0.099
82.200	18.388	0.099
82.300	28.878	0.099
82.400	28.993	0.099
82.500	28.573	0.099
82.600	9.882	0.099
82.700	39.172	0.099
82.800	23.900	0.099
82.900	24.523	0.099
83.000	25.400	0.099
83.100	19.814	0.099
83.200	26.723	0.099
83.300	37.058	0.099
83.400	32.393	0.099
83.500	24.414	0.099
83.600	23.318	0.099
83.700	25.696	0.099
83.800	22.081	0.099
83.900	5.013	0.099
84.000	35.511	0.099
84.100	29.740	0.099
84.200	28.015	0.099
84.300	21.820	0.099
84.400	24.454	0.099
84.500	31.256	0.099
84.600	20.408	0.099
84.700	43.138	0.099
84.800	21.972	0.099
84.900	35.669	0.099
85.000	32.034	0.099
85.100	21.598	0.099
85.200	20.087	0.099
85.300	27.291	0.099
85.400	32.774	0.099
85.500	27.257	0.099
85.600	37.074	0.099
85.700	34.626	0.099
85.800	30.608	0.099
85.900	24.657	0.099
86.000	28.829	0.099
86.100	17.912	0.099
86.200	27.565	0.099
86.300	33.609	0.099
86.400	25.251	0.099
86.500	24.596	0.099
86.600	27.712	0.099
86.700	26.970	0.099
86.800	28.332	0.099
86.900	33.734	0.099
87.000	11.185	0.099
87.100	33.191	0.099
87.200	33.099	0.099
87.300	27.074	0.099
87.400	24.192	0.099
87.500	28.708	0.099
87.600	41.164	0.099
87.700	33.187	0.099
87.800	23.511	0.099
87.900	32.516	0.099
88.000	40.558	0.099
88.100	27.089	0.099
88.200	28.995	0.099
88.300	29.937	0.099
88.400	34.024	0.099
88.500	16.432	0.099
88.600	29.441	0.099
88.700	20.104	0.099
88.800	22.504	0.099
88.900	25.797	0.099
89.000	31.337	0.099
89.100	30.450	0.099
89.200	30.872	0.099
89.300	26.360	0.099
89.400	31.826	0.099
89.500	24.812	0.099
89.600	26.558	0.099
89.700	30.495	0.099
89.800	17.246	0.099
89.900	34.686	0.099
90.000	32.783	0.099
90.100	30.268	0.099
90.200	25.339	0.099
90.300	24.840	0.099
90.400	32.311	0.099
90.500	26.642	0.099
90.600	23.858	0.099
90.700	22.267	0.099
90.800	30.013	0.099
90.900	26.684	0.099
91.000	20.438	0.099
91.100	24.311	0.099
91.200	12.004	0.099
91.300	22.186	0.099
91.400	28.428	0.099
91.500	12.731	0.099
91.600	13.245	0.099
91.700	26.570	0.099
91.800	11.712	0.099
91.900	14.956	0.099
92.000	21.932	0.099
92.100	18.392	0.099
92.200	21.333	0.099
92.300	17.050	0.099
92.400	0.113	0.099
92.500	14.295	0.099
92.600	9.126	0.099
92.700	14.648	0.099
92.800	17.154	0.099
92.900	3.897	0.099
93.000	23.417	0.099
93.100	-2.462	0.099
93.200	14.624	0.099
93.300	2.663	0.099
93.400	12.309	0.099
93.500	-0.189	0.099
93.600	18.527	0.099
93.700	2.728	0.099
93.800	12.194	0.099
93.900	6.749	0.099
94.000	-6.054	0.099
94.100	12.286	0.099
94.200	24.321	0.099
94.300	4.120	0.099
94.400	3.463	0.099
94.500	-1.842	0.099
94.600	9.459	0.099
94.700	-14.648	0.099
94.800	-1.863	0.099
94.900	13.771	0.099
95.000	3.915	0.099
95.100	-0.160	0.099
95.200	11.750	0.099
95.300	-3.900	0.099
95.400	12.388	0.099
95.500	-13.868	0.099
95.600	7.866	0.099
95.700	15.739	0.099
95.800	11.562	0.099
95.900	-6.832	0.099
96.000	8.363	0.099
96.100	11.378	0.099
96.200	2.701	0.099
96.300	2.458	0.099
96.400	4.735	0.099
96.500	15.786	0.099
96.600	-3.196	0.099
96.700	6.574	0.099
96.800	5.208	0.099
96.900	3.958	0.099
97.000	6.118	0.099
97.100	-0.273	0.099
97.200	-1.548	0.099
97.300	-6.138	0.099
97.400	-2.434	0.099
97.500	1.770	0.099
97.600	2.558	0.099
97.700	4.508	0.099
97.800	7.776	0.099
97.900	5.208	0.099
98.000	-0.977	0.099
98.100	-4.750	0.099
98.200	2.237	0.099
98.300	-0.740	0.099
98.400	4.654	0.099
98.500	14.239	0.099
98.600	-5.474	0.099
98.700	5.434	0.099
98.800	-3.305	0.099
98.900	0.210	0.099
99.000	7.578	0.099
99.100	0.027	0.099
99.200	0.036	0.099
99.300	-15.295	0.099
99.400	-2.591	0.099
99.500	9.453	0.099
99.600	3.521	0.099
99.700	-0.530	0.099
99.800	-7.887	0.099
99.900	-3.809	0.099
100.000	2.244	0.099
100.100	-2.776	0.099
100.200	-1.897	0.099
100.300	0.544	0.099
100.400	0.118	0.099
100.500	-13.381	0.099
100.600	-9.992	0.099
100.700	6.996	0.099
100.800	5.740	0.099
100.900	-7.866	0.099
101.000	3.151	0.099
101.100	12.498	0.099
101.200	-9.627	0.099
101.300	-3.387	0.099
101.400	-5.778	0.099
101.500	-0.142	0.099
101.600	-0.579	0.099
101.700	2.055	0.099
101.800	-0.614	0.099
101.900	-2.635	0.099
102.000	2.422	0.099
102.100	-5.308	0.099
102.200	-5.498	0.099
102.300	-2.169	0.099
102.400	-4.968	0.099
102.500	-6.632	0.099
102.600	2.853	0.099
102.700	-3.599	0.099
102.800	-2.832	0.099
102.900	11.242	0.099
103.000	-11.670	0.099
103.100	-2.196	0.099
103.200	-8.595	0.099
103.300	-4.330	0.099
103.400	-4.103	0.099
103.500	-7.802	0.099
103.600	-22.762	0.099
103.700	2.858	0.099
103.800	-4.210	0.099
103.900	8.336	0.099
104.000	2.255	0.099
104.100	-5.474	0.099
104.200	-3.449	0.099
104.300	-9.287	0.099
104.400	-0.685	0.099
104.500	2.546	0.099
104.600	-17.656	0.099
104.700	-34.058	0.099
104.800	-6.182	0.099
104.900	-7.145	0.099
105.000	-1.272	0.099
105.100	11.844	0.099
105.200	-10.673	0.099
105.300	-6.532	0.099
105.400	3.613	0.099
105.500	-5.990	0.099
105.600	-6.400	0.099
105.700	1.641	0.099
105.800	-7.160	0.099
105.900	-9.474	0.099
106.000	-6.313	0.099
106.100	-10.128	0.099
106.200	-11.554	0.099
106.300	-2.526	0.099
106.400	-4.175	0.099
106.500	-1.432	0.099
106.600	-17.643	0.099
106.700	0.769	0.099
106.800	-13.576	0.099
106.900	-4.950	0.099
107.000	-1.810	0.099
107.100	1.329	0.099
107.200	-13.340	0.099
107.300	-4.213	0.099
107.400	-13.506	0.099
107.500	-2.364	0.099
107.600	-6.848	0.099
107.700	1.316	0.099
107.800	-12.251	0.099
107.900	0.031	0.099
108.000	-6.301	0.099
108.100	1.555	0.099
108.200	-12.136	0.099
108.300	-2.020	0.099
108.400	-15.308	0.099
108.500	3.480	0.099
108.600	-13.338	0.099
108.700	-4.874	0.099
108.800	1.299	0.099
108.900	-14.613	0.099
109.000	-14.837	0.099
109.100	-4.421	0.099
109.200	-7.240	0.099
109.300	-9.170	0.099
109.400	-3.384	0.099
109.500	-18.529	0.099
109.600	-6.043	0.099
109.700	6.246	0.099
109.800	-14.477	0.099
109.900	-13.373	0.099
110.000	-1.191	0.099
110.100	-2.752	0.099
110.200	-8.340	0.099
110.300	-16.636	0.099
110.400	-3.575	0.099
110.500	-7.342	0.099
110.600	-18.944	0.099
110.700	-8.791	0.099
110.800	-6.798	0.099
110.900	2.892	0.099
111.000	-6.045	0.099
111.100	-2.277	0.099
111.200	-8.886	0.099
111.300	-12.842	0.099
111.400	-0.960	0.099
111.500	-7.842	0.099
111.600	-0.601	0.099
111.700	-4.891	0.099
111.800	-22.179	0.099
111.900	-7.408	0.099
112.000	8.115	0.099
112.100	-7.331	0.099
112.200	4.837	0.099
112.300	-11.919	0.099
112.400	4.485	0.099
112.500	-11.829	0.099
112.600	-28.798	0.099
112.700	1.360	0.099
112.800	-13.126	0.099
112.900	-13.119	0.099
113.000	-5.743	0.099
113.100	-8.245	0.099
113.200	-6.724	0.099
113.300	-13.098	0.099
113.400	-35.223	0.099
113.500	-4.673	0.099
113.600	-7.298	0.099
113.700	-9.242	0.099
113.800	-14.105	0.099
113.900	1.703	0.099
114.000	-2.284	0.099
114.100	-6.022	0.099
114.200	-2.067	0.099
114.300	-6.547	0.099
114.400	-6.697	0.099
114.500	-17.351	0.099
114.600	-10.413	0.099
114.700	-4.961	0.099
114.800	-6.470	0.099
114.900	-5.511	0.099
115.000	-7.830	0.099
115.100	0.669	0.099
115.200	0.416	0.099
115.300	-5.841	0.099
115.400	-16.882	0.099
115.500	-10.621	0.099
115.600	-2.193	0.099
115.700	-1.810	0.099
115.800	-23.550	0.099
115.900	-1.220	0.099
116.000	-10.558	0.099
116.100	-9.579	0.099
116.200	-13.525	0.099
116.300	-14.214	0.099
116.400	-7.449	0.099
116.500	-6.549	0.099
116.600	-4.971	0.099
116.700	-3.212	0.099
116.800	-6.327	0.099
116.900	-14.204	0.099
117.000	-8.134	0.099
117.100	-18.377	0.099
117.200	-4.447	0.099
117.300	-10.322	0.099
117.400	-5.990	0.099
117.500	-10.777	0.099
117.600	-22.414	0.099
117.700	8.907	0.099
117.800	-13.704	0.099
117.900	-5.517	0.099
118.000	-7.697	0.099
118.100	-9.532	0.099
118.200	-7.154	0.099
118.300	-8.703	0.099
118.400	-4.893	0.099
118.500	-6.770	0.099
118.600	4.891	0.099
118.700	-9.449	0.099
118.800	-2.273	0.099
118.900	-13.671	0.099
119.000	-0.684	0.099
119.100	-19.858	0.099
119.200	-10.894	0.099
119.300	-9.820	0.099
119.400	-10.427	0.099
119.500	-9.322	0.099
119.600	-4.335	0.099
119.700	1.307	0.099
119.800	-1.543	0.099
119.900	-15.673	0.099
120.000	7.238	0.099
120.100	-11.133	0.099
120.200	-4.578	0.099
120.300	-20.250	0.099
120.400	-14.127	0.099
120.500	-8.677	0.099
120.600	-15.380	0.099
120.700	-3.716	0.099
120.800	-7.609	0.099
120.900	-0.401	0.099
121.000	-6.554	0.099
121.100	-17.215	0.099
121.200	6.309	0.099
121.300	-11.558	0.099
121.400	-2.170	0.099
121.500	-13.109	0.099
121.600	-6.056	0.099
121.700	-9.144	0.099
121.800	-15.803	0.099
121.900	-1.589	0.099
122.000	-14.762	0.099
122.100	-1.119	0.099
122.200	-10.029	0.099
122.300	-0.005	0.099
122.400	-8.641	0.099
122.500	-16.537	0.099
122.600	-3.697	0.099
122.700	-7.576	0.099
122.800	-2.246	0.099
122.900	-12.191	0.099
123.000	-9.273	0.099
123.100	-6.086	0.099
123.200	-3.219	0.099
123.300	3.700	0.099
123.400	-5.795	0.099
123.500	-5.641	0.099
123.600	-4.207	0.099
123.700	-9.167	0.099
123.800	-0.914	0.099
123.900	-2.804	0.099
124.000	-4.471	0.099
124.100	0.583	0.099
124.200	-7.934	0.099
124.300	-0.673	0.099
124.400	-16.394	0.099
124.500	-7.527	0.099
124.600	4.110	0.099
124.700	-20.539	0.099
124.800	-8.908	0.099
124.900	-1.233	0.099
125.000	-15.812	0.099
125.100	-8.675	0.099
125.200	-1.806	0.099
125.300	6.885	0.099
125.400	-2.926	0.099
125.500	-2.108	0.099
125.600	-5.495	0.099
125.700	-18.670	0.099
125.800	1.116	0.099
125.900	2.511	0.099
126.000	-11.256	0.099
126.100	-13.465	0.099
126.200	2.104	0.099
126.300	-3.632	0.099
126.400	-11.150	0.099
126.500	-20.223	0.099
126.600	-9.273	0.099
126.700	1.180	0.099
126.800	9.881	0.099
126.900	-26.563	0.099
127.000	-8.221	0.099
127.100	3.157	0.099
127.200	-2.285	0.099
127.300	-12.829	0.099
127.400	-6.155	0.099
127.500	-9.571	0.099
127.600	-2.157	0.099
127.700	2.608	0.099
127.800	1.158	0.099
127.900	-11.888	0.099
128.000	-2.411	0.099
128.100	-7.275	0.099
128.200	5.560	0.099
128.300	-15.234	0.099
128.400	-7.926	0.099
128.500	-2.357	0.099
128.600	-2.587	0.099
128.700	-5.514	0.099
128.800	-12.779	0.099
128.900	-9.078	0.099
129.000	-15.451	0.099
129.100	2.408	0.099
129.200	-11.494	0.099
129.300	2.328	0.099
129.400	-22.437	0.099
129.500	-2.211	0.099
129.600	11.148	0.099
129.700	-8.762	0.099
129.800	-17.102	0.099
129.900	-0.514	0.099
130.000	-7.637	0.099
130.100	9.554	0.099
130.200	-2.891	0.099
130.300	-2.852	0.099
130.400	-7.620	0.099
130.500	-4.541	0.099
130.600	-6.711	0.099
130.700	-8.878	0.099
130.800	-5.808	0.099
130.900	-5.751	0.099
131.000	1.426	0.099
131.100	-3.265	0.099
131.200	-1.300	0.099
131.300	-15.750	0.099
131.400	7.387	0.099
131.500	-11.943	0.099
131.600	-4.500	0.099
131.700	-5.698	0.099
131.800	-31.252	0.099
131.900	9.449	0.099
132.000	-18.301	0.099
132.100	-2.935	0.099
132.200	0.109	0.099
132.300	-8.091	0.099
132.400	-10.492	0.099
132.500	2.556	0.099
132.600	-14.025	0.099
132.700	15.254	0.099
132.800	-21.182	0.099
132.900	-6.282	0.099
133.000	-14.518	0.099
133.100	-8.107	0.099
133.200	-6.021	0.099
133.300	0.864	0.099
133.400	-8.152	0.099
133.500	-0.086	0.099
133.600	-4.426	0.099
133.700	-6.736	0.099
133.800	3.827	0.099
133.900	6.233	0.099
134.000	-2.979	0.099
134.100	-11.105	0.099
134.200	4.235	0.099
134.300	-7.557	0.099
134.400	-2.915	0.099
134.500	-5.508	0.099
134.600	-1.634	0.099
134.700	-7.697	0.099
134.800	-7.950	0.099
134.900	-10.149	0.099
135.000	-19.547	0.099
135.100	-1.369	0.099
135.200	1.746	0.099
135.300	2.286	0.099
135.400	-9.838	0.099
135.500	-5.508	0.099
135.600	-5.262	0.099
135.700	4.153	0.099
135.800	-6.078	0.099
135.900	-28.798	0.099
136.000	-0.360	0.099
136.100	-8.089	0.099
136.200	22.427	0.099
136.300	-18.515	0.099
136.400	-12.611	0.099
136.500	-4.294	0.099
136.600	-8.536	0.099
136.700	-1.556	0.099
136.800	1.287	0.099
136.900	-8.207	0.099
137.000	-6.621	0.099
137.100	0.139	0.099
137.200	-2.623	0.099
137.300	-19.112	0.099
137.400	-19.162	0.099
137.500	0.357	0.099
137.600	3.923	0.099
137.700	5.705	0.099
137.800	-5.577	0.099
137.900	-12.009	0.099
138.000	-12.241	0.099
138.100	0.953	0.099
138.200	-8.043	0.099
138.300	-4.784	0.099
138.400	-18.251	0.099
138.500	-1.600	0.099
138.600	2.783	0.099
138.700	-10.662	0.099
138.800	-6.508	0.099
138.900	2.342	0.099
139.000	-5.717	0.099
139.100	-15.055	0.099
139.200	-5.895	0.099
139.300	1.148	0.099
139.400	-1.189	0.099
139.500	0.198	0.099
139.600	-11.565	0.099
139.700	-5.898	0.099
139.800	-5.172	0.099
139.900	-8.977	0.099
140.000	2.895	0.099
140.100	-7.091	0.099
140.200	-9.821	0.099
140.300	-12.404	0.099
140.400	-1.673	0.099
140.500	-3.726	0.099
140.600	-3.821	0.099
140.700	-4.359	0.099
140.800	-1.738	0.099
140.900	2.046	0.099
141.000	-2.242	0.099
141.100	0.024	0.099
141.200	1.862	0.099
141.300	-11.750	0.099
141.400	-24.274	0.099
141.500	2.915	0.099
141.600	-22.185	0.099
141.700	-4.630	0.099
141.800	-7.640	0.099
141.900	5.619	0.099
142.000	-33.457	0.099
142.100	-0.362	0.099
142.200	12.687	0.099
142.300	-4.160	0.099
142.400	-13.482	0.099
142.500	-5.374	0.099
142.600	1.420	0.099
142.700	0.763	0.099
142.800	-12.048	0.099
142.900	-2.880	0.099
143.000	5.830	0.099
143.100	-7.289	0.099
143.200	-0.263	0.099
143.300	-11.473	0.099
143.400	-2.359	0.099
143.500	-0.232	0.099
143.600	-12.344	0.099
143.700	-10.670	0.099
143.800	-11.550	0.099
143.900	-4.296	0.099
144.000	6.702	0.099
144.100	5.381	0.099
144.200	0.675	0.099
144.300	-2.403	0.099
144.400	-15.443	0.099
144.500	4.770	0.099
144.600	-10.599	0.099
144.700	-6.779	0.099
144.800	0.917	0.099
144.900	-3.809	0.099
145.000	5.090	0.099
145.100	4.498	0.099
145.200	-7.170	0.099
145.300	12.691	0.099
145.400	-20.210	0.099
145.500	1.974	0.099
145.600	-2.353	0.099
145.700	-5.428	0.099
145.800	1.505	0.099
145.900	-7.373	0.099
146.000	-7.870	0.099
146.100	-10.538	0.099
146.200	-20.118	0.099
146.300	-2.217	0.099
146.400	-1.041	0.099
146.500	-15.439	0.099
146.600	-9.868	0.099
146.700	-12.974	0.099
146.800	6.499	0.099
146.900	5.726	0.099
147.000	-10.525	0.099
147.100	0.062	0.099
147.200	-3.089	0.099
147.300	-2.682	0.099
147.400	-6.805	0.099
147.500	2.673	0.099
147.600	2.199	0.099
147.700	-14.200	0.099
147.800	0.945	0.099
147.900	-0.492	0.099
148.000	-2.203	0.099
148.100	-1.069	0.099
148.200	1.700	0.099
148.300	0.207	0.100
148.400	-21.274	0.099
148.500	-12.333	0.099
148.600	5.640	0.099
148.700	7.422	0.099
148.800	-6.987	0.099
148.900	-9.360	0.099
149.000	-1.828	0.099
149.100	6.652	0.099
149.200	-0.380	0.099
149.300	-9.748	0.099
149.400	5.533	0.099
149.500	3.061	0.099
149.600	0.128	0.099
149.700	-9.264	0.099
149.800	7.066	0.099
149.900	-2.234	0.099
150.000	1.517	0.099
150.100	2.962	0.099
150.200	-5.766	0.099
150.300	-2.313	0.099
150.400	-2.900	0.099
150.500	-1.437	0.099
150.600	-3.760	0.099
150.700	7.058	0.099
150.800	-11.932	0.099
150.900	-5.426	0.099
151.000	-3.048	0.099
151.100	-18.716	0.099
151.200	-12.961	0.099
151.300	14.506	0.099
151.400	-2.131	0.099
151.500	-9.316	0.099
151.600	-10.340	0.099
151.700	-8.476	0.099
151.800	3.779	0.099
151.900	-0.116	0.099
152.000	-9.451	0.099
152.100	2.364	0.099
152.200	6.484	0.099
152.300	3.419	0.099
152.400	-6.003	0.099
152.500	2.039	0.099
152.600	-6.449	0.099
152.700	-10.245	0.099
152.800	-0.943	0.099
152.900	-1.305	0.099
153.000	-13.283	0.099
153.100	-7.612	0.099
153.200	-0.967	0.099
153.300	1.774	0.099
153.400	0.863	0.099
153.500	-5.174	0.099
153.600	-10.107	0.099
153.700	-5.626	0.099
153.800	-7.532	0.099
153.900	2.496	0.099
154.000	-1.074	0.099
154.100	-3.302	0.099
154.200	11.355	0.099
154.300	1.004	0.099
154.400	4.548	0.099
154.500	-0.829	0.099
154.600	-7.141	0.099
154.700	9.127	0.099
154.800	-12.519	0.099
154.900	5.852	0.099
155.000	-2.774	0.099
155.100	-1.763	0.099
155.200	1.680	0.099
155.300	0.309	0.099
155.400	2.876	0.099
155.500	4.574	0.099
155.600	-15.366	0.099
155.700	-5.020	0.099
155.800	4.717	0.099
155.900	-6.483	0.099
156.000	5.352	0.099
156.100	-1.472	0.099
156.200	-3.230	0.099
156.300	-14.884	0.099
156.400	3.813	0.099
156.500	-3.182	0.099
156.600	-1.351	0.099
156.700	-2.570	0.099
156.800	-0.212	0.099
156.900	0.454	0.099
157.000	1.670	0.099
157.100	-8.485	0.099
157.200	-6.909	0.099
157.300	-2.808	0.099
157.400	-5.467	0.099
157.500	-7.940	0.099
157.600	-1.486	0.099
157.700	7.848	0.099
157.800	5.820	0.099
157.900	-18.264	0.099
158.000	1.245	0.099
158.100	6.525	0.099
158.200	-2.460	0.099
158.300	-15.225	0.099
158.400	6.419	0.099
158.500	-2.583	0.099
158.600	6.076	0.099
158.700	0.591	0.099
158.800	2.634	0.099
158.900	-7.540	0.099
159.000	4.353	0.099
159.100	-8.361	0.099
159.200	-5.613	0.099
159.300	4.398	0.099
159.400	-8.719	0.099
159.500	7.121	0.099
159.600	0.727	0.099
159.700	1.290	0.099
159.800	-6.265	0.099
159.900	-0.692	0.099
160.000	2.575	0.099
160.100	-11.726	0.099
160.200	13.367	0.099
160.300	-19.783	0.099
160.400	-0.917	0.099
160.500	-0.392	0.099
160.600	5.061	0.099
160.700	-7.891	0.099
160.800	-16.585	0.099
160.900	4.896	0.099
161.000	5.731	0.099
161.100	-8.299	0.099
161.200	-1.080	0.099
161.300	-6.157	0.099
161.400	2.036	0.099
161.500	1.345	0.099
161.600	-1.086	0.099
161.700	-3.714	0.099
161.800	-9.429	0.099
161.900	3.910	0.099
162.000	5.816	0.099
162.100	7.513	0.099
162.200	-11.540	0.099
162.300	11.134	0.099
162.400	-5.246	0.099
162.500	-6.045	0.099
162.600	6.145	0.099
162.700	-4.432	0.099
162.800	-6.900	0.099
162.900	2.897	0.099
163.000	-2.586	0.099
163.100	-3.981	0.099
163.200	2.377	0.099
163.300	1.737	0.099
163.400	2.681	0.099
163.500	-1.881	0.099
163.600	-10.595	0.099
163.700	4.090	0.099
163.800	-15.480	0.099
163.900	-9.338	0.099
164.000	4.876	0.099
164.100	6.526	0.099
164.200	-1.061	0.099
164.300	9.305	0.099
164.400	-1.810	0.099
164.500	-15.934	0.099
164.600	10.894	0.099
164.700	-0.876	0.099
164.800	-7.695	0.099
164.900	-14.215	0.099
165.000	-6.604	0.099
165.100	1.874	0.099
165.200	8.274	0.099
165.300	7.224	0.099
165.400	-26.092	0.099
165.500	-5.773	0.099
165.600	5.081	0.099
165.700	-3.552	0.099
165.800	-12.371	0.099
165.900	-9.458	0.099
166.000	-2.633	0.099
166.100	-12.407	0.099
166.200	-16.561	0.099
166.300	-0.588	0.099
166.400	3.511	0.099
166.500	0.619	0.099
166.600	15.012	0.099
166.700	-6.167	0.099
166.800	1.094	0.099
166.900	-6.048	0.099
167.000	-1.826	0.099
167.100	0.996	0.099
167.200	1.726	0.099
167.300	-0.240	0.099
167.400	-13.502	0.099
167.500	-4.740	0.099
167.600	6.148	0.099
167.700	-0.815	0.099
167.800	10.029	0.099
167.900	0.175	0.099
168.000	-1.738	0.099
168.100	-13.581	0.099
168.200	5.919	0.099
168.300	7.299	0.099
168.400	10.564	0.099
168.500	0.455	0.099
168.600	-0.776	0.099
168.700	-3.047	0.099
168.800	-7.510	0.099
168.900	-1.620	0.099
169.000	-0.855	0.099
169.100	8.116	0.099
169.200	3.253	0.099
169.300	-8.375	0.099
169.400	2.044	0.099
169.500	5.050	0.099
169.600	-8.271	0.099
169.700	4.624	0.099
169.800	-5.843	0.099
169.900	7.706	0.099
170.000	1.741	0.099
170.100	-14.046	0.099
170.200	-3.021	0.099
170.300	7.952	0.099
170.400	-4.074	0.099
170.500	-7.327	0.099
170.600	7.118	0.099
170.700	-4.172	0.099
170.800	-5.211	0.099
170.900	-7.287	0.099
171.000	-10.392	0.099
171.100	14.565	0.099
171.200	2.880	0.099
171.300	0.252	0.099
171.400	-11.139	0.099
171.500	-7.747	0.099
171.600	10.358	0.099
171.700	2.677	0.099
171.800	14.354	0.099
171.900	-8.360	0.099
172.000	-11.091	0.099
172.100	-6.078	0.099
172.200	5.092	0.099
172.300	7.538	0.099
172.400	-1.059	0.099
172.500	-0.718	0.099
172.600	4.580	0.099
172.700	7.811	0.099
172.800	-13.087	0.099
172.900	-10.049	0.099
173.000	-2.160	0.099
173.100	-3.398	0.099
173.200	4.433	0.099
173.300	-3.619	0.099
173.400	8.948	0.099
173.500	-8.254	0.099
173.600	0.558	0.099
173.700	2.035	0.099
173.800	-1.625	0.099
173.900	-1.411	0.099
174.000	-2.575	0.099
174.100	0.397	0.099
174.200	-4.416	0.099
174.300	-1.159	0.099
174.400	-2.901	0.099
174.500	-4.690	0.099
174.600	5.272	0.099
174.700	3.034	0.099
174.800	8.233	0.099
174.900	-0.542	0.099
175.000	5.718	0.099
175.100	-1.270	0.099
175.200	-7.800	0.099
175.300	7.177	0.099
175.400	0.025	0.099
175.500	7.287	0.099
175.600	-11.376	0.099
175.700	-7.891	0.099
175.800	-1.272	0.099
175.900	6.823	0.099
176.000	-6.582	0.099
176.100	-6.169	0.099
176.200	-6.589	0.099
176.300	-5.187	0.099
176.400	-1.821	0.099
176.500	1.633	0.099
176.600	-6.645	0.099
176.700	-0.379	0.099
176.800	1.167	0.099
176.900	-2.742	0.099
177.000	-2.276	0.099
177.100	2.964	0.099
177.200	-3.262	0.099
177.300	-8.724	0.099
177.400	-8.868	0.099
177.500	5.618	0.099
177.600	-5.808	0.099
177.700	10.101	0.099
177.800	-10.022	0.099
177.900	-1.753	0.099
178.000	-1.811	0.099
178.100	15.557	0.099
178.200	1.003	0.099
178.300	4.829	0.099
178.400	6.780	0.099
178.500	-11.255	0.099
178.600	6.675	0.099
178.700	-5.767	0.099
178.800	-6.682	0.099
178.900	-2.534	0.099
179.000	-2.767	0.099
179.100	2.874	0.099
179.200	2.621	0.099
179.300	0.706	0.099
179.400	-1.747	0.099
179.500	-1.584	0.099
179.600	-2.296	0.099
179.700	-4.225	0.099
179.800	5.423	0.099
179.900	-15.516	0.099
180.000	-2.625	0.099
180.100	-0.298	0.099
180.200	-2.263	0.099
180.300	-5.096	0.099
180.400	-3.074	0.099
180.500	1.298	0.099
180.600	-0.218	0.099
180.700	9.277	0.099
180.800	-4.881	0.099
180.900	7.286	0.099
181.000	13.449	0.099
181.100	15.037	0.099
181.200	-6.546	0.099
181.300	22.523	0.099
181.400	15.017	0.099
181.500	6.981	0.099
181.600	13.768	0.099
181.700	14.055	0.099
181.800	7.434	0.099
181.900	19.942	0.099
182.000	12.752	0.099
182.100	6.943	0.099
182.200	29.208	0.099
182.300	18.554	0.099
182.400	27.924	0.099
182.500	18.548	0.099
182.600	20.466	0.099
182.700	28.995	0.099
182.800	19.666	0.099
182.900	18.035	0.099
183.000	23.667	0.099
183.100	5.477	0.099
183.200	25.394	0.099
183.300	19.822	0.099
183.400	30.529	0.099
183.500	23.879	0.099
183.600	23.763	0.099
183.700	25.092	0.099
183.800	23.359	0.099
183.900	13.988	0.099
184.000	26.374	0.099
184.100	30.441	0.099
184.200	28.035	0.099
184.300	2.364	0.099
184.400	17.634	0.099
184.500	16.151	0.099
184.600	18.392	0.099
184.700	20.792	0.099
184.800	11.464	0.099
184.900	16.444	0.099
185.000	31.080	0.099
185.100	17.320	0.099
185.200	10.949	0.099
185.300	16.576	0.099
185.400	20.051	0.099
185.500	25.734	0.099
185.600	31.879	0.099
185.700	25.878	0.099
185.800	19.502	0.099
185.900	23.785	0.099
186.000	27.240	0.099
186.100	16.537	0.099
186.200	20.849	0.099
186.300	22.932	0.099
186.400	37.012	0.099
186.500	26.628	0.099
186.600	10.568	0.099
186.700	24.031	0.099
186.800	24.001	0.099
186.900	13.189	0.099
187.000	19.644	0.099
187.100	26.829	0.099
187.200	23.046	0.099
187.300	17.938	0.099
187.400	23.318	0.099
187.500	36.775	0.099
187.600	32.837	0.099
187.700	23.766	0.099
187.800	20.592	0.099
187.900	15.716	0.099
188.000	40.832	0.099
188.100	12.644	0.099
188.200	32.034	0.099
188.300	20.538	0.099
188.400	29.579	0.099
188.500	22.455	0.099
188.600	26.043	0.099
188.700	23.733	0.099
188.800	28.283	0.099
188.900	13.244	0.099
189.000	26.823	0.099
189.100	17.032	0.099
189.200	31.973	0.099
189.300	24.342	0.099
189.400	26.651	0.099
189.500	29.953	0.099
189.600	28.215	0.099
189.700	31.179	0.099
189.800	24.670	0.099
189.900	20.999	0.099
190.000	22.587	0.099
190.100	21.053	0.099
190.200	29.665	0.099
190.300	33.729	0.099
190.400	17.615	0.099
190.500	30.862	0.099
190.600	49.035	0.099
190.700	35.087	0.099
190.800	29.021	0.099
190.900	20.351	0.099
191.000	28.380	0.099
191.100	19.898	0.099
191.200	31.885	0.099
191.300	31.469	0.099
191.400	34.970	0.099
191.500	22.994	0.099
191.600	34.709	0.099
191.700	26.892	0.099
191.800	24.960	0.099
191.900	9.504	0.099
192.000	27.589	0.099
192.100	39.100	0.099
192.200	29.726	0.099
192.300	22.081	0.099
192.400	28.079	0.099
192.500	30.317	0.099
192.600	26.268	0.099
192.700	36.805	0.099
192.800	41.952	0.099
192.900	25.602	0.099
193.000	33.329	0.099
193.100	26.406	0.099
193.200	31.505	0.099
193.300	23.900	0.099
193.400	38.167	0.099
193.500	35.433	0.099
193.600	36.194	0.099
193.700	27.679	0.099
193.800	38.876	0.099
193.900	28.774	0.099
194.000	25.923	0.099
194.100	31.359	0.099
194.200	27.578	0.099
194.300	34.068	0.099
194.400	36.107	0.099
194.500	19.391	0.099
194.600	26.503	0.099
194.700	31.920	0.099
194.800	36.838	0.099
194.900	22.827	0.099
195.000	34.191	0.099
195.100	35.286	0.099
195.200	24.688	0.099
195.300	20.312	0.099
195.400	29.855	0.099
195.500	31.899	0.099
195.600	33.416	0.099
195.700	26.088	0.099
195.800	43.148	0.099
195.900	28.561	0.099
196.000	38.747	0.099
196.100	26.506	0.099
196.200	24.236	0.099
196.300	33.511	0.099
196.400	30.495	0.099
196.500	28.263	0.099
196.600	27.299	0.099
196.700	32.472	0.099
196.800	34.000	0.099
196.900	42.953	0.099
197.000	30.588	0.099
197.100	28.007	0.099
197.200	43.789	0.099
197.300	37.550	0.099
197.400	33.604	0.099
197.500	35.351	0.099
197.600	37.626	0.099
197.700	26.284	0.099
197.800	32.896	0.099
197.900	31.610	0.099
198.000	32.663	0.099
198.100	27.481	0.099
198.200	28.899	0.099
198.300	37.166	0.099
198.400	35.888	0.099
198.500	24.551	0.099
198.600	43.514	0.099
198.700	17.862	0.099
198.800	27.954	0.099
198.900	39.852	0.099
199.000	34.740	0.099
199.100	34.739	0.099
199.200	45.226	0.099
199.300	28.945	0.099
199.400	18.268	0.099
199.500	31.529	0.099
199.600	39.501	0.099
199.700	22.170	0.099
199.800	29.781	0.099
199.900	37.841	0.099
200.000	29.802	0.099
200.100	31.837	0.099
200.200	27.815	0.099
200.300	38.291	0.099
200.400	36.272	0.099
200.500	42.669	0.099
200.600	35.105	0.099
200.700	23.222	0.099
200.800	30.366	0.099
200.900	23.971	0.099
201.000	43.411	0.099
201.100	31.008	0.099
201.200	37.084	0.099
201.300	26.574	0.099
201.400	31.666	0.099
201.500	35.780	0.099
201.600	42.609	0.099
201.700	31.330	0.099
201.800	38.488	0.099
201.900	29.452	0.099
202.000	40.447	0.099
202.100	28.859	0.099
202.200	29.091	0.099
202.300	27.193	0.099
202.400	31.250	0.099
202.500	20.867	0.099
202.600	35.365	0.099
202.700	30.773	0.099
202.800	34.347	0.099
202.900	39.489	0.099
203.000	26.227	0.099
203.100	37.514	0.099
203.200	35.403	0.099
203.300	30.219	0.099
203.400	37.299	0.099
203.500	42.508	0.099
203.600	28.105	0.099
203.700	26.869	0.099
203.800	32.713	0.099
203.900	37.480	0.099
204.000	27.836	0.099
204.100	30.372	0.099
204.200	23.057	0.099
204.300	43.634	0.099
204.400	30.773	0.099
204.500	25.936	0.099
204.600	51.497	0.099
204.700	38.190	0.099
204.800	30.412	0.099
204.900	20.334	0.099
205.000	37.435	0.099
205.100	36.788	0.099
205.200	34.541	0.099
205.300	30.498	0.099
205.400	33.722	0.099
205.500	35.495	0.099
205.600	30.715	0.099
205.700	33.434	0.099
205.800	32.335	0.099
205.900	36.492	0.099
206.000	20.647	0.099
206.100	23.636	0.099
206.200	32.318	0.099
206.300	33.091	0.099
206.400	22.675	0.099
206.500	33.089	0.099
206.600	40.392	0.099
206.700	45.594	0.099
206.800	34.906	0.099
206.900	34.974	0.099
207.000	22.535	0.099
207.100	35.904	0.099
207.200	37.197	0.099
207.300	25.563	0.099
207.400	38.655	0.099
207.500	33.264	0.099
207.600	29.841	0.099
207.700	46.442	0.099
207.800	27.224	0.099
207.900	31.386	0.099
208.000	35.197	0.099
208.100	29.230	0.099
208.200	43.187	0.099
208.300	30.539	0.099
208.400	31.326	0.099
208.500	38.549	0.099
208.600	35.032	0.099
208.700	28.321	0.099
208.800	37.425	0.099
208.900	49.880	0.099
209.000	12.473	0.099
209.100	33.278	0.099
209.200	35.744	0.099
209.300	34.962	0.099
209.400	25.393	0.099
209.500	34.199	0.099
209.600	42.688	0.099
209.700	26.237	0.099
209.800	30.527	0.099
209.900	31.977	0.099
210.000	36.019	0.099
210.100	39.637	0.099
210.200	28.300	0.099
210.300	31.713	0.099
210.400	37.709	0.099
210.500	28.527	0.099
210.600	26.292	0.099
210.700	38.635	0.099
210.800	31.600	0.099
210.900	50.066	0.099
211.000	40.826	0.099
211.100	30.354	0.099
211.200	43.012	0.099
211.300	22.615	0.099
211.400	34.948	0.099
211.500	26.255	0.099
211.600	34.892	0.099
211.700	29.234	0.099
211.800	36.885	0.099
211.900	36.035	0.099
212.000	25.748	0.099
212.100	38.603	0.099
212.200	26.248	0.099
212.300	29.803	0.099
212.400	33.476	0.099
212.500	32.256	0.099
212.600	31.448	0.099
212.700	30.378	0.099
212.800	30.550	0.099
212.900	38.087	0.099
213.000	39.736	0.099
213.100	30.254	0.099
213.200	36.246	0.099
213.300	39.972	0.099
213.400	32.143	0.099
213.500	29.969	0.099
213.600	38.393	0.099
213.700	39.021	0.099
213.800	27.776	0.099
213.900	38.903	0.099
214.000	35.190	0.099
214.100	44.782	0.099
214.200	22.203	0.099
214.300	25.572	0.099
214.400	38.032	0.099
214.500	31.193	0.099
214.600	25.569	0.099
214.700	34.655	0.099
214.800	27.699	0.099
214.900	29.462	0.099
215.000	35.264	0.099
215.100	32.576	0.099
215.200	40.236	0.099
215.300	40.924	0.099
215.400	32.443	0.099
215.500	31.050	0.099
215.600	25.027	0.099
215.700	30.998	0.099
215.800	24.049	0.099
215.900	43.639	0.099
216.000	37.442	0.099
216.100	32.414	0.099
216.200	44.364	0.099
216.300	34.752	0.099
216.400	28.502	0.099
216.500	28.773	0.099
216.600	37.008	0.099
216.700	36.250	0.099
216.800	21.894	0.099
216.900	26.534	0.099
217.000	54.753	0.099
217.100	43.778	0.099
217.200	34.088	0.099
217.300	37.851	0.099
217.400	37.574	0.099
217.500	40.062	0.099
217.600	28.452	0.099
217.700	37.077	0.099
217.800	31.130	0.099
217.900	32.445	0.099
218.000	27.674	0.099
218.100	20.133	0.099
218.200	35.397	0.099
218.300	28.801	0.099
218.400	37.733	0.099
218.500	30.696	0.099
218.600	42.737	0.099
218.700	29.678	0.099
218.800	43.564	0.099
218.900	33.932	0.099
219.000	32.785	0.099
219.100	36.990	0.099
219.200	37.330	0.099
219.300	34.063	0.099
219.400	30.977	0.099
219.500	39.944	0.099
219.600	21.188	0.099
219.700	39.660	0.099
219.800	40.018	0.099
219.900	34.206	0.099
220.000	44.067	0.099
220.100	43.504	0.099
220.200	22.850	0.099
220.300	37.264	0.099
220.400	31.893	0.099
220.500	39.688	0.099
220.600	39.649	0.099
220.700	34.712	0.099
220.800	30.195	0.099
220.900	32.632	0.099
221.000	38.453	0.099
221.100	35.071	0.099
221.200	23.037	0.099
221.300	31.853	0.099
221.400	39.457	0.099
221.500	37.048	0.099
221.600	35.955	0.099
221.700	47.915	0.099
221.800	30.787	0.099
221.900	31.809	0.099
222.000	29.792	0.099
222.100	26.131	0.099
222.200	38.580	0.099
222.300	45.891	0.099
222.400	30.789	0.099
222.500	40.280	0.099
222.600	27.544	0.099
222.700	42.064	0.099
222.800	31.867	0.099
222.900	43.810	0.099
223.000	29.031	0.099
223.100	32.837	0.099
223.200	25.985	0.099
223.300	35.354	0.099
223.400	25.747	0.099
223.500	36.988	0.099
223.600	21.501	0.099
223.700	38.731	0.099
223.800	39.509	0.099
223.900	34.631	0.099
224.000	33.987	0.099
224.100	34.704	0.099
224.200	35.055	0.099
224.300	43.928	0.099
224.400	34.331	0.099
224.500	38.745	0.099
224.600	39.497	0.099
224.700	31.531	0.099
224.800	32.957	0.099
224.900	31.544	0.099
225.000	30.925	0.099
225.100	40.149	0.099
225.200	23.682	0.099
225.300	52.492	0.099
225.400	28.427	0.099
225.500	33.825	0.099
225.600	21.837	0.099
225.700	44.336	0.099
225.800	36.078	0.099
225.900	27.316	0.099
226.000	29.915	0.099
226.100	36.438	0.099
226.200	32.296	0.099
226.300	44.150	0.099
226.400	30.558	0.099
226.500	30.054	0.099
226.600	36.639	0.099
226.700	21.167	0.099
226.800	32.832	0.099
226.900	32.805	0.099
227.000	32.366	0.099
227.100	41.155	0.099
227.200	32.975	0.099
227.300	37.819	0.099
227.400	30.367	0.099
227.500	39.002	0.099
227.600	43.763	0.099
227.700	36.072	0.099
227.800	28.821	0.099
227.900	22.662	0.099
228.000	29.624	0.099
228.100	30.401	0.099
228.200	36.978	0.099
228.300	34.211	0.099
228.400	25.046	0.099
228.500	37.192	0.099
228.600	39.986	0.099
228.700	26.606	0.099
228.800	22.004	0.099
228.900	38.931	0.099
229.000	39.578	0.099
229.100	27.193	0.099
229.200	29.368	0.099
229.300	35.928	0.099
229.400	46.035	0.099
229.500	37.809	0.099
229.600	32.464	0.099
229.700	28.478	0.099
229.800	28.272	0.099
229.900	34.695	0.099
230.000	34.131	0.099
230.100	26.950	0.099
230.200	36.080	0.099
230.300	44.176	0.099
230.400	36.211	0.099
230.500	38.066	0.099
230.600	35.419	0.099
230.700	26.409	0.099
230.800	32.339	0.099
230.900	28.339	0.099
231.000	29.023	0.099
231.100	25.414	0.099
231.200	17.550	0.099
231.300	43.829	0.099
231.400	39.509	0.099
231.500	23.627	0.099
231.600	24.901	0.099
231.700	31.586	0.099
231.800	37.630	0.099
231.900	37.334	0.099
232.000	28.436	0.099
232.100	30.075	0.099
232.200	31.098	0.099
232.300	42.533	0.099
232.400	38.044	0.099
232.500	34.609	0.099
232.600	29.789	0.099
232.700	33.535	0.099
232.800	22.236	0.099
232.900	32.605	0.099
233.000	27.461	0.099
233.100	51.533	0.099
233.200	21.319	0.099
233.300	32.077	0.099
233.400	36.934	0.099
233.500	29.316	0.099
233.600	32.988	0.099
233.700	28.506	0.099
233.800	25.737	0.099
233.900	26.335	0.099
234.000	38.968	0.099
234.100	36.546	0.099
234.200	24.552	0.099
234.300	31.309	0.099
234.400	31.534	0.099
234.500	48.335	0.099
234.600	33.466	0.099
234.700	33.058	0.099
234.800	32.901	0.099
234.900	31.195	0.099
235.000	48.262	0.099
235.100	42.467	0.099
235.200	32.650	0.099
235.300	30.979	0.099
235.400	22.743	0.099
235.500	36.325	0.099
235.600	34.158	0.099
235.700	30.678	0.099
235.800	31.075	0.099
235.900	34.349	0.099
236.000	12.568	0.099
236.100	36.599	0.099
236.200	25.373	0.099
236.300	39.472	0.099
236.400	33.446	0.099
236.500	30.192	0.099
236.600	26.992	0.099
236.700	35.641	0.099
236.800	33.117	0.099
236.900	24.842	0.099
237.000	35.427	0.099
237.100	40.695	0.099
237.200	40.944	0.099
237.300	29.752	0.099
237.400	29.413	0.099
237.500	20.149	0.099
237.600	40.495	0.099
237.700	42.985	0.099
237.800	37.480	0.099
237.900	23.473	0.099
238.000	28.537	0.099
238.100	33.357	0.099
238.200	34.747	0.099
238.300	40.511	0.099
238.400	33.358	0.099
238.500	24.031	0.099
238.600	29.300	0.099
238.700	22.817	0.099
238.800	40.919	0.099
238.900	32.530	0.099
239.000	33.745	0.099
239.100	25.893	0.099
239.200	33.126	0.099
239.300	35.646	0.099
239.400	34.056	0.099
239.500	23.696	0.099
239.600	43.745	0.099
239.700	29.681	0.099
239.800	34.895	0.099
239.900	39.003	0.099
240.000	33.853	0.100
240.100	32.079	0.099
240.200	15.509	0.099
240.300	30.373	0.099
240.400	26.610	0.099
240.500	29.316	0.099
240.600	32.511	0.099
240.700	21.507	0.099
240.800	23.990	0.099
240.900	26.042	0.099
241.000	26.655	0.099
241.100	19.621	0.099
241.200	10.296	0.099
241.300	29.376	0.099
241.400	19.889	0.099
241.500	17.108	0.099
241.600	11.421	0.099
241.700	17.919	0.099
241.800	18.751	0.099
241.900	20.945	0.099
242.000	11.301	0.099
242.100	19.123	0.099
242.200	17.173	0.099
242.300	15.725	0.099
242.400	13.906	0.099
242.500	13.652	0.099
242.600	7.255	0.099
242.700	13.733	0.099
242.800	1.434	0.099
242.900	9.004	0.099
243.000	3.262	0.099
243.100	3.269	0.099
243.200	13.693	0.099
243.300	17.403	0.099
243.400	-7.737	0.099
243.500	14.556	0.099
243.600	21.883	0.099
243.700	-3.408	0.099
243.800	12.936	0.099
243.900	3.369	0.099
244.000	16.113	0.099
244.100	1.571	0.099
244.200	14.465	0.099
244.300	-3.386	0.099
244.400	18.325	0.099
244.500	4.142	0.099
244.600	-2.168	0.099
244.700	3.905	0.099
244.800	1.949	0.099
244.900	-4.969	0.099
245.000	4.475	0.099
245.100	8.029	0.099
245.200	-3.336	0.099
245.300	0.545	0.099
245.400	8.760	0.099
245.500	1.460	0.099
245.600	-14.235	0.099
245.700	-12.163	0.099
245.800	16.381	0.099
245.900	7.955	0.099
246.000	-9.526	0.099
246.100	3.153	0.099
246.200	0.187	0.099
246.300	-7.929	0.099
246.400	-4.657	0.099
246.500	-1.296	0.099
246.600	4.404	0.099
246.700	-1.237	0.099
246.800	-7.230	0.099
246.900	2.855	0.099
247.000	-3.027	0.099
247.100	11.741	0.099
247.200	4.384	0.099
247.300	-6.383	0.099
247.400	-11.116	0.099
247.500	5.528	0.099
247.600	-9.834	0.099
247.700	-2.912	0.099
247.800	-5.759	0.099
247.900	-5.871	0.099
248.000	1.932	0.099
248.100	0.391	0.099
248.200	-10.364	0.099
248.300	-5.987	0.099
248.400	3.813	0.099
248.500	-3.747	0.099
248.600	-3.477	0.099
248.700	4.944	0.099
248.800	9.221	0.099
248.900	-9.721	0.099
249.000	-0.265	0.099
249.100	-3.348	0.099
249.200	-2.354	0.099
249.300	-0.311	0.099
249.400	4.728	0.099
249.500	-9.766	0.099
249.600	-10.554	0.099
249.700	-9.630	0.099
249.800	3.844	0.099
249.900	-0.441	0.099
250.000	-21.206	0.099
250.100	1.610	0.099
250.200	-13.251	0.099
250.300	-0.991	0.099
250.400	5.146	0.099
250.500	-4.255	0.099
250.600	-6.708	0.099
250.700	-30.713	0.099
250.800	2.393	0.099
250.900	-0.329	0.099
251.000	-7.441	0.099
251.100	-8.702	0.099
251.200	-9.506	0.099
251.300	-4.861	0.099
251.400	-5.156	0.099
251.500	-11.524	0.099
251.600	-6.400	0.099
251.700	-3.895	0.099
251.800	-14.144	0.099
251.900	-12.488	0.099
252.000	-9.926	0.099
252.100	-6.438	0.099
252.200	-1.345	0.099
252.300	-12.535	0.099
252.400	-22.688	0.099
252.500	-7.948	0.099
252.600	-8.618	0.099
252.700	-0.803	0.099
252.800	-14.290	0.099
252.900	-20.049	0.099
253.000	0.346	0.099
253.100	-2.432	0.099
253.200	-6.001	0.099
253.300	-13.292	0.099
253.400	-4.259	0.099
253.500	-19.297	0.099
253.600	2.671	0.099
253.700	-8.370	0.099
253.800	-2.325	0.099
253.900	-16.632	0.099
254.000	-15.816	0.099
254.100	-14.355	0.099
254.200	-31.295	0.099
254.300	-3.457	0.099
254.400	-22.378	0.099
254.500	-2.286	0.099
254.600	-20.122	0.099
254.700	-25.599	0.099
254.800	-1.047	0.099
254.900	-5.487	0.099
255.000	-7.827	0.099
255.100	-0.914	0.099
255.200	-5.814	0.099
255.300	-8.091	0.099
255.400	-19.326	0.099
255.500	-11.160	0.099
255.600	-9.285	0.099
255.700	-24.908	0.099
255.800	8.317	0.099
255.900	-18.845	0.099
256.000	-15.673	0.099
256.100	-17.808	0.099
256.200	-22.578	0.099
256.300	-3.650	0.099
256.400	-15.708	0.099
256.500	-5.149	0.099
256.600	-13.217	0.099
256.700	-18.233	0.099
256.800	-10.734	0.099
256.900	-15.141	0.099
257.000	-17.329	0.099
257.100	-8.768	0.099
257.200	-7.537	0.099
257.300	-14.208	0.099
257.400	-16.244	0.099
257.500	-10.192	0.099
257.600	-14.782	0.099
257.700	-11.010	0.099
257.800	-21.919	0.099
257.900	-22.797	0.099
258.000	-19.799	0.099
258.100	-1.461	0.099
258.200	-24.519	0.099
258.300	-13.563	0.099
258.400	-2.494	0.099
258.500	-10.107	0.099
258.600	-19.559	0.099
258.700	-7.932	0.099
258.800	-27.543	0.099
258.900	-21.670	0.099
259.000	0.278	0.099
259.100	-15.934	0.099
259.200	-10.828	0.099
259.300	-7.239	0.099
259.400	-16.695	0.099
259.500	-20.001	0.099
259.600	-11.258	0.099
259.700	-8.420	0.099
259.800	0.478	0.099
259.900	-0.903	0.099
260.000	-17.716	0.099
260.100	-19.516	0.099
260.200	-21.596	0.099
260.300	-26.069	0.099
260.400	-8.853	0.099
260.500	-3.731	0.099
260.600	-12.314	0.099
260.700	-19.709	0.099
260.800	-14.532	0.099
260.900	-19.614	0.099
261.000	-10.975	0.099
261.100	-11.145	0.099
261.200	-8.738	0.099
261.300	-22.046	0.099
261.400	-12.720	0.099
261.500	-10.592	0.099
261.600	-17.753	0.099
261.700	-21.013	0.099
261.800	-18.811	0.099
261.900	-6.753	0.099
262.000	-11.222	0.099
262.100	-17.692	0.099
262.200	-17.811	0.099
262.300	-13.171	0.099
262.400	-19.732	0.099
262.500	-21.125	0.099
262.600	-37.725	0.099
262.700	-0.955	0.099
262.800	-21.980	0.099
262.900	-20.084	0.099
263.000	-14.125	0.099
263.100	-11.170	0.099
263.200	-23.504	0.099
263.300	-21.125	0.099
263.400	-11.785	0.099
263.500	-14.965	0.099
263.600	-24.156	0.099
263.700	-10.954	0.099
263.800	-9.926	0.099
263.900	-6.118	0.099
264.000	-16.976	0.099
264.100	-5.703	0.099
264.200	-19.769	0.099
264.300	-18.500	0.099
264.400	-14.791	0.099
264.500	-20.503	0.099
264.600	-23.734	0.099
264.700	-17.824	0.099
264.800	-16.061	0.099
264.900	-27.688	0.099
265.000	-6.633	0.099
265.100	-22.576	0.099
265.200	-27.588	0.099
265.300	-13.282	0.099
265.400	-26.026	0.099
265.500	-8.089	0.099
265.600	-4.128	0.099
265.700	-20.232	0.099
265.800	-21.642	0.099
265.900	-30.324	0.099
266.000	-6.653	0.099
266.100	-19.244	0.099
266.200	-10.410	0.099
266.300	-17.676	0.099
266.400	-11.228	0.099
266.500	-11.322	0.099
266.600	-19.659	0.099
266.700	-26.009	0.099
266.800	3.325	0.099
266.900	-18.840	0.099
267.000	-15.303	0.099
267.100	-16.413	0.099
267.200	-37.782	0.099
267.300	-16.640	0.099
267.400	-6.007	0.099
267.500	-8.570	0.099
267.600	-14.074	0.099
267.700	-23.778	0.099
267.800	-2.733	0.099
267.900	2.474	0.099
268.000	-20.733	0.099
268.100	-8.360	0.099
268.200	-12.389	0.099
268.300	-16.552	0.099
268.400	-18.120	0.099
268.500	-14.980	0.099
268.600	-12.301	0.099
268.700	-6.986	0.099
268.800	-4.899	0.099
268.900	-20.838	0.099
269.000	-6.753	0.099
269.100	-5.438	0.099
269.200	-6.932	0.099
269.300	-27.981	0.099
269.400	-15.102	0.099
269.500	-11.684	0.099
269.600	-1.120	0.099
269.700	4.195	0.099
269.800	-18.796	0.099
269.900	-20.436	0.099
270.000	-15.389	0.099
270.100	-6.689	0.099
270.200	-21.732	0.099
270.300	-32.044	0.099
270.400	-11.702	0.099
270.500	-8.604	0.099
270.600	-25.714	0.099
270.700	-14.491	0.099
270.800	-10.770	0.099
270.900	-23.295	0.099
271.000	-4.643	0.099
271.100	-3.779	0.099
271.200	-23.622	0.099
271.300	-19.310	0.099
271.400	-30.842	0.099
271.500	-12.631	0.099
271.600	-14.604	0.099
271.700	-7.264	0.099
271.800	-17.200	0.099
271.900	-11.132	0.099
272.000	-23.824	0.099
272.100	-10.472	0.099
272.200	-12.851	0.099
272.300	-36.040	0.099
272.400	-20.190	0.099
272.500	-12.924	0.099
272.600	-9.655	0.099
272.700	-15.490	0.099
272.800	-19.419	0.099
272.900	-12.859	0.099
273.000	-7.083	0.099
273.100	-11.496	0.099
273.200	-18.407	0.099
273.300	-19.354	0.099
273.400	-14.997	0.099
273.500	-22.406	0.099
273.600	-5.462	0.099
273.700	-13.636	0.099
273.800	-14.973	0.099
273.900	-8.443	0.099
274.000	-20.902	0.099
274.100	-14.248	0.099
274.200	-24.986	0.099
274.300	-16.721	0.099
274.400	-12.520	0.099
274.500	-7.558	0.099
274.600	-16.065	0.099
274.700	-17.617	0.099
274.800	-13.116	0.099
274.900	-9.412	0.099
275.000	-21.676	0.099
275.100	-6.091	0.099
275.200	-14.046	0.099
275.300	-30.244	0.099
275.400	-12.000	0.099
275.500	-16.766	0.099
275.600	-20.515	0.099
275.700	-13.131	0.099
275.800	-6.228	0.099
275.900	-17.230	0.099
276.000	-14.447	0.099
276.100	-19.297	0.099
276.200	-20.637	0.099
276.300	-15.914	0.099
276.400	-10.992	0.099
276.500	-11.144	0.099
276.600	-11.536	0.099
276.700	-13.538	0.099
276.800	-5.462	0.099
276.900	-12.001	0.099
277.000	-5.814	0.099
277.100	-19.184	0.099
277.200	-15.750	0.099
277.300	-15.497	0.099
277.400	-7.414	0.099
277.500	-14.794	0.099
277.600	-16.285	0.099
277.700	-3.076	0.099
277.800	-7.989	0.099
277.900	-16.677	0.099
278.000	-22.828	0.099
278.100	-13.385	0.099
278.200	-19.712	0.099
278.300	-14.139	0.099
278.400	-5.344	0.099
278.500	-21.330	0.099
278.600	-7.208	0.099
278.700	-14.443	0.099
278.800	0.737	0.099
278.900	-20.377	0.099
279.000	-22.597	0.099
279.100	-10.650	0.099
279.200	1.514	0.099
279.300	-21.112	0.099
279.400	-11.091	0.099
279.500	-16.993	0.099
279.600	1.094	0.099
279.700	-28.329	0.099
279.800	-7.069	0.099
279.900	-6.874	0.099
280.000	-20.472	0.099
280.100	-15.213	0.099
280.200	6.413	0.099
280.300	-7.411	0.099
280.400	-11.507	0.099
280.500	-18.531	0.099
280.600	-10.463	0.099
280.700	-8.297	0.099
280.800	-14.906	0.099
280.900	-11.640	0.099
281.000	-10.007	0.099
281.100	-19.977	0.099
281.200	-15.605	0.099
281.300	-17.651	0.099
281.400	-20.088	0.099
281.500	-14.372	0.099
281.600	0.939	0.099
281.700	-15.391	0.099
281.800	-5.185	0.099
281.900	-4.157	0.099
282.000	-2.427	0.099
282.100	-10.175	0.099
282.200	-15.446	0.099
282.300	-8.570	0.099
282.400	-13.147	0.099
282.500	-13.665	0.099
282.600	-7.227	0.099
282.700	-12.042	0.099
282.800	-31.909	0.099
282.900	-3.348	0.099
283.000	-8.863	0.099
283.100	-6.215	0.099
283.200	-18.386	0.099
283.300	-20.864	0.099
283.400	-15.371	0.099
283.500	2.178	0.099
283.600	-16.807	0.099
283.700	3.798	0.099
283.800	-25.292	0.099
283.900	-13.862	0.099
284.000	-0.740	0.099
284.100	0.458	0.099
284.200	-13.693	0.099
284.300	-6.548	0.099
284.400	-12.091	0.099
284.500	-13.444	0.099
284.600	-8.403	0.099
284.700	-11.084	0.099
284.800	0.750	0.099
284.900	-9.296	0.099
285.000	-8.476	0.099
285.100	4.601	0.099
285.200	-25.789	0.099
285.300	-17.885	0.099
285.400	-9.715	0.099
285.500	-16.653	0.099
285.600	-6.306	0.099
285.700	-14.779	0.099
285.800	-6.761	0.099
285.900	-3.920	0.099
286.000	-18.979	0.099
286.100	-7.788	0.099
286.200	-12.504	0.099
286.300	-23.168	0.099
286.400	-19.599	0.099
286.500	-8.967	0.099
286.600	-14.337	0.099
286.700	-13.902	0.099
286.800	-18.087	0.099
286.900	-13.836	0.099
287.000	-4.198	0.099
287.100	-23.972	0.099
287.200	-6.682	0.099
287.300	-12.290	0.099
287.400	6.632	0.099
287.500	-13.053	0.099
287.600	-7.000	0.099
287.700	-11.438	0.099
287.800	-11.361	0.099
287.900	-20.235	0.099
288.000	-6.759	0.099
288.100	-6.716	0.099
288.200	-11.252	0.099
288.300	-10.772	0.099
288.400	-8.758	0.099
288.500	-14.357	0.099
288.600	-9.949	0.099
288.700	-9.822	0.099
288.800	-12.352	0.099
288.900	-7.745	0.099
289.000	-14.691	0.099
289.100	-9.453	0.099
289.200	-12.142	0.099
289.300	-0.519	0.099
289.400	-36.474	0.099
289.500	-10.490	0.099
289.600	2.334	0.099
289.700	-8.751	0.099
289.800	-0.485	0.099
289.900	0.805	0.099
290.000	-12.240	0.099
290.100	-13.784	0.099
290.200	-22.176	0.099
290.300	-6.637	0.099
290.400	-8.936	0.099
290.500	-4.887	0.099
290.600	-17.341	0.099
290.700	-7.817	0.099
290.800	-16.463	0.099
290.900	-9.140	0.099
291.000	-0.924	0.099
291.100	1.828	0.099
291.200	-23.216	0.099
291.300	1.308	0.099
291.400	-10.267	0.099
291.500	-14.079	0.099
291.600	-17.595	0.099
291.700	-10.108	0.099
291.800	2.868	0.099
291.900	-3.801	0.099
292.000	-15.344	0.099
292.100	-11.655	0.099
292.200	-6.548	0.099
292.300	-16.960	0.099
292.400	-17.661	0.099
292.500	4.704	0.099
292.600	-6.249	0.099
292.700	-13.319	0.099
292.800	-3.264	0.099
292.900	-13.187	0.099
293.000	-1.623	0.099
293.100	-9.384	0.099
293.200	-5.940	0.099
293.300	-15.472	0.099
293.400	-16.818	0.099
293.500	-4.826	0.099
293.600	-5.904	0.099
293.700	-9.142	0.099
293.800	-10.713	0.099
293.900	-7.531	0.099
294.000	-20.827	0.099
294.100	-4.906	0.099
294.200	-7.949	0.099
294.300	-0.734	0.099
294.400	-9.948	0.099
294.500	-9.634	0.099
294.600	-0.131	0.099
294.700	-14.252	0.099
294.800	-2.849	0.099
294.900	-9.682	0.099
295.000	-9.427	0.099
295.100	-1.727	0.099
295.200	-17.837	0.099
295.300	-16.321	0.099
295.400	-8.061	0.099
295.500	-19.037	0.099
295.600	-12.732	0.099
295.700	-17.794	0.099
295.800	-13.253	0.099
295.900	-1.633	0.099
296.000	-8.058	0.099
296.100	-2.685	0.099
296.200	-9.921	0.099
296.300	-14.857	0.099
296.400	-9.808	0.099
296.500	-7.220	0.099
296.600	-26.168	0.099
296.700	-3.815	0.099
296.800	-3.272	0.099
296.900	-6.525	0.099
297.000	-8.909	0.099
297.100	-7.932	0.099
297.200	3.092	0.099
297.300	-6.181	0.099
297.400	-13.928	0.099
297.500	-18.328	0.099
297.600	-7.509	0.099
297.700	-16.081	0.099
297.800	-4.667	0.099
297.900	-13.610	0.099
298.000	-9.704	0.099
298.100	-8.005	0.099
298.200	-7.476	0.099
298.300	-4.901	0.099
298.400	-12.683	0.099
298.500	-12.498	0.099
298.600	3.264	0.099
298.700	-13.752	0.099
298.800	-3.970	0.099
298.900	-5.740	0.099
299.000	-9.617	0.099
299.100	-11.777	0.099
299.200	-2.387	0.099
299.300	-8.024	0.099
299.400	-14.258	0.099
299.500	-7.915	0.099
299.600	-7.333	0.099
299.700	-8.685	0.099
299.800	7.798	0.099
299.900	-15.185	0.099
300.000	-0.865	0.099
300.100	-9.916	0.099
300.200	0.556	0.099
300.300	-19.052	0.099
300.400	-9.073	0.099
300.500	-13.681	0.099
300.600	-10.856	0.099
300.700	-7.987	0.099
300.800	-2.654	0.099
300.900	-10.724	0.099
301.000	-5.743	0.099
301.100	-10.920	0.099
301.200	4.510	0.099
301.300	-12.906	0.099
301.400	0.285	0.099
301.500	-7.196	0.099
301.600	-5.720	0.099
301.700	-12.063	0.099
301.800	-2.724	0.099
301.900	-5.854	0.099
302.000	-9.409	0.099
302.100	-10.772	0.099
302.200	-9.337	0.099
302.300	0.435	0.099
302.400	-15.886	0.099
302.500	-8.833	0.099
302.600	-8.941	0.099
302.700	-7.213	0.099
302.800	-4.397	0.099
302.900	-8.544	0.099
303.000	-2.361	0.099
303.100	-11.994	0.099
303.200	-8.421	0.099
303.300	-0.961	0.099
303.400	-1.870	0.099
303.500	-15.087	0.099
303.600	-11.657	0.099
303.700	-9.893	0.099
303.800	-9.063	0.099
303.900	-2.870	0.099
304.000	-7.761	0.099
304.100	-1.613	0.099
304.200	-1.021	0.099
304.300	-8.986	0.099
304.400	9.568	0.099
304.500	-12.890	0.099
304.600	-0.572	0.099
304.700	-9.427	0.099
304.800	-18.586	0.099
304.900	-9.467	0.099
305.000	-4.716	0.099
305.100	-5.533	0.099
305.200	-14.619	0.099
305.300	-4.997	0.099
305.400	0.226	0.099
305.500	0.660	0.099
305.600	-4.095	0.099
305.700	-4.239	0.099
305.800	-9.480	0.099
305.900	-32.052	0.099
306.000	-15.315	0.099
306.100	-8.985	0.099
306.200	-1.378	0.099
306.300	-25.858	0.099
306.400	-3.265	0.099
306.500	-5.971	0.099
306.600	-6.541	0.099
306.700	-8.289	0.099
306.800	-27.140	0.099
306.900	-2.682	0.099
307.000	-11.533	0.099
307.100	-10.031	0.099
307.200	-5.101	0.099
307.300	-20.176	0.099
307.400	-2.219	0.099
307.500	-5.823	0.099
307.600	-13.322	0.099
307.700	-22.008	0.099
307.800	-14.810	0.099
307.900	-13.472	0.099
308.000	-9.242	0.099
308.100	-10.407	0.099
308.200	-22.740	0.099
308.300	-1.455	0.099
308.400	10.483	0.099
308.500	-0.397	0.099
308.600	3.933	0.099
308.700	10.020	0.099
308.800	-8.562	0.099
308.900	-10.243	0.099
309.000	-3.488	0.099
309.100	0.047	0.099
309.200	-14.487	0.099
309.300	-4.557	0.099
309.400	-17.223	0.099
309.500	0.389	0.099
309.600	2.262	0.099
309.700	-7.367	0.099
309.800	-16.260	0.099
309.900	-9.311	0.099
310.000	8.332	0.099
310.100	-1.954	0.099
310.200	-5.999	0.099
310.300	-6.571	0.099
310.400	-9.369	0.099
310.500	4.158	0.099
310.600	-0.250	0.099
310.700	-19.827	0.099
310.800	-5.987	0.099
310.900	-0.891	0.099
311.000	-3.688	0.099
311.100	-9.482	0.099
311.200	-2.244	0.099
311.300	-2.750	0.099
311.400	-4.491	0.099
311.500	-1.587	0.099
311.600	-8.533	0.099
311.700	-0.804	0.099
311.800	-15.728	0.099
311.900	-10.471	0.099
312.000	-5.676	0.099
312.100	-11.071	0.099
312.200	-11.848	0.099
312.300	-4.366	0.099
312.400	-19.857	0.099
312.500	-3.310	0.099
312.600	-8.867	0.099
312.700	1.520	0.099
312.800	-9.335	0.099
312.900	-0.905	0.099
313.000	-10.055	0.099
313.100	-6.819	0.099
313.200	-7.749	0.099
313.300	-4.001	0.099
313.400	-0.751	0.099
313.500	-13.185	0.099
313.600	-9.862	0.099
313.700	-5.344	0.099
313.800	-7.674	0.099
313.900	-7.933	0.099
314.000	-4.383	0.099
314.100	-12.799	0.099
314.200	0.091	0.099
314.300	2.709	0.099
314.400	-8.091	0.099
314.500	8.571	0.099
314.600	-9.181	0.099
314.700	-1.035	0.099
314.800	-20.171	0.099
314.900	-10.909	0.099
315.000	-8.722	0.099
315.100	-9.636	0.099
315.200	8.774	0.099
315.300	-12.534	0.099
315.400	-3.105	0.099
315.500	-13.327	0.099
315.600	5.911	0.099
315.700	-11.029	0.099
315.800	-11.864	0.099
315.900	10.362	0.099
316.000	-4.143	0.099
316.100	-8.846	0.099
316.200	-3.973	0.099
316.300	-11.837	0.099
316.400	6.983	0.099
316.500	-2.527	0.099
316.600	-6.490	0.099
316.700	-6.323	0.099
316.800	-12.413	0.099
316.900	-1.338	0.099
317.000	-10.439	0.099
317.100	-11.123	0.099
317.200	-9.572	0.099
317.300	2.043	0.099
317.400	-14.996	0.099
317.500	-8.513	0.099
317.600	5.697	0.099
317.700	-1.560	0.099
317.800	1.322	0.099
317.900	-5.710	0.099
318.000	-5.972	0.099
318.100	-3.725	0.099
318.200	-12.529	0.099
318.300	-11.508	0.099
318.400	-13.313	0.099
318.500	-1.305	0.099
318.600	4.441	0.099
318.700	-6.520	0.099
318.800	-2.497	0.099
318.900	-7.964	0.099
319.000	-2.087	0.099
319.100	-17.107	0.099
319.200	-5.340	0.099
319.300	0.944	0.099
319.400	-12.188	0.099
319.500	-11.762	0.099
319.600	-0.262	0.099
319.700	3.449	0.099
319.800	-7.659	0.099
319.900	-8.643	0.099
320.000	-6.601	0.099
320.100	-9.444	0.099
320.200	-0.547	0.099
320.300	-5.474	0.099
320.400	-4.227	0.099
320.500	-16.732	0.099
320.600	-1.483	0.099
320.700	-14.218	0.099
320.800	-10.399	0.099
320.900	-5.183	0.099
321.000	4.100	0.099
321.100	-11.047	0.099
321.200	-6.794	0.099
321.300	-1.159	0.099
321.400	-1.776	0.099
321.500	6.646	0.099
321.600	-5.620	0.099
321.700	-14.135	0.099
321.800	0.839	0.099
321.900	-2.892	0.099
322.000	-5.186	0.099
322.100	5.609	0.099
322.200	-8.847	0.099
322.300	-5.739	0.099
322.400	-3.037	0.099
322.500	-18.687	0.099
322.600	-13.674	0.099
322.700	-6.965	0.099
322.800	-4.858	0.099
322.900	-8.292	0.099
323.000	-0.275	0.099
323.100	-2.907	0.099
323.200	-14.317	0.099
323.300	-9.854	0.099
323.400	-8.265	0.099
323.500	-10.424	0.099
323.600	-1.797	0.099
323.700	-2.271	0.099
323.800	-4.246	0.099
323.900	-8.246	0.099
324.000	-7.495	0.099
324.100	-8.755	0.099
324.200	0.588	0.099
324.300	-4.776	0.099
324.400	-19.601	0.099
324.500	0.156	0.099
324.600	1.275	0.099
324.700	-8.034	0.099
324.800	-9.566	0.099
324.900	-7.027	0.099
325.000	-0.767	0.099
325.100	1.761	0.099
325.200	-4.744	0.099
325.300	-5.884	0.099
325.400	-5.591	0.099
325.500	-11.578	0.099
325.600	1.466	0.099
325.700	-10.065	0.099
325.800	0.988	0.099
325.900	-15.444	0.099
326.000	-8.838	0.099
326.100	-2.663	0.099
326.200	-10.479	0.099
326.300	-2.366	0.099
326.400	-6.974	0.099
326.500	-7.034	0.099
326.600	5.509	0.099
326.700	-5.292	0.099
326.800	-10.384	0.099
326.900	5.027	0.099
327.000	4.657	0.099
327.100	-7.745	0.099
327.200	-10.136	0.099
327.300	1.592	0.099
327.400	-4.706	0.099
327.500	-1.946	0.099
327.600	-11.435	0.099
327.700	-11.691	0.099
327.800	-12.430	0.099
327.900	0.857	0.099
328.000	3.150	0.099
328.100	-12.717	0.099
328.200	-6.432	0.099
328.300	-11.033	0.099
328.400	-20.846	0.099
328.500	-6.429	0.099
328.600	-8.817	0.099
328.700	-19.619	0.099
328.800	2.798	0.099
328.900	-15.858	0.099
329.000	-3.270	0.099
329.100	-11.980	0.099
329.200	9.325	0.099
329.300	-16.922	0.099
329.400	-12.678	0.099
329.500	0.996	0.099
329.600	-9.877	0.099
329.700	3.929	0.099
329.800	-6.374	0.099
329.900	-9.133	0.099
330.000	0.912	0.099
330.100	-1.120	0.099
330.200	0.307	0.099
330.300	-5.397	0.099
330.400	-4.579	0.099
330.500	0.461	0.099
330.600	-1.210	0.099
330.700	-12.287	0.099
330.800	-4.738	0.099
330.900	18.581	0.099
331.000	5.260	0.099
331.100	7.040	0.099
331.200	4.640	0.099
331.300	-5.388	0.099
331.400	2.424	0.099
331.500	-1.240	0.099
331.600	3.304	0.099
331.700	13.378	0.099
331.800	16.708	0.099
331.900	8.793	0.099
332.000	7.583	0.099
332.100	13.364	0.099
332.200	20.480	0.099
332.300	17.140	0.099
332.400	7.872	0.099
332.500	18.904	0.099
332.600	29.431	0.099
332.700	2.335	0.099
332.800	31.045	0.099
332.900	14.135	0.099
333.000	17.255	0.099
333.100	24.053	0.099
333.200	32.404	0.099
333.300	22.931	0.099
333.400	22.531	0.099
333.500	16.063	0.099
333.600	15.918	0.099
333.700	23.347	0.099
333.800	19.771	0.099
333.900	22.153	0.099
334.000	16.313	0.099
334.100	22.589	0.099
334.200	40.737	0.099
334.300	14.609	0.099
334.400	16.693	0.099
334.500	8.597	0.099
334.600	17.055	0.099
334.700	17.303	0.099
334.800	19.849	0.099
334.900	20.117	0.099
335.000	31.132	0.099
335.100	18.577	0.099
335.200	5.301	0.099
335.300	18.358	0.099
335.400	16.567	0.099
335.500	15.670	0.099
335.600	17.462	0.099
335.700	24.851	0.099
335.800	28.494	0.099
335.900	10.226	0.099
336.000	15.255	0.099
336.100	14.871	0.099
336.200	16.814	0.099
336.300	27.069	0.099
336.400	8.217	0.099
336.500	7.900	0.099
336.600	22.277	0.099
336.700	33.322	0.099
336.800	8.515	0.099
336.900	26.502	0.099
337.000	33.034	0.099
337.100	4.097	0.099
337.200	16.709	0.099
337.300	28.855	0.099
337.400	23.565	0.099
337.500	28.002	0.099
337.600	13.671	0.099
337.700	14.569	0.099
337.800	18.642	0.099
337.900	19.496	0.099
338.000	24.140	0.099
338.100	24.940	0.099
338.200	22.988	0.099
338.300	17.374	0.099
338.400	25.392	0.099
338.500	15.679	0.099
338.600	25.655	0.099
338.700	22.655	0.099
338.800	31.552	0.099
338.900	18.504	0.099
339.000	30.244	0.099
339.100	21.615	0.099
339.200	20.662	0.099
339.300	22.603	0.099
339.400	28.765	0.099
339.500	29.888	0.099
339.600	20.909	0.099
339.700	43.298	0.099
339.800	17.367	0.099
339.900	15.657	0.099
340.000	16.721	0.099
340.100	24.788	0.099
340.200	29.291	0.099
340.300	28.601	0.099
340.400	32.859	0.099
340.500	25.857	0.099
340.600	32.377	0.099
340.700	30.371	0.099
340.800	29.558	0.099
340.900	23.304	0.099
341.000	30.451	0.099
341.100	22.391	0.099
341.200	16.953	0.099
341.300	24.810	0.099
341.400	42.303	0.099
341.500	30.495	0.099
341.600	21.297	0.099
341.700	15.013	0.099
341.800	46.088	0.099
341.900	17.900	0.099
342.000	32.268	0.099
342.100	21.592	0.099
342.200	32.385	0.099
342.300	25.052	0.099
342.400	19.172	0.099
342.500	28.073	0.099
342.600	27.866	0.099
342.700	20.482	0.099
342.800	29.396	0.099
342.900	30.978	0.099
343.000	30.803	0.099
343.100	32.273	0.099
343.200	18.474	0.099
343.300	27.004	0.099
343.400	28.107	0.099
343.500	35.991	0.099
343.600	28.638	0.099
343.700	34.374	0.099
343.800	22.162	0.099
343.900	30.322	0.099
344.000	32.100	0.099
344.100	36.235	0.099
344.200	21.264	0.099
344.300	30.460	0.099
344.400	23.572	0.099
344.500	31.634	0.099
344.600	41.837	0.099
344.700	21.831	0.099
344.800	30.334	0.099
344.900	12.111	0.099
345.000	28.031	0.099
345.100	18.857	0.099
345.200	37.694	0.099
345.300	24.567	0.099
345.400	32.270	0.099
345.500	32.531	0.099
345.600	29.964	0.099
345.700	35.581	0.099
345.800	38.899	0.099
345.900	34.783	0.099
346.000	27.321	0.099
346.100	30.033	0.099
346.200	36.223	0.099
346.300	35.117	0.099
346.400	30.526	0.099
346.500	26.245	0.099
346.600	40.721	0.099
346.700	32.250	0.099
346.800	32.407	0.099
346.900	42.128	0.099
347.000	20.880	0.099
347.100	35.735	0.099
347.200	35.964	0.099
347.300	35.854	0.099
347.400	37.476	0.099
347.500	22.191	0.099
347.600	25.248	0.099
347.700	23.874	0.099
347.800	52.669	0.099
347.900	33.089	0.099
348.000	34.942	0.099
348.100	26.543	0.099
348.200	52.828	0.099
348.300	25.029	0.099
348.400	38.116	0.099
348.500	33.635	0.099
348.600	30.482	0.099
348.700	38.597	0.099
348.800	36.606	0.099
348.900	30.303	0.099
349.000	31.515	0.099
349.100	31.963	0.099
349.200	22.370	0.099
349.300	50.888	0.099
349.400	28.596	0.099
349.500	26.854	0.099
349.600	38.867	0.099
349.700	37.683	0.099
349.800	31.569	0.099
349.900	37.176	0.099
350.000	34.524	0.099
350.100	39.219	0.099
350.200	31.649	0.099
350.300	35.190	0.099
350.400	35.565	0.099
350.500	38.258	0.099
350.600	24.129	0.099
350.700	32.187	0.099
350.800	40.750	0.099
350.900	38.706	0.099
351.000	31.038	0.099
351.100	30.676	0.099
351.200	43.572	0.099
351.300	24.877	0.099
351.400	45.923	0.099
351.500	26.382	0.099
351.600	34.708	0.099
351.700	39.163	0.099
351.800	39.042	0.099
351.900	32.824	0.099
352.000	23.440	0.099
352.100	42.030	0.099
352.200	37.028	0.099
352.300	40.270	0.099
352.400	35.268	0.099
352.500	35.150	0.099
352.600	26.621	0.099
352.700	33.420	0.099
352.800	34.158	0.099
352.900	38.938	0.099
353.000	38.685	0.099
353.100	26.330	0.099
353.200	27.338	0.099
353.300	29.651	0.099
353.400	32.568	0.099
353.500	39.845	0.099
353.600	46.240	0.099
353.700	34.805	0.099
353.800	36.279	0.099
353.900	38.033	0.099
354.000	28.302	0.099
354.100	38.463	0.099
354.200	18.228	0.099
354.300	29.945	0.099
354.400	36.859	0.099
354.500	40.464	0.099
354.600	39.704	0.099
354.700	26.607	0.099
354.800	43.772	0.099
354.900	32.103	0.099
355.000	27.986	0.099
355.100	35.539	0.099
355.200	35.061	0.099
355.300	31.221	0.099
355.400	34.336	0.099
355.500	35.393	0.099
355.600	20.828	0.099
355.700	36.833	0.099
355.800	46.555	0.099
355.900	35.648	0.099
356.000	32.904	0.099
356.100	37.274	0.099
356.200	36.307	0.099
356.300	32.500	0.099
356.400	30.878	0.099
356.500	29.737	0.099
356.600	33.743	0.099
356.700	6.433	0.099
356.800	39.585	0.099
356.900	50.724	0.099
357.000	35.636	0.099
357.100	22.527	0.099
357.200	36.334	0.099
357.300	24.415	0.099
357.400	32.835	0.099
357.500	40.992	0.099
357.600	29.934	0.099
357.700	34.018	0.099
357.800	32.041	0.099
357.900	36.180	0.099
358.000	26.134	0.099
358.100	32.649	0.099
358.200	32.928	0.099
358.300	37.911	0.099
358.400	37.060	0.099
358.500	21.357	0.099
358.600	38.423	0.099
358.700	35.994	0.099
358.800	36.380	0.099
358.900	42.912	0.099
359.000	27.113	0.099
359.100	26.232	0.099
359.200	21.873	0.099
359.300	19.375	0.099
359.400	26.587	0.099
359.500	45.097	0.099
359.600	33.825	0.099
359.700	34.702	0.099
359.800	27.480	0.099
359.900	36.735	0.099
360.000	27.335	0.099
360.100	19.633	0.099
360.200	50.018	0.099
360.300	46.094	0.099
360.400	27.024	0.099
360.500	36.830	0.099
360.600	20.896	0.099
360.700	25.244	0.099
360.800	51.198	0.099
360.900	31.096	0.099
361.000	24.859	0.099
361.100	33.219	0.099
361.200	41.687	0.099
361.300	31.807	0.099
361.400	30.876	0.099
361.500	29.095	0.099
361.600	44.642	0.099
361.700	38.761	0.099
361.800	41.321	0.099
361.900	40.522	0.099
362.000	23.385	0.099
362.100	32.266	0.099
362.200	35.310	0.099
362.300	28.614	0.099
362.400	40.328	0.099
362.500	35.417	0.099
362.600	37.112	0.099
362.700	39.647	0.099
362.800	36.717	0.099
362.900	33.528	0.099
363.000	36.187	0.099
363.100	35.690	0.099
363.200	24.719	0.099
363.300	28.131	0.099
363.400	45.339	0.099
363.500	15.520	0.099
363.600	41.126	0.099
363.700	31.035	0.099
363.800	32.575	0.099
363.900	38.252	0.099
364.000	27.640	0.099
364.100	33.766	0.099
364.200	27.789	0.099
364.300	42.881	0.099
364.400	40.805	0.099
364.500	30.368	0.099
364.600	29.382	0.099
364.700	33.845	0.099
364.800	28.753	0.099
364.900	21.393	0.099
365.000	39.517	0.099
365.100	35.208	0.099
365.200	38.751	0.099
365.300	32.679	0.099
365.400	26.163	0.099
365.500	33.842	0.099
365.600	35.732	0.099
365.700	31.455	0.099
365.800	38.573	0.099
365.900	43.220	0.099
366.000	22.526	0.099
366.100	31.757	0.099
366.200	32.513	0.099
366.300	30.446	0.099
366.400	37.261	0.099
366.500	37.370	0.099
366.600	27.686	0.099
366.700	34.759	0.099
366.800	19.882	0.099
366.900	50.696	0.099
367.000	38.415	0.099
367.100	38.479	0.099
367.200	36.830	0.099
367.300	33.310	0.099
367.400	27.846	0.099
367.500	38.686	0.099
367.600	17.192	0.099
367.700	34.964	0.099
367.800	28.168	0.099
367.900	30.816	0.099
368.000	36.970	0.099
368.100	17.724	0.099
368.200	31.880	0.099
368.300	37.841	0.099
368.400	32.488	0.099
368.500	31.171	0.099
368.600	25.680	0.099
368.700	45.366	0.099
368.800	27.711	0.099
368.900	38.214	0.099
369.000	28.499	0.099
369.100	34.894	0.099
369.200	41.502	0.099
369.300	38.569	0.099
369.400	39.190	0.099
369.500	35.764	0.099
369.600	26.671	0.099
369.700	28.366	0.099
369.800	42.178	0.099
369.900	32.502	0.099
370.000	18.528	0.099
370.100	28.647	0.099
370.200	44.965	0.099
370.300	30.916	0.099
370.400	22.588	0.099
370.500	23.606	0.099
370.600	38.140	0.099
370.700	33.030	0.099
370.800	27.206	0.099
370.900	27.147	0.099
371.000	31.213	0.099
371.100	41.315	0.099
371.200	26.630	0.099
371.300	26.558	0.099
371.400	28.932	0.099
371.500	38.173	0.099
371.600	36.058	0.099
371.700	28.423	0.099
371.800	35.730	0.099
371.900	33.913	0.099
372.000	38.858	0.099
372.100	29.712	0.099
372.200	31.983	0.100
372.300	32.439	0.099
372.400	30.027	0.099
372.500	29.179	0.099
372.600	12.260	0.099
372.700	43.017	0.099
372.800	13.603	0.099
372.900	40.542	0.099
373.000	33.948	0.099
373.100	23.149	0.099
373.200	37.309	0.099
373.300	33.995	0.099
373.400	32.034	0.099
373.500	34.831	0.099
373.600	24.042	0.099
373.700	36.564	0.099
373.800	26.643	0.099
373.900	29.643	0.099
374.000	39.702	0.099
374.100	27.886	0.099
374.200	36.412	0.099
374.300	33.337	0.099
374.400	40.370	0.099
374.500	36.060	0.099
374.600	33.124	0.099
374.700	47.484	0.099
374.800	20.101	0.099
374.900	32.858	0.099
375.000	31.307	0.099
375.100	38.549	0.099
375.200	31.874	0.099
375.300	29.885	0.099
375.400	33.625	0.099
375.500	35.749	0.099
375.600	45.701	0.099
375.700	21.918	0.099
375.800	24.173	0.099
375.900	28.093	0.099
376.000	32.276	0.099
376.100	28.351	0.099
376.200	41.016	0.099
376.300	40.001	0.099
376.400	33.567	0.099
376.500	22.482	0.099
376.600	21.615	0.099
376.700	38.197	0.099
376.800	23.530	0.099
376.900	46.783	0.099
377.000	40.290	0.099
377.100	40.961	0.099
377.200	38.118	0.099
377.300	23.707	0.099
377.400	19.595	0.099
377.500	37.124	0.099
377.600	35.993	0.099
377.700	19.912	0.099
377.800	40.284	0.099
377.900	31.083	0.099
378.000	37.453	0.099
378.100	31.094	0.099
378.200	28.819	0.099
378.300	25.588	0.099
378.400	31.495	0.099
378.500	26.274	0.099
378.600	40.858	0.099
378.700	32.082	0.099
378.800	29.556	0.099
378.900	22.469	0.099
379.000	26.635	0.099
379.100	34.538	0.099
379.200	21.369	0.099
379.300	34.480	0.099
379.400	31.003	0.099
379.500	29.328	0.099
379.600	30.791	0.099
379.700	37.970	0.099
379.800	25.310	0.099
379.900	17.074	0.099
380.000	28.208	0.099
380.100	42.783	0.099
380.200	27.189	0.099
380.300	35.974	0.099
380.400	37.787	0.099
380.500	21.829	0.099
380.600	40.737	0.099
380.700	28.416	0.099
380.800	23.351	0.099
380.900	28.890	0.099
381.000	25.701	0.099
381.100	28.669	0.099
381.200	31.814	0.099
381.300	31.992	0.099
381.400	45.728	0.099
381.500	33.707	0.099
381.600	11.220	0.099
381.700	26.258	0.099
381.800	28.125	0.099
381.900	30.624	0.099
382.000	26.872	0.099
382.100	29.652	0.099
382.200	27.229	0.099
382.300	8.765	0.099
382.400	35.314	0.099
382.500	26.765	0.099
382.600	38.037	0.099
382.700	37.709	0.099
382.800	39.447	0.099
382.900	33.132	0.099
383.000	21.470	0.099
383.100	21.632	0.099
383.200	31.462	0.099
383.300	23.804	0.099
383.400	31.715	0.100
383.500	18.246	0.099
383.600	44.473	0.099
383.700	27.929	0.100
383.800	26.266	0.099
383.900	31.075	0.100
384.000	31.560	0.099
384.100	40.105	0.099
384.200	29.779	0.099
384.300	25.733	0.099
384.400	27.572	0.099
384.500	27.850	0.099
384.600	20.298	0.099
384.700	33.578	0.099
384.800	22.030	0.100
384.900	18.338	0.099
385.000	27.769	0.099
385.100	42.117	0.099
385.200	26.038	0.099
385.300	25.113	0.099
385.400	30.611	0.099
385.500	29.988	0.099
385.600	30.064	0.099
385.700	40.428	0.099
385.800	20.095	0.099
385.900	33.238	0.099
386.000	35.692	0.099
386.100	26.329	0.099
386.200	24.133	0.099
386.300	27.567	0.099
386.400	21.439	0.099
386.500	32.224	0.099
386.600	30.342	0.099
386.700	25.852	0.099
386.800	28.677	0.099
386.900	22.904	0.099
387.000	29.622	0.099
387.100	29.596	0.099
387.200	29.458	0.100
387.300	28.314	0.099
387.400	36.627	0.099
387.500	30.740	0.099
387.600	29.366	0.099
387.700	28.927	0.099
387.800	33.979	0.099
387.900	29.455	0.099
388.000	33.687	0.099
388.100	26.722	0.099
388.200	22.807	0.099
388.300	18.525	0.099
388.400	35.122	0.099
388.500	32.322	0.099
388.600	26.897	0.099
388.700	30.443	0.099
388.800	31.768	0.100
388.900	36.683	0.100
389.000	25.528	0.099
389.100	22.676	0.099
389.200	22.437	0.099
389.300	19.859	0.099
389.400	25.014	0.100
389.500	36.263	0.100
389.600	38.470	0.099
389.700	30.968	0.100
389.800	36.433	0.099
389.900	19.874	0.099
390.000	31.356	0.099
390.100	24.691	0.099
390.200	29.733	0.099
390.300	25.631	0.099
390.400	25.280	0.100
390.500	33.534	0.099
390.600	28.346	0.099
390.700	21.918	0.099
390.800	24.404	0.099
390.900	19.552	0.100
391.000	24.154	0.099
391.100	26.936	0.099
391.200	21.663	0.099
391.300	3.863	0.099
391.400	25.748	0.099
391.500	17.307	0.099
391.600	16.933	0.099
391.700	-6.350	0.099
391.800	7.060	0.099
391.900	14.470	0.099
392.000	18.813	0.099
392.100	4.986	0.099
392.200	-1.127	0.099
392.300	9.016	0.099
392.400	-10.797	0.099
392.500	11.338	0.099
392.600	-2.399	0.100
392.700	-6.827	0.099
392.800	14.440	0.099
392.900	-5.375	0.099
393.000	1.091	0.099
393.100	-0.304	0.099
393.200	-6.073	0.099
393.300	-5.318	0.100
393.400	-0.428	0.099
393.500	-9.887	0.099
393.600	5.309	0.099
393.700	-9.725	0.099
393.800	9.044	0.099
393.900	-0.496	0.099
394.000	10.281	0.099
394.100	-2.246	0.099
394.200	-2.707	0.099
394.300	-12.021	0.099
394.400	-2.376	0.099
394.500	-10.883	0.099
394.600	-3.240	0.099
394.700	0.201	0.099
394.800	2.288	0.100
394.900	-3.140	0.099
395.000	-2.119	0.099
395.100	-9.976	0.099
395.200	-6.387	0.099
395.300	-8.254	0.099
395.400	-9.373	0.099
395.500	-8.616	0.099
395.600	-5.117	0.099
395.700	-7.091	0.099
395.800	-2.225	0.099
395.900	-13.252	0.099
396.000	-6.052	0.099
396.100	1.747	0.099
396.200	-4.217	0.099
396.300	-6.891	0.099
396.400	-4.949	0.099
396.500	-7.881	0.099
396.600	-5.805	0.099
396.700	-9.273	0.099
396.800	-13.184	0.099
396.900	3.829	0.099
397.000	-13.971	0.099
397.100	-16.632	0.099
397.200	-8.455	0.099
397.300	15.859	0.099
397.400	-22.709	0.099
397.500	4.884	0.099
397.600	-18.012	0.099
397.700	-8.115	0.099
397.800	-9.141	0.099
397.900	-13.436	0.099
398.000	6.691	0.099
398.100	-0.060	0.099
398.200	-21.663	0.099
398.300	2.081	0.099
398.400	-3.757	0.099
398.500	-13.059	0.099
398.600	-7.070	0.099
398.700	-7.397	0.099
398.800	-7.437	0.099
398.900	-13.351	0.099
399.000	-12.937	0.099
399.100	-6.939	0.099
399.200	-4.275	0.099
399.300	-9.591	0.099
399.400	6.864	0.099
399.500	-16.912	0.099
399.600	-2.955	0.099
399.700	-3.656	0.099
399.800	-0.069	0.099
399.900	-17.599	0.099
400.000	-10.670	0.099
400.100	-12.162	0.099
400.200	-1.608	0.099
400.300	-3.745	0.099
400.400	-10.785	0.099
400.500	-2.172	0.099
400.600	-16.147	0.099
400.700	-9.616	0.099
400.800	-14.763	0.099
400.900	-7.884	0.099
401.000	-21.262	0.099
401.100	-2.970	0.099
401.200	-8.240	0.099
401.300	-15.263	0.099
401.400	-12.033	0.099
401.500	-14.702	0.099
401.600	-2.680	0.099
401.700	1.248	0.099
401.800	-11.265	0.099
401.900	-10.246	0.099
402.000	-19.828	0.099
402.100	-8.136	0.099
402.200	-23.170	0.100
402.300	-8.571	0.099
402.400	1.866	0.099
402.500	-4.347	0.099
402.600	-19.559	0.099
402.700	-29.075	0.099
402.800	-9.536	0.099
402.900	-11.231	0.099
403.000	-12.628	0.099
403.100	-3.445	0.100
403.200	-28.061	0.099
403.300	-4.264	0.099
403.400	5.229	0.099
403.500	-16.875	0.100
403.600	-16.706	0.099
403.700	-14.356	0.099
403.800	-18.385	0.100
403.900	-10.983	0.099
404.000	-17.367	0.100
404.100	6.737	0.099
404.200	-9.124	0.099
404.300	-16.403	0.099
404.400	-14.047	0.099
404.500	-27.294	0.099
404.600	-4.616	0.099
404.700	-11.497	0.099
404.800	-13.941	0.099
404.900	-17.681	0.099
405.000	-19.826	0.099
405.100	-12.118	0.099
405.200	-12.023	0.099
405.300	-18.828	0.099
405.400	-3.493	0.099
405.500	-10.521	0.099
405.600	-21.521	0.100
405.700	-11.956	0.099
405.800	-15.308	0.099
405.900	-7.394	0.099
406.000	-17.451	0.100
406.100	-14.092	0.099
406.200	-13.063	0.099
406.300	-12.909	0.099
406.400	-11.756	0.099
406.500	-32.250	0.099
406.600	-8.303	0.099
406.700	-10.022	0.099
406.800	-25.800	0.099
406.900	-9.677	0.099
407.000	-6.428	0.099
407.100	-18.136	0.099
407.200	-6.249	0.099
407.300	-2.808	0.099
407.400	-11.155	0.099
407.500	-25.778	0.099
407.600	-13.432	0.099
407.700	-8.442	0.099
407.800	-17.669	0.099
407.900	-31.466	0.099
408.000	-25.829	0.099
408.100	-9.725	0.099
408.200	-22.085	0.100
408.300	-10.058	0.099
408.400	-21.358	0.099
408.500	-10.429	0.099
408.600	-12.739	0.100
408.700	-17.782	0.099
408.800	-6.426	0.100
408.900	-15.821	0.099
409.000	-17.919	0.099
409.100	-9.807	0.099
409.200	-21.590	0.099
409.300	-12.907	0.099
409.400	-12.057	0.099
409.500	-20.275	0.099
409.600	-9.383	0.099
409.700	-30.129	0.099
409.800	-24.670	0.099
409.900	-2.414	0.099
410.000	-27.078	0.099
410.100	-12.472	0.099
410.200	-14.799	0.100
410.300	-12.330	0.099
410.400	-25.235	0.099
410.500	-8.517	0.099
410.600	-31.593	0.099
410.700	-3.508	0.099
410.800	-20.716	0.099
410.900	-8.763	0.099
411.000	-7.609	0.099
411.100	-21.387	0.099
411.200	-29.143	0.099
411.300	-21.776	0.099
411.400	-12.335	0.099
411.500	-22.071	0.099
411.600	-19.642	0.099
411.700	-15.917	0.099
411.800	-15.587	0.100
411.900	-19.665	0.099
412.000	-17.005	0.099
412.100	-26.845	0.099
412.200	-15.177	0.099
412.300	-22.763	0.099
412.400	-12.662	0.099
412.500	-13.813	0.099
412.600	-18.163	0.099
412.700	-17.642	0.100
412.800	-15.771	0.099
412.900	-12.676	0.100
413.000	-12.652	0.099
413.100	-29.053	0.100
413.200	-29.223	0.099
413.300	-15.958	0.099
413.400	-11.968	0.099
413.500	-19.216	0.100
413.600	-9.793	0.099
413.700	-7.751	0.099
413.800	-16.808	0.099
413.900	-17.703	0.099
414.000	-22.935	0.099
414.100	-18.048	0.099
414.200	-22.092	0.099
414.300	-20.492	0.099
414.400	-10.569	0.099
414.500	-10.065	0.100
414.600	-24.910	0.099
414.700	-12.927	0.099
414.800	-14.087	0.099
414.900	-19.614	0.099
415.000	-14.911	0.099
415.100	-28.866	0.099
415.200	-18.499	0.099
415.300	-23.617	0.099
415.400	-16.637	0.099
415.500	-1.589	0.099
415.600	-16.495	0.099
415.700	-16.664	0.099
415.800	-30.506	0.099
415.900	-18.484	0.099
416.000	4.217	0.099
416.100	-20.869	0.099
416.200	-20.087	0.099
416.300	-13.982	0.099
416.400	-22.711	0.099
416.500	-19.427	0.100
416.600	-8.083	0.099
416.700	-29.208	0.099
416.800	-10.149	0.099
416.900	-17.698	0.099
417.000	-16.422	0.099
417.100	-17.849	0.099
417.200	-19.639	0.099
417.300	-25.823	0.099
417.400	-7.305	0.099
417.500	-14.988	0.099
417.600	-22.252	0.099
417.700	-16.158	0.099
417.800	-19.357	0.099
417.900	-10.498	0.099
418.000	-14.682	0.099
418.100	-34.519	0.099
418.200	-13.354	0.099
418.300	-28.494	0.099
418.400	-14.574	0.099
418.500	-8.660	0.099
418.600	-8.254	0.099
418.700	-11.906	0.099
418.800	-34.080	0.099
418.900	-33.470	0.099
419.000	-17.549	0.099
419.100	-11.931	0.099
419.200	-19.986	0.099
419.300	-16.300	0.099
419.400	-30.972	0.099
419.500	-14.137	0.099
419.600	-26.588	0.099
419.700	-17.130	0.100
419.800	-8.925	0.099
419.900	-15.651	0.099
420.000	-12.965	0.099
420.100	-25.711	0.099
420.200	-18.310	0.099
420.300	-5.928	0.099
420.400	-12.761	0.100
420.500	-14.224	0.099
420.600	-23.157	0.099
420.700	-15.539	0.099
420.800	-10.183	0.099
420.900	-17.788	0.099
421.000	-24.474	0.099
421.100	-22.660	0.099
421.200	-18.808	0.099
421.300	-9.535	0.099
421.400	-14.414	0.099
421.500	-20.090	0.099
421.600	-16.664	0.099
421.700	-9.084	0.099
421.800	-10.462	0.100
421.900	-12.068	0.099
422.000	-23.481	0.099
422.100	-13.067	0.099
422.200	-19.579	0.099
422.300	-12.804	0.099
422.400	-18.086	0.099
422.500	-21.832	0.099
422.600	-22.552	0.099
422.700	3.111	0.099
422.800	-8.785	0.099
422.900	-18.220	0.099
423.000	-13.419	0.099
423.100	-14.005	0.099
423.200	-24.281	0.099
423.300	-5.717	0.099
423.400	-23.517	0.099
423.500	-20.585	0.099
423.600	-4.659	0.099
423.700	-14.118	0.099
423.800	-21.783	0.099
423.900	-9.564	0.099
424.000	-6.690	0.099
424.100	-20.144	0.099
424.200	-14.791	0.099
424.300	-21.304	0.099
424.400	-9.525	0.099
424.500	-40.906	0.099
424.600	-17.790	0.099
424.700	-13.904	0.099
424.800	-29.871	0.099
424.900	-13.656	0.099
425.000	-9.657	0.099
425.100	5.508	0.099
425.200	-6.819	0.099
425.300	-12.978	0.099
425.400	-7.884	0.099
425.500	-7.647	0.099
425.600	-27.705	0.099
425.700	-13.972	0.099
425.800	-21.001	0.099
425.900	-9.623	0.099
426.000	-9.843	0.099
426.100	-13.255	0.099
426.200	-21.767	0.099
426.300	-8.460	0.099
426.400	-26.873	0.099
426.500	-23.597	0.099
426.600	-19.752	0.099
426.700	-17.545	0.099
426.800	-7.217	0.099
426.900	-13.357	0.099
427.000	-15.755	0.099
427.100	-16.770	0.099
427.200	-9.805	0.099
427.300	-22.411	0.099
427.400	-17.150	0.099
427.500	-18.758	0.100
427.600	-13.271	0.099
427.700	-15.206	0.099
427.800	-28.609	0.099
427.900	-3.324	0.099
428.000	-19.272	0.099
428.100	-28.984	0.099
428.200	-3.161	0.099
428.300	-18.294	0.099
428.400	-24.793	0.099
428.500	-13.158	0.099
428.600	-10.934	0.099
428.700	-15.110	0.099
428.800	-14.877	0.099
428.900	-11.727	0.099
429.000	-18.881	0.099
429.100	-15.193	0.099
429.200	-12.326	0.099
429.300	-14.695	0.099
429.400	-13.851	0.099
429.500	-22.968	0.099
429.600	-4.612	0.099
429.700	-5.940	0.099
429.800	-20.967	0.099
429.900	-9.355	0.099
430.000	-13.446	0.099
430.100	-11.785	0.099
430.200	-16.698	0.099
430.300	-11.354	0.099
430.400	-13.230	0.099
430.500	-28.553	0.099
430.600	-7.581	0.099
430.700	-6.552	0.099
430.800	-19.938	0.099
430.900	-28.995	0.099
431.000	-13.192	0.099
431.100	-4.393	0.099
431.200	-20.826	0.099
431.300	-17.776	0.099
431.400	-8.557	0.099
431.500	-12.574	0.099
431.600	1.678	0.099
431.700	-13.531	0.099
431.800	-17.636	0.099
431.900	-6.789	0.099
432.000	-13.481	0.099
432.100	-20.107	0.099
432.200	-10.743	0.099
432.300	-13.307	0.099
432.400	-15.890	0.099
432.500	-21.375	0.099
432.600	-8.241	0.099
432.700	-14.716	0.099
432.800	-13.481	0.099
432.900	-18.694	0.099
433.000	-13.648	0.099
433.100	-7.268	0.099
433.200	-12.346	0.099
433.300	-11.507	0.099
433.400	-23.417	0.099
433.500	-13.797	0.099
433.600	-19.786	0.099
433.700	-19.850	0.099
433.800	0.170	0.099
433.900	-8.899	0.099
434.000	-24.060	0.099
434.100	-13.897	0.099
434.200	-8.811	0.099
434.300	-15.958	0.099
434.400	-10.019	0.099
434.500	-27.587	0.099
434.600	-5.414	0.099
434.700	-5.208	0.099
434.800	-14.210	0.100
434.900	-8.741	0.099
435.000	-8.294	0.099
435.100	-16.510	0.099
435.200	-18.341	0.099
435.300	-19.742	0.099
435.400	-11.539	0.099
435.500	-21.107	0.099
435.600	-2.477	0.099
435.700	-9.442	0.099
435.800	-6.841	0.099
435.900	-5.657	0.099
436.000	-14.017	0.099
436.100	-19.087	0.099
436.200	-16.660	0.099
436.300	-11.226	0.099
436.400	-14.123	0.099
436.500	-10.734	0.099
436.600	-12.338	0.099
436.700	-18.158	0.099
436.800	-16.304	0.099
436.900	-22.195	0.100
437.000	-22.737	0.099
437.100	-3.614	0.099
437.200	-17.869	0.099
437.300	-10.448	0.099
437.400	-12.091	0.099
437.500	-17.383	0.099
437.600	-9.798	0.099
437.700	-26.877	0.099
437.800	-2.050	0.099
437.900	-9.736	0.099
438.000	-9.313	0.099
438.100	-9.610	0.099
438.200	-22.422	0.099
438.300	-5.566	0.099
438.400	-22.739	0.099
438.500	-18.331	0.099
438.600	-4.087	0.099
438.700	-13.373	0.099
438.800	-10.165	0.099
438.900	-15.723	0.099
439.000	-7.751	0.099
439.100	-28.345	0.099
439.200	-13.076	0.099
439.300	-20.458	0.099
439.400	-14.268	0.099
439.500	-13.286	0.099
439.600	-12.778	0.099
439.700	-18.342	0.099
439.800	-24.303	0.099
439.900	-17.006	0.099
440.000	-0.436	0.099
440.100	-4.597	0.099
440.200	-10.814	0.099
440.300	-25.378	0.099
440.400	-14.100	0.099
440.500	-13.705	0.099
440.600	-5.082	0.100
440.700	-15.443	0.099
440.800	-16.672	0.099
440.900	-16.422	0.099
441.000	-4.907	0.099
441.100	-14.878	0.099
441.200	-6.701	0.099
441.300	-8.842	0.099
441.400	-21.802	0.099
441.500	-12.075	0.099
441.600	-2.155	0.099
441.700	-11.936	0.099
441.800	-6.805	0.099
441.900	-16.762	0.100
442.000	-19.385	0.099
442.100	-9.619	0.099
442.200	-3.458	0.100
442.300	-6.244	0.099
442.400	-22.223	0.099
442.500	-10.022	0.099
442.600	-21.761	0.099
442.700	-9.758	0.099
442.800	-4.643	0.099
442.900	-19.373	0.099
443.000	-13.570	0.099
443.100	-0.011	0.099
443.200	-13.762	0.099
443.300	-7.640	0.099
443.400	-11.804	0.099
443.500	-26.144	0.099
443.600	-9.470	0.099
443.700	-7.099	0.099
443.800	-37.255	0.099
443.900	-6.354	0.099
444.000	-9.487	0.100
444.100	-8.588	0.099
444.200	-14.512	0.099
444.300	-6.230	0.099
444.400	-16.599	0.099
444.500	12.366	0.099
444.600	-22.611	0.099
444.700	-3.790	0.099
444.800	-1.107	0.099
444.900	-24.353	0.099
445.000	-13.966	0.100
445.100	4.337	0.099
445.200	-15.360	0.099
445.300	-22.581	0.099
445.400	-10.563	0.099
445.500	-3.590	0.099
445.600	-13.107	0.099
445.700	-9.317	0.099
445.800	-6.260	0.099
445.900	-3.426	0.099
446.000	-10.156	0.099
446.100	-7.694	0.099
446.200	-13.266	0.099
446.300	-22.443	0.099
446.400	0.203	0.099
446.500	-2.435	0.099
446.600	-8.365	0.099
446.700	-12.072	0.099
446.800	-8.501	0.099
446.900	-11.651	0.099
447.000	-13.055	0.099
447.100	-7.978	0.099
447.200	-12.955	0.099
447.300	-19.363	0.099
447.400	-9.122	0.100
447.500	-8.510	0.099
447.600	-5.634	0.099
447.700	-17.355	0.099
447.800	-8.350	0.099
447.900	-12.143	0.099
448.000	-19.834	0.100
448.100	-10.336	0.099
448.200	-12.667	0.099
448.300	-12.185	0.099
448.400	-0.197	0.099
448.500	-21.794	0.099
448.600	-9.161	0.100
448.700	-17.698	0.099
448.800	-18.578	0.099
448.900	-15.118	0.099
449.000	-12.021	0.099
449.100	-12.631	0.099
449.200	3.494	0.100
449.300	-5.412	0.099
449.400	-12.282	0.099
449.500	-18.158	0.099
449.600	-10.986	0.099
449.700	-4.528	0.099
449.800	-3.466	0.099
449.900	-5.010	0.099
450.000	-20.426	0.099
450.100	-20.066	0.099
450.200	-0.464	0.099
450.300	-12.493	0.099
450.400	-6.327	0.099
450.500	-10.933	0.099
450.600	-7.750	0.099
450.700	4.882	0.099
450.800	-15.050	0.099
450.900	2.199	0.099
451.000	-21.679	0.100
451.100	-7.848	0.099
451.200	-15.744	0.099
451.300	-16.363	0.099
451.400	-6.927	0.099
451.500	-0.212	0.099
451.600	-18.508	0.099
451.700	-9.371	0.099
451.800	-4.494	0.099
451.900	-19.586	0.099
452.000	-4.754	0.099
452.100	-15.414	0.099
452.200	-18.814	0.099
452.300	0.483	0.099
452.400	-14.250	0.099
452.500	-10.162	0.099
452.600	-3.107	0.099
452.700	-11.285	0.099
452.800	-5.730	0.099
452.900	-11.199	0.099
453.000	-11.819	0.099
453.100	-2.949	0.099
453.200	-3.443	0.100
453.300	-18.291	0.099
453.400	-11.479	0.099
453.500	-9.712	0.099
453.600	-11.626	0.100
453.700	-10.658	0.099
453.800	-11.400	0.099
453.900	-1.932	0.099
454.000	-8.633	0.099
454.100	-6.183	0.099
454.200	-8.631	0.099
454.300	-20.565	0.099
454.400	3.737	0.099
454.500	-13.237	0.099
454.600	-8.660	0.099
454.700	-8.032	0.099
454.800	-10.071	0.099
454.900	-4.623	0.100
455.000	-17.145	0.099
455.100	-14.295	0.099
455.200	-5.676	0.099
455.300	-5.411	0.099
455.400	-12.483	0.099
455.500	-9.801	0.099
455.600	-9.997	0.099
455.700	-15.459	0.099
455.800	-15.546	0.099
455.900	-7.802	0.099
456.000	-3.230	0.099
456.100	-7.379	0.099
456.200	-2.092	0.099
456.300	-9.613	0.099
456.400	-4.854	0.099
456.500	3.084	0.100
456.600	-3.965	0.099
456.700	-1.717	0.099
456.800	-14.607	0.099
456.900	-7.045	0.099
457.000	1.647	0.099
457.100	-8.684	0.099
457.200	-2.479	0.099
457.300	-17.850	0.099
457.400	-4.862	0.099
457.500	-11.045	0.100
457.600	-9.396	0.099
457.700	-14.032	0.099
457.800	-7.861	0.099
457.900	-2.553	0.099
458.000	-15.018	0.099
458.100	-16.107	0.099
458.200	-10.540	0.099
458.300	-13.764	0.099
458.400	-7.655	0.099
458.500	-9.543	0.099
458.600	-18.952	0.099
458.700	-3.705	0.099
458.800	-1.030	0.100
458.900	-10.287	0.099
459.000	0.698	0.099
459.100	-13.271	0.099
459.200	-7.014	0.099
459.300	-5.563	0.099
459.400	-16.970	0.099
459.500	-13.576	0.100
459.600	-1.005	0.099
459.700	-6.961	0.100
459.800	-9.578	0.099
459.900	-17.612	0.099
460.000	-0.049	0.099
460.100	-10.758	0.099
460.200	-12.635	0.100
460.300	-8.970	0.099
460.400	-1.558	0.099
460.500	-18.162	0.099
460.600	2.894	0.099
460.700	-9.424	0.099
460.800	-14.517	0.099
460.900	-13.615	0.099
461.000	0.457	0.100
461.100	-4.399	0.099
461.200	-15.207	0.099
461.300	3.716	0.099
461.400	-21.225	0.100
461.500	-19.990	0.099
461.600	-8.917	0.099
461.700	-15.751	0.099
461.800	-17.140	0.099
461.900	-5.671	0.099
462.000	-11.305	0.099
462.100	3.350	0.099
462.200	-13.065	0.099
462.300	-2.280	0.099
462.400	-12.263	0.099
462.500	-2.627	0.099
462.600	-15.934	0.099
462.700	-11.793	0.099
462.800	-17.393	0.099
462.900	-11.616	0.099
463.000	-4.993	0.099
463.100	-4.805	0.099
463.200	-9.952	0.099
463.300	-13.616	0.099
463.400	5.229	0.099
463.500	-9.150	0.099
463.600	-12.226	0.099
463.700	-17.808	0.100
463.800	2.085	0.099
463.900	-12.920	0.099
464.000	-2.058	0.100
464.100	-14.914	0.099
464.200	-3.609	0.099
464.300	-16.855	0.100
464.400	-2.167	0.099
464.500	-7.652	0.099
464.600	-14.991	0.099
464.700	-13.317	0.099
464.800	-14.119	0.099
464.900	2.654	0.099
465.000	-8.116	0.100
465.100	-10.209	0.100
465.200	-11.958	0.099
465.300	-1.141	0.099
465.400	-9.861	0.099
465.500	-6.593	0.099
465.600	-4.984	0.100
465.700	-1.734	0.099
465.800	2.869	0.099
465.900	1.309	0.099
466.000	-22.034	0.099
466.100	-7.200	0.099
466.200	-3.576	0.099
466.300	-16.354	0.099
466.400	9.731	0.099
466.500	-17.005	0.100
466.600	-10.424	0.099
466.700	-13.744	0.099
466.800	-1.858	0.099
466.900	-8.533	0.100
467.000	-18.128	0.099
467.100	-6.769	0.099
467.200	-10.219	0.099
467.300	-5.361	0.100
467.400	-9.288	0.099
467.500	-5.468	0.099
467.600	-10.534	0.100
467.700	-16.728	0.099
467.800	-9.919	0.099
467.900	-0.254	0.100
468.000	-2.385	0.099
468.100	-14.556	0.100
468.200	-9.001	0.099
468.300	-2.450	0.099
468.400	-13.836	0.100
468.500	-17.817	0.099
468.600	12.012	0.099
468.700	-10.887	0.099
468.800	-11.846	0.099
468.900	0.392	0.099
469.000	-5.735	0.100
469.100	-5.217	0.100
469.200	-12.241	0.099
469.300	-10.226	0.100
469.400	-20.681	0.100
469.500	-2.062	0.100
469.600	6.037	0.100
469.700	-6.145	0.100
469.800	-5.198	0.099
469.900	-16.608	0.099
470.000	-10.375	0.099
470.100	-3.289	0.100
470.200	-12.735	0.099
470.300	-11.047	0.099
470.400	-4.029	0.099
470.500	-3.100	0.100
470.600	-0.351	0.099
470.700	-10.772	0.100
470.800	-9.880	0.100
470.900	-3.759	0.100
471.000	-4.703	0.100
471.100	-6.576	0.100
471.200	-11.562	0.099
471.300	-7.753	0.100
471.400	-21.876	0.099
471.500	-8.147	0.099
471.600	-2.463	0.100
471.700	-9.805	0.099
471.800	-6.674	0.099
471.900	-15.063	0.100
472.000	2.414	0.100
472.100	-16.008	0.099
472.200	-12.992	0.099
472.300	-12.039	0.099
472.400	3.776	0.099
472.500	2.040	0.100
472.600	-10.129	0.099
472.700	-7.519	0.100
472.800	-0.265	0.099
472.900	-13.728	0.100
473.000	-3.680	0.099
473.100	-12.017	0.099
473.200	1.546	0.099
473.300	-14.716	0.100
473.400	-5.312	0.100
473.500	-5.008	0.099
473.600	-10.064	0.100
473.700	-2.059	0.099
473.800	-17.660	0.100
473.900	-13.391	0.099
474.000	-3.552	0.100
474.100	-11.943	0.099
474.200	-13.261	0.099
474.300	-2.920	0.099
474.400	-13.687	0.099
474.500	1.849	0.099
474.600	-8.815	0.099
474.700	-18.157	0.099
474.800	-3.348	0.100
474.900	0.541	0.099
475.000	-4.136	0.099
475.100	-2.677	0.099
475.200	2.665	0.099
475.300	4.586	0.099
475.400	-8.395	0.099
475.500	-7.620	0.099
475.600	0.215	0.099
475.700	-0.245	0.099
475.800	-12.521	0.099
475.900	-5.900	0.099
476.000	-14.147	0.100
476.100	-6.518	0.099
476.200	1.190	0.099
476.300	-16.755	0.099
476.400	-5.303	0.099
476.500	-14.107	0.099
476.600	-6.242	0.099
476.700	-13.927	0.099
476.800	-4.391	0.099
476.900	-8.373	0.100
477.000	-16.533	0.099
477.100	-6.633	0.099
477.200	-4.797	0.099
477.300	1.767	0.099
477.400	-14.364	0.099
477.500	7.610	0.099
477.600	-10.258	0.099
477.700	-5.093	0.099
477.800	-4.780	0.099
477.900	-11.952	0.099
478.000	-11.438	0.099
478.100	-2.906	0.099
478.200	-6.345	0.099
478.300	-7.465	0.099
478.400	-5.857	0.099
478.500	-11.884	0.099
478.600	-9.734	0.099
478.700	-10.169	0.099
478.800	-9.711	0.099
478.900	-0.604	0.099
479.000	-14.558	0.099
479.100	3.082	0.099
479.200	-3.918	0.099
479.300	-8.069	0.099
479.400	-10.359	0.099
479.500	2.928	0.099
479.600	-14.215	0.099
479.700	-16.660	0.099
479.800	-16.668	0.100
479.900	7.585	0.099
480.000	-8.072	0.099
480.100	-10.355	0.100
480.200	-10.917	0.100
480.300	-11.488	0.099
480.400	-2.882	0.099
480.500	-13.507	0.099
480.600	-0.941	0.100
480.700	-8.247	0.099
480.800	8.138	0.100
480.900	5.753	0.099
481.000	-5.054	0.099
481.100	-0.166	0.099
481.200	0.304	0.100
481.300	14.434	0.099
481.400	10.182	0.100
481.500	6.286	0.100
481.600	13.079	0.100
481.700	12.584	0.099
481.800	6.812	0.099
481.900	8.042	0.099
482.000	12.582	0.100
482.100	15.245	0.099
482.200	10.155	0.099
482.300	20.650	0.099
482.400	20.198	0.100
482.500	17.363	0.100
482.600	12.353	0.099
482.700	17.228	0.099
482.800	21.084	0.099
482.900	21.005	0.099
483.000	8.975	0.099
483.100	23.512	0.099
483.200	21.997	0.099
483.300	19.997	0.099
483.400	9.560	0.099
483.500	24.033	0.100
483.600	12.388	0.099
483.700	31.916	0.099
483.800	12.549	0.099
483.900	13.453	0.099
484.000	32.745	0.099
484.100	13.066	0.099
484.200	25.469	0.099
484.300	8.539	0.099
484.400	18.617	0.099
484.500	7.094	0.099
484.600	14.814	0.099
484.700	16.215	0.099
484.800	16.569	0.099
484.900	22.932	0.099
485.000	10.552	0.099
485.100	14.731	0.099
485.200	20.708	0.099
485.300	18.895	0.099
485.400	11.488	0.099
485.500	20.658	0.099
485.600	25.227	0.099
485.700	17.767	0.099
485.800	13.232	0.099
485.900	32.875	0.099
486.000	5.069	0.099
486.100	26.486	0.099
486.200	11.974	0.099
486.300	24.669	0.099
486.400	12.835	0.099
486.500	33.319	0.099
486.600	4.684	0.099
486.700	26.750	0.099
486.800	11.852	0.099
486.900	19.126	0.099
487.000	22.921	0.099
487.100	21.627	0.099
487.200	29.182	0.099
487.300	12.588	0.099
487.400	22.071	0.099
487.500	12.638	0.099
487.600	12.068	0.099
487.700	10.257	0.099
487.800	16.840	0.099
487.900	18.047	0.099
488.000	39.344	0.099
488.100	17.906	0.100
488.200	25.340	0.099
488.300	17.177	0.099
488.400	18.062	0.099
488.500	12.492	0.099
488.600	20.443	0.100
488.700	17.421	0.099
488.800	19.385	0.099
488.900	29.782	0.099
489.000	25.711	0.099
489.100	17.280	0.099
489.200	13.406	0.099
489.300	31.588	0.099
489.400	22.844	0.099
489.500	28.351	0.099
489.600	12.859	0.099
489.700	25.931	0.099
489.800	28.956	0.100
489.900	31.555	0.099
490.000	23.280	0.099
490.100	25.093	0.099
490.200	27.511	0.099
490.300	15.946	0.099
490.400	22.040	0.099
490.500	29.605	0.099
490.600	27.953	0.099
490.700	21.166	0.099
490.800	21.788	0.099
490.900	36.184	0.099
491.000	35.633	0.099
491.100	38.356	0.100
491.200	26.773	0.099
491.300	21.997	0.100
491.400	26.596	0.099
491.500	32.019	0.099
491.600	23.511	0.099
491.700	39.199	0.099
491.800	16.026	0.099
491.900	35.816	0.099
492.000	27.040	0.100
492.100	28.293	0.099
492.200	29.193	0.099
492.300	21.015	0.100
492.400	24.823	0.099
492.500	32.954	0.099
492.600	32.038	0.099
492.700	34.742	0.099
492.800	17.116	0.100
492.900	16.747	0.099
493.000	39.462	0.099
493.100	23.960	0.099
493.200	42.532	0.099
493.300	19.405	0.099
493.400	31.589	0.099
493.500	27.167	0.099
493.600	19.103	0.099
493.700	27.209	0.099
493.800	32.333	0.099
493.900	24.634	0.099
494.000	34.763	0.100
494.100	29.392	0.099
494.200	26.280	0.099
494.300	22.072	0.099
494.400	51.298	0.099
494.500	25.253	0.099
494.600	30.507	0.099
494.700	32.462	0.099
494.800	41.079	0.099
494.900	41.756	0.099
495.000	26.298	0.099
495.100	30.738	0.099
495.200	19.217	0.099
495.300	36.279	0.099
495.400	30.156	0.099
495.500	37.609	0.099
495.600	22.933	0.099
495.700	22.116	0.099
495.800	37.865	0.099
495.900	30.490	0.099
496.000	22.806	0.099
496.100	30.500	0.099
496.200	35.382	0.099
496.300	23.374	0.099
496.400	27.780	0.099
496.500	28.699	0.099
496.600	34.047	0.099
496.700	32.067	0.099
496.800	31.030	0.099
496.900	37.748	0.099
497.000	50.769	0.099
497.100	28.275	0.099
497.200	25.188	0.099
497.300	35.254	0.099
497.400	18.442	0.099
497.500	43.332	0.099
497.600	39.063	0.099
497.700	31.106	0.099
497.800	34.545	0.099
497.900	30.073	0.099
498.000	42.833	0.099
498.100	30.531	0.099
498.200	31.269	0.099
498.300	42.512	0.099
498.400	29.278	0.099
498.500	33.508	0.099
498.600	23.904	0.099
498.700	42.688	0.099
498.800	35.056	0.099
498.900	32.168	0.099
499.000	33.769	0.100
499.100	33.299	0.099
499.200	29.623	0.099
499.300	40.923	0.100
499.400	26.882	0.099
499.500	31.360	0.099
499.600	33.246	0.099
499.700	33.703	0.099
499.800	28.626	0.099
499.900	31.164	0.099
500.000	30.950	0.099
500.100	38.393	0.099
500.200	27.264	0.099
500.300	36.836	0.099
500.400	23.770	0.099
500.500	30.549	0.099
500.600	22.001	0.099
500.700	32.112	0.099
500.800	36.333	0.099
500.900	43.312	0.100
501.000	23.359	0.099
501.100	34.878	0.099
501.200	47.910	0.099
501.300	37.679	0.099
501.400	26.654	0.100
501.500	31.395	0.099
501.600	30.021	0.099
501.700	26.787	0.099
501.800	28.876	0.099
501.900	29.432	0.099
502.000	33.965	0.099
502.100	30.316	0.099
502.200	35.248	0.099
502.300	34.320	0.099
502.400	29.795	0.099
502.500	30.355	0.099
502.600	39.487	0.099
502.700	35.482	0.099
502.800	40.691	0.099
502.900	39.139	0.099
503.000	30.828	0.099
503.100	33.097	0.100
503.200	33.457	0.099
503.300	33.257	0.099
503.400	40.040	0.099
503.500	29.450	0.099
503.600	34.890	0.099
503.700	33.805	0.099
503.800	31.759	0.099
503.900	29.854	0.099
504.000	32.479	0.100
504.100	40.515	0.099
504.200	47.486	0.099
504.300	40.765	0.099
504.400	38.158	0.100
504.500	34.031	0.100
504.600	26.438	0.099
504.700	52.076	0.099
504.800	28.740	0.099
504.900	24.695	0.099
505.000	26.992	0.099
505.100	34.632	0.100
505.200	40.264	0.099
505.300	29.240	0.099
505.400	33.059	0.099
505.500	35.825	0.099
505.600	34.326	0.099
505.700	27.755	0.099
505.800	36.170	0.099
505.900	40.063	0.099
506.000	40.149	0.099
506.100	35.655	0.099
506.200	31.808	0.099
506.300	28.088	0.099
506.400	26.291	0.099
506.500	26.039	0.100
506.600	34.986	0.099
506.700	25.492	0.099
506.800	30.533	0.099
506.900	35.131	0.099
507.000	36.112	0.099
507.100	29.617	0.099
507.200	35.244	0.099
507.300	13.268	0.099
507.400	39.836	0.099
507.500	35.056	0.099
507.600	32.546	0.099
507.700	20.967	0.099
507.800	36.424	0.099
507.900	43.070	0.099
508.000	27.368	0.099
508.100	40.315	0.099
508.200	38.068	0.099
508.300	26.947	0.099
508.400	29.178	0.100
508.500	33.035	0.099
508.600	37.981	0.099
508.700	30.004	0.099
508.800	29.320	0.099
508.900	31.490	0.099
509.000	47.219	0.099
509.100	36.490	0.099
509.200	30.163	0.099
509.300	40.987	0.099
509.400	31.088	0.099
509.500	21.794	0.099
509.600	41.796	0.099
509.700	30.763	0.099
509.800	25.029	0.099
509.900	34.161	0.099
510.000	33.055	0.100
510.100	43.377	0.099
510.200	20.046	0.099
510.300	27.717	0.099
510.400	28.058	0.099
510.500	31.190	0.099
510.600	34.927	0.099
510.700	35.217	0.099
510.800	25.502	0.099
510.900	35.605	0.099
511.000	29.071	0.099
511.100	47.620	0.099
511.200	34.146	0.099
511.300	43.025	0.099
511.400	27.901	0.099
511.500	30.634	0.099
511.600	18.906	0.099
511.700	42.540	0.099
511.800	17.643	0.099
511.900	29.017	0.099
512.000	33.577	0.100
512.100	24.560	0.099
512.200	29.282	0.099
512.300	40.152	0.099
512.400	20.454	0.099
512.500	37.208	0.099
512.600	30.569	0.100
512.700	37.294	0.100
512.800	25.930	0.099
512.900	34.288	0.099
513.000	24.073	0.099
513.100	19.481	0.099
513.200	21.760	0.100
513.300	31.480	0.099
513.400	44.373	0.099
513.500	35.096	0.099
513.600	34.459	0.099
513.700	29.244	0.099
513.800	26.084	0.099
513.900	36.894	0.099
514.000	27.164	0.099
514.100	27.738	0.099
514.200	31.351	0.099
514.300	35.350	0.099
514.400	30.910	0.099
514.500	27.599	0.099
514.600	29.798	0.099
514.700	31.457	0.099
514.800	43.706	0.099
514.900	43.216	0.099
515.000	23.258	0.100
515.100	30.932	0.099
515.200	27.333	0.099
515.300	34.380	0.099
515.400	35.348	0.099
515.500	20.120	0.099
515.600	30.644	0.099
515.700	32.651	0.099
515.800	36.174	0.099
515.900	39.208	0.100
516.000	31.667	0.099
516.100	37.185	0.099
516.200	13.832	0.099
516.300	43.312	0.099
516.400	38.286	0.099
516.500	35.795	0.099
516.600	20.651	0.099
516.700	25.206	0.099
516.800	44.144	0.099
516.900	38.962	0.099
517.000	30.265	0.099
517.100	30.115	0.099
517.200	33.104	0.099
517.300	22.204	0.099
517.400	26.954	0.099
517.500	20.336	0.099
517.600	33.141	0.099
517.700	34.417	0.099
517.800	28.028	0.099
517.900	32.931	0.100
518.000	37.008	0.099
518.100	37.045	0.100
518.200	24.029	0.099
518.300	27.366	0.099
518.400	40.476	0.099
518.500	31.637	0.100
518.600	29.490	0.099
518.700	27.061	0.099
518.800	23.438	0.099
518.900	22.489	0.099
519.000	31.403	0.099
519.100	39.309	0.099
519.200	28.103	0.099
519.300	19.315	0.099
519.400	30.743	0.099
519.500	34.905	0.099
519.600	27.548	0.099
519.700	31.512	0.100
519.800	38.285	0.099
519.900	26.263	0.100
520.000	25.929	0.099
520.100	41.328	0.099
520.200	32.340	0.099
520.300	26.999	0.099
520.400	29.034	0.099
520.500	34.428	0.099
520.600	44.938	0.099
520.700	16.442	0.099
520.800	21.153	0.099
520.900	46.325	0.099
521.000	23.790	0.099
521.100	34.589	0.099
521.200	42.788	0.099
521.300	28.071	0.099
521.400	19.267	0.099
521.500	35.889	0.099
521.600	31.025	0.099
521.700	22.998	0.099
521.800	42.560	0.099
521.900	35.009	0.099
522.000	34.263	0.099
522.100	20.997	0.099
522.200	16.421	0.099
522.300	35.952	0.099
522.400	29.353	0.099
522.500	46.541	0.099
522.600	28.500	0.099
522.700	41.085	0.099
522.800	32.337	0.099
522.900	31.229	0.100
523.000	29.513	0.099
523.100	28.862	0.099
523.200	18.322	0.099
523.300	25.051	0.099
523.400	28.154	0.099
523.500	42.031	0.099
523.600	26.342	0.100
523.700	31.597	0.099
523.800	18.101	0.099
523.900	23.622	0.099
524.000	23.741	0.099
524.100	45.128	0.099
524.200	28.043	0.099
524.300	27.633	0.099
524.400	23.606	0.099
524.500	28.611	0.099
524.600	32.455	0.099
524.700	30.826	0.099
524.800	29.323	0.099
524.900	35.837	0.100
525.000	29.268	0.099
525.100	26.011	0.099
525.200	26.781	0.099
525.300	32.909	0.099
525.400	29.218	0.100
525.500	34.751	0.099
525.600	22.739	0.099
525.700	32.482	0.099
525.800	33.400	0.099
525.900	32.357	0.099
526.000	42.604	0.100
526.100	30.860	0.100
526.200	32.713	0.099
526.300	26.523	0.100
526.400	31.600	0.099
526.500	35.250	0.099
526.600	15.289	0.099
526.700	40.133	0.099
526.800	33.597	0.099
526.900	30.671	0.099
527.000	25.164	0.099
527.100	36.857	0.099
527.200	32.426	0.100
527.300	30.037	0.099
527.400	30.307	0.099
527.500	32.268	0.099
527.600	19.049	0.099
527.700	26.317	0.099
527.800	28.837	0.099
527.900	33.318	0.099
528.000	28.113	0.099
528.100	35.301	0.099
528.200	31.342	0.099
528.300	32.046	0.099
528.400	33.765	0.099
528.500	16.138	0.099
528.600	37.195	0.099
528.700	18.490	0.099
528.800	30.556	0.099
528.900	31.271	0.099
529.000	35.089	0.099
529.100	32.760	0.099
529.200	13.471	0.099
529.300	27.667	0.099
529.400	32.055	0.099
529.500	24.117	0.099
529.600	28.405	0.099
529.700	25.559	0.099
529.800	26.973	0.099
529.900	24.738	0.099
530.000	44.655	0.099
530.100	27.678	0.099
530.200	31.424	0.099
530.300	12.084	0.099
530.400	33.218	0.099
530.500	25.392	0.099
530.600	47.317	0.099
530.700	20.832	0.099
530.800	34.198	0.099
530.900	21.138	0.099
531.000	39.662	0.099
531.100	38.494	0.099
531.200	32.469	0.099
531.300	34.101	0.099
531.400	24.652	0.099
531.500	34.645	0.099
531.600	16.687	0.099
531.700	36.324	0.099
531.800	33.195	0.099
531.900	21.559	0.099
532.000	26.509	0.099
532.100	26.345	0.099
532.200	21.578	0.099
532.300	28.729	0.099
532.400	20.742	0.099
532.500	25.064	0.099
532.600	19.217	0.099
532.700	39.500	0.099
532.800	32.340	0.099
532.900	35.206	0.099
533.000	31.834	0.099
533.100	33.009	0.099
533.200	29.248	0.099
533.300	34.360	0.099
533.400	19.398	0.099
533.500	17.743	0.099
533.600	30.466	0.099
533.700	33.652	0.099
533.800	18.419	0.099
533.900	40.175	0.099
534.000	28.079	0.099
534.100	28.787	0.099
534.200	26.050	0.099
534.300	32.968	0.099
534.400	17.401	0.099
534.500	26.066	0.099
534.600	22.845	0.099
534.700	21.309	0.099
534.800	34.774	0.099
534.900	32.335	0.099
535.000	30.571	0.099
535.100	37.458	0.099
535.200	27.549	0.099
535.300	28.840	0.099
535.400	26.680	0.099
535.500	28.438	0.099
535.600	17.833	0.099
535.700	29.185	0.099
535.800	25.063	0.099
535.900	39.523	0.099
536.000	30.868	0.099
536.100	34.673	0.099
536.200	28.320	0.099
536.300	31.223	0.099
536.400	31.297	0.099
536.500	26.973	0.099
536.600	27.945	0.099
536.700	38.621	0.099
536.800	29.671	0.099
536.900	25.270	0.099
537.000	30.165	0.100
537.100	26.103	0.099
537.200	29.100	0.100
537.300	28.508	0.099
537.400	13.390	0.099
537.500	27.885	0.099
537.600	28.320	0.099
537.700	37.098	0.099
537.800	29.242	0.099
537.900	20.155	0.099
538.000	28.817	0.099
538.100	37.463	0.099
538.200	26.637	0.099
538.300	31.197	0.099
538.400	22.336	0.099
538.500	18.864	0.099
538.600	32.525	0.099
538.700	29.436	0.099
538.800	19.794	0.099
538.900	32.919	0.099
539.000	36.996	0.099
539.100	21.513	0.099
539.200	27.201	0.099
539.300	13.583	0.099
539.400	44.565	0.099
539.500	26.577	0.099
539.600	24.358	0.099
539.700	16.284	0.099
539.800	25.124	0.099
539.900	37.056	0.099
540.000	27.390	0.099
540.100	25.249	0.099
540.200	37.839	0.099
540.300	28.014	0.099
540.400	17.598	0.099
540.500	25.105	0.099
540.600	25.826	0.099
540.700	27.224	0.099
540.800	32.728	0.099
540.900	13.395	0.099
541.000	3.630	0.099
541.100	21.006	0.099
541.200	13.180	0.099
541.300	23.902	0.099
541.400	11.379	0.099
541.500	8.738	0.099
541.600	-1.567	0.099
541.700	22.644	0.099
541.800	12.387	0.099
541.900	-4.179	0.099
542.000	5.989	0.099
542.100	4.831	0.099
542.200	2.550	0.099
542.300	6.871	0.099
542.400	-3.083	0.099
542.500	0.979	0.099
542.600	-7.540	0.099
542.700	2.024	0.099
542.800	1.734	0.099
542.900	-7.105	0.099
543.000	-0.060	0.099
543.100	2.049	0.099
543.200	-0.386	0.099
543.300	-8.533	0.099
543.400	-14.202	0.099
543.500	-9.080	0.099
543.600	-14.185	0.099
543.700	-4.387	0.099
543.800	-10.706	0.099
543.900	5.624	0.099
544.000	-3.359	0.099
544.100	-16.271	0.099
544.200	-11.938	0.099
544.300	-18.939	0.099
544.400	-14.666	0.099
544.500	-0.611	0.099
544.600	-8.539	0.099
544.700	-0.979	0.099
544.800	-6.800	0.099
544.900	-15.791	0.099
545.000	-7.015	0.099
545.100	-10.227	0.099
545.200	0.372	0.099
545.300	-11.715	0.099
545.400	-5.136	0.099
545.500	-14.565	0.099
545.600	-3.133	0.099
545.700	-20.911	0.099
545.800	3.910	0.099
545.900	-14.781	0.099
546.000	-10.182	0.099
546.100	-7.491	0.099
546.200	-9.497	0.099
546.300	0.051	0.099
546.400	-31.491	0.099
546.500	-1.659	0.099
546.600	-13.693	0.099
546.700	-1.245	0.099
546.800	-9.320	0.099
546.900	-1.646	0.099
547.000	1.223	0.099
547.100	-9.968	0.099
547.200	-15.888	0.099
547.300	-8.394	0.099
547.400	-4.654	0.099
547.500	-18.435	0.099
547.600	-2.591	0.099
547.700	-16.452	0.099
547.800	-4.593	0.099
547.900	-17.012	0.099
548.000	-8.778	0.099
548.100	-11.413	0.099
548.200	1.266	0.099
548.300	-17.451	0.099
548.400	-12.767	0.099
548.500	5.121	0.099
548.600	-3.831	0.099
548.700	-7.283	0.099
548.800	-10.050	0.099
548.900	-9.392	0.099
549.000	-8.688	0.099
549.100	-15.181	0.099
549.200	0.123	0.099
549.300	-1.587	0.099
549.400	-16.629	0.099
549.500	-11.541	0.099
549.600	-3.555	0.099
549.700	-20.032	0.099
549.800	-9.186	0.099
549.900	-8.161	0.099
550.000	-18.636	0.099
550.100	-12.611	0.099
550.200	-14.997	0.099
550.300	-3.334	0.099
550.400	-9.424	0.099
550.500	-5.118	0.099
550.600	-24.532	0.099
550.700	-4.092	0.099
550.800	-12.970	0.099
550.900	-10.119	0.099
551.000	-12.719	0.099
551.100	-12.759	0.099
551.200	-6.064	0.099
551.300	-5.126	0.099
551.400	-15.403	0.099
551.500	-3.492	0.099
551.600	-16.477	0.099
551.700	-13.599	0.099
551.800	-4.184	0.099
551.900	-22.378	0.099
552.000	-18.039	0.099
552.100	-14.139	0.099
552.200	-14.724	0.099
552.300	-15.488	0.099
552.400	-11.009	0.099
552.500	-4.066	0.099
552.600	-15.751	0.099
552.700	-12.270	0.099
552.800	3.641	0.099
552.900	-13.145	0.099
553.000	-17.707	0.099
553.100	-21.575	0.099
553.200	-4.613	0.099
553.300	-21.289	0.099
553.400	-16.233	0.099
553.500	-6.427	0.099
553.600	-14.850	0.099
553.700	-23.496	0.099
553.800	-9.660	0.099
553.900	-8.620	0.099
554.000	-13.524	0.099
554.100	-5.580	0.099
554.200	-18.446	0.099
554.300	-20.773	0.099
554.400	-12.971	0.099
554.500	-8.068	0.099
554.600	-18.966	0.099
554.700	-20.128	0.099
554.800	-13.457	0.099
554.900	-18.373	0.099
555.000	-22.522	0.099
555.100	-1.309	0.099
555.200	-13.143	0.099
555.300	-22.617	0.099
555.400	-18.024	0.099
555.500	-9.854	0.099
555.600	-9.114	0.099
555.700	-21.148	0.099
555.800	-13.046	0.099
555.900	-32.143	0.099
556.000	-3.149	0.099
556.100	-18.623	0.099
556.200	-19.068	0.099
556.300	-23.957	0.099
556.400	-16.538	0.099
556.500	-10.105	0.099
556.600	-16.349	0.099
556.700	-17.006	0.099
556.800	-28.356	0.099
556.900	-7.488	0.099
557.000	-17.347	0.099
557.100	-19.925	0.099
557.200	-17.245	0.099
557.300	-32.835	0.099
557.400	-3.417	0.099
557.500	-8.427	0.099
557.600	-24.581	0.099
557.700	-24.413	0.099
557.800	-25.129	0.099
557.900	-13.235	0.099
558.000	-29.031	0.099
558.100	-14.687	0.099
558.200	-20.012	0.099
558.300	-0.680	0.099
558.400	-9.083	0.099
558.500	-24.726	0.099
558.600	-16.345	0.099
558.700	-17.813	0.099
558.800	-20.083	0.099
558.900	-17.918	0.099
559.000	-11.453	0.099
559.100	-20.944	0.099
559.200	-7.639	0.099
559.300	-11.093	0.099
559.400	-21.340	0.099
559.500	-23.947	0.099
559.600	-27.857	0.099
559.700	-5.021	0.099
559.800	-17.311	0.099
559.900	-21.525	0.099
560.000	-17.781	0.099
560.100	-20.786	0.099
560.200	-24.331	0.099
560.300	1.119	0.099
560.400	-25.988	0.099
560.500	-19.122	0.099
560.600	-17.630	0.099
560.700	-9.831	0.099
560.800	-21.011	0.099
560.900	-43.356	0.099
561.000	-7.792	0.099
561.100	-16.365	0.099
561.200	-3.806	0.099
561.300	-35.924	0.099
561.400	-12.074	0.099
561.500	-28.313	0.099
561.600	-15.704	0.099
561.700	-26.752	0.099
561.800	-4.688	0.099
561.900	-23.116	0.099
562.000	-12.590	0.099
562.100	-31.840	0.099
562.200	-12.776	0.099
562.300	-26.747	0.099
562.400	-7.492	0.099
562.500	-21.710	0.099
562.600	-19.279	0.099
562.700	-8.505	0.099
562.800	-28.793	0.099
562.900	-27.049	0.099
563.000	-26.920	0.099
563.100	-16.000	0.099
563.200	-19.051	0.099
563.300	-16.160	0.099
563.400	-17.519	0.099
563.500	-23.677	0.099
563.600	-19.306	0.099
563.700	-21.057	0.099
563.800	-7.264	0.099
563.900	-16.484	0.099
564.000	-21.323	0.099
564.100	-29.887	0.099
564.200	-5.542	0.099
564.300	-14.697	0.099
564.400	-9.701	0.099
564.500	-19.109	0.099
564.600	-23.613	0.099
564.700	-10.277	0.099
564.800	-17.166	0.099
564.900	-13.969	0.099
565.000	-12.342	0.099
565.100	-19.822	0.099
565.200	-9.959	0.099
565.300	-12.022	0.099
565.400	-24.418	0.099
565.500	-20.868	0.099
565.600	-20.571	0.099
565.700	-16.088	0.099
565.800	-15.104	0.099
565.900	-17.883	0.099
566.000	-24.213	0.099
566.100	-9.357	0.099
566.200	-23.803	0.099
566.300	-17.790	0.099
566.400	-24.973	0.099
566.500	-15.604	0.099
566.600	-24.476	0.099
566.700	-11.307	0.099
566.800	-22.260	0.099
566.900	-15.937	0.099
567.000	-23.461	0.099
567.100	-15.245	0.099
567.200	-15.051	0.099
567.300	-15.759	0.099
567.400	-23.000	0.099
567.500	-20.083	0.099
567.600	-18.259	0.099
567.700	-10.324	0.099
567.800	-20.857	0.099
567.900	-17.100	0.099
568.000	-13.263	0.099
568.100	-14.229	0.099
568.200	-14.012	0.099
568.300	-19.853	0.099
568.400	-17.633	0.099
568.500	-8.313	0.099
568.600	-27.952	0.099
568.700	-21.979	0.099
568.800	-25.453	0.099
568.900	-24.632	0.099
569.000	-26.232	0.099
569.100	-14.479	0.099
569.200	-17.694	0.099
569.300	-28.623	0.099
569.400	-15.889	0.099
569.500	-31.372	0.099
569.600	-14.033	0.099
569.700	-15.958	0.099
569.800	-12.772	0.099
569.900	-32.253	0.099
570.000	-13.234	0.099
570.100	-24.143	0.099
570.200	-15.512	0.099
570.300	-16.871	0.099
570.400	-25.942	0.099
570.500	-22.157	0.099
570.600	-12.165	0.099
570.700	-12.935	0.099
570.800	-7.947	0.099
570.900	-32.125	0.099
571.000	-16.115	0.099
571.100	-35.202	0.099
571.200	-14.242	0.099
571.300	-18.815	0.099
571.400	-17.025	0.099
571.500	-20.018	0.099
571.600	-31.521	0.099
571.700	-20.374	0.099
571.800	-18.463	0.099
571.900	-14.197	0.099
572.000	-23.596	0.099
572.100	-33.834	0.099
572.200	-24.960	0.099
572.300	-13.231	0.099
572.400	-4.435	0.099
572.500	-13.846	0.099
572.600	-24.834	0.099
572.700	-22.317	0.099
572.800	-16.862	0.099
572.900	-20.926	0.099
573.000	-8.185	0.099
573.100	-11.820	0.099
573.200	-40.259	0.099
573.300	-12.080	0.099
573.400	-30.246	0.099
573.500	-19.018	0.099
573.600	-20.428	0.099
573.700	-24.530	0.099
573.800	4.168	0.099
573.900	-12.739	0.099
574.000	-16.472	0.099
574.100	-22.673	0.099
574.200	-21.875	0.099
574.300	-27.819	0.099
574.400	-9.220	0.099
574.500	-13.358	0.099
574.600	-17.102	0.099
574.700	-26.130	0.099
574.800	-32.492	0.099
574.900	-11.919	0.099
575.000	-20.204	0.099
575.100	-14.691	0.099
575.200	-20.010	0.099
575.300	-12.623	0.099
575.400	-24.742	0.099
575.500	-24.669	0.099
575.600	-14.219	0.099
575.700	-20.203	0.099
575.800	-18.225	0.099
575.900	-5.979	0.099
576.000	-9.668	0.099
576.100	-23.020	0.099
576.200	-13.260	0.099
576.300	-12.096	0.099
576.400	-22.891	0.099
576.500	-12.119	0.099
576.600	-19.233	0.099
576.700	-31.216	0.099
576.800	1.261	0.099
576.900	-18.001	0.099
577.000	-20.015	0.099
577.100	-19.318	0.099
577.200	-15.880	0.099
577.300	-25.038	0.099
577.400	-24.386	0.099
577.500	-13.458	0.099
577.600	-26.060	0.099
577.700	-18.003	0.099
577.800	-23.427	0.099
577.900	-31.828	0.099
578.000	-11.013	0.099
578.100	-13.657	0.099
578.200	-25.335	0.099
578.300	-19.630	0.099
578.400	-12.960	0.099
578.500	-19.787	0.099
578.600	-13.914	0.099
578.700	-12.397	0.099
578.800	-28.587	0.099
578.900	-15.055	0.099
579.000	-20.752	0.099
579.100	-19.128	0.099
579.200	-15.716	0.099
579.300	-22.928	0.099
579.400	-10.691	0.099
579.500	-16.197	0.099
579.600	-3.509	0.099
579.700	-23.723	0.099
579.800	-19.789	0.099
579.900	-8.541	0.099
580.000	-30.057	0.099
580.100	-17.052	0.099
580.200	-24.456	0.099
580.300	-16.314	0.099
580.400	-13.243	0.099
580.500	-8.203	0.099
580.600	-23.621	0.099
580.700	-9.245	0.099
580.800	-0.847	0.099
580.900	-26.023	0.099
581.000	-17.976	0.099
581.100	-15.227	0.099
581.200	-16.258	0.099
581.300	-12.410	0.099
581.400	-22.708	0.099
581.500	-17.470	0.099
581.600	-11.120	0.099
581.700	-26.061	0.099
581.800	-12.168	0.099
581.900	-15.253	0.099
582.000	-24.964	0.099
582.100	-0.470	0.099
582.200	-25.163	0.099
582.300	-21.779	0.099
582.400	-19.003	0.099
582.500	-12.269	0.099
582.600	-14.271	0.099
582.700	-10.236	0.099
582.800	-25.860	0.099
582.900	-22.099	0.099
583.000	-24.815	0.099
583.100	-11.547	0.099
583.200	-16.601	0.099
583.300	-15.062	0.099
583.400	-17.187	0.099
583.500	-24.134	0.099
583.600	-14.137	0.099
583.700	-23.185	0.099
583.800	-21.160	0.099
583.900	-4.876	0.099
584.000	-26.966	0.099
584.100	-16.252	0.099
584.200	-19.500	0.099
584.300	-20.172	0.099
584.400	-19.556	0.099
584.500	-20.759	0.099
584.600	-17.296	0.099
584.700	-14.459	0.099
584.800	-22.298	0.099
584.900	-20.679	0.099
585.000	-13.632	0.099
585.100	-5.056	0.099
585.200	-19.906	0.099
585.300	-12.105	0.099
585.400	0.335	0.099
585.500	-32.348	0.099
585.600	-15.703	0.099
585.700	-11.688	0.099
585.800	-14.370	0.099
585.900	-33.275	0.099
586.000	-12.995	0.099
586.100	-20.019	0.099
586.200	-20.197	0.099
586.300	-4.822	0.099
586.400	-9.967	0.099
586.500	-20.510	0.099
586.600	-23.108	0.099
586.700	-22.758	0.099
586.800	-18.116	0.099
586.900	-10.448	0.099
587.000	-16.674	0.099
587.100	-16.282	0.099
587.200	-29.203	0.099
587.300	-16.566	0.099
587.400	-22.792	0.099
587.500	-18.566	0.099
587.600	-14.290	0.099
587.700	-16.033	0.099
587.800	-6.958	0.099
587.900	-34.080	0.099
588.000	-20.253	0.099
588.100	-1.943	0.099
588.200	-16.246	0.099
588.300	-3.458	0.099
588.400	-19.218	0.099
588.500	-31.289	0.099
588.600	-6.587	0.099
588.700	-4.732	0.099
588.800	-18.514	0.099
588.900	-15.076	0.099
589.000	-2.880	0.099
589.100	-25.849	0.099
589.200	-7.060	0.099
589.300	-22.968	0.099
589.400	-30.679	0.099
589.500	-21.643	0.099
589.600	-23.737	0.099
589.700	-9.493	0.099
589.800	-29.097	0.099
589.900	-19.321	0.099
590.000	-8.740	0.099
590.100	7.714	0.099
590.200	-18.369	0.099
590.300	-6.402	0.099
590.400	-15.947	0.099
590.500	-6.472	0.099
590.600	-22.019	0.099
590.700	-22.909	0.099
590.800	-12.679	0.099
590.900	-24.233	0.099
591.000	-5.972	0.099
591.100	-17.574	0.099
591.200	-19.995	0.099
591.300	-8.710	0.099
591.400	-24.973	0.099
591.500	-21.047	0.099
591.600	-8.410	0.099
591.700	-7.129	0.099
591.800	-11.962	0.099
591.900	-8.857	0.099
592.000	-21.878	0.099
592.100	-10.620	0.099
592.200	-25.803	0.099
592.300	-0.098	0.099
592.400	-26.368	0.099
592.500	-5.655	0.099
592.600	-19.926	0.099
592.700	-5.207	0.099
592.800	-17.775	0.099
592.900	-15.512	0.099
593.000	-26.032	0.099
593.100	-3.331	0.099
593.200	-16.170	0.099
593.300	-16.492	0.099
593.400	-4.866	0.099
593.500	-6.935	0.099
593.600	-16.848	0.099
593.700	-16.322	0.099
593.800	-18.956	0.099
593.900	-18.571	0.099
594.000	-11.557	0.099
594.100	-19.778	0.099
594.200	-13.172	0.099
594.300	-14.058	0.099
594.400	-9.875	0.099
594.500	-34.347	0.099
594.600	-9.318	0.099
594.700	-11.198	0.099
594.800	-24.434	0.099
594.900	-8.216	0.099
595.000	-10.098	0.099
595.100	-17.286	0.099
595.200	-9.077	0.099
595.300	-13.146	0.099
595.400	-3.753	0.099
595.500	-20.009	0.099
595.600	-10.926	0.099
595.700	-21.434	0.099
595.800	-6.986	0.099
595.900	-11.788	0.099
596.000	-13.330	0.099
596.100	-6.996	0.099
596.200	-17.800	0.099
596.300	-12.021	0.099
596.400	-13.511	0.099
596.500	-10.182	0.099
596.600	-20.091	0.099
596.700	-16.003	0.099
596.800	-3.760	0.099
596.900	-14.812	0.099
597.000	-15.926	0.099
597.100	-9.196	0.099
597.200	-13.170	0.099
597.300	-10.185	0.099
597.400	-10.158	0.099
597.500	-15.620	0.099
597.600	-12.136	0.099
597.700	-10.763	0.099
597.800	-24.154	0.099
597.900	-2.295	0.099
598.000	-17.531	0.099
598.100	-13.018	0.099
598.200	-15.349	0.099
598.300	-5.432	0.099
598.400	-18.210	0.099
598.500	-4.339	0.099
598.600	-15.720	0.099
598.700	-5.361	0.099
598.800	-11.922	0.099
598.900	-12.205	0.099
599.000	3.054	0.099
599.100	-11.727	0.099
599.200	-14.738	0.099
599.300	-11.463	0.099
599.400	-4.206	0.099
599.500	-14.672	0.099
599.600	-18.352	0.099
599.700	-17.612	0.099
599.800	-10.223	0.099
599.900	-12.996	0.099
600.000	-13.489	0.099
600.100	-28.351	0.099
600.200	-15.639	0.099
600.300	-3.933	0.099
600.400	-8.893	0.099
600.500	-18.346	0.099
600.600	-8.876	0.099
600.700	-17.660	0.099
600.800	-7.125	0.099
600.900	-7.060	0.099
601.000	-12.613	0.099
601.100	-10.042	0.099
601.200	-21.267	0.099
601.300	-8.895	0.099
601.400	-7.242	0.099
601.500	-16.188	0.099
601.600	-10.723	0.099
601.700	-10.519	0.099
601.800	-9.603	0.099
601.900	-25.414	0.099
602.000	-13.838	0.099
602.100	-14.123	0.099
602.200	-34.312	0.099
602.300	2.796	0.099
602.400	-24.137	0.099
602.500	-2.902	0.099
602.600	-15.415	0.099
602.700	-16.894	0.099
602.800	-5.175	0.099
602.900	-18.551	0.099
603.000	-13.360	0.099
603.100	-6.216	0.099
603.200	-19.037	0.099
603.300	-8.912	0.099
603.400	-19.383	0.099
603.500	-17.270	0.099
603.600	-9.488	0.099
603.700	-13.636	0.099
603.800	-6.116	0.099
603.900	-23.727	0.099
604.000	-14.221	0.099
604.100	-5.615	0.099
604.200	-19.025	0.099
604.300	-3.562	0.099
604.400	-2.778	0.099
604.500	-22.964	0.099
604.600	-8.204	0.099
604.700	-14.662	0.099
604.800	-2.240	0.099
604.900	-11.491	0.099
605.000	-11.393	0.099
605.100	-8.094	0.099
605.200	-20.762	0.099
605.300	-8.694	0.099
605.400	0.484	0.099
605.500	-4.927	0.099
605.600	-16.034	0.099
605.700	-8.485	0.099
605.800	-4.156	0.099
605.900	-22.402	0.099
606.000	-0.597	0.099
606.100	-14.947	0.099
606.200	4.021	0.099
606.300	-15.837	0.099
606.400	-15.806	0.099
606.500	2.531	0.099
606.600	-8.951	0.099
606.700	-14.720	0.099
606.800	-0.968	0.099
606.900	-12.471	0.099
607.000	-4.675	0.099
607.100	-4.639	0.099
607.200	-6.324	0.099
607.300	-19.982	0.099
607.400	-20.479	0.099
607.500	10.206	0.099
607.600	-16.003	0.099
607.700	-0.298	0.099
607.800	-13.229	0.099
607.900	-19.903	0.099
608.000	-18.487	0.099
608.100	-12.611	0.099
608.200	-15.611	0.099
608.300	-15.952	0.099
608.400	-10.189	0.099
608.500	-22.202	0.099
608.600	2.455	0.099
608.700	-6.282	0.099
608.800	-10.948	0.099
608.900	-11.331	0.099
609.000	-16.963	0.099
609.100	-6.600	0.099
609.200	-7.630	0.099
609.300	-16.149	0.099
609.400	-13.091	0.099
609.500	-6.833	0.099
609.600	-11.393	0.099
609.700	-13.685	0.099
609.800	-20.801	0.099
609.900	-9.165	0.099
610.000	-3.879	0.099
610.100	-11.941	0.099
610.200	-13.002	0.099
610.300	-15.704	0.099
610.400	-7.150	0.099
610.500	0.988	0.099
610.600	-21.134	0.099
610.700	0.796	0.099
610.800	-17.187	0.099
610.900	-9.331	0.099
611.000	-13.053	0.099
611.100	-5.083	0.099
611.200	-12.065	0.099
611.300	-13.601	0.099
611.400	-10.602	0.099
611.500	-16.074	0.099
611.600	-12.342	0.099
611.700	-0.043	0.099
611.800	-13.877	0.099
611.900	-15.821	0.099
612.000	-4.056	0.099
612.100	-14.511	0.099
612.200	-6.874	0.099
612.300	-10.674	0.099
612.400	-11.454	0.099
612.500	-13.322	0.099
612.600	-11.133	0.099
612.700	1.258	0.099
612.800	-15.636	0.099
612.900	1.840	0.099
613.000	-8.775	0.099
613.100	-9.469	0.099
613.200	-13.793	0.099
613.300	-10.607	0.099
613.400	-22.556	0.099
613.500	-12.587	0.099
613.600	-9.280	0.099
613.700	-12.037	0.099
613.800	-16.976	0.099
613.900	-23.872	0.099
614.000	-8.707	0.099
614.100	-14.885	0.099
614.200	-14.839	0.099
614.300	-11.705	0.099
614.400	-11.190	0.099
614.500	-19.548	0.099
614.600	-0.418	0.099
614.700	-11.968	0.099
614.800	-11.173	0.099
614.900	-10.016	0.099
615.000	-9.892	0.099
615.100	-2.086	0.099
615.200	-28.159	0.099
615.300	-10.109	0.099
615.400	-8.006	0.099
615.500	-11.871	0.099
615.600	-7.879	0.099
615.700	-1.650	0.100
615.800	-14.250	0.099
615.900	-11.235	0.099
616.000	5.097	0.100
616.100	-29.459	0.099
616.200	-4.670	0.099
616.300	-15.369	0.099
616.400	-12.078	0.100
616.500	-8.736	0.099
616.600	-7.697	0.100
616.700	-10.549	0.100
616.800	-14.182	0.100
616.900	-9.449	0.100
617.000	-13.291	0.100
617.100	1.981	0.100
617.200	-8.198	0.100
617.300	-31.978	0.100
617.400	-6.379	0.100
617.500	-13.081	0.100
617.600	-12.314	0.100
617.700	-8.134	0.100
617.800	-6.739	0.100
617.900	-18.988	0.100
618.000	-21.583	0.100
618.100	-5.237	0.100
618.200	-15.602	0.100
618.300	-5.930	0.100
618.400	-18.305	0.100
618.500	-9.724	0.100
618.600	6.229	0.100
618.700	-1.704	0.100
618.800	-13.722	0.100
618.900	-15.541	0.100
619.000	8.106	0.100
619.100	-6.766	0.100
619.200	-17.465	0.100
619.300	-16.075	0.100
619.400	-7.583	0.100
619.500	-9.890	0.100
619.600	-5.553	0.100
619.700	-21.710	0.100
619.800	7.295	0.100
619.900	-12.545	0.100
620.000	-21.897	0.100
620.100	-5.698	0.100
620.200	-24.140	0.100
620.300	-11.565	0.100
620.400	-11.293	0.100
620.500	-14.712	0.100
620.600	0.934	0.100
620.700	-13.913	0.100
620.800	3.980	0.100
620.900	-4.281	0.100
621.000	-12.835	0.100
621.100	-2.966	0.100
621.200	-19.506	0.100
621.300	-2.832	0.100
621.400	-19.740	0.100
621.500	-6.387	0.100
621.600	-0.276	0.100
621.700	-10.436	0.100
621.800	-13.596	0.100
621.900	-16.760	0.100
622.000	3.732	0.100
622.100	-0.141	0.100
622.200	-14.586	0.100
622.300	-6.430	0.100
622.400	-4.899	0.100
622.500	-19.841	0.100
622.600	-2.808	0.100
622.700	-2.455	0.100
622.800	-13.214	0.100
622.900	-13.092	0.100
623.000	-6.286	0.100
623.100	-3.274	0.100
623.200	-12.966	0.100
623.300	-3.291	0.100
623.400	-10.425	0.100
623.500	-13.732	0.100
623.600	-24.123	0.100
623.700	-8.657	0.100
623.800	-5.249	0.100
623.900	-9.181	0.100
624.000	-2.608	0.100
624.100	-7.172	0.100
624.200	-9.727	0.100
624.300	-21.914	0.100
624.400	-1.707	0.100
624.500	-2.036	0.100
624.600	-10.776	0.100
624.700	-11.312	0.100
624.800	-2.877	0.100
624.900	-8.495	0.100
625.000	-5.752	0.100
625.100	-16.528	0.100
625.200	-6.374	0.100
625.300	-19.366	0.100
625.400	6.297	0.100
625.500	-12.229	0.100
625.600	-15.761	0.100
625.700	-15.366	0.100
625.800	-5.784	0.100
625.900	-17.663	0.100
626.000	-15.014	0.100
626.100	-2.742	0.100
626.200	-8.829	0.100
626.300	-8.732	0.100
626.400	-10.497	0.100
626.500	-11.872	0.100
626.600	-11.600	0.100
626.700	-6.537	0.100
626.800	-17.700	0.100
626.900	-7.659	0.100
627.000	-4.742	0.100
627.100	-9.040	0.100
627.200	-17.385	0.100
627.300	1.796	0.100
627.400	-10.366	0.100
627.500	-2.560	0.100
627.600	-14.958	0.100
627.700	-6.693	0.100
627.800	-20.108	0.100
627.900	2.464	0.100
628.000	-7.580	0.100
628.100	-9.122	0.100
628.200	-12.959	0.100
628.300	-7.293	0.100
628.400	-9.324	0.100
628.500	-14.552	0.100
628.600	-8.009	0.100
628.700	-4.297	0.100
628.800	0.671	0.100
628.900	-12.549	0.100
629.000	-0.151	0.100
629.100	-1.622	0.100
629.200	-8.589	0.100
629.300	-3.413	0.100
629.400	-7.756	0.100
629.500	-14.502	0.100
629.600	2.194	0.100
629.700	0.402	0.100
629.800	7.490	0.100
629.900	-7.126	0.100
630.000	-8.211	0.100
630.100	-18.127	0.100
630.200	-9.557	0.100
630.300	-9.435	0.100
630.400	-12.354	0.100
630.500	-5.541	0.100
630.600	-17.664	0.100
630.700	0.589	0.100
630.800	-13.490	0.100
630.900	9.437	0.100
631.000	-12.748	0.100
631.100	2.395	0.100
631.200	9.891	0.100
631.300	-1.355	0.100
631.400	11.203	0.100
631.500	4.594	0.100
631.600	1.221	0.100
631.700	8.926	0.100
631.800	-10.707	0.100
631.900	13.625	0.100
632.000	13.895	0.100
632.100	4.332	0.100
632.200	10.154	0.100
632.300	7.312	0.100
632.400	16.486	0.100
632.500	13.624	0.100
632.600	18.613	0.100
632.700	2.152	0.100
632.800	16.659	0.100
632.900	18.014	0.100
633.000	25.547	0.100
633.100	13.752	0.100
633.200	16.715	0.100
633.300	26.868	0.100
633.400	19.014	0.100
633.500	20.168	0.100
633.600	23.957	0.100
633.700	9.075	0.100
633.800	12.145	0.100
633.900	19.006	0.100
634.000	22.335	0.100
634.100	17.594	0.100
634.200	17.670	0.100
634.300	19.131	0.100
634.400	12.112	0.100
634.500	22.150	0.100
634.600	18.280	0.100
634.700	17.421	0.100
634.800	12.772	0.100
634.900	17.787	0.100
635.000	21.572	0.100
635.100	9.470	0.100
635.200	28.131	0.100
635.300	26.655	0.100
635.400	19.917	0.100
635.500	16.009	0.100
635.600	11.005	0.100
635.700	21.123	0.100
635.800	14.641	0.100
635.900	16.652	0.100
636.000	20.340	0.100
636.100	27.718	0.100
636.200	9.912	0.100
636.300	11.081	0.100
636.400	17.042	0.100
636.500	39.773	0.100
636.600	16.365	0.100
636.700	22.067	0.100
636.800	15.725	0.100
636.900	16.232	0.100
637.000	10.488	0.100
637.100	31.273	0.100
637.200	13.723	0.100
637.300	24.285	0.100
637.400	17.401	0.100
637.500	21.522	0.100
637.600	-0.720	0.100
637.700	19.868	0.099
637.800	31.399	0.099
637.900	11.103	0.099
638.000	28.957	0.100
638.100	25.795	0.099
638.200	20.386	0.099
638.300	27.638	0.100
638.400	22.816	0.099
638.500	16.940	0.100
638.600	17.783	0.099
638.700	17.492	0.099
638.800	20.266	0.099
638.900	15.237	0.099
639.000	25.111	0.099
639.100	17.692	0.099
639.200	24.746	0.099
639.300	26.192	0.099
639.400	20.936	0.099
639.500	24.396	0.099
639.600	20.055	0.099
639.700	19.447	0.099
639.800	15.817	0.100
639.900	25.493	0.099
640.000	30.299	0.099
640.100	31.516	0.099
640.200	37.299	0.099
640.300	27.411	0.099
640.400	19.197	0.099
640.500	12.260	0.099
640.600	18.892	0.099
640.700	31.657	0.099
640.800	34.198	0.099
640.900	23.904	0.099
641.000	31.843	0.099
641.100	28.115	0.099
641.200	19.543	0.099
641.300	33.891	0.099
641.400	32.385	0.099
641.500	18.112	0.099
641.600	13.867	0.099
641.700	26.174	0.099
641.800	16.386	0.099
641.900	29.412	0.099
642.000	31.614	0.099
642.100	20.643	0.099
642.200	37.531	0.099
642.300	34.684	0.099
642.400	19.169	0.099
642.500	27.865	0.099
642.600	28.861	0.100
642.700	23.548	0.099
642.800	40.264	0.099
642.900	24.409	0.099
643.000	28.581	0.099
643.100	36.692	0.099
643.200	29.999	0.099
643.300	15.649	0.099
643.400	35.960	0.099
643.500	36.070	0.099
643.600	27.030	0.099
643.700	22.024	0.099
643.800	25.270	0.099
643.900	29.511	0.099
644.000	34.720	0.099
644.100	32.073	0.099
644.200	21.085	0.099
644.300	29.272	0.099
644.400	25.120	0.099
644.500	24.808	0.099
644.600	35.934	0.099
644.700	43.544	0.099
644.800	25.755	0.099
644.900	28.821	0.099
645.000	19.460	0.099
645.100	38.091	0.099
645.200	35.304	0.099
645.300	39.049	0.099
645.400	25.530	0.099
645.500	43.206	0.099
645.600	38.850	0.099
645.700	27.067	0.099
645.800	32.948	0.099
645.900	32.698	0.099
646.000	27.413	0.099
646.100	21.250	0.099
646.200	36.356	0.099
646.300	39.911	0.100
646.400	27.365	0.099
646.500	47.720	0.099
646.600	34.215	0.099
646.700	22.986	0.099
646.800	36.326	0.099
646.900	14.357	0.099
647.000	27.905	0.099
647.100	33.682	0.099
647.200	29.984	0.099
647.300	22.255	0.099
647.400	24.860	0.099
647.500	38.361	0.099
647.600	32.126	0.100
647.700	29.426	0.099
647.800	31.487	0.099
647.900	32.549	0.099
648.000	41.548	0.099
648.100	28.263	0.099
648.200	36.377	0.099
648.300	26.730	0.099
648.400	33.846	0.099
648.500	30.929	0.099
648.600	32.455	0.099
648.700	37.089	0.099
648.800	24.853	0.099
648.900	40.373	0.099
649.000	38.426	0.099
649.100	27.125	0.099
649.200	31.290	0.099
649.300	29.882	0.099
649.400	16.521	0.099
649.500	47.209	0.099
649.600	29.724	0.099
649.700	40.604	0.099
649.800	40.718	0.099
649.900	30.644	0.099
650.000	38.089	0.099
650.100	22.144	0.099
650.200	32.555	0.099
650.300	41.498	0.099
650.400	34.961	0.099
650.500	38.124	0.099
650.600	22.782	0.099
650.700	22.669	0.099
650.800	37.870	0.099
650.900	39.295	0.099
651.000	28.415	0.099
651.100	34.509	0.099
651.200	42.440	0.099
651.300	23.065	0.099
651.400	27.858	0.099
651.500	34.786	0.099
651.600	24.884	0.099
651.700	30.127	0.099
651.800	29.527	0.099
651.900	25.885	0.099
652.000	43.220	0.099
652.100	31.588	0.099
652.200	25.391	0.099
652.300	41.215	0.099
652.400	28.005	0.099
652.500	36.777	0.099
652.600	23.014	0.099
652.700	26.363	0.099
652.800	39.230	0.099
652.900	35.514	0.099
653.000	35.471	0.099
653.100	31.166	0.099
653.200	27.114	0.099
653.300	29.481	0.099
653.400	22.981	0.099
653.500	32.746	0.099
653.600	41.366	0.099
653.700	15.249	0.099
653.800	23.368	0.099
653.900	38.397	0.099
654.000	30.741	0.099
654.100	28.715	0.099
654.200	40.467	0.099
654.300	27.938	0.099
654.400	24.303	0.099
654.500	20.628	0.099
654.600	54.473	0.099
654.700	34.721	0.099
654.800	29.318	0.099
654.900	42.745	0.099
655.000	25.393	0.099
655.100	25.463	0.099
655.200	37.133	0.099
655.300	37.976	0.099
655.400	40.135	0.099
655.500	33.042	0.099
655.600	29.636	0.099
655.700	46.151	0.099
655.800	31.643	0.099
655.900	27.675	0.099
656.000	33.494	0.099
656.100	36.981	0.099
656.200	16.358	0.099
656.300	32.300	0.099
656.400	42.257	0.099
656.500	37.620	0.099
656.600	29.360	0.099
656.700	37.650	0.099
656.800	38.146	0.099
656.900	33.262	0.099
657.000	30.167	0.099
657.100	27.017	0.099
657.200	25.075	0.099
657.300	40.558	0.099
657.400	40.551	0.099
657.500	23.560	0.099
657.600	29.574	0.099
657.700	34.668	0.099
657.800	28.095	0.099
657.900	35.003	0.099
658.000	16.754	0.099
658.100	24.592	0.099
658.200	32.605	0.099
658.300	36.697	0.099
658.400	43.834	0.099
658.500	24.053	0.099
658.600	36.777	0.099
658.700	32.997	0.099
658.800	26.235	0.099
658.900	32.445	0.099
659.000	19.323	0.099
659.100	41.497	0.099
659.200	41.319	0.099
659.300	25.729	0.099
659.400	21.694	0.099
659.500	38.227	0.099
659.600	29.627	0.099
659.700	23.826	0.099
659.800	33.557	0.099
659.900	34.957	0.099
660.000	32.697	0.099
660.100	22.528	0.099
660.200	34.214	0.099
660.300	29.243	0.099
660.400	33.726	0.099
660.500	34.239	0.099
660.600	27.192	0.099
660.700	37.467	0.099
660.800	24.414	0.099
660.900	25.659	0.099
661.000	25.518	0.099
661.100	20.970	0.099
661.200	40.822	0.099
661.300	35.487	0.099
661.400	30.700	0.099
661.500	37.616	0.099
661.600	32.470	0.099
661.700	32.446	0.099
661.800	38.301	0.099
661.900	36.780	0.099
662.000	32.463	0.099
662.100	34.850	0.099
662.200	35.234	0.099
662.300	31.932	0.099
662.400	26.589	0.099
662.500	39.801	0.099
662.600	28.911	0.099
662.700	32.151	0.099
662.800	23.635	0.099
662.900	33.221	0.099
663.000	27.530	0.099
663.100	27.275	0.099
663.200	24.440	0.099
663.300	34.560	0.099
663.400	33.175	0.099
663.500	32.666	0.099
663.600	45.283	0.099
663.700	30.791	0.099
663.800	33.675	0.099
663.900	1.287	0.099
664.000	19.843	0.099
664.100	17.275	0.099
664.200	29.088	0.099
664.300	36.533	0.099
664.400	30.286	0.099
664.500	30.713	0.099
664.600	41.662	0.099
664.700	31.255	0.099
664.800	20.751	0.099
664.900	16.551	0.099
665.000	38.105	0.099
665.100	30.783	0.099
665.200	25.870	0.099
665.300	37.215	0.099
665.400	33.979	0.099
665.500	28.048	0.099
665.600	34.747	0.099
665.700	31.411	0.099
665.800	31.582	0.099
665.900	31.615	0.099
666.000	32.646	0.099
666.100	19.853	0.099
666.200	34.692	0.099
666.300	24.368	0.099
666.400	36.423	0.099
666.500	33.289	0.099
666.600	29.521	0.099
666.700	17.558	0.099
666.800	36.021	0.099
666.900	27.755	0.099
667.000	28.158	0.099
667.100	31.712	0.099
667.200	29.643	0.099
667.300	23.350	0.099
667.400	19.082	0.099
667.500	28.029	0.099
667.600	24.864	0.099
667.700	42.120	0.099
667.800	24.328	0.099
667.900	26.195	0.099
668.000	36.306	0.099
668.100	39.275	0.099
668.200	25.662	0.099
668.300	30.941	0.099
668.400	31.094	0.099
668.500	27.735	0.099
668.600	34.575	0.099
668.700	42.122	0.099
668.800	22.585	0.099
668.900	32.292	0.099
669.000	35.273	0.100
669.100	24.565	0.099
669.200	37.438	0.099
669.300	33.993	0.099
669.400	27.830	0.099
669.500	42.378	0.099
669.600	28.343	0.099
669.700	21.835	0.099
669.800	26.292	0.099
669.900	19.711	0.099
670.000	28.677	0.099
670.100	30.968	0.099
670.200	29.098	0.099
670.300	33.191	0.099
670.400	31.350	0.099
670.500	29.056	0.099
670.600	28.926	0.099
670.700	28.600	0.099
670.800	32.230	0.099
670.900	29.233	0.099
671.000	30.668	0.099
671.100	28.244	0.099
671.200	27.743	0.100
671.300	27.780	0.099
671.400	23.062	0.099
671.500	24.297	0.099
671.600	29.138	0.099
671.700	44.315	0.099
671.800	31.324	0.099
671.900	20.880	0.100
672.000	43.139	0.099
672.100	27.421	0.099
672.200	23.898	0.099
672.300	33.962	0.099
672.400	32.089	0.100
672.500	24.423	0.099
672.600	27.462	0.099
672.700	30.952	0.100
672.800	25.462	0.100
672.900	29.975	0.099
673.000	37.109	0.099
673.100	34.672	0.099
673.200	36.119	0.100
673.300	26.285	0.100
673.400	42.745	0.100
673.500	22.372	0.099
673.600	30.953	0.099
673.700	24.498	0.099
673.800	24.709	0.099
673.900	19.309	0.100
674.000	34.230	0.099
674.100	27.251	0.099
674.200	36.813	0.099
674.300	29.124	0.099
674.400	17.983	0.099
674.500	32.699	0.100
674.600	33.510	0.099
674.700	25.473	0.099
674.800	30.386	0.099
674.900	35.298	0.099
675.000	24.653	0.099
675.100	30.848	0.100
675.200	29.528	0.100
675.300	18.430	0.099
675.400	25.220	0.099
675.500	35.030	0.099
675.600	14.534	0.100
675.700	34.221	0.099
675.800	33.040	0.099
675.900	24.338	0.099
676.000	27.080	0.099
676.100	29.283	0.099
676.200	27.122	0.099
676.300	30.860	0.099
676.400	18.576	0.099
676.500	33.171	0.099
676.600	22.789	0.099
676.700	44.574	0.099
676.800	29.382	0.099
676.900	34.808	0.099
677.000	31.693	0.099
677.100	16.296	0.099
677.200	34.266	0.099
677.300	35.681	0.099
677.400	21.271	0.099
677.500	33.968	0.099
677.600	15.917	0.099
677.700	33.310	0.099
677.800	20.975	0.099
677.900	18.048	0.099
678.000	22.105	0.099
678.100	27.479	0.099
678.200	29.248	0.099
678.300	25.090	0.099
678.400	27.140	0.099
678.500	44.313	0.099
678.600	46.000	0.099
678.700	20.292	0.099
678.800	21.700	0.099
678.900	27.560	0.099
679.000	33.634	0.099
679.100	39.129	0.099
679.200	24.399	0.099
679.300	22.420	0.099
679.400	34.690	0.099
679.500	29.890	0.099
679.600	27.387	0.099
679.700	31.939	0.099
679.800	29.129	0.099
679.900	28.564	0.099
680.000	20.614	0.099
680.100	23.774	0.099
680.200	30.860	0.099
680.300	17.957	0.099
680.400	28.209	0.099
680.500	28.471	0.099
680.600	16.640	0.099
680.700	22.091	0.099
680.800	33.695	0.099
680.900	41.982	0.099
681.000	25.683	0.099
681.100	18.325	0.099
681.200	26.391	0.099
681.300	30.211	0.099
681.400	32.529	0.099
681.500	28.080	0.099
681.600	29.711	0.099
681.700	26.972	0.099
681.800	43.433	0.099
681.900	17.242	0.099
682.000	20.244	0.099
682.100	24.008	0.099
682.200	31.841	0.099
682.300	25.107	0.100
682.400	19.392	0.100
682.500	35.087	0.099
682.600	19.502	0.099
682.700	27.356	0.099
682.800	18.267	0.099
682.900	27.787	0.099
683.000	25.221	0.099
683.100	28.112	0.100
683.200	29.228	0.099
683.300	23.344	0.099
683.400	35.562	0.099
683.500	29.889	0.100
683.600	29.682	0.099
683.700	29.829	0.100
683.800	33.202	0.099
683.900	28.612	0.099
684.000	21.970	0.099
684.100	17.411	0.099
684.200	31.702	0.099
684.300	24.016	0.100
684.400	32.592	0.099
684.500	28.840	0.099
684.600	27.677	0.099
684.700	24.967	0.099
684.800	30.519	0.099
684.900	30.884	0.100
685.000	28.643	0.099
685.100	27.952	0.099
685.200	22.692	0.099
685.300	27.138	0.099
685.400	20.577	0.099
685.500	41.804	0.100
685.600	24.801	0.100
685.700	18.760	0.100
685.800	37.706	0.099
685.900	29.975	0.099
686.000	36.176	0.099
686.100	26.921	0.099
686.200	19.789	0.099
686.300	24.054	0.099
686.400	30.448	0.099
686.500	34.695	0.099
686.600	21.060	0.099
686.700	25.166	0.099
686.800	33.973	0.099
686.900	25.898	0.099
687.000	31.524	0.099
687.100	26.057	0.099
687.200	31.464	0.099
687.300	22.479	0.099
687.400	18.763	0.099
687.500	23.785	0.099
687.600	31.018	0.099
687.700	24.452	0.099
687.800	31.580	0.099
687.900	18.193	0.099
688.000	18.310	0.099
688.100	37.560	0.099
688.200	17.770	0.099
688.300	15.511	0.099
688.400	35.734	0.099
688.500	25.180	0.099
688.600	23.971	0.099
688.700	27.940	0.099
688.800	18.199	0.099
688.900	29.487	0.099
689.000	29.830	0.099
689.100	31.569	0.099
689.200	25.705	0.099
689.300	29.853	0.099
689.400	25.913	0.099
689.500	20.996	0.100
689.600	13.936	0.099
689.700	30.590	0.099
689.800	39.473	0.099
689.900	28.353	0.099
690.000	23.341	0.099
690.100	22.542	0.099
690.200	26.897	0.099
690.300	39.535	0.099
690.400	28.939	0.099
690.500	27.388	0.099
690.600	16.195	0.099
690.700	28.253	0.099
690.800	12.982	0.100
690.900	20.198	0.099
691.000	14.520	0.099
691.100	24.172	0.099
691.200	14.468	0.099
691.300	18.836	0.099
691.400	11.957	0.099
691.500	24.194	0.099
691.600	14.956	0.100
691.700	12.374	0.099
691.800	14.831	0.099
691.900	0.255	0.099
692.000	5.672	0.099
692.100	1.071	0.099
692.200	10.798	0.099
692.300	-8.183	0.099
692.400	7.636	0.099
692.500	6.583	0.099
692.600	-17.924	0.099
692.700	-4.332	0.099
692.800	-18.829	0.099
692.900	12.245	0.100
693.000	-8.861	0.099
693.100	-4.728	0.099
693.200	-1.756	0.099
693.300	-9.962	0.099
693.400	-8.781	0.099
693.500	-9.665	0.099
693.600	-14.639	0.099
693.700	-4.827	0.099
693.800	-9.156	0.100
693.900	3.509	0.099
694.000	-9.416	0.100
694.100	-16.176	0.099
694.200	-8.733	0.099
694.300	-9.032	0.099
694.400	-7.486	0.100
694.500	-23.293	0.099
694.600	-7.160	0.099
694.700	-11.307	0.099
694.800	-10.039	0.099
694.900	-14.581	0.099
695.000	2.233	0.099
695.100	-10.572	0.099
695.200	-24.760	0.099
695.300	-19.508	0.099
695.400	-12.550	0.099
695.500	-6.566	0.099
695.600	-11.453	0.099
695.700	-21.859	0.099
695.800	-12.866	0.099
695.900	-8.677	0.099
696.000	-20.728	0.099
696.100	3.666	0.099
696.200	-6.515	0.099
696.300	-10.025	0.099
696.400	-24.576	0.099
696.500	-7.425	0.099
696.600	-17.178	0.099
696.700	-8.443	0.099
696.800	-19.838	0.099
696.900	-0.395	0.099
697.000	-8.228	0.099
697.100	-8.341	0.099
697.200	-9.387	0.099
697.300	-21.005	0.099
697.400	-14.214	0.099
697.500	-3.409	0.100
697.600	-19.125	0.099
697.700	-6.296	0.099
697.800	-13.168	0.100
697.900	-24.174	0.099
698.000	-8.225	0.099
698.100	-16.849	0.099
698.200	-11.761	0.099
698.300	-5.900	0.099
698.400	-5.327	0.099
698.500	-13.940	0.099
698.600	-15.824	0.099
698.700	-11.551	0.099
698.800	-4.053	0.099
698.900	-16.457	0.099
699.000	-3.024	0.099
699.100	-23.530	0.099
699.200	-9.611	0.099
699.300	-3.363	0.099
699.400	-8.552	0.099
699.500	-19.109	0.099
699.600	-19.690	0.099
699.700	-18.735	0.099
699.800	-8.460	0.099
699.900	-17.645	0.099
700.000	-13.652	0.100
700.100	-10.540	0.099
700.200	-2.548	0.099
700.300	-5.951	0.099
700.400	-3.422	0.099
700.500	-22.018	0.099
700.600	-3.693	0.099
700.700	-10.820	0.099
700.800	-9.307	0.099
700.900	-1.706	0.100
701.000	-5.529	0.099
701.100	-24.746	0.100
701.200	-24.042	0.099
701.300	-11.623	0.100
701.400	-9.754	0.099
701.500	-13.266	0.099
701.600	-6.761	0.100
701.700	-8.076	0.099
701.800	-16.968	0.099
701.900	-20.456	0.099
702.000	0.655	0.100
702.100	-17.891	0.099
702.200	-14.638	0.099
702.300	-17.302	0.099
702.400	-18.725	0.099
702.500	-9.589	0.099
702.600	-11.902	0.099
702.700	-27.892	0.099
702.800	-1.092	0.099
702.900	-12.031	0.099
703.000	-8.630	0.099
703.100	-2.598	0.099
703.200	-18.188	0.099
703.300	-12.452	0.100
703.400	-18.294	0.099
703.500	-24.193	0.099
703.600	-9.761	0.099
703.700	-10.230	0.099
703.800	-27.761	0.099
703.900	-12.639	0.099
704.000	-7.074	0.099
704.100	-13.874	0.099
704.200	-25.308	0.099
704.300	-9.080	0.099
704.400	-21.585	0.099
704.500	-9.504	0.099
704.600	-9.448	0.099
704.700	-12.548	0.099
704.800	-27.119	0.099
704.900	-25.908	0.099
705.000	-14.925	0.100
705.100	-14.058	0.099
705.200	-6.151	0.100
705.300	-8.535	0.099
705.400	-15.409	0.099
705.500	-27.078	0.099
705.600	-16.079	0.099
705.700	-33.485	0.099
705.800	-19.289	0.100
705.900	-17.204	0.099
706.000	-9.002	0.099
706.100	-8.921	0.099
706.200	-6.209	0.099
706.300	-27.989	0.099
706.400	-18.373	0.099
706.500	-19.174	0.099
706.600	-24.515	0.099
706.700	-1.839	0.099
706.800	-16.044	0.099
706.900	-23.826	0.099
707.000	-18.393	0.099
707.100	-3.917	0.099
707.200	-12.006	0.099
707.300	-13.257	0.099
707.400	-8.574	0.099
707.500	-28.102	0.099
707.600	-22.099	0.099
707.700	-21.723	0.099
707.800	-24.262	0.099
707.900	-17.476	0.099
708.000	-6.595	0.099
708.100	-19.836	0.099
708.200	-24.742	0.099
708.300	-30.489	0.099
708.400	-26.641	0.099
708.500	-20.511	0.099
708.600	-17.846	0.099
708.700	-17.851	0.099
708.800	-20.723	0.099
708.900	-18.569	0.099
709.000	-17.887	0.099
709.100	-7.042	0.099
709.200	-24.257	0.099
709.300	-12.101	0.099
709.400	-22.265	0.099
709.500	-14.129	0.099
709.600	-16.795	0.099
709.700	-14.401	0.099
709.800	-8.762	0.099
709.900	-22.243	0.099
710.000	-26.000	0.099
710.100	-21.221	0.099
710.200	-24.807	0.100
710.300	-13.138	0.099
710.400	-6.217	0.099
710.500	-19.200	0.099
710.600	-13.412	0.099
710.700	-19.678	0.099
710.800	-7.390	0.099
710.900	-24.621	0.099
711.000	-33.551	0.099
711.100	-10.013	0.099
711.200	-19.457	0.099
711.300	-19.574	0.099
711.400	-19.835	0.099
711.500	-7.152	0.099
711.600	-13.883	0.099
711.700	-18.797	0.099
711.800	-23.421	0.099
711.900	-10.975	0.099
712.000	-28.167	0.099
712.100	-14.971	0.099
712.200	-37.684	0.099
712.300	-26.795	0.099
712.400	-22.243	0.099
712.500	-14.668	0.099
712.600	-24.004	0.099
712.700	-17.814	0.099
712.800	-19.944	0.099
712.900	-21.410	0.099
713.000	-20.781	0.099
713.100	-22.720	0.099
713.200	-15.880	0.099
713.300	-23.501	0.099
713.400	-26.441	0.099
713.500	-15.129	0.099
713.600	-16.845	0.099
713.700	-15.491	0.099
713.800	-18.558	0.099
713.900	-24.219	0.099
714.000	-14.488	0.099
714.100	-20.811	0.099
714.200	-21.510	0.099
714.300	-19.068	0.099
714.400	-37.010	0.099
714.500	-28.774	0.099
714.600	-15.605	0.099
714.700	-25.904	0.099
714.800	-18.436	0.099
714.900	-11.782	0.099
715.000	-23.063	0.099
715.100	-19.578	0.099
715.200	-23.933	0.099
715.300	-22.759	0.099
715.400	-27.541	0.099
715.500	-19.619	0.099
715.600	-10.262	0.099
715.700	-12.603	0.099
715.800	-28.674	0.099
715.900	-35.159	0.099
716.000	-15.284	0.099
716.100	-12.790	0.099
716.200	-23.027	0.099
716.300	-19.371	0.099
716.400	-9.366	0.099
716.500	-32.557	0.099
716.600	-21.845	0.099
716.700	-21.480	0.099
716.800	-30.971	0.099
716.900	-16.352	0.099
717.000	-25.862	0.099
717.100	-41.283	0.099
717.200	-10.516	0.099
717.300	-16.839	0.099
717.400	-37.103	0.099
717.500	-17.225	0.099
717.600	-17.542	0.099
717.700	-21.159	0.099
717.800	-30.781	0.099
717.900	-24.784	0.099
718.000	-17.985	0.099
718.100	-18.458	0.099
718.200	-27.602	0.099
718.300	-19.689	0.099
718.400	-14.570	0.099
718.500	-15.492	0.099
718.600	-18.631	0.099
718.700	-31.524	0.099
718.800	-15.327	0.099
718.900	-19.113	0.099
719.000	-29.531	0.099
719.100	-21.361	0.099
719.200	-10.562	0.099
719.300	-20.545	0.099
719.400	-34.814	0.099
719.500	-18.461	0.099
719.600	-22.727	0.099
719.700	-15.424	0.099
719.800	-25.194	0.099
719.900	-17.714	0.099
720.000	-10.263	0.099
720.100	-33.429	0.099
720.200	-7.849	0.099
720.300	-22.438	0.099
720.400	-15.869	0.099
720.500	-19.936	0.099
720.600	-22.143	0.099
720.700	-30.581	0.099
720.800	-13.417	0.099
720.900	-30.404	0.099
721.000	-8.857	0.099
721.100	-8.769	0.099
721.200	-24.224	0.099
721.300	-22.909	0.099
721.400	-14.228	0.099
721.500	-15.886	0.099
721.600	-17.112	0.099
721.700	-25.747	0.099
721.800	-18.117	0.099
721.900	-19.864	0.099
722.000	-24.013	0.099
722.100	-19.884	0.099
722.200	-34.552	0.099
722.300	-21.334	0.099
722.400	-13.022	0.099
722.500	-14.226	0.099
722.600	-17.749	0.099
722.700	-26.652	0.099
722.800	-19.431	0.099
722.900	-29.499	0.099
723.000	-14.884	0.099
723.100	-28.018	0.099
723.200	-14.733	0.099
723.300	-17.072	0.099
723.400	-16.938	0.099
723.500	-18.640	0.099
723.600	-31.346	0.099
723.700	-9.915	0.099
723.800	-11.472	0.099
723.900	-10.149	0.099
724.000	-36.864	0.099
724.100	-25.330	0.099
724.200	-0.248	0.099
724.300	-26.129	0.099
724.400	-22.124	0.099
724.500	-22.495	0.099
724.600	-13.455	0.099
724.700	-43.979	0.099
724.800	-14.742	0.099
724.900	-24.016	0.099
725.000	-12.450	0.099
725.100	-22.449	0.099
725.200	-17.438	0.099
725.300	-20.050	0.099
725.400	-19.760	0.099
725.500	-19.224	0.099
725.600	-17.421	0.099
725.700	-11.846	0.099
725.800	-12.216	0.099
725.900	-26.740	0.099
726.000	-18.232	0.099
726.100	-20.711	0.099
726.200	-9.334	0.099
726.300	-19.201	0.099
726.400	-12.676	0.099
726.500	-32.837	0.099
726.600	-17.835	0.099
726.700	-18.866	0.099
726.800	-17.676	0.099
726.900	-17.335	0.099
727.000	-21.691	0.099
727.100	-22.366	0.099
727.200	-11.503	0.099
727.300	-14.279	0.099
727.400	-8.683	0.099
727.500	-32.526	0.099
727.600	-9.646	0.099
727.700	-20.855	0.099
727.800	-20.798	0.099
727.900	-18.159	0.099
728.000	-22.493	0.099
728.100	-18.339	0.099
728.200	-29.695	0.099
728.300	-7.016	0.099
728.400	-29.686	0.099
728.500	-14.061	0.099
728.600	-21.668	0.099
728.700	-18.665	0.099
728.800	-26.013	0.099
728.900	-22.926	0.099
729.000	-25.891	0.100
729.100	-13.796	0.099
729.200	-13.070	0.099
729.300	-16.654	0.099
729.400	-19.845	0.099
729.500	-19.411	0.099
729.600	-16.266	0.099
729.700	-5.121	0.099
729.800	-23.611	0.099
729.900	-12.391	0.099
730.000	-4.789	0.099
730.100	-18.002	0.099
730.200	-26.917	0.099
730.300	-6.535	0.099
730.400	-20.855	0.099
730.500	-18.453	0.099
730.600	-25.870	0.099
730.700	-21.599	0.099
730.800	-19.106	0.099
730.900	-12.606	0.099
731.000	-17.520	0.099
731.100	-15.932	0.099
731.200	-8.723	0.099
731.300	-21.399	0.099
731.400	-18.114	0.099
731.500	-7.595	0.099
731.600	-13.870	0.099
731.700	-10.853	0.099
731.800	-18.957	0.099
731.900	-20.584	0.099
732.000	-23.227	0.099
732.100	-17.714	0.099
732.200	-10.195	0.099
732.300	-13.354	0.099
732.400	-27.156	0.099
732.500	-14.313	0.099
732.600	-17.843	0.099
732.700	-18.973	0.099
732.800	-12.439	0.099
732.900	-15.353	0.099
733.000	-12.783	0.099
733.100	-8.980	0.099
733.200	-24.659	0.099
733.300	-6.467	0.099
733.400	-33.547	0.099
733.500	-0.349	0.099
733.600	-18.677	0.099
733.700	-10.235	0.099
733.800	-17.488	0.099
733.900	-20.510	0.099
734.000	-14.668	0.099
734.100	-16.550	0.099
734.200	-19.747	0.099
734.300	-29.754	0.099
734.400	-9.306	0.099
734.500	-21.943	0.099
734.600	-22.635	0.099
734.700	-22.174	0.099
734.800	-17.388	0.099
734.900	-20.677	0.099
735.000	-5.000	0.099
735.100	-14.960	0.099
735.200	-19.336	0.099
735.300	-18.450	0.099
735.400	-13.253	0.099
735.500	-20.860	0.099
735.600	-17.073	0.099
735.700	-3.459	0.099
735.800	-14.300	0.099
735.900	-35.613	0.099
736.000	-12.420	0.099
736.100	-17.967	0.099
736.200	-12.149	0.099
736.300	-19.167	0.099
736.400	-27.712	0.099
736.500	-7.665	0.099
736.600	-8.898	0.099
736.700	-16.112	0.099
736.800	-32.758	0.099
736.900	-13.433	0.099
737.000	-20.698	0.099
737.100	-15.759	0.099
737.200	-22.828	0.099
737.300	-22.309	0.099
737.400	-8.183	0.099
737.500	-17.047	0.099
737.600	-25.487	0.099
737.700	-12.480	0.099
737.800	-12.852	0.099
737.900	-13.726	0.099
738.000	-22.351	0.099
738.100	1.666	0.099
738.200	-16.484	0.099
738.300	-19.312	0.099
738.400	-15.214	0.099
738.500	-14.026	0.099
738.600	-11.017	0.099
738.700	-21.229	0.099
738.800	-28.894	0.099
738.900	-5.263	0.099
739.000	-22.836	0.099
739.100	-12.687	0.099
739.200	-19.371	0.099
739.300	-11.333	0.099
739.400	-10.145	0.099
739.500	-19.432	0.099
739.600	-21.084	0.099
739.700	-18.324	0.099
739.800	-7.076	0.099
739.900	-21.434	0.099
740.000	-7.327	0.099
740.100	-42.208	0.099
740.200	-14.573	0.099
740.300	-19.286	0.099
740.400	-18.155	0.099
740.500	-6.373	0.099
740.600	-32.003	0.099
740.700	-17.714	0.099
740.800	-5.639	0.099
740.900	-7.674	0.099
741.000	-30.487	0.099
741.100	-20.294	0.099
741.200	-20.979	0.099
741.300	-21.084	0.099
741.400	-22.067	0.099
741.500	-14.320	0.099
741.600	-8.826	0.099
741.700	-19.093	0.099
741.800	-15.044	0.099
741.900	-12.385	0.099
742.000	-8.169	0.099
742.100	-22.948	0.099
742.200	-17.221	0.099
742.300	-15.523	0.099
742.400	-21.757	0.099
742.500	-28.974	0.099
742.600	-18.630	0.099
742.700	-14.760	0.099
742.800	-16.187	0.099
742.900	-15.100	0.099
743.000	-13.352	0.099
743.100	-9.026	0.099
743.200	-22.638	0.099
743.300	-3.708	0.099
743.400	-8.649	0.099
743.500	-24.015	0.099
743.600	-13.291	0.099
743.700	-10.791	0.099
743.800	-10.624	0.099
743.900	-8.862	0.099
744.000	-10.644	0.099
744.100	-5.795	0.099
744.200	-11.309	0.099
744.300	-23.825	0.099
744.400	-22.813	0.099
744.500	-12.304	0.099
744.600	-18.362	0.099
744.700	2.350	0.099
744.800	-13.783	0.099
744.900	-18.825	0.099
745.000	-18.836	0.099
745.100	-13.493	0.099
745.200	-11.758	0.099
745.300	-9.931	0.099
745.400	-14.743	0.099
745.500	-9.037	0.099
745.600	-14.935	0.099
745.700	-10.302	0.099
745.800	-29.105	0.099
745.900	-16.168	0.099
746.000	-11.005	0.099
746.100	-8.016	0.099
746.200	-9.240	0.099
746.300	-13.266	0.099
746.400	-20.204	0.099
746.500	-7.870	0.099
746.600	-9.641	0.099
746.700	-16.353	0.099
746.800	-5.176	0.099
746.900	-21.254	0.099
747.000	-12.556	0.099
747.100	-23.888	0.099
747.200	-0.035	0.099
747.300	-17.230	0.099
747.400	-22.165	0.099
747.500	-5.410	0.099
747.600	-18.572	0.099
747.700	-8.195	0.099
747.800	-10.469	0.099
747.900	-4.806	0.099
748.000	-18.587	0.099
748.100	-15.467	0.099
748.200	-20.339	0.099
748.300	-18.473	0.099
748.400	-17.240	0.099
748.500	-16.146	0.099
748.600	-31.769	0.099
748.700	-4.544	0.099
748.800	-11.691	0.099
748.900	-23.320	0.099
749.000	-1.074	0.099
749.100	-25.548	0.099
749.200	-13.192	0.099
749.300	-11.186	0.099
749.400	-20.950	0.099
749.500	-9.152	0.099
749.600	-25.318	0.099
749.700	-4.840	0.099
749.800	-10.008	0.099
749.900	-22.501	0.099
750.000	-8.066	0.099
750.100	-8.876	0.099
750.200	-8.388	0.099
750.300	-24.398	0.100
750.400	-12.725	0.099
750.500	-18.909	0.099
750.600	-11.886	0.099
750.700	-15.741	0.099
750.800	-11.076	0.099
750.900	-24.635	0.099
751.000	-10.353	0.099
751.100	-5.889	0.099
751.200	-29.176	0.099
751.300	-24.182	0.099
751.400	-8.033	0.099
751.500	-16.748	0.099
751.600	-20.601	0.099
751.700	-15.127	0.099
751.800	-5.408	0.099
751.900	-10.774	0.099
752.000	-18.623	0.099
752.100	-5.247	0.099
752.200	-15.079	0.099
752.300	-10.964	0.099
752.400	-1.525	0.099
752.500	-6.036	0.099
752.600	-22.577	0.099
752.700	-17.179	0.099
752.800	-14.838	0.099
752.900	-11.567	0.099
753.000	-16.136	0.099
753.100	-16.102	0.099
753.200	-5.609	0.099
753.300	-25.348	0.099
753.400	-15.723	0.099
753.500	-12.210	0.099
753.600	-5.265	0.099
753.700	-14.591	0.099
753.800	-7.997	0.099
753.900	-7.465	0.099
754.000	-12.064	0.099
754.100	-9.316	0.099
754.200	2.929	0.099
754.300	-12.574	0.099
754.400	-18.937	0.099
754.500	-29.111	0.099
754.600	-14.103	0.099
754.700	2.937	0.099
754.800	-12.822	0.099
754.900	-16.385	0.099
755.000	-2.748	0.099
755.100	-18.241	0.099
755.200	-0.738	0.099
755.300	-23.622	0.099
755.400	0.507	0.099
755.500	-20.930	0.099
755.600	-19.780	0.099
755.700	-8.111	0.099
755.800	-12.585	0.099
755.900	-16.893	0.099
756.000	-6.587	0.099
756.100	-4.544	0.099
756.200	-10.828	0.099
756.300	-25.659	0.099
756.400	-10.099	0.099
756.500	-2.131	0.099
756.600	-27.598	0.099
756.700	-19.133	0.099
756.800	4.982	0.099
756.900	-17.154	0.099
757.000	1.486	0.099
757.100	-18.222	0.099
757.200	-21.074	0.099
757.300	-11.253	0.099
757.400	-2.896	0.099
757.500	-11.451	0.099
757.600	-19.954	0.099
757.700	-26.581	0.099
757.800	-13.168	0.099
757.900	-16.642	0.099
758.000	-13.222	0.099
758.100	-7.229	0.099
758.200	-13.745	0.099
758.300	-12.911	0.099
758.400	-14.664	0.099
758.500	-19.185	0.099
758.600	-6.718	0.099
758.700	-24.513	0.099
758.800	-3.273	0.099
758.900	-21.481	0.099
759.000	-13.833	0.099
759.100	0.497	0.099
759.200	-15.596	0.099
759.300	-15.804	0.099
759.400	-15.654	0.099
759.500	-13.726	0.099
759.600	-18.845	0.099
759.700	-14.422	0.099
759.800	-12.033	0.099
759.900	4.785	0.100
760.000	-16.405	0.099
760.100	-9.067	0.099
760.200	-23.227	0.099
760.300	-15.502	0.099
760.400	-2.650	0.099
760.500	0.661	0.099
760.600	-10.936	0.099
760.700	-21.310	0.099
760.800	-20.773	0.099
760.900	-8.756	0.099
761.000	-14.296	0.099
761.100	-15.035	0.099
761.200	-5.239	0.099
761.300	-13.828	0.099
761.400	-3.739	0.099
761.500	-5.218	0.099
761.600	-10.012	0.099
761.700	-19.037	0.099
761.800	-1.509	0.099
761.900	-17.095	0.099
762.000	-28.300	0.099
762.100	-12.219	0.099
762.200	-13.756	0.099
762.300	-11.019	0.099
762.400	-14.414	0.099
762.500	-13.093	0.099
762.600	-8.158	0.099
762.700	-17.446	0.099
762.800	-21.442	0.099
762.900	-8.421	0.099
763.000	-17.446	0.099
763.100	-6.864	0.099
763.200	-11.821	0.099
763.300	-1.905	0.099
763.400	-18.368	0.099
763.500	-4.440	0.099
763.600	-23.344	0.099
763.700	-13.144	0.099
763.800	-7.511	0.099
763.900	-12.052	0.099
764.000	-3.067	0.099
764.100	-14.932	0.099
764.200	-15.494	0.099
764.300	-14.508	0.099
764.400	-11.425	0.100
764.500	-23.356	0.099
764.600	-24.634	0.099
764.700	-2.736	0.099
764.800	-5.227	0.099
764.900	-25.894	0.099
765.000	-12.632	0.099
765.100	2.167	0.099
765.200	-12.408	0.099
765.300	-4.782	0.099
765.400	-8.234	0.099
765.500	-13.928	0.099
765.600	-7.087	0.099
765.700	-19.480	0.099
765.800	-10.100	0.099
765.900	-11.192	0.099
766.000	-9.830	0.099
766.100	-0.745	0.099
766.200	-20.684	0.099
766.300	-29.740	0.099
766.400	-5.997	0.099
766.500	-5.858	0.099
766.600	-20.332	0.099
766.700	-5.576	0.099
766.800	-9.375	0.099
766.900	-7.767	0.099
767.000	3.512	0.099
767.100	-15.080	0.099
767.200	-7.833	0.099
767.300	-20.724	0.099
767.400	-9.563	0.099
767.500	-6.621	0.099
767.600	-3.960	0.100
767.700	-21.146	0.099
767.800	-9.328	0.099
767.900	-13.677	0.099
768.000	-9.114	0.099
768.100	-13.461	0.099
768.200	-16.635	0.099
768.300	2.321	0.099
768.400	-12.192	0.099
768.500	-10.914	0.099
768.600	-7.766	0.099
768.700	-21.350	0.099
768.800	-5.028	0.099
768.900	-20.892	0.099
769.000	-7.459	0.099
769.100	-5.759	0.099
769.200	-13.236	0.099
769.300	-22.271	0.099
769.400	-10.305	0.099
769.500	-27.855	0.099
769.600	-4.235	0.099
769.700	-3.809	0.099
769.800	-1.429	0.099
769.900	-15.732	0.099
770.000	-9.126	0.099
770.100	-24.528	0.099
770.200	-30.315	0.099
770.300	-0.983	0.099
770.400	-5.214	0.099
770.500	-12.564	0.099
770.600	-15.014	0.099
770.700	-1.566	0.099
770.800	-19.794	0.099
770.900	-9.121	0.099
771.000	-10.320	0.099
771.100	-1.460	0.099
771.200	-6.971	0.100
771.300	-10.221	0.099
771.400	-6.380	0.099
771.500	-18.412	0.099
771.600	-0.742	0.099
771.700	-19.791	0.099
771.800	-9.101	0.099
771.900	-9.333	0.099
772.000	-5.277	0.099
772.100	-5.179	0.099
772.200	-4.596	0.099
772.300	-22.497	0.099
772.400	-4.146	0.099
772.500	-10.924	0.099
772.600	-10.013	0.099
772.700	-13.193	0.099
772.800	-6.715	0.099
772.900	-13.517	0.099
773.000	-7.963	0.099
773.100	-7.778	0.099
773.200	-11.784	0.099
773.300	-15.076	0.099
773.400	-12.612	0.099
773.500	5.655	0.099
773.600	-12.634	0.099
773.700	-18.921	0.099
773.800	11.745	0.099
773.900	-4.674	0.099
774.000	-4.389	0.099
774.100	-5.241	0.099
774.200	-2.161	0.099
774.300	-6.543	0.099
774.400	-16.439	0.099
774.500	-14.189	0.099
774.600	-2.146	0.099
774.700	-15.696	0.099
774.800	-18.994	0.099
774.900	-13.984	0.099
775.000	-17.155	0.099
775.100	-2.453	0.099
775.200	-3.238	0.099
775.300	-9.670	0.099
775.400	-16.504	0.099
775.500	-18.634	0.099
775.600	-11.140	0.099
775.700	-13.096	0.099
775.800	-15.610	0.099
775.900	-1.131	0.099
776.000	0.343	0.099
776.100	-13.391	0.099
776.200	-8.706	0.099
776.300	-8.136	0.099
776.400	-4.471	0.099
776.500	-15.855	0.099
776.600	4.438	0.099
776.700	-10.691	0.099
776.800	-15.697	0.099
776.900	-13.721	0.099
777.000	-18.858	0.099
777.100	-9.862	0.099
777.200	-4.174	0.099
777.300	-10.054	0.099
777.400	-11.317	0.099
777.500	4.168	0.099
777.600	-13.388	0.099
777.700	-9.357	0.099
777.800	-10.962	0.099
777.900	-4.253	0.099
778.000	-7.424	0.099
778.100	-8.602	0.099
778.200	-19.136	0.099
778.300	-17.637	0.099
778.400	-5.092	0.099
778.500	-5.728	0.099
778.600	-16.424	0.099
778.700	-8.074	0.099
778.800	-13.481	0.099
778.900	-16.777	0.099
779.000	2.672	0.099
779.100	-18.665	0.099
779.200	-17.316	0.099
779.300	-10.774	0.099
779.400	-9.545	0.099
779.500	-15.401	0.099
779.600	-10.449	0.099
779.700	-16.447	0.099
779.800	0.824	0.099
779.900	-4.237	0.099
780.000	-5.716	0.099
780.100	-22.951	0.099
780.200	-5.835	0.099
780.300	0.848	0.099
780.400	-12.946	0.099
780.500	-17.366	0.099
780.600	-0.544	0.099
780.700	-8.283	0.099
780.800	-5.217	0.099
780.900	0.653	0.099
781.000	-6.620	0.099
781.100	-16.438	0.099
781.200	9.378	0.099
781.300	4.268	0.099
781.400	-1.600	0.099
781.500	-0.175	0.099
781.600	9.252	0.099
781.700	4.053	0.099
781.800	-5.240	0.099
781.900	15.358	0.099
782.000	6.855	0.100
782.100	3.779	0.099
782.200	19.164	0.099
782.300	-0.808	0.099
782.400	11.505	0.099
782.500	16.076	0.099
782.600	12.305	0.099
782.700	11.169	0.099
782.800	0.905	0.099
782.900	12.674	0.099
783.000	5.119	0.099
783.100	23.730	0.099
783.200	16.564	0.099
783.300	18.314	0.099
783.400	10.082	0.099
783.500	17.808	0.099
783.600	12.198	0.099
783.700	16.552	0.099
783.800	12.696	0.099
783.900	27.363	0.099
784.000	21.954	0.099
784.100	25.897	0.099
784.200	19.557	0.099
784.300	20.564	0.099
784.400	24.342	0.100
784.500	22.383	0.099
784.600	13.195	0.099
784.700	22.390	0.099
784.800	25.129	0.099
784.900	16.381	0.099
785.000	6.785	0.099
785.100	12.934	0.099
785.200	8.193	0.099
785.300	12.198	0.099
785.400	23.981	0.099
785.500	15.979	0.099
785.600	23.470	0.099
785.700	24.046	0.099
785.800	6.154	0.099
785.900	12.936	0.099
786.000	8.332	0.099
786.100	15.944	0.099
786.200	11.995	0.099
786.300	26.540	0.099
786.400	22.749	0.099
786.500	13.096	0.099
786.600	15.752	0.099
786.700	11.261	0.099
786.800	13.706	0.099
786.900	18.782	0.099
787.000	17.550	0.099
787.100	8.911	0.099
787.200	17.213	0.099
787.300	15.051	0.099
787.400	21.796	0.099
787.500	20.935	0.099
787.600	24.650	0.099
787.700	21.993	0.099
787.800	24.613	0.099
787.900	20.197	0.099
788.000	15.453	0.099
788.100	23.307	0.099
788.200	24.913	0.099
788.300	26.638	0.099
788.400	24.422	0.099
788.500	9.960	0.099
788.600	12.159	0.099
788.700	20.194	0.099
788.800	27.602	0.099
788.900	17.515	0.099
789.000	16.534	0.099
789.100	14.546	0.099
789.200	18.955	0.099
789.300	31.651	0.099
789.400	15.926	0.099
789.500	29.413	0.099
789.600	17.349	0.099
789.700	25.363	0.099
789.800	26.000	0.099
789.900	23.602	0.099
790.000	21.768	0.099
790.100	19.289	0.099
790.200	20.653	0.099
790.300	25.123	0.099
790.400	20.092	0.099
790.500	16.580	0.099
790.600	13.236	0.099
790.700	28.153	0.099
790.800	23.648	0.099
790.900	13.852	0.099
791.000	17.270	0.099
791.100	28.340	0.099
791.200	38.910	0.099
791.300	41.400	0.099
791.400	28.083	0.099
791.500	33.425	0.099
791.600	32.028	0.099
791.700	26.195	0.099
791.800	22.789	0.099
791.900	20.238	0.100
792.000	30.161	0.099
792.100	32.531	0.099
792.200	25.798	0.099
792.300	34.224	0.099
792.400	32.264	0.099
792.500	14.670	0.099
792.600	20.118	0.099
792.700	19.653	0.100
792.800	35.996	0.099
792.900	31.616	0.099
793.000	22.420	0.099
793.100	37.490	0.099
793.200	32.518	0.099
793.300	20.917	0.099
793.400	19.408	0.099
793.500	29.435	0.099
793.600	15.465	0.099
793.700	39.194	0.099
793.800	42.523	0.099
793.900	17.148	0.100
794.000	25.592	0.099
794.100	33.999	0.099
794.200	30.107	0.099
794.300	20.367	0.099
794.400	27.340	0.099
794.500	23.464	0.099
794.600	33.414	0.099
794.700	26.865	0.099
794.800	34.390	0.099
794.900	21.687	0.099
795.000	38.926	0.099
795.100	29.406	0.099
795.200	40.975	0.099
795.300	25.421	0.099
795.400	30.538	0.099
795.500	36.731	0.099
795.600	33.632	0.099
795.700	18.512	0.099
795.800	35.079	0.099
795.900	46.018	0.099
796.000	21.790	0.099
796.100	25.976	0.099
796.200	36.840	0.099
796.300	32.946	0.099
796.400	31.103	0.099
796.500	41.077	0.099
796.600	34.286	0.099
796.700	26.035	0.099
796.800	21.157	0.099
796.900	40.229	0.099
797.000	38.859	0.099
797.100	24.738	0.099
797.200	34.963	0.099
797.300	40.620	0.099
797.400	36.344	0.099
797.500	27.008	0.099
797.600	34.212	0.099
797.700	33.589	0.099
797.800	31.018	0.099
797.900	31.611	0.099
798.000	32.243	0.099
798.100	26.755	0.099
798.200	33.528	0.099
798.300	31.852	0.099
798.400	31.424	0.099
798.500	38.352	0.099
798.600	41.662	0.099
798.700	19.343	0.099
798.800	36.317	0.099
798.900	33.214	0.099
799.000	32.285	0.099
799.100	21.327	0.099
799.200	42.933	0.099
799.300	26.537	0.099
799.400	27.666	0.099
799.500	33.564	0.099
799.600	32.643	0.099
799.700	25.051	0.099
799.800	42.280	0.099
799.900	29.500	0.099
800.000	21.555	0.099
