time /s	I /nA	E /V
0.100	11.107	0.099
0.200	20.669	0.100
0.300	13.299	0.100
0.400	18.996	0.099
0.500	0.750	0.100
0.600	10.057	0.099
0.700	9.464	0.099
0.800	10.802	0.099
0.900	6.474	0.099
1.000	14.369	0.099
1.100	21.859	0.100
1.200	12.164	0.100
1.300	15.550	0.100
1.400	8.110	0.099
1.500	23.901	0.100
1.600	22.610	0.100
1.700	7.463	0.099
1.800	12.591	0.100
1.900	24.898	0.099
2.000	2.813	0.100
2.100	26.116	0.100
2.200	13.659	0.100
2.300	20.312	0.099
2.400	26.108	0.100
2.500	15.725	0.100
2.600	11.553	0.100
2.700	11.073	0.100
2.800	12.269	0.100
2.900	10.405	0.100
3.000	24.960	0.100
3.100	13.324	0.099
3.200	5.459	0.100
3.300	4.769	0.100
3.400	15.907	0.100
3.500	14.029	0.100
3.600	21.952	0.100
3.700	7.663	0.099
3.800	30.602	0.100
3.900	2.910	0.100
4.000	-1.147	0.100
4.100	14.601	0.100
4.200	13.390	0.099
4.300	21.303	0.100
4.400	8.732	0.099
4.500	21.039	0.099
4.600	15.959	0.100
4.700	10.811	0.100
4.800	8.815	0.099
4.900	15.349	0.099
5.000	15.481	0.099
5.100	23.432	0.100
5.200	20.543	0.100
5.300	19.099	0.099
5.400	4.091	0.099
5.500	0.762	0.100
5.600	12.980	0.099
5.700	17.782	0.100
5.800	22.950	0.099
5.900	8.555	0.099
6.000	16.970	0.099
6.100	24.630	0.100
6.200	23.198	0.100
6.300	9.702	0.100
6.400	2.387	0.100
6.500	22.214	0.100
6.600	15.974	0.100
6.700	13.865	0.100
6.800	9.320	0.100
6.900	9.727	0.100
7.000	12.886	0.100
7.100	23.615	0.100
7.200	25.024	0.100
7.300	8.852	0.100
7.400	13.224	0.100
7.500	9.947	0.100
7.600	11.106	0.100
7.700	6.377	0.100
7.800	23.257	0.100
7.900	16.143	0.100
8.000	23.590	0.100
8.100	9.035	0.100
8.200	18.223	0.100
8.300	15.551	0.100
8.400	4.753	0.100
8.500	19.856	0.100
8.600	10.704	0.100
8.700	20.681	0.100
8.800	17.303	0.100
8.900	8.925	0.100
9.000	5.304	0.099
9.100	12.588	0.100
9.200	27.551	0.100
9.300	12.772	0.100
9.400	-3.492	0.099
9.500	14.980	0.100
9.600	17.834	0.100
9.700	14.531	0.100
9.800	16.732	0.100
9.900	23.635	0.100
10.000	9.579	0.100
10.100	21.150	0.100
10.200	7.651	0.100
10.300	2.436	0.100
10.400	19.961	0.100
10.500	16.462	0.100
10.600	19.003	0.100
10.700	4.871	0.100
10.800	9.625	0.100
10.900	16.359	0.100
11.000	0.934	0.099
11.100	18.123	0.100
11.200	10.263	0.099
11.300	3.004	0.100
11.400	12.865	0.100
11.500	18.257	0.100
11.600	28.296	0.100
11.700	8.764	0.100
11.800	13.555	0.100
11.900	13.625	0.100
12.000	17.823	0.100
12.100	13.668	0.100
12.200	7.300	0.100
12.300	14.227	0.100
12.400	3.596	0.100
12.500	22.451	0.100
12.600	12.991	0.099
12.700	18.891	0.100
12.800	2.310	0.100
12.900	3.000	0.099
13.000	12.518	0.099
13.100	7.278	0.099
13.200	15.146	0.100
13.300	11.000	0.100
13.400	11.585	0.100
13.500	11.239	0.099
13.600	29.365	0.099
13.700	5.613	0.100
13.800	17.270	0.100
13.900	6.530	0.100
14.000	15.691	0.100
14.100	19.057	0.099
14.200	18.816	0.099
14.300	12.827	0.100
14.400	11.531	0.100
14.500	6.153	0.100
14.600	3.876	0.099
14.700	11.600	0.100
14.800	17.864	0.100
14.900	13.540	0.099
15.000	17.368	0.100
15.100	17.994	0.100
15.200	6.074	0.099
15.300	10.417	0.100
15.400	18.107	0.099
15.500	15.553	0.100
15.600	22.730	0.099
15.700	13.184	0.099
15.800	12.586	0.100
15.900	5.359	0.100
16.000	10.715	0.099
16.100	20.110	0.099
16.200	15.206	0.099
16.300	13.276	0.100
16.400	6.248	0.099
16.500	10.994	0.100
16.600	14.688	0.100
16.700	19.881	0.100
16.800	16.477	0.100
16.900	12.395	0.099
17.000	15.405	0.100
17.100	-0.701	0.100
17.200	6.332	0.099
17.300	18.844	0.099
17.400	13.248	0.099
17.500	12.029	0.099
17.600	12.973	0.100
17.700	17.001	0.099
17.800	22.978	0.100
17.900	-3.483	0.100
18.000	18.239	0.099
18.100	11.802	0.100
18.200	11.921	0.099
18.300	18.687	0.099
18.400	4.071	0.099
18.500	14.688	0.099
18.600	20.141	0.100
18.700	19.921	0.099
18.800	11.641	0.100
18.900	-3.639	0.100
19.000	14.316	0.099
19.100	7.721	0.099
19.200	14.698	0.099
19.300	21.599	0.100
19.400	22.923	0.100
19.500	15.498	0.100
19.600	16.789	0.100
19.700	11.133	0.100
19.800	4.272	0.100
19.900	16.309	0.100
20.000	13.529	0.100
20.100	-2.928	0.100
20.200	14.404	0.100
20.300	13.715	0.099
20.400	13.308	0.099
20.500	5.547	0.099
20.600	21.633	0.099
20.700	6.097	0.099
20.800	15.654	0.099
20.900	15.567	0.100
21.000	3.990	0.099
21.100	29.865	0.100
21.200	20.063	0.100
21.300	1.155	0.100
21.400	6.377	0.099
21.500	8.832	0.099
21.600	11.933	0.099
21.700	10.910	0.099
21.800	9.448	0.099
21.900	23.592	0.100
22.000	21.402	0.099
22.100	7.471	0.099
22.200	18.323	0.099
22.300	18.777	0.099
22.400	10.361	0.099
22.500	10.570	0.099
22.600	19.394	0.100
22.700	23.219	0.100
22.800	14.428	0.100
22.900	8.966	0.100
23.000	2.007	0.099
23.100	6.024	0.100
23.200	12.307	0.099
23.300	3.143	0.099
23.400	16.471	0.099
23.500	26.005	0.099
23.600	11.836	0.100
23.700	13.598	0.100
23.800	4.997	0.100
23.900	18.960	0.099
24.000	9.663	0.100
24.100	17.045	0.099
24.200	8.252	0.099
24.300	11.295	0.099
24.400	18.485	0.100
24.500	9.349	0.099
24.600	11.281	0.100
24.700	9.503	0.099
24.800	9.191	0.099
24.900	14.370	0.100
25.000	30.018	0.099
25.100	12.154	0.099
25.200	9.568	0.099
25.300	16.454	0.100
25.400	8.395	0.100
25.500	9.183	0.099
25.600	9.543	0.100
25.700	8.754	0.099
25.800	24.357	0.100
25.900	9.584	0.099
26.000	23.163	0.099
26.100	15.470	0.100
26.200	14.091	0.099
26.300	13.139	0.099
26.400	6.783	0.099
26.500	14.855	0.100
26.600	6.783	0.099
26.700	19.035	0.099
26.800	3.314	0.099
26.900	3.490	0.099
27.000	31.239	0.099
27.100	9.341	0.099
27.200	19.307	0.099
27.300	17.482	0.099
27.400	22.455	0.099
27.500	4.356	0.100
27.600	16.713	0.099
27.700	17.938	0.099
27.800	8.088	0.100
27.900	17.679	0.100
28.000	13.847	0.099
28.100	20.583	0.100
28.200	-6.986	0.099
28.300	16.628	0.099
28.400	5.997	0.099
28.500	16.092	0.099
28.600	13.692	0.099
28.700	13.189	0.100
28.800	17.863	0.100
28.900	22.809	0.099
29.000	9.089	0.100
29.100	17.248	0.099
29.200	12.705	0.100
29.300	18.166	0.099
29.400	15.080	0.099
29.500	16.241	0.099
29.600	12.034	0.100
29.700	7.845	0.100
29.800	12.799	0.100
29.900	5.951	0.099
30.000	14.214	0.099
30.100	19.132	0.099
30.200	7.903	0.099
30.300	6.380	0.100
30.400	17.986	0.099
30.500	14.545	0.099
30.600	6.427	0.099
30.700	27.899	0.100
30.800	23.228	0.100
30.900	7.463	0.099
31.000	13.688	0.099
31.100	12.757	0.099
31.200	12.331	0.100
31.300	22.856	0.099
31.400	10.327	0.099
31.500	24.326	0.099
31.600	14.235	0.100
31.700	-3.339	0.099
31.800	3.133	0.099
31.900	10.841	0.099
32.000	26.610	0.100
32.100	18.256	0.100
32.200	25.412	0.099
32.300	6.948	0.099
32.400	10.445	0.099
32.500	10.461	0.099
32.600	27.329	0.099
32.700	19.088	0.100
32.800	13.687	0.099
32.900	2.740	0.100
33.000	12.995	0.100
33.100	17.010	0.100
33.200	14.142	0.099
33.300	26.664	0.099
33.400	15.460	0.100
33.500	11.234	0.099
33.600	16.103	0.100
33.700	9.680	0.100
33.800	12.096	0.100
33.900	10.104	0.100
34.000	13.749	0.099
34.100	30.985	0.100
34.200	18.454	0.100
34.300	2.347	0.099
34.400	23.234	0.099
34.500	18.576	0.100
34.600	20.316	0.099
34.700	17.805	0.100
34.800	16.567	0.100
34.900	26.120	0.099
35.000	25.825	0.100
35.100	13.451	0.100
35.200	23.449	0.099
35.300	24.952	0.099
35.400	16.189	0.100
35.500	16.951	0.100
35.600	25.549	0.100
35.700	5.175	0.100
35.800	9.540	0.099
35.900	7.370	0.099
36.000	20.571	0.100
36.100	0.520	0.100
36.200	22.630	0.099
36.300	12.829	0.100
36.400	12.068	0.100
36.500	18.838	0.099
36.600	30.841	0.100
36.700	34.151	0.099
36.800	5.390	0.099
36.900	32.308	0.100
37.000	21.279	0.100
37.100	15.621	0.099
37.200	17.326	0.100
37.300	26.601	0.100
37.400	11.878	0.099
37.500	29.544	0.100
37.600	24.358	0.100
37.700	14.997	0.099
37.800	17.731	0.100
37.900	19.658	0.100
38.000	23.438	0.100
38.100	15.155	0.099
38.200	12.185	0.099
38.300	11.106	0.100
38.400	11.686	0.099
38.500	21.162	0.100
38.600	13.143	0.100
38.700	12.088	0.100
38.800	6.637	0.099
38.900	25.892	0.100
39.000	32.960	0.100
39.100	23.454	0.100
39.200	16.760	0.100
39.300	24.704	0.100
39.400	19.529	0.100
39.500	23.012	0.099
39.600	19.945	0.100
39.700	16.410	0.100
39.800	17.583	0.099
39.900	14.897	0.099
40.000	18.641	0.100
40.100	12.151	0.100
40.200	26.754	0.100
40.300	24.234	0.099
40.400	8.403	0.099
40.500	21.145	0.100
40.600	39.937	0.100
40.700	10.429	0.100
40.800	29.902	0.100
40.900	17.522	0.100
41.000	24.965	0.100
41.100	8.678	0.100
41.200	41.890	0.100
41.300	25.404	0.100
41.400	12.394	0.100
41.500	10.253	0.099
41.600	19.589	0.099
41.700	10.098	0.100
41.800	30.731	0.100
41.900	20.434	0.100
42.000	25.520	0.100
42.100	13.104	0.099
42.200	22.106	0.100
42.300	8.463	0.100
42.400	23.374	0.100
42.500	20.992	0.100
42.600	25.663	0.100
42.700	8.959	0.100
42.800	17.440	0.100
42.900	25.362	0.100
43.000	21.243	0.100
43.100	25.845	0.099
43.200	8.586	0.100
43.300	9.013	0.100
43.400	28.145	0.099
43.500	24.388	0.100
43.600	7.126	0.099
43.700	28.276	0.100
43.800	27.244	0.100
43.900	18.432	0.100
44.000	33.329	0.100
44.100	26.882	0.100
44.200	20.996	0.100
44.300	18.471	0.099
44.400	12.519	0.100
44.500	21.066	0.100
44.600	20.598	0.100
44.700	15.611	0.100
44.800	21.282	0.100
44.900	30.346	0.100
45.000	30.045	0.100
45.100	20.909	0.100
45.200	13.056	0.100
45.300	16.132	0.100
45.400	21.060	0.100
45.500	9.266	0.100
45.600	27.533	0.100
45.700	16.284	0.100
45.800	20.398	0.100
45.900	13.391	0.100
46.000	27.942	0.100
46.100	15.688	0.100
46.200	30.772	0.100
46.300	8.094	0.100
46.400	23.283	0.100
46.500	20.614	0.100
46.600	16.183	0.100
46.700	27.591	0.100
46.800	26.515	0.100
46.900	29.590	0.100
47.000	14.368	0.100
47.100	7.399	0.100
47.200	31.858	0.100
47.300	20.720	0.100
47.400	21.680	0.100
47.500	6.675	0.099
47.600	16.979	0.100
47.700	17.224	0.100
47.800	26.052	0.099
47.900	11.801	0.099
48.000	22.297	0.100
48.100	23.389	0.100
48.200	27.033	0.100
48.300	13.701	0.099
48.400	21.871	0.100
48.500	11.877	0.100
48.600	24.349	0.100
48.700	18.542	0.100
48.800	14.755	0.100
48.900	16.078	0.100
49.000	23.045	0.100
49.100	24.417	0.100
49.200	17.539	0.100
49.300	23.280	0.100
49.400	23.913	0.100
49.500	31.453	0.100
49.600	13.954	0.100
49.700	13.523	0.100
49.800	22.393	0.099
49.900	20.727	0.100
50.000	17.050	0.100
50.100	22.848	0.100
50.200	27.938	0.099
50.300	7.308	0.100
50.400	20.534	0.100
50.500	27.741	0.100
50.600	24.914	0.100
50.700	20.236	0.100
50.800	15.295	0.100
50.900	8.523	0.099
51.000	24.613	0.100
51.100	12.240	0.100
51.200	22.996	0.100
51.300	11.762	0.100
51.400	21.560	0.100
51.500	25.206	0.100
51.600	14.261	0.100
51.700	18.007	0.100
51.800	21.383	0.100
51.900	15.674	0.100
52.000	18.970	0.100
52.100	21.568	0.100
52.200	1.976	0.100
52.300	28.910	0.099
52.400	9.447	0.100
52.500	19.208	0.100
52.600	16.778	0.100
52.700	3.819	0.100
52.800	20.925	0.100
52.900	21.190	0.100
53.000	12.495	0.100
53.100	12.873	0.100
53.200	24.136	0.100
53.300	11.027	0.100
53.400	24.373	0.100
53.500	15.527	0.100
53.600	23.133	0.100
53.700	3.261	0.099
53.800	27.718	0.100
53.900	30.136	0.100
54.000	17.965	0.100
54.100	18.101	0.100
54.200	19.576	0.099
54.300	11.442	0.100
54.400	31.448	0.100
54.500	8.274	0.100
54.600	23.665	0.100
54.700	24.671	0.100
54.800	22.976	0.100
54.900	8.292	0.100
55.000	14.724	0.100
55.100	30.663	0.100
55.200	24.236	0.100
55.300	11.242	0.100
55.400	19.002	0.100
55.500	14.665	0.100
55.600	10.800	0.100
55.700	9.977	0.100
55.800	26.579	0.100
55.900	16.580	0.100
56.000	18.362	0.100
56.100	24.272	0.100
56.200	8.829	0.099
56.300	19.233	0.100
56.400	12.001	0.100
56.500	19.971	0.100
56.600	16.900	0.100
56.700	24.001	0.100
56.800	19.222	0.100
56.900	6.942	0.100
57.000	25.206	0.100
57.100	30.397	0.100
57.200	8.144	0.100
57.300	21.602	0.100
57.400	12.514	0.100
57.500	22.755	0.100
57.600	17.494	0.100
57.700	22.999	0.100
57.800	3.829	0.100
57.900	9.818	0.100
58.000	11.273	0.100
58.100	11.750	0.100
58.200	3.135	0.100
58.300	29.349	0.100
58.400	16.102	0.100
58.500	16.569	0.100
58.600	23.358	0.100
58.700	6.937	0.100
58.800	18.352	0.100
58.900	12.185	0.100
59.000	23.713	0.100
59.100	1.734	0.100
59.200	20.322	0.100
59.300	-4.770	0.100
59.400	21.816	0.100
59.500	20.223	0.100
59.600	9.972	0.099
59.700	22.705	0.100
59.800	-0.397	0.100
59.900	10.273	0.100
60.000	26.484	0.100
60.100	26.734	0.100
60.200	11.919	0.100
60.300	25.917	0.100
60.400	7.929	0.100
60.500	3.490	0.100
60.600	17.257	0.100
60.700	18.228	0.100
60.800	17.685	0.100
60.900	14.611	0.100
61.000	10.291	0.100
61.100	21.537	0.100
61.200	13.902	0.100
61.300	18.913	0.100
61.400	20.824	0.100
61.500	10.818	0.100
61.600	11.092	0.100
61.700	22.228	0.100
61.800	17.727	0.100
61.900	19.895	0.099
62.000	9.873	0.100
62.100	14.918	0.100
62.200	16.441	0.100
62.300	20.066	0.100
62.400	12.984	0.100
62.500	18.174	0.100
62.600	17.286	0.100
62.700	20.987	0.100
62.800	8.071	0.100
62.900	15.447	0.100
63.000	25.614	0.100
63.100	10.525	0.100
63.200	10.427	0.100
63.300	19.744	0.100
63.400	4.906	0.100
63.500	1.499	0.100
63.600	22.804	0.100
63.700	19.159	0.100
63.800	16.045	0.100
63.900	15.857	0.100
64.000	11.877	0.100
64.100	11.971	0.100
64.200	3.600	0.100
64.300	11.306	0.100
64.400	23.697	0.100
64.500	9.845	0.100
64.600	25.029	0.100
64.700	18.646	0.100
64.800	16.236	0.100
64.900	13.111	0.100
65.000	10.982	0.100
65.100	12.953	0.099
65.200	12.487	0.100
65.300	23.213	0.100
65.400	8.864	0.100
65.500	10.902	0.100
65.600	18.436	0.100
65.700	16.889	0.100
65.800	26.671	0.100
65.900	5.404	0.100
66.000	20.509	0.100
66.100	16.493	0.099
66.200	10.709	0.100
66.300	22.509	0.100
66.400	7.392	0.100
66.500	15.189	0.100
66.600	8.073	0.100
66.700	20.830	0.100
66.800	19.087	0.100
66.900	3.872	0.100
67.000	23.149	0.100
67.100	-0.662	0.100
67.200	16.081	0.100
67.300	17.675	0.100
67.400	17.674	0.100
67.500	21.793	0.100
67.600	20.275	0.100
67.700	14.934	0.100
67.800	0.755	0.100
67.900	20.727	0.100
68.000	12.705	0.100
68.100	22.600	0.100
68.200	24.619	0.100
68.300	17.324	0.100
68.400	20.284	0.100
68.500	16.088	0.100
68.600	22.582	0.100
68.700	8.669	0.100
68.800	14.495	0.099
68.900	22.924	0.100
69.000	15.146	0.100
69.100	12.078	0.100
69.200	-4.457	0.100
69.300	11.719	0.100
69.400	23.410	0.100
69.500	21.788	0.100
69.600	8.221	0.100
69.700	20.710	0.100
69.800	13.106	0.100
69.900	17.142	0.100
70.000	15.281	0.100
70.100	12.919	0.100
70.200	7.577	0.100
70.300	15.396	0.100
70.400	18.951	0.100
70.500	11.916	0.100
70.600	26.335	0.100
70.700	17.335	0.100
70.800	29.135	0.100
70.900	11.213	0.100
71.000	23.147	0.100
71.100	14.485	0.100
71.200	9.269	0.100
71.300	24.113	0.100
71.400	5.300	0.100
71.500	27.225	0.100
71.600	21.075	0.100
71.700	4.029	0.100
71.800	19.863	0.100
71.900	5.330	0.100
72.000	21.552	0.100
72.100	30.164	0.100
72.200	23.627	0.100
72.300	12.962	0.100
72.400	18.362	0.100
72.500	7.162	0.100
72.600	19.974	0.100
72.700	17.069	0.100
72.800	16.638	0.100
72.900	20.029	0.100
73.000	2.384	0.100
73.100	18.304	0.099
73.200	5.612	0.100
73.300	25.639	0.100
73.400	5.790	0.100
73.500	17.286	0.100
73.600	16.102	0.100
73.700	4.795	0.100
73.800	15.136	0.100
73.900	19.486	0.100
74.000	9.685	0.100
74.100	-3.325	0.100
74.200	9.021	0.100
74.300	11.184	0.100
74.400	14.936	0.100
74.500	11.754	0.099
74.600	4.868	0.100
74.700	14.268	0.100
74.800	8.137	0.100
74.900	2.627	0.100
75.000	6.360	0.100
75.100	38.848	0.100
75.200	16.765	0.100
75.300	26.511	0.100
75.400	6.613	0.100
75.500	12.083	0.100
75.600	14.088	0.100
75.700	22.399	0.100
75.800	13.908	0.100
75.900	19.554	0.100
76.000	16.226	0.100
76.100	17.438	0.100
76.200	5.586	0.100
76.300	17.937	0.100
76.400	26.537	0.100
76.500	18.910	0.100
76.600	18.753	0.100
76.700	13.141	0.100
76.800	4.031	0.100
76.900	21.169	0.100
77.000	19.993	0.100
77.100	6.612	0.100
77.200	17.036	0.100
77.300	15.596	0.100
77.400	8.257	0.100
77.500	13.791	0.100
77.600	15.630	0.100
77.700	16.107	0.100
77.800	5.675	0.100
77.900	15.163	0.100
78.000	18.113	0.100
78.100	8.332	0.100
78.200	7.412	0.100
78.300	16.638	0.100
78.400	14.962	0.100
78.500	19.600	0.100
78.600	7.323	0.100
78.700	18.879	0.100
78.800	5.915	0.100
78.900	18.004	0.100
79.000	16.359	0.100
79.100	12.108	0.100
79.200	20.023	0.100
79.300	21.286	0.100
79.400	-0.642	0.100
79.500	18.998	0.100
79.600	8.977	0.100
79.700	17.479	0.100
79.800	18.832	0.100
79.900	13.912	0.100
80.000	19.087	0.100
80.100	3.817	0.100
80.200	12.823	0.100
80.300	2.915	0.100
80.400	18.531	0.100
80.500	25.835	0.100
80.600	17.394	0.100
80.700	8.441	0.100
80.800	18.196	0.100
80.900	13.690	0.100
81.000	0.441	0.100
81.100	5.811	0.100
81.200	5.907	0.100
81.300	15.182	0.100
81.400	17.089	0.100
81.500	16.484	0.100
81.600	27.337	0.100
81.700	18.754	0.100
81.800	16.889	0.100
81.900	20.560	0.100
82.000	13.848	0.100
82.100	12.930	0.100
82.200	18.766	0.100
82.300	6.890	0.100
82.400	20.294	0.100
82.500	14.349	0.100
82.600	15.606	0.100
82.700	11.361	0.100
82.800	19.688	0.100
82.900	21.725	0.100
83.000	3.333	0.100
83.100	20.890	0.100
83.200	15.068	0.100
83.300	10.176	0.100
83.400	23.301	0.100
83.500	8.663	0.100
83.600	24.217	0.100
83.700	10.232	0.100
83.800	12.293	0.100
83.900	13.956	0.100
84.000	4.396	0.100
84.100	27.980	0.100
84.200	10.710	0.100
84.300	8.440	0.100
84.400	8.528	0.100
84.500	15.725	0.100
84.600	21.931	0.100
84.700	8.095	0.100
84.800	15.025	0.100
84.900	5.373	0.100
85.000	7.692	0.100
85.100	1.610	0.100
85.200	20.474	0.100
85.300	20.025	0.100
85.400	18.581	0.100
85.500	15.192	0.100
85.600	16.658	0.100
85.700	18.656	0.100
85.800	7.644	0.100
85.900	13.031	0.100
86.000	26.166	0.100
86.100	13.085	0.100
86.200	7.583	0.100
86.300	15.855	0.100
86.400	27.159	0.100
86.500	15.946	0.100
86.600	6.821	0.100
86.700	6.173	0.100
86.800	21.467	0.100
86.900	20.370	0.100
87.000	10.325	0.100
87.100	14.533	0.100
87.200	9.083	0.100
87.300	27.440	0.100
87.400	7.201	0.100
87.500	16.045	0.100
87.600	22.525	0.100
87.700	3.611	0.100
87.800	16.122	0.100
87.900	14.398	0.100
88.000	13.440	0.100
88.100	14.787	0.100
88.200	17.504	0.100
88.300	-0.814	0.100
88.400	25.373	0.100
88.500	15.103	0.100
88.600	12.809	0.100
88.700	15.433	0.100
88.800	6.798	0.100
88.900	14.147	0.100
89.000	17.820	0.100
89.100	-0.130	0.100
89.200	30.979	0.100
89.300	15.343	0.100
89.400	7.561	0.100
89.500	18.001	0.100
89.600	20.110	0.100
89.700	13.525	0.100
89.800	8.755	0.100
89.900	13.530	0.100
90.000	8.551	0.100
90.100	15.538	0.100
90.200	17.018	0.100
90.300	8.857	0.100
90.400	23.098	0.100
90.500	13.796	0.100
90.600	22.688	0.100
90.700	-2.904	0.100
90.800	11.261	0.100
90.900	16.428	0.100
91.000	9.373	0.100
91.100	14.118	0.100
91.200	26.456	0.100
91.300	17.812	0.100
91.400	13.930	0.100
91.500	2.240	0.100
91.600	22.025	0.100
91.700	13.851	0.100
91.800	9.357	0.100
91.900	25.491	0.100
92.000	21.356	0.100
92.100	8.991	0.100
92.200	3.164	0.100
92.300	8.588	0.100
92.400	20.851	0.100
92.500	24.025	0.100
92.600	10.608	0.100
92.700	9.880	0.100
92.800	7.589	0.100
92.900	5.411	0.100
93.000	10.276	0.100
93.100	21.361	0.100
93.200	17.419	0.100
93.300	17.485	0.100
93.400	15.828	0.100
93.500	13.464	0.100
93.600	8.011	0.100
93.700	12.119	0.100
93.800	24.447	0.100
93.900	9.151	0.100
94.000	8.942	0.100
94.100	-2.089	0.100
94.200	12.541	0.100
94.300	7.436	0.100
94.400	19.711	0.100
94.500	16.932	0.100
94.600	22.844	0.100
94.700	12.267	0.100
94.800	12.730	0.100
94.900	14.630	0.100
95.000	4.336	0.100
95.100	30.402	0.100
95.200	18.384	0.100
95.300	18.820	0.100
95.400	10.782	0.100
95.500	4.468	0.100
95.600	18.238	0.100
95.700	9.243	0.100
95.800	5.037	0.100
95.900	13.731	0.100
96.000	13.590	0.100
96.100	-2.633	0.100
96.200	22.282	0.100
96.300	1.427	0.100
96.400	4.175	0.100
96.500	7.025	0.100
96.600	15.863	0.100
96.700	14.111	0.100
96.800	17.431	0.100
96.900	16.929	0.100
97.000	4.359	0.100
97.100	6.943	0.100
97.200	-1.294	0.100
97.300	4.672	0.100
97.400	18.224	0.100
97.500	5.894	0.100
97.600	21.433	0.100
97.700	10.294	0.100
97.800	6.523	0.100
97.900	17.622	0.100
98.000	9.982	0.100
98.100	23.898	0.100
98.200	8.751	0.100
98.300	13.035	0.100
98.400	17.542	0.100
98.500	-3.599	0.100
98.600	25.420	0.100
98.700	10.752	0.100
98.800	15.093	0.100
98.900	7.664	0.100
99.000	13.201	0.100
99.100	6.405	0.100
99.200	17.808	0.100
99.300	19.763	0.100
99.400	9.164	0.100
99.500	4.411	0.100
99.600	-0.458	0.100
99.700	-9.119	0.100
99.800	27.423	0.100
99.900	14.360	0.100
100.000	13.633	0.100
100.100	11.645	0.100
100.200	17.001	0.100
100.300	16.688	0.100
100.400	1.786	0.100
100.500	13.514	0.100
100.600	6.696	0.100
100.700	14.276	0.100
100.800	19.007	0.100
100.900	12.431	0.100
101.000	12.357	0.100
101.100	4.683	0.100
101.200	-3.790	0.100
101.300	3.925	0.100
101.400	28.460	0.100
101.500	15.217	0.100
101.600	11.959	0.100
101.700	18.012	0.100
101.800	20.212	0.100
101.900	9.157	0.100
102.000	6.580	0.100
102.100	5.368	0.100
102.200	-0.913	0.100
102.300	23.977	0.100
102.400	6.232	0.100
102.500	28.449	0.100
102.600	0.976	0.100
102.700	6.077	0.100
102.800	8.098	0.100
102.900	24.821	0.100
103.000	0.375	0.100
103.100	20.020	0.100
103.200	13.648	0.100
103.300	-0.753	0.100
103.400	12.885	0.100
103.500	25.097	0.100
103.600	22.708	0.100
103.700	-3.512	0.100
103.800	18.168	0.100
103.900	11.135	0.100
104.000	17.680	0.100
104.100	3.618	0.100
104.200	17.770	0.100
104.300	12.372	0.100
104.400	19.911	0.100
104.500	1.900	0.100
104.600	11.012	0.100
104.700	10.422	0.100
104.800	10.932	0.099
104.900	11.774	0.100
105.000	5.553	0.100
105.100	13.484	0.100
105.200	3.556	0.100
105.300	17.940	0.100
105.400	9.512	0.100
105.500	5.459	0.100
105.600	15.505	0.100
105.700	17.447	0.100
105.800	23.179	0.100
105.900	4.354	0.100
106.000	4.263	0.100
106.100	33.683	0.100
106.200	0.229	0.100
106.300	19.821	0.100
106.400	19.509	0.100
106.500	17.781	0.100
106.600	23.300	0.100
106.700	9.110	0.100
106.800	14.600	0.100
106.900	6.367	0.100
107.000	3.104	0.100
107.100	17.182	0.100
107.200	7.705	0.100
107.300	2.788	0.100
107.400	20.814	0.100
107.500	7.688	0.100
107.600	0.705	0.100
107.700	20.133	0.100
107.800	12.053	0.100
107.900	5.022	0.100
108.000	19.186	0.100
108.100	19.303	0.100
108.200	8.759	0.100
108.300	8.525	0.100
108.400	11.185	0.100
108.500	9.009	0.100
108.600	9.127	0.100
108.700	4.217	0.100
108.800	7.298	0.100
108.900	14.494	0.100
109.000	11.403	0.100
109.100	14.752	0.100
109.200	6.712	0.100
109.300	8.173	0.100
109.400	24.005	0.100
109.500	1.311	0.100
109.600	10.697	0.100
109.700	13.790	0.100
109.800	15.779	0.100
109.900	-2.648	0.100
110.000	6.888	0.100
110.100	4.858	0.100
110.200	18.509	0.100
110.300	20.012	0.100
110.400	9.430	0.100
110.500	-1.869	0.100
110.600	25.169	0.100
110.700	17.392	0.100
110.800	8.459	0.100
110.900	16.128	0.100
111.000	20.284	0.100
111.100	12.732	0.100
111.200	10.184	0.100
111.300	14.786	0.100
111.400	-5.764	0.100
111.500	0.200	0.100
111.600	14.169	0.100
111.700	15.845	0.100
111.800	2.737	0.100
111.900	16.966	0.100
112.000	11.613	0.100
112.100	10.351	0.100
112.200	11.252	0.100
112.300	17.821	0.100
112.400	13.005	0.100
112.500	18.848	0.100
112.600	-3.072	0.100
112.700	18.963	0.100
112.800	9.521	0.100
112.900	20.901	0.100
113.000	12.307	0.100
113.100	22.511	0.100
113.200	18.215	0.100
113.300	4.110	0.100
113.400	15.684	0.100
113.500	10.228	0.100
113.600	23.073	0.100
113.700	6.899	0.100
113.800	21.926	0.100
113.900	4.724	0.100
114.000	14.347	0.100
114.100	14.457	0.100
114.200	13.120	0.100
114.300	11.830	0.100
114.400	18.273	0.100
114.500	2.850	0.100
114.600	15.058	0.100
114.700	22.532	0.100
114.800	20.094	0.100
114.900	13.830	0.100
115.000	-1.188	0.100
115.100	18.827	0.100
115.200	13.763	0.100
115.300	14.872	0.100
115.400	-7.622	0.100
115.500	20.686	0.100
115.600	27.300	0.100
115.700	12.459	0.100
115.800	8.656	0.100
115.900	8.474	0.100
116.000	28.773	0.100
116.100	-1.416	0.100
116.200	1.764	0.100
116.300	16.486	0.100
116.400	19.319	0.100
116.500	13.724	0.100
116.600	6.797	0.100
116.700	12.902	0.100
116.800	12.461	0.100
116.900	5.398	0.100
117.000	9.848	0.100
117.100	19.474	0.100
117.200	25.066	0.100
117.300	11.753	0.100
117.400	7.851	0.100
117.500	-3.872	0.100
117.600	22.887	0.100
117.700	14.430	0.100
117.800	8.283	0.100
117.900	14.268	0.100
118.000	20.329	0.100
118.100	23.857	0.100
118.200	15.871	0.100
118.300	8.008	0.100
118.400	2.587	0.100
118.500	11.897	0.100
118.600	-2.845	0.100
118.700	24.236	0.100
118.800	14.443	0.100
118.900	11.117	0.100
119.000	1.965	0.100
119.100	22.641	0.100
119.200	9.960	0.100
119.300	13.110	0.100
119.400	6.653	0.100
119.500	8.518	0.100
119.600	23.960	0.100
119.700	8.765	0.100
119.800	7.151	0.100
119.900	12.383	0.100
120.000	10.118	0.100
120.100	12.519	0.100
120.200	12.036	0.100
120.300	14.106	0.100
120.400	6.848	0.100
120.500	4.938	0.100
120.600	9.699	0.100
120.700	12.416	0.100
120.800	-0.299	0.100
120.900	7.811	0.100
121.000	22.152	0.100
121.100	8.836	0.100
121.200	21.019	0.100
121.300	16.255	0.100
121.400	23.457	0.100
121.500	9.290	0.100
121.600	6.735	0.100
121.700	5.617	0.100
121.800	12.608	0.100
121.900	10.167	0.100
122.000	9.001	0.100
122.100	23.158	0.099
122.200	14.926	0.100
122.300	4.477	0.100
122.400	9.938	0.100
122.500	19.909	0.100
122.600	4.154	0.100
122.700	13.325	0.100
122.800	4.530	0.100
122.900	19.229	0.100
123.000	5.821	0.100
123.100	12.790	0.100
123.200	18.659	0.100
123.300	15.496	0.100
123.400	3.783	0.100
123.500	22.105	0.100
123.600	13.022	0.100
123.700	1.495	0.100
123.800	26.486	0.100
123.900	11.834	0.100
124.000	14.968	0.100
124.100	14.624	0.100
124.200	3.769	0.100
124.300	2.182	0.099
124.400	-5.267	0.100
124.500	23.051	0.100
124.600	20.314	0.100
124.700	17.441	0.100
124.800	21.776	0.100
124.900	9.028	0.100
125.000	9.104	0.100
125.100	12.398	0.100
125.200	1.458	0.100
125.300	26.174	0.100
125.400	10.036	0.100
125.500	5.445	0.100
125.600	20.960	0.100
125.700	13.030	0.100
125.800	14.390	0.100
125.900	10.372	0.100
126.000	8.042	0.100
126.100	19.164	0.100
126.200	20.668	0.100
126.300	16.426	0.100
126.400	10.475	0.100
126.500	14.563	0.100
126.600	22.127	0.100
126.700	0.415	0.100
126.800	25.008	0.100
126.900	18.455	0.100
127.000	17.566	0.100
127.100	13.426	0.100
127.200	16.497	0.100
127.300	10.292	0.100
127.400	5.729	0.100
127.500	12.879	0.100
127.600	4.208	0.100
127.700	10.759	0.100
127.800	17.022	0.100
127.900	19.426	0.100
128.000	19.170	0.100
128.100	12.148	0.100
128.200	11.080	0.100
128.300	15.913	0.100
128.400	23.632	0.100
128.500	11.786	0.100
128.600	16.306	0.100
128.700	18.113	0.100
128.800	17.349	0.100
128.900	0.878	0.099
129.000	22.896	0.100
129.100	4.780	0.100
129.200	4.797	0.100
129.300	23.655	0.100
129.400	1.282	0.100
129.500	18.461	0.100
129.600	16.130	0.100
129.700	12.068	0.099
129.800	14.842	0.100
129.900	21.929	0.100
130.000	4.274	0.100
130.100	19.929	0.100
130.200	19.730	0.100
130.300	10.676	0.100
130.400	21.768	0.100
130.500	12.578	0.100
130.600	8.320	0.100
130.700	15.000	0.100
130.800	22.150	0.100
130.900	1.782	0.100
131.000	13.044	0.100
131.100	16.966	0.099
131.200	17.972	0.100
131.300	2.915	0.100
131.400	15.067	0.100
131.500	8.395	0.100
131.600	14.042	0.100
131.700	11.262	0.100
131.800	15.928	0.100
131.900	19.846	0.100
132.000	5.990	0.100
132.100	20.002	0.100
132.200	24.416	0.100
132.300	15.250	0.100
132.400	23.295	0.100
132.500	14.523	0.100
132.600	11.534	0.100
132.700	9.087	0.100
132.800	17.573	0.100
132.900	6.881	0.100
133.000	13.699	0.100
133.100	10.448	0.100
133.200	19.218	0.100
133.300	20.600	0.100
133.400	25.119	0.100
133.500	7.666	0.100
133.600	17.425	0.100
133.700	13.768	0.100
133.800	10.323	0.100
133.900	11.491	0.100
134.000	29.535	0.100
134.100	20.436	0.100
134.200	10.018	0.100
134.300	1.350	0.100
134.400	31.460	0.100
134.500	17.080	0.100
134.600	10.293	0.100
134.700	24.797	0.100
134.800	-0.444	0.100
134.900	10.012	0.100
135.000	21.609	0.100
135.100	10.772	0.100
135.200	21.483	0.100
135.300	13.604	0.100
135.400	13.384	0.100
135.500	7.603	0.100
135.600	4.960	0.100
135.700	16.801	0.100
135.800	13.182	0.100
135.900	16.184	0.100
136.000	12.898	0.100
136.100	15.103	0.100
136.200	12.868	0.100
136.300	17.042	0.100
136.400	1.826	0.099
136.500	18.141	0.100
136.600	14.650	0.100
136.700	18.748	0.100
136.800	14.461	0.100
136.900	10.843	0.100
137.000	12.887	0.100
137.100	8.647	0.099
137.200	12.182	0.100
137.300	19.688	0.100
137.400	25.449	0.100
137.500	11.274	0.100
137.600	12.747	0.100
137.700	15.696	0.100
137.800	17.357	0.100
137.900	4.771	0.100
138.000	14.481	0.100
138.100	20.450	0.100
138.200	15.316	0.100
138.300	7.758	0.100
138.400	7.019	0.100
138.500	15.235	0.100
138.600	7.555	0.100
138.700	19.645	0.100
138.800	15.651	0.100
138.900	8.068	0.100
139.000	12.941	0.100
139.100	6.012	0.100
139.200	10.085	0.100
139.300	12.500	0.100
139.400	6.083	0.100
139.500	31.053	0.100
139.600	-0.731	0.100
139.700	18.797	0.100
139.800	9.865	0.100
139.900	14.903	0.100
140.000	19.045	0.100
140.100	15.206	0.100
140.200	25.865	0.100
140.300	12.584	0.099
140.400	14.520	0.100
140.500	-1.330	0.100
140.600	24.846	0.100
140.700	9.028	0.100
140.800	17.847	0.100
140.900	15.802	0.100
141.000	12.967	0.100
141.100	10.757	0.100
141.200	18.527	0.100
141.300	15.520	0.100
141.400	12.337	0.100
141.500	16.934	0.100
141.600	9.588	0.100
141.700	22.991	0.100
141.800	3.575	0.100
141.900	19.618	0.100
142.000	10.407	0.100
142.100	17.758	0.100
142.200	17.483	0.100
142.300	17.413	0.100
142.400	15.875	0.100
142.500	15.724	0.100
142.600	23.067	0.100
142.700	13.776	0.100
142.800	12.077	0.100
142.900	9.944	0.100
143.000	11.080	0.099
143.100	2.922	0.100
143.200	15.829	0.100
143.300	20.667	0.100
143.400	1.202	0.100
143.500	4.471	0.100
143.600	26.538	0.100
143.700	20.540	0.100
143.800	-0.120	0.100
143.900	15.300	0.100
144.000	22.175	0.100
144.100	18.157	0.100
144.200	11.640	0.100
144.300	16.681	0.100
144.400	11.097	0.100
144.500	11.377	0.100
144.600	20.649	0.100
144.700	7.834	0.100
144.800	13.621	0.100
144.900	18.234	0.100
145.000	31.189	0.100
145.100	-6.026	0.100
145.200	7.521	0.100
145.300	9.317	0.100
145.400	29.436	0.099
145.500	28.454	0.100
145.600	11.759	0.100
145.700	10.267	0.100
145.800	28.918	0.100
145.900	2.972	0.100
146.000	23.887	0.100
146.100	17.293	0.100
146.200	16.132	0.100
146.300	10.943	0.100
146.400	21.822	0.100
146.500	24.916	0.100
146.600	8.420	0.100
146.700	4.375	0.099
146.800	20.318	0.100
146.900	23.185	0.099
147.000	11.389	0.100
147.100	15.827	0.099
147.200	8.455	0.100
147.300	14.026	0.100
147.400	5.569	0.100
147.500	11.791	0.100
147.600	15.954	0.100
147.700	31.776	0.100
147.800	11.115	0.100
147.900	22.956	0.100
148.000	13.026	0.100
148.100	7.727	0.100
148.200	12.583	0.100
148.300	17.160	0.100
148.400	16.661	0.100
148.500	20.151	0.100
148.600	22.070	0.100
148.700	22.150	0.100
148.800	20.801	0.100
148.900	5.128	0.100
149.000	17.133	0.100
149.100	24.910	0.100
149.200	19.925	0.100
149.300	15.713	0.100
149.400	0.391	0.100
149.500	20.724	0.099
149.600	5.294	0.100
149.700	7.767	0.100
149.800	14.955	0.099
149.900	9.019	0.099
150.000	20.476	0.100
150.100	15.366	0.100
150.200	19.829	0.100
150.300	9.544	0.100
150.400	24.012	0.100
150.500	22.390	0.099
150.600	9.839	0.099
150.700	15.540	0.100
150.800	12.416	0.100
150.900	28.415	0.100
151.000	26.739	0.100
151.100	18.308	0.099
151.200	15.891	0.100
151.300	10.585	0.099
151.400	-0.006	0.100
151.500	22.941	0.100
151.600	2.435	0.100
151.700	14.436	0.100
151.800	32.245	0.099
151.900	20.444	0.099
152.000	5.338	0.099
152.100	11.536	0.100
152.200	12.490	0.100
152.300	19.834	0.100
152.400	8.491	0.100
152.500	22.727	0.099
152.600	15.583	0.100
152.700	19.950	0.099
152.800	15.905	0.100
152.900	11.986	0.100
153.000	5.073	0.100
153.100	15.386	0.100
153.200	8.605	0.100
153.300	27.060	0.100
153.400	23.676	0.100
153.500	16.442	0.100
153.600	26.067	0.100
153.700	6.435	0.099
153.800	4.517	0.099
153.900	15.226	0.100
154.000	20.846	0.099
154.100	11.344	0.100
154.200	22.588	0.100
154.300	20.480	0.100
154.400	0.690	0.100
154.500	21.720	0.099
154.600	35.582	0.100
154.700	16.297	0.100
154.800	17.657	0.100
154.900	20.445	0.100
155.000	8.001	0.100
155.100	25.735	0.100
155.200	9.262	0.100
155.300	10.451	0.100
155.400	26.519	0.100
155.500	13.850	0.100
155.600	1.261	0.100
155.700	32.973	0.100
155.800	-4.670	0.100
155.900	20.754	0.100
156.000	19.594	0.100
156.100	22.113	0.100
156.200	11.489	0.100
156.300	20.983	0.100
156.400	14.020	0.100
156.500	-3.743	0.100
156.600	15.956	0.100
156.700	19.407	0.100
156.800	20.365	0.100
156.900	14.066	0.100
157.000	23.261	0.100
157.100	16.966	0.100
157.200	12.223	0.100
157.300	6.463	0.100
157.400	4.490	0.100
157.500	19.328	0.099
157.600	21.816	0.100
157.700	11.367	0.100
157.800	22.888	0.100
157.900	9.803	0.100
158.000	17.746	0.100
158.100	13.993	0.100
158.200	6.729	0.100
158.300	10.070	0.100
158.400	14.836	0.100
158.500	13.761	0.100
158.600	14.384	0.100
158.700	18.479	0.100
158.800	7.696	0.100
158.900	23.268	0.100
159.000	13.032	0.100
159.100	21.894	0.100
159.200	9.627	0.099
159.300	3.368	0.099
159.400	8.881	0.100
159.500	9.825	0.099
159.600	27.566	0.100
159.700	16.461	0.100
159.800	13.627	0.099
159.900	13.296	0.099
160.000	13.550	0.100
160.100	10.051	0.100
160.200	30.244	0.100
160.300	22.263	0.099
160.400	14.149	0.099
160.500	5.762	0.100
160.600	19.403	0.099
160.700	18.320	0.100
160.800	14.438	0.099
160.900	22.097	0.100
161.000	2.770	0.100
161.100	16.449	0.100
161.200	15.039	0.100
161.300	22.044	0.100
161.400	14.121	0.100
161.500	16.966	0.100
161.600	14.811	0.100
161.700	21.351	0.100
161.800	23.029	0.100
161.900	12.867	0.100
162.000	18.317	0.100
162.100	12.799	0.100
162.200	16.629	0.100
162.300	9.054	0.100
162.400	12.361	0.100
162.500	9.794	0.100
162.600	16.657	0.099
162.700	5.025	0.100
162.800	17.483	0.100
162.900	21.711	0.100
163.000	24.982	0.100
163.100	10.103	0.100
163.200	27.639	0.100
163.300	15.511	0.100
163.400	25.281	0.099
163.500	26.880	0.100
163.600	17.974	0.100
163.700	13.064	0.099
163.800	9.286	0.100
163.900	18.151	0.100
164.000	18.750	0.100
164.100	8.123	0.100
164.200	21.059	0.100
164.300	22.956	0.100
164.400	5.886	0.100
164.500	18.549	0.100
164.600	17.355	0.100
164.700	31.126	0.099
164.800	19.157	0.100
164.900	16.766	0.100
165.000	28.579	0.100
165.100	21.573	0.100
165.200	20.522	0.100
165.300	-0.586	0.100
165.400	24.189	0.100
165.500	15.965	0.100
165.600	26.952	0.100
165.700	13.774	0.100
165.800	26.253	0.100
165.900	19.852	0.099
166.000	19.414	0.100
166.100	-2.667	0.100
166.200	22.025	0.100
166.300	12.195	0.100
166.400	23.376	0.100
166.500	24.607	0.099
166.600	-0.367	0.100
166.700	3.592	0.100
166.800	25.299	0.100
166.900	10.290	0.100
167.000	24.110	0.100
167.100	6.480	0.100
167.200	7.309	0.100
167.300	28.735	0.100
167.400	12.826	0.100
167.500	15.017	0.100
167.600	7.724	0.100
167.700	30.036	0.100
167.800	7.629	0.100
167.900	31.773	0.100
168.000	18.709	0.100
168.100	7.808	0.100
168.200	24.021	0.100
168.300	6.048	0.100
168.400	0.568	0.100
168.500	6.346	0.100
168.600	16.534	0.100
168.700	21.239	0.099
168.800	17.303	0.099
168.900	20.065	0.100
169.000	11.689	0.100
169.100	20.524	0.100
169.200	19.431	0.100
169.300	17.042	0.100
169.400	24.235	0.100
169.500	8.523	0.100
169.600	16.538	0.100
169.700	14.253	0.100
169.800	16.947	0.100
169.900	22.275	0.100
170.000	18.162	0.100
170.100	12.811	0.099
170.200	9.743	0.100
170.300	18.810	0.100
170.400	10.753	0.100
170.500	25.382	0.100
170.600	15.299	0.100
170.700	20.051	0.100
170.800	7.217	0.100
170.900	18.174	0.100
171.000	16.626	0.100
171.100	15.742	0.100
171.200	2.996	0.100
171.300	25.674	0.100
171.400	23.544	0.100
171.500	9.798	0.100
171.600	23.949	0.100
171.700	12.843	0.100
171.800	15.041	0.100
171.900	11.005	0.100
172.000	13.395	0.100
172.100	15.322	0.100
172.200	10.473	0.100
172.300	15.402	0.100
172.400	19.860	0.100
172.500	18.913	0.100
172.600	21.361	0.100
172.700	5.030	0.100
172.800	17.479	0.099
172.900	26.877	0.100
173.000	7.932	0.100
173.100	22.994	0.100
173.200	28.282	0.100
173.300	19.106	0.100
173.400	12.658	0.100
173.500	19.438	0.100
173.600	17.872	0.100
173.700	2.442	0.100
173.800	34.380	0.100
173.900	15.691	0.100
174.000	10.614	0.100
174.100	18.104	0.100
174.200	16.584	0.100
174.300	32.058	0.100
174.400	3.120	0.100
174.500	20.959	0.100
174.600	27.966	0.100
174.700	13.122	0.100
174.800	8.276	0.100
174.900	11.020	0.099
175.000	16.866	0.100
175.100	6.120	0.100
175.200	25.308	0.100
175.300	16.767	0.100
175.400	28.109	0.100
175.500	11.081	0.100
175.600	11.575	0.100
175.700	14.499	0.100
175.800	12.766	0.100
175.900	28.077	0.100
176.000	15.404	0.100
176.100	21.360	0.100
176.200	19.099	0.100
176.300	22.155	0.100
176.400	16.992	0.099
176.500	26.864	0.100
176.600	12.956	0.099
176.700	18.645	0.099
176.800	18.297	0.100
176.900	21.625	0.100
177.000	15.738	0.100
177.100	12.440	0.100
177.200	23.923	0.100
177.300	3.987	0.100
177.400	13.664	0.100
177.500	20.306	0.100
177.600	20.941	0.099
177.700	0.656	0.100
177.800	16.095	0.100
177.900	13.024	0.100
178.000	29.672	0.100
178.100	0.851	0.100
178.200	14.904	0.099
178.300	31.370	0.100
178.400	9.476	0.099
178.500	23.279	0.099
178.600	16.565	0.100
178.700	23.751	0.099
178.800	21.163	0.100
178.900	18.342	0.099
179.000	15.826	0.099
179.100	12.674	0.100
179.200	25.389	0.099
179.300	19.902	0.099
179.400	23.780	0.100
179.500	9.253	0.099
179.600	6.916	0.100
179.700	23.030	0.100
179.800	19.146	0.100
179.900	28.043	0.100
180.000	3.107	0.100
180.100	23.653	0.100
180.200	12.536	0.100
180.300	14.612	0.100
180.400	25.999	0.100
180.500	14.306	0.100
180.600	25.191	0.100
180.700	22.304	0.100
180.800	6.506	0.099
180.900	19.754	0.100
181.000	15.399	0.100
181.100	19.272	0.100
181.200	16.900	0.100
181.300	18.655	0.100
181.400	21.039	0.100
181.500	8.464	0.100
181.600	20.938	0.100
181.700	15.150	0.099
181.800	12.709	0.099
181.900	16.443	0.100
182.000	29.508	0.100
182.100	23.661	0.100
182.200	24.022	0.100
182.300	-4.321	0.100
182.400	15.470	0.100
182.500	33.707	0.100
182.600	18.162	0.100
182.700	19.948	0.100
182.800	17.123	0.099
182.900	19.617	0.100
183.000	12.869	0.100
183.100	20.413	0.100
183.200	21.215	0.099
183.300	17.521	0.100
183.400	23.238	0.099
183.500	14.804	0.100
183.600	30.596	0.100
183.700	10.213	0.100
183.800	26.676	0.099
183.900	15.723	0.100
184.000	21.238	0.100
184.100	27.725	0.100
184.200	20.993	0.100
184.300	2.396	0.099
184.400	30.790	0.099
184.500	8.172	0.099
184.600	22.253	0.099
184.700	22.823	0.100
184.800	21.570	0.100
184.900	23.225	0.100
185.000	22.367	0.100
185.100	20.903	0.100
185.200	17.776	0.100
185.300	19.969	0.100
185.400	16.288	0.099
185.500	22.800	0.100
185.600	23.189	0.100
185.700	15.955	0.099
185.800	9.328	0.099
185.900	23.569	0.099
186.000	21.001	0.099
186.100	27.688	0.100
186.200	24.531	0.100
186.300	14.228	0.100
186.400	21.259	0.099
186.500	17.820	0.099
186.600	18.587	0.100
186.700	27.607	0.100
186.800	18.367	0.100
186.900	12.653	0.100
187.000	25.826	0.100
187.100	11.970	0.100
187.200	17.406	0.100
187.300	29.540	0.100
187.400	29.083	0.100
187.500	23.217	0.100
187.600	27.405	0.100
187.700	14.697	0.100
187.800	14.305	0.100
187.900	15.645	0.100
188.000	19.878	0.100
188.100	13.555	0.100
188.200	21.062	0.100
188.300	25.354	0.099
188.400	17.250	0.100
188.500	24.600	0.100
188.600	25.392	0.100
188.700	21.827	0.100
188.800	10.537	0.100
188.900	10.924	0.100
189.000	34.909	0.100
189.100	14.119	0.100
189.200	27.997	0.099
189.300	14.388	0.100
189.400	27.988	0.100
189.500	22.708	0.100
189.600	19.228	0.100
189.700	16.984	0.100
189.800	3.723	0.100
189.900	28.422	0.099
190.000	25.277	0.100
190.100	21.712	0.099
190.200	14.721	0.100
190.300	15.465	0.100
190.400	22.834	0.100
190.500	27.186	0.100
190.600	19.711	0.100
190.700	16.652	0.100
190.800	24.370	0.100
190.900	24.840	0.100
191.000	17.594	0.100
191.100	32.764	0.100
191.200	18.687	0.100
191.300	25.779	0.100
191.400	24.388	0.100
191.500	20.202	0.100
191.600	27.660	0.100
191.700	14.605	0.100
191.800	32.976	0.100
191.900	10.879	0.099
192.000	23.454	0.100
192.100	9.356	0.100
192.200	10.128	0.100
192.300	22.943	0.100
192.400	3.011	0.100
192.500	28.121	0.100
192.600	19.217	0.100
192.700	24.559	0.100
192.800	20.223	0.100
192.900	27.934	0.100
193.000	21.469	0.100
193.100	17.439	0.100
193.200	29.468	0.099
193.300	24.724	0.100
193.400	14.266	0.100
193.500	18.741	0.100
193.600	25.104	0.100
193.700	25.439	0.100
193.800	16.296	0.100
193.900	14.820	0.100
194.000	26.691	0.100
194.100	16.367	0.100
194.200	26.936	0.100
194.300	13.156	0.100
194.400	14.085	0.100
194.500	35.112	0.100
194.600	18.394	0.100
194.700	20.958	0.100
194.800	31.598	0.100
194.900	30.713	0.100
195.000	23.959	0.100
195.100	30.734	0.100
195.200	23.909	0.100
195.300	21.066	0.100
195.400	15.267	0.100
195.500	3.964	0.099
195.600	15.544	0.100
195.700	22.307	0.100
195.800	36.402	0.100
195.900	25.630	0.100
196.000	10.184	0.100
196.100	31.338	0.099
196.200	13.746	0.100
196.300	46.318	0.100
196.400	9.885	0.099
196.500	24.485	0.100
196.600	22.157	0.100
196.700	26.833	0.100
196.800	14.673	0.100
196.900	14.654	0.100
197.000	21.809	0.100
197.100	25.559	0.100
197.200	23.140	0.100
197.300	14.801	0.100
197.400	34.503	0.100
197.500	4.012	0.100
197.600	13.734	0.100
197.700	14.815	0.100
197.800	16.728	0.100
197.900	27.472	0.100
198.000	26.896	0.100
198.100	14.794	0.100
198.200	18.985	0.100
198.300	34.760	0.100
198.400	23.010	0.100
198.500	17.838	0.100
198.600	14.953	0.100
198.700	24.390	0.100
198.800	8.240	0.100
198.900	29.830	0.100
199.000	19.306	0.100
199.100	20.453	0.100
199.200	26.755	0.100
199.300	16.846	0.100
199.400	26.530	0.100
199.500	25.571	0.100
199.600	16.674	0.100
199.700	16.466	0.100
199.800	14.868	0.100
199.900	16.537	0.100
200.000	19.796	0.100
200.100	20.491	0.100
200.200	11.407	0.100
200.300	7.310	0.100
200.400	26.306	0.100
200.500	20.758	0.100
200.600	26.987	0.100
200.700	25.265	0.100
200.800	22.989	0.100
200.900	25.980	0.100
201.000	13.180	0.100
201.100	25.935	0.100
201.200	34.812	0.100
201.300	13.041	0.100
201.400	22.148	0.100
201.500	23.300	0.100
201.600	9.527	0.100
201.700	17.593	0.100
201.800	21.898	0.100
201.900	28.831	0.100
202.000	23.451	0.100
202.100	23.554	0.100
202.200	17.545	0.100
202.300	15.525	0.100
202.400	20.298	0.100
202.500	20.480	0.100
202.600	26.404	0.100
202.700	24.244	0.100
202.800	12.750	0.100
202.900	30.081	0.100
203.000	26.882	0.100
203.100	18.224	0.100
203.200	15.364	0.100
203.300	12.101	0.100
203.400	14.011	0.100
203.500	4.484	0.100
203.600	21.697	0.100
203.700	24.764	0.100
203.800	29.340	0.100
203.900	34.784	0.100
204.000	12.300	0.099
204.100	18.343	0.100
204.200	17.165	0.100
204.300	24.165	0.100
204.400	29.696	0.100
204.500	23.167	0.100
204.600	27.676	0.100
204.700	19.346	0.100
204.800	28.409	0.100
204.900	23.908	0.100
205.000	23.093	0.100
205.100	18.064	0.100
205.200	17.154	0.100
205.300	21.330	0.100
205.400	12.784	0.100
205.500	13.236	0.100
205.600	16.681	0.099
205.700	18.331	0.100
205.800	7.778	0.100
205.900	31.367	0.100
206.000	8.587	0.100
206.100	29.546	0.100
206.200	13.580	0.100
206.300	9.345	0.100
206.400	16.892	0.100
206.500	15.013	0.100
206.600	29.421	0.100
206.700	25.236	0.100
206.800	13.531	0.100
206.900	25.648	0.099
207.000	25.805	0.100
207.100	18.672	0.100
207.200	21.178	0.100
207.300	15.936	0.100
207.400	17.019	0.100
207.500	22.962	0.100
207.600	14.196	0.100
207.700	33.679	0.100
207.800	8.069	0.100
207.900	17.373	0.100
208.000	25.417	0.100
208.100	16.836	0.100
208.200	24.782	0.100
208.300	20.467	0.100
208.400	14.724	0.100
208.500	21.060	0.100
208.600	23.405	0.100
208.700	20.558	0.100
208.800	19.713	0.100
208.900	17.740	0.100
209.000	11.943	0.100
209.100	22.699	0.100
209.200	18.601	0.099
209.300	24.103	0.100
209.400	34.268	0.100
209.500	23.845	0.100
209.600	17.516	0.100
209.700	27.248	0.100
209.800	20.720	0.100
209.900	15.779	0.100
210.000	25.004	0.100
210.100	11.197	0.099
210.200	21.757	0.099
210.300	15.805	0.100
210.400	25.978	0.100
210.500	24.837	0.100
210.600	14.510	0.100
210.700	17.888	0.100
210.800	17.948	0.100
210.900	15.678	0.100
211.000	27.457	0.100
211.100	5.600	0.100
211.200	24.340	0.100
211.300	17.848	0.100
211.400	17.402	0.100
211.500	10.163	0.100
211.600	4.584	0.100
211.700	28.338	0.100
211.800	22.021	0.100
211.900	21.683	0.100
212.000	12.673	0.100
212.100	17.416	0.100
212.200	31.123	0.100
212.300	16.950	0.100
212.400	12.477	0.100
212.500	12.905	0.100
212.600	27.396	0.100
212.700	23.415	0.100
212.800	18.449	0.100
212.900	25.218	0.100
213.000	13.772	0.100
213.100	15.091	0.100
213.200	22.218	0.100
213.300	33.468	0.100
213.400	21.448	0.100
213.500	20.085	0.100
213.600	19.738	0.100
213.700	19.688	0.100
213.800	20.388	0.100
213.900	28.015	0.100
214.000	17.342	0.100
214.100	12.547	0.100
214.200	20.934	0.100
214.300	0.924	0.100
214.400	34.147	0.100
214.500	16.257	0.100
214.600	9.430	0.100
214.700	23.539	0.100
214.800	19.591	0.100
214.900	15.202	0.100
215.000	15.189	0.100
215.100	8.130	0.100
215.200	32.850	0.100
215.300	37.936	0.100
215.400	18.134	0.100
215.500	6.994	0.100
215.600	24.366	0.100
215.700	16.177	0.100
215.800	16.347	0.100
215.900	12.186	0.100
216.000	10.039	0.100
216.100	18.643	0.100
216.200	33.290	0.100
216.300	25.049	0.100
216.400	15.898	0.100
216.500	26.622	0.100
216.600	8.793	0.100
216.700	16.466	0.100
216.800	17.777	0.100
216.900	23.395	0.099
217.000	35.944	0.100
217.100	20.193	0.100
217.200	21.520	0.100
217.300	13.480	0.100
217.400	12.756	0.100
217.500	8.597	0.100
217.600	15.586	0.100
217.700	22.679	0.100
217.800	24.199	0.100
217.900	27.004	0.100
218.000	15.879	0.100
218.100	21.899	0.100
218.200	13.591	0.100
218.300	31.551	0.100
218.400	21.711	0.100
218.500	13.283	0.100
218.600	19.808	0.100
218.700	29.743	0.100
218.800	13.379	0.100
218.900	28.853	0.100
219.000	23.701	0.100
219.100	19.994	0.100
219.200	19.133	0.100
219.300	12.685	0.100
219.400	19.947	0.100
219.500	17.961	0.100
219.600	24.942	0.100
219.700	19.441	0.100
219.800	17.656	0.100
219.900	24.205	0.100
220.000	12.499	0.100
220.100	24.447	0.100
220.200	21.690	0.100
220.300	7.291	0.100
220.400	16.015	0.100
220.500	21.637	0.100
220.600	24.606	0.100
220.700	16.636	0.100
220.800	22.495	0.100
220.900	11.511	0.100
221.000	27.129	0.100
221.100	27.896	0.100
221.200	42.128	0.100
221.300	17.668	0.100
221.400	24.007	0.100
221.500	0.612	0.100
221.600	22.919	0.100
221.700	24.572	0.100
221.800	18.418	0.100
221.900	-1.395	0.100
222.000	46.290	0.100
222.100	13.833	0.100
222.200	19.556	0.100
222.300	14.433	0.100
222.400	22.274	0.100
222.500	13.508	0.100
222.600	36.075	0.100
222.700	19.334	0.100
222.800	22.928	0.100
222.900	15.190	0.100
223.000	17.911	0.100
223.100	16.039	0.100
223.200	25.866	0.100
223.300	21.762	0.100
223.400	21.106	0.100
223.500	6.676	0.099
223.600	30.548	0.100
223.700	25.905	0.100
223.800	18.928	0.100
223.900	5.400	0.100
224.000	26.324	0.100
224.100	19.859	0.100
224.200	16.242	0.100
224.300	15.394	0.100
224.400	27.244	0.100
224.500	0.561	0.100
224.600	26.688	0.100
224.700	23.046	0.100
224.800	4.463	0.100
224.900	17.381	0.100
225.000	22.705	0.100
225.100	27.203	0.100
225.200	4.560	0.100
225.300	16.030	0.100
225.400	13.451	0.100
225.500	26.315	0.100
225.600	23.467	0.100
225.700	22.354	0.100
225.800	24.648	0.100
225.900	15.954	0.100
226.000	20.210	0.100
226.100	12.292	0.100
226.200	20.493	0.100
226.300	13.892	0.100
226.400	8.644	0.100
226.500	25.680	0.100
226.600	23.487	0.100
226.700	-1.432	0.100
226.800	14.370	0.100
226.900	27.442	0.100
227.000	40.738	0.100
227.100	5.698	0.100
227.200	27.516	0.100
227.300	19.890	0.100
227.400	21.031	0.100
227.500	21.946	0.100
227.600	26.719	0.100
227.700	27.391	0.100
227.800	11.689	0.100
227.900	22.257	0.100
228.000	16.692	0.100
228.100	12.712	0.100
228.200	15.594	0.100
228.300	30.024	0.100
228.400	4.674	0.100
228.500	32.435	0.100
228.600	11.284	0.100
228.700	10.256	0.100
228.800	21.206	0.100
228.900	17.341	0.100
229.000	18.016	0.100
229.100	14.131	0.100
229.200	10.049	0.100
229.300	15.218	0.099
229.400	21.304	0.100
229.500	17.024	0.100
229.600	17.361	0.100
229.700	11.725	0.100
229.800	16.993	0.100
229.900	19.128	0.100
230.000	29.661	0.100
230.100	18.685	0.100
230.200	23.997	0.100
230.300	16.197	0.100
230.400	17.972	0.100
230.500	20.177	0.100
230.600	15.874	0.099
230.700	9.234	0.100
230.800	26.921	0.100
230.900	16.299	0.100
231.000	5.383	0.100
231.100	7.544	0.100
231.200	20.696	0.100
231.300	18.275	0.099
231.400	22.782	0.100
231.500	15.678	0.100
231.600	21.049	0.100
231.700	21.486	0.100
231.800	24.013	0.100
231.900	23.050	0.100
232.000	18.019	0.100
232.100	21.356	0.100
232.200	19.238	0.100
232.300	18.106	0.100
232.400	26.620	0.100
232.500	23.877	0.100
232.600	13.161	0.100
232.700	22.654	0.100
232.800	6.117	0.100
232.900	24.364	0.100
233.000	20.364	0.100
233.100	16.263	0.100
233.200	12.581	0.100
233.300	12.942	0.100
233.400	14.517	0.100
233.500	9.761	0.100
233.600	21.983	0.100
233.700	16.475	0.100
233.800	8.689	0.100
233.900	29.382	0.100
234.000	-1.374	0.100
234.100	22.271	0.100
234.200	6.314	0.100
234.300	14.328	0.100
234.400	17.486	0.100
234.500	30.084	0.099
234.600	18.438	0.099
234.700	26.118	0.100
234.800	19.516	0.100
234.900	8.980	0.100
235.000	25.159	0.100
235.100	13.128	0.100
235.200	31.303	0.100
235.300	18.707	0.100
235.400	24.904	0.100
235.500	14.332	0.100
235.600	10.839	0.100
235.700	18.764	0.100
235.800	23.197	0.100
235.900	9.669	0.100
236.000	20.301	0.100
236.100	19.594	0.100
236.200	24.582	0.100
236.300	23.874	0.100
236.400	12.449	0.100
236.500	28.673	0.100
236.600	13.176	0.100
236.700	27.454	0.100
236.800	24.737	0.099
236.900	21.482	0.100
237.000	0.702	0.100
237.100	26.361	0.100
237.200	19.247	0.100
237.300	16.318	0.100
237.400	22.285	0.099
237.500	19.810	0.100
237.600	21.464	0.099
237.700	30.541	0.100
237.800	23.535	0.100
237.900	23.181	0.100
238.000	16.697	0.100
238.100	12.042	0.100
238.200	17.064	0.100
238.300	11.443	0.100
238.400	16.354	0.100
238.500	15.698	0.100
238.600	7.989	0.100
238.700	16.546	0.100
238.800	28.241	0.100
238.900	15.459	0.100
239.000	12.967	0.100
239.100	21.195	0.100
239.200	18.998	0.100
239.300	15.066	0.100
239.400	23.048	0.100
239.500	17.131	0.099
239.600	23.345	0.100
239.700	15.920	0.099
239.800	5.104	0.100
239.900	17.554	0.100
240.000	16.953	0.100
240.100	23.566	0.100
240.200	16.124	0.100
240.300	24.514	0.100
240.400	9.777	0.100
240.500	39.547	0.100
240.600	11.712	0.100
240.700	23.547	0.100
240.800	21.326	0.100
240.900	11.003	0.100
241.000	20.536	0.100
241.100	21.735	0.100
241.200	17.909	0.100
241.300	18.960	0.100
241.400	24.624	0.100
241.500	7.495	0.100
241.600	11.216	0.100
241.700	14.277	0.100
241.800	14.453	0.100
241.900	25.133	0.100
242.000	2.491	0.100
242.100	27.930	0.100
242.200	16.381	0.100
242.300	13.638	0.099
242.400	21.374	0.100
242.500	27.675	0.100
242.600	15.682	0.100
242.700	15.181	0.100
242.800	20.610	0.100
242.900	15.526	0.100
243.000	21.623	0.100
243.100	10.102	0.100
243.200	17.327	0.100
243.300	28.916	0.100
243.400	26.880	0.100
243.500	14.958	0.100
243.600	15.848	0.100
243.700	9.840	0.099
243.800	12.455	0.100
243.900	14.956	0.100
244.000	17.791	0.100
244.100	17.744	0.100
244.200	6.234	0.100
244.300	20.640	0.100
244.400	21.856	0.100
244.500	24.354	0.100
244.600	17.290	0.100
244.700	15.982	0.100
244.800	25.817	0.100
244.900	19.352	0.100
245.000	11.442	0.100
245.100	14.033	0.100
245.200	19.737	0.100
245.300	17.422	0.100
245.400	17.239	0.100
245.500	5.218	0.100
245.600	19.880	0.100
245.700	13.437	0.100
245.800	8.009	0.100
245.900	9.620	0.100
246.000	3.723	0.099
246.100	15.350	0.100
246.200	9.986	0.100
246.300	37.473	0.100
246.400	20.830	0.100
246.500	13.085	0.100
246.600	8.928	0.100
246.700	12.072	0.100
246.800	20.389	0.100
246.900	16.378	0.100
247.000	14.828	0.100
247.100	2.889	0.100
247.200	24.354	0.099
247.300	16.280	0.100
247.400	16.082	0.099
247.500	18.207	0.100
247.600	24.751	0.099
247.700	17.785	0.100
247.800	22.624	0.100
247.900	12.829	0.100
248.000	5.972	0.100
248.100	27.539	0.100
248.200	16.446	0.099
248.300	16.332	0.100
248.400	8.094	0.100
248.500	3.819	0.099
248.600	25.909	0.100
248.700	16.299	0.100
248.800	15.365	0.100
248.900	19.632	0.100
249.000	9.368	0.100
249.100	4.401	0.099
249.200	26.737	0.100
249.300	9.361	0.100
249.400	20.043	0.100
249.500	22.358	0.099
249.600	27.242	0.100
249.700	26.095	0.100
249.800	18.707	0.100
249.900	6.525	0.100
250.000	12.377	0.100
250.100	22.661	0.100
250.200	16.291	0.100
250.300	16.288	0.100
250.400	25.488	0.100
250.500	21.023	0.100
250.600	14.499	0.100
250.700	19.984	0.100
250.800	9.066	0.100
250.900	20.018	0.100
251.000	8.777	0.100
251.100	13.754	0.100
251.200	20.834	0.099
251.300	27.298	0.100
251.400	11.656	0.100
251.500	9.058	0.100
251.600	25.801	0.100
251.700	7.417	0.100
251.800	20.956	0.100
251.900	23.267	0.100
252.000	20.335	0.100
252.100	14.646	0.100
252.200	11.851	0.100
252.300	11.579	0.099
252.400	13.640	0.100
252.500	19.569	0.099
252.600	2.451	0.099
252.700	27.130	0.099
252.800	19.976	0.100
252.900	0.825	0.100
253.000	32.731	0.100
253.100	18.721	0.100
253.200	4.015	0.100
253.300	4.285	0.100
253.400	23.684	0.100
253.500	12.115	0.100
253.600	2.892	0.100
253.700	16.442	0.100
253.800	26.253	0.100
253.900	23.618	0.100
254.000	22.772	0.100
254.100	18.269	0.100
254.200	11.382	0.099
254.300	3.632	0.100
254.400	36.580	0.100
254.500	20.038	0.100
254.600	7.758	0.099
254.700	15.790	0.100
254.800	16.892	0.100
254.900	26.846	0.100
255.000	6.360	0.100
255.100	15.636	0.100
255.200	29.393	0.100
255.300	6.368	0.100
255.400	16.056	0.100
255.500	23.302	0.100
255.600	7.067	0.100
255.700	20.183	0.100
255.800	24.088	0.100
255.900	13.309	0.100
256.000	18.337	0.100
256.100	9.513	0.100
256.200	13.715	0.100
256.300	23.605	0.100
256.400	8.271	0.100
256.500	11.245	0.100
256.600	8.795	0.100
256.700	23.206	0.100
256.800	2.578	0.100
256.900	22.072	0.100
257.000	-7.367	0.100
257.100	20.117	0.100
257.200	12.318	0.100
257.300	7.785	0.100
257.400	24.916	0.100
257.500	19.700	0.100
257.600	21.011	0.100
257.700	26.640	0.100
257.800	17.991	0.100
257.900	7.382	0.100
258.000	4.513	0.100
258.100	21.615	0.100
258.200	11.292	0.100
258.300	13.587	0.100
258.400	16.483	0.100
258.500	13.654	0.099
258.600	16.401	0.100
258.700	11.258	0.100
258.800	1.633	0.100
258.900	16.156	0.100
259.000	11.320	0.100
259.100	18.409	0.100
259.200	13.475	0.100
259.300	0.442	0.100
259.400	19.618	0.100
259.500	25.743	0.100
259.600	9.870	0.100
259.700	13.623	0.100
259.800	7.880	0.100
259.900	17.122	0.100
260.000	19.476	0.100
260.100	10.043	0.099
260.200	22.713	0.100
260.300	9.996	0.100
260.400	13.626	0.100
260.500	21.923	0.100
260.600	28.991	0.100
260.700	22.865	0.100
260.800	11.531	0.100
260.900	25.912	0.100
261.000	10.251	0.100
261.100	20.784	0.100
261.200	13.367	0.099
261.300	10.996	0.099
261.400	11.577	0.099
261.500	28.934	0.100
261.600	3.560	0.099
261.700	16.406	0.100
261.800	5.380	0.100
261.900	35.773	0.100
262.000	26.349	0.100
262.100	-3.283	0.100
262.200	37.730	0.100
262.300	13.755	0.100
262.400	5.406	0.100
262.500	18.897	0.100
262.600	18.323	0.100
262.700	28.446	0.100
262.800	14.143	0.100
262.900	22.306	0.100
263.000	16.427	0.100
263.100	15.125	0.099
263.200	28.693	0.100
263.300	24.037	0.100
263.400	19.705	0.100
263.500	6.692	0.100
263.600	18.778	0.100
263.700	19.653	0.100
263.800	13.168	0.100
263.900	12.005	0.100
264.000	15.284	0.100
264.100	20.224	0.100
264.200	20.001	0.100
264.300	25.409	0.100
264.400	5.836	0.100
264.500	14.896	0.100
264.600	12.662	0.100
264.700	28.974	0.100
264.800	24.145	0.100
264.900	19.968	0.100
265.000	13.552	0.100
265.100	6.796	0.100
265.200	28.941	0.100
265.300	13.849	0.100
265.400	21.352	0.100
265.500	8.117	0.100
265.600	28.565	0.100
265.700	16.657	0.100
265.800	12.562	0.100
265.900	19.531	0.100
266.000	23.069	0.100
266.100	6.692	0.100
266.200	20.325	0.100
266.300	18.047	0.100
266.400	26.419	0.100
266.500	4.467	0.100
266.600	16.559	0.100
266.700	17.854	0.100
266.800	14.270	0.100
266.900	17.077	0.100
267.000	19.032	0.100
267.100	22.801	0.100
267.200	18.695	0.100
267.300	13.240	0.100
267.400	18.197	0.100
267.500	20.403	0.099
267.600	15.930	0.100
267.700	24.464	0.100
267.800	25.304	0.100
267.900	5.017	0.099
268.000	20.290	0.100
268.100	23.549	0.100
268.200	10.777	0.100
268.300	14.123	0.100
268.400	18.557	0.100
268.500	12.465	0.100
268.600	28.500	0.100
268.700	21.557	0.100
268.800	24.084	0.100
268.900	21.959	0.100
269.000	20.652	0.100
269.100	9.063	0.100
269.200	20.861	0.100
269.300	-0.515	0.100
269.400	13.717	0.100
269.500	30.273	0.100
269.600	21.600	0.100
269.700	13.308	0.100
269.800	15.936	0.100
269.900	30.083	0.099
270.000	8.381	0.100
270.100	21.088	0.100
270.200	17.341	0.100
270.300	18.009	0.100
270.400	16.106	0.100
270.500	11.482	0.100
270.600	24.568	0.100
270.700	6.326	0.100
270.800	20.926	0.100
270.900	31.959	0.100
271.000	20.188	0.100
271.100	14.290	0.099
271.200	17.702	0.099
271.300	17.435	0.100
271.400	9.447	0.100
271.500	25.620	0.100
271.600	14.287	0.100
271.700	13.568	0.100
271.800	21.433	0.100
271.900	16.994	0.100
272.000	24.683	0.099
272.100	23.123	0.100
272.200	20.688	0.100
272.300	22.515	0.100
272.400	16.142	0.100
272.500	20.951	0.099
272.600	20.406	0.100
272.700	14.342	0.100
272.800	15.102	0.100
272.900	17.279	0.100
273.000	24.375	0.100
273.100	20.845	0.100
273.200	14.548	0.100
273.300	19.018	0.100
273.400	25.138	0.099
273.500	23.039	0.100
273.600	13.089	0.100
273.700	14.334	0.100
273.800	20.143	0.100
273.900	22.076	0.100
274.000	11.324	0.100
274.100	16.366	0.100
274.200	14.691	0.100
274.300	29.694	0.100
274.400	16.959	0.100
274.500	17.812	0.100
274.600	10.552	0.100
274.700	22.458	0.100
274.800	12.907	0.100
274.900	23.744	0.100
275.000	5.631	0.100
275.100	27.443	0.100
275.200	18.381	0.099
275.300	12.453	0.099
275.400	24.146	0.100
275.500	21.262	0.100
275.600	15.946	0.100
275.700	8.687	0.100
275.800	19.770	0.100
275.900	24.740	0.100
276.000	17.122	0.100
276.100	7.641	0.100
276.200	19.863	0.100
276.300	25.189	0.100
276.400	20.797	0.100
276.500	11.575	0.100
276.600	21.583	0.100
276.700	20.726	0.100
276.800	15.675	0.100
276.900	22.033	0.100
277.000	29.073	0.100
277.100	16.376	0.100
277.200	11.372	0.100
277.300	26.289	0.100
277.400	16.477	0.100
277.500	3.626	0.100
277.600	17.000	0.100
277.700	25.654	0.100
277.800	8.541	0.100
277.900	16.783	0.099
278.000	20.655	0.100
278.100	10.961	0.100
278.200	23.431	0.100
278.300	28.166	0.099
278.400	7.811	0.100
278.500	25.251	0.100
278.600	22.535	0.100
278.700	23.138	0.100
278.800	16.544	0.100
278.900	21.676	0.100
279.000	20.695	0.100
279.100	25.435	0.100
279.200	21.182	0.100
279.300	26.927	0.100
279.400	25.820	0.100
279.500	23.340	0.100
279.600	-6.026	0.100
279.700	18.508	0.099
279.800	17.827	0.100
279.900	34.027	0.100
280.000	19.055	0.100
280.100	22.350	0.100
280.200	9.658	0.100
280.300	29.417	0.099
280.400	19.154	0.100
280.500	17.666	0.100
280.600	14.192	0.099
280.700	12.276	0.100
280.800	27.130	0.100
280.900	16.893	0.100
281.000	13.758	0.100
281.100	26.041	0.100
281.200	13.666	0.100
281.300	18.384	0.100
281.400	10.638	0.100
281.500	14.439	0.100
281.600	11.948	0.100
281.700	12.481	0.099
281.800	21.685	0.100
281.900	20.257	0.100
282.000	22.758	0.100
282.100	19.802	0.100
282.200	30.877	0.100
282.300	5.376	0.100
282.400	21.946	0.100
282.500	21.746	0.100
282.600	27.725	0.100
282.700	11.793	0.100
282.800	28.206	0.100
282.900	12.769	0.100
283.000	3.210	0.100
283.100	24.267	0.100
283.200	18.002	0.100
283.300	19.759	0.100
283.400	16.973	0.100
283.500	21.731	0.100
283.600	20.144	0.100
283.700	9.734	0.100
283.800	19.430	0.100
283.900	23.559	0.100
284.000	4.233	0.100
284.100	8.474	0.100
284.200	21.685	0.100
284.300	17.369	0.100
284.400	26.816	0.100
284.500	26.585	0.100
284.600	15.444	0.100
284.700	31.115	0.100
284.800	16.083	0.100
284.900	12.610	0.100
285.000	31.347	0.100
285.100	22.914	0.100
285.200	24.617	0.100
285.300	21.104	0.100
285.400	26.360	0.100
285.500	14.785	0.100
285.600	22.438	0.100
285.700	18.645	0.100
285.800	12.510	0.100
285.900	19.179	0.100
286.000	13.259	0.100
286.100	10.564	0.100
286.200	12.098	0.100
286.300	35.066	0.100
286.400	20.888	0.100
286.500	24.628	0.100
286.600	20.669	0.100
286.700	14.220	0.100
286.800	7.734	0.100
286.900	14.287	0.099
287.000	26.673	0.100
287.100	11.128	0.100
287.200	29.539	0.100
287.300	20.378	0.100
287.400	28.757	0.100
287.500	12.029	0.100
287.600	18.874	0.100
287.700	19.075	0.100
287.800	11.955	0.099
287.900	15.289	0.100
288.000	10.663	0.100
288.100	20.700	0.100
288.200	21.760	0.100
288.300	24.255	0.100
288.400	26.553	0.100
288.500	25.042	0.100
288.600	14.781	0.100
288.700	12.228	0.100
288.800	10.309	0.100
288.900	19.457	0.100
289.000	27.303	0.100
289.100	26.382	0.100
289.200	16.675	0.100
289.300	15.273	0.100
289.400	28.599	0.100
289.500	2.254	0.100
289.600	25.341	0.100
289.700	18.176	0.100
289.800	16.393	0.100
289.900	22.877	0.100
290.000	20.615	0.100
290.100	25.272	0.100
290.200	11.052	0.100
290.300	22.536	0.100
290.400	21.478	0.100
290.500	32.576	0.100
290.600	17.864	0.100
290.700	19.958	0.100
290.800	18.940	0.100
290.900	16.898	0.100
291.000	29.077	0.100
291.100	19.361	0.100
291.200	22.809	0.100
291.300	19.656	0.100
291.400	3.659	0.100
291.500	22.802	0.100
291.600	29.580	0.100
291.700	21.649	0.100
291.800	16.045	0.100
291.900	19.023	0.100
292.000	14.744	0.100
292.100	36.832	0.100
292.200	21.016	0.100
292.300	19.661	0.100
292.400	20.827	0.100
292.500	26.506	0.100
292.600	20.508	0.100
292.700	21.066	0.100
292.800	20.272	0.099
292.900	21.127	0.100
293.000	19.926	0.100
293.100	11.697	0.100
293.200	13.131	0.100
293.300	-4.113	0.100
293.400	15.407	0.100
293.500	10.118	0.100
293.600	23.862	0.100
293.700	20.201	0.099
293.800	16.012	0.100
293.900	11.353	0.100
294.000	24.434	0.100
294.100	18.754	0.100
294.200	26.537	0.100
294.300	17.818	0.100
294.400	29.858	0.100
294.500	19.031	0.100
294.600	16.728	0.100
294.700	16.777	0.099
294.800	11.850	0.100
294.900	26.166	0.099
295.000	20.810	0.099
295.100	26.300	0.100
295.200	17.833	0.100
295.300	18.182	0.100
295.400	10.159	0.100
295.500	16.346	0.099
295.600	25.160	0.100
295.700	24.501	0.100
295.800	17.050	0.099
295.900	12.814	0.099
296.000	11.404	0.100
296.100	16.143	0.099
296.200	21.643	0.099
296.300	10.530	0.100
296.400	19.032	0.099
296.500	25.213	0.100
296.600	34.860	0.099
296.700	19.882	0.100
296.800	20.214	0.100
296.900	25.336	0.099
297.000	15.924	0.100
297.100	20.990	0.100
297.200	8.291	0.100
297.300	30.530	0.099
297.400	12.090	0.100
297.500	33.727	0.100
297.600	30.959	0.100
297.700	19.044	0.100
297.800	11.863	0.100
297.900	15.588	0.100
298.000	12.829	0.100
298.100	27.697	0.100
298.200	21.773	0.100
298.300	31.137	0.099
298.400	22.368	0.099
298.500	22.450	0.100
298.600	1.883	0.099
298.700	16.837	0.100
298.800	23.533	0.099
298.900	23.909	0.100
299.000	19.584	0.100
299.100	14.181	0.100
299.200	22.162	0.100
299.300	18.646	0.100
299.400	26.942	0.100
299.500	15.144	0.100
299.600	28.987	0.100
299.700	4.938	0.099
299.800	26.999	0.100
299.900	25.526	0.100
300.000	20.850	0.100
300.100	22.303	0.100
300.200	24.106	0.099
300.300	21.116	0.100
300.400	14.505	0.100
300.500	16.743	0.099
300.600	18.166	0.099
300.700	21.971	0.099
300.800	26.270	0.099
300.900	18.927	0.100
301.000	6.154	0.099
301.100	12.677	0.099
301.200	18.129	0.100
301.300	12.570	0.099
301.400	34.182	0.100
301.500	24.470	0.100
301.600	17.751	0.100
301.700	21.113	0.099
301.800	20.068	0.099
301.900	15.645	0.100
302.000	18.963	0.100
302.100	15.939	0.099
302.200	26.311	0.100
302.300	17.236	0.100
302.400	12.392	0.100
302.500	34.982	0.100
302.600	29.040	0.100
302.700	11.292	0.100
302.800	22.645	0.100
302.900	22.016	0.100
303.000	14.050	0.100
303.100	30.385	0.099
303.200	10.523	0.100
303.300	7.869	0.100
303.400	20.844	0.100
303.500	16.918	0.100
303.600	25.627	0.100
303.700	14.568	0.100
303.800	26.917	0.100
303.900	31.018	0.100
304.000	9.539	0.100
304.100	25.715	0.100
304.200	11.055	0.099
304.300	12.183	0.100
304.400	28.786	0.100
304.500	21.707	0.100
304.600	18.318	0.100
304.700	18.123	0.100
304.800	8.122	0.100
304.900	21.690	0.100
305.000	33.474	0.100
305.100	13.409	0.100
305.200	16.903	0.100
305.300	24.522	0.100
305.400	8.832	0.100
305.500	16.624	0.100
305.600	30.121	0.099
305.700	26.383	0.100
305.800	25.492	0.100
305.900	18.504	0.100
306.000	19.259	0.100
306.100	21.957	0.100
306.200	21.595	0.099
306.300	29.894	0.100
306.400	17.582	0.100
306.500	24.135	0.100
306.600	18.341	0.100
306.700	16.322	0.100
306.800	-0.396	0.100
306.900	27.308	0.100
307.000	17.285	0.100
307.100	13.018	0.099
307.200	28.170	0.100
307.300	28.056	0.100
307.400	24.157	0.100
307.500	29.540	0.100
307.600	14.468	0.100
307.700	25.914	0.100
307.800	15.590	0.099
307.900	7.606	0.100
308.000	26.735	0.100
308.100	27.520	0.099
308.200	34.252	0.100
308.300	18.870	0.100
308.400	27.618	0.100
308.500	9.921	0.099
308.600	22.355	0.099
308.700	22.976	0.100
308.800	3.311	0.100
308.900	29.857	0.100
309.000	22.939	0.100
309.100	22.261	0.099
309.200	25.876	0.099
309.300	16.183	0.099
309.400	21.879	0.100
309.500	16.048	0.100
309.600	10.917	0.099
309.700	17.824	0.099
309.800	21.888	0.099
309.900	25.140	0.099
310.000	28.861	0.100
310.100	20.184	0.100
310.200	13.372	0.100
310.300	30.086	0.099
310.400	21.285	0.100
310.500	16.519	0.100
310.600	27.782	0.100
310.700	7.838	0.099
310.800	35.273	0.100
310.900	18.764	0.100
311.000	19.632	0.100
311.100	18.935	0.099
311.200	9.683	0.099
311.300	25.330	0.099
311.400	23.653	0.099
311.500	19.698	0.100
311.600	16.562	0.099
311.700	14.425	0.100
311.800	26.323	0.099
311.900	14.600	0.100
312.000	24.847	0.099
312.100	28.942	0.100
312.200	19.535	0.099
312.300	10.362	0.099
312.400	14.898	0.100
312.500	20.565	0.099
312.600	21.821	0.099
312.700	13.716	0.099
312.800	24.285	0.099
312.900	10.055	0.099
313.000	23.558	0.099
313.100	21.840	0.099
313.200	20.708	0.100
313.300	24.903	0.100
313.400	22.528	0.099
313.500	17.327	0.099
313.600	26.102	0.100
313.700	9.048	0.099
313.800	19.335	0.099
313.900	17.330	0.100
314.000	22.013	0.099
314.100	25.787	0.100
314.200	18.860	0.099
314.300	27.268	0.100
314.400	9.388	0.099
314.500	17.958	0.099
314.600	35.007	0.100
314.700	11.763	0.100
314.800	26.760	0.100
314.900	25.469	0.100
315.000	21.597	0.099
315.100	24.320	0.100
315.200	19.026	0.099
315.300	8.174	0.100
315.400	19.377	0.099
315.500	18.958	0.100
315.600	25.573	0.099
315.700	16.035	0.100
315.800	26.327	0.100
315.900	14.550	0.100
316.000	26.158	0.100
316.100	17.615	0.100
316.200	18.623	0.099
316.300	13.931	0.099
316.400	3.237	0.099
316.500	24.457	0.100
316.600	25.982	0.100
316.700	24.383	0.099
316.800	26.455	0.100
316.900	17.144	0.100
317.000	23.468	0.100
317.100	20.521	0.099
317.200	13.045	0.100
317.300	19.854	0.099
317.400	16.141	0.100
317.500	17.860	0.100
317.600	21.294	0.099
317.700	33.042	0.100
317.800	17.551	0.099
317.900	5.360	0.100
318.000	26.656	0.099
318.100	13.344	0.099
318.200	18.436	0.099
318.300	34.229	0.099
318.400	7.175	0.100
318.500	9.548	0.099
318.600	36.483	0.100
318.700	26.808	0.100
318.800	24.351	0.099
318.900	31.400	0.100
319.000	12.051	0.099
319.100	27.066	0.099
319.200	11.245	0.099
319.300	27.410	0.100
319.400	22.777	0.100
319.500	26.854	0.100
319.600	2.450	0.100
319.700	11.437	0.099
319.800	19.110	0.099
319.900	26.432	0.100
320.000	15.340	0.100
320.100	23.258	0.099
320.200	26.872	0.100
320.300	24.165	0.099
320.400	16.620	0.100
320.500	3.367	0.099
320.600	20.164	0.100
320.700	28.255	0.100
320.800	20.764	0.099
320.900	17.448	0.100
321.000	27.923	0.099
321.100	16.555	0.100
321.200	32.102	0.100
321.300	30.750	0.100
321.400	10.865	0.099
321.500	25.688	0.099
321.600	34.412	0.099
321.700	19.502	0.100
321.800	14.105	0.100
321.900	25.692	0.099
322.000	20.723	0.100
322.100	18.836	0.100
322.200	19.007	0.100
322.300	12.616	0.100
322.400	23.226	0.100
322.500	15.787	0.099
322.600	2.521	0.100
322.700	-1.713	0.100
322.800	26.216	0.099
322.900	25.486	0.100
323.000	24.720	0.100
323.100	12.910	0.100
323.200	21.992	0.099
323.300	31.505	0.100
323.400	7.699	0.100
323.500	11.944	0.099
323.600	18.283	0.099
323.700	26.226	0.100
323.800	17.557	0.099
323.900	27.085	0.100
324.000	15.962	0.099
324.100	22.358	0.099
324.200	17.421	0.099
324.300	19.606	0.099
324.400	26.746	0.099
324.500	29.957	0.099
324.600	20.372	0.100
324.700	22.385	0.099
324.800	29.340	0.099
324.900	18.522	0.099
325.000	13.612	0.099
325.100	28.001	0.100
325.200	13.057	0.099
325.300	27.143	0.099
325.400	22.502	0.100
325.500	13.788	0.099
325.600	26.034	0.100
325.700	11.182	0.100
325.800	23.112	0.100
325.900	32.820	0.100
326.000	10.283	0.100
326.100	15.809	0.100
326.200	23.852	0.100
326.300	12.709	0.099
326.400	30.151	0.100
326.500	27.728	0.100
326.600	26.801	0.099
326.700	17.186	0.099
326.800	22.679	0.100
326.900	12.449	0.100
327.000	23.202	0.100
327.100	22.474	0.099
327.200	14.385	0.100
327.300	20.729	0.099
327.400	25.046	0.099
327.500	11.714	0.099
327.600	27.674	0.099
327.700	21.379	0.100
327.800	27.668	0.100
327.900	26.503	0.100
328.000	30.386	0.099
328.100	20.642	0.099
328.200	12.247	0.100
328.300	33.937	0.100
328.400	22.113	0.099
328.500	11.252	0.100
328.600	15.835	0.100
328.700	4.622	0.100
328.800	19.032	0.099
328.900	15.211	0.100
329.000	27.383	0.100
329.100	26.572	0.099
329.200	22.779	0.099
329.300	7.473	0.099
329.400	36.811	0.099
329.500	14.853	0.099
329.600	20.374	0.099
329.700	9.570	0.100
329.800	18.732	0.099
329.900	25.622	0.099
330.000	22.552	0.100
330.100	12.731	0.100
330.200	28.929	0.100
330.300	20.978	0.099
330.400	26.526	0.100
330.500	14.443	0.100
330.600	11.904	0.100
330.700	30.744	0.099
330.800	8.294	0.100
330.900	24.136	0.099
331.000	24.937	0.099
331.100	26.975	0.100
331.200	23.061	0.099
331.300	18.610	0.100
331.400	10.133	0.100
331.500	20.430	0.099
331.600	22.789	0.099
331.700	22.334	0.100
331.800	14.719	0.099
331.900	12.911	0.100
332.000	44.996	0.099
332.100	21.271	0.100
332.200	16.579	0.099
332.300	26.846	0.100
332.400	29.633	0.099
332.500	24.587	0.099
332.600	14.689	0.099
332.700	14.131	0.099
332.800	25.872	0.099
332.900	28.529	0.100
333.000	19.258	0.100
333.100	20.484	0.100
333.200	24.340	0.100
333.300	4.205	0.100
333.400	42.612	0.100
333.500	26.554	0.099
333.600	24.064	0.099
333.700	21.940	0.099
333.800	29.008	0.100
333.900	38.148	0.100
334.000	22.700	0.100
334.100	33.310	0.100
334.200	21.552	0.100
334.300	15.548	0.100
334.400	24.575	0.100
334.500	9.073	0.100
334.600	9.148	0.100
334.700	28.350	0.100
334.800	21.209	0.100
334.900	29.905	0.100
335.000	18.728	0.099
335.100	28.750	0.100
335.200	27.600	0.100
335.300	18.197	0.100
335.400	27.742	0.099
335.500	28.641	0.099
335.600	22.427	0.099
335.700	31.040	0.099
335.800	20.104	0.100
335.900	28.737	0.100
336.000	26.676	0.099
336.100	28.855	0.099
336.200	18.860	0.099
336.300	22.373	0.099
336.400	31.481	0.100
336.500	19.183	0.099
336.600	27.703	0.100
336.700	23.531	0.100
336.800	12.407	0.099
336.900	23.283	0.100
337.000	31.156	0.099
337.100	33.729	0.099
337.200	33.644	0.100
337.300	25.258	0.099
337.400	25.597	0.099
337.500	13.664	0.099
337.600	21.667	0.099
337.700	22.828	0.099
337.800	25.140	0.100
337.900	32.602	0.099
338.000	24.997	0.099
338.100	21.203	0.100
338.200	20.274	0.100
338.300	14.409	0.100
338.400	29.385	0.099
338.500	29.835	0.099
338.600	16.131	0.100
338.700	18.708	0.099
338.800	26.988	0.099
338.900	20.731	0.099
339.000	23.903	0.099
339.100	28.281	0.099
339.200	21.642	0.099
339.300	27.483	0.099
339.400	23.039	0.100
339.500	13.629	0.099
339.600	14.570	0.099
339.700	20.057	0.099
339.800	12.251	0.100
339.900	26.113	0.100
340.000	30.950	0.099
340.100	17.247	0.100
340.200	29.239	0.099
340.300	28.920	0.099
340.400	39.289	0.099
340.500	23.485	0.100
340.600	27.212	0.099
340.700	26.853	0.099
340.800	20.547	0.099
340.900	12.087	0.099
341.000	12.813	0.099
341.100	48.124	0.099
341.200	19.315	0.099
341.300	25.743	0.100
341.400	25.265	0.100
341.500	20.292	0.100
341.600	29.315	0.099
341.700	21.025	0.099
341.800	29.654	0.100
341.900	20.213	0.099
342.000	19.360	0.100
342.100	16.387	0.099
342.200	33.036	0.100
342.300	1.301	0.099
342.400	28.543	0.100
342.500	27.248	0.100
342.600	16.881	0.100
342.700	34.330	0.100
342.800	20.269	0.099
342.900	12.620	0.099
343.000	22.530	0.100
343.100	24.183	0.100
343.200	33.590	0.099
343.300	23.511	0.099
343.400	12.471	0.099
343.500	23.058	0.099
343.600	31.206	0.099
343.700	22.996	0.099
343.800	27.420	0.100
343.900	27.546	0.100
344.000	13.703	0.099
344.100	32.711	0.100
344.200	17.767	0.099
344.300	34.342	0.099
344.400	24.128	0.100
344.500	15.275	0.100
344.600	26.781	0.100
344.700	17.300	0.100
344.800	32.647	0.099
344.900	13.544	0.100
345.000	24.369	0.099
345.100	33.717	0.100
345.200	10.116	0.100
345.300	18.609	0.100
345.400	39.382	0.100
345.500	16.908	0.099
345.600	20.107	0.100
345.700	28.906	0.100
345.800	18.324	0.099
345.900	39.470	0.100
346.000	18.263	0.100
346.100	19.353	0.100
346.200	13.617	0.099
346.300	25.488	0.099
346.400	24.847	0.099
346.500	22.352	0.099
346.600	24.419	0.099
346.700	23.850	0.100
346.800	23.971	0.099
346.900	24.432	0.100
347.000	33.536	0.100
347.100	19.658	0.100
347.200	13.523	0.099
347.300	28.631	0.100
347.400	5.130	0.100
347.500	15.987	0.099
347.600	14.749	0.100
347.700	23.380	0.100
347.800	27.837	0.100
347.900	33.949	0.099
348.000	14.063	0.099
348.100	15.583	0.099
348.200	24.639	0.099
348.300	23.289	0.100
348.400	36.748	0.100
348.500	22.544	0.099
348.600	12.073	0.100
348.700	25.616	0.099
348.800	26.450	0.099
348.900	20.594	0.099
349.000	26.281	0.100
349.100	23.584	0.100
349.200	35.058	0.099
349.300	19.800	0.099
349.400	39.150	0.100
349.500	16.824	0.099
349.600	30.269	0.099
349.700	23.730	0.100
349.800	20.145	0.099
349.900	18.376	0.099
350.000	16.383	0.099
350.100	20.931	0.100
350.200	21.926	0.099
350.300	28.043	0.099
350.400	23.492	0.099
350.500	27.024	0.099
350.600	25.412	0.100
350.700	21.698	0.100
350.800	22.620	0.100
350.900	20.394	0.099
351.000	38.333	0.099
351.100	21.027	0.099
351.200	31.567	0.099
351.300	19.524	0.100
351.400	23.367	0.100
351.500	27.581	0.100
351.600	14.972	0.100
351.700	32.796	0.100
351.800	31.657	0.099
351.900	33.745	0.100
352.000	27.640	0.099
352.100	18.418	0.100
352.200	22.560	0.099
352.300	29.753	0.099
352.400	19.746	0.099
352.500	16.318	0.099
352.600	28.891	0.100
352.700	21.068	0.100
352.800	24.407	0.099
352.900	28.572	0.099
353.000	19.913	0.100
353.100	32.126	0.100
353.200	18.419	0.099
353.300	23.763	0.099
353.400	27.836	0.100
353.500	27.964	0.100
353.600	18.192	0.099
353.700	20.318	0.099
353.800	20.308	0.099
353.900	14.734	0.099
354.000	27.980	0.099
354.100	27.284	0.100
354.200	26.148	0.100
354.300	21.023	0.100
354.400	14.504	0.100
354.500	29.466	0.100
354.600	20.388	0.099
354.700	18.546	0.100
354.800	24.983	0.100
354.900	30.016	0.100
355.000	32.194	0.099
355.100	27.186	0.099
355.200	25.283	0.100
355.300	22.744	0.099
355.400	17.862	0.099
355.500	24.999	0.099
355.600	32.558	0.100
355.700	22.999	0.100
355.800	8.428	0.099
355.900	32.032	0.100
356.000	24.002	0.099
356.100	33.802	0.099
356.200	24.917	0.100
356.300	17.108	0.099
356.400	17.992	0.099
356.500	30.096	0.099
356.600	33.171	0.099
356.700	27.990	0.100
356.800	26.707	0.099
356.900	28.011	0.100
357.000	21.842	0.099
357.100	18.918	0.100
357.200	32.911	0.100
357.300	19.633	0.099
357.400	33.047	0.099
357.500	20.778	0.099
357.600	30.539	0.099
357.700	29.309	0.099
357.800	21.313	0.099
357.900	28.690	0.099
358.000	22.744	0.099
358.100	33.571	0.100
358.200	15.367	0.099
358.300	29.545	0.100
358.400	24.594	0.099
358.500	19.314	0.099
358.600	26.346	0.099
358.700	22.412	0.099
358.800	13.637	0.100
358.900	36.055	0.100
359.000	26.367	0.099
359.100	25.012	0.099
359.200	22.375	0.099
359.300	24.787	0.100
359.400	28.233	0.099
359.500	25.202	0.099
359.600	18.472	0.100
359.700	32.128	0.099
359.800	26.832	0.099
359.900	2.195	0.099
360.000	19.485	0.099
360.100	25.256	0.099
360.200	24.697	0.099
360.300	30.740	0.099
360.400	24.280	0.099
360.500	25.643	0.099
360.600	12.973	0.099
360.700	14.610	0.099
360.800	27.905	0.099
360.900	23.917	0.099
361.000	20.567	0.099
361.100	13.094	0.099
361.200	27.001	0.099
361.300	23.250	0.100
361.400	31.709	0.099
361.500	22.606	0.099
361.600	11.458	0.099
361.700	32.691	0.099
361.800	22.789	0.100
361.900	29.880	0.099
362.000	24.290	0.099
362.100	20.511	0.099
362.200	28.069	0.100
362.300	21.330	0.100
362.400	30.168	0.099
362.500	29.047	0.099
362.600	17.676	0.099
362.700	28.824	0.100
362.800	11.437	0.099
362.900	18.337	0.099
363.000	16.140	0.099
363.100	30.742	0.099
363.200	15.853	0.099
363.300	31.185	0.099
363.400	24.641	0.100
363.500	21.938	0.099
363.600	18.545	0.099
363.700	22.472	0.099
363.800	20.597	0.099
363.900	33.930	0.100
364.000	23.187	0.099
364.100	16.603	0.099
364.200	33.614	0.099
364.300	15.395	0.100
364.400	14.089	0.099
364.500	10.837	0.099
364.600	30.338	0.099
364.700	29.577	0.099
364.800	22.299	0.099
364.900	23.429	0.099
365.000	27.500	0.099
365.100	21.872	0.100
365.200	14.584	0.099
365.300	19.448	0.100
365.400	22.109	0.099
365.500	27.751	0.099
365.600	22.869	0.099
365.700	19.966	0.099
365.800	22.183	0.099
365.900	23.052	0.099
366.000	26.195	0.100
366.100	13.539	0.099
366.200	19.791	0.099
366.300	17.842	0.099
366.400	16.882	0.099
366.500	32.228	0.099
366.600	9.048	0.099
366.700	39.773	0.099
366.800	18.031	0.099
366.900	24.470	0.099
367.000	26.297	0.099
367.100	19.816	0.100
367.200	23.032	0.099
367.300	23.473	0.099
367.400	29.597	0.099
367.500	29.529	0.099
367.600	31.378	0.100
367.700	15.086	0.099
367.800	17.317	0.099
367.900	19.913	0.099
368.000	37.489	0.099
368.100	28.756	0.100
368.200	13.236	0.099
368.300	20.930	0.099
368.400	16.542	0.099
368.500	17.025	0.099
368.600	29.883	0.099
368.700	17.495	0.099
368.800	18.057	0.099
368.900	15.923	0.099
369.000	19.298	0.099
369.100	22.489	0.099
369.200	32.374	0.100
369.300	35.569	0.099
369.400	13.454	0.099
369.500	25.717	0.099
369.600	32.709	0.099
369.700	20.428	0.099
369.800	25.789	0.099
369.900	20.116	0.099
370.000	21.287	0.099
370.100	26.589	0.099
370.200	20.393	0.099
370.300	22.612	0.099
370.400	23.389	0.099
370.500	15.227	0.099
370.600	19.409	0.099
370.700	23.236	0.099
370.800	24.496	0.099
370.900	18.673	0.099
371.000	23.641	0.099
371.100	29.434	0.099
371.200	17.162	0.099
371.300	25.841	0.099
371.400	26.217	0.099
371.500	30.179	0.099
371.600	31.894	0.099
371.700	20.234	0.099
371.800	14.581	0.099
371.900	25.863	0.099
372.000	24.786	0.099
372.100	25.922	0.099
372.200	18.933	0.099
372.300	25.512	0.099
372.400	23.292	0.099
372.500	23.292	0.099
372.600	31.925	0.099
372.700	22.073	0.099
372.800	17.189	0.099
372.900	22.781	0.099
373.000	37.450	0.099
373.100	14.494	0.099
373.200	17.737	0.099
373.300	22.091	0.099
373.400	19.210	0.099
373.500	19.041	0.099
373.600	22.345	0.099
373.700	12.628	0.099
373.800	20.627	0.099
373.900	16.904	0.099
374.000	12.050	0.099
374.100	40.649	0.099
374.200	19.153	0.099
374.300	14.039	0.099
374.400	34.527	0.099
374.500	19.404	0.099
374.600	26.091	0.099
374.700	33.344	0.099
374.800	19.953	0.099
374.900	21.257	0.099
375.000	27.796	0.099
375.100	7.160	0.099
375.200	15.980	0.099
375.300	35.293	0.099
375.400	39.737	0.099
375.500	26.940	0.099
375.600	20.084	0.099
375.700	18.291	0.099
375.800	20.030	0.099
375.900	21.466	0.099
376.000	37.618	0.099
376.100	17.321	0.099
376.200	17.301	0.099
376.300	28.773	0.099
376.400	24.674	0.099
376.500	28.241	0.099
376.600	14.443	0.099
376.700	13.678	0.099
376.800	28.057	0.099
376.900	30.190	0.099
377.000	18.625	0.099
377.100	20.228	0.099
377.200	24.596	0.099
377.300	24.186	0.099
377.400	5.463	0.099
377.500	23.765	0.099
377.600	33.950	0.099
377.700	10.854	0.099
377.800	28.695	0.099
377.900	31.216	0.099
378.000	25.791	0.099
378.100	27.475	0.099
378.200	9.372	0.099
378.300	28.828	0.099
378.400	15.323	0.099
378.500	21.016	0.099
378.600	6.433	0.099
378.700	28.670	0.099
378.800	24.780	0.099
378.900	23.325	0.099
379.000	32.289	0.099
379.100	33.861	0.099
379.200	13.471	0.099
379.300	32.665	0.099
379.400	21.654	0.099
379.500	22.784	0.099
379.600	17.422	0.099
379.700	15.940	0.099
379.800	23.758	0.099
379.900	16.172	0.099
380.000	27.455	0.099
380.100	20.671	0.099
380.200	21.231	0.099
380.300	25.567	0.099
380.400	7.440	0.099
380.500	23.100	0.099
380.600	31.585	0.099
380.700	17.116	0.099
380.800	7.778	0.099
380.900	25.683	0.099
381.000	28.955	0.099
381.100	27.977	0.099
381.200	19.682	0.099
381.300	29.514	0.099
381.400	25.562	0.099
381.500	18.259	0.099
381.600	17.256	0.099
381.700	24.175	0.099
381.800	28.769	0.099
381.900	10.510	0.099
382.000	32.154	0.099
382.100	2.240	0.099
382.200	27.820	0.099
382.300	25.243	0.099
382.400	22.705	0.099
382.500	32.278	0.099
382.600	16.768	0.099
382.700	22.054	0.099
382.800	27.153	0.099
382.900	1.239	0.099
383.000	38.171	0.099
383.100	22.073	0.099
383.200	28.750	0.099
383.300	34.769	0.099
383.400	25.582	0.099
383.500	24.658	0.099
383.600	24.974	0.099
383.700	17.293	0.099
383.800	20.186	0.099
383.900	17.452	0.099
384.000	25.175	0.099
384.100	20.495	0.099
384.200	25.472	0.099
384.300	32.450	0.099
384.400	25.120	0.099
384.500	7.298	0.099
384.600	13.455	0.099
384.700	40.005	0.099
384.800	19.454	0.099
384.900	25.276	0.099
385.000	6.001	0.099
385.100	16.034	0.099
385.200	18.266	0.099
385.300	30.559	0.099
385.400	22.680	0.099
385.500	23.679	0.099
385.600	26.747	0.099
385.700	17.167	0.099
385.800	21.471	0.099
385.900	39.688	0.099
386.000	21.321	0.099
386.100	23.048	0.099
386.200	33.557	0.099
386.300	23.494	0.099
386.400	18.673	0.099
386.500	26.658	0.099
386.600	20.128	0.099
386.700	21.817	0.099
386.800	24.962	0.099
386.900	5.988	0.099
387.000	35.658	0.099
387.100	21.920	0.099
387.200	19.382	0.099
387.300	18.550	0.099
387.400	30.012	0.099
387.500	23.236	0.099
387.600	23.212	0.099
387.700	21.422	0.099
387.800	7.607	0.099
387.900	17.826	0.099
388.000	22.801	0.099
388.100	18.589	0.099
388.200	33.042	0.099
388.300	24.330	0.099
388.400	16.572	0.099
388.500	23.910	0.099
388.600	28.379	0.099
388.700	23.635	0.099
388.800	26.649	0.099
388.900	26.702	0.099
389.000	28.091	0.099
389.100	16.068	0.099
389.200	10.434	0.099
389.300	32.081	0.099
389.400	3.743	0.099
389.500	23.139	0.099
389.600	28.145	0.099
389.700	17.518	0.099
389.800	22.867	0.099
389.900	14.853	0.099
390.000	15.753	0.099
390.100	37.172	0.099
390.200	22.135	0.099
390.300	35.038	0.099
390.400	23.326	0.099
390.500	7.809	0.099
390.600	18.148	0.099
390.700	18.866	0.099
390.800	12.963	0.099
390.900	27.454	0.099
391.000	31.496	0.099
391.100	37.422	0.099
391.200	20.732	0.099
391.300	18.707	0.099
391.400	32.841	0.099
391.500	22.178	0.099
391.600	23.755	0.099
391.700	26.284	0.099
391.800	26.013	0.099
391.900	13.928	0.099
392.000	15.529	0.099
392.100	25.664	0.099
392.200	21.039	0.099
392.300	24.148	0.099
392.400	23.686	0.099
392.500	19.361	0.099
392.600	20.535	0.099
392.700	20.114	0.099
392.800	21.799	0.099
392.900	23.763	0.099
393.000	30.914	0.099
393.100	22.157	0.099
393.200	23.592	0.099
393.300	24.873	0.099
393.400	23.254	0.099
393.500	14.686	0.099
393.600	9.321	0.099
393.700	28.394	0.099
393.800	23.263	0.099
393.900	22.486	0.099
394.000	15.426	0.099
394.100	17.576	0.099
394.200	18.176	0.099
394.300	18.058	0.099
394.400	24.516	0.099
394.500	14.995	0.099
394.600	25.666	0.099
394.700	21.261	0.099
394.800	14.108	0.099
394.900	16.716	0.099
395.000	23.982	0.099
395.100	16.200	0.099
395.200	28.624	0.099
395.300	22.454	0.099
395.400	21.685	0.099
395.500	16.383	0.099
395.600	15.562	0.099
395.700	24.449	0.099
395.800	35.817	0.099
395.900	20.696	0.099
396.000	26.984	0.099
396.100	18.138	0.099
396.200	15.519	0.099
396.300	29.510	0.099
396.400	32.883	0.099
396.500	18.673	0.099
396.600	23.313	0.099
396.700	22.962	0.099
396.800	14.747	0.099
396.900	20.285	0.099
397.000	22.899	0.099
397.100	12.269	0.099
397.200	18.965	0.099
397.300	29.390	0.099
397.400	16.423	0.099
397.500	17.002	0.099
397.600	18.515	0.099
397.700	37.297	0.099
397.800	14.324	0.099
397.900	18.662	0.099
398.000	32.417	0.099
398.100	8.481	0.099
398.200	17.909	0.099
398.300	19.467	0.099
398.400	28.032	0.099
398.500	17.538	0.099
398.600	22.061	0.099
398.700	23.393	0.099
398.800	23.667	0.099
398.900	28.880	0.099
399.000	15.499	0.099
399.100	19.363	0.099
399.200	28.370	0.099
399.300	26.096	0.099
399.400	21.198	0.099
399.500	31.925	0.099
399.600	9.801	0.099
399.700	16.900	0.099
399.800	26.808	0.099
399.900	16.560	0.099
400.000	2.568	0.099
400.100	34.061	0.099
400.200	13.530	0.099
400.300	30.711	0.099
400.400	9.307	0.099
400.500	21.236	0.099
400.600	22.681	0.099
400.700	17.311	0.099
400.800	19.001	0.099
400.900	24.028	0.099
401.000	12.022	0.099
401.100	27.967	0.099
401.200	20.736	0.099
401.300	21.978	0.099
401.400	13.780	0.099
401.500	27.963	0.099
401.600	32.409	0.099
401.700	12.996	0.099
401.800	12.874	0.099
401.900	24.569	0.099
402.000	26.850	0.099
402.100	3.877	0.099
402.200	17.399	0.099
402.300	19.771	0.099
402.400	29.192	0.099
402.500	15.254	0.099
402.600	38.126	0.099
402.700	21.163	0.099
402.800	25.333	0.099
402.900	14.054	0.099
403.000	21.905	0.099
403.100	24.815	0.099
403.200	20.907	0.099
403.300	11.268	0.099
403.400	22.447	0.099
403.500	28.230	0.099
403.600	20.023	0.099
403.700	11.730	0.099
403.800	44.737	0.099
403.900	10.220	0.099
404.000	25.970	0.099
404.100	19.267	0.099
404.200	8.763	0.099
404.300	17.274	0.099
404.400	16.871	0.099
404.500	30.961	0.099
404.600	19.590	0.099
404.700	22.914	0.099
404.800	26.316	0.099
404.900	22.579	0.099
405.000	12.819	0.099
405.100	9.932	0.099
405.200	25.823	0.099
405.300	27.103	0.099
405.400	7.483	0.099
405.500	37.154	0.099
405.600	25.551	0.099
405.700	20.313	0.099
405.800	19.182	0.099
405.900	17.877	0.099
406.000	25.088	0.099
406.100	15.908	0.099
406.200	33.563	0.099
406.300	12.932	0.099
406.400	5.030	0.099
406.500	27.459	0.099
406.600	9.328	0.099
406.700	28.153	0.099
406.800	21.678	0.099
406.900	32.273	0.099
407.000	12.867	0.099
407.100	21.062	0.099
407.200	9.887	0.099
407.300	22.243	0.099
407.400	26.492	0.099
407.500	17.862	0.099
407.600	29.129	0.099
407.700	32.472	0.099
407.800	5.728	0.099
407.900	27.678	0.099
408.000	10.379	0.099
408.100	24.324	0.099
408.200	11.105	0.099
408.300	26.362	0.099
408.400	24.586	0.099
408.500	21.552	0.099
408.600	20.060	0.099
408.700	21.365	0.099
408.800	21.338	0.099
408.900	18.766	0.099
409.000	18.521	0.099
409.100	17.991	0.099
409.200	30.164	0.099
409.300	21.054	0.099
409.400	10.236	0.099
409.500	32.502	0.099
409.600	22.566	0.099
409.700	18.202	0.099
409.800	26.884	0.099
409.900	22.951	0.099
410.000	33.025	0.099
410.100	27.378	0.099
410.200	4.640	0.099
410.300	21.880	0.099
410.400	14.420	0.099
410.500	17.334	0.099
410.600	33.144	0.099
410.700	32.042	0.099
410.800	16.298	0.099
410.900	20.915	0.099
411.000	20.710	0.099
411.100	17.010	0.099
411.200	24.545	0.099
411.300	12.474	0.099
411.400	26.775	0.099
411.500	16.736	0.099
411.600	22.875	0.099
411.700	29.605	0.099
411.800	19.210	0.099
411.900	23.481	0.099
412.000	11.872	0.099
412.100	21.285	0.099
412.200	16.678	0.099
412.300	18.181	0.099
412.400	26.378	0.099
412.500	9.982	0.099
412.600	22.260	0.099
412.700	20.356	0.099
412.800	17.031	0.099
412.900	22.752	0.099
413.000	24.518	0.099
413.100	21.517	0.099
413.200	19.147	0.099
413.300	8.928	0.099
413.400	23.796	0.099
413.500	23.320	0.099
413.600	21.927	0.099
413.700	6.382	0.099
413.800	27.482	0.099
413.900	19.824	0.099
414.000	20.246	0.099
414.100	14.126	0.099
414.200	17.921	0.099
414.300	28.814	0.099
414.400	16.244	0.099
414.500	18.433	0.099
414.600	22.219	0.099
414.700	18.416	0.099
414.800	21.672	0.099
414.900	30.049	0.099
415.000	30.096	0.099
415.100	17.465	0.099
415.200	0.859	0.099
415.300	23.949	0.099
415.400	12.407	0.099
415.500	30.689	0.099
415.600	7.587	0.099
415.700	26.593	0.099
415.800	25.519	0.099
415.900	34.055	0.099
416.000	6.532	0.099
416.100	24.818	0.099
416.200	21.878	0.099
416.300	29.084	0.099
416.400	22.889	0.099
416.500	21.568	0.099
416.600	26.080	0.099
416.700	25.253	0.099
416.800	17.119	0.099
416.900	25.337	0.099
417.000	30.537	0.099
417.100	2.694	0.099
417.200	12.133	0.099
417.300	16.232	0.099
417.400	21.543	0.099
417.500	23.089	0.099
417.600	40.156	0.099
417.700	22.684	0.099
417.800	21.550	0.099
417.900	18.340	0.099
418.000	19.949	0.099
418.100	23.950	0.099
418.200	14.862	0.099
418.300	17.243	0.099
418.400	24.654	0.099
418.500	5.953	0.099
418.600	20.652	0.099
418.700	27.892	0.099
418.800	38.870	0.099
418.900	11.799	0.099
419.000	25.120	0.099
419.100	21.905	0.099
419.200	37.076	0.099
419.300	9.070	0.099
419.400	25.125	0.099
419.500	14.564	0.099
419.600	22.738	0.099
419.700	17.173	0.099
419.800	24.144	0.099
419.900	23.199	0.099
420.000	20.630	0.099
420.100	22.422	0.099
420.200	24.719	0.099
420.300	22.135	0.099
420.400	10.515	0.099
420.500	26.825	0.099
420.600	12.154	0.099
420.700	20.916	0.099
420.800	20.519	0.099
420.900	16.460	0.099
421.000	25.324	0.099
421.100	25.749	0.099
421.200	33.727	0.099
421.300	24.230	0.099
421.400	13.144	0.099
421.500	6.344	0.099
421.600	30.420	0.099
421.700	26.087	0.099
421.800	31.831	0.099
421.900	10.662	0.099
422.000	30.478	0.099
422.100	10.046	0.099
422.200	34.498	0.099
422.300	35.992	0.099
422.400	11.552	0.099
422.500	27.477	0.099
422.600	20.740	0.099
422.700	5.411	0.099
422.800	19.636	0.099
422.900	20.789	0.099
423.000	13.134	0.099
423.100	28.446	0.099
423.200	7.402	0.099
423.300	33.766	0.099
423.400	14.073	0.099
423.500	6.818	0.099
423.600	25.703	0.099
423.700	23.392	0.099
423.800	16.557	0.099
423.900	10.086	0.099
424.000	20.642	0.099
424.100	30.706	0.099
424.200	19.322	0.099
424.300	28.885	0.099
424.400	20.732	0.099
424.500	31.874	0.099
424.600	22.544	0.099
424.700	21.738	0.099
424.800	13.497	0.099
424.900	29.769	0.099
425.000	21.611	0.099
425.100	13.964	0.099
425.200	20.796	0.099
425.300	30.429	0.099
425.400	22.097	0.099
425.500	35.116	0.099
425.600	9.729	0.099
425.700	27.437	0.099
425.800	18.336	0.099
425.900	19.107	0.099
426.000	28.161	0.099
426.100	23.086	0.099
426.200	33.296	0.099
426.300	15.665	0.099
426.400	17.010	0.099
426.500	19.104	0.099
426.600	25.967	0.099
426.700	19.923	0.099
426.800	23.226	0.099
426.900	26.634	0.099
427.000	23.332	0.099
427.100	26.194	0.099
427.200	17.766	0.099
427.300	17.331	0.099
427.400	19.059	0.099
427.500	31.032	0.099
427.600	24.465	0.099
427.700	2.643	0.099
427.800	23.942	0.099
427.900	24.515	0.099
428.000	19.076	0.099
428.100	18.753	0.099
428.200	26.092	0.099
428.300	23.514	0.099
428.400	17.134	0.099
428.500	20.774	0.099
428.600	20.800	0.099
428.700	21.776	0.099
428.800	13.784	0.099
428.900	30.867	0.099
429.000	20.137	0.099
429.100	8.013	0.099
429.200	22.491	0.099
429.300	34.353	0.099
429.400	14.614	0.099
429.500	11.306	0.099
429.600	25.106	0.099
429.700	26.639	0.099
429.800	30.018	0.099
429.900	31.498	0.099
430.000	12.186	0.099
430.100	29.987	0.099
430.200	15.370	0.099
430.300	21.397	0.099
430.400	30.113	0.099
430.500	25.729	0.099
430.600	19.824	0.099
430.700	16.268	0.099
430.800	17.069	0.099
430.900	22.882	0.099
431.000	20.006	0.099
431.100	25.228	0.099
431.200	22.496	0.099
431.300	25.600	0.099
431.400	21.165	0.099
431.500	26.474	0.099
431.600	20.712	0.099
431.700	26.911	0.099
431.800	33.603	0.099
431.900	10.068	0.099
432.000	19.601	0.099
432.100	10.148	0.099
432.200	22.832	0.099
432.300	16.862	0.099
432.400	16.418	0.099
432.500	30.281	0.099
432.600	21.286	0.099
432.700	9.798	0.099
432.800	28.180	0.099
432.900	19.610	0.099
433.000	30.906	0.099
433.100	23.319	0.099
433.200	17.488	0.099
433.300	25.484	0.099
433.400	19.625	0.099
433.500	29.962	0.099
433.600	10.728	0.099
433.700	37.529	0.099
433.800	32.464	0.099
433.900	29.331	0.099
434.000	21.885	0.099
434.100	21.120	0.099
434.200	26.836	0.099
434.300	20.591	0.099
434.400	12.592	0.099
434.500	32.086	0.099
434.600	17.010	0.099
434.700	20.264	0.099
434.800	19.531	0.099
434.900	12.119	0.099
435.000	22.153	0.099
435.100	18.658	0.099
435.200	18.869	0.099
435.300	20.720	0.099
435.400	21.276	0.099
435.500	26.863	0.099
435.600	24.689	0.099
435.700	31.138	0.099
435.800	23.550	0.099
435.900	13.225	0.099
436.000	14.844	0.099
436.100	33.048	0.099
436.200	11.104	0.099
436.300	27.113	0.099
436.400	19.136	0.099
436.500	22.706	0.099
436.600	28.057	0.099
436.700	0.661	0.099
436.800	17.725	0.099
436.900	18.829	0.099
437.000	32.540	0.099
437.100	16.486	0.099
437.200	19.488	0.099
437.300	12.740	0.099
437.400	32.434	0.099
437.500	24.132	0.099
437.600	12.573	0.099
437.700	19.936	0.099
437.800	23.039	0.099
437.900	27.011	0.099
438.000	33.662	0.099
438.100	15.531	0.099
438.200	12.848	0.099
438.300	18.344	0.099
438.400	27.075	0.099
438.500	28.562	0.099
438.600	24.448	0.099
438.700	19.340	0.099
438.800	24.859	0.099
438.900	15.024	0.099
439.000	22.543	0.099
439.100	32.983	0.099
439.200	16.816	0.099
439.300	15.391	0.099
439.400	33.934	0.099
439.500	18.891	0.099
439.600	14.519	0.099
439.700	22.615	0.099
439.800	15.665	0.099
439.900	27.794	0.099
440.000	30.327	0.099
440.100	26.429	0.099
440.200	26.795	0.099
440.300	27.178	0.099
440.400	18.316	0.099
440.500	22.081	0.099
440.600	18.873	0.099
440.700	18.789	0.099
440.800	24.642	0.099
440.900	16.662	0.099
441.000	26.987	0.099
441.100	14.070	0.099
441.200	26.244	0.099
441.300	18.831	0.099
441.400	18.061	0.099
441.500	23.917	0.099
441.600	14.631	0.099
441.700	26.901	0.099
441.800	27.789	0.099
441.900	24.895	0.099
442.000	32.286	0.099
442.100	14.955	0.099
442.200	23.845	0.099
442.300	26.256	0.099
442.400	25.971	0.099
442.500	8.603	0.099
442.600	25.890	0.099
442.700	33.438	0.099
442.800	25.332	0.099
442.900	10.482	0.099
443.000	31.473	0.099
443.100	13.423	0.099
443.200	24.830	0.099
443.300	12.828	0.099
443.400	24.690	0.099
443.500	16.915	0.099
443.600	17.423	0.099
443.700	23.342	0.099
443.800	32.121	0.099
443.900	-1.395	0.099
444.000	34.573	0.099
444.100	30.013	0.099
444.200	28.515	0.099
444.300	22.588	0.099
444.400	16.791	0.099
444.500	23.191	0.099
444.600	22.383	0.099
444.700	28.029	0.099
444.800	20.363	0.099
444.900	12.045	0.099
445.000	27.957	0.099
445.100	40.178	0.099
445.200	23.514	0.099
445.300	17.151	0.099
445.400	33.497	0.099
445.500	19.044	0.099
445.600	18.453	0.099
445.700	17.069	0.099
445.800	15.248	0.099
445.900	14.418	0.099
446.000	28.725	0.099
446.100	17.123	0.099
446.200	23.576	0.099
446.300	26.906	0.099
446.400	3.337	0.099
446.500	31.925	0.099
446.600	21.913	0.099
446.700	31.801	0.099
446.800	25.055	0.099
446.900	30.596	0.099
447.000	28.321	0.099
447.100	28.345	0.099
447.200	4.493	0.099
447.300	26.934	0.099
447.400	17.546	0.099
447.500	34.478	0.099
447.600	17.841	0.099
447.700	18.090	0.099
447.800	20.367	0.099
447.900	28.784	0.099
448.000	6.545	0.099
448.100	13.621	0.099
448.200	20.248	0.099
448.300	21.414	0.099
448.400	21.987	0.099
448.500	16.680	0.099
448.600	23.214	0.099
448.700	25.420	0.099
448.800	24.449	0.099
448.900	26.297	0.099
449.000	25.221	0.099
449.100	25.917	0.099
449.200	2.569	0.099
449.300	37.018	0.099
449.400	25.610	0.099
449.500	19.026	0.099
449.600	24.167	0.099
449.700	24.090	0.099
449.800	32.058	0.099
449.900	18.620	0.099
450.000	26.827	0.099
450.100	7.364	0.099
450.200	27.065	0.099
450.300	31.136	0.099
450.400	24.211	0.099
450.500	24.521	0.099
450.600	21.167	0.099
450.700	20.762	0.099
450.800	18.291	0.099
450.900	26.069	0.100
451.000	26.680	0.099
451.100	23.555	0.100
451.200	9.261	0.100
451.300	17.024	0.100
451.400	11.894	0.100
451.500	37.529	0.100
451.600	25.588	0.099
451.700	19.070	0.100
451.800	26.622	0.100
451.900	21.006	0.099
452.000	22.485	0.100
452.100	18.728	0.100
452.200	23.246	0.100
452.300	24.940	0.100
452.400	32.162	0.100
452.500	24.915	0.100
452.600	21.100	0.100
452.700	25.003	0.100
452.800	11.336	0.100
452.900	23.383	0.100
453.000	37.761	0.100
453.100	24.739	0.100
453.200	6.102	0.100
453.300	18.149	0.100
453.400	19.087	0.100
453.500	15.117	0.100
453.600	24.033	0.100
453.700	25.355	0.100
453.800	29.916	0.100
453.900	23.086	0.100
454.000	20.315	0.100
454.100	18.789	0.100
454.200	19.638	0.100
454.300	1.530	0.100
454.400	27.192	0.100
454.500	19.058	0.100
454.600	18.737	0.100
454.700	16.182	0.100
454.800	25.256	0.100
454.900	19.410	0.100
455.000	20.530	0.100
455.100	30.875	0.100
455.200	18.969	0.100
455.300	31.902	0.100
455.400	21.255	0.100
455.500	22.612	0.100
455.600	23.631	0.100
455.700	11.491	0.100
455.800	28.918	0.100
455.900	33.291	0.100
456.000	31.807	0.100
456.100	28.774	0.100
456.200	27.792	0.100
456.300	11.636	0.100
456.400	19.981	0.100
456.500	6.912	0.100
456.600	42.080	0.100
456.700	25.526	0.100
456.800	12.732	0.100
456.900	25.601	0.100
457.000	26.688	0.100
457.100	14.691	0.100
457.200	24.020	0.100
457.300	21.483	0.100
457.400	23.272	0.100
457.500	29.661	0.100
457.600	25.817	0.100
457.700	21.306	0.100
457.800	28.931	0.100
457.900	22.654	0.100
458.000	29.836	0.100
458.100	9.642	0.100
458.200	22.797	0.100
458.300	24.921	0.100
458.400	9.792	0.100
458.500	32.520	0.100
458.600	22.475	0.100
458.700	29.216	0.100
458.800	23.473	0.100
458.900	18.692	0.100
459.000	22.193	0.100
459.100	11.318	0.100
459.200	26.328	0.100
459.300	20.003	0.100
459.400	31.168	0.100
459.500	35.457	0.100
459.600	20.688	0.100
459.700	20.752	0.100
459.800	23.427	0.100
459.900	28.557	0.100
460.000	15.638	0.100
460.100	12.737	0.100
460.200	33.150	0.100
460.300	27.646	0.100
460.400	28.933	0.100
460.500	23.569	0.100
460.600	34.146	0.100
460.700	20.992	0.100
460.800	32.344	0.100
460.900	17.354	0.100
461.000	22.410	0.100
461.100	26.073	0.100
461.200	21.773	0.100
461.300	23.443	0.100
461.400	10.647	0.100
461.500	19.714	0.100
461.600	26.820	0.100
461.700	40.152	0.100
461.800	30.008	0.100
461.900	19.223	0.100
462.000	24.621	0.100
462.100	20.725	0.100
462.200	19.170	0.100
462.300	32.812	0.100
462.400	20.811	0.100
462.500	35.788	0.100
462.600	17.791	0.100
462.700	21.129	0.100
462.800	25.978	0.100
462.900	15.064	0.100
463.000	31.027	0.100
463.100	16.250	0.100
463.200	15.026	0.100
463.300	21.677	0.100
463.400	13.857	0.100
463.500	26.054	0.100
463.600	24.309	0.100
463.700	20.679	0.100
463.800	27.135	0.100
463.900	42.883	0.100
464.000	31.581	0.100
464.100	28.664	0.100
464.200	20.946	0.100
464.300	28.279	0.100
464.400	20.412	0.100
464.500	22.149	0.100
464.600	20.277	0.100
464.700	40.581	0.100
464.800	18.607	0.100
464.900	21.313	0.100
465.000	33.208	0.100
465.100	28.074	0.100
465.200	32.141	0.100
465.300	26.877	0.100
465.400	27.378	0.100
465.500	27.835	0.100
465.600	22.289	0.100
465.700	25.289	0.100
465.800	-4.224	0.100
465.900	34.163	0.100
466.000	29.286	0.100
466.100	10.111	0.100
466.200	27.652	0.100
466.300	31.324	0.100
466.400	27.335	0.100
466.500	16.922	0.100
466.600	27.019	0.100
466.700	40.221	0.100
466.800	11.608	0.100
466.900	25.174	0.100
467.000	19.678	0.100
467.100	21.351	0.100
467.200	27.258	0.100
467.300	29.084	0.100
467.400	27.074	0.100
467.500	25.288	0.100
467.600	15.360	0.100
467.700	27.591	0.100
467.800	28.595	0.100
467.900	23.495	0.100
468.000	18.765	0.100
468.100	22.405	0.100
468.200	22.865	0.100
468.300	26.478	0.100
468.400	21.421	0.100
468.500	16.782	0.100
468.600	29.729	0.100
468.700	30.556	0.100
468.800	20.678	0.100
468.900	32.047	0.100
469.000	15.778	0.100
469.100	25.496	0.100
469.200	29.664	0.100
469.300	20.013	0.100
469.400	16.908	0.100
469.500	16.748	0.100
469.600	34.071	0.100
469.700	28.149	0.100
469.800	22.983	0.100
469.900	24.007	0.100
470.000	18.778	0.100
470.100	27.068	0.100
470.200	26.890	0.100
470.300	24.077	0.100
470.400	17.595	0.100
470.500	26.369	0.100
470.600	16.473	0.100
470.700	25.764	0.100
470.800	6.234	0.100
470.900	23.053	0.100
471.000	23.731	0.100
471.100	19.379	0.100
471.200	34.725	0.100
471.300	17.964	0.100
471.400	21.707	0.100
471.500	24.102	0.100
471.600	28.759	0.100
471.700	29.301	0.100
471.800	17.648	0.100
471.900	24.159	0.100
472.000	35.987	0.100
472.100	16.697	0.100
472.200	30.578	0.100
472.300	17.855	0.100
472.400	24.666	0.100
472.500	17.314	0.100
472.600	38.221	0.100
472.700	30.375	0.100
472.800	10.731	0.100
472.900	31.768	0.100
473.000	30.011	0.100
473.100	25.606	0.100
473.200	30.709	0.099
473.300	27.225	0.100
473.400	34.794	0.100
473.500	15.879	0.100
473.600	26.254	0.099
473.700	29.964	0.100
473.800	9.731	0.099
473.900	24.998	0.100
474.000	15.431	0.099
474.100	32.648	0.100
474.200	20.534	0.100
474.300	27.481	0.100
474.400	17.971	0.100
474.500	20.413	0.100
474.600	15.857	0.099
474.700	27.317	0.100
474.800	19.417	0.100
474.900	25.532	0.100
475.000	23.577	0.100
475.100	20.833	0.099
475.200	17.780	0.099
475.300	28.533	0.099
475.400	24.929	0.100
475.500	31.582	0.100
475.600	16.379	0.100
475.700	33.771	0.100
475.800	29.966	0.099
475.900	24.777	0.099
476.000	15.728	0.099
476.100	31.677	0.099
476.200	15.910	0.099
476.300	27.052	0.099
476.400	25.163	0.099
476.500	22.432	0.099
476.600	24.646	0.100
476.700	16.118	0.099
476.800	31.991	0.099
476.900	19.196	0.099
477.000	29.232	0.099
477.100	37.148	0.099
477.200	19.012	0.099
477.300	10.488	0.099
477.400	-0.594	0.100
477.500	31.996	0.100
477.600	16.918	0.099
477.700	39.014	0.099
477.800	24.085	0.100
477.900	28.822	0.100
478.000	25.005	0.099
478.100	17.016	0.099
478.200	23.189	0.099
478.300	24.287	0.099
478.400	23.945	0.099
478.500	12.371	0.100
478.600	15.299	0.099
478.700	35.357	0.100
478.800	25.209	0.100
478.900	22.813	0.099
479.000	26.806	0.100
479.100	13.160	0.099
479.200	9.920	0.100
479.300	27.386	0.099
479.400	18.954	0.099
479.500	28.181	0.100
479.600	30.683	0.099
479.700	20.762	0.099
479.800	30.116	0.099
479.900	19.243	0.099
480.000	26.877	0.100
480.100	25.986	0.100
480.200	27.450	0.099
480.300	27.133	0.100
480.400	27.393	0.099
480.500	24.188	0.099
480.600	14.952	0.100
480.700	19.260	0.099
480.800	21.392	0.099
480.900	22.501	0.099
481.000	15.615	0.100
481.100	41.754	0.100
481.200	23.823	0.099
481.300	23.542	0.099
481.400	26.797	0.099
481.500	28.794	0.099
481.600	30.911	0.099
481.700	14.278	0.099
481.800	31.348	0.100
481.900	18.705	0.100
482.000	23.673	0.100
482.100	32.523	0.100
482.200	15.131	0.099
482.300	29.666	0.099
482.400	21.406	0.099
482.500	23.412	0.099
482.600	29.499	0.100
482.700	29.743	0.100
482.800	34.681	0.100
482.900	29.912	0.099
483.000	27.024	0.100
483.100	24.845	0.100
483.200	24.860	0.100
483.300	5.689	0.099
483.400	31.719	0.100
483.500	21.255	0.099
483.600	26.555	0.099
483.700	32.521	0.100
483.800	22.158	0.100
483.900	16.720	0.099
484.000	14.298	0.100
484.100	26.922	0.100
484.200	28.155	0.099
484.300	27.166	0.099
484.400	29.546	0.099
484.500	26.448	0.100
484.600	17.486	0.099
484.700	39.798	0.099
484.800	23.918	0.099
484.900	27.811	0.099
485.000	21.298	0.099
485.100	6.893	0.099
485.200	15.990	0.099
485.300	36.737	0.099
485.400	28.279	0.099
485.500	27.435	0.099
485.600	27.046	0.099
485.700	38.511	0.099
485.800	35.060	0.099
485.900	20.849	0.099
486.000	21.880	0.099
486.100	28.695	0.100
486.200	29.067	0.100
486.300	14.695	0.099
486.400	32.597	0.099
486.500	22.135	0.100
486.600	28.130	0.099
486.700	29.147	0.099
486.800	30.603	0.100
486.900	13.191	0.099
487.000	29.440	0.100
487.100	31.192	0.100
487.200	37.303	0.099
487.300	28.153	0.100
487.400	19.918	0.099
487.500	22.405	0.100
487.600	21.297	0.099
487.700	22.526	0.099
487.800	19.942	0.099
487.900	23.799	0.099
488.000	20.214	0.099
488.100	20.331	0.099
488.200	36.566	0.100
488.300	22.026	0.100
488.400	26.407	0.100
488.500	23.988	0.100
488.600	17.323	0.100
488.700	18.445	0.100
488.800	28.303	0.099
488.900	29.028	0.099
489.000	21.220	0.100
489.100	32.161	0.100
489.200	14.554	0.099
489.300	28.963	0.099
489.400	21.377	0.100
489.500	20.922	0.099
489.600	26.331	0.099
489.700	35.547	0.099
489.800	38.811	0.099
489.900	27.508	0.100
490.000	25.264	0.099
490.100	28.421	0.099
490.200	30.824	0.099
490.300	1.821	0.099
490.400	38.998	0.100
490.500	21.639	0.099
490.600	34.950	0.099
490.700	32.317	0.099
490.800	26.108	0.099
490.900	20.475	0.100
491.000	15.608	0.100
491.100	30.859	0.099
491.200	39.717	0.099
491.300	18.694	0.100
491.400	21.664	0.100
491.500	32.614	0.100
491.600	27.381	0.099
491.700	13.577	0.100
491.800	28.765	0.100
491.900	29.374	0.100
492.000	22.698	0.099
492.100	19.736	0.100
492.200	38.435	0.099
492.300	33.115	0.099
492.400	16.475	0.099
492.500	28.880	0.099
492.600	19.115	0.100
492.700	30.251	0.099
492.800	22.411	0.099
492.900	23.607	0.100
493.000	30.895	0.099
493.100	26.411	0.099
493.200	36.727	0.100
493.300	15.991	0.099
493.400	39.190	0.099
493.500	15.596	0.099
493.600	30.438	0.100
493.700	20.315	0.100
493.800	22.183	0.099
493.900	27.575	0.099
494.000	30.408	0.099
494.100	27.737	0.099
494.200	22.414	0.099
494.300	21.194	0.100
494.400	31.176	0.100
494.500	34.487	0.099
494.600	26.689	0.099
494.700	28.487	0.099
494.800	26.231	0.100
494.900	29.148	0.099
495.000	27.672	0.099
495.100	27.185	0.099
495.200	23.823	0.099
495.300	7.654	0.099
495.400	30.651	0.099
495.500	16.530	0.099
495.600	25.059	0.099
495.700	27.415	0.099
495.800	24.840	0.099
495.900	18.618	0.099
496.000	25.179	0.099
496.100	30.476	0.099
496.200	29.959	0.099
496.300	32.275	0.099
496.400	24.641	0.100
496.500	14.426	0.099
496.600	22.910	0.099
496.700	23.780	0.099
496.800	24.427	0.100
496.900	18.113	0.099
497.000	18.721	0.099
497.100	15.897	0.099
497.200	30.092	0.099
497.300	16.345	0.099
497.400	20.490	0.099
497.500	27.078	0.100
497.600	34.610	0.099
497.700	36.033	0.099
497.800	18.513	0.099
497.900	28.324	0.100
498.000	25.069	0.099
498.100	28.782	0.100
498.200	25.773	0.099
498.300	26.741	0.099
498.400	21.323	0.099
498.500	20.315	0.099
498.600	24.801	0.099
498.700	26.794	0.099
498.800	24.021	0.099
498.900	34.928	0.099
499.000	19.528	0.099
499.100	13.282	0.100
499.200	27.143	0.100
499.300	25.193	0.099
499.400	19.450	0.099
499.500	22.058	0.099
499.600	34.460	0.100
499.700	21.346	0.100
499.800	19.389	0.100
499.900	12.795	0.099
500.000	28.996	0.099
500.100	43.044	0.100
500.200	24.410	0.099
500.300	13.068	0.099
500.400	2.004	0.099
500.500	27.627	0.099
500.600	29.581	0.099
500.700	10.202	0.099
500.800	26.355	0.099
500.900	11.582	0.099
501.000	27.131	0.099
501.100	32.404	0.099
501.200	27.927	0.099
501.300	19.546	0.100
501.400	16.889	0.099
501.500	29.908	0.100
501.600	32.450	0.100
501.700	35.126	0.099
501.800	25.504	0.099
501.900	28.385	0.099
502.000	20.383	0.099
502.100	25.729	0.099
502.200	32.861	0.099
502.300	36.165	0.099
502.400	20.079	0.099
502.500	39.795	0.099
502.600	24.818	0.099
502.700	18.253	0.099
502.800	32.505	0.099
502.900	20.826	0.099
503.000	22.071	0.099
503.100	27.430	0.099
503.200	25.054	0.099
503.300	29.373	0.099
503.400	10.825	0.099
503.500	32.060	0.099
503.600	42.041	0.100
503.700	28.001	0.099
503.800	31.530	0.099
503.900	7.531	0.099
504.000	27.974	0.099
504.100	28.762	0.099
504.200	15.465	0.099
504.300	35.752	0.099
504.400	23.974	0.099
504.500	40.619	0.099
504.600	19.597	0.099
504.700	2.748	0.099
504.800	37.070	0.099
504.900	38.438	0.099
505.000	23.573	0.099
505.100	18.037	0.099
505.200	25.749	0.099
505.300	11.372	0.099
505.400	39.736	0.099
505.500	24.544	0.099
505.600	17.070	0.099
505.700	17.825	0.099
505.800	36.481	0.099
505.900	29.099	0.099
506.000	24.086	0.099
506.100	23.442	0.099
506.200	20.098	0.099
506.300	27.460	0.099
506.400	25.238	0.099
506.500	34.135	0.099
506.600	17.586	0.099
506.700	20.584	0.099
506.800	32.207	0.099
506.900	23.750	0.099
507.000	18.300	0.099
507.100	42.805	0.099
507.200	29.203	0.099
507.300	29.174	0.099
507.400	15.065	0.099
507.500	26.244	0.099
507.600	40.210	0.099
507.700	8.463	0.099
507.800	24.505	0.099
507.900	29.164	0.099
508.000	27.872	0.100
508.100	25.606	0.099
508.200	26.706	0.100
508.300	26.109	0.100
508.400	18.604	0.100
508.500	11.573	0.099
508.600	30.004	0.099
508.700	16.146	0.099
508.800	40.736	0.100
508.900	24.437	0.099
509.000	38.597	0.100
509.100	15.291	0.099
509.200	32.509	0.099
509.300	33.130	0.100
509.400	26.779	0.099
509.500	27.239	0.099
509.600	15.763	0.100
509.700	10.862	0.099
509.800	27.229	0.099
509.900	19.585	0.099
510.000	26.903	0.099
510.100	19.549	0.099
510.200	33.118	0.099
510.300	11.904	0.099
510.400	30.444	0.100
510.500	29.361	0.099
510.600	30.721	0.100
510.700	27.329	0.100
510.800	24.882	0.100
510.900	17.734	0.099
511.000	17.620	0.099
511.100	30.997	0.099
511.200	18.269	0.100
511.300	19.146	0.099
511.400	36.708	0.100
511.500	26.878	0.100
511.600	29.727	0.100
511.700	22.844	0.099
511.800	25.750	0.100
511.900	21.070	0.099
512.000	30.414	0.099
512.100	31.507	0.100
512.200	17.069	0.099
512.300	20.957	0.100
512.400	32.041	0.099
512.500	22.642	0.100
512.600	29.824	0.099
512.700	20.324	0.099
512.800	28.349	0.100
512.900	17.745	0.100
513.000	24.734	0.099
513.100	18.499	0.099
513.200	33.084	0.099
513.300	26.993	0.099
513.400	19.979	0.099
513.500	14.924	0.099
513.600	19.515	0.099
513.700	25.691	0.099
513.800	17.225	0.099
513.900	44.383	0.099
514.000	26.142	0.099
514.100	23.366	0.099
514.200	35.102	0.099
514.300	29.590	0.100
514.400	31.501	0.099
514.500	7.849	0.099
514.600	37.382	0.099
514.700	37.348	0.100
514.800	26.695	0.099
514.900	32.483	0.099
515.000	17.822	0.099
515.100	24.970	0.099
515.200	20.373	0.099
515.300	27.553	0.100
515.400	11.861	0.099
515.500	29.804	0.099
515.600	29.039	0.099
515.700	24.696	0.099
515.800	25.000	0.100
515.900	16.365	0.099
516.000	29.177	0.099
516.100	19.445	0.099
516.200	21.967	0.099
516.300	33.952	0.099
516.400	30.394	0.099
516.500	21.776	0.099
516.600	27.009	0.099
516.700	29.918	0.099
516.800	29.188	0.099
516.900	16.890	0.099
517.000	26.750	0.099
517.100	32.343	0.100
517.200	22.257	0.099
517.300	22.464	0.099
517.400	18.052	0.099
517.500	30.222	0.099
517.600	24.690	0.099
517.700	14.555	0.099
517.800	33.207	0.099
517.900	17.207	0.099
518.000	29.180	0.099
518.100	10.451	0.099
518.200	34.164	0.099
518.300	35.078	0.099
518.400	22.724	0.099
518.500	25.819	0.099
518.600	22.027	0.099
518.700	21.698	0.099
518.800	32.855	0.099
518.900	30.689	0.099
519.000	29.085	0.099
519.100	27.511	0.099
519.200	36.030	0.099
519.300	8.467	0.100
519.400	23.534	0.099
519.500	27.058	0.100
519.600	16.288	0.099
519.700	22.051	0.099
519.800	17.724	0.099
519.900	17.873	0.099
520.000	32.251	0.100
520.100	25.026	0.099
520.200	24.014	0.099
520.300	28.272	0.099
520.400	35.445	0.099
520.500	27.649	0.099
520.600	47.500	0.099
520.700	23.977	0.099
520.800	22.831	0.099
520.900	27.879	0.099
521.000	13.473	0.099
521.100	31.517	0.099
521.200	23.739	0.099
521.300	29.122	0.099
521.400	6.904	0.099
521.500	35.896	0.099
521.600	30.231	0.100
521.700	39.237	0.100
521.800	20.254	0.099
521.900	38.036	0.100
522.000	27.419	0.099
522.100	13.937	0.100
522.200	21.547	0.099
522.300	15.284	0.099
522.400	29.866	0.099
522.500	23.671	0.099
522.600	31.070	0.099
522.700	25.346	0.099
522.800	25.433	0.099
522.900	28.145	0.099
523.000	31.402	0.099
523.100	22.361	0.099
523.200	17.607	0.099
523.300	25.257	0.099
523.400	22.857	0.099
523.500	31.011	0.099
523.600	24.388	0.099
523.700	31.162	0.100
523.800	20.757	0.099
523.900	6.685	0.099
524.000	39.088	0.099
524.100	30.299	0.099
524.200	15.424	0.099
524.300	38.474	0.099
524.400	21.179	0.099
524.500	19.418	0.099
524.600	37.078	0.099
524.700	33.245	0.100
524.800	28.360	0.099
524.900	18.122	0.099
525.000	40.073	0.099
525.100	7.558	0.099
525.200	26.851	0.099
525.300	27.072	0.099
525.400	33.303	0.100
525.500	25.296	0.099
525.600	10.372	0.099
525.700	29.703	0.099
525.800	23.842	0.099
525.900	32.969	0.099
526.000	19.847	0.099
526.100	23.806	0.099
526.200	9.254	0.099
526.300	40.717	0.099
526.400	19.509	0.099
526.500	18.924	0.099
526.600	27.032	0.099
526.700	20.673	0.099
526.800	31.268	0.099
526.900	22.508	0.099
527.000	13.918	0.099
527.100	23.336	0.099
527.200	33.301	0.099
527.300	16.508	0.099
527.400	20.011	0.099
527.500	26.398	0.099
527.600	31.979	0.099
527.700	23.068	0.100
527.800	17.122	0.099
527.900	21.206	0.099
528.000	24.543	0.100
528.100	16.402	0.099
528.200	19.702	0.099
528.300	21.896	0.099
528.400	17.461	0.099
528.500	22.980	0.099
528.600	19.694	0.099
528.700	27.864	0.099
528.800	27.671	0.099
528.900	34.130	0.099
529.000	4.666	0.099
529.100	21.130	0.099
529.200	29.110	0.099
529.300	36.573	0.099
529.400	20.666	0.099
529.500	19.958	0.099
529.600	30.275	0.099
529.700	33.469	0.099
529.800	18.224	0.099
529.900	23.530	0.099
530.000	24.433	0.099
530.100	34.418	0.099
530.200	20.245	0.099
530.300	31.959	0.099
530.400	17.067	0.099
530.500	29.361	0.099
530.600	29.120	0.099
530.700	23.975	0.099
530.800	31.052	0.099
530.900	17.364	0.099
531.000	28.889	0.099
531.100	22.878	0.100
531.200	23.515	0.099
531.300	35.244	0.099
531.400	30.066	0.099
531.500	21.123	0.099
531.600	18.872	0.100
531.700	41.364	0.099
531.800	39.763	0.100
531.900	10.006	0.099
532.000	31.223	0.100
532.100	25.063	0.099
532.200	23.039	0.100
532.300	22.656	0.099
532.400	27.565	0.100
532.500	9.528	0.099
532.600	21.064	0.100
532.700	21.006	0.099
532.800	27.942	0.099
532.900	-0.160	0.099
533.000	38.774	0.099
533.100	20.861	0.099
533.200	22.466	0.100
533.300	6.925	0.100
533.400	31.622	0.099
533.500	20.623	0.099
533.600	26.580	0.099
533.700	23.196	0.100
533.800	28.801	0.100
533.900	29.342	0.099
534.000	33.582	0.099
534.100	38.948	0.100
534.200	34.241	0.099
534.300	12.709	0.099
534.400	25.752	0.100
534.500	28.938	0.099
534.600	20.532	0.099
534.700	14.999	0.099
534.800	35.644	0.100
534.900	22.742	0.099
535.000	31.771	0.100
535.100	7.223	0.099
535.200	31.644	0.099
535.300	26.341	0.099
535.400	24.659	0.099
535.500	22.471	0.099
535.600	32.620	0.099
535.700	19.459	0.099
535.800	17.291	0.100
535.900	18.653	0.099
536.000	23.658	0.100
536.100	22.808	0.099
536.200	31.236	0.099
536.300	29.244	0.100
536.400	23.560	0.100
536.500	22.516	0.099
536.600	34.186	0.100
536.700	29.822	0.099
536.800	21.911	0.100
536.900	27.153	0.100
537.000	22.154	0.099
537.100	13.789	0.100
537.200	34.008	0.099
537.300	25.566	0.099
537.400	34.322	0.099
537.500	29.239	0.099
537.600	6.705	0.099
537.700	21.557	0.099
537.800	24.625	0.099
537.900	35.330	0.100
538.000	18.066	0.099
538.100	31.320	0.099
538.200	9.541	0.100
538.300	21.018	0.100
538.400	37.901	0.099
538.500	13.312	0.099
538.600	16.820	0.099
538.700	14.480	0.099
538.800	26.148	0.099
538.900	21.011	0.100
539.000	32.891	0.099
539.100	44.192	0.100
539.200	18.502	0.099
539.300	20.973	0.099
539.400	26.558	0.100
539.500	32.838	0.099
539.600	13.485	0.100
539.700	24.078	0.099
539.800	16.474	0.099
539.900	32.578	0.099
540.000	18.245	0.099
540.100	27.356	0.099
540.200	22.801	0.099
540.300	36.892	0.099
540.400	36.409	0.099
540.500	12.557	0.099
540.600	14.950	0.099
540.700	25.253	0.099
540.800	22.794	0.099
540.900	34.360	0.100
541.000	14.903	0.099
541.100	35.622	0.099
541.200	26.418	0.099
541.300	22.879	0.099
541.400	19.481	0.100
541.500	26.321	0.099
541.600	30.096	0.100
541.700	20.956	0.099
541.800	18.243	0.099
541.900	7.342	0.099
542.000	37.748	0.099
542.100	24.928	0.099
542.200	24.612	0.099
542.300	32.115	0.099
542.400	28.647	0.099
542.500	23.628	0.099
542.600	9.392	0.099
542.700	32.220	0.100
542.800	15.197	0.100
542.900	23.463	0.100
543.000	32.181	0.100
543.100	6.272	0.099
543.200	7.581	0.099
543.300	31.826	0.099
543.400	22.847	0.099
543.500	23.155	0.099
543.600	2.293	0.099
543.700	23.618	0.099
543.800	26.278	0.100
543.900	16.707	0.099
544.000	35.774	0.100
544.100	24.278	0.100
544.200	15.673	0.099
544.300	24.221	0.099
544.400	13.677	0.099
544.500	31.660	0.099
544.600	6.711	0.099
544.700	20.684	0.099
544.800	30.298	0.099
544.900	3.778	0.099
545.000	33.718	0.099
545.100	24.691	0.099
545.200	24.973	0.099
545.300	22.092	0.100
545.400	15.606	0.099
545.500	14.018	0.100
545.600	28.213	0.099
545.700	29.664	0.099
545.800	4.973	0.099
545.900	20.893	0.099
546.000	32.745	0.099
546.100	20.907	0.099
546.200	39.289	0.099
546.300	34.424	0.100
546.400	18.296	0.099
546.500	16.505	0.099
546.600	13.152	0.099
546.700	25.767	0.099
546.800	28.410	0.099
546.900	27.936	0.099
547.000	13.298	0.099
547.100	36.047	0.099
547.200	18.861	0.099
547.300	14.565	0.099
547.400	7.712	0.100
547.500	36.532	0.099
547.600	19.809	0.099
547.700	22.138	0.099
547.800	9.795	0.099
547.900	22.362	0.099
548.000	22.274	0.099
548.100	32.044	0.099
548.200	12.610	0.099
548.300	25.599	0.099
548.400	32.364	0.099
548.500	27.331	0.099
548.600	22.347	0.099
548.700	20.376	0.099
548.800	20.850	0.099
548.900	19.149	0.099
549.000	21.271	0.099
549.100	21.665	0.099
549.200	26.040	0.100
549.300	25.088	0.099
549.400	20.886	0.099
549.500	26.608	0.099
549.600	26.571	0.099
549.700	28.967	0.099
549.800	19.197	0.100
549.900	24.079	0.099
550.000	15.617	0.100
550.100	28.495	0.100
550.200	34.441	0.099
550.300	-12.664	0.100
550.400	33.923	0.099
550.500	31.465	0.100
550.600	12.456	0.099
550.700	28.577	0.100
550.800	19.319	0.099
550.900	26.402	0.100
551.000	4.914	0.099
551.100	23.445	0.099
551.200	27.257	0.099
551.300	20.087	0.099
551.400	24.691	0.099
551.500	12.395	0.100
551.600	27.141	0.099
551.700	17.290	0.099
551.800	38.625	0.099
551.900	16.403	0.100
552.000	17.062	0.100
552.100	22.890	0.100
552.200	17.503	0.099
552.300	24.979	0.100
552.400	37.686	0.099
552.500	19.514	0.099
552.600	27.708	0.100
552.700	30.657	0.099
552.800	25.468	0.099
552.900	19.194	0.099
553.000	15.719	0.099
553.100	28.314	0.100
553.200	26.806	0.099
553.300	29.348	0.100
553.400	14.556	0.099
553.500	20.421	0.099
553.600	20.946	0.099
553.700	30.743	0.100
553.800	21.091	0.099
553.900	28.937	0.099
554.000	18.082	0.100
554.100	28.855	0.099
554.200	22.870	0.100
554.300	30.275	0.099
554.400	24.489	0.099
554.500	17.803	0.100
554.600	17.149	0.100
554.700	33.402	0.099
554.800	22.729	0.099
554.900	25.694	0.099
555.000	15.557	0.099
555.100	20.899	0.099
555.200	27.495	0.099
555.300	19.772	0.099
555.400	33.363	0.099
555.500	18.310	0.099
555.600	18.296	0.099
555.700	19.297	0.099
555.800	28.639	0.099
555.900	30.155	0.099
556.000	27.390	0.099
556.100	28.601	0.099
556.200	20.451	0.100
556.300	18.622	0.099
556.400	33.200	0.100
556.500	18.786	0.100
556.600	22.423	0.100
556.700	17.517	0.099
556.800	15.249	0.100
556.900	14.805	0.099
557.000	22.263	0.100
557.100	34.110	0.099
557.200	13.974	0.100
557.300	30.265	0.100
557.400	22.169	0.099
557.500	22.205	0.100
557.600	18.712	0.100
557.700	17.523	0.099
557.800	29.500	0.099
557.900	21.684	0.100
558.000	21.407	0.099
558.100	19.476	0.099
558.200	19.143	0.100
558.300	31.028	0.100
558.400	32.668	0.100
558.500	30.417	0.099
558.600	24.043	0.100
558.700	18.859	0.100
558.800	25.675	0.099
558.900	21.141	0.100
559.000	14.297	0.100
559.100	21.780	0.100
559.200	16.312	0.100
559.300	8.197	0.099
559.400	29.837	0.100
559.500	31.810	0.099
559.600	26.581	0.100
559.700	15.497	0.100
559.800	17.772	0.100
559.900	26.908	0.100
560.000	23.350	0.100
560.100	28.475	0.100
560.200	16.511	0.100
560.300	38.913	0.100
560.400	24.725	0.100
560.500	18.891	0.100
560.600	29.094	0.100
560.700	26.655	0.100
560.800	20.228	0.100
560.900	30.606	0.100
561.000	19.585	0.100
561.100	19.601	0.100
561.200	22.495	0.100
561.300	23.470	0.099
561.400	28.716	0.100
561.500	18.246	0.100
561.600	15.677	0.100
561.700	23.693	0.100
561.800	31.393	0.100
561.900	4.363	0.099
562.000	27.704	0.100
562.100	25.048	0.100
562.200	17.707	0.100
562.300	36.463	0.100
562.400	22.162	0.100
562.500	36.118	0.100
562.600	19.271	0.100
562.700	23.740	0.100
562.800	31.018	0.099
562.900	17.131	0.100
563.000	17.060	0.100
563.100	28.421	0.100
563.200	19.458	0.099
563.300	30.594	0.100
563.400	21.794	0.100
563.500	21.268	0.100
563.600	31.406	0.100
563.700	13.076	0.100
563.800	24.077	0.100
563.900	36.168	0.100
564.000	14.166	0.100
564.100	29.029	0.099
564.200	21.717	0.100
564.300	24.353	0.100
564.400	14.732	0.100
564.500	19.357	0.100
564.600	25.945	0.099
564.700	23.716	0.100
564.800	23.124	0.100
564.900	23.676	0.100
565.000	23.190	0.100
565.100	25.272	0.100
565.200	29.502	0.100
565.300	16.912	0.100
565.400	24.390	0.099
565.500	21.370	0.099
565.600	26.906	0.100
565.700	6.129	0.099
565.800	28.482	0.100
565.900	26.815	0.100
566.000	20.372	0.099
566.100	19.917	0.100
566.200	26.015	0.099
566.300	33.436	0.100
566.400	22.310	0.100
566.500	33.248	0.100
566.600	17.614	0.100
566.700	12.205	0.099
566.800	30.035	0.099
566.900	19.208	0.100
567.000	31.013	0.100
567.100	17.682	0.100
567.200	21.386	0.099
567.300	28.354	0.099
567.400	23.832	0.099
567.500	15.903	0.099
567.600	20.210	0.100
567.700	25.013	0.099
567.800	19.780	0.100
567.900	26.101	0.099
568.000	0.266	0.100
568.100	27.872	0.099
568.200	33.899	0.100
568.300	19.195	0.100
568.400	28.937	0.099
568.500	16.028	0.100
568.600	22.569	0.100
568.700	20.802	0.099
568.800	29.608	0.099
568.900	23.465	0.100
569.000	20.097	0.100
569.100	15.406	0.100
569.200	38.374	0.099
569.300	12.864	0.100
569.400	26.918	0.099
569.500	34.688	0.100
569.600	24.537	0.100
569.700	25.296	0.100
569.800	21.837	0.100
569.900	31.166	0.100
570.000	47.635	0.100
570.100	8.630	0.100
570.200	27.256	0.100
570.300	22.858	0.099
570.400	15.330	0.100
570.500	10.084	0.099
570.600	29.859	0.100
570.700	26.457	0.100
570.800	14.998	0.100
570.900	24.163	0.099
571.000	21.941	0.100
571.100	39.036	0.100
571.200	21.338	0.100
571.300	21.313	0.100
571.400	13.974	0.100
571.500	27.825	0.100
571.600	38.996	0.100
571.700	13.563	0.100
571.800	26.871	0.099
571.900	23.059	0.100
572.000	25.465	0.100
572.100	13.879	0.099
572.200	33.001	0.100
572.300	15.209	0.100
572.400	28.590	0.099
572.500	14.828	0.100
572.600	9.079	0.099
572.700	32.598	0.100
572.800	29.247	0.100
572.900	13.826	0.099
573.000	26.419	0.100
573.100	29.731	0.100
573.200	18.010	0.100
573.300	16.510	0.100
573.400	17.933	0.099
573.500	33.939	0.100
573.600	44.520	0.100
573.700	20.780	0.100
573.800	20.918	0.100
573.900	27.524	0.099
574.000	18.174	0.099
574.100	22.338	0.100
574.200	36.497	0.100
574.300	27.264	0.100
574.400	32.281	0.100
574.500	16.663	0.100
574.600	30.859	0.100
574.700	28.797	0.099
574.800	29.206	0.100
574.900	25.744	0.100
575.000	24.580	0.100
575.100	23.063	0.099
575.200	23.821	0.100
575.300	16.510	0.100
575.400	24.889	0.100
575.500	33.132	0.100
575.600	28.090	0.100
575.700	23.552	0.100
575.800	21.036	0.100
575.900	12.020	0.100
576.000	32.029	0.099
576.100	26.016	0.100
576.200	28.677	0.100
576.300	21.391	0.100
576.400	22.511	0.100
576.500	23.023	0.100
576.600	26.418	0.100
576.700	24.705	0.100
576.800	15.216	0.100
576.900	18.848	0.099
577.000	34.095	0.100
577.100	19.684	0.099
577.200	30.508	0.100
577.300	13.901	0.100
577.400	26.233	0.099
577.500	27.417	0.100
577.600	25.363	0.100
577.700	20.581	0.100
577.800	23.562	0.099
577.900	9.471	0.100
578.000	30.690	0.100
578.100	23.375	0.099
578.200	20.606	0.100
578.300	25.014	0.100
578.400	27.238	0.100
578.500	15.642	0.100
578.600	18.517	0.099
578.700	30.441	0.100
578.800	11.567	0.100
578.900	23.234	0.100
579.000	21.425	0.099
579.100	36.197	0.100
579.200	26.797	0.100
579.300	25.707	0.100
579.400	29.401	0.100
579.500	18.180	0.100
579.600	20.313	0.100
579.700	32.336	0.100
579.800	31.040	0.100
579.900	25.446	0.100
580.000	23.963	0.100
580.100	13.842	0.099
580.200	19.323	0.100
580.300	40.095	0.100
580.400	29.618	0.100
580.500	15.856	0.099
580.600	8.983	0.100
580.700	35.650	0.100
580.800	28.787	0.100
580.900	15.205	0.100
581.000	24.041	0.099
581.100	24.411	0.099
581.200	32.718	0.100
581.300	31.209	0.099
581.400	17.252	0.100
581.500	30.778	0.100
581.600	14.111	0.100
581.700	25.310	0.100
581.800	25.073	0.099
581.900	31.054	0.099
582.000	25.419	0.100
582.100	28.893	0.100
582.200	25.857	0.099
582.300	23.540	0.100
582.400	25.814	0.099
582.500	23.403	0.099
582.600	16.653	0.100
582.700	16.323	0.100
582.800	22.263	0.100
582.900	27.544	0.100
583.000	22.465	0.099
583.100	39.997	0.099
583.200	25.279	0.099
583.300	18.065	0.099
583.400	19.750	0.100
583.500	17.133	0.100
583.600	23.590	0.099
583.700	30.696	0.099
583.800	11.479	0.099
583.900	32.673	0.100
584.000	24.130	0.099
584.100	27.831	0.100
584.200	16.797	0.100
584.300	23.833	0.099
584.400	11.565	0.099
584.500	25.897	0.099
584.600	26.691	0.100
584.700	26.634	0.100
584.800	21.281	0.100
584.900	19.431	0.100
585.000	33.921	0.100
585.100	19.043	0.100
585.200	23.567	0.100
585.300	18.636	0.099
585.400	26.514	0.099
585.500	33.627	0.099
585.600	24.565	0.099
585.700	26.347	0.100
585.800	25.055	0.100
585.900	25.589	0.099
586.000	26.999	0.100
586.100	28.747	0.100
586.200	29.887	0.100
586.300	25.192	0.100
586.400	4.672	0.100
586.500	29.802	0.100
586.600	14.864	0.099
586.700	10.887	0.099
586.800	30.463	0.100
586.900	28.662	0.099
587.000	19.718	0.099
587.100	12.716	0.099
587.200	31.203	0.099
587.300	19.424	0.100
587.400	34.627	0.099
587.500	21.512	0.100
587.600	19.485	0.100
587.700	22.001	0.100
587.800	22.887	0.099
587.900	16.295	0.100
588.000	16.092	0.100
588.100	18.889	0.100
588.200	20.382	0.100
588.300	10.709	0.100
588.400	31.905	0.099
588.500	17.978	0.099
588.600	27.429	0.100
588.700	8.642	0.100
588.800	34.569	0.100
588.900	17.914	0.099
589.000	30.544	0.100
589.100	25.452	0.099
589.200	30.485	0.100
589.300	15.350	0.099
589.400	28.925	0.100
589.500	17.476	0.100
589.600	22.129	0.099
589.700	28.453	0.099
589.800	28.677	0.100
589.900	25.406	0.100
590.000	13.457	0.099
590.100	21.723	0.099
590.200	11.390	0.100
590.300	23.809	0.100
590.400	38.002	0.100
590.500	32.071	0.100
590.600	33.387	0.100
590.700	23.257	0.099
590.800	19.679	0.100
590.900	22.835	0.099
591.000	33.120	0.100
591.100	28.996	0.100
591.200	19.049	0.099
591.300	30.222	0.100
591.400	25.135	0.100
591.500	22.553	0.100
591.600	16.379	0.100
591.700	23.953	0.100
591.800	9.272	0.099
591.900	23.314	0.100
592.000	30.033	0.100
592.100	15.057	0.099
592.200	15.057	0.099
592.300	25.497	0.099
592.400	39.319	0.100
592.500	9.386	0.100
592.600	11.687	0.099
592.700	35.727	0.100
592.800	23.819	0.099
592.900	28.036	0.099
593.000	20.298	0.100
593.100	36.222	0.100
593.200	41.757	0.100
593.300	24.314	0.099
593.400	8.131	0.099
593.500	24.345	0.100
593.600	24.385	0.099
593.700	24.924	0.099
593.800	27.284	0.100
593.900	28.829	0.099
594.000	15.342	0.099
594.100	27.048	0.099
594.200	27.594	0.099
594.300	20.203	0.099
594.400	30.024	0.099
594.500	17.486	0.099
594.600	12.477	0.100
594.700	11.588	0.099
594.800	38.050	0.099
594.900	24.900	0.099
595.000	14.026	0.099
595.100	31.059	0.099
595.200	24.506	0.099
595.300	33.248	0.100
595.400	11.908	0.099
595.500	6.821	0.099
595.600	24.748	0.100
595.700	13.772	0.099
595.800	28.574	0.099
595.900	27.699	0.099
596.000	10.927	0.099
596.100	19.432	0.099
596.200	28.985	0.099
596.300	23.998	0.100
596.400	29.655	0.099
596.500	15.325	0.100
596.600	42.043	0.099
596.700	16.210	0.100
596.800	27.663	0.099
596.900	30.514	0.099
597.000	25.240	0.100
597.100	16.437	0.100
597.200	27.191	0.099
597.300	15.987	0.100
597.400	27.441	0.099
597.500	26.042	0.099
597.600	23.004	0.100
597.700	27.301	0.100
597.800	16.706	0.100
597.900	28.245	0.099
598.000	27.237	0.099
598.100	23.054	0.099
598.200	26.439	0.099
598.300	21.332	0.099
598.400	29.156	0.100
598.500	20.494	0.099
598.600	24.370	0.099
598.700	34.323	0.100
598.800	15.420	0.100
598.900	18.530	0.099
599.000	24.750	0.099
599.100	31.363	0.100
599.200	25.932	0.100
599.300	29.435	0.099
599.400	29.854	0.099
599.500	16.624	0.100
599.600	32.276	0.099
599.700	17.868	0.100
599.800	22.927	0.099
599.900	22.254	0.099
600.000	21.598	0.099
600.100	34.569	0.099
600.200	18.475	0.099
600.300	5.832	0.099
600.400	31.740	0.100
600.500	31.542	0.099
600.600	13.181	0.099
600.700	9.467	0.100
600.800	29.811	0.099
600.900	32.954	0.099
601.000	36.606	0.099
601.100	18.828	0.099
601.200	22.109	0.100
601.300	13.752	0.099
601.400	27.782	0.099
601.500	21.100	0.099
601.600	12.537	0.099
601.700	29.714	0.099
601.800	23.879	0.099
601.900	25.268	0.100
602.000	31.661	0.100
602.100	23.969	0.099
602.200	23.194	0.099
602.300	16.095	0.099
602.400	23.983	0.099
602.500	35.687	0.100
602.600	23.188	0.100
602.700	19.902	0.099
602.800	26.568	0.099
602.900	27.065	0.099
603.000	27.718	0.099
603.100	23.537	0.099
603.200	22.263	0.099
603.300	30.186	0.100
603.400	25.012	0.099
603.500	23.607	0.100
603.600	17.571	0.099
603.700	28.543	0.100
603.800	20.659	0.099
603.900	16.640	0.099
604.000	15.981	0.099
604.100	32.521	0.100
604.200	26.252	0.100
604.300	17.846	0.099
604.400	11.254	0.099
604.500	26.106	0.100
604.600	31.038	0.099
604.700	21.315	0.099
604.800	28.719	0.100
604.900	13.857	0.099
605.000	31.040	0.100
605.100	30.470	0.099
605.200	23.267	0.099
605.300	28.590	0.099
605.400	19.315	0.099
605.500	32.818	0.099
605.600	17.690	0.099
605.700	36.981	0.099
605.800	22.275	0.100
605.900	19.815	0.099
606.000	37.518	0.099
606.100	40.594	0.100
606.200	9.811	0.099
606.300	26.909	0.099
606.400	32.512	0.099
606.500	23.617	0.099
606.600	20.850	0.099
606.700	26.011	0.099
606.800	29.299	0.100
606.900	29.458	0.099
607.000	27.547	0.100
607.100	26.833	0.099
607.200	26.092	0.100
607.300	19.579	0.100
607.400	26.836	0.100
607.500	30.306	0.099
607.600	30.863	0.099
607.700	18.063	0.099
607.800	16.663	0.099
607.900	29.992	0.100
608.000	23.556	0.099
608.100	21.396	0.099
608.200	17.064	0.100
608.300	22.359	0.100
608.400	32.121	0.099
608.500	16.785	0.100
608.600	26.217	0.099
608.700	40.405	0.099
608.800	19.890	0.099
608.900	21.557	0.100
609.000	27.284	0.099
609.100	13.829	0.099
609.200	26.591	0.100
609.300	15.027	0.099
609.400	25.877	0.099
609.500	32.196	0.099
609.600	27.404	0.100
609.700	28.027	0.099
609.800	25.288	0.099
609.900	26.197	0.100
610.000	17.695	0.100
610.100	23.253	0.100
610.200	23.102	0.100
610.300	25.259	0.099
610.400	21.235	0.099
610.500	19.515	0.099
610.600	16.251	0.100
610.700	27.773	0.099
610.800	23.925	0.099
610.900	32.966	0.099
611.000	21.120	0.100
611.100	22.389	0.099
611.200	31.280	0.099
611.300	14.905	0.099
611.400	22.020	0.100
611.500	24.437	0.099
611.600	35.887	0.100
611.700	27.733	0.100
611.800	17.163	0.099
611.900	26.245	0.100
612.000	18.924	0.099
612.100	13.076	0.099
612.200	33.944	0.100
612.300	22.792	0.100
612.400	17.429	0.099
612.500	3.929	0.100
612.600	31.747	0.099
612.700	30.193	0.099
612.800	13.434	0.099
612.900	30.947	0.099
613.000	28.076	0.100
613.100	16.786	0.099
613.200	31.964	0.099
613.300	20.839	0.099
613.400	34.283	0.099
613.500	18.458	0.100
613.600	23.631	0.100
613.700	26.027	0.100
613.800	27.103	0.100
613.900	11.906	0.100
614.000	16.203	0.099
614.100	30.828	0.099
614.200	27.246	0.099
614.300	25.973	0.099
614.400	28.017	0.099
614.500	20.953	0.099
614.600	18.351	0.099
614.700	28.051	0.100
614.800	27.260	0.100
614.900	23.869	0.100
615.000	10.140	0.100
615.100	28.152	0.099
615.200	13.875	0.099
615.300	26.567	0.100
615.400	21.415	0.100
615.500	11.501	0.099
615.600	24.581	0.100
615.700	28.756	0.100
615.800	33.033	0.099
615.900	24.035	0.099
616.000	37.150	0.099
616.100	30.049	0.100
616.200	23.480	0.100
616.300	19.874	0.100
616.400	21.137	0.100
616.500	23.541	0.100
616.600	15.093	0.100
616.700	31.818	0.100
616.800	27.938	0.100
616.900	28.859	0.100
617.000	26.763	0.100
617.100	6.514	0.099
617.200	15.352	0.099
617.300	24.819	0.100
617.400	18.421	0.099
617.500	24.840	0.100
617.600	27.279	0.100
617.700	23.214	0.100
617.800	26.408	0.100
617.900	19.068	0.099
618.000	16.477	0.099
618.100	35.397	0.100
618.200	29.682	0.100
618.300	22.347	0.100
618.400	26.856	0.099
618.500	34.142	0.100
618.600	28.542	0.100
618.700	25.492	0.100
618.800	25.914	0.100
618.900	19.315	0.100
619.000	17.539	0.100
619.100	29.409	0.099
619.200	31.585	0.100
619.300	20.334	0.100
619.400	17.854	0.099
619.500	24.457	0.099
619.600	34.962	0.100
619.700	15.530	0.100
619.800	36.981	0.100
619.900	20.059	0.100
620.000	38.227	0.100
620.100	9.796	0.100
620.200	41.628	0.100
620.300	27.660	0.100
620.400	14.628	0.100
620.500	30.282	0.100
620.600	34.363	0.100
620.700	32.946	0.100
620.800	32.033	0.100
620.900	32.411	0.100
621.000	22.030	0.100
621.100	25.457	0.100
621.200	21.871	0.100
621.300	21.063	0.100
621.400	13.573	0.100
621.500	27.475	0.100
621.600	20.663	0.100
621.700	24.741	0.100
621.800	36.315	0.100
621.900	14.693	0.100
622.000	18.626	0.100
622.100	23.651	0.100
622.200	30.337	0.099
622.300	30.401	0.099
622.400	26.372	0.099
622.500	12.180	0.100
622.600	29.682	0.100
622.700	19.853	0.100
622.800	11.225	0.099
622.900	28.597	0.100
623.000	20.917	0.100
623.100	27.327	0.100
623.200	21.041	0.100
623.300	25.102	0.100
623.400	13.034	0.100
623.500	40.958	0.100
623.600	23.269	0.099
623.700	35.248	0.100
623.800	28.609	0.100
623.900	24.495	0.099
624.000	30.249	0.100
624.100	30.455	0.100
624.200	29.562	0.100
624.300	33.049	0.100
624.400	29.084	0.099
624.500	30.118	0.100
624.600	35.405	0.100
624.700	13.508	0.100
624.800	29.479	0.100
624.900	8.885	0.100
625.000	28.666	0.100
625.100	17.442	0.100
625.200	18.932	0.100
625.300	22.807	0.100
625.400	24.837	0.100
625.500	27.050	0.100
625.600	20.861	0.100
625.700	36.407	0.100
625.800	16.043	0.100
625.900	32.830	0.100
626.000	8.495	0.100
626.100	36.717	0.100
626.200	19.120	0.100
626.300	20.489	0.099
626.400	33.378	0.100
626.500	22.632	0.100
626.600	11.052	0.099
626.700	52.252	0.100
626.800	24.830	0.100
626.900	23.356	0.100
627.000	29.784	0.100
627.100	26.306	0.099
627.200	23.829	0.099
627.300	39.162	0.100
627.400	12.161	0.100
627.500	28.714	0.100
627.600	34.724	0.100
627.700	9.633	0.100
627.800	24.304	0.100
627.900	30.827	0.100
628.000	35.393	0.100
628.100	18.445	0.100
628.200	29.289	0.100
628.300	12.404	0.099
628.400	27.172	0.100
628.500	34.482	0.100
628.600	33.045	0.099
628.700	24.621	0.100
628.800	22.150	0.099
628.900	22.245	0.100
629.000	20.798	0.100
629.100	33.022	0.100
629.200	18.013	0.100
629.300	33.351	0.100
629.400	29.903	0.100
629.500	19.920	0.100
629.600	36.519	0.100
629.700	27.675	0.100
629.800	28.127	0.100
629.900	26.437	0.100
630.000	21.911	0.100
630.100	18.940	0.100
630.200	39.540	0.100
630.300	10.656	0.100
630.400	11.082	0.099
630.500	25.469	0.100
630.600	33.752	0.100
630.700	9.417	0.100
630.800	43.848	0.100
630.900	20.209	0.100
631.000	43.402	0.099
631.100	25.812	0.100
631.200	20.598	0.100
631.300	24.897	0.100
631.400	23.744	0.100
631.500	22.958	0.100
631.600	29.244	0.099
631.700	23.715	0.099
631.800	31.845	0.100
631.900	31.084	0.100
632.000	16.211	0.100
632.100	25.564	0.100
632.200	28.918	0.100
632.300	41.398	0.100
632.400	26.734	0.100
632.500	17.046	0.100
632.600	37.743	0.100
632.700	30.049	0.100
632.800	31.714	0.100
632.900	31.449	0.100
633.000	35.842	0.100
633.100	22.713	0.099
633.200	31.996	0.100
633.300	8.595	0.100
633.400	35.206	0.100
633.500	29.127	0.100
633.600	10.986	0.100
633.700	31.607	0.100
633.800	28.302	0.100
633.900	19.444	0.100
634.000	20.421	0.100
634.100	32.700	0.100
634.200	38.667	0.100
634.300	23.005	0.100
634.400	18.144	0.100
634.500	25.250	0.100
634.600	30.673	0.100
634.700	6.016	0.100
634.800	21.813	0.100
634.900	27.321	0.100
635.000	19.875	0.100
635.100	32.476	0.100
635.200	26.077	0.100
635.300	25.172	0.100
635.400	23.302	0.100
635.500	26.320	0.100
635.600	25.676	0.100
635.700	17.346	0.099
635.800	16.728	0.100
635.900	38.400	0.100
636.000	34.844	0.100
636.100	38.478	0.100
636.200	27.907	0.100
636.300	16.639	0.100
636.400	31.355	0.100
636.500	20.911	0.100
636.600	21.591	0.100
636.700	36.627	0.100
636.800	30.177	0.100
636.900	25.993	0.100
637.000	31.057	0.100
637.100	40.987	0.100
637.200	19.891	0.100
637.300	31.176	0.100
637.400	21.522	0.100
637.500	23.801	0.100
637.600	20.217	0.100
637.700	35.928	0.100
637.800	28.589	0.100
637.900	25.917	0.100
638.000	32.969	0.100
638.100	21.350	0.099
638.200	33.208	0.100
638.300	29.276	0.099
638.400	12.640	0.099
638.500	24.967	0.100
638.600	21.050	0.100
638.700	32.808	0.100
638.800	23.064	0.099
638.900	24.648	0.099
639.000	35.811	0.100
639.100	27.296	0.100
639.200	18.093	0.100
639.300	19.919	0.100
639.400	24.944	0.100
639.500	23.393	0.100
639.600	35.528	0.100
639.700	38.273	0.100
639.800	26.360	0.100
639.900	34.986	0.100
640.000	28.775	0.100
640.100	27.923	0.100
640.200	10.966	0.100
640.300	28.794	0.100
640.400	22.659	0.100
640.500	16.493	0.100
640.600	22.438	0.100
640.700	28.262	0.100
640.800	27.382	0.100
640.900	19.961	0.100
641.000	11.815	0.100
641.100	27.258	0.100
641.200	18.687	0.099
641.300	45.516	0.100
641.400	26.116	0.100
641.500	35.953	0.100
641.600	24.161	0.100
641.700	17.729	0.100
641.800	23.362	0.100
641.900	27.219	0.100
642.000	29.046	0.100
642.100	31.085	0.100
642.200	24.599	0.100
642.300	14.911	0.100
642.400	33.549	0.100
642.500	35.771	0.100
642.600	30.749	0.100
642.700	26.402	0.100
642.800	36.918	0.100
642.900	21.069	0.100
643.000	28.416	0.100
643.100	23.908	0.100
643.200	24.891	0.099
643.300	26.704	0.100
643.400	23.612	0.100
643.500	24.971	0.100
643.600	36.312	0.100
643.700	24.985	0.100
643.800	27.036	0.100
643.900	29.385	0.100
644.000	36.799	0.100
644.100	35.432	0.100
644.200	30.163	0.100
644.300	19.009	0.100
644.400	15.703	0.100
644.500	20.957	0.099
644.600	22.596	0.100
644.700	24.880	0.100
644.800	23.488	0.100
644.900	30.692	0.100
645.000	31.700	0.100
645.100	22.805	0.100
645.200	34.630	0.100
645.300	33.919	0.099
645.400	14.491	0.099
645.500	40.113	0.100
645.600	39.177	0.100
645.700	8.030	0.100
645.800	19.921	0.100
645.900	34.746	0.100
646.000	27.687	0.100
646.100	25.642	0.100
646.200	28.545	0.100
646.300	28.165	0.100
646.400	30.231	0.099
646.500	27.224	0.100
646.600	18.042	0.100
646.700	28.566	0.100
646.800	30.507	0.100
646.900	24.406	0.100
647.000	27.580	0.100
647.100	27.751	0.100
647.200	36.137	0.100
647.300	32.874	0.100
647.400	25.424	0.100
647.500	32.767	0.100
647.600	24.786	0.100
647.700	19.686	0.100
647.800	40.323	0.100
647.900	22.918	0.100
648.000	29.596	0.100
648.100	34.478	0.100
648.200	26.220	0.100
648.300	27.641	0.100
648.400	17.397	0.100
648.500	26.501	0.100
648.600	23.751	0.100
648.700	24.498	0.100
648.800	26.590	0.100
648.900	36.242	0.100
649.000	25.071	0.100
649.100	24.938	0.100
649.200	25.511	0.100
649.300	23.751	0.100
649.400	23.494	0.100
649.500	25.430	0.100
649.600	29.071	0.100
649.700	27.507	0.100
649.800	20.246	0.100
649.900	17.532	0.099
650.000	28.377	0.100
650.100	23.843	0.100
650.200	20.781	0.100
650.300	30.714	0.100
650.400	40.963	0.100
650.500	30.493	0.100
650.600	28.354	0.099
650.700	10.603	0.100
650.800	34.252	0.100
650.900	25.962	0.100
651.000	28.640	0.099
651.100	42.667	0.100
651.200	43.372	0.100
651.300	27.920	0.099
651.400	17.099	0.099
651.500	32.618	0.100
651.600	25.138	0.100
651.700	22.565	0.100
651.800	33.380	0.100
651.900	28.107	0.100
652.000	14.742	0.100
652.100	25.971	0.100
652.200	37.060	0.100
652.300	24.621	0.100
652.400	32.015	0.100
652.500	30.987	0.100
652.600	32.542	0.100
652.700	13.101	0.100
652.800	26.018	0.100
652.900	38.531	0.100
653.000	24.993	0.100
653.100	41.048	0.100
653.200	14.475	0.100
653.300	22.257	0.100
653.400	23.019	0.100
653.500	25.567	0.099
653.600	23.806	0.100
653.700	33.583	0.100
653.800	19.319	0.100
653.900	30.805	0.100
654.000	28.670	0.099
654.100	24.576	0.100
654.200	19.968	0.099
654.300	27.956	0.100
654.400	23.527	0.100
654.500	24.760	0.100
654.600	38.844	0.100
654.700	17.126	0.100
654.800	30.880	0.100
654.900	28.114	0.100
655.000	49.883	0.100
655.100	35.845	0.100
655.200	31.609	0.100
655.300	28.204	0.100
655.400	30.493	0.100
655.500	36.210	0.100
655.600	19.467	0.100
655.700	30.499	0.100
655.800	23.407	0.100
655.900	32.969	0.100
656.000	22.695	0.100
656.100	16.462	0.100
656.200	28.653	0.100
656.300	25.922	0.099
656.400	21.581	0.100
656.500	20.042	0.100
656.600	40.085	0.100
656.700	31.626	0.100
656.800	16.914	0.100
656.900	45.708	0.100
657.000	29.240	0.100
657.100	18.788	0.100
657.200	16.370	0.100
657.300	26.379	0.100
657.400	29.920	0.100
657.500	28.222	0.099
657.600	27.914	0.100
657.700	25.648	0.099
657.800	24.259	0.099
657.900	21.244	0.099
658.000	25.369	0.100
658.100	37.897	0.100
658.200	21.935	0.100
658.300	34.741	0.100
658.400	12.720	0.100
658.500	45.675	0.100
658.600	27.292	0.100
658.700	31.550	0.100
658.800	37.330	0.100
658.900	22.718	0.100
659.000	19.842	0.100
659.100	18.992	0.100
659.200	25.956	0.099
659.300	30.306	0.100
659.400	19.933	0.100
659.500	35.446	0.100
659.600	18.255	0.100
659.700	25.152	0.100
659.800	30.216	0.100
659.900	39.593	0.100
660.000	28.109	0.100
660.100	16.198	0.100
660.200	31.192	0.100
660.300	35.396	0.100
660.400	13.444	0.100
660.500	24.938	0.100
660.600	47.995	0.100
660.700	30.113	0.100
660.800	21.336	0.100
660.900	23.327	0.100
661.000	27.484	0.099
661.100	28.306	0.100
661.200	28.586	0.100
661.300	22.291	0.100
661.400	32.959	0.100
661.500	16.026	0.100
661.600	29.920	0.100
661.700	23.076	0.100
661.800	20.098	0.100
661.900	22.228	0.100
662.000	22.148	0.100
662.100	29.548	0.100
662.200	28.295	0.100
662.300	35.236	0.100
662.400	31.537	0.100
662.500	24.516	0.100
662.600	12.435	0.099
662.700	30.162	0.100
662.800	19.886	0.100
662.900	34.687	0.100
663.000	30.401	0.100
663.100	31.049	0.100
663.200	31.573	0.100
663.300	28.038	0.100
663.400	14.779	0.100
663.500	28.848	0.100
663.600	34.663	0.100
663.700	21.196	0.100
663.800	25.617	0.100
663.900	34.314	0.100
664.000	25.735	0.100
664.100	33.101	0.100
664.200	12.797	0.100
664.300	36.209	0.100
664.400	20.289	0.100
664.500	15.609	0.099
664.600	32.226	0.099
664.700	25.477	0.100
664.800	32.890	0.100
664.900	33.228	0.100
665.000	15.521	0.100
665.100	25.295	0.100
665.200	24.953	0.099
665.300	29.193	0.100
665.400	21.903	0.100
665.500	27.694	0.100
665.600	25.211	0.100
665.700	25.820	0.099
665.800	29.847	0.100
665.900	33.096	0.100
666.000	24.676	0.100
666.100	20.734	0.100
666.200	33.104	0.100
666.300	11.733	0.100
666.400	32.828	0.100
666.500	5.756	0.100
666.600	42.658	0.099
666.700	36.527	0.100
666.800	20.597	0.100
666.900	20.609	0.100
667.000	27.890	0.100
667.100	22.661	0.100
667.200	25.597	0.100
667.300	32.643	0.100
667.400	28.387	0.100
667.500	23.387	0.099
667.600	24.276	0.100
667.700	27.484	0.099
667.800	19.510	0.100
667.900	21.606	0.100
668.000	42.190	0.100
668.100	14.752	0.100
668.200	18.497	0.099
668.300	23.784	0.100
668.400	41.247	0.100
668.500	20.778	0.100
668.600	30.617	0.100
668.700	23.734	0.100
668.800	29.083	0.100
668.900	21.133	0.100
669.000	21.166	0.099
669.100	21.431	0.099
669.200	39.626	0.100
669.300	26.271	0.100
669.400	25.997	0.099
669.500	21.765	0.099
669.600	31.671	0.100
669.700	16.623	0.099
669.800	23.002	0.100
669.900	23.978	0.099
670.000	31.044	0.100
670.100	26.859	0.100
670.200	22.716	0.100
670.300	16.032	0.100
670.400	29.713	0.099
670.500	27.151	0.100
670.600	37.288	0.100
670.700	23.977	0.099
670.800	15.662	0.100
670.900	20.731	0.100
671.000	23.043	0.099
671.100	43.236	0.099
671.200	22.532	0.100
671.300	29.477	0.100
671.400	16.655	0.099
671.500	24.166	0.100
671.600	30.517	0.100
671.700	31.307	0.099
671.800	22.112	0.099
671.900	30.491	0.099
672.000	34.771	0.100
672.100	18.561	0.099
672.200	29.171	0.099
672.300	22.730	0.100
672.400	25.643	0.100
672.500	24.104	0.100
672.600	17.240	0.100
672.700	23.957	0.099
672.800	30.345	0.100
672.900	28.953	0.100
673.000	21.549	0.100
673.100	17.472	0.100
673.200	38.407	0.100
673.300	15.339	0.100
673.400	26.894	0.100
673.500	34.103	0.100
673.600	28.135	0.100
673.700	16.328	0.100
673.800	24.635	0.099
673.900	22.446	0.100
674.000	33.604	0.100
674.100	13.460	0.100
674.200	19.436	0.100
674.300	26.279	0.100
674.400	22.773	0.100
674.500	26.251	0.100
674.600	22.699	0.100
674.700	30.590	0.099
674.800	27.066	0.100
674.900	12.649	0.100
675.000	44.888	0.100
675.100	21.911	0.100
675.200	21.062	0.100
675.300	16.864	0.100
675.400	17.217	0.100
675.500	37.122	0.100
675.600	32.390	0.100
675.700	27.263	0.099
675.800	28.680	0.099
675.900	19.111	0.099
676.000	35.480	0.100
676.100	15.836	0.100
676.200	29.485	0.099
676.300	30.416	0.100
676.400	20.900	0.100
676.500	16.968	0.100
676.600	25.686	0.100
676.700	27.236	0.100
676.800	30.220	0.100
676.900	27.422	0.099
677.000	20.216	0.100
677.100	16.916	0.100
677.200	18.531	0.100
677.300	31.486	0.100
677.400	19.124	0.100
677.500	43.417	0.100
677.600	18.107	0.100
677.700	15.190	0.100
677.800	33.288	0.100
677.900	25.509	0.100
678.000	25.518	0.099
678.100	10.096	0.100
678.200	20.385	0.100
678.300	34.496	0.100
678.400	20.876	0.100
678.500	19.791	0.100
678.600	40.265	0.100
678.700	18.887	0.100
678.800	19.253	0.100
678.900	33.466	0.100
679.000	24.041	0.100
679.100	17.478	0.099
679.200	35.433	0.100
679.300	30.583	0.099
679.400	25.668	0.100
679.500	33.884	0.100
679.600	12.684	0.100
679.700	18.320	0.100
679.800	22.331	0.100
679.900	17.363	0.100
680.000	25.042	0.100
680.100	20.524	0.100
680.200	27.705	0.100
680.300	18.510	0.099
680.400	22.304	0.099
680.500	33.488	0.100
680.600	24.125	0.100
680.700	20.966	0.100
680.800	23.856	0.100
680.900	24.823	0.100
681.000	37.691	0.100
681.100	30.477	0.100
681.200	24.052	0.100
681.300	30.000	0.100
681.400	17.626	0.100
681.500	34.708	0.100
681.600	23.558	0.099
681.700	25.817	0.099
681.800	21.120	0.100
681.900	30.333	0.100
682.000	29.769	0.100
682.100	29.208	0.100
682.200	26.877	0.100
682.300	35.177	0.100
682.400	30.308	0.100
682.500	18.768	0.100
682.600	33.754	0.100
682.700	26.330	0.100
682.800	25.123	0.100
682.900	19.398	0.099
683.000	29.573	0.100
683.100	22.836	0.099
683.200	20.764	0.100
683.300	32.894	0.100
683.400	33.329	0.100
683.500	14.472	0.100
683.600	21.746	0.100
683.700	21.584	0.100
683.800	17.213	0.100
683.900	25.812	0.100
684.000	23.877	0.100
684.100	34.093	0.100
684.200	1.156	0.100
684.300	30.658	0.100
684.400	26.691	0.100
684.500	20.147	0.100
684.600	42.005	0.100
684.700	15.495	0.100
684.800	33.494	0.100
684.900	11.958	0.100
685.000	21.412	0.099
685.100	42.465	0.100
685.200	25.340	0.099
685.300	32.856	0.099
685.400	14.075	0.100
685.500	25.509	0.100
685.600	29.986	0.100
685.700	33.148	0.100
685.800	19.512	0.100
685.900	21.052	0.100
686.000	25.579	0.100
686.100	24.457	0.099
686.200	18.598	0.100
686.300	19.271	0.100
686.400	32.957	0.100
686.500	19.998	0.100
686.600	29.563	0.100
686.700	24.992	0.099
686.800	28.000	0.099
686.900	31.278	0.100
687.000	15.738	0.100
687.100	17.927	0.100
687.200	27.964	0.100
687.300	30.479	0.099
687.400	27.349	0.099
687.500	19.917	0.099
687.600	21.385	0.099
687.700	24.538	0.099
687.800	18.498	0.099
687.900	26.963	0.100
688.000	24.449	0.100
688.100	21.460	0.099
688.200	29.268	0.100
688.300	24.759	0.099
688.400	34.878	0.100
688.500	24.950	0.100
688.600	24.272	0.099
688.700	24.540	0.099
688.800	23.598	0.100
688.900	31.974	0.100
689.000	14.186	0.100
689.100	26.804	0.099
689.200	26.321	0.100
689.300	37.628	0.099
689.400	29.243	0.099
689.500	11.011	0.100
689.600	23.835	0.099
689.700	34.041	0.099
689.800	26.752	0.099
689.900	18.872	0.100
690.000	24.026	0.099
690.100	21.422	0.099
690.200	21.769	0.099
690.300	31.905	0.100
690.400	24.838	0.100
690.500	29.081	0.099
690.600	28.692	0.100
690.700	19.255	0.099
690.800	29.776	0.099
690.900	21.752	0.099
691.000	26.391	0.099
691.100	37.311	0.100
691.200	25.276	0.100
691.300	16.600	0.100
691.400	32.975	0.099
691.500	29.928	0.099
691.600	24.094	0.100
691.700	4.455	0.100
691.800	37.237	0.099
691.900	28.588	0.099
692.000	19.077	0.100
692.100	26.864	0.100
692.200	30.211	0.100
692.300	24.609	0.099
692.400	31.552	0.099
692.500	34.349	0.099
692.600	19.914	0.099
692.700	17.748	0.099
692.800	14.250	0.099
692.900	32.299	0.099
693.000	22.849	0.099
693.100	25.671	0.099
693.200	23.807	0.099
693.300	19.380	0.100
693.400	38.124	0.100
693.500	21.365	0.099
693.600	24.755	0.099
693.700	26.538	0.099
693.800	30.403	0.100
693.900	23.577	0.099
694.000	14.330	0.099
694.100	30.826	0.099
694.200	18.193	0.099
694.300	31.173	0.099
694.400	23.842	0.099
694.500	37.890	0.099
694.600	18.502	0.100
694.700	34.188	0.100
694.800	8.058	0.099
694.900	23.054	0.099
695.000	23.030	0.099
695.100	27.395	0.099
695.200	35.967	0.099
695.300	18.160	0.099
695.400	22.070	0.099
695.500	24.074	0.100
695.600	27.180	0.100
695.700	19.066	0.100
695.800	29.610	0.100
695.900	29.346	0.100
696.000	21.180	0.099
696.100	26.007	0.099
696.200	18.745	0.099
696.300	33.087	0.100
696.400	29.434	0.099
696.500	25.834	0.099
696.600	20.600	0.099
696.700	20.850	0.099
696.800	28.072	0.099
696.900	13.360	0.099
697.000	35.052	0.099
697.100	13.780	0.099
697.200	17.486	0.099
697.300	35.089	0.099
697.400	15.634	0.099
697.500	20.659	0.099
697.600	12.919	0.099
697.700	21.039	0.099
697.800	27.369	0.099
697.900	37.744	0.100
698.000	10.313	0.100
698.100	28.877	0.100
698.200	22.979	0.099
698.300	15.797	0.100
698.400	28.412	0.100
698.500	21.499	0.099
698.600	22.004	0.100
698.700	18.955	0.100
698.800	23.510	0.099
698.900	25.011	0.100
699.000	21.160	0.099
699.100	21.412	0.099
699.200	18.142	0.100
699.300	23.763	0.099
699.400	17.827	0.099
699.500	21.935	0.100
699.600	32.386	0.099
699.700	24.701	0.099
699.800	24.181	0.099
699.900	27.371	0.099
700.000	25.147	0.100
700.100	12.381	0.100
700.200	36.009	0.100
700.300	24.871	0.099
700.400	18.090	0.100
700.500	26.965	0.100
700.600	23.959	0.100
700.700	22.640	0.100
700.800	12.536	0.100
700.900	17.211	0.100
701.000	27.154	0.100
701.100	31.118	0.099
701.200	18.802	0.100
701.300	33.507	0.099
701.400	26.344	0.100
701.500	30.552	0.100
701.600	19.182	0.100
701.700	13.064	0.100
701.800	21.468	0.100
701.900	31.129	0.100
702.000	29.494	0.099
702.100	25.625	0.099
702.200	22.669	0.100
702.300	15.007	0.100
702.400	26.204	0.100
702.500	26.191	0.100
702.600	26.509	0.100
702.700	11.422	0.100
702.800	26.356	0.100
702.900	28.372	0.100
703.000	25.875	0.099
703.100	18.812	0.099
703.200	20.863	0.100
703.300	26.153	0.100
703.400	19.192	0.100
703.500	27.146	0.099
703.600	13.180	0.100
703.700	31.926	0.099
703.800	14.203	0.100
703.900	31.218	0.099
704.000	22.285	0.100
704.100	20.913	0.099
704.200	14.233	0.100
704.300	18.123	0.099
704.400	15.151	0.099
704.500	19.147	0.100
704.600	28.599	0.100
704.700	22.603	0.100
704.800	19.739	0.099
704.900	34.332	0.100
705.000	23.412	0.099
705.100	18.539	0.100
705.200	26.861	0.099
705.300	22.594	0.099
705.400	21.082	0.099
705.500	23.228	0.100
705.600	34.398	0.100
705.700	11.158	0.099
705.800	38.087	0.099
705.900	24.954	0.100
706.000	21.006	0.100
706.100	25.094	0.100
706.200	9.259	0.099
706.300	35.358	0.100
706.400	32.586	0.099
706.500	26.282	0.100
706.600	24.829	0.100
706.700	19.188	0.100
706.800	15.411	0.100
706.900	4.394	0.100
707.000	28.425	0.099
707.100	26.160	0.100
707.200	24.991	0.099
707.300	29.277	0.100
707.400	22.005	0.099
707.500	17.922	0.100
707.600	30.593	0.099
707.700	28.493	0.099
707.800	5.596	0.100
707.900	37.675	0.100
708.000	19.901	0.100
708.100	10.983	0.100
708.200	23.391	0.100
708.300	25.010	0.100
708.400	27.496	0.099
708.500	26.871	0.100
708.600	28.600	0.100
708.700	7.902	0.099
708.800	30.992	0.099
708.900	22.465	0.099
709.000	24.244	0.100
709.100	27.325	0.100
709.200	17.663	0.100
709.300	31.516	0.100
709.400	27.614	0.099
709.500	21.895	0.100
709.600	20.510	0.100
709.700	30.928	0.099
709.800	29.341	0.099
709.900	29.042	0.099
710.000	30.289	0.100
710.100	33.240	0.100
710.200	18.371	0.099
710.300	16.499	0.099
710.400	22.784	0.099
710.500	31.039	0.100
710.600	35.842	0.100
710.700	13.901	0.100
710.800	28.374	0.100
710.900	12.518	0.100
711.000	28.070	0.100
711.100	9.363	0.099
711.200	14.200	0.099
711.300	28.638	0.100
711.400	33.151	0.100
711.500	21.743	0.099
711.600	17.913	0.099
711.700	23.473	0.100
711.800	20.242	0.100
711.900	26.925	0.099
712.000	25.108	0.100
712.100	22.022	0.099
712.200	27.300	0.099
712.300	27.547	0.100
712.400	29.012	0.099
712.500	34.781	0.100
712.600	14.638	0.099
712.700	22.863	0.099
712.800	18.357	0.100
712.900	29.005	0.100
713.000	19.563	0.100
713.100	19.979	0.100
713.200	32.387	0.099
713.300	20.973	0.100
713.400	39.019	0.100
713.500	25.211	0.100
713.600	36.486	0.100
713.700	2.797	0.100
713.800	26.678	0.100
713.900	31.440	0.100
714.000	25.230	0.100
714.100	27.986	0.100
714.200	29.964	0.100
714.300	15.807	0.100
714.400	5.638	0.100
714.500	29.164	0.100
714.600	23.182	0.100
714.700	35.768	0.100
714.800	22.828	0.100
714.900	30.477	0.100
715.000	35.299	0.100
715.100	29.273	0.100
715.200	21.343	0.100
715.300	20.399	0.100
715.400	22.603	0.099
715.500	24.390	0.099
715.600	17.416	0.100
715.700	30.381	0.100
715.800	19.250	0.100
715.900	24.211	0.099
716.000	27.373	0.100
716.100	20.963	0.100
716.200	25.151	0.100
716.300	23.364	0.100
716.400	-0.528	0.100
716.500	31.338	0.100
716.600	22.234	0.100
716.700	20.815	0.100
716.800	27.591	0.100
716.900	30.901	0.100
717.000	29.045	0.100
717.100	27.310	0.100
717.200	23.871	0.100
717.300	27.008	0.100
717.400	23.886	0.100
717.500	25.743	0.100
717.600	23.396	0.100
717.700	24.558	0.100
717.800	21.061	0.100
717.900	27.684	0.100
718.000	24.593	0.100
718.100	31.656	0.100
718.200	20.085	0.100
718.300	29.897	0.099
718.400	27.604	0.099
718.500	22.784	0.100
718.600	32.838	0.099
718.700	12.739	0.100
718.800	29.527	0.099
718.900	22.891	0.100
719.000	38.064	0.100
719.100	17.567	0.100
719.200	26.911	0.099
719.300	16.832	0.100
719.400	21.038	0.100
719.500	30.308	0.099
719.600	27.505	0.100
719.700	19.041	0.100
719.800	33.311	0.099
719.900	24.296	0.099
720.000	28.995	0.100
720.100	22.149	0.099
720.200	17.823	0.099
720.300	28.110	0.100
720.400	36.766	0.100
720.500	24.472	0.100
720.600	25.897	0.100
720.700	17.480	0.100
720.800	22.250	0.100
720.900	13.804	0.099
721.000	26.505	0.100
721.100	27.604	0.100
721.200	31.273	0.100
721.300	24.204	0.099
721.400	17.921	0.099
721.500	16.922	0.099
721.600	23.337	0.099
721.700	35.756	0.100
721.800	27.119	0.100
721.900	29.726	0.100
722.000	25.426	0.100
722.100	21.464	0.100
722.200	29.519	0.099
722.300	22.192	0.100
722.400	9.466	0.099
722.500	34.884	0.100
722.600	24.989	0.099
722.700	15.206	0.099
722.800	28.303	0.100
722.900	25.179	0.099
723.000	22.046	0.099
723.100	21.262	0.100
723.200	37.555	0.099
723.300	24.837	0.099
723.400	4.847	0.099
723.500	23.846	0.099
723.600	25.910	0.099
723.700	21.823	0.099
723.800	20.077	0.099
723.900	46.026	0.100
724.000	16.820	0.099
724.100	37.887	0.100
724.200	27.864	0.099
724.300	-1.188	0.100
724.400	18.265	0.099
724.500	38.022	0.099
724.600	26.820	0.100
724.700	23.161	0.099
724.800	41.532	0.100
724.900	33.797	0.100
725.000	26.255	0.100
725.100	25.010	0.100
725.200	28.214	0.100
725.300	34.607	0.099
725.400	25.325	0.100
725.500	26.798	0.100
725.600	19.250	0.099
725.700	27.793	0.100
725.800	29.380	0.100
725.900	23.734	0.099
726.000	41.130	0.100
726.100	14.346	0.099
726.200	39.181	0.099
726.300	19.521	0.100
726.400	18.442	0.100
726.500	25.522	0.100
726.600	16.639	0.099
726.700	43.677	0.100
726.800	18.898	0.100
726.900	13.172	0.100
727.000	30.231	0.100
727.100	23.133	0.099
727.200	26.975	0.100
727.300	19.557	0.100
727.400	26.155	0.100
727.500	21.763	0.099
727.600	34.001	0.100
727.700	12.193	0.099
727.800	21.076	0.099
727.900	24.491	0.100
728.000	16.488	0.100
728.100	29.868	0.100
728.200	26.874	0.100
728.300	22.726	0.099
728.400	19.007	0.100
728.500	33.082	0.100
728.600	19.914	0.100
728.700	20.910	0.100
728.800	24.548	0.099
728.900	14.849	0.100
729.000	24.996	0.100
729.100	22.640	0.100
729.200	27.988	0.100
729.300	32.604	0.100
729.400	20.508	0.100
729.500	20.552	0.100
729.600	28.097	0.100
729.700	27.165	0.100
729.800	15.140	0.099
729.900	22.562	0.100
730.000	22.676	0.100
730.100	29.153	0.100
730.200	23.668	0.100
730.300	22.885	0.100
730.400	28.601	0.100
730.500	19.807	0.100
730.600	22.488	0.100
730.700	23.564	0.100
730.800	18.285	0.100
730.900	28.966	0.100
731.000	10.812	0.100
731.100	24.339	0.100
731.200	17.806	0.100
731.300	26.902	0.100
731.400	19.731	0.100
731.500	28.510	0.100
731.600	21.490	0.100
731.700	22.181	0.100
731.800	18.945	0.099
731.900	25.735	0.100
732.000	18.832	0.100
732.100	32.247	0.100
732.200	6.795	0.099
732.300	17.229	0.100
732.400	18.731	0.099
732.500	32.650	0.100
732.600	25.795	0.100
732.700	26.217	0.100
732.800	24.042	0.100
732.900	33.227	0.100
733.000	11.268	0.099
733.100	22.270	0.100
733.200	27.074	0.100
733.300	8.439	0.100
733.400	41.332	0.100
733.500	14.981	0.100
733.600	23.612	0.099
733.700	30.160	0.100
733.800	24.322	0.099
733.900	14.402	0.099
734.000	24.496	0.100
734.100	33.308	0.100
734.200	28.873	0.099
734.300	18.303	0.100
734.400	25.471	0.100
734.500	18.664	0.100
734.600	12.785	0.100
734.700	19.734	0.100
734.800	32.609	0.100
734.900	23.181	0.100
735.000	22.934	0.100
735.100	22.589	0.100
735.200	28.237	0.100
735.300	24.646	0.100
735.400	17.511	0.100
735.500	33.646	0.100
735.600	10.768	0.100
735.700	6.137	0.100
735.800	30.210	0.099
735.900	16.037	0.100
736.000	22.206	0.100
736.100	22.658	0.099
736.200	26.012	0.100
736.300	37.886	0.100
736.400	20.666	0.100
736.500	27.184	0.100
736.600	12.226	0.100
736.700	30.893	0.099
736.800	22.345	0.100
736.900	29.711	0.099
737.000	17.862	0.100
737.100	26.840	0.100
737.200	27.602	0.100
737.300	17.550	0.100
737.400	22.289	0.100
737.500	31.743	0.100
737.600	16.694	0.100
737.700	29.472	0.100
737.800	29.956	0.099
737.900	18.202	0.100
738.000	3.220	0.100
738.100	39.839	0.100
738.200	16.528	0.099
738.300	43.706	0.099
738.400	23.181	0.099
738.500	29.859	0.100
738.600	27.467	0.100
738.700	25.659	0.100
738.800	18.312	0.100
738.900	31.405	0.100
739.000	21.310	0.100
739.100	34.300	0.100
739.200	25.331	0.100
739.300	22.594	0.100
739.400	24.402	0.100
739.500	26.189	0.100
739.600	18.587	0.099
739.700	27.678	0.100
739.800	30.346	0.100
739.900	18.268	0.100
740.000	24.541	0.100
740.100	28.349	0.100
740.200	24.567	0.100
740.300	20.394	0.100
740.400	35.694	0.100
740.500	22.649	0.100
740.600	29.343	0.100
740.700	11.936	0.100
740.800	42.290	0.100
740.900	3.760	0.100
741.000	32.055	0.100
741.100	9.332	0.100
741.200	25.371	0.100
741.300	29.000	0.100
741.400	26.641	0.100
741.500	38.479	0.100
741.600	31.613	0.100
741.700	31.440	0.100
741.800	22.605	0.100
741.900	11.866	0.100
742.000	26.582	0.100
742.100	21.772	0.100
742.200	26.381	0.100
742.300	28.942	0.100
742.400	15.162	0.100
742.500	28.969	0.100
742.600	27.499	0.100
742.700	15.460	0.100
742.800	41.474	0.100
742.900	20.498	0.100
743.000	28.719	0.100
743.100	23.812	0.100
743.200	27.471	0.100
743.300	19.339	0.100
743.400	26.033	0.100
743.500	28.261	0.100
743.600	16.297	0.100
743.700	26.776	0.100
743.800	5.908	0.100
743.900	24.757	0.100
744.000	21.100	0.100
744.100	38.030	0.100
744.200	28.482	0.100
744.300	28.039	0.100
744.400	27.853	0.100
744.500	25.147	0.100
744.600	23.905	0.100
744.700	22.215	0.100
744.800	24.956	0.100
744.900	25.053	0.100
745.000	23.839	0.100
745.100	15.798	0.100
745.200	21.418	0.099
745.300	33.045	0.100
745.400	30.292	0.100
745.500	21.564	0.100
745.600	17.091	0.100
745.700	11.295	0.100
745.800	27.751	0.100
745.900	22.778	0.100
746.000	2.229	0.100
746.100	52.619	0.100
746.200	29.961	0.100
746.300	31.773	0.100
746.400	8.901	0.100
746.500	19.114	0.100
746.600	29.310	0.100
746.700	23.790	0.100
746.800	21.330	0.100
746.900	33.727	0.100
747.000	17.709	0.100
747.100	22.318	0.100
747.200	29.350	0.100
747.300	14.803	0.100
747.400	22.827	0.100
747.500	10.678	0.100
747.600	23.484	0.100
747.700	20.602	0.100
747.800	30.303	0.100
747.900	29.212	0.100
748.000	12.405	0.100
748.100	21.194	0.100
748.200	23.823	0.100
748.300	32.563	0.100
748.400	23.070	0.100
748.500	30.161	0.100
748.600	21.760	0.100
748.700	27.463	0.100
748.800	25.361	0.100
748.900	-0.339	0.100
749.000	30.762	0.100
749.100	12.655	0.100
749.200	26.930	0.100
749.300	29.706	0.100
749.400	23.105	0.100
749.500	11.328	0.100
749.600	41.000	0.099
749.700	16.184	0.100
749.800	27.168	0.100
749.900	28.348	0.100
750.000	35.810	0.100
750.100	21.270	0.100
750.200	21.548	0.100
750.300	30.619	0.100
750.400	20.605	0.099
750.500	26.767	0.100
750.600	30.470	0.100
750.700	29.206	0.100
750.800	21.184	0.100
750.900	16.704	0.100
751.000	25.094	0.100
751.100	18.868	0.100
751.200	28.190	0.100
751.300	24.637	0.100
751.400	20.944	0.100
751.500	18.726	0.100
751.600	27.758	0.100
751.700	22.600	0.100
751.800	33.863	0.100
751.900	26.252	0.100
752.000	0.245	0.100
752.100	25.176	0.100
752.200	23.804	0.100
752.300	24.338	0.100
752.400	30.145	0.100
752.500	20.399	0.100
752.600	19.914	0.100
752.700	15.134	0.100
752.800	32.358	0.100
752.900	14.039	0.100
753.000	30.147	0.100
753.100	30.420	0.100
753.200	18.189	0.100
753.300	27.030	0.100
753.400	30.357	0.100
753.500	22.729	0.100
753.600	24.770	0.100
753.700	23.061	0.100
753.800	29.414	0.100
753.900	35.057	0.100
754.000	30.840	0.100
754.100	33.897	0.100
754.200	29.218	0.100
754.300	23.297	0.100
754.400	13.682	0.099
754.500	37.950	0.100
754.600	20.902	0.100
754.700	21.346	0.100
754.800	19.805	0.100
754.900	35.063	0.100
755.000	21.259	0.100
755.100	31.537	0.100
755.200	22.932	0.100
755.300	20.653	0.100
755.400	8.378	0.100
755.500	22.009	0.100
755.600	35.562	0.100
755.700	26.395	0.100
755.800	27.618	0.100
755.900	22.867	0.100
756.000	31.129	0.100
756.100	21.272	0.100
756.200	8.734	0.099
756.300	31.297	0.100
756.400	28.429	0.100
756.500	22.296	0.099
756.600	22.736	0.100
756.700	16.663	0.100
756.800	10.808	0.099
756.900	20.868	0.100
757.000	29.165	0.099
757.100	28.273	0.100
757.200	14.581	0.099
757.300	33.808	0.100
757.400	23.919	0.100
757.500	36.544	0.100
757.600	15.585	0.100
757.700	26.780	0.100
757.800	15.419	0.100
757.900	24.766	0.100
758.000	15.977	0.100
758.100	29.573	0.100
758.200	20.339	0.100
758.300	22.713	0.100
758.400	21.997	0.100
758.500	18.519	0.100
758.600	38.518	0.100
758.700	29.579	0.100
758.800	19.623	0.100
758.900	22.543	0.099
759.000	28.936	0.100
759.100	25.714	0.099
759.200	18.807	0.100
759.300	21.966	0.100
759.400	26.766	0.100
759.500	26.772	0.100
759.600	23.612	0.100
759.700	16.177	0.100
759.800	39.277	0.100
759.900	15.976	0.100
760.000	31.526	0.100
760.100	20.477	0.100
760.200	29.733	0.100
760.300	33.548	0.100
760.400	15.062	0.100
760.500	23.814	0.100
760.600	18.616	0.100
760.700	21.148	0.100
760.800	24.800	0.100
760.900	23.663	0.100
761.000	33.682	0.100
761.100	25.702	0.100
761.200	22.336	0.100
761.300	32.990	0.100
761.400	27.354	0.100
761.500	22.906	0.100
761.600	24.313	0.100
761.700	34.429	0.100
761.800	26.501	0.100
761.900	30.139	0.100
762.000	27.900	0.100
762.100	16.189	0.100
762.200	25.507	0.100
762.300	30.011	0.100
762.400	14.099	0.099
762.500	23.125	0.100
762.600	19.816	0.100
762.700	27.085	0.100
762.800	29.008	0.100
762.900	21.994	0.100
763.000	29.013	0.100
763.100	19.914	0.100
763.200	13.265	0.100
763.300	21.380	0.100
763.400	8.628	0.099
763.500	18.885	0.100
763.600	20.847	0.100
763.700	26.956	0.100
763.800	24.774	0.100
763.900	34.470	0.100
764.000	14.792	0.100
764.100	11.667	0.100
764.200	22.951	0.100
764.300	23.066	0.100
764.400	24.021	0.100
764.500	8.380	0.100
764.600	25.692	0.100
764.700	42.061	0.100
764.800	20.689	0.100
764.900	22.199	0.100
765.000	24.864	0.100
765.100	20.152	0.099
765.200	16.906	0.100
765.300	33.265	0.100
765.400	11.430	0.100
765.500	12.075	0.100
765.600	34.081	0.100
765.700	7.328	0.100
765.800	29.018	0.100
765.900	24.910	0.100
766.000	23.850	0.100
766.100	34.583	0.100
766.200	29.456	0.100
766.300	35.810	0.100
766.400	22.532	0.100
766.500	27.220	0.100
766.600	24.078	0.100
766.700	35.124	0.100
766.800	32.021	0.100
766.900	17.017	0.100
767.000	23.391	0.100
767.100	12.401	0.100
767.200	30.653	0.100
767.300	17.556	0.100
767.400	23.172	0.100
767.500	26.689	0.100
767.600	37.630	0.100
767.700	20.359	0.100
767.800	22.786	0.100
767.900	24.955	0.100
768.000	24.463	0.100
768.100	25.365	0.100
768.200	9.039	0.100
768.300	37.465	0.100
768.400	21.463	0.100
768.500	16.205	0.100
768.600	37.589	0.100
768.700	26.773	0.100
768.800	26.639	0.100
768.900	30.184	0.100
769.000	24.195	0.100
769.100	9.148	0.100
769.200	29.364	0.100
769.300	24.607	0.100
769.400	23.023	0.100
769.500	23.510	0.100
769.600	15.616	0.100
769.700	18.740	0.100
769.800	30.758	0.100
769.900	26.006	0.100
770.000	32.904	0.100
770.100	14.190	0.100
770.200	23.496	0.100
770.300	19.746	0.100
770.400	5.243	0.100
770.500	38.158	0.100
770.600	35.253	0.099
770.700	29.927	0.100
770.800	20.681	0.100
770.900	27.815	0.100
771.000	26.764	0.100
771.100	34.577	0.100
771.200	16.307	0.100
771.300	22.906	0.100
771.400	40.703	0.100
771.500	9.440	0.100
771.600	25.923	0.100
771.700	27.851	0.100
771.800	28.376	0.100
771.900	22.325	0.100
772.000	37.426	0.100
772.100	10.004	0.100
772.200	17.851	0.100
772.300	20.091	0.100
772.400	31.366	0.100
772.500	11.989	0.100
772.600	36.520	0.100
772.700	29.728	0.100
772.800	29.579	0.100
772.900	28.388	0.100
773.000	33.876	0.100
773.100	22.572	0.100
773.200	24.334	0.100
773.300	27.205	0.100
773.400	23.137	0.100
773.500	27.900	0.100
773.600	24.803	0.100
773.700	19.659	0.100
773.800	23.731	0.100
773.900	24.087	0.100
774.000	22.894	0.100
774.100	23.658	0.100
774.200	13.080	0.099
774.300	30.967	0.100
774.400	23.949	0.100
774.500	35.599	0.100
774.600	33.687	0.099
774.700	34.310	0.100
774.800	9.814	0.100
774.900	27.921	0.100
775.000	11.954	0.100
775.100	17.328	0.100
775.200	23.485	0.100
775.300	32.542	0.100
775.400	23.910	0.100
775.500	21.301	0.100
775.600	25.854	0.099
775.700	30.720	0.100
775.800	15.867	0.100
775.900	32.835	0.099
776.000	32.276	0.100
776.100	13.253	0.100
776.200	24.075	0.100
776.300	22.782	0.100
776.400	24.931	0.100
776.500	25.965	0.099
776.600	16.759	0.100
776.700	20.679	0.100
776.800	20.255	0.100
776.900	15.870	0.100
777.000	23.866	0.100
777.100	23.561	0.100
777.200	31.119	0.100
777.300	31.314	0.100
777.400	21.106	0.099
777.500	31.027	0.100
777.600	25.472	0.100
777.700	23.123	0.100
777.800	27.482	0.100
777.900	9.334	0.100
778.000	37.371	0.100
778.100	15.966	0.100
778.200	20.997	0.100
778.300	27.040	0.100
778.400	17.133	0.100
778.500	23.366	0.100
778.600	19.282	0.100
778.700	26.911	0.100
778.800	25.464	0.100
778.900	28.286	0.100
779.000	35.202	0.100
779.100	13.569	0.100
779.200	30.620	0.100
779.300	27.725	0.100
779.400	27.513	0.100
779.500	33.986	0.100
779.600	33.837	0.100
779.700	21.166	0.100
779.800	27.222	0.100
779.900	32.967	0.100
780.000	17.276	0.100
780.100	26.751	0.100
780.200	23.251	0.100
780.300	28.398	0.100
780.400	27.504	0.100
780.500	16.262	0.100
780.600	24.786	0.100
780.700	28.417	0.100
780.800	19.149	0.100
780.900	22.573	0.100
781.000	31.553	0.100
781.100	20.376	0.100
781.200	23.502	0.100
781.300	31.357	0.100
781.400	23.549	0.100
781.500	32.363	0.100
781.600	32.737	0.100
781.700	32.409	0.100
781.800	18.525	0.100
781.900	27.135	0.100
782.000	28.658	0.100
782.100	26.365	0.100
782.200	27.236	0.100
782.300	19.717	0.100
782.400	20.449	0.100
782.500	13.831	0.100
782.600	38.375	0.100
782.700	18.132	0.100
782.800	19.904	0.100
782.900	29.008	0.100
783.000	24.962	0.100
783.100	29.558	0.100
783.200	19.578	0.100
783.300	28.597	0.100
783.400	32.043	0.100
783.500	19.006	0.100
783.600	16.593	0.100
783.700	35.363	0.100
783.800	20.013	0.100
783.900	19.850	0.100
784.000	43.658	0.100
784.100	20.974	0.100
784.200	24.288	0.099
784.300	23.980	0.100
784.400	20.046	0.100
784.500	26.321	0.100
784.600	23.613	0.100
784.700	28.906	0.100
784.800	25.120	0.100
784.900	27.228	0.100
785.000	18.921	0.100
785.100	34.271	0.100
785.200	14.183	0.100
785.300	24.861	0.100
785.400	25.127	0.100
785.500	28.765	0.100
785.600	22.961	0.100
785.700	27.323	0.100
785.800	21.933	0.100
785.900	22.336	0.100
786.000	20.130	0.100
786.100	31.739	0.100
786.200	24.776	0.100
786.300	25.700	0.100
786.400	33.564	0.100
786.500	28.535	0.099
786.600	28.299	0.100
786.700	30.869	0.100
786.800	23.647	0.100
786.900	16.593	0.100
787.000	38.398	0.100
787.100	26.273	0.100
787.200	15.264	0.100
787.300	40.433	0.100
787.400	24.357	0.100
787.500	28.909	0.100
787.600	21.870	0.099
787.700	30.100	0.100
787.800	34.503	0.100
787.900	17.068	0.100
788.000	31.438	0.100
788.100	20.474	0.100
788.200	32.203	0.100
788.300	26.067	0.100
788.400	26.375	0.100
788.500	19.316	0.100
788.600	18.427	0.100
788.700	34.260	0.100
788.800	11.437	0.100
788.900	33.881	0.100
789.000	29.972	0.100
789.100	29.755	0.100
789.200	21.981	0.100
789.300	26.798	0.100
789.400	29.716	0.100
789.500	28.618	0.100
789.600	27.034	0.100
789.700	29.688	0.100
789.800	3.746	0.100
789.900	8.328	0.100
790.000	44.437	0.100
790.100	26.382	0.100
790.200	32.522	0.100
790.300	18.289	0.100
790.400	33.251	0.100
790.500	19.248	0.100
790.600	10.627	0.100
790.700	29.417	0.100
790.800	19.980	0.100
790.900	34.583	0.100
791.000	32.479	0.100
791.100	19.918	0.100
791.200	20.933	0.099
791.300	19.248	0.100
791.400	33.528	0.100
791.500	32.694	0.100
791.600	9.464	0.100
791.700	35.487	0.100
791.800	21.288	0.100
791.900	35.495	0.100
792.000	23.891	0.100
792.100	28.107	0.100
792.200	31.363	0.100
792.300	31.646	0.100
792.400	21.968	0.100
792.500	40.872	0.100
792.600	20.888	0.100
792.700	16.328	0.100
792.800	18.683	0.099
792.900	25.293	0.100
793.000	31.032	0.100
793.100	22.913	0.100
793.200	30.885	0.100
793.300	24.370	0.100
793.400	32.840	0.100
793.500	26.049	0.100
793.600	24.099	0.100
793.700	35.530	0.100
793.800	28.853	0.100
793.900	17.304	0.100
794.000	17.008	0.099
794.100	25.022	0.100
794.200	26.438	0.099
794.300	19.030	0.099
794.400	41.467	0.099
794.500	29.719	0.100
794.600	16.308	0.100
794.700	32.368	0.100
794.800	35.046	0.100
794.900	18.057	0.100
795.000	27.508	0.100
795.100	33.356	0.100
795.200	26.475	0.099
795.300	21.969	0.100
795.400	36.737	0.100
795.500	25.806	0.099
795.600	25.395	0.100
795.700	27.777	0.100
795.800	33.555	0.100
795.900	30.725	0.100
796.000	25.561	0.100
796.100	32.301	0.100
796.200	23.354	0.100
796.300	25.093	0.099
796.400	27.874	0.100
796.500	19.684	0.100
796.600	40.969	0.100
796.700	21.977	0.100
796.800	26.618	0.099
796.900	30.027	0.100
797.000	28.963	0.100
797.100	16.815	0.100
797.200	15.470	0.100
797.300	24.168	0.100
797.400	26.952	0.100
797.500	24.116	0.100
797.600	26.494	0.099
797.700	26.404	0.099
797.800	28.487	0.100
797.900	25.100	0.100
798.000	16.567	0.099
798.100	27.392	0.099
798.200	47.254	0.100
798.300	15.831	0.100
798.400	26.130	0.099
798.500	37.102	0.100
798.600	25.491	0.100
798.700	30.280	0.099
798.800	25.263	0.100
798.900	17.595	0.099
799.000	28.029	0.100
799.100	27.073	0.099
799.200	28.644	0.100
799.300	32.427	0.100
799.400	10.751	0.100
799.500	25.129	0.100
799.600	29.621	0.099
799.700	30.495	0.100
799.800	33.504	0.100
799.900	32.771	0.099
800.000	21.432	0.099
