time /s	I /nA	E /V
0.100	-1.020	0.099
0.200	5.092	0.099
0.300	-10.673	0.099
0.400	-28.834	0.099
0.500	-0.628	0.099
0.600	-4.623	0.099
0.700	-2.607	0.099
0.800	-2.275	0.099
0.900	8.765	0.100
1.000	24.105	0.099
1.100	-5.051	0.099
1.200	6.919	0.099
1.300	-10.910	0.099
1.400	-16.612	0.099
1.500	-3.858	0.099
1.600	3.425	0.099
1.700	-0.288	0.099
1.800	3.490	0.099
1.900	-1.920	0.100
2.000	-10.213	0.099
2.100	13.992	0.099
2.200	1.481	0.099
2.300	-10.903	0.099
2.400	-5.795	0.099
2.500	2.978	0.100
2.600	-5.182	0.099
2.700	-3.125	0.099
2.800	-1.885	0.099
2.900	-0.992	0.099
3.000	-3.286	0.100
3.100	-10.805	0.099
3.200	1.227	0.100
3.300	-4.822	0.099
3.400	-6.761	0.099
3.500	-8.386	0.099
3.600	9.254	0.099
3.700	-6.337	0.099
3.800	-8.530	0.099
3.900	-4.345	0.099
4.000	-3.667	0.100
4.100	-25.036	0.099
4.200	14.856	0.099
4.300	2.101	0.100
4.400	-4.312	0.099
4.500	-3.036	0.100
4.600	-7.382	0.099
4.700	-6.078	0.099
4.800	-9.390	0.100
4.900	-2.584	0.099
5.000	-11.613	0.099
5.100	6.573	0.100
5.200	-10.929	0.099
5.300	2.013	0.099
5.400	0.840	0.099
5.500	-2.554	0.100
5.600	0.776	0.099
5.700	-4.443	0.099
5.800	-1.301	0.099
5.900	-8.320	0.099
6.000	3.152	0.099
6.100	-14.864	0.099
6.200	6.793	0.099
6.300	3.422	0.100
6.400	0.379	0.099
6.500	-5.318	0.099
6.600	-13.854	0.099
6.700	-3.060	0.099
6.800	-3.124	0.100
6.900	-8.908	0.100
7.000	-0.416	0.099
7.100	-12.888	0.099
7.200	-7.043	0.099
7.300	-3.600	0.099
7.400	10.007	0.099
7.500	-0.279	0.099
7.600	0.931	0.099
7.700	-0.691	0.099
7.800	-7.863	0.099
7.900	3.621	0.100
8.000	-14.928	0.100
8.100	-1.500	0.099
8.200	-11.534	0.099
8.300	-11.823	0.099
8.400	8.390	0.099
8.500	-19.243	0.099
8.600	-6.564	0.100
8.700	-15.661	0.099
8.800	-4.982	0.099
8.900	-0.117	0.100
9.000	-9.238	0.099
9.100	-8.257	0.099
9.200	7.419	0.099
9.300	4.703	0.100
9.400	-5.258	0.099
9.500	-0.460	0.099
9.600	-0.613	0.099
9.700	-2.661	0.099
9.800	-0.157	0.099
9.900	0.194	0.099
10.000	-14.187	0.099
10.100	10.441	0.099
10.200	-3.336	0.099
10.300	-6.958	0.099
10.400	2.246	0.099
10.500	-11.424	0.099
10.600	-5.040	0.099
10.700	-4.295	0.099
10.800	3.829	0.099
10.900	0.116	0.099
11.000	-2.822	0.099
11.100	6.359	0.099
11.200	-6.426	0.099
11.300	0.000	0.099
11.400	-2.818	0.099
11.500	-3.536	0.100
11.600	-13.633	0.099
11.700	8.807	0.099
11.800	-8.860	0.099
11.900	-1.211	0.099
12.000	2.380	0.099
12.100	-2.378	0.099
12.200	-12.672	0.099
12.300	-5.535	0.099
12.400	-4.061	0.099
12.500	-6.353	0.099
12.600	-11.337	0.099
12.700	5.661	0.099
12.800	5.918	0.099
12.900	-13.406	0.099
13.000	-15.248	0.099
13.100	6.508	0.099
13.200	13.255	0.099
13.300	1.415	0.099
13.400	-4.525	0.099
13.500	-15.258	0.099
13.600	-1.985	0.099
13.700	-1.345	0.099
13.800	-9.377	0.099
13.900	7.468	0.099
14.000	3.842	0.099
14.100	0.214	0.099
14.200	-5.713	0.099
14.300	-13.421	0.099
14.400	-2.079	0.099
14.500	-5.812	0.099
14.600	6.112	0.099
14.700	-9.437	0.099
14.800	2.786	0.099
14.900	-16.484	0.099
15.000	-5.047	0.099
15.100	-4.822	0.099
15.200	-2.458	0.099
15.300	8.972	0.099
15.400	1.893	0.099
15.500	-5.713	0.099
15.600	1.089	0.099
15.700	-4.926	0.099
15.800	-3.057	0.099
15.900	-10.520	0.099
16.000	2.523	0.099
16.100	4.557	0.099
16.200	-4.633	0.099
16.300	-3.044	0.099
16.400	-3.304	0.099
16.500	-2.221	0.099
16.600	-5.307	0.099
16.700	-14.899	0.099
16.800	-6.211	0.099
16.900	-6.018	0.099
17.000	1.195	0.099
17.100	8.774	0.099
17.200	-2.768	0.099
17.300	1.176	0.099
17.400	-12.178	0.099
17.500	-3.282	0.099
17.600	3.436	0.099
17.700	-5.323	0.099
17.800	-0.278	0.099
17.900	6.995	0.099
18.000	6.262	0.099
18.100	-17.593	0.099
18.200	-13.385	0.099
18.300	8.805	0.099
18.400	-8.194	0.100
18.500	-0.081	0.100
18.600	4.943	0.099
18.700	-11.567	0.099
18.800	-5.925	0.099
18.900	-15.540	0.099
19.000	-13.011	0.099
19.100	10.041	0.099
19.200	0.756	0.099
19.300	-8.038	0.099
19.400	1.732	0.099
19.500	-0.304	0.099
19.600	-3.389	0.099
19.700	3.553	0.099
19.800	-9.669	0.099
19.900	-1.759	0.099
20.000	4.014	0.099
20.100	-14.764	0.099
20.200	4.229	0.099
20.300	-2.336	0.099
20.400	-3.033	0.099
20.500	-8.264	0.099
20.600	-8.809	0.099
20.700	-11.900	0.099
20.800	-3.092	0.099
20.900	2.150	0.099
21.000	-3.844	0.099
21.100	2.670	0.099
21.200	-5.829	0.099
21.300	-1.273	0.099
21.400	-3.945	0.099
21.500	-2.198	0.099
21.600	-7.708	0.099
21.700	-9.279	0.099
21.800	-7.362	0.099
21.900	-1.606	0.099
22.000	2.461	0.099
22.100	3.543	0.099
22.200	-4.516	0.099
22.300	-1.253	0.099
22.400	-5.417	0.099
22.500	-3.503	0.099
22.600	-11.512	0.099
22.700	-2.351	0.099
22.800	0.574	0.099
22.900	-1.176	0.100
23.000	-7.837	0.099
23.100	-11.133	0.099
23.200	-5.961	0.099
23.300	-4.023	0.099
23.400	-8.038	0.099
23.500	-4.859	0.099
23.600	-9.446	0.099
23.700	-10.679	0.099
23.800	-3.375	0.099
23.900	0.340	0.099
24.000	2.557	0.099
24.100	-7.178	0.099
24.200	0.055	0.099
24.300	-7.855	0.099
24.400	0.837	0.099
24.500	6.272	0.099
24.600	-10.074	0.099
24.700	4.754	0.099
24.800	-8.607	0.099
24.900	3.588	0.099
25.000	-12.651	0.099
25.100	-8.043	0.099
25.200	-2.589	0.099
25.300	-8.431	0.099
25.400	-1.799	0.099
25.500	-0.474	0.099
25.600	-27.245	0.099
25.700	-14.041	0.099
25.800	-8.292	0.099
25.900	0.989	0.099
26.000	-1.142	0.099
26.100	-2.428	0.099
26.200	-4.427	0.099
26.300	-8.270	0.099
26.400	15.814	0.099
26.500	-0.513	0.099
26.600	-10.531	0.099
26.700	5.454	0.099
26.800	-7.200	0.099
26.900	-3.230	0.099
27.000	-11.016	0.099
27.100	0.527	0.099
27.200	-2.348	0.099
27.300	3.129	0.099
27.400	-11.275	0.099
27.500	1.257	0.099
27.600	-3.694	0.099
27.700	5.421	0.099
27.800	6.116	0.099
27.900	-4.887	0.099
28.000	-6.257	0.099
28.100	-21.797	0.099
28.200	8.338	0.099
28.300	3.374	0.099
28.400	-8.330	0.099
28.500	-0.010	0.099
28.600	1.658	0.099
28.700	-10.794	0.099
28.800	-3.890	0.099
28.900	-10.140	0.099
29.000	-13.800	0.099
29.100	-7.071	0.100
29.200	6.699	0.099
29.300	-8.465	0.099
29.400	1.596	0.100
29.500	-15.251	0.099
29.600	5.405	0.099
29.700	-8.158	0.099
29.800	1.933	0.099
29.900	2.074	0.099
30.000	-6.415	0.099
30.100	-5.693	0.099
30.200	3.847	0.099
30.300	-4.664	0.099
30.400	-1.348	0.099
30.500	-1.480	0.099
30.600	-3.779	0.099
30.700	6.582	0.099
30.800	-4.203	0.099
30.900	-6.534	0.099
31.000	10.413	0.099
31.100	-6.871	0.099
31.200	11.351	0.099
31.300	5.232	0.099
31.400	7.423	0.099
31.500	14.435	0.099
31.600	4.326	0.099
31.700	-1.344	0.100
31.800	5.798	0.099
31.900	15.394	0.099
32.000	5.105	0.099
32.100	15.745	0.099
32.200	7.481	0.099
32.300	17.904	0.099
32.400	16.096	0.099
32.500	6.486	0.100
32.600	24.692	0.099
32.700	12.677	0.099
32.800	6.013	0.099
32.900	9.819	0.099
33.000	11.921	0.099
33.100	27.782	0.099
33.200	15.111	0.099
33.300	12.226	0.099
33.400	22.851	0.099
33.500	26.742	0.099
33.600	15.090	0.099
33.700	6.949	0.099
33.800	10.934	0.099
33.900	18.902	0.099
34.000	19.363	0.099
34.100	16.819	0.099
34.200	19.476	0.099
34.300	8.474	0.099
34.400	21.857	0.099
34.500	29.125	0.099
34.600	6.541	0.099
34.700	7.234	0.099
34.800	15.514	0.099
34.900	17.595	0.099
35.000	16.449	0.099
35.100	17.040	0.099
35.200	16.888	0.099
35.300	18.207	0.099
35.400	15.475	0.099
35.500	16.507	0.099
35.600	9.708	0.099
35.700	19.246	0.099
35.800	21.409	0.099
35.900	22.596	0.099
36.000	9.882	0.099
36.100	24.849	0.099
36.200	17.774	0.099
36.300	12.179	0.099
36.400	26.349	0.099
36.500	19.126	0.099
36.600	24.922	0.099
36.700	18.271	0.099
36.800	16.406	0.099
36.900	16.355	0.099
37.000	17.478	0.099
37.100	34.853	0.099
37.200	14.585	0.099
37.300	20.327	0.099
37.400	23.895	0.099
37.500	19.180	0.099
37.600	20.417	0.099
37.700	21.112	0.099
37.800	33.484	0.099
37.900	18.492	0.099
38.000	36.137	0.099
38.100	14.083	0.099
38.200	20.015	0.099
38.300	30.920	0.099
38.400	28.987	0.099
38.500	23.192	0.099
38.600	2.845	0.099
38.700	25.097	0.099
38.800	38.407	0.099
38.900	18.753	0.099
39.000	22.839	0.099
39.100	22.897	0.099
39.200	19.348	0.099
39.300	21.420	0.099
39.400	21.411	0.099
39.500	23.581	0.099
39.600	9.846	0.099
39.700	35.904	0.099
39.800	15.186	0.099
39.900	26.444	0.099
40.000	21.426	0.099
40.100	12.159	0.099
40.200	18.890	0.099
40.300	24.856	0.099
40.400	14.065	0.099
40.500	19.543	0.099
40.600	24.845	0.099
40.700	17.143	0.099
40.800	18.554	0.099
40.900	13.175	0.099
41.000	41.201	0.099
41.100	24.650	0.099
41.200	24.242	0.099
41.300	24.846	0.099
41.400	23.489	0.099
41.500	27.205	0.099
41.600	21.660	0.099
41.700	17.054	0.099
41.800	16.055	0.099
41.900	13.918	0.099
42.000	29.869	0.099
42.100	36.689	0.099
42.200	46.344	0.099
42.300	49.325	0.099
42.400	26.396	0.099
42.500	38.855	0.099
42.600	41.713	0.099
42.700	23.193	0.099
42.800	24.921	0.099
42.900	27.884	0.099
43.000	21.120	0.099
43.100	24.696	0.099
43.200	20.696	0.099
43.300	22.345	0.099
43.400	28.127	0.099
43.500	28.191	0.099
43.600	29.348	0.099
43.700	16.693	0.099
43.800	21.043	0.099
43.900	27.645	0.099
44.000	20.900	0.099
44.100	21.826	0.099
44.200	24.106	0.099
44.300	20.585	0.099
44.400	28.906	0.099
44.500	43.412	0.099
44.600	36.759	0.099
44.700	6.769	0.099
44.800	17.744	0.099
44.900	26.827	0.099
45.000	25.264	0.099
45.100	21.331	0.099
45.200	22.042	0.099
45.300	31.477	0.099
45.400	28.147	0.099
45.500	19.333	0.099
45.600	37.482	0.099
45.700	18.903	0.099
45.800	13.517	0.099
45.900	18.925	0.099
46.000	32.701	0.099
46.100	17.744	0.099
46.200	34.612	0.099
46.300	14.599	0.099
46.400	29.605	0.099
46.500	20.326	0.099
46.600	32.755	0.099
46.700	17.080	0.099
46.800	20.376	0.099
46.900	28.737	0.099
47.000	18.047	0.099
47.100	31.889	0.099
47.200	17.703	0.099
47.300	16.287	0.099
47.400	28.352	0.099
47.500	37.763	0.099
47.600	33.471	0.099
47.700	23.193	0.099
47.800	21.187	0.099
47.900	21.142	0.099
48.000	23.115	0.099
48.100	26.282	0.099
48.200	26.158	0.099
48.300	25.161	0.099
48.400	16.207	0.099
48.500	23.755	0.099
48.600	25.462	0.099
48.700	22.058	0.099
48.800	21.293	0.099
48.900	27.852	0.099
49.000	15.782	0.099
49.100	16.466	0.099
49.200	26.081	0.099
49.300	28.835	0.099
49.400	21.354	0.099
49.500	33.602	0.099
49.600	19.498	0.099
49.700	21.365	0.099
49.800	30.033	0.099
49.900	7.130	0.099
50.000	30.473	0.099
50.100	29.248	0.099
50.200	23.623	0.099
50.300	40.073	0.099
50.400	18.431	0.099
50.500	29.149	0.099
50.600	36.356	0.099
50.700	38.415	0.099
50.800	1.022	0.099
50.900	38.800	0.099
51.000	15.621	0.099
51.100	26.758	0.099
51.200	22.279	0.099
51.300	23.875	0.099
51.400	18.074	0.099
51.500	25.682	0.099
51.600	38.164	0.099
51.700	21.808	0.099
51.800	12.390	0.099
51.900	32.131	0.099
52.000	24.076	0.099
52.100	17.345	0.099
52.200	34.234	0.099
52.300	16.490	0.099
52.400	36.906	0.099
52.500	42.221	0.099
52.600	27.779	0.099
52.700	31.265	0.099
52.800	20.186	0.099
52.900	25.652	0.099
53.000	25.593	0.099
53.100	15.108	0.099
53.200	37.858	0.099
53.300	33.641	0.099
53.400	24.690	0.099
53.500	37.198	0.100
53.600	30.212	0.099
53.700	23.987	0.099
53.800	18.829	0.099
53.900	27.877	0.099
54.000	25.809	0.099
54.100	18.739	0.099
54.200	20.442	0.099
54.300	25.287	0.099
54.400	13.500	0.099
54.500	28.575	0.099
54.600	31.137	0.099
54.700	19.602	0.099
54.800	26.420	0.099
54.900	17.423	0.099
55.000	19.999	0.099
55.100	8.043	0.099
55.200	33.103	0.099
55.300	11.846	0.099
55.400	18.337	0.099
55.500	22.679	0.099
55.600	41.871	0.099
55.700	16.989	0.099
55.800	30.671	0.099
55.900	23.580	0.099
56.000	21.207	0.099
56.100	22.586	0.099
56.200	37.001	0.099
56.300	28.754	0.099
56.400	28.197	0.099
56.500	24.800	0.099
56.600	36.666	0.099
56.700	5.414	0.099
56.800	36.091	0.099
56.900	38.310	0.099
57.000	8.406	0.099
57.100	37.868	0.099
57.200	20.090	0.099
57.300	21.942	0.099
57.400	7.185	0.099
57.500	27.959	0.099
57.600	29.432	0.099
57.700	17.672	0.099
57.800	10.636	0.099
57.900	25.683	0.099
58.000	28.762	0.099
58.100	21.035	0.099
58.200	43.096	0.099
58.300	29.402	0.099
58.400	17.004	0.099
58.500	23.234	0.099
58.600	38.313	0.099
58.700	15.525	0.099
58.800	43.576	0.099
58.900	22.287	0.099
59.000	13.455	0.099
59.100	18.249	0.099
59.200	18.824	0.099
59.300	26.557	0.099
59.400	26.803	0.099
59.500	26.152	0.099
59.600	22.465	0.099
59.700	21.115	0.099
59.800	19.504	0.099
59.900	25.577	0.099
60.000	29.688	0.099
60.100	41.344	0.099
60.200	15.631	0.099
60.300	28.395	0.099
60.400	26.880	0.099
60.500	30.668	0.099
60.600	20.875	0.099
60.700	25.885	0.099
60.800	27.137	0.099
60.900	9.693	0.099
61.000	34.732	0.099
61.100	22.902	0.099
61.200	20.840	0.099
61.300	29.250	0.099
61.400	19.360	0.099
61.500	27.170	0.099
61.600	21.996	0.099
61.700	27.378	0.099
61.800	27.329	0.099
61.900	26.663	0.099
62.000	23.749	0.099
62.100	19.593	0.099
62.200	25.768	0.099
62.300	28.967	0.099
62.400	28.467	0.099
62.500	22.070	0.099
62.600	17.545	0.099
62.700	21.964	0.099
62.800	24.153	0.099
62.900	34.281	0.099
63.000	26.484	0.099
63.100	24.691	0.099
63.200	20.563	0.099
63.300	29.086	0.099
63.400	17.398	0.099
63.500	25.522	0.099
63.600	26.711	0.099
63.700	33.942	0.099
63.800	27.269	0.099
63.900	28.006	0.099
64.000	29.560	0.099
64.100	13.849	0.099
64.200	22.478	0.099
64.300	24.728	0.099
64.400	30.383	0.099
64.500	21.524	0.099
64.600	26.689	0.099
64.700	23.014	0.099
64.800	18.154	0.099
64.900	32.188	0.099
65.000	32.252	0.099
65.100	23.608	0.099
65.200	21.394	0.099
65.300	19.635	0.100
65.400	9.823	0.099
65.500	29.244	0.099
65.600	32.888	0.099
65.700	24.909	0.099
65.800	32.187	0.099
65.900	17.365	0.099
66.000	24.105	0.099
66.100	16.417	0.099
66.200	27.742	0.099
66.300	30.248	0.099
66.400	39.017	0.099
66.500	29.657	0.099
66.600	18.156	0.099
66.700	34.167	0.099
66.800	19.835	0.099
66.900	34.828	0.099
67.000	25.824	0.099
67.100	25.374	0.099
67.200	19.801	0.099
67.300	30.209	0.099
67.400	25.093	0.099
67.500	18.979	0.099
67.600	43.276	0.099
67.700	33.917	0.099
67.800	20.972	0.099
67.900	40.710	0.099
68.000	19.986	0.099
68.100	20.863	0.099
68.200	25.082	0.099
68.300	35.241	0.099
68.400	21.288	0.099
68.500	31.889	0.099
68.600	24.800	0.099
68.700	24.676	0.099
68.800	30.572	0.099
68.900	24.915	0.099
69.000	33.056	0.099
69.100	25.193	0.099
69.200	26.199	0.099
69.300	29.342	0.099
69.400	14.571	0.099
69.500	26.103	0.099
69.600	33.201	0.099
69.700	17.807	0.099
69.800	33.563	0.099
69.900	29.045	0.099
70.000	21.596	0.099
70.100	16.481	0.099
70.200	37.436	0.099
70.300	23.124	0.099
70.400	16.801	0.099
70.500	20.325	0.099
70.600	48.778	0.099
70.700	9.571	0.099
70.800	30.373	0.099
70.900	17.725	0.099
71.000	23.480	0.099
71.100	27.193	0.099
71.200	35.898	0.099
71.300	25.257	0.099
71.400	24.367	0.099
71.500	27.909	0.099
71.600	19.525	0.099
71.700	21.764	0.099
71.800	25.067	0.099
71.900	37.802	0.099
72.000	25.034	0.099
72.100	22.646	0.099
72.200	17.333	0.099
72.300	33.849	0.099
72.400	20.715	0.099
72.500	24.336	0.099
72.600	32.957	0.099
72.700	12.337	0.099
72.800	21.682	0.099
72.900	30.742	0.099
73.000	19.314	0.099
73.100	41.363	0.099
73.200	23.569	0.099
73.300	29.713	0.099
73.400	22.946	0.099
73.500	9.218	0.099
73.600	31.643	0.099
73.700	27.536	0.099
73.800	23.818	0.099
73.900	35.766	0.099
74.000	23.064	0.099
74.100	24.579	0.099
74.200	29.705	0.099
74.300	31.260	0.099
74.400	14.176	0.099
74.500	31.442	0.099
74.600	31.679	0.099
74.700	15.179	0.099
74.800	22.806	0.099
74.900	19.869	0.099
75.000	31.108	0.099
75.100	15.300	0.099
75.200	26.665	0.099
75.300	29.397	0.099
75.400	30.180	0.099
75.500	25.462	0.099
75.600	23.513	0.099
75.700	20.838	0.099
75.800	24.418	0.099
75.900	27.133	0.099
76.000	28.787	0.099
76.100	26.888	0.099
76.200	26.760	0.099
76.300	26.195	0.099
76.400	38.653	0.099
76.500	7.120	0.099
76.600	20.199	0.099
76.700	25.743	0.099
76.800	32.057	0.099
76.900	36.014	0.099
77.000	31.230	0.099
77.100	25.875	0.099
77.200	26.763	0.099
77.300	26.661	0.099
77.400	19.874	0.099
77.500	32.331	0.099
77.600	38.971	0.099
77.700	16.545	0.099
77.800	21.937	0.099
77.900	35.883	0.099
78.000	27.476	0.099
78.100	28.522	0.099
78.200	22.537	0.099
78.300	24.580	0.099
78.400	18.537	0.099
78.500	15.353	0.099
78.600	28.429	0.099
78.700	28.208	0.099
78.800	24.571	0.099
78.900	25.217	0.099
79.000	27.100	0.099
79.100	28.798	0.099
79.200	34.895	0.099
79.300	16.910	0.099
79.400	27.103	0.099
79.500	17.299	0.099
79.600	28.597	0.099
79.700	21.420	0.099
79.800	29.855	0.099
79.900	36.840	0.099
80.000	22.641	0.099
80.100	28.322	0.099
80.200	23.353	0.099
80.300	44.025	0.099
80.400	13.874	0.099
80.500	18.416	0.099
80.600	26.781	0.099
80.700	25.522	0.099
80.800	27.766	0.099
80.900	23.261	0.099
81.000	35.799	0.099
81.100	21.757	0.099
81.200	32.459	0.099
81.300	5.856	0.099
81.400	35.289	0.099
81.500	29.764	0.099
81.600	20.069	0.099
81.700	14.769	0.099
81.800	11.732	0.099
81.900	48.512	0.099
82.000	11.699	0.099
82.100	27.102	0.099
82.200	12.559	0.099
82.300	17.940	0.099
82.400	34.437	0.099
82.500	16.247	0.099
82.600	43.385	0.099
82.700	35.094	0.099
82.800	15.949	0.099
82.900	40.087	0.099
83.000	18.694	0.099
83.100	23.479	0.099
83.200	26.881	0.099
83.300	15.862	0.099
83.400	27.053	0.099
83.500	14.615	0.099
83.600	10.684	0.099
83.700	35.356	0.099
83.800	24.289	0.099
83.900	32.138	0.099
84.000	25.619	0.099
84.100	18.269	0.099
84.200	20.552	0.099
84.300	30.479	0.099
84.400	23.176	0.099
84.500	21.452	0.099
84.600	24.545	0.099
84.700	27.066	0.099
84.800	21.700	0.099
84.900	22.193	0.099
85.000	26.909	0.099
85.100	7.554	0.099
85.200	32.699	0.099
85.300	29.913	0.099
85.400	26.602	0.099
85.500	31.543	0.099
85.600	28.748	0.099
85.700	32.670	0.099
85.800	9.723	0.099
85.900	25.895	0.099
86.000	22.979	0.099
86.100	31.920	0.099
86.200	12.136	0.099
86.300	26.682	0.099
86.400	23.743	0.099
86.500	23.279	0.099
86.600	21.528	0.099
86.700	26.850	0.099
86.800	27.155	0.099
86.900	25.931	0.099
87.000	4.846	0.099
87.100	24.812	0.099
87.200	38.457	0.099
87.300	37.370	0.099
87.400	20.221	0.099
87.500	24.399	0.099
87.600	29.441	0.099
87.700	32.649	0.099
87.800	21.838	0.099
87.900	25.229	0.099
88.000	27.577	0.099
88.100	39.833	0.099
88.200	15.627	0.099
88.300	25.465	0.099
88.400	31.159	0.099
88.500	23.320	0.099
88.600	17.097	0.099
88.700	32.539	0.099
88.800	32.287	0.099
88.900	20.181	0.099
89.000	23.086	0.099
89.100	24.950	0.099
89.200	28.682	0.099
89.300	31.015	0.099
89.400	21.962	0.099
89.500	18.193	0.099
89.600	36.578	0.099
89.700	22.716	0.099
89.800	19.215	0.099
89.900	23.005	0.099
90.000	24.408	0.099
90.100	20.868	0.099
90.200	14.972	0.099
90.300	40.923	0.100
90.400	17.037	0.099
90.500	19.737	0.099
90.600	38.101	0.099
90.700	10.767	0.099
90.800	16.839	0.099
90.900	22.032	0.099
91.000	12.885	0.099
91.100	18.902	0.099
91.200	17.583	0.099
91.300	5.192	0.099
91.400	23.527	0.099
91.500	29.904	0.099
91.600	7.026	0.099
91.700	-1.565	0.099
91.800	12.445	0.099
91.900	20.450	0.099
92.000	2.915	0.099
92.100	20.882	0.100
92.200	-2.100	0.099
92.300	7.886	0.099
92.400	14.890	0.099
92.500	9.443	0.099
92.600	9.427	0.099
92.700	-0.802	0.099
92.800	-4.522	0.099
92.900	15.411	0.099
93.000	12.918	0.099
93.100	7.257	0.099
93.200	-1.940	0.099
93.300	10.263	0.099
93.400	-11.339	0.099
93.500	10.301	0.099
93.600	8.240	0.099
93.700	4.510	0.099
93.800	2.622	0.099
93.900	-17.539	0.099
94.000	7.301	0.099
94.100	4.128	0.099
94.200	-3.073	0.099
94.300	1.610	0.099
94.400	4.174	0.099
94.500	-4.533	0.099
94.600	-8.214	0.099
94.700	17.953	0.099
94.800	-3.640	0.099
94.900	-5.793	0.099
95.000	-0.616	0.099
95.100	7.196	0.099
95.200	0.009	0.099
95.300	-4.897	0.099
95.400	6.451	0.099
95.500	-0.735	0.099
95.600	2.328	0.099
95.700	0.352	0.100
95.800	-5.193	0.099
95.900	7.270	0.100
96.000	1.533	0.099
96.100	10.785	0.099
96.200	-1.652	0.099
96.300	-1.152	0.099
96.400	-3.969	0.099
96.500	7.279	0.099
96.600	-1.038	0.099
96.700	-0.544	0.100
96.800	-8.452	0.099
96.900	1.657	0.099
97.000	-1.167	0.100
97.100	-4.202	0.099
97.200	0.975	0.100
97.300	-11.904	0.099
97.400	-7.288	0.100
97.500	5.577	0.100
97.600	-15.467	0.100
97.700	5.377	0.099
97.800	0.540	0.100
97.900	-5.319	0.099
98.000	9.560	0.099
98.100	-6.695	0.099
98.200	9.371	0.099
98.300	-2.908	0.099
98.400	-12.242	0.099
98.500	-7.236	0.100
98.600	-6.573	0.099
98.700	1.433	0.100
98.800	-7.069	0.099
98.900	-8.205	0.099
99.000	-0.925	0.099
99.100	-1.414	0.100
99.200	-11.386	0.099
99.300	0.815	0.099
99.400	-0.459	0.099
99.500	-14.507	0.099
99.600	6.945	0.099
99.700	2.802	0.099
99.800	4.879	0.099
99.900	-3.193	0.099
100.000	0.895	0.100
100.100	-20.500	0.099
100.200	2.326	0.099
100.300	0.052	0.099
100.400	-5.319	0.099
100.500	-8.771	0.099
100.600	-8.631	0.099
100.700	2.261	0.100
100.800	0.547	0.099
100.900	-13.362	0.099
101.000	1.190	0.099
101.100	-2.739	0.099
101.200	4.027	0.099
101.300	-5.200	0.100
101.400	-0.121	0.100
101.500	-6.060	0.100
101.600	-7.822	0.099
101.700	-4.994	0.099
101.800	0.136	0.100
101.900	-1.600	0.099
102.000	-1.387	0.099
102.100	-1.431	0.099
102.200	-21.366	0.099
102.300	0.802	0.100
102.400	-2.303	0.099
102.500	-1.831	0.099
102.600	-7.359	0.099
102.700	-3.567	0.099
102.800	-0.005	0.099
102.900	-3.737	0.099
103.000	-21.498	0.099
103.100	-2.460	0.099
103.200	-5.362	0.099
103.300	-23.334	0.100
103.400	5.862	0.099
103.500	4.457	0.099
103.600	-18.895	0.099
103.700	-5.355	0.100
103.800	6.172	0.100
103.900	-8.437	0.099
104.000	-8.428	0.099
104.100	3.389	0.099
104.200	-10.997	0.100
104.300	-8.451	0.099
104.400	-1.910	0.100
104.500	-9.290	0.100
104.600	-0.404	0.099
104.700	-14.491	0.100
104.800	-2.625	0.100
104.900	-19.342	0.100
105.000	6.738	0.100
105.100	-5.934	0.099
105.200	-13.639	0.100
105.300	-6.930	0.100
105.400	-9.237	0.099
105.500	-6.875	0.099
105.600	-11.296	0.100
105.700	-7.693	0.099
105.800	2.144	0.099
105.900	-15.305	0.099
106.000	0.583	0.099
106.100	-0.762	0.100
106.200	-11.929	0.099
106.300	-16.965	0.099
106.400	-9.766	0.099
106.500	2.036	0.099
106.600	3.874	0.099
106.700	-12.202	0.099
106.800	4.005	0.099
106.900	-3.572	0.100
107.000	-7.187	0.100
107.100	-2.176	0.099
107.200	-6.158	0.099
107.300	-4.739	0.100
107.400	-9.608	0.099
107.500	-12.222	0.099
107.600	-12.921	0.099
107.700	-3.349	0.099
107.800	-10.547	0.099
107.900	4.662	0.099
108.000	-10.471	0.099
108.100	-4.912	0.099
108.200	-5.880	0.099
108.300	-23.162	0.099
108.400	-14.808	0.099
108.500	0.241	0.100
108.600	-15.484	0.099
108.700	-8.025	0.099
108.800	-25.285	0.099
108.900	-15.765	0.099
109.000	-9.477	0.100
109.100	-4.260	0.099
109.200	-16.689	0.100
109.300	-11.938	0.100
109.400	-15.454	0.099
109.500	-11.756	0.100
109.600	-6.362	0.100
109.700	5.689	0.100
109.800	-16.101	0.099
109.900	-16.263	0.100
110.000	-15.216	0.099
110.100	-11.280	0.100
110.200	-16.091	0.099
110.300	-11.873	0.100
110.400	2.165	0.099
110.500	-13.815	0.100
110.600	-6.609	0.100
110.700	-23.549	0.099
110.800	3.381	0.100
110.900	-3.714	0.100
111.000	-7.338	0.099
111.100	-15.440	0.100
111.200	-23.582	0.100
111.300	-20.347	0.100
111.400	-6.101	0.099
111.500	-1.499	0.099
111.600	-15.277	0.100
111.700	-9.005	0.100
111.800	-11.283	0.099
111.900	-13.445	0.100
112.000	-13.984	0.100
112.100	-17.589	0.100
112.200	-6.552	0.100
112.300	-1.938	0.100
112.400	-23.818	0.100
112.500	-10.322	0.099
112.600	-18.314	0.100
112.700	-4.324	0.100
112.800	-12.884	0.100
112.900	-17.252	0.100
113.000	-2.455	0.100
113.100	-19.547	0.100
113.200	-5.934	0.100
113.300	-10.051	0.100
113.400	-6.527	0.100
113.500	-17.075	0.100
113.600	-16.854	0.100
113.700	-6.984	0.100
113.800	-14.386	0.100
113.900	-18.541	0.099
114.000	-18.434	0.100
114.100	-14.307	0.100
114.200	-5.892	0.100
114.300	-18.234	0.100
114.400	-20.337	0.100
114.500	-2.277	0.100
114.600	-10.195	0.100
114.700	-17.217	0.100
114.800	-11.097	0.099
114.900	-1.066	0.100
115.000	-21.596	0.100
115.100	-11.220	0.100
115.200	-11.283	0.100
115.300	-19.070	0.100
115.400	-17.001	0.100
115.500	0.694	0.100
115.600	-10.933	0.100
115.700	-11.779	0.100
115.800	-3.918	0.100
115.900	-21.297	0.099
116.000	-9.124	0.100
116.100	-12.847	0.100
116.200	-25.673	0.100
116.300	-3.221	0.100
116.400	-14.840	0.100
116.500	-9.759	0.099
116.600	-13.501	0.100
116.700	1.533	0.100
116.800	-16.362	0.100
116.900	-23.003	0.100
117.000	-0.838	0.100
117.100	-19.096	0.100
117.200	-16.902	0.100
117.300	-8.081	0.100
117.400	-11.055	0.100
117.500	-22.665	0.100
117.600	-4.542	0.100
117.700	-14.785	0.100
117.800	-7.007	0.100
117.900	-22.392	0.100
118.000	-13.227	0.100
118.100	1.352	0.100
118.200	-9.115	0.100
118.300	-11.875	0.100
118.400	-16.893	0.100
118.500	-13.462	0.100
118.600	-12.793	0.100
118.700	-9.172	0.100
118.800	-12.414	0.100
118.900	-10.314	0.100
119.000	-14.336	0.100
119.100	-1.613	0.100
119.200	-17.926	0.100
119.300	-9.844	0.100
119.400	-6.984	0.100
119.500	-14.419	0.100
119.600	-8.357	0.100
119.700	-15.606	0.100
119.800	-14.174	0.100
119.900	-9.880	0.100
120.000	-14.525	0.100
120.100	-13.143	0.100
120.200	-3.507	0.100
120.300	-13.818	0.100
120.400	-16.030	0.100
120.500	-14.079	0.100
120.600	-10.921	0.100
120.700	-25.038	0.100
120.800	-17.442	0.100
120.900	-23.539	0.100
121.000	-9.419	0.100
121.100	-9.596	0.100
121.200	-13.475	0.100
121.300	-10.058	0.100
121.400	-17.024	0.100
121.500	-12.811	0.100
121.600	-6.852	0.100
121.700	-17.573	0.100
121.800	-14.718	0.100
121.900	-0.590	0.100
122.000	-14.851	0.100
122.100	-16.875	0.100
122.200	-0.631	0.100
122.300	-10.278	0.100
122.400	-24.291	0.100
122.500	-17.391	0.100
122.600	-7.711	0.100
122.700	1.679	0.100
122.800	-22.714	0.100
122.900	-8.121	0.100
123.000	-13.609	0.100
123.100	-23.204	0.100
123.200	0.507	0.100
123.300	-13.978	0.100
123.400	-26.383	0.100
123.500	-11.827	0.100
123.600	-9.253	0.100
123.700	-14.861	0.100
123.800	-24.072	0.100
123.900	-21.452	0.100
124.000	-7.593	0.100
124.100	-13.990	0.100
124.200	-4.017	0.100
124.300	-17.092	0.100
124.400	-11.895	0.100
124.500	-13.331	0.100
124.600	-20.536	0.100
124.700	-9.567	0.100
124.800	4.864	0.100
124.900	-19.341	0.100
125.000	-11.495	0.100
125.100	-5.786	0.100
125.200	-28.980	0.100
125.300	-10.112	0.100
125.400	-15.577	0.100
125.500	-8.237	0.100
125.600	-9.073	0.100
125.700	-7.951	0.100
125.800	-22.068	0.100
125.900	-8.119	0.100
126.000	-9.865	0.100
126.100	-16.607	0.100
126.200	-18.257	0.100
126.300	-7.151	0.100
126.400	-18.994	0.100
126.500	-18.271	0.100
126.600	-9.919	0.100
126.700	-14.122	0.100
126.800	-12.917	0.100
126.900	-7.233	0.100
127.000	-7.917	0.100
127.100	-6.946	0.100
127.200	-17.175	0.100
127.300	-5.630	0.100
127.400	-13.389	0.100
127.500	-12.514	0.100
127.600	-14.445	0.100
127.700	-26.458	0.100
127.800	-1.706	0.100
127.900	-13.156	0.100
128.000	-17.525	0.100
128.100	-24.333	0.100
128.200	-8.670	0.100
128.300	-9.250	0.100
128.400	-14.748	0.100
128.500	-4.570	0.100
128.600	-14.289	0.100
128.700	-15.848	0.100
128.800	-19.256	0.100
128.900	-16.886	0.100
129.000	-16.522	0.100
129.100	-4.562	0.100
129.200	-20.828	0.100
129.300	-29.246	0.100
129.400	5.465	0.100
129.500	-17.903	0.100
129.600	-19.309	0.100
129.700	-2.028	0.100
129.800	-18.429	0.100
129.900	-4.036	0.100
130.000	-35.235	0.100
130.100	-13.675	0.100
130.200	-6.207	0.100
130.300	-6.354	0.100
130.400	-19.731	0.100
130.500	-12.326	0.100
130.600	-8.013	0.100
130.700	-24.775	0.100
130.800	-6.036	0.100
130.900	-25.949	0.100
131.000	-15.733	0.100
131.100	-2.548	0.100
131.200	-8.222	0.100
131.300	-5.346	0.100
131.400	0.472	0.100
131.500	-4.991	0.100
131.600	-3.041	0.100
131.700	-17.997	0.100
131.800	-18.049	0.100
131.900	-10.981	0.100
132.000	-13.695	0.100
132.100	-16.469	0.100
132.200	-14.147	0.100
132.300	-18.898	0.100
132.400	-21.355	0.100
132.500	-12.371	0.100
132.600	-7.148	0.100
132.700	-8.973	0.100
132.800	0.182	0.100
132.900	-18.033	0.100
133.000	-6.992	0.100
133.100	-24.789	0.100
133.200	-12.581	0.100
133.300	-19.321	0.100
133.400	-14.504	0.100
133.500	-16.451	0.100
133.600	-5.645	0.100
133.700	-19.559	0.100
133.800	-15.567	0.100
133.900	-26.322	0.100
134.000	-11.263	0.100
134.100	-20.983	0.100
134.200	-5.222	0.100
134.300	2.446	0.100
134.400	-16.864	0.100
134.500	-19.517	0.100
134.600	-10.457	0.100
134.700	-4.201	0.100
134.800	-9.556	0.100
134.900	-1.859	0.100
135.000	-15.867	0.100
135.100	-12.147	0.100
135.200	-18.633	0.100
135.300	-11.204	0.100
135.400	-3.184	0.100
135.500	-14.155	0.100
135.600	-8.110	0.100
135.700	-10.530	0.100
135.800	-7.823	0.100
135.900	-28.033	0.100
136.000	-6.055	0.100
136.100	-25.370	0.100
136.200	-16.909	0.100
136.300	-7.846	0.100
136.400	-22.192	0.100
136.500	-12.440	0.100
136.600	-10.721	0.100
136.700	-7.885	0.100
136.800	-10.805	0.100
136.900	-3.072	0.100
137.000	8.193	0.100
137.100	-7.510	0.100
137.200	-14.854	0.100
137.300	-23.503	0.100
137.400	-13.389	0.100
137.500	-17.430	0.100
137.600	-22.330	0.100
137.700	-4.278	0.100
137.800	-6.406	0.100
137.900	-20.570	0.100
138.000	-19.204	0.100
138.100	-19.438	0.100
138.200	-9.994	0.100
138.300	-10.708	0.100
138.400	-4.112	0.100
138.500	-6.238	0.100
138.600	-43.615	0.100
138.700	-3.600	0.100
138.800	-18.809	0.100
138.900	-17.889	0.100
139.000	-5.938	0.100
139.100	-10.473	0.100
139.200	-13.257	0.100
139.300	-12.473	0.100
139.400	-11.313	0.100
139.500	0.106	0.100
139.600	-25.429	0.100
139.700	-16.552	0.100
139.800	-19.266	0.100
139.900	-15.349	0.100
140.000	-9.020	0.100
140.100	-15.500	0.100
140.200	-11.664	0.100
140.300	-10.933	0.100
140.400	-3.803	0.100
140.500	-16.680	0.100
140.600	-7.260	0.100
140.700	-6.206	0.100
140.800	-10.684	0.100
140.900	-16.797	0.100
141.000	-4.884	0.100
141.100	-5.275	0.100
141.200	-4.262	0.100
141.300	-24.483	0.100
141.400	-17.241	0.100
141.500	-9.726	0.100
141.600	-14.336	0.100
141.700	-6.346	0.100
141.800	-18.005	0.100
141.900	-13.495	0.100
142.000	-17.530	0.100
142.100	-15.012	0.100
142.200	-3.891	0.100
142.300	-11.189	0.100
142.400	-17.086	0.100
142.500	-3.862	0.100
142.600	-15.535	0.100
142.700	-13.627	0.100
142.800	-6.757	0.100
142.900	-20.473	0.100
143.000	5.028	0.100
143.100	-6.604	0.100
143.200	-7.159	0.100
143.300	-13.470	0.100
143.400	-14.618	0.100
143.500	-12.550	0.100
143.600	-9.137	0.100
143.700	-13.969	0.100
143.800	-9.345	0.100
143.900	-6.328	0.100
144.000	-13.490	0.100
144.100	-21.614	0.100
144.200	-12.335	0.100
144.300	-20.048	0.100
144.400	-9.503	0.100
144.500	-1.593	0.100
144.600	-6.245	0.100
144.700	-5.332	0.100
144.800	-17.696	0.100
144.900	-14.811	0.100
145.000	7.378	0.100
145.100	-9.324	0.100
145.200	-11.652	0.100
145.300	-8.650	0.100
145.400	4.191	0.100
145.500	-22.154	0.100
145.600	-13.609	0.100
145.700	-7.334	0.100
145.800	-6.233	0.100
145.900	-3.996	0.100
146.000	-23.653	0.100
146.100	-6.357	0.100
146.200	-12.461	0.100
146.300	-15.400	0.100
146.400	-9.683	0.100
146.500	-2.040	0.100
146.600	-13.746	0.100
146.700	-15.227	0.100
146.800	-6.056	0.100
146.900	-11.936	0.100
147.000	-5.790	0.100
147.100	1.276	0.100
147.200	-1.345	0.100
147.300	-6.381	0.100
147.400	-15.789	0.100
147.500	-17.729	0.100
147.600	-23.698	0.100
147.700	-4.438	0.100
147.800	-3.174	0.100
147.900	-1.573	0.100
148.000	-13.324	0.100
148.100	-6.469	0.100
148.200	0.729	0.100
148.300	-12.961	0.100
148.400	-7.207	0.100
148.500	-5.421	0.100
148.600	-11.266	0.100
148.700	-1.127	0.100
148.800	-7.529	0.100
148.900	-7.270	0.100
149.000	-6.127	0.100
149.100	-15.416	0.100
149.200	0.067	0.100
149.300	-10.406	0.100
149.400	-10.904	0.100
149.500	-25.606	0.100
149.600	1.507	0.100
149.700	-11.996	0.100
149.800	-19.165	0.100
149.900	-13.633	0.100
150.000	-7.042	0.100
150.100	3.543	0.100
150.200	-22.370	0.100
150.300	1.332	0.100
150.400	-8.954	0.100
150.500	-13.526	0.100
150.600	-21.537	0.100
150.700	-10.478	0.100
150.800	-1.459	0.100
150.900	-11.108	0.100
151.000	-13.187	0.100
151.100	-3.127	0.100
151.200	-6.938	0.100
151.300	-18.492	0.100
151.400	-0.681	0.100
151.500	-15.048	0.100
151.600	-18.440	0.100
151.700	-2.598	0.100
151.800	-12.234	0.100
151.900	-1.522	0.100
152.000	-12.077	0.100
152.100	-12.373	0.100
152.200	6.660	0.100
152.300	-10.838	0.100
152.400	-18.594	0.100
152.500	-0.618	0.100
152.600	-6.395	0.100
152.700	-17.489	0.100
152.800	-10.754	0.100
152.900	-8.584	0.100
153.000	10.848	0.100
153.100	-15.628	0.100
153.200	5.651	0.100
153.300	-14.537	0.100
153.400	-11.698	0.100
153.500	-12.904	0.100
153.600	7.770	0.100
153.700	-16.861	0.100
153.800	-8.615	0.100
153.900	-6.805	0.100
154.000	-4.232	0.100
154.100	-5.684	0.100
154.200	-8.197	0.100
154.300	-19.380	0.100
154.400	5.263	0.100
154.500	-5.406	0.100
154.600	-11.782	0.100
154.700	-6.837	0.100
154.800	-21.936	0.100
154.900	-15.760	0.100
155.000	-11.559	0.100
155.100	6.916	0.100
155.200	1.631	0.100
155.300	-17.071	0.100
155.400	-12.261	0.100
155.500	-4.611	0.100
155.600	-4.833	0.100
155.700	-14.931	0.100
155.800	-13.371	0.100
155.900	-3.507	0.100
156.000	-11.946	0.100
156.100	-8.060	0.100
156.200	-0.655	0.100
156.300	-3.806	0.100
156.400	-4.893	0.100
156.500	-16.478	0.100
156.600	0.921	0.100
156.700	-4.301	0.100
156.800	-6.630	0.100
156.900	-5.303	0.100
157.000	-6.041	0.100
157.100	-8.312	0.100
157.200	-9.286	0.100
157.300	0.498	0.100
157.400	-9.721	0.100
157.500	-18.212	0.100
157.600	-10.094	0.100
157.700	-2.326	0.100
157.800	4.029	0.100
157.900	-1.777	0.100
158.000	-20.737	0.100
158.100	-20.999	0.100
158.200	-16.211	0.100
158.300	-0.928	0.100
158.400	-0.437	0.100
158.500	-12.903	0.100
158.600	-13.678	0.100
158.700	2.083	0.100
158.800	-17.548	0.100
158.900	-6.886	0.100
159.000	-1.686	0.100
159.100	-20.328	0.100
159.200	-12.999	0.100
159.300	1.149	0.100
159.400	-8.105	0.100
159.500	-18.296	0.100
159.600	-7.350	0.100
159.700	-8.750	0.100
159.800	-3.734	0.100
159.900	4.508	0.100
160.000	-19.305	0.100
160.100	-2.411	0.100
160.200	-15.119	0.100
160.300	-1.146	0.100
160.400	-8.650	0.100
160.500	-6.401	0.100
160.600	1.181	0.100
160.700	-15.536	0.100
160.800	-4.313	0.100
160.900	-13.338	0.100
161.000	-12.167	0.100
161.100	-4.308	0.100
161.200	-4.594	0.100
161.300	-9.066	0.100
161.400	-7.220	0.100
161.500	4.266	0.100
161.600	-11.574	0.100
161.700	-13.308	0.100
161.800	-10.257	0.100
161.900	4.414	0.100
162.000	-20.785	0.100
162.100	-16.545	0.100
162.200	0.058	0.100
162.300	3.438	0.100
162.400	-9.506	0.100
162.500	3.724	0.100
162.600	-10.929	0.100
162.700	12.042	0.100
162.800	-0.380	0.100
162.900	-5.505	0.100
163.000	-11.351	0.099
163.100	-4.090	0.099
163.200	0.694	0.100
163.300	-1.977	0.100
163.400	-9.589	0.100
163.500	-14.268	0.099
163.600	-10.775	0.100
163.700	-15.435	0.100
163.800	-8.332	0.100
163.900	7.359	0.100
164.000	-7.229	0.100
164.100	-6.718	0.100
164.200	1.251	0.100
164.300	-9.657	0.100
164.400	-9.278	0.100
164.500	-2.231	0.100
164.600	-6.983	0.100
164.700	-11.084	0.100
164.800	-4.299	0.100
164.900	-20.169	0.100
165.000	-3.304	0.100
165.100	-15.071	0.100
165.200	-9.858	0.099
165.300	-2.698	0.100
165.400	-2.417	0.100
165.500	-5.818	0.100
165.600	-5.210	0.100
165.700	-17.088	0.100
165.800	-2.621	0.100
165.900	-16.482	0.100
166.000	-16.464	0.100
166.100	4.959	0.100
166.200	-26.336	0.099
166.300	12.575	0.100
166.400	-15.687	0.100
166.500	0.897	0.100
166.600	-5.442	0.100
166.700	-14.886	0.100
166.800	-6.628	0.100
166.900	-5.910	0.100
167.000	-4.783	0.100
167.100	-1.222	0.100
167.200	-3.953	0.099
167.300	-5.995	0.100
167.400	-11.505	0.100
167.500	-4.488	0.100
167.600	-16.639	0.099
167.700	11.540	0.099
167.800	-3.813	0.099
167.900	-3.054	0.099
168.000	-12.507	0.099
168.100	-12.874	0.099
168.200	0.301	0.099
168.300	-6.993	0.099
168.400	-13.768	0.099
168.500	-7.617	0.099
168.600	7.762	0.099
168.700	-18.428	0.099
168.800	-11.784	0.099
168.900	-0.569	0.099
169.000	-9.126	0.099
169.100	-19.768	0.099
169.200	-0.713	0.099
169.300	-0.410	0.099
169.400	-21.020	0.099
169.500	1.952	0.099
169.600	-4.131	0.099
169.700	1.600	0.099
169.800	-17.417	0.099
169.900	-12.401	0.099
170.000	4.907	0.099
170.100	-1.943	0.099
170.200	-9.110	0.099
170.300	-16.636	0.099
170.400	0.105	0.099
170.500	-8.636	0.099
170.600	-23.634	0.099
170.700	5.460	0.099
170.800	-6.648	0.099
170.900	-11.010	0.099
171.000	-11.193	0.099
171.100	-17.250	0.099
171.200	-6.914	0.099
171.300	7.305	0.099
171.400	-9.596	0.099
171.500	-8.572	0.099
171.600	-9.720	0.099
171.700	-14.118	0.099
171.800	-9.530	0.099
171.900	1.251	0.099
172.000	-0.147	0.099
172.100	-21.652	0.099
172.200	-4.265	0.099
172.300	-5.037	0.099
172.400	-5.174	0.099
172.500	-6.158	0.099
172.600	0.226	0.099
172.700	-9.283	0.099
172.800	-21.907	0.099
172.900	0.618	0.099
173.000	4.184	0.099
173.100	-13.924	0.099
173.200	2.647	0.099
173.300	-16.053	0.099
173.400	-12.148	0.099
173.500	-7.853	0.099
173.600	-7.681	0.099
173.700	-4.504	0.099
173.800	-9.816	0.099
173.900	0.759	0.099
174.000	-12.371	0.099
174.100	-7.253	0.099
174.200	-10.456	0.099
174.300	-1.305	0.099
174.400	-11.645	0.099
174.500	-17.651	0.099
174.600	3.141	0.099
174.700	-4.248	0.099
174.800	-10.197	0.099
174.900	-15.126	0.099
175.000	-9.719	0.099
175.100	-4.894	0.099
175.200	-2.737	0.099
175.300	-5.525	0.099
175.400	-25.263	0.099
175.500	2.401	0.099
175.600	-14.077	0.099
175.700	-11.145	0.099
175.800	-7.279	0.099
175.900	-2.882	0.099
176.000	-11.562	0.099
176.100	-8.577	0.099
176.200	-0.776	0.099
176.300	-15.758	0.099
176.400	-18.914	0.099
176.500	-4.631	0.099
176.600	5.892	0.099
176.700	-6.852	0.099
176.800	-11.169	0.099
176.900	-4.420	0.099
177.000	-11.755	0.099
177.100	-7.567	0.099
177.200	-9.098	0.099
177.300	-11.783	0.099
177.400	-2.625	0.099
177.500	2.703	0.099
177.600	-12.125	0.099
177.700	-8.353	0.099
177.800	-12.220	0.099
177.900	-15.094	0.099
178.000	-9.913	0.099
178.100	-5.178	0.099
178.200	-16.834	0.099
178.300	5.186	0.099
178.400	-7.906	0.099
178.500	-8.247	0.099
178.600	-4.404	0.099
178.700	-2.469	0.099
178.800	-6.975	0.099
178.900	-9.004	0.099
179.000	-4.940	0.099
179.100	-29.299	0.099
179.200	-3.217	0.099
179.300	13.175	0.099
179.400	-9.404	0.099
179.500	-16.447	0.099
179.600	-6.704	0.099
179.700	1.458	0.099
179.800	-5.304	0.099
179.900	-4.414	0.099
180.000	-10.276	0.099
180.100	-9.400	0.099
180.200	-1.139	0.099
180.300	-22.828	0.099
180.400	2.615	0.099
180.500	-11.372	0.099
180.600	-7.064	0.099
180.700	-14.514	0.099
180.800	12.728	0.099
180.900	-16.612	0.099
181.000	0.759	0.099
181.100	-4.324	0.099
181.200	-1.759	0.099
181.300	-1.171	0.099
181.400	-1.805	0.099
181.500	-15.425	0.099
181.600	6.981	0.099
181.700	0.580	0.099
181.800	16.701	0.099
181.900	2.250	0.099
182.000	6.198	0.099
182.100	8.254	0.099
182.200	7.664	0.099
182.300	21.740	0.099
182.400	6.015	0.099
182.500	10.454	0.099
182.600	-0.436	0.099
182.700	5.455	0.099
182.800	0.601	0.099
182.900	10.471	0.099
183.000	13.091	0.099
183.100	20.409	0.099
183.200	10.175	0.099
183.300	16.482	0.099
183.400	-12.573	0.099
183.500	21.104	0.099
183.600	-0.556	0.099
183.700	18.094	0.099
183.800	14.404	0.099
183.900	16.754	0.099
184.000	11.498	0.099
184.100	11.162	0.099
184.200	8.468	0.099
184.300	5.504	0.099
184.400	13.338	0.099
184.500	22.338	0.099
184.600	18.810	0.099
184.700	13.953	0.099
184.800	12.709	0.099
184.900	13.112	0.099
185.000	1.935	0.099
185.100	15.456	0.099
185.200	6.767	0.099
185.300	16.741	0.099
185.400	9.957	0.099
185.500	13.415	0.099
185.600	19.668	0.099
185.700	19.036	0.099
185.800	16.019	0.099
185.900	14.730	0.099
186.000	24.779	0.099
186.100	6.347	0.099
186.200	14.449	0.099
186.300	4.586	0.099
186.400	19.993	0.099
186.500	21.063	0.099
186.600	9.430	0.099
186.700	18.600	0.099
186.800	17.179	0.099
186.900	4.299	0.099
187.000	16.092	0.099
187.100	18.552	0.099
187.200	14.630	0.099
187.300	21.575	0.099
187.400	14.406	0.099
187.500	19.552	0.099
187.600	22.907	0.099
187.700	13.386	0.099
187.800	14.641	0.099
187.900	24.079	0.099
188.000	12.990	0.099
188.100	11.647	0.099
188.200	7.295	0.099
188.300	26.239	0.099
188.400	13.254	0.099
188.500	23.368	0.099
188.600	11.086	0.099
188.700	13.853	0.099
188.800	29.292	0.099
188.900	7.787	0.099
189.000	31.308	0.099
189.100	22.156	0.099
189.200	19.551	0.099
189.300	8.337	0.099
189.400	25.286	0.099
189.500	36.264	0.099
189.600	4.187	0.099
189.700	11.002	0.099
189.800	20.274	0.099
189.900	26.260	0.099
190.000	23.068	0.099
190.100	13.149	0.099
190.200	28.960	0.099
190.300	19.663	0.099
190.400	9.665	0.099
190.500	27.538	0.099
190.600	34.142	0.099
190.700	18.861	0.099
190.800	23.213	0.099
190.900	21.580	0.099
191.000	27.571	0.099
191.100	19.628	0.099
191.200	22.840	0.099
191.300	18.965	0.099
191.400	16.100	0.099
191.500	33.457	0.099
191.600	20.585	0.099
191.700	28.568	0.099
191.800	27.808	0.099
191.900	26.614	0.099
192.000	24.636	0.099
192.100	26.098	0.099
192.200	25.155	0.099
192.300	24.295	0.099
192.400	23.023	0.099
192.500	17.202	0.099
192.600	33.696	0.099
192.700	19.689	0.099
192.800	26.579	0.099
192.900	22.389	0.099
193.000	35.432	0.099
193.100	23.945	0.099
193.200	27.451	0.099
193.300	17.496	0.099
193.400	24.787	0.099
193.500	37.623	0.099
193.600	6.610	0.099
193.700	25.567	0.099
193.800	33.834	0.099
193.900	30.611	0.099
194.000	27.392	0.099
194.100	22.714	0.099
194.200	29.925	0.099
194.300	23.906	0.099
194.400	36.787	0.099
194.500	15.640	0.099
194.600	24.115	0.099
194.700	31.812	0.099
194.800	27.840	0.099
194.900	29.356	0.099
195.000	28.551	0.099
195.100	28.439	0.099
195.200	22.807	0.099
195.300	23.109	0.099
195.400	40.640	0.099
195.500	34.255	0.099
195.600	29.184	0.099
195.700	20.280	0.099
195.800	27.656	0.099
195.900	29.871	0.099
196.000	30.016	0.099
196.100	26.868	0.099
196.200	40.085	0.099
196.300	25.313	0.099
196.400	28.408	0.099
196.500	17.735	0.099
196.600	29.951	0.099
196.700	40.974	0.099
196.800	24.734	0.099
196.900	33.558	0.099
197.000	33.376	0.099
197.100	32.744	0.099
197.200	24.497	0.099
197.300	14.945	0.099
197.400	20.923	0.099
197.500	27.926	0.099
197.600	26.446	0.099
197.700	26.369	0.099
197.800	25.103	0.099
197.900	30.445	0.099
198.000	32.911	0.099
198.100	32.568	0.099
198.200	34.678	0.099
198.300	37.635	0.099
198.400	39.727	0.099
198.500	24.310	0.099
198.600	28.920	0.099
198.700	42.514	0.099
198.800	34.094	0.099
198.900	16.033	0.099
199.000	27.669	0.099
199.100	38.749	0.099
199.200	26.661	0.099
199.300	18.640	0.099
199.400	24.463	0.099
199.500	21.278	0.099
199.600	44.636	0.099
199.700	28.706	0.099
199.800	11.237	0.099
199.900	42.886	0.099
200.000	22.186	0.099
200.100	29.317	0.099
200.200	39.844	0.099
200.300	23.055	0.099
200.400	32.541	0.099
200.500	41.071	0.099
200.600	29.420	0.099
200.700	30.880	0.099
200.800	25.208	0.099
200.900	33.996	0.099
201.000	20.636	0.099
201.100	31.062	0.099
201.200	40.826	0.099
201.300	29.958	0.099
201.400	19.155	0.099
201.500	31.990	0.099
201.600	29.282	0.099
201.700	31.914	0.099
201.800	25.321	0.099
201.900	31.867	0.099
202.000	19.880	0.099
202.100	30.123	0.099
202.200	24.295	0.099
202.300	30.354	0.099
202.400	40.704	0.099
202.500	30.145	0.099
202.600	29.860	0.099
202.700	37.720	0.099
202.800	29.096	0.099
202.900	18.500	0.099
203.000	39.220	0.099
203.100	17.697	0.099
203.200	37.089	0.099
203.300	38.439	0.099
203.400	31.772	0.099
203.500	30.773	0.099
203.600	42.171	0.099
203.700	40.100	0.099
203.800	41.646	0.099
203.900	18.504	0.099
204.000	26.217	0.099
204.100	34.909	0.099
204.200	27.914	0.099
204.300	25.186	0.099
204.400	31.522	0.099
204.500	25.092	0.099
204.600	27.223	0.099
204.700	33.315	0.099
204.800	31.765	0.099
204.900	34.338	0.099
205.000	18.574	0.099
205.100	33.886	0.099
205.200	33.037	0.099
205.300	38.579	0.099
205.400	27.746	0.099
205.500	32.746	0.099
205.600	18.604	0.099
205.700	15.047	0.099
205.800	36.455	0.099
205.900	34.796	0.099
206.000	7.372	0.099
206.100	30.980	0.099
206.200	32.648	0.099
206.300	25.929	0.099
206.400	37.219	0.099
206.500	33.022	0.099
206.600	31.561	0.099
206.700	27.022	0.099
206.800	33.330	0.099
206.900	42.871	0.099
207.000	38.724	0.099
207.100	21.542	0.099
207.200	29.909	0.099
207.300	30.341	0.099
207.400	33.236	0.099
207.500	29.981	0.099
207.600	31.685	0.099
207.700	18.639	0.099
207.800	25.225	0.099
207.900	27.602	0.099
208.000	20.852	0.099
208.100	33.184	0.099
208.200	20.198	0.099
208.300	36.876	0.099
208.400	19.202	0.099
208.500	47.475	0.099
208.600	18.030	0.099
208.700	27.432	0.099
208.800	32.068	0.099
208.900	22.464	0.099
209.000	29.651	0.099
209.100	34.418	0.099
209.200	30.414	0.099
209.300	18.557	0.099
209.400	40.212	0.099
209.500	18.651	0.099
209.600	29.169	0.099
209.700	38.358	0.099
209.800	12.379	0.099
209.900	32.870	0.099
210.000	30.208	0.099
210.100	18.144	0.099
210.200	21.704	0.099
210.300	40.805	0.099
210.400	32.068	0.099
210.500	22.002	0.099
210.600	23.694	0.099
210.700	22.407	0.099
210.800	32.400	0.099
210.900	39.978	0.099
211.000	29.605	0.099
211.100	34.821	0.099
211.200	31.512	0.099
211.300	32.605	0.099
211.400	18.668	0.099
211.500	28.757	0.099
211.600	23.973	0.099
211.700	40.152	0.099
211.800	42.287	0.099
211.900	20.455	0.099
212.000	26.349	0.099
212.100	28.344	0.099
212.200	25.867	0.099
212.300	34.098	0.099
212.400	19.943	0.099
212.500	40.327	0.099
212.600	17.811	0.099
212.700	28.641	0.099
212.800	27.788	0.099
212.900	28.603	0.099
213.000	26.334	0.099
213.100	29.690	0.099
213.200	24.477	0.099
213.300	27.262	0.099
213.400	28.353	0.099
213.500	35.665	0.099
213.600	24.792	0.099
213.700	25.822	0.099
213.800	28.729	0.099
213.900	39.102	0.099
214.000	28.547	0.099
214.100	22.336	0.099
214.200	22.402	0.099
214.300	32.931	0.099
214.400	26.653	0.099
214.500	23.792	0.099
214.600	24.691	0.099
214.700	37.712	0.099
214.800	29.453	0.099
214.900	15.228	0.099
215.000	26.471	0.099
215.100	19.722	0.099
215.200	29.494	0.099
215.300	41.754	0.099
215.400	26.438	0.099
215.500	24.731	0.099
215.600	30.028	0.099
215.700	25.461	0.099
215.800	27.323	0.099
215.900	30.944	0.099
216.000	33.624	0.099
216.100	26.788	0.099
216.200	30.452	0.099
216.300	20.624	0.099
216.400	29.775	0.099
216.500	33.059	0.099
216.600	41.713	0.099
216.700	26.812	0.099
216.800	23.646	0.099
216.900	23.785	0.099
217.000	33.062	0.099
217.100	15.963	0.099
217.200	38.471	0.099
217.300	18.922	0.099
217.400	34.878	0.099
217.500	27.361	0.099
217.600	27.289	0.099
217.700	22.847	0.099
217.800	31.085	0.099
217.900	33.494	0.099
218.000	29.048	0.099
218.100	32.449	0.099
218.200	28.193	0.099
218.300	31.264	0.099
218.400	31.036	0.099
218.500	11.370	0.099
218.600	29.566	0.099
218.700	20.812	0.099
218.800	16.849	0.099
218.900	24.894	0.099
219.000	20.565	0.099
219.100	24.418	0.099
219.200	23.528	0.099
219.300	31.749	0.099
219.400	31.207	0.099
219.500	32.046	0.099
219.600	35.896	0.099
219.700	6.480	0.099
219.800	34.905	0.099
219.900	26.889	0.099
220.000	34.434	0.099
220.100	34.383	0.099
220.200	26.608	0.099
220.300	26.095	0.099
220.400	13.994	0.099
220.500	20.212	0.099
220.600	26.318	0.099
220.700	25.939	0.099
220.800	23.314	0.099
220.900	29.713	0.099
221.000	30.744	0.099
221.100	24.121	0.099
221.200	18.293	0.099
221.300	37.954	0.099
221.400	33.658	0.099
221.500	23.766	0.099
221.600	13.327	0.099
221.700	37.935	0.099
221.800	28.200	0.099
221.900	19.774	0.099
222.000	18.363	0.099
222.100	33.197	0.099
222.200	34.999	0.099
222.300	37.371	0.099
222.400	37.452	0.099
222.500	39.460	0.099
222.600	20.463	0.099
222.700	17.552	0.099
222.800	17.845	0.099
222.900	30.567	0.099
223.000	25.686	0.099
223.100	33.490	0.099
223.200	24.327	0.099
223.300	35.142	0.099
223.400	20.291	0.099
223.500	25.573	0.099
223.600	42.756	0.099
223.700	27.244	0.099
223.800	24.825	0.099
223.900	21.054	0.099
224.000	23.436	0.099
224.100	18.087	0.099
224.200	31.008	0.099
224.300	25.580	0.100
224.400	26.823	0.100
224.500	23.402	0.100
224.600	16.736	0.100
224.700	27.514	0.100
224.800	26.039	0.100
224.900	31.999	0.100
225.000	31.057	0.100
225.100	24.016	0.100
225.200	19.263	0.100
225.300	28.640	0.100
225.400	30.660	0.100
225.500	18.959	0.100
225.600	45.813	0.100
225.700	27.429	0.100
225.800	17.267	0.100
225.900	34.316	0.100
226.000	35.798	0.100
226.100	28.917	0.100
226.200	28.822	0.100
226.300	25.021	0.100
226.400	30.960	0.100
226.500	32.841	0.100
226.600	21.907	0.100
226.700	14.227	0.100
226.800	27.191	0.100
226.900	27.277	0.100
227.000	17.654	0.100
227.100	26.209	0.100
227.200	28.614	0.100
227.300	23.671	0.100
227.400	34.231	0.100
227.500	16.278	0.100
227.600	19.165	0.100
227.700	34.727	0.100
227.800	37.433	0.100
227.900	33.079	0.100
228.000	21.587	0.100
228.100	44.019	0.100
228.200	23.258	0.100
228.300	24.274	0.100
228.400	25.563	0.100
228.500	36.807	0.099
228.600	20.540	0.100
228.700	19.708	0.100
228.800	23.727	0.100
228.900	27.296	0.100
229.000	25.962	0.100
229.100	30.803	0.099
229.200	26.027	0.100
229.300	4.771	0.100
229.400	39.375	0.099
229.500	31.500	0.100
229.600	23.960	0.100
229.700	33.492	0.100
229.800	27.105	0.099
229.900	27.979	0.099
230.000	23.069	0.099
230.100	30.281	0.099
230.200	25.592	0.099
230.300	21.705	0.099
230.400	29.855	0.099
230.500	19.086	0.099
230.600	36.537	0.099
230.700	28.409	0.099
230.800	26.549	0.099
230.900	19.504	0.099
231.000	14.626	0.099
231.100	23.125	0.099
231.200	36.268	0.099
231.300	27.486	0.099
231.400	22.096	0.099
231.500	25.669	0.099
231.600	18.320	0.099
231.700	11.526	0.099
231.800	18.263	0.099
231.900	40.406	0.099
232.000	16.679	0.099
232.100	30.362	0.099
232.200	27.915	0.099
232.300	14.364	0.099
232.400	22.158	0.099
232.500	35.083	0.099
232.600	25.720	0.099
232.700	28.776	0.099
232.800	27.511	0.099
232.900	26.785	0.099
233.000	32.348	0.099
233.100	26.135	0.099
233.200	20.664	0.099
233.300	37.074	0.099
233.400	30.989	0.099
233.500	17.339	0.099
233.600	22.789	0.099
233.700	27.574	0.099
233.800	27.062	0.099
233.900	23.826	0.099
234.000	33.368	0.099
234.100	24.987	0.099
234.200	20.484	0.099
234.300	24.560	0.099
234.400	17.262	0.099
234.500	27.833	0.099
234.600	23.183	0.099
234.700	26.292	0.099
234.800	35.937	0.099
234.900	28.035	0.099
235.000	42.817	0.099
235.100	18.775	0.099
235.200	21.970	0.099
235.300	25.093	0.099
235.400	22.606	0.099
235.500	23.558	0.099
235.600	20.580	0.099
235.700	12.282	0.099
235.800	31.358	0.099
235.900	27.138	0.099
236.000	25.373	0.099
236.100	23.686	0.099
236.200	19.213	0.099
236.300	35.190	0.099
236.400	17.872	0.099
236.500	32.257	0.099
236.600	25.448	0.099
236.700	15.113	0.099
236.800	24.485	0.099
236.900	26.145	0.099
237.000	26.425	0.099
237.100	27.453	0.099
237.200	26.071	0.099
237.300	24.305	0.099
237.400	30.325	0.099
237.500	33.712	0.099
237.600	12.013	0.099
237.700	9.193	0.099
237.800	38.390	0.099
237.900	20.318	0.099
238.000	33.044	0.099
238.100	23.516	0.099
238.200	26.235	0.099
238.300	18.361	0.099
238.400	30.791	0.099
238.500	24.393	0.099
238.600	20.221	0.099
238.700	2.345	0.099
238.800	26.971	0.099
238.900	30.289	0.099
239.000	28.286	0.099
239.100	16.564	0.099
239.200	19.344	0.099
239.300	23.676	0.099
239.400	22.908	0.099
239.500	31.921	0.099
239.600	11.783	0.099
239.700	33.148	0.099
239.800	24.786	0.099
239.900	24.494	0.099
240.000	22.250	0.099
240.100	29.699	0.099
240.200	24.225	0.099
240.300	28.965	0.099
240.400	22.824	0.099
240.500	30.031	0.099
240.600	15.894	0.099
240.700	18.799	0.099
240.800	10.518	0.099
240.900	16.148	0.099
241.000	19.337	0.099
241.100	23.454	0.099
241.200	10.312	0.099
241.300	7.340	0.099
241.400	5.975	0.099
241.500	17.532	0.099
241.600	15.330	0.099
241.700	7.144	0.099
241.800	11.250	0.099
241.900	3.094	0.099
242.000	6.018	0.099
242.100	6.330	0.099
242.200	15.805	0.099
242.300	-0.012	0.099
242.400	1.265	0.099
242.500	-6.484	0.099
242.600	5.074	0.099
242.700	0.486	0.099
242.800	14.058	0.099
242.900	-8.101	0.099
243.000	2.542	0.099
243.100	3.541	0.099
243.200	1.877	0.099
243.300	0.195	0.099
243.400	7.417	0.099
243.500	-1.787	0.099
243.600	-5.765	0.099
243.700	-2.468	0.099
243.800	10.148	0.099
243.900	-18.477	0.099
244.000	-0.980	0.099
244.100	-5.121	0.099
244.200	-13.264	0.099
244.300	-8.808	0.099
244.400	9.172	0.099
244.500	1.208	0.099
244.600	-9.554	0.099
244.700	14.107	0.099
244.800	-12.175	0.099
244.900	-1.499	0.099
245.000	4.636	0.099
245.100	-13.403	0.099
245.200	-5.031	0.099
245.300	-9.301	0.099
245.400	-1.981	0.099
245.500	5.497	0.099
245.600	1.298	0.099
245.700	-2.412	0.099
245.800	-12.522	0.099
245.900	-15.060	0.099
246.000	3.662	0.099
246.100	-0.298	0.099
246.200	-10.725	0.099
246.300	-5.311	0.099
246.400	-3.231	0.099
246.500	-13.332	0.099
246.600	-5.363	0.099
246.700	-7.327	0.099
246.800	-15.957	0.099
246.900	2.194	0.099
247.000	-0.778	0.099
247.100	-1.869	0.099
247.200	-17.818	0.099
247.300	1.146	0.099
247.400	-11.290	0.099
247.500	-6.001	0.099
247.600	-6.978	0.099
247.700	-24.178	0.099
247.800	7.428	0.099
247.900	3.743	0.099
248.000	-16.387	0.099
248.100	-8.142	0.099
248.200	-3.053	0.099
248.300	-8.540	0.099
248.400	-2.522	0.099
248.500	-3.531	0.099
248.600	-7.120	0.099
248.700	-17.747	0.099
248.800	9.134	0.099
248.900	-7.358	0.099
249.000	-4.876	0.099
249.100	-6.059	0.099
249.200	-6.691	0.099
249.300	-1.007	0.099
249.400	-7.239	0.099
249.500	-15.486	0.099
249.600	-5.383	0.099
249.700	-18.250	0.099
249.800	-12.683	0.099
249.900	-13.064	0.099
250.000	0.574	0.099
250.100	-5.171	0.099
250.200	-20.342	0.099
250.300	-4.791	0.099
250.400	-4.661	0.099
250.500	-0.321	0.099
250.600	-13.394	0.099
250.700	-5.100	0.099
250.800	-16.503	0.099
250.900	-11.149	0.099
251.000	7.104	0.099
251.100	-12.027	0.099
251.200	-9.064	0.099
251.300	-11.052	0.099
251.400	-18.246	0.099
251.500	-12.983	0.099
251.600	-1.424	0.099
251.700	-13.211	0.099
251.800	-13.759	0.099
251.900	-7.246	0.099
252.000	4.393	0.099
252.100	-6.929	0.099
252.200	-6.753	0.100
252.300	-4.700	0.099
252.400	-18.880	0.100
252.500	-13.515	0.100
252.600	1.434	0.100
252.700	-13.247	0.100
252.800	-11.976	0.100
252.900	-23.875	0.100
253.000	-3.110	0.100
253.100	-7.491	0.100
253.200	-21.915	0.100
253.300	-4.010	0.100
253.400	-12.857	0.100
253.500	-8.121	0.100
253.600	-21.992	0.100
253.700	-6.750	0.100
253.800	-7.416	0.100
253.900	-9.975	0.100
254.000	-8.791	0.100
254.100	-12.389	0.100
254.200	-24.692	0.100
254.300	-5.781	0.100
254.400	-16.574	0.100
254.500	-4.374	0.100
254.600	-11.710	0.100
254.700	-15.417	0.100
254.800	-4.312	0.100
254.900	-13.100	0.100
255.000	-10.374	0.100
255.100	-5.675	0.100
255.200	-10.025	0.100
255.300	-5.976	0.100
255.400	-19.659	0.100
255.500	-31.628	0.100
255.600	-11.997	0.100
255.700	-10.086	0.100
255.800	-21.073	0.100
255.900	4.927	0.100
256.000	-12.840	0.100
256.100	-19.584	0.100
256.200	-13.599	0.100
256.300	-12.241	0.100
256.400	-24.751	0.100
256.500	-8.811	0.100
256.600	2.533	0.100
256.700	-20.540	0.100
256.800	-18.966	0.100
256.900	-18.750	0.100
257.000	-13.267	0.100
257.100	-15.827	0.100
257.200	-4.456	0.100
257.300	-24.606	0.100
257.400	-7.716	0.100
257.500	8.769	0.100
257.600	-8.685	0.100
257.700	-4.424	0.099
257.800	-18.903	0.100
257.900	-11.682	0.100
258.000	-19.298	0.100
258.100	-3.678	0.099
258.200	-12.328	0.099
258.300	-14.519	0.099
258.400	-16.043	0.099
258.500	-20.108	0.100
258.600	-11.810	0.099
258.700	-23.688	0.100
258.800	-4.129	0.099
258.900	-8.325	0.099
259.000	-14.121	0.099
259.100	-19.648	0.099
259.200	-13.480	0.099
259.300	-7.034	0.099
259.400	-20.915	0.099
259.500	-21.633	0.100
259.600	-9.574	0.099
259.700	-21.147	0.099
259.800	-10.971	0.099
259.900	-16.178	0.099
260.000	-11.147	0.099
260.100	-23.423	0.099
260.200	-12.660	0.099
260.300	-25.959	0.099
260.400	-21.103	0.099
260.500	-9.375	0.099
260.600	-19.677	0.099
260.700	-13.171	0.099
260.800	-15.343	0.099
260.900	-23.089	0.100
261.000	-9.199	0.099
261.100	-20.182	0.099
261.200	-8.394	0.099
261.300	-11.583	0.099
261.400	-16.232	0.099
261.500	-12.746	0.099
261.600	-17.395	0.099
261.700	-26.540	0.099
261.800	-34.229	0.099
261.900	-17.510	0.099
262.000	-13.052	0.099
262.100	-10.362	0.099
262.200	-17.269	0.099
262.300	-10.199	0.099
262.400	-15.614	0.099
262.500	-21.496	0.099
262.600	-6.446	0.099
262.700	-21.934	0.099
262.800	-12.740	0.099
262.900	-27.189	0.099
263.000	-17.080	0.099
263.100	-22.238	0.099
263.200	-14.924	0.099
263.300	-14.903	0.099
263.400	-9.558	0.099
263.500	-14.092	0.099
263.600	-15.337	0.099
263.700	-12.233	0.099
263.800	-18.990	0.099
263.900	-22.534	0.099
264.000	-16.692	0.099
264.100	-11.952	0.099
264.200	-1.439	0.099
264.300	-27.722	0.099
264.400	-12.387	0.099
264.500	-1.555	0.099
264.600	-14.994	0.099
264.700	-27.616	0.099
264.800	-20.049	0.099
264.900	-25.048	0.099
265.000	-26.054	0.099
265.100	-14.974	0.099
265.200	-22.832	0.099
265.300	-16.821	0.099
265.400	-5.205	0.099
265.500	-17.776	0.099
265.600	-25.878	0.099
265.700	-13.060	0.099
265.800	-6.330	0.099
265.900	-23.092	0.099
266.000	-15.221	0.099
266.100	-22.245	0.099
266.200	-10.468	0.099
266.300	-19.799	0.099
266.400	-27.658	0.099
266.500	-14.850	0.099
266.600	-12.916	0.099
266.700	-12.159	0.099
266.800	-13.992	0.099
266.900	-20.434	0.099
267.000	-23.146	0.099
267.100	-28.093	0.099
267.200	-8.775	0.099
267.300	-10.903	0.099
267.400	-18.713	0.099
267.500	-22.409	0.099
267.600	-11.918	0.099
267.700	-5.856	0.099
267.800	-20.747	0.099
267.900	-30.588	0.099
268.000	-19.816	0.099
268.100	-13.129	0.099
268.200	-16.792	0.099
268.300	-24.817	0.099
268.400	-7.442	0.099
268.500	-32.987	0.099
268.600	-19.136	0.099
268.700	-23.232	0.099
268.800	-23.740	0.099
268.900	-7.487	0.099
269.000	-26.403	0.099
269.100	-15.767	0.099
269.200	-16.014	0.099
269.300	-14.322	0.099
269.400	-15.786	0.099
269.500	-21.283	0.099
269.600	-8.368	0.099
269.700	-23.490	0.099
269.800	-19.081	0.099
269.900	-19.110	0.099
270.000	-15.901	0.099
270.100	-16.537	0.099
270.200	-3.327	0.099
270.300	-8.582	0.099
270.400	-26.738	0.099
270.500	-16.917	0.099
270.600	-26.772	0.099
270.700	-11.016	0.099
270.800	-17.720	0.099
270.900	-22.151	0.099
271.000	-27.120	0.099
271.100	-7.191	0.099
271.200	-13.099	0.099
271.300	-13.961	0.099
271.400	-14.660	0.099
271.500	-16.121	0.099
271.600	-36.168	0.099
271.700	-12.949	0.099
271.800	-16.454	0.099
271.900	-32.099	0.099
272.000	-21.806	0.099
272.100	-4.523	0.099
272.200	-24.576	0.099
272.300	-14.067	0.099
272.400	-20.642	0.099
272.500	-16.784	0.099
272.600	-29.805	0.099
272.700	-10.441	0.099
272.800	-27.553	0.099
272.900	-10.944	0.099
273.000	-15.420	0.099
273.100	-21.876	0.099
273.200	-30.973	0.099
273.300	-7.932	0.099
273.400	-27.345	0.099
273.500	-29.934	0.099
273.600	-14.407	0.099
273.700	-20.870	0.099
273.800	-4.128	0.099
273.900	-20.213	0.099
274.000	-17.847	0.099
274.100	-20.104	0.099
274.200	-28.125	0.099
274.300	-12.847	0.099
274.400	-15.839	0.099
274.500	-14.385	0.099
274.600	-24.990	0.099
274.700	-18.310	0.099
274.800	-18.643	0.099
274.900	-22.384	0.099
275.000	-14.809	0.099
275.100	-25.768	0.099
275.200	-9.031	0.099
275.300	-18.021	0.099
275.400	-18.246	0.099
275.500	-16.063	0.099
275.600	-1.641	0.099
275.700	-30.251	0.099
275.800	-14.007	0.099
275.900	-27.837	0.099
276.000	-16.117	0.099
276.100	-28.858	0.099
276.200	-7.176	0.099
276.300	-15.079	0.099
276.400	-10.702	0.099
276.500	-17.098	0.099
276.600	-12.492	0.099
276.700	-30.170	0.099
276.800	-4.612	0.099
276.900	-12.816	0.099
277.000	-27.775	0.099
277.100	-12.790	0.099
277.200	-25.089	0.099
277.300	-6.942	0.099
277.400	-15.218	0.099
277.500	-9.408	0.099
277.600	-18.054	0.099
277.700	-38.558	0.099
277.800	-29.284	0.099
277.900	-3.023	0.099
278.000	-20.874	0.099
278.100	-2.055	0.099
278.200	-15.664	0.099
278.300	-33.681	0.099
278.400	-4.874	0.099
278.500	-22.089	0.099
278.600	-3.714	0.099
278.700	-17.207	0.099
278.800	-15.711	0.099
278.900	-16.487	0.099
279.000	-12.449	0.099
279.100	-28.066	0.099
279.200	-22.579	0.099
279.300	-20.921	0.099
279.400	-7.883	0.099
279.500	-14.170	0.099
279.600	-12.639	0.099
279.700	-17.702	0.099
279.800	-14.014	0.099
279.900	-14.807	0.099
280.000	-12.144	0.099
280.100	-22.697	0.099
280.200	-16.506	0.100
280.300	-7.131	0.100
280.400	-26.109	0.099
280.500	-6.928	0.100
280.600	-6.384	0.100
280.700	-20.739	0.099
280.800	-9.512	0.100
280.900	-14.750	0.100
281.000	-18.053	0.099
281.100	-7.072	0.100
281.200	-18.905	0.099
281.300	-16.421	0.100
281.400	-7.344	0.100
281.500	-24.913	0.100
281.600	-9.255	0.100
281.700	-4.690	0.100
281.800	-23.384	0.100
281.900	-21.327	0.099
282.000	-15.744	0.099
282.100	-15.276	0.100
282.200	-18.407	0.099
282.300	-9.654	0.100
282.400	-13.867	0.100
282.500	-8.231	0.100
282.600	-18.761	0.099
282.700	-14.491	0.100
282.800	-21.148	0.100
282.900	-19.997	0.099
283.000	-33.067	0.099
283.100	-14.260	0.099
283.200	-12.646	0.099
283.300	1.054	0.100
283.400	-20.639	0.100
283.500	-21.901	0.099
283.600	4.195	0.100
283.700	-6.228	0.100
283.800	-11.980	0.100
283.900	-14.945	0.100
284.000	-20.580	0.100
284.100	-10.084	0.100
284.200	-7.730	0.100
284.300	-13.645	0.100
284.400	-26.039	0.100
284.500	-28.955	0.100
284.600	-13.349	0.100
284.700	-21.901	0.100
284.800	-27.235	0.099
284.900	-7.999	0.100
285.000	-14.093	0.099
285.100	-11.398	0.099
285.200	-12.525	0.099
285.300	-17.973	0.099
285.400	-17.699	0.099
285.500	-18.040	0.099
285.600	-14.297	0.099
285.700	-10.830	0.099
285.800	-6.296	0.099
285.900	-14.738	0.099
286.000	-21.862	0.099
286.100	-20.954	0.099
286.200	-11.679	0.099
286.300	-14.644	0.099
286.400	-21.337	0.099
286.500	-14.075	0.099
286.600	-3.332	0.099
286.700	-20.612	0.099
286.800	-20.148	0.099
286.900	-16.566	0.099
287.000	-15.879	0.099
287.100	-23.264	0.099
287.200	-5.627	0.099
287.300	-10.570	0.099
287.400	-15.016	0.099
287.500	-18.540	0.099
287.600	-35.017	0.099
287.700	0.186	0.099
287.800	-8.095	0.099
287.900	-23.569	0.099
288.000	-9.594	0.099
288.100	-23.054	0.099
288.200	-6.731	0.099
288.300	-17.279	0.099
288.400	-7.474	0.099
288.500	-13.241	0.099
288.600	-14.842	0.099
288.700	-11.986	0.099
288.800	-11.976	0.099
288.900	-12.974	0.099
289.000	-20.523	0.099
289.100	-26.020	0.099
289.200	-23.652	0.099
289.300	-9.947	0.099
289.400	-11.268	0.099
289.500	-21.966	0.099
289.600	-13.455	0.099
289.700	-26.100	0.099
289.800	-16.949	0.099
289.900	-12.092	0.099
290.000	-14.008	0.099
290.100	-30.488	0.099
290.200	-12.234	0.099
290.300	-18.136	0.099
290.400	-11.154	0.099
290.500	-18.221	0.099
290.600	-26.758	0.099
290.700	-7.049	0.099
290.800	-32.712	0.099
290.900	-9.434	0.099
291.000	-14.628	0.099
291.100	-5.947	0.099
291.200	-9.408	0.099
291.300	-12.634	0.099
291.400	-0.370	0.099
291.500	-16.255	0.099
291.600	-30.518	0.099
291.700	-13.499	0.099
291.800	-11.905	0.099
291.900	-9.440	0.099
292.000	-35.251	0.099
292.100	-10.183	0.099
292.200	-11.001	0.099
292.300	-11.106	0.099
292.400	-12.988	0.099
292.500	-16.747	0.099
292.600	-15.862	0.099
292.700	-23.326	0.099
292.800	-16.894	0.099
292.900	-34.162	0.099
293.000	0.826	0.099
293.100	-14.802	0.099
293.200	-12.521	0.099
293.300	-14.307	0.099
293.400	-9.550	0.099
293.500	-12.937	0.099
293.600	-19.522	0.099
293.700	-5.777	0.099
293.800	-12.899	0.099
293.900	-7.263	0.099
294.000	-11.289	0.099
294.100	-17.727	0.099
294.200	-32.594	0.099
294.300	-6.831	0.099
294.400	-22.662	0.099
294.500	-14.765	0.099
294.600	-15.837	0.099
294.700	-7.072	0.099
294.800	-15.556	0.099
294.900	-9.448	0.099
295.000	-5.346	0.099
295.100	-6.463	0.099
295.200	-18.710	0.099
295.300	5.851	0.099
295.400	-10.952	0.099
295.500	-1.918	0.099
295.600	-14.448	0.099
295.700	-19.705	0.099
295.800	-19.431	0.099
295.900	-12.061	0.099
296.000	-23.280	0.099
296.100	-9.479	0.099
296.200	-3.129	0.099
296.300	-7.253	0.099
296.400	-11.700	0.099
296.500	-17.534	0.099
296.600	-12.421	0.099
296.700	-12.039	0.099
296.800	-16.349	0.099
296.900	1.213	0.099
297.000	-15.043	0.099
297.100	-13.870	0.099
297.200	0.850	0.099
297.300	-19.100	0.099
297.400	-0.674	0.099
297.500	-13.164	0.099
297.600	-18.340	0.099
297.700	-11.538	0.099
297.800	-14.878	0.099
297.900	-17.511	0.099
298.000	-9.725	0.099
298.100	-15.434	0.099
298.200	-25.926	0.099
298.300	-5.943	0.099
298.400	-20.031	0.099
298.500	-15.758	0.099
298.600	-18.967	0.099
298.700	-0.048	0.099
298.800	-11.588	0.099
298.900	-19.300	0.099
299.000	-8.929	0.099
299.100	-12.462	0.099
299.200	-7.538	0.099
299.300	-3.282	0.099
299.400	-13.949	0.099
299.500	-10.965	0.099
299.600	-23.858	0.099
299.700	-1.343	0.099
299.800	-9.061	0.099
299.900	-29.699	0.099
300.000	-7.320	0.099
300.100	-21.896	0.099
300.200	-11.889	0.099
300.300	-3.305	0.099
300.400	-19.018	0.099
300.500	-13.873	0.099
300.600	-2.066	0.099
300.700	1.138	0.099
300.800	-2.660	0.099
300.900	-3.128	0.099
301.000	-25.530	0.099
301.100	-12.680	0.099
301.200	-13.403	0.099
301.300	-10.966	0.099
301.400	0.611	0.099
301.500	-22.737	0.099
301.600	-10.580	0.099
301.700	4.473	0.099
301.800	-1.472	0.099
301.900	-11.445	0.099
302.000	-25.217	0.099
302.100	-10.907	0.099
302.200	-19.017	0.099
302.300	-10.644	0.099
302.400	-8.500	0.099
302.500	-13.088	0.099
302.600	1.119	0.099
302.700	-7.746	0.099
302.800	-1.816	0.099
302.900	4.257	0.099
303.000	-11.200	0.099
303.100	-12.373	0.099
303.200	-18.960	0.099
303.300	-12.612	0.099
303.400	-12.901	0.099
303.500	-0.725	0.100
303.600	-8.498	0.100
303.700	-7.969	0.100
303.800	-7.310	0.100
303.900	-2.735	0.099
304.000	-19.977	0.099
304.100	-13.053	0.099
304.200	-19.073	0.099
304.300	-20.911	0.099
304.400	-13.088	0.100
304.500	-7.907	0.100
304.600	-3.135	0.100
304.700	-15.286	0.100
304.800	-11.427	0.100
304.900	-19.089	0.099
305.000	-7.045	0.099
305.100	-3.126	0.100
305.200	-28.270	0.100
305.300	-3.930	0.099
305.400	-12.358	0.100
305.500	-7.974	0.100
305.600	-11.852	0.100
305.700	-8.116	0.100
305.800	-12.676	0.100
305.900	-1.994	0.100
306.000	-11.255	0.100
306.100	-8.434	0.100
306.200	-20.482	0.100
306.300	-6.908	0.100
306.400	-14.415	0.100
306.500	-4.266	0.100
306.600	7.354	0.100
306.700	-9.845	0.100
306.800	-30.146	0.100
306.900	-12.585	0.100
307.000	-1.966	0.100
307.100	-12.152	0.100
307.200	-11.527	0.100
307.300	5.954	0.100
307.400	-11.926	0.100
307.500	-16.432	0.100
307.600	-7.367	0.100
307.700	-10.062	0.100
307.800	6.373	0.100
307.900	-14.256	0.100
308.000	-12.820	0.100
308.100	-19.416	0.100
308.200	-14.567	0.100
308.300	-13.564	0.100
308.400	-6.851	0.100
308.500	-18.342	0.100
308.600	-5.696	0.100
308.700	-13.480	0.100
308.800	-13.158	0.100
308.900	-21.480	0.100
309.000	9.071	0.100
309.100	-6.675	0.100
309.200	-18.762	0.100
309.300	6.485	0.100
309.400	-4.230	0.100
309.500	-16.604	0.100
309.600	0.028	0.100
309.700	0.387	0.100
309.800	-18.483	0.100
309.900	-0.257	0.100
310.000	-13.252	0.100
310.100	-12.828	0.100
310.200	-9.610	0.100
310.300	-11.478	0.100
310.400	-3.043	0.100
310.500	-29.243	0.100
310.600	-6.462	0.100
310.700	-9.014	0.100
310.800	-6.294	0.100
310.900	-5.702	0.100
311.000	-5.778	0.100
311.100	-9.230	0.100
311.200	-26.710	0.100
311.300	-5.802	0.100
311.400	-14.151	0.100
311.500	-8.768	0.100
311.600	-4.313	0.100
311.700	-6.498	0.100
311.800	-9.896	0.100
311.900	-7.130	0.100
312.000	4.053	0.100
312.100	-6.508	0.100
312.200	-9.765	0.100
312.300	-10.072	0.100
312.400	-11.595	0.100
312.500	-13.977	0.100
312.600	-17.395	0.100
312.700	-11.169	0.100
312.800	-6.795	0.100
312.900	-9.255	0.100
313.000	-6.810	0.100
313.100	-10.104	0.100
313.200	-16.073	0.100
313.300	-15.360	0.100
313.400	-15.068	0.100
313.500	4.329	0.100
313.600	-2.218	0.100
313.700	-13.741	0.100
313.800	-6.702	0.100
313.900	0.276	0.100
314.000	-7.968	0.100
314.100	-16.584	0.100
314.200	-3.737	0.100
314.300	-7.795	0.100
314.400	-9.835	0.100
314.500	-0.359	0.100
314.600	-14.644	0.100
314.700	-9.467	0.100
314.800	-9.160	0.100
314.900	3.426	0.100
315.000	-10.293	0.100
315.100	2.524	0.100
315.200	-22.536	0.100
315.300	-14.997	0.100
315.400	2.385	0.100
315.500	-8.193	0.100
315.600	-12.420	0.100
315.700	-10.786	0.100
315.800	-3.273	0.100
315.900	-9.645	0.100
316.000	-3.318	0.100
316.100	-14.944	0.100
316.200	-6.886	0.100
316.300	-23.658	0.100
316.400	-15.009	0.100
316.500	-11.118	0.100
316.600	-0.510	0.100
316.700	-16.068	0.100
316.800	-1.521	0.100
316.900	-25.614	0.100
317.000	-2.835	0.100
317.100	-2.580	0.100
317.200	-8.348	0.100
317.300	-11.354	0.100
317.400	-10.115	0.100
317.500	-16.610	0.100
317.600	-1.949	0.100
317.700	-3.105	0.100
317.800	-0.756	0.100
317.900	-16.904	0.100
318.000	-19.947	0.100
318.100	-6.951	0.100
318.200	-19.485	0.100
318.300	-5.563	0.100
318.400	-5.144	0.100
318.500	-7.713	0.100
318.600	-9.849	0.100
318.700	-9.745	0.100
318.800	-5.670	0.100
318.900	-7.456	0.100
319.000	-11.677	0.100
319.100	-9.831	0.100
319.200	2.548	0.100
319.300	-6.560	0.100
319.400	-11.492	0.100
319.500	-8.648	0.100
319.600	-14.548	0.100
319.700	0.220	0.100
319.800	1.497	0.100
319.900	-8.323	0.100
320.000	-14.316	0.100
320.100	-31.897	0.100
320.200	-5.419	0.100
320.300	-5.922	0.100
320.400	-1.419	0.100
320.500	-3.832	0.100
320.600	-3.000	0.100
320.700	-7.607	0.100
320.800	-13.084	0.100
320.900	-17.384	0.100
321.000	4.808	0.100
321.100	-28.005	0.100
321.200	-17.701	0.100
321.300	-10.682	0.100
321.400	-6.323	0.100
321.500	-9.533	0.100
321.600	0.056	0.100
321.700	-12.117	0.100
321.800	-3.684	0.100
321.900	-6.557	0.100
322.000	-5.089	0.100
322.100	-16.788	0.100
322.200	7.041	0.100
322.300	-10.065	0.100
322.400	-11.936	0.100
322.500	4.674	0.100
322.600	-10.227	0.100
322.700	-7.317	0.100
322.800	-13.173	0.100
322.900	-7.945	0.100
323.000	-12.184	0.100
323.100	-9.556	0.100
323.200	-5.414	0.100
323.300	-17.378	0.100
323.400	-3.855	0.100
323.500	-0.344	0.100
323.600	-15.307	0.100
323.700	-3.369	0.100
323.800	-3.601	0.100
323.900	-12.235	0.100
324.000	-14.172	0.100
324.100	-20.195	0.100
324.200	0.856	0.100
324.300	-5.527	0.100
324.400	-27.351	0.100
324.500	-17.209	0.100
324.600	11.426	0.100
324.700	-8.132	0.100
324.800	-14.532	0.100
324.900	-1.377	0.100
325.000	-9.476	0.100
325.100	-8.286	0.100
325.200	-9.128	0.100
325.300	-11.562	0.100
325.400	-17.357	0.100
325.500	-9.099	0.100
325.600	-9.620	0.100
325.700	-13.358	0.100
325.800	-4.686	0.100
325.900	-16.711	0.100
326.000	-10.300	0.100
326.100	5.766	0.100
326.200	10.958	0.100
326.300	-9.969	0.100
326.400	-2.311	0.100
326.500	-15.033	0.100
326.600	-9.493	0.100
326.700	4.192	0.100
326.800	-12.847	0.100
326.900	-16.450	0.100
327.000	-7.951	0.100
327.100	-23.177	0.100
327.200	-15.274	0.100
327.300	-13.415	0.100
327.400	0.295	0.100
327.500	-31.589	0.100
327.600	1.325	0.100
327.700	-11.518	0.100
327.800	-8.554	0.100
327.900	-12.401	0.100
328.000	0.101	0.100
328.100	-13.924	0.100
328.200	-7.166	0.100
328.300	-13.323	0.100
328.400	0.941	0.100
328.500	-16.956	0.100
328.600	-7.347	0.099
328.700	2.000	0.100
328.800	-31.347	0.099
328.900	-18.421	0.099
329.000	10.382	0.100
329.100	2.073	0.099
329.200	-3.531	0.100
329.300	-11.459	0.099
329.400	-18.346	0.100
329.500	-2.856	0.100
329.600	-0.532	0.100
329.700	-6.189	0.100
329.800	-2.575	0.099
329.900	-18.267	0.099
330.000	-23.407	0.099
330.100	-12.618	0.099
330.200	-18.840	0.099
330.300	-4.708	0.099
330.400	-6.353	0.099
330.500	7.420	0.100
330.600	-4.770	0.100
330.700	-5.412	0.099
330.800	-17.547	0.100
330.900	-0.201	0.100
331.000	-3.150	0.100
331.100	-5.744	0.100
331.200	9.002	0.100
331.300	-9.156	0.100
331.400	-2.003	0.100
331.500	-2.611	0.100
331.600	-9.134	0.100
331.700	-2.960	0.100
331.800	18.761	0.100
331.900	2.367	0.100
332.000	4.367	0.100
332.100	22.356	0.100
332.200	-5.360	0.100
332.300	8.021	0.100
332.400	-2.322	0.100
332.500	6.907	0.100
332.600	25.837	0.100
332.700	9.030	0.100
332.800	9.933	0.100
332.900	16.008	0.100
333.000	7.049	0.100
333.100	10.157	0.100
333.200	15.800	0.100
333.300	6.397	0.100
333.400	11.433	0.100
333.500	-3.420	0.100
333.600	13.847	0.100
333.700	22.818	0.100
333.800	9.191	0.100
333.900	20.255	0.100
334.000	13.243	0.100
334.100	14.711	0.100
334.200	10.507	0.100
334.300	12.658	0.100
334.400	18.500	0.100
334.500	12.878	0.100
334.600	15.764	0.100
334.700	13.966	0.100
334.800	12.082	0.100
334.900	14.991	0.100
335.000	15.198	0.100
335.100	14.671	0.100
335.200	11.880	0.100
335.300	11.174	0.100
335.400	12.360	0.100
335.500	10.402	0.100
335.600	-0.542	0.100
335.700	5.201	0.100
335.800	16.536	0.100
335.900	25.648	0.100
336.000	13.974	0.100
336.100	18.315	0.100
336.200	11.805	0.100
336.300	8.348	0.100
336.400	23.191	0.100
336.500	1.704	0.100
336.600	21.372	0.100
336.700	16.227	0.100
336.800	5.101	0.100
336.900	0.120	0.100
337.000	13.065	0.100
337.100	16.601	0.100
337.200	14.897	0.100
337.300	26.351	0.100
337.400	10.643	0.100
337.500	9.959	0.100
337.600	7.577	0.100
337.700	7.047	0.100
337.800	11.095	0.100
337.900	16.719	0.100
338.000	21.731	0.100
338.100	6.050	0.100
338.200	20.607	0.100
338.300	14.496	0.100
338.400	18.979	0.100
338.500	2.655	0.100
338.600	6.603	0.100
338.700	24.044	0.100
338.800	19.958	0.100
338.900	20.464	0.100
339.000	12.813	0.100
339.100	33.524	0.100
339.200	10.850	0.100
339.300	16.981	0.100
339.400	20.995	0.100
339.500	18.727	0.100
339.600	18.660	0.100
339.700	13.928	0.100
339.800	19.720	0.100
339.900	22.383	0.100
340.000	29.818	0.100
340.100	8.729	0.100
340.200	4.963	0.100
340.300	20.806	0.100
340.400	24.008	0.100
340.500	16.454	0.100
340.600	31.989	0.100
340.700	16.887	0.100
340.800	21.151	0.100
340.900	14.779	0.100
341.000	31.333	0.100
341.100	19.813	0.100
341.200	12.771	0.100
341.300	24.283	0.100
341.400	21.305	0.100
341.500	13.790	0.100
341.600	14.301	0.100
341.700	30.160	0.100
341.800	17.962	0.100
341.900	17.783	0.100
342.000	31.747	0.100
342.100	21.664	0.100
342.200	18.829	0.100
342.300	32.888	0.100
342.400	15.799	0.100
342.500	22.291	0.100
342.600	35.321	0.100
342.700	30.363	0.100
342.800	15.780	0.100
342.900	22.032	0.100
343.000	16.957	0.100
343.100	32.867	0.100
343.200	6.167	0.100
343.300	26.768	0.100
343.400	2.125	0.100
343.500	28.053	0.100
343.600	36.240	0.100
343.700	22.555	0.100
343.800	21.081	0.100
343.900	37.821	0.100
344.000	12.389	0.100
344.100	23.734	0.100
344.200	24.872	0.100
344.300	36.055	0.100
344.400	27.633	0.100
344.500	26.932	0.100
344.600	41.066	0.100
344.700	14.918	0.100
344.800	24.811	0.100
344.900	25.402	0.100
345.000	24.636	0.100
345.100	33.607	0.100
345.200	32.055	0.100
345.300	31.703	0.100
345.400	26.344	0.100
345.500	21.200	0.100
345.600	25.523	0.100
345.700	27.949	0.100
345.800	29.391	0.100
345.900	17.891	0.100
346.000	27.403	0.100
346.100	25.435	0.100
346.200	40.224	0.100
346.300	30.788	0.100
346.400	23.779	0.100
346.500	28.588	0.100
346.600	15.510	0.100
346.700	29.300	0.100
346.800	15.598	0.100
346.900	32.043	0.100
347.000	39.814	0.100
347.100	25.504	0.100
347.200	20.083	0.100
347.300	22.932	0.100
347.400	23.459	0.100
347.500	31.654	0.100
347.600	40.296	0.100
347.700	42.711	0.100
347.800	9.849	0.100
347.900	43.045	0.100
348.000	21.705	0.100
348.100	27.167	0.100
348.200	31.775	0.100
348.300	28.621	0.100
348.400	28.550	0.100
348.500	36.406	0.100
348.600	28.691	0.100
348.700	25.476	0.100
348.800	40.591	0.100
348.900	7.407	0.100
349.000	37.110	0.100
349.100	34.049	0.100
349.200	34.520	0.100
349.300	24.279	0.100
349.400	34.995	0.100
349.500	39.800	0.100
349.600	25.974	0.100
349.700	45.876	0.100
349.800	20.034	0.100
349.900	22.239	0.100
350.000	26.386	0.100
350.100	24.405	0.100
350.200	32.350	0.100
350.300	39.685	0.100
350.400	22.020	0.100
350.500	24.775	0.100
350.600	21.811	0.100
350.700	24.466	0.100
350.800	18.293	0.100
350.900	33.133	0.100
351.000	29.074	0.100
351.100	17.569	0.100
351.200	27.942	0.100
351.300	32.873	0.100
351.400	22.146	0.100
351.500	31.615	0.100
351.600	34.447	0.100
351.700	34.156	0.100
351.800	35.834	0.100
351.900	27.507	0.100
352.000	38.472	0.100
352.100	28.790	0.100
352.200	25.509	0.100
352.300	35.445	0.100
352.400	38.001	0.100
352.500	18.274	0.100
352.600	19.172	0.100
352.700	44.686	0.100
352.800	31.191	0.100
352.900	30.489	0.100
353.000	17.785	0.100
353.100	24.915	0.100
353.200	30.830	0.100
353.300	36.787	0.100
353.400	30.696	0.100
353.500	28.920	0.100
353.600	26.794	0.100
353.700	22.121	0.100
353.800	41.941	0.100
353.900	12.293	0.100
354.000	40.525	0.100
354.100	17.930	0.100
354.200	33.216	0.100
354.300	36.464	0.100
354.400	33.506	0.100
354.500	26.735	0.100
354.600	25.833	0.100
354.700	30.766	0.100
354.800	17.197	0.100
354.900	24.243	0.100
355.000	41.122	0.100
355.100	25.754	0.100
355.200	35.338	0.100
355.300	27.256	0.100
355.400	22.165	0.100
355.500	36.377	0.100
355.600	31.501	0.100
355.700	26.406	0.100
355.800	14.890	0.100
355.900	43.391	0.100
356.000	34.756	0.100
356.100	16.624	0.100
356.200	26.203	0.100
356.300	24.593	0.100
356.400	30.190	0.100
356.500	36.850	0.100
356.600	13.863	0.100
356.700	46.579	0.100
356.800	17.514	0.100
356.900	39.639	0.100
357.000	28.801	0.100
357.100	36.808	0.100
357.200	40.966	0.100
357.300	24.458	0.100
357.400	30.024	0.100
357.500	17.253	0.100
357.600	37.336	0.100
357.700	35.603	0.100
357.800	18.209	0.100
357.900	24.548	0.100
358.000	29.150	0.100
358.100	27.372	0.100
358.200	34.246	0.100
358.300	29.303	0.100
358.400	25.538	0.100
358.500	34.525	0.100
358.600	27.640	0.100
358.700	40.073	0.100
358.800	23.926	0.100
358.900	28.453	0.100
359.000	28.239	0.100
359.100	26.805	0.100
359.200	31.040	0.100
359.300	35.428	0.100
359.400	42.216	0.100
359.500	38.687	0.100
359.600	23.633	0.100
359.700	25.132	0.100
359.800	14.037	0.100
359.900	44.876	0.100
360.000	33.245	0.100
360.100	11.620	0.100
360.200	31.646	0.100
360.300	27.749	0.100
360.400	36.156	0.100
360.500	20.870	0.100
360.600	36.765	0.100
360.700	38.103	0.100
360.800	24.856	0.100
360.900	24.500	0.100
361.000	35.623	0.100
361.100	24.628	0.100
361.200	28.105	0.100
361.300	29.668	0.100
361.400	25.173	0.100
361.500	20.914	0.100
361.600	26.667	0.100
361.700	20.531	0.100
361.800	31.327	0.100
361.900	21.229	0.100
362.000	29.463	0.100
362.100	38.026	0.100
362.200	32.264	0.100
362.300	9.442	0.100
362.400	22.432	0.100
362.500	31.859	0.100
362.600	23.201	0.100
362.700	15.163	0.100
362.800	29.138	0.100
362.900	27.890	0.100
363.000	30.304	0.100
363.100	33.990	0.100
363.200	15.552	0.100
363.300	29.386	0.100
363.400	22.477	0.100
363.500	34.489	0.100
363.600	30.365	0.100
363.700	32.731	0.100
363.800	26.001	0.100
363.900	25.406	0.100
364.000	29.832	0.100
364.100	29.548	0.100
364.200	28.107	0.100
364.300	15.032	0.100
364.400	40.372	0.100
364.500	25.008	0.100
364.600	31.253	0.100
364.700	35.550	0.100
364.800	26.182	0.100
364.900	24.446	0.100
365.000	22.125	0.100
365.100	26.125	0.100
365.200	24.870	0.100
365.300	21.729	0.100
365.400	22.010	0.100
365.500	35.202	0.100
365.600	24.798	0.100
365.700	28.927	0.100
365.800	25.320	0.100
365.900	31.598	0.100
366.000	31.937	0.100
366.100	32.521	0.100
366.200	25.603	0.100
366.300	26.344	0.100
366.400	30.206	0.100
366.500	31.580	0.100
366.600	21.555	0.100
366.700	32.138	0.100
366.800	27.439	0.100
366.900	44.144	0.100
367.000	33.795	0.100
367.100	14.245	0.100
367.200	24.188	0.100
367.300	32.716	0.100
367.400	24.253	0.100
367.500	29.801	0.100
367.600	34.327	0.100
367.700	23.058	0.100
367.800	21.981	0.100
367.900	32.115	0.100
368.000	31.608	0.100
368.100	18.381	0.100
368.200	34.819	0.100
368.300	17.201	0.100
368.400	32.628	0.100
368.500	21.982	0.100
368.600	33.319	0.100
368.700	27.088	0.100
368.800	27.379	0.100
368.900	24.516	0.100
369.000	40.951	0.100
369.100	27.761	0.100
369.200	5.229	0.100
369.300	34.943	0.100
369.400	36.838	0.100
369.500	31.797	0.100
369.600	30.549	0.100
369.700	26.887	0.100
369.800	23.270	0.100
369.900	38.638	0.100
370.000	40.242	0.100
370.100	16.375	0.100
370.200	25.025	0.100
370.300	34.224	0.100
370.400	1.844	0.100
370.500	35.849	0.100
370.600	27.744	0.100
370.700	27.403	0.100
370.800	13.774	0.100
370.900	40.115	0.100
371.000	23.485	0.100
371.100	38.572	0.100
371.200	23.534	0.100
371.300	16.669	0.100
371.400	17.604	0.100
371.500	34.922	0.100
371.600	28.964	0.100
371.700	27.915	0.100
371.800	29.714	0.100
371.900	23.333	0.100
372.000	35.080	0.100
372.100	33.596	0.100
372.200	14.830	0.100
372.300	37.264	0.100
372.400	19.802	0.100
372.500	23.647	0.100
372.600	31.899	0.100
372.700	17.718	0.100
372.800	32.337	0.100
372.900	25.026	0.100
373.000	20.694	0.100
373.100	39.823	0.100
373.200	34.183	0.100
373.300	21.152	0.100
373.400	32.446	0.100
373.500	33.051	0.100
373.600	19.713	0.100
373.700	22.682	0.100
373.800	18.416	0.100
373.900	42.193	0.100
374.000	25.358	0.100
374.100	22.121	0.100
374.200	19.067	0.100
374.300	36.987	0.100
374.400	31.731	0.100
374.500	25.491	0.100
374.600	5.089	0.100
374.700	33.535	0.100
374.800	27.836	0.100
374.900	20.659	0.100
375.000	18.251	0.100
375.100	38.291	0.100
375.200	14.095	0.100
375.300	25.780	0.100
375.400	24.616	0.100
375.500	32.385	0.100
375.600	27.917	0.100
375.700	24.761	0.100
375.800	36.361	0.100
375.900	22.643	0.100
376.000	24.640	0.100
376.100	21.058	0.100
376.200	22.805	0.100
376.300	27.451	0.100
376.400	22.695	0.100
376.500	24.721	0.100
376.600	23.761	0.100
376.700	27.002	0.100
376.800	29.752	0.100
376.900	24.369	0.100
377.000	7.347	0.100
377.100	20.410	0.100
377.200	28.329	0.100
377.300	36.740	0.100
377.400	30.722	0.100
377.500	32.846	0.100
377.600	24.016	0.100
377.700	15.749	0.100
377.800	24.584	0.100
377.900	35.009	0.100
378.000	10.096	0.100
378.100	27.820	0.100
378.200	24.055	0.100
378.300	21.261	0.100
378.400	12.392	0.100
378.500	27.578	0.100
378.600	32.112	0.100
378.700	27.173	0.100
378.800	26.723	0.100
378.900	29.206	0.100
379.000	25.464	0.100
379.100	13.704	0.100
379.200	19.452	0.100
379.300	8.200	0.100
379.400	34.984	0.100
379.500	28.018	0.100
379.600	29.603	0.100
379.700	27.080	0.100
379.800	12.923	0.100
379.900	37.379	0.100
380.000	30.220	0.100
380.100	18.036	0.100
380.200	32.007	0.100
380.300	37.545	0.100
380.400	37.039	0.100
380.500	11.617	0.100
380.600	8.434	0.100
380.700	36.113	0.100
380.800	29.661	0.100
380.900	14.495	0.100
381.000	33.776	0.100
381.100	34.015	0.100
381.200	24.456	0.100
381.300	25.290	0.100
381.400	31.160	0.100
381.500	16.857	0.100
381.600	22.170	0.100
381.700	23.797	0.100
381.800	31.534	0.100
381.900	20.700	0.100
382.000	27.040	0.100
382.100	14.815	0.100
382.200	17.811	0.099
382.300	19.982	0.100
382.400	31.057	0.100
382.500	39.227	0.100
382.600	23.159	0.100
382.700	23.572	0.100
382.800	23.944	0.099
382.900	16.706	0.100
383.000	19.383	0.100
383.100	27.875	0.100
383.200	32.484	0.100
383.300	26.483	0.099
383.400	19.449	0.100
383.500	31.117	0.099
383.600	15.032	0.099
383.700	27.275	0.099
383.800	24.551	0.099
383.900	21.798	0.099
384.000	17.693	0.099
384.100	34.004	0.099
384.200	24.552	0.099
384.300	15.612	0.099
384.400	32.439	0.099
384.500	28.575	0.099
384.600	21.895	0.099
384.700	12.919	0.099
384.800	20.844	0.099
384.900	27.804	0.099
385.000	39.978	0.099
385.100	18.295	0.099
385.200	18.400	0.099
385.300	27.319	0.099
385.400	22.104	0.099
385.500	23.970	0.099
385.600	31.933	0.099
385.700	9.542	0.099
385.800	31.002	0.099
385.900	23.298	0.099
386.000	24.250	0.099
386.100	38.922	0.099
386.200	26.982	0.099
386.300	12.754	0.099
386.400	21.825	0.099
386.500	21.353	0.099
386.600	25.384	0.099
386.700	35.089	0.099
386.800	10.581	0.099
386.900	29.768	0.099
387.000	21.645	0.099
387.100	20.535	0.099
387.200	29.678	0.099
387.300	27.690	0.099
387.400	33.044	0.099
387.500	36.692	0.099
387.600	16.085	0.099
387.700	26.700	0.099
387.800	30.958	0.099
387.900	25.143	0.099
388.000	30.033	0.099
388.100	5.885	0.099
388.200	24.804	0.099
388.300	36.375	0.099
388.400	39.263	0.099
388.500	13.441	0.099
388.600	17.255	0.099
388.700	27.673	0.099
388.800	11.235	0.099
388.900	22.844	0.099
389.000	30.119	0.099
389.100	33.333	0.099
389.200	9.921	0.099
389.300	30.930	0.099
389.400	27.502	0.099
389.500	18.233	0.099
389.600	26.463	0.099
389.700	23.759	0.099
389.800	31.502	0.099
389.900	27.280	0.099
390.000	32.328	0.099
390.100	35.625	0.099
390.200	26.612	0.099
390.300	16.700	0.099
390.400	14.293	0.099
390.500	20.785	0.099
390.600	30.087	0.099
390.700	14.544	0.099
390.800	23.332	0.099
390.900	12.679	0.099
391.000	16.468	0.099
391.100	10.485	0.099
391.200	21.380	0.099
391.300	15.662	0.099
391.400	19.059	0.099
391.500	5.101	0.099
391.600	13.706	0.099
391.700	6.613	0.099
391.800	9.279	0.099
391.900	16.031	0.099
392.000	25.288	0.099
392.100	-1.267	0.099
392.200	14.717	0.099
392.300	13.784	0.099
392.400	-4.789	0.099
392.500	13.093	0.099
392.600	-6.253	0.099
392.700	15.906	0.099
392.800	1.067	0.099
392.900	-6.425	0.099
393.000	-5.896	0.099
393.100	-4.575	0.099
393.200	6.448	0.099
393.300	6.630	0.099
393.400	-2.880	0.099
393.500	1.666	0.099
393.600	3.024	0.099
393.700	-18.248	0.099
393.800	-8.063	0.099
393.900	-17.358	0.099
394.000	14.955	0.099
394.100	1.304	0.099
394.200	-0.591	0.099
394.300	-13.446	0.099
394.400	9.513	0.099
394.500	-4.243	0.099
394.600	-2.746	0.099
394.700	3.838	0.099
394.800	-3.689	0.099
394.900	-5.227	0.099
395.000	-3.709	0.099
395.100	-21.304	0.099
395.200	-7.489	0.099
395.300	7.020	0.099
395.400	-8.350	0.099
395.500	-7.230	0.099
395.600	-11.337	0.099
395.700	-2.782	0.099
395.800	-1.185	0.099
395.900	-12.640	0.099
396.000	4.013	0.099
396.100	0.619	0.099
396.200	-15.518	0.099
396.300	-9.527	0.099
396.400	-13.162	0.099
396.500	-13.192	0.099
396.600	5.402	0.099
396.700	-1.731	0.099
396.800	-5.825	0.099
396.900	-1.190	0.099
397.000	-12.485	0.099
397.100	-14.587	0.099
397.200	-23.626	0.099
397.300	-10.299	0.099
397.400	-12.424	0.099
397.500	-5.401	0.099
397.600	1.454	0.099
397.700	-3.834	0.099
397.800	-12.398	0.099
397.900	-4.308	0.099
398.000	-3.009	0.099
398.100	-10.311	0.099
398.200	-7.322	0.099
398.300	-10.476	0.099
398.400	-3.880	0.099
398.500	-14.073	0.099
398.600	-3.303	0.099
398.700	-12.720	0.099
398.800	-6.201	0.099
398.900	4.153	0.099
399.000	-9.995	0.099
399.100	-12.870	0.099
399.200	-4.629	0.099
399.300	-7.645	0.099
399.400	-7.795	0.099
399.500	-9.142	0.099
399.600	-6.936	0.099
399.700	-18.931	0.099
399.800	3.829	0.099
399.900	-13.938	0.099
400.000	-16.777	0.099
400.100	-0.398	0.099
400.200	-11.812	0.099
400.300	-8.956	0.099
400.400	-7.696	0.099
400.500	-16.321	0.099
400.600	-17.425	0.099
400.700	-13.753	0.099
400.800	-3.232	0.100
400.900	-2.308	0.100
401.000	-18.573	0.100
401.100	-9.452	0.100
401.200	-10.704	0.100
401.300	-18.474	0.100
401.400	-12.947	0.100
401.500	-12.553	0.100
401.600	-12.592	0.100
401.700	-15.886	0.100
401.800	-13.587	0.100
401.900	-8.574	0.100
402.000	-8.179	0.100
402.100	-26.124	0.100
402.200	-0.653	0.100
402.300	-4.623	0.100
402.400	-15.764	0.100
402.500	-9.531	0.100
402.600	0.660	0.100
402.700	-9.424	0.100
402.800	2.124	0.100
402.900	-12.230	0.100
403.000	-18.209	0.100
403.100	-4.618	0.100
403.200	-6.014	0.100
403.300	-32.238	0.100
403.400	-10.360	0.100
403.500	-12.442	0.100
403.600	-3.156	0.100
403.700	-13.039	0.100
403.800	-12.165	0.100
403.900	-11.225	0.100
404.000	-15.681	0.100
404.100	-1.654	0.100
404.200	-5.354	0.100
404.300	-16.738	0.100
404.400	-18.845	0.100
404.500	-10.025	0.100
404.600	-22.887	0.100
404.700	-5.644	0.100
404.800	-9.687	0.100
404.900	-20.901	0.100
405.000	-4.964	0.100
405.100	-7.102	0.100
405.200	-20.034	0.100
405.300	-6.999	0.100
405.400	-23.801	0.100
405.500	-9.172	0.100
405.600	-9.815	0.100
405.700	-11.391	0.100
405.800	-22.569	0.100
405.900	-13.045	0.100
406.000	-24.002	0.100
406.100	-4.416	0.100
406.200	-6.969	0.100
406.300	-27.080	0.100
406.400	-10.989	0.100
406.500	-9.830	0.100
406.600	-15.353	0.100
406.700	-11.134	0.100
406.800	-13.509	0.100
406.900	-2.040	0.100
407.000	-11.428	0.100
407.100	-10.493	0.100
407.200	-17.220	0.100
407.300	-8.756	0.100
407.400	-5.602	0.100
407.500	-16.865	0.100
407.600	-28.978	0.100
407.700	-17.396	0.100
407.800	-17.368	0.100
407.900	-10.448	0.100
408.000	-20.405	0.100
408.100	-15.081	0.100
408.200	-14.169	0.100
408.300	-16.660	0.100
408.400	4.946	0.100
408.500	-14.054	0.100
408.600	-7.171	0.100
408.700	-15.719	0.100
408.800	-4.712	0.100
408.900	-17.875	0.100
409.000	-31.181	0.100
409.100	-1.204	0.100
409.200	-7.236	0.100
409.300	-12.867	0.100
409.400	-23.948	0.100
409.500	-10.240	0.100
409.600	-17.331	0.100
409.700	-20.698	0.100
409.800	-6.431	0.100
409.900	-11.946	0.100
410.000	-30.763	0.100
410.100	-9.917	0.100
410.200	6.821	0.100
410.300	-16.588	0.100
410.400	-18.132	0.100
410.500	-21.903	0.100
410.600	-14.572	0.100
410.700	-13.649	0.100
410.800	-11.690	0.100
410.900	-9.405	0.100
411.000	-8.062	0.100
411.100	-15.622	0.100
411.200	-16.831	0.100
411.300	-16.723	0.100
411.400	-16.767	0.100
411.500	-18.321	0.100
411.600	-23.280	0.100
411.700	1.260	0.100
411.800	-13.309	0.100
411.900	-20.401	0.100
412.000	-11.714	0.100
412.100	-29.896	0.100
412.200	-9.926	0.100
412.300	-22.847	0.100
412.400	-31.058	0.100
412.500	-9.644	0.100
412.600	-7.995	0.100
412.700	-7.863	0.100
412.800	-14.708	0.100
412.900	-18.682	0.100
413.000	-12.707	0.100
413.100	-18.371	0.100
413.200	-31.574	0.100
413.300	-29.647	0.100
413.400	-3.879	0.100
413.500	-13.133	0.100
413.600	-3.520	0.100
413.700	-15.282	0.100
413.800	-24.989	0.100
413.900	-20.082	0.100
414.000	-20.986	0.100
414.100	-12.303	0.100
414.200	-22.498	0.100
414.300	-21.462	0.100
414.400	-10.296	0.100
414.500	-18.014	0.100
414.600	-11.557	0.100
414.700	-7.402	0.100
414.800	-14.988	0.100
414.900	-23.558	0.100
415.000	-13.696	0.100
415.100	-31.807	0.100
415.200	-15.259	0.100
415.300	-23.130	0.100
415.400	-17.191	0.100
415.500	-8.838	0.100
415.600	-14.504	0.100
415.700	-18.851	0.100
415.800	-32.127	0.100
415.900	-16.750	0.100
416.000	-16.941	0.100
416.100	-23.955	0.100
416.200	-0.541	0.100
416.300	-24.183	0.100
416.400	-31.629	0.100
416.500	-17.631	0.100
416.600	-19.305	0.100
416.700	-18.771	0.100
416.800	-14.839	0.100
416.900	-8.476	0.100
417.000	-14.237	0.100
417.100	-22.405	0.100
417.200	-20.307	0.100
417.300	-23.171	0.100
417.400	-2.307	0.100
417.500	-17.581	0.100
417.600	-27.857	0.100
417.700	-12.588	0.100
417.800	-13.815	0.100
417.900	-25.427	0.100
418.000	-20.113	0.100
418.100	-20.542	0.100
418.200	-11.621	0.100
418.300	-15.006	0.100
418.400	-35.034	0.100
418.500	-23.589	0.100
418.600	-1.238	0.100
418.700	-25.255	0.100
418.800	-17.016	0.100
418.900	-22.496	0.100
419.000	-33.319	0.100
419.100	-0.974	0.100
419.200	-20.729	0.100
419.300	-25.352	0.100
419.400	-6.607	0.100
419.500	-3.010	0.100
419.600	-14.196	0.100
419.700	-24.284	0.100
419.800	-4.463	0.100
419.900	-19.446	0.100
420.000	-12.494	0.100
420.100	-26.269	0.100
420.200	-22.935	0.100
420.300	-26.518	0.100
420.400	-17.402	0.100
420.500	-13.922	0.100
420.600	-8.268	0.100
420.700	-14.701	0.100
420.800	-26.259	0.100
420.900	-19.703	0.100
421.000	-18.411	0.100
421.100	-11.703	0.100
421.200	-25.958	0.100
421.300	-12.440	0.100
421.400	-22.606	0.100
421.500	-17.978	0.100
421.600	-2.276	0.100
421.700	-20.937	0.100
421.800	-18.901	0.100
421.900	-24.532	0.100
422.000	-24.364	0.100
422.100	-26.872	0.100
422.200	-10.196	0.100
422.300	-27.497	0.100
422.400	-15.038	0.100
422.500	-19.570	0.100
422.600	-11.124	0.100
422.700	-16.807	0.100
422.800	-23.098	0.100
422.900	-23.072	0.100
423.000	-10.310	0.100
423.100	-16.788	0.100
423.200	-3.565	0.100
423.300	-28.210	0.100
423.400	-20.468	0.100
423.500	-9.756	0.100
423.600	-14.910	0.100
423.700	-20.515	0.100
423.800	-26.748	0.100
423.900	-11.255	0.100
424.000	-16.616	0.100
424.100	-16.255	0.100
424.200	-5.683	0.100
424.300	-18.882	0.100
424.400	-18.528	0.100
424.500	-10.576	0.100
424.600	-17.650	0.100
424.700	-9.143	0.100
424.800	-10.603	0.100
424.900	-15.294	0.100
425.000	-4.398	0.100
425.100	-15.476	0.100
425.200	-24.628	0.100
425.300	-38.175	0.100
425.400	-14.944	0.100
425.500	-1.653	0.100
425.600	-13.723	0.100
425.700	-20.985	0.100
425.800	-10.998	0.100
425.900	-16.694	0.100
426.000	-11.622	0.100
426.100	-16.395	0.100
426.200	-10.040	0.100
426.300	-27.575	0.100
426.400	-11.302	0.100
426.500	-15.781	0.100
426.600	-10.288	0.100
426.700	-28.050	0.100
426.800	-10.096	0.100
426.900	-15.172	0.100
427.000	-13.026	0.100
427.100	-29.485	0.100
427.200	-25.040	0.100
427.300	-14.256	0.100
427.400	-31.260	0.100
427.500	-12.769	0.100
427.600	-6.308	0.100
427.700	-13.508	0.100
427.800	-17.647	0.100
427.900	-22.331	0.100
428.000	-8.375	0.100
428.100	-28.567	0.100
428.200	-27.413	0.100
428.300	-8.175	0.100
428.400	-10.675	0.100
428.500	-11.794	0.100
428.600	-20.001	0.100
428.700	-24.651	0.100
428.800	-37.568	0.100
428.900	-21.195	0.100
429.000	-16.218	0.100
429.100	-10.382	0.100
429.200	-17.858	0.100
429.300	-25.531	0.100
429.400	-14.375	0.100
429.500	-14.846	0.100
429.600	-7.826	0.100
429.700	-23.291	0.100
429.800	-19.077	0.100
429.900	-14.364	0.100
430.000	-27.831	0.100
430.100	-26.838	0.100
430.200	-21.035	0.100
430.300	-14.192	0.100
430.400	-15.277	0.100
430.500	-21.619	0.100
430.600	-10.897	0.100
430.700	-33.836	0.100
430.800	-23.827	0.100
430.900	-6.810	0.100
431.000	-11.377	0.100
431.100	-21.229	0.100
431.200	-25.154	0.100
431.300	-13.144	0.100
431.400	-2.396	0.100
431.500	-7.145	0.100
431.600	-4.985	0.100
431.700	-19.119	0.100
431.800	-13.395	0.100
431.900	-23.834	0.100
432.000	-21.476	0.100
432.100	-11.529	0.100
432.200	-21.735	0.100
432.300	-22.649	0.100
432.400	-22.578	0.100
432.500	-7.358	0.100
432.600	-10.255	0.100
432.700	-15.657	0.100
432.800	-5.808	0.100
432.900	-26.972	0.100
433.000	-7.582	0.100
433.100	-11.801	0.100
433.200	-21.972	0.100
433.300	-4.237	0.100
433.400	-16.604	0.100
433.500	-5.090	0.100
433.600	-35.188	0.100
433.700	-24.218	0.100
433.800	-13.961	0.100
433.900	-17.766	0.100
434.000	-8.860	0.100
434.100	-11.238	0.100
434.200	-16.528	0.100
434.300	-29.017	0.100
434.400	-19.879	0.100
434.500	-24.150	0.100
434.600	-0.493	0.100
434.700	-16.960	0.100
434.800	-8.560	0.100
434.900	-25.391	0.100
435.000	-4.559	0.100
435.100	-17.735	0.100
435.200	-8.624	0.100
435.300	-7.569	0.100
435.400	-24.067	0.100
435.500	-10.925	0.100
435.600	-15.833	0.100
435.700	3.575	0.100
435.800	-23.423	0.100
435.900	-16.362	0.100
436.000	-19.796	0.100
436.100	-14.410	0.100
436.200	-4.870	0.100
436.300	-8.005	0.100
436.400	-10.967	0.100
436.500	-12.069	0.100
436.600	-25.241	0.100
436.700	-11.058	0.100
436.800	-20.013	0.100
436.900	-19.822	0.100
437.000	-6.133	0.100
437.100	-6.324	0.100
437.200	-16.087	0.100
437.300	-23.775	0.100
437.400	-6.821	0.100
437.500	-17.124	0.100
437.600	-17.075	0.099
437.700	-15.043	0.100
437.800	-11.396	0.100
437.900	-14.357	0.100
438.000	-16.942	0.099
438.100	-6.073	0.100
438.200	-0.605	0.100
438.300	-24.064	0.100
438.400	-17.229	0.099
438.500	-8.531	0.100
438.600	-27.647	0.100
438.700	-16.118	0.099
438.800	-2.034	0.100
438.900	-19.018	0.100
439.000	-0.510	0.100
439.100	-13.119	0.100
439.200	-24.007	0.100
439.300	-16.896	0.100
439.400	-22.054	0.100
439.500	-9.125	0.100
439.600	-25.981	0.100
439.700	-15.370	0.099
439.800	-16.999	0.099
439.900	-19.068	0.099
440.000	-13.854	0.099
440.100	-9.970	0.099
440.200	-9.183	0.099
440.300	-34.889	0.099
440.400	-8.900	0.099
440.500	-14.764	0.099
440.600	-9.138	0.099
440.700	-3.207	0.099
440.800	-18.450	0.099
440.900	-12.530	0.099
441.000	-12.019	0.099
441.100	-19.669	0.099
441.200	-20.442	0.099
441.300	-10.590	0.099
441.400	-12.886	0.099
441.500	-5.118	0.099
441.600	-28.677	0.099
441.700	-5.038	0.099
441.800	-7.715	0.099
441.900	-35.648	0.099
442.000	-2.342	0.099
442.100	-17.132	0.099
442.200	0.253	0.099
442.300	-11.978	0.099
442.400	-15.153	0.099
442.500	-6.338	0.099
442.600	-4.787	0.099
442.700	-4.383	0.099
442.800	-18.476	0.099
442.900	-20.933	0.099
443.000	-8.988	0.099
443.100	-28.084	0.099
443.200	-12.677	0.099
443.300	-8.027	0.099
443.400	-17.552	0.099
443.500	-2.219	0.099
443.600	-18.123	0.099
443.700	-15.679	0.099
443.800	-13.954	0.099
443.900	-11.425	0.099
444.000	-10.655	0.099
444.100	-21.459	0.099
444.200	-15.347	0.099
444.300	-7.648	0.099
444.400	-15.782	0.099
444.500	0.425	0.099
444.600	-20.992	0.099
444.700	-14.066	0.099
444.800	-6.003	0.099
444.900	-20.185	0.099
445.000	-19.905	0.099
445.100	-13.454	0.099
445.200	-8.423	0.099
445.300	-16.016	0.099
445.400	-18.718	0.099
445.500	-17.345	0.099
445.600	-12.772	0.099
445.700	-14.328	0.099
445.800	-12.610	0.099
445.900	3.715	0.099
446.000	-40.584	0.099
446.100	-13.780	0.099
446.200	-21.807	0.099
446.300	-11.989	0.099
446.400	-6.472	0.099
446.500	-20.783	0.099
446.600	-14.472	0.099
446.700	-12.243	0.099
446.800	-11.883	0.099
446.900	-16.861	0.099
447.000	-16.505	0.099
447.100	-13.228	0.099
447.200	-13.779	0.099
447.300	-18.098	0.099
447.400	-15.599	0.099
447.500	1.415	0.099
447.600	-14.191	0.099
447.700	-12.607	0.099
447.800	-6.239	0.099
447.900	-17.645	0.099
448.000	-31.633	0.099
448.100	-13.517	0.099
448.200	-6.905	0.099
448.300	-17.071	0.099
448.400	-17.378	0.099
448.500	-7.767	0.099
448.600	-25.239	0.099
448.700	-17.686	0.099
448.800	-13.717	0.099
448.900	-0.234	0.099
449.000	-9.671	0.099
449.100	-26.486	0.099
449.200	-28.873	0.099
449.300	0.766	0.099
449.400	-9.197	0.099
449.500	-9.449	0.099
449.600	-17.685	0.099
449.700	-23.084	0.099
449.800	-19.204	0.099
449.900	-3.667	0.099
450.000	-11.664	0.099
450.100	-2.585	0.099
450.200	-21.243	0.099
450.300	1.124	0.099
450.400	-17.814	0.099
450.500	-11.745	0.099
450.600	-18.768	0.099
450.700	-12.094	0.099
450.800	-14.284	0.099
450.900	-8.406	0.099
451.000	-9.413	0.099
451.100	-20.773	0.099
451.200	-1.612	0.099
451.300	-6.711	0.099
451.400	-15.968	0.099
451.500	-12.465	0.099
451.600	-25.258	0.099
451.700	-25.183	0.099
451.800	-0.188	0.099
451.900	-15.041	0.099
452.000	-0.696	0.099
452.100	-3.770	0.099
452.200	-26.125	0.099
452.300	-13.605	0.099
452.400	-15.157	0.099
452.500	-15.921	0.099
452.600	-4.546	0.099
452.700	-16.207	0.099
452.800	-3.998	0.099
452.900	-11.542	0.099
453.000	-24.017	0.099
453.100	0.349	0.099
453.200	-24.448	0.099
453.300	-5.984	0.099
453.400	-12.454	0.099
453.500	-10.863	0.099
453.600	-13.883	0.099
453.700	-10.669	0.099
453.800	-6.451	0.099
453.900	-2.914	0.099
454.000	-22.415	0.099
454.100	-13.355	0.099
454.200	-17.227	0.099
454.300	-19.711	0.099
454.400	-5.145	0.099
454.500	-9.746	0.099
454.600	-10.375	0.099
454.700	-5.480	0.099
454.800	-24.966	0.099
454.900	-6.871	0.099
455.000	-14.773	0.099
455.100	-4.745	0.099
455.200	-18.265	0.099
455.300	12.167	0.099
455.400	-9.516	0.099
455.500	-23.591	0.099
455.600	-21.457	0.099
455.700	-6.735	0.099
455.800	-17.769	0.099
455.900	-12.627	0.099
456.000	-13.252	0.099
456.100	-10.899	0.099
456.200	-25.055	0.099
456.300	1.680	0.099
456.400	-16.390	0.099
456.500	-10.012	0.099
456.600	-2.545	0.099
456.700	-11.182	0.099
456.800	-14.606	0.099
456.900	-5.653	0.099
457.000	-6.097	0.099
457.100	-14.612	0.099
457.200	-5.311	0.099
457.300	-16.221	0.099
457.400	-6.110	0.099
457.500	-20.952	0.099
457.600	-13.856	0.099
457.700	-12.923	0.099
457.800	-2.640	0.099
457.900	-14.579	0.099
458.000	-12.563	0.099
458.100	-7.615	0.099
458.200	-12.888	0.099
458.300	-3.557	0.099
458.400	-1.811	0.099
458.500	-5.402	0.099
458.600	-13.930	0.099
458.700	-12.951	0.099
458.800	-19.957	0.099
458.900	-10.378	0.099
459.000	-1.267	0.099
459.100	-13.320	0.099
459.200	-15.464	0.099
459.300	-19.676	0.099
459.400	-6.135	0.099
459.500	-18.061	0.099
459.600	-10.918	0.099
459.700	-11.458	0.100
459.800	-7.314	0.099
459.900	-8.477	0.099
460.000	-13.987	0.100
460.100	-15.596	0.099
460.200	-2.055	0.100
460.300	-6.262	0.100
460.400	-11.588	0.100
460.500	-7.963	0.100
460.600	-14.157	0.099
460.700	-7.922	0.100
460.800	-0.558	0.100
460.900	-21.366	0.100
461.000	-11.046	0.100
461.100	-0.977	0.099
461.200	-11.259	0.099
461.300	-8.690	0.100
461.400	-24.410	0.099
461.500	9.717	0.100
461.600	-18.362	0.099
461.700	-13.456	0.100
461.800	-7.687	0.099
461.900	-11.735	0.099
462.000	-13.974	0.099
462.100	-18.524	0.099
462.200	-6.007	0.099
462.300	-14.709	0.099
462.400	-7.190	0.099
462.500	-3.698	0.099
462.600	-25.435	0.099
462.700	-0.040	0.099
462.800	-0.666	0.099
462.900	-16.050	0.099
463.000	-14.241	0.099
463.100	-12.838	0.099
463.200	-7.110	0.099
463.300	-7.760	0.099
463.400	-9.608	0.099
463.500	-17.424	0.099
463.600	-23.429	0.099
463.700	-19.693	0.099
463.800	-5.900	0.099
463.900	-2.736	0.099
464.000	-15.182	0.100
464.100	-13.825	0.099
464.200	-12.433	0.099
464.300	-8.068	0.099
464.400	-23.870	0.099
464.500	0.148	0.099
464.600	-17.978	0.099
464.700	-8.773	0.099
464.800	-3.012	0.099
464.900	-2.129	0.099
465.000	-19.076	0.099
465.100	-15.629	0.099
465.200	-13.499	0.099
465.300	-8.606	0.099
465.400	-9.776	0.099
465.500	-13.823	0.099
465.600	-0.144	0.099
465.700	-9.188	0.099
465.800	-8.249	0.099
465.900	-9.340	0.099
466.000	-7.329	0.099
466.100	-9.474	0.099
466.200	0.471	0.099
466.300	-9.441	0.099
466.400	-24.019	0.099
466.500	-16.938	0.099
466.600	-2.056	0.099
466.700	-17.560	0.099
466.800	-9.374	0.099
466.900	-6.057	0.099
467.000	-14.768	0.100
467.100	-11.124	0.099
467.200	-0.614	0.099
467.300	-10.540	0.099
467.400	-12.777	0.099
467.500	2.619	0.099
467.600	-7.430	0.099
467.700	-21.606	0.099
467.800	-12.641	0.099
467.900	5.841	0.099
468.000	-3.463	0.099
468.100	-18.392	0.099
468.200	-8.290	0.099
468.300	-2.938	0.099
468.400	-1.770	0.099
468.500	-17.427	0.099
468.600	-7.803	0.100
468.700	-9.644	0.099
468.800	-10.575	0.099
468.900	-3.999	0.099
469.000	-21.930	0.099
469.100	-13.548	0.099
469.200	-15.478	0.099
469.300	-7.895	0.099
469.400	-4.469	0.099
469.500	-6.002	0.100
469.600	-9.832	0.099
469.700	-20.614	0.099
469.800	-3.051	0.099
469.900	-13.678	0.099
470.000	-3.809	0.099
470.100	-12.313	0.099
470.200	-15.946	0.099
470.300	-15.199	0.099
470.400	-11.857	0.099
470.500	-11.750	0.099
470.600	-6.965	0.099
470.700	-1.902	0.099
470.800	-0.941	0.100
470.900	-15.385	0.099
471.000	-8.707	0.099
471.100	-9.249	0.099
471.200	-19.771	0.099
471.300	-32.559	0.099
471.400	1.543	0.099
471.500	-9.962	0.099
471.600	-17.014	0.099
471.700	-11.323	0.099
471.800	-22.934	0.099
471.900	-8.574	0.099
472.000	1.527	0.100
472.100	-8.068	0.100
472.200	-21.836	0.099
472.300	-11.014	0.099
472.400	0.299	0.100
472.500	-3.255	0.099
472.600	-17.621	0.100
472.700	-2.399	0.099
472.800	-30.593	0.099
472.900	-11.310	0.099
473.000	-12.668	0.099
473.100	8.117	0.099
473.200	-9.715	0.099
473.300	-10.979	0.099
473.400	-16.189	0.099
473.500	-11.899	0.099
473.600	-9.107	0.100
473.700	-7.767	0.099
473.800	-3.527	0.099
473.900	-8.421	0.099
474.000	-5.457	0.099
474.100	-15.160	0.099
474.200	-6.009	0.099
474.300	-4.538	0.099
474.400	-3.736	0.099
474.500	-10.856	0.099
474.600	-20.865	0.099
474.700	-1.987	0.099
474.800	2.041	0.099
474.900	-16.981	0.099
475.000	2.721	0.099
475.100	3.439	0.100
475.200	-4.027	0.099
475.300	-18.594	0.099
475.400	-26.037	0.099
475.500	-11.595	0.099
475.600	-16.068	0.099
475.700	-11.492	0.099
475.800	-3.883	0.099
475.900	-18.389	0.099
476.000	-12.427	0.099
476.100	-6.665	0.099
476.200	-7.905	0.099
476.300	-5.762	0.099
476.400	3.438	0.099
476.500	-1.578	0.099
476.600	-14.543	0.099
476.700	-21.330	0.099
476.800	-12.049	0.099
476.900	-22.767	0.099
477.000	-4.333	0.099
477.100	-4.468	0.099
477.200	-6.707	0.099
477.300	-15.416	0.099
477.400	-9.577	0.099
477.500	-12.607	0.099
477.600	-11.935	0.099
477.700	-4.729	0.099
477.800	-10.971	0.100
477.900	-17.638	0.099
478.000	-0.324	0.099
478.100	-1.146	0.099
478.200	-14.819	0.099
478.300	-14.399	0.099
478.400	-8.610	0.099
478.500	-20.836	0.099
478.600	-3.807	0.100
478.700	-10.223	0.099
478.800	-13.787	0.099
478.900	-8.577	0.099
479.000	-7.651	0.099
479.100	-9.179	0.099
479.200	-7.132	0.099
479.300	-12.374	0.099
479.400	-14.131	0.099
479.500	-14.414	0.099
479.600	-4.026	0.099
479.700	-6.591	0.099
479.800	-14.547	0.099
479.900	-24.131	0.099
480.000	-14.685	0.099
480.100	-7.738	0.099
480.200	3.610	0.099
480.300	-23.575	0.099
480.400	-26.668	0.100
480.500	2.067	0.099
480.600	-12.778	0.099
480.700	-6.958	0.099
480.800	5.471	0.099
480.900	-8.224	0.099
481.000	-10.643	0.099
481.100	3.188	0.100
481.200	-14.603	0.099
481.300	3.004	0.099
481.400	-7.290	0.099
481.500	-18.090	0.099
481.600	4.392	0.100
481.700	7.045	0.099
481.800	-11.384	0.099
481.900	17.526	0.099
482.000	-6.810	0.099
482.100	5.117	0.099
482.200	17.103	0.099
482.300	-0.437	0.099
482.400	11.367	0.099
482.500	7.454	0.099
482.600	7.216	0.099
482.700	6.056	0.099
482.800	13.013	0.099
482.900	4.093	0.099
483.000	13.545	0.099
483.100	14.766	0.099
483.200	21.385	0.099
483.300	6.963	0.099
483.400	20.041	0.099
483.500	8.315	0.099
483.600	15.634	0.099
483.700	14.750	0.099
483.800	27.627	0.099
483.900	14.125	0.099
484.000	15.610	0.099
484.100	18.279	0.100
484.200	-2.068	0.099
484.300	12.003	0.100
484.400	12.378	0.099
484.500	24.665	0.099
484.600	9.929	0.099
484.700	5.220	0.099
484.800	30.353	0.099
484.900	8.911	0.099
485.000	12.920	0.099
485.100	10.990	0.100
485.200	9.375	0.099
485.300	1.197	0.099
485.400	16.226	0.099
485.500	18.155	0.099
485.600	13.708	0.099
485.700	6.904	0.099
485.800	6.455	0.100
485.900	7.331	0.099
486.000	18.697	0.099
486.100	0.220	0.099
486.200	14.709	0.099
486.300	-0.016	0.099
486.400	11.059	0.099
486.500	18.400	0.099
486.600	10.182	0.099
486.700	21.563	0.099
486.800	11.074	0.099
486.900	12.955	0.099
487.000	15.168	0.099
487.100	18.822	0.099
487.200	14.548	0.099
487.300	17.889	0.099
487.400	18.436	0.099
487.500	20.394	0.099
487.600	11.079	0.099
487.700	16.762	0.100
487.800	15.721	0.099
487.900	12.421	0.099
488.000	7.344	0.099
488.100	9.743	0.099
488.200	15.171	0.099
488.300	9.603	0.099
488.400	23.253	0.099
488.500	13.264	0.100
488.600	23.481	0.099
488.700	18.366	0.099
488.800	14.754	0.099
488.900	23.340	0.099
489.000	9.655	0.099
489.100	23.326	0.099
489.200	22.469	0.100
489.300	6.131	0.100
489.400	10.389	0.100
489.500	22.194	0.100
489.600	27.079	0.099
489.700	22.166	0.099
489.800	11.322	0.099
489.900	24.716	0.099
490.000	9.798	0.099
490.100	19.811	0.099
490.200	11.571	0.099
490.300	23.915	0.099
490.400	24.400	0.100
490.500	23.013	0.100
490.600	19.279	0.099
490.700	26.845	0.099
490.800	28.262	0.100
490.900	18.299	0.099
491.000	16.743	0.099
491.100	25.261	0.100
491.200	38.138	0.099
491.300	17.647	0.099
491.400	28.733	0.099
491.500	14.469	0.099
491.600	6.360	0.099
491.700	27.677	0.100
491.800	10.415	0.099
491.900	15.611	0.099
492.000	40.081	0.100
492.100	27.367	0.099
492.200	13.933	0.099
492.300	7.789	0.099
492.400	26.004	0.099
492.500	21.521	0.099
492.600	15.136	0.099
492.700	30.205	0.100
492.800	21.758	0.099
492.900	22.593	0.099
493.000	22.092	0.100
493.100	12.581	0.099
493.200	36.703	0.099
493.300	27.037	0.100
493.400	19.854	0.099
493.500	6.637	0.099
493.600	21.290	0.099
493.700	37.156	0.099
493.800	27.420	0.099
493.900	36.549	0.100
494.000	19.696	0.099
494.100	21.056	0.100
494.200	28.624	0.100
494.300	25.705	0.100
494.400	25.527	0.099
494.500	29.382	0.099
494.600	18.046	0.099
494.700	18.197	0.099
494.800	27.171	0.099
494.900	35.417	0.099
495.000	26.086	0.099
495.100	14.221	0.100
495.200	20.711	0.099
495.300	44.282	0.100
495.400	14.830	0.099
495.500	16.809	0.100
495.600	28.107	0.099
495.700	25.934	0.099
495.800	39.540	0.100
495.900	13.055	0.099
496.000	30.853	0.099
496.100	38.640	0.099
496.200	25.652	0.099
496.300	14.251	0.099
496.400	34.197	0.100
496.500	28.785	0.099
496.600	21.992	0.099
496.700	24.091	0.099
496.800	17.153	0.099
496.900	33.063	0.100
497.000	25.437	0.099
497.100	38.272	0.099
497.200	4.428	0.100
497.300	32.420	0.099
497.400	29.019	0.100
497.500	12.201	0.100
497.600	26.662	0.099
497.700	27.842	0.099
497.800	18.775	0.099
497.900	29.263	0.099
498.000	27.199	0.099
498.100	27.024	0.100
498.200	46.873	0.100
498.300	28.334	0.099
498.400	32.732	0.100
498.500	32.008	0.099
498.600	19.333	0.099
498.700	31.473	0.099
498.800	17.844	0.099
498.900	30.386	0.099
499.000	30.786	0.099
499.100	34.078	0.099
499.200	31.861	0.099
499.300	24.111	0.099
499.400	16.525	0.099
499.500	24.379	0.100
499.600	15.555	0.099
499.700	30.973	0.099
499.800	26.016	0.100
499.900	37.352	0.099
500.000	18.560	0.099
500.100	30.656	0.100
500.200	28.024	0.099
500.300	34.327	0.100
500.400	31.089	0.099
500.500	17.947	0.099
500.600	33.181	0.099
500.700	15.236	0.099
500.800	37.313	0.099
500.900	25.483	0.099
501.000	36.445	0.099
501.100	33.149	0.099
501.200	17.196	0.099
501.300	30.514	0.099
501.400	5.245	0.099
501.500	37.805	0.099
501.600	39.324	0.099
501.700	17.975	0.099
501.800	31.863	0.099
501.900	43.099	0.099
502.000	28.728	0.099
502.100	30.320	0.099
502.200	19.178	0.099
502.300	38.966	0.099
502.400	32.377	0.099
502.500	24.851	0.099
502.600	35.078	0.099
502.700	35.624	0.100
502.800	22.451	0.100
502.900	37.098	0.100
503.000	26.833	0.100
503.100	22.118	0.100
503.200	42.055	0.099
503.300	34.728	0.099
503.400	24.620	0.099
503.500	17.456	0.099
503.600	31.733	0.099
503.700	31.981	0.099
503.800	23.212	0.099
503.900	25.164	0.099
504.000	30.916	0.099
504.100	28.685	0.099
504.200	31.513	0.100
504.300	29.369	0.099
504.400	37.583	0.099
504.500	25.197	0.099
504.600	27.812	0.100
504.700	40.735	0.099
504.800	19.294	0.099
504.900	43.373	0.099
505.000	27.288	0.100
505.100	24.042	0.100
505.200	31.368	0.100
505.300	37.228	0.100
505.400	26.468	0.099
505.500	25.095	0.100
505.600	21.892	0.100
505.700	28.601	0.100
505.800	39.189	0.099
505.900	24.600	0.099
506.000	35.159	0.099
506.100	33.984	0.099
506.200	29.311	0.099
506.300	21.068	0.099
506.400	28.736	0.099
506.500	28.810	0.100
506.600	30.508	0.099
506.700	28.337	0.100
506.800	27.273	0.099
506.900	40.220	0.099
507.000	18.718	0.100
507.100	25.199	0.099
507.200	35.798	0.099
507.300	23.410	0.099
507.400	34.850	0.099
507.500	24.938	0.099
507.600	35.194	0.099
507.700	16.379	0.100
507.800	37.527	0.099
507.900	27.794	0.100
508.000	8.936	0.099
508.100	34.829	0.099
508.200	41.364	0.100
508.300	23.501	0.099
508.400	9.911	0.099
508.500	28.601	0.099
508.600	30.112	0.099
508.700	17.190	0.099
508.800	33.897	0.100
508.900	18.720	0.099
509.000	37.201	0.099
509.100	21.825	0.100
509.200	18.125	0.100
509.300	31.410	0.100
509.400	16.013	0.099
509.500	28.755	0.099
509.600	35.968	0.099
509.700	21.112	0.099
509.800	20.152	0.099
509.900	17.982	0.099
510.000	38.118	0.100
510.100	19.876	0.100
510.200	22.916	0.100
510.300	21.551	0.100
510.400	29.053	0.099
510.500	25.515	0.099
510.600	23.059	0.099
510.700	16.843	0.100
510.800	30.041	0.099
510.900	32.908	0.099
511.000	34.838	0.100
511.100	33.488	0.099
511.200	34.368	0.100
511.300	26.585	0.099
511.400	24.797	0.100
511.500	33.945	0.099
511.600	17.653	0.099
511.700	34.390	0.100
511.800	27.014	0.099
511.900	25.136	0.100
512.000	24.220	0.099
512.100	32.038	0.099
512.200	32.877	0.099
512.300	24.323	0.099
512.400	30.087	0.099
512.500	23.717	0.099
512.600	39.000	0.099
512.700	21.424	0.099
512.800	25.588	0.099
512.900	21.464	0.100
513.000	30.988	0.099
513.100	20.791	0.099
513.200	28.426	0.099
513.300	34.558	0.099
513.400	16.501	0.099
513.500	22.217	0.099
513.600	29.567	0.099
513.700	18.660	0.099
513.800	36.142	0.100
513.900	8.985	0.099
514.000	27.955	0.100
514.100	35.933	0.100
514.200	37.611	0.099
514.300	28.808	0.100
514.400	25.270	0.099
514.500	26.528	0.100
514.600	31.856	0.099
514.700	32.010	0.100
514.800	21.701	0.099
514.900	31.500	0.099
515.000	27.904	0.099
515.100	31.844	0.099
515.200	20.835	0.100
515.300	35.445	0.099
515.400	30.720	0.100
515.500	18.851	0.099
515.600	15.404	0.099
515.700	32.298	0.100
515.800	32.932	0.099
515.900	20.358	0.100
516.000	21.652	0.099
516.100	40.025	0.100
516.200	42.533	0.100
516.300	27.325	0.099
516.400	28.488	0.099
516.500	40.287	0.099
516.600	13.462	0.099
516.700	32.589	0.099
516.800	33.149	0.100
516.900	16.228	0.099
517.000	22.788	0.099
517.100	40.855	0.099
517.200	21.623	0.099
517.300	26.479	0.099
517.400	15.894	0.100
517.500	41.656	0.099
517.600	27.871	0.099
517.700	22.757	0.099
517.800	37.271	0.099
517.900	27.521	0.099
518.000	18.968	0.100
518.100	29.752	0.099
518.200	26.813	0.099
518.300	15.717	0.099
518.400	29.045	0.099
518.500	28.562	0.100
518.600	23.957	0.099
518.700	36.246	0.099
518.800	34.148	0.100
518.900	10.139	0.099
519.000	22.528	0.099
519.100	7.327	0.099
519.200	24.746	0.099
519.300	26.680	0.100
519.400	37.933	0.099
519.500	18.922	0.100
519.600	22.597	0.099
519.700	21.572	0.099
519.800	36.479	0.099
519.900	24.094	0.099
520.000	25.485	0.100
520.100	38.884	0.099
520.200	21.975	0.100
520.300	29.354	0.099
520.400	32.303	0.100
520.500	23.605	0.099
520.600	20.035	0.099
520.700	27.031	0.099
520.800	17.051	0.099
520.900	33.667	0.099
521.000	20.020	0.099
521.100	10.660	0.099
521.200	36.168	0.099
521.300	27.055	0.099
521.400	17.772	0.100
521.500	20.975	0.099
521.600	33.008	0.099
521.700	29.409	0.099
521.800	30.596	0.099
521.900	35.780	0.099
522.000	17.674	0.099
522.100	27.850	0.099
522.200	18.498	0.099
522.300	32.323	0.099
522.400	24.690	0.099
522.500	34.148	0.100
522.600	33.211	0.100
522.700	20.740	0.099
522.800	23.534	0.099
522.900	26.389	0.099
523.000	26.014	0.099
523.100	25.791	0.099
523.200	23.154	0.099
523.300	15.122	0.099
523.400	34.512	0.100
523.500	24.326	0.100
523.600	15.572	0.099
523.700	27.961	0.100
523.800	41.635	0.099
523.900	24.446	0.099
524.000	17.646	0.099
524.100	42.777	0.099
524.200	22.501	0.099
524.300	29.794	0.099
524.400	12.412	0.100
524.500	32.100	0.099
524.600	14.291	0.099
524.700	33.898	0.100
524.800	43.063	0.099
524.900	24.477	0.099
525.000	30.344	0.099
525.100	33.844	0.100
525.200	34.837	0.099
525.300	7.143	0.099
525.400	8.246	0.099
525.500	37.310	0.099
525.600	32.483	0.099
525.700	32.626	0.099
525.800	30.878	0.099
525.900	13.112	0.099
526.000	36.785	0.099
526.100	27.640	0.099
526.200	21.924	0.099
526.300	32.747	0.099
526.400	23.810	0.099
526.500	33.392	0.099
526.600	39.784	0.099
526.700	8.473	0.099
526.800	17.756	0.100
526.900	30.688	0.100
527.000	19.498	0.100
527.100	34.257	0.100
527.200	24.819	0.099
527.300	30.017	0.100
527.400	22.060	0.099
527.500	22.426	0.099
527.600	25.292	0.099
527.700	33.553	0.100
527.800	21.197	0.099
527.900	11.984	0.100
528.000	19.215	0.099
528.100	24.307	0.099
528.200	24.812	0.099
528.300	26.747	0.099
528.400	23.720	0.100
528.500	16.105	0.099
528.600	30.604	0.099
528.700	16.421	0.099
528.800	4.960	0.099
528.900	35.219	0.099
529.000	24.910	0.099
529.100	19.783	0.099
529.200	21.221	0.099
529.300	25.845	0.099
529.400	22.935	0.099
529.500	19.009	0.099
529.600	33.457	0.099
529.700	17.204	0.099
529.800	31.266	0.099
529.900	24.918	0.100
530.000	15.954	0.099
530.100	14.251	0.099
530.200	36.705	0.100
530.300	27.327	0.099
530.400	11.110	0.099
530.500	24.064	0.099
530.600	29.953	0.099
530.700	9.831	0.099
530.800	19.923	0.100
530.900	15.839	0.099
531.000	30.070	0.099
531.100	34.266	0.099
531.200	29.272	0.099
531.300	27.264	0.100
531.400	14.323	0.099
531.500	27.629	0.099
531.600	19.199	0.099
531.700	24.336	0.099
531.800	33.084	0.099
531.900	29.834	0.099
532.000	21.700	0.099
532.100	16.802	0.099
532.200	21.566	0.099
532.300	34.288	0.099
532.400	12.628	0.099
532.500	28.271	0.099
532.600	24.677	0.099
532.700	32.783	0.099
532.800	9.453	0.099
532.900	28.795	0.099
533.000	1.151	0.100
533.100	29.213	0.099
533.200	39.940	0.099
533.300	32.616	0.099
533.400	18.017	0.099
533.500	29.979	0.099
533.600	22.516	0.099
533.700	26.796	0.099
533.800	26.800	0.099
533.900	24.852	0.099
534.000	19.207	0.099
534.100	31.170	0.099
534.200	22.199	0.099
534.300	27.425	0.099
534.400	31.260	0.099
534.500	25.349	0.099
534.600	27.351	0.100
534.700	31.693	0.099
534.800	29.395	0.099
534.900	18.683	0.099
535.000	21.506	0.099
535.100	18.478	0.100
535.200	23.659	0.099
535.300	31.973	0.100
535.400	36.217	0.099
535.500	21.547	0.099
535.600	16.563	0.099
535.700	21.738	0.099
535.800	34.447	0.099
535.900	13.672	0.099
536.000	20.760	0.100
536.100	35.046	0.099
536.200	19.085	0.099
536.300	14.476	0.099
536.400	4.423	0.099
536.500	19.880	0.100
536.600	23.463	0.099
536.700	30.472	0.099
536.800	24.818	0.099
536.900	20.300	0.099
537.000	16.307	0.099
537.100	35.405	0.099
537.200	19.373	0.099
537.300	28.509	0.099
537.400	5.536	0.099
537.500	21.724	0.099
537.600	27.620	0.099
537.700	22.723	0.099
537.800	25.986	0.099
537.900	24.133	0.099
538.000	21.080	0.099
538.100	27.358	0.099
538.200	23.119	0.099
538.300	20.003	0.099
538.400	33.597	0.099
538.500	7.154	0.099
538.600	17.778	0.099
538.700	29.607	0.099
538.800	26.226	0.100
538.900	29.930	0.099
539.000	10.479	0.099
539.100	9.261	0.099
539.200	26.319	0.099
539.300	36.998	0.099
539.400	28.238	0.100
539.500	11.509	0.099
539.600	25.861	0.099
539.700	20.162	0.099
539.800	30.566	0.099
539.900	12.132	0.099
540.000	16.345	0.099
540.100	23.169	0.099
540.200	25.201	0.100
540.300	29.719	0.099
540.400	27.858	0.099
540.500	13.287	0.099
540.600	26.846	0.099
540.700	29.841	0.099
540.800	20.881	0.099
540.900	14.943	0.099
541.000	16.346	0.100
541.100	10.813	0.099
541.200	17.542	0.099
541.300	17.898	0.099
541.400	31.333	0.099
541.500	-2.047	0.099
541.600	10.908	0.100
541.700	11.255	0.099
541.800	4.595	0.100
541.900	0.848	0.099
542.000	8.883	0.099
542.100	3.346	0.100
542.200	6.031	0.099
542.300	13.378	0.099
542.400	3.058	0.099
542.500	3.145	0.099
542.600	10.115	0.099
542.700	-8.993	0.100
542.800	18.737	0.100
542.900	-11.782	0.099
543.000	8.813	0.099
543.100	-6.178	0.099
543.200	-1.669	0.100
543.300	2.621	0.099
543.400	-1.170	0.099
543.500	-13.104	0.099
543.600	-3.860	0.099
543.700	-3.389	0.099
543.800	-7.581	0.099
543.900	4.281	0.100
544.000	-7.567	0.099
544.100	-6.876	0.099
544.200	4.661	0.099
544.300	1.643	0.099
544.400	-2.592	0.099
544.500	-4.977	0.099
544.600	1.157	0.100
544.700	-3.367	0.099
544.800	-10.870	0.099
544.900	-4.182	0.099
545.000	3.629	0.099
545.100	-9.267	0.099
545.200	3.503	0.099
545.300	-14.901	0.099
545.400	-2.339	0.099
545.500	-9.502	0.099
545.600	-7.354	0.099
545.700	-5.157	0.099
545.800	-12.479	0.099
545.900	-0.963	0.099
546.000	-14.525	0.100
546.100	-0.760	0.100
546.200	-23.798	0.099
546.300	-8.280	0.099
546.400	-16.476	0.099
546.500	-2.653	0.099
546.600	8.160	0.099
546.700	-0.860	0.100
546.800	-9.293	0.100
546.900	-0.618	0.099
547.000	-11.854	0.099
547.100	-15.625	0.099
547.200	-3.117	0.099
547.300	-11.107	0.099
547.400	-8.679	0.099
547.500	-11.470	0.099
547.600	-10.017	0.099
547.700	-2.689	0.099
547.800	-14.428	0.099
547.900	-4.712	0.099
548.000	-9.546	0.100
548.100	-6.262	0.099
548.200	4.123	0.099
548.300	2.714	0.099
548.400	-6.862	0.099
548.500	-2.015	0.100
548.600	-11.879	0.099
548.700	-17.847	0.099
548.800	-2.109	0.099
548.900	-10.665	0.099
549.000	-1.032	0.099
549.100	-15.048	0.100
549.200	-20.608	0.099
549.300	-5.246	0.099
549.400	1.957	0.099
549.500	-12.144	0.099
549.600	-13.864	0.099
549.700	-4.149	0.100
549.800	-18.169	0.099
549.900	12.212	0.100
550.000	7.724	0.100
550.100	-14.982	0.100
550.200	-2.989	0.100
550.300	-14.834	0.099
550.400	-6.521	0.099
550.500	-14.085	0.099
550.600	-12.964	0.099
550.700	-16.339	0.099
550.800	-17.520	0.099
550.900	0.031	0.099
551.000	5.047	0.099
551.100	-18.759	0.099
551.200	-8.760	0.099
551.300	-6.407	0.099
551.400	-14.254	0.100
551.500	-10.832	0.099
551.600	-14.019	0.099
551.700	-14.708	0.100
551.800	-15.583	0.099
551.900	6.109	0.099
552.000	-11.506	0.100
552.100	-1.717	0.100
552.200	-4.708	0.099
552.300	-5.601	0.099
552.400	-16.395	0.099
552.500	-10.839	0.100
552.600	-8.980	0.099
552.700	-14.304	0.099
552.800	-13.999	0.099
552.900	-2.857	0.099
553.000	-7.472	0.099
553.100	-10.271	0.099
553.200	-14.468	0.099
553.300	-11.333	0.099
553.400	-4.087	0.099
553.500	-22.768	0.099
553.600	-15.876	0.099
553.700	-12.200	0.099
553.800	-15.049	0.099
553.900	-14.508	0.099
554.000	-3.821	0.099
554.100	-10.688	0.099
554.200	-14.174	0.099
554.300	-4.574	0.099
554.400	0.210	0.099
554.500	-12.984	0.099
554.600	-15.901	0.099
554.700	-12.122	0.100
554.800	-20.155	0.099
554.900	-15.913	0.099
555.000	-24.678	0.099
555.100	-6.321	0.100
555.200	-10.272	0.099
555.300	-26.195	0.099
555.400	-27.384	0.099
555.500	6.184	0.099
555.600	-16.575	0.099
555.700	-20.851	0.099
555.800	-7.421	0.099
555.900	-25.138	0.099
556.000	-14.023	0.099
556.100	-13.697	0.099
556.200	-10.559	0.099
556.300	-14.480	0.099
556.400	-7.933	0.099
556.500	-8.261	0.099
556.600	-7.582	0.100
556.700	-26.140	0.099
556.800	-16.234	0.100
556.900	-13.870	0.099
557.000	-10.613	0.099
557.100	-18.069	0.099
557.200	-5.376	0.099
557.300	-24.509	0.100
557.400	-14.919	0.099
557.500	-15.306	0.100
557.600	-15.132	0.099
557.700	-14.075	0.099
557.800	-15.327	0.099
557.900	-5.629	0.099
558.000	-7.847	0.099
558.100	-9.993	0.099
558.200	-29.827	0.099
558.300	-8.582	0.100
558.400	-8.486	0.099
558.500	-25.860	0.099
558.600	-15.897	0.099
558.700	-5.239	0.099
558.800	-14.532	0.099
558.900	-0.730	0.100
559.000	-5.697	0.099
559.100	-7.290	0.099
559.200	-12.035	0.099
559.300	-15.358	0.099
559.400	-18.281	0.099
559.500	-23.382	0.099
559.600	-30.029	0.099
559.700	-15.591	0.099
559.800	-9.274	0.099
559.900	-11.509	0.099
560.000	-27.419	0.099
560.100	-27.934	0.099
560.200	-0.768	0.099
560.300	-12.404	0.099
560.400	-32.040	0.099
560.500	-18.093	0.099
560.600	-8.288	0.099
560.700	-12.797	0.100
560.800	-26.212	0.099
560.900	-26.406	0.099
561.000	3.761	0.099
561.100	-19.954	0.099
561.200	-20.244	0.099
561.300	-20.179	0.099
561.400	-19.800	0.099
561.500	-9.403	0.099
561.600	-22.355	0.099
561.700	-14.446	0.099
561.800	-12.245	0.099
561.900	-12.764	0.099
562.000	-19.163	0.099
562.100	-14.202	0.100
562.200	-17.931	0.099
562.300	-28.376	0.099
562.400	-20.986	0.099
562.500	-10.857	0.099
562.600	-5.114	0.099
562.700	-27.917	0.099
562.800	-22.908	0.100
562.900	-20.115	0.099
563.000	-17.142	0.099
563.100	-17.754	0.100
563.200	-22.523	0.099
563.300	-18.276	0.099
563.400	-14.796	0.099
563.500	-27.196	0.099
563.600	-9.539	0.099
563.700	-11.455	0.099
563.800	-5.366	0.099
563.900	-27.645	0.099
564.000	-16.879	0.100
564.100	-14.135	0.099
564.200	-21.086	0.099
564.300	-19.445	0.100
564.400	-13.832	0.099
564.500	-30.978	0.099
564.600	-15.516	0.099
564.700	-10.033	0.099
564.800	-20.253	0.099
564.900	-19.388	0.099
565.000	-25.161	0.100
565.100	-22.606	0.099
565.200	-6.682	0.099
565.300	-22.710	0.099
565.400	-1.533	0.100
565.500	-5.507	0.099
565.600	-19.834	0.099
565.700	-28.804	0.099
565.800	-11.622	0.099
565.900	-31.637	0.099
566.000	-21.077	0.099
566.100	-19.151	0.099
566.200	1.050	0.099
566.300	-11.632	0.099
566.400	-23.305	0.099
566.500	-20.534	0.099
566.600	-12.391	0.100
566.700	-22.124	0.100
566.800	-12.244	0.099
566.900	-15.375	0.100
567.000	-31.133	0.100
567.100	-16.889	0.100
567.200	-19.369	0.100
567.300	-22.508	0.099
567.400	-11.559	0.099
567.500	-21.670	0.100
567.600	-13.537	0.100
567.700	-7.829	0.099
567.800	-10.472	0.099
567.900	-13.292	0.099
568.000	-17.720	0.099
568.100	-18.152	0.099
568.200	-22.975	0.099
568.300	-18.789	0.099
568.400	-19.463	0.100
568.500	-16.765	0.099
568.600	-33.326	0.099
568.700	-25.230	0.099
568.800	-13.616	0.099
568.900	-28.922	0.100
569.000	-6.082	0.099
569.100	-16.233	0.100
569.200	-16.600	0.099
569.300	-26.825	0.100
569.400	-21.028	0.100
569.500	-20.225	0.099
569.600	-14.624	0.099
569.700	-9.029	0.099
569.800	-26.208	0.099
569.900	-11.115	0.099
570.000	-22.261	0.099
570.100	-14.819	0.099
570.200	-23.550	0.099
570.300	-21.289	0.099
570.400	-25.475	0.099
570.500	-12.864	0.099
570.600	-21.746	0.099
570.700	-11.006	0.099
570.800	-26.333	0.100
570.900	-24.971	0.099
571.000	-23.184	0.099
571.100	-17.028	0.099
571.200	-23.248	0.099
571.300	-1.279	0.099
571.400	3.246	0.099
571.500	-22.018	0.099
571.600	-23.962	0.099
571.700	-10.197	0.099
571.800	-16.837	0.099
571.900	-9.591	0.099
572.000	-21.684	0.099
572.100	-15.561	0.099
572.200	-9.489	0.099
572.300	-10.391	0.099
572.400	-16.127	0.099
572.500	-19.535	0.099
572.600	-17.819	0.099
572.700	-28.449	0.099
572.800	-10.940	0.099
572.900	-9.872	0.100
573.000	-24.308	0.099
573.100	-28.158	0.100
573.200	-8.619	0.099
573.300	-21.675	0.099
573.400	-19.968	0.099
573.500	-18.621	0.099
573.600	-22.696	0.099
573.700	-16.917	0.099
573.800	-17.731	0.099
573.900	-6.946	0.100
574.000	-27.615	0.099
574.100	-7.638	0.099
574.200	-36.110	0.099
574.300	-13.949	0.099
574.400	-14.301	0.099
574.500	-9.366	0.099
574.600	-26.022	0.099
574.700	-27.645	0.099
574.800	-16.131	0.099
574.900	-22.606	0.099
575.000	-11.660	0.099
575.100	-20.384	0.099
575.200	-13.695	0.099
575.300	-23.958	0.099
575.400	-28.812	0.099
575.500	-7.916	0.099
575.600	-11.940	0.099
575.700	-16.364	0.100
575.800	-18.308	0.099
575.900	-14.369	0.099
576.000	-29.007	0.099
576.100	-11.795	0.099
576.200	-31.011	0.099
576.300	0.327	0.099
576.400	-31.813	0.099
576.500	-21.037	0.099
576.600	-17.618	0.099
576.700	-14.409	0.099
576.800	-19.387	0.099
576.900	-13.811	0.099
577.000	-25.944	0.099
577.100	-18.156	0.099
577.200	-23.023	0.099
577.300	-24.665	0.099
577.400	-18.843	0.099
577.500	-29.746	0.099
577.600	-6.506	0.099
577.700	-11.101	0.099
577.800	-13.188	0.099
577.900	-29.521	0.099
578.000	-17.754	0.100
578.100	-37.393	0.099
578.200	2.067	0.099
578.300	-17.696	0.099
578.400	-16.437	0.099
578.500	-18.856	0.099
578.600	-16.416	0.099
578.700	-35.185	0.099
578.800	-11.941	0.099
578.900	-12.601	0.099
579.000	-13.548	0.099
579.100	-2.472	0.099
579.200	-21.143	0.099
579.300	-27.933	0.099
579.400	-11.160	0.099
579.500	-13.937	0.099
579.600	-18.265	0.099
579.700	-16.465	0.099
579.800	-24.832	0.099
579.900	-15.194	0.099
580.000	-7.684	0.099
580.100	-30.707	0.099
580.200	-12.696	0.099
580.300	-20.654	0.099
580.400	-25.909	0.099
580.500	-14.881	0.099
580.600	-7.970	0.099
580.700	-24.420	0.100
580.800	-18.710	0.099
580.900	-4.451	0.099
581.000	-23.360	0.099
581.100	-20.773	0.099
581.200	-19.730	0.099
581.300	-18.905	0.099
581.400	-19.782	0.099
581.500	-19.191	0.099
581.600	-16.983	0.099
581.700	-16.894	0.099
581.800	-1.759	0.099
581.900	-25.791	0.099
582.000	-11.258	0.099
582.100	-13.298	0.099
582.200	-12.417	0.099
582.300	-11.086	0.099
582.400	-13.250	0.099
582.500	-16.541	0.100
582.600	-12.268	0.099
582.700	-14.592	0.099
582.800	-13.557	0.099
582.900	-4.317	0.099
583.000	-25.527	0.099
583.100	-8.246	0.099
583.200	-18.917	0.099
583.300	-24.028	0.099
583.400	-25.040	0.099
583.500	-31.711	0.099
583.600	-21.197	0.100
583.700	-1.682	0.099
583.800	-22.118	0.099
583.900	-14.648	0.100
584.000	-25.175	0.099
584.100	-16.515	0.099
584.200	-4.177	0.099
584.300	-24.366	0.099
584.400	-24.143	0.099
584.500	-16.319	0.099
584.600	-11.001	0.100
584.700	-13.798	0.099
584.800	-9.948	0.099
584.900	-9.180	0.100
585.000	-21.300	0.099
585.100	-1.415	0.099
585.200	-16.832	0.099
585.300	-7.039	0.099
585.400	-21.090	0.099
585.500	-21.735	0.099
585.600	-16.313	0.099
585.700	-20.838	0.099
585.800	-7.261	0.099
585.900	-21.699	0.099
586.000	-6.978	0.099
586.100	-17.091	0.099
586.200	-16.564	0.099
586.300	-3.049	0.100
586.400	-31.255	0.099
586.500	-2.541	0.099
586.600	-21.402	0.099
586.700	-20.353	0.099
586.800	-10.395	0.099
586.900	-14.574	0.099
587.000	-7.390	0.099
587.100	-17.373	0.099
587.200	-18.044	0.099
587.300	-19.967	0.099
587.400	-13.763	0.099
587.500	-26.754	0.099
587.600	-5.408	0.099
587.700	-12.776	0.099
587.800	-14.381	0.099
587.900	-14.055	0.099
588.000	-14.217	0.099
588.100	-16.351	0.099
588.200	-33.241	0.099
588.300	-10.704	0.099
588.400	-19.671	0.099
588.500	-12.829	0.099
588.600	-0.397	0.099
588.700	-11.505	0.099
588.800	-11.290	0.099
588.900	-10.452	0.099
589.000	-17.930	0.099
589.100	-21.041	0.099
589.200	-8.321	0.099
589.300	-16.041	0.099
589.400	-11.341	0.099
589.500	-18.737	0.099
589.600	-18.795	0.099
589.700	-13.810	0.099
589.800	-29.723	0.099
589.900	0.180	0.099
590.000	-5.164	0.099
590.100	-12.086	0.099
590.200	-21.127	0.100
590.300	-22.989	0.100
590.400	-7.075	0.099
590.500	-7.483	0.099
590.600	-13.172	0.099
590.700	-21.061	0.099
590.800	-20.128	0.099
590.900	-18.836	0.099
591.000	-13.931	0.099
591.100	-7.914	0.099
591.200	-24.670	0.099
591.300	-19.187	0.099
591.400	-5.855	0.099
591.500	-7.961	0.099
591.600	-18.654	0.099
591.700	-7.163	0.099
591.800	-28.818	0.099
591.900	-9.166	0.099
592.000	-18.568	0.099
592.100	-0.722	0.099
592.200	-12.314	0.099
592.300	-11.639	0.099
592.400	-5.953	0.099
592.500	-12.995	0.099
592.600	-16.380	0.099
592.700	-9.233	0.099
592.800	-21.726	0.099
592.900	-8.383	0.099
593.000	-11.937	0.099
593.100	-6.233	0.099
593.200	-23.134	0.099
593.300	-14.483	0.099
593.400	-17.999	0.099
593.500	-14.156	0.099
593.600	-8.900	0.099
593.700	-12.521	0.099
593.800	-9.707	0.099
593.900	-16.863	0.099
594.000	-15.920	0.099
594.100	-12.733	0.099
594.200	-13.724	0.099
594.300	-19.965	0.099
594.400	-5.560	0.099
594.500	-11.807	0.099
594.600	-12.383	0.099
594.700	-15.375	0.099
594.800	-17.166	0.099
594.900	-4.037	0.099
595.000	-17.315	0.100
595.100	-27.656	0.099
595.200	-14.738	0.099
595.300	-24.991	0.100
595.400	-8.839	0.099
595.500	-13.007	0.099
595.600	-1.506	0.099
595.700	-20.051	0.099
595.800	-15.923	0.099
595.900	-15.545	0.099
596.000	-8.966	0.100
596.100	-10.361	0.099
596.200	-5.961	0.100
596.300	-17.910	0.099
596.400	-22.102	0.099
596.500	-20.858	0.099
596.600	-2.803	0.100
596.700	-14.257	0.099
596.800	-10.038	0.099
596.900	-4.326	0.099
597.000	-6.668	0.099
597.100	-22.265	0.100
597.200	-17.140	0.100
597.300	-15.968	0.099
597.400	0.196	0.099
597.500	-7.445	0.100
597.600	4.040	0.099
597.700	-15.018	0.100
597.800	-6.676	0.100
597.900	-18.097	0.100
598.000	-1.902	0.100
598.100	-23.208	0.099
598.200	2.527	0.100
598.300	-13.826	0.099
598.400	-10.182	0.099
598.500	-12.505	0.100
598.600	-4.784	0.099
598.700	-9.036	0.099
598.800	-28.651	0.100
598.900	-14.663	0.099
599.000	2.568	0.100
599.100	-16.522	0.099
599.200	-9.868	0.100
599.300	-6.663	0.100
599.400	-13.530	0.099
599.500	-15.464	0.099
599.600	-0.863	0.099
599.700	-17.280	0.099
599.800	-17.594	0.099
599.900	-34.804	0.099
600.000	-6.422	0.099
600.100	-11.983	0.099
600.200	-10.195	0.099
600.300	-9.645	0.099
600.400	-8.566	0.100
600.500	-10.456	0.099
600.600	-12.767	0.099
600.700	-22.717	0.099
600.800	-14.078	0.099
600.900	-12.915	0.100
601.000	-16.804	0.100
601.100	-4.425	0.100
601.200	-7.196	0.099
601.300	-9.529	0.099
601.400	-15.222	0.100
601.500	-18.027	0.099
601.600	-9.896	0.099
601.700	-11.461	0.099
601.800	-15.382	0.100
601.900	-9.552	0.099
602.000	-12.944	0.099
602.100	-16.031	0.099
602.200	-17.739	0.100
602.300	-11.640	0.100
602.400	1.775	0.099
602.500	-18.988	0.099
602.600	8.190	0.099
602.700	0.441	0.099
602.800	-27.384	0.099
602.900	-13.100	0.100
603.000	-25.773	0.099
603.100	-3.609	0.100
603.200	-7.678	0.099
603.300	1.437	0.100
603.400	-17.627	0.100
603.500	-16.976	0.100
603.600	-6.565	0.100
603.700	-4.221	0.100
603.800	-14.268	0.099
603.900	-12.131	0.100
604.000	-16.341	0.099
604.100	-24.785	0.100
604.200	-20.903	0.099
604.300	1.194	0.099
604.400	-3.899	0.099
604.500	-7.938	0.099
604.600	-14.224	0.099
604.700	-11.856	0.100
604.800	-9.514	0.100
604.900	-17.763	0.100
605.000	-11.195	0.099
605.100	-14.264	0.100
605.200	-16.958	0.100
605.300	-12.451	0.100
605.400	-3.315	0.100
605.500	-12.769	0.100
605.600	-7.731	0.100
605.700	-10.591	0.100
605.800	-7.542	0.100
605.900	-11.612	0.100
606.000	1.217	0.100
606.100	-16.088	0.099
606.200	-17.003	0.100
606.300	-13.945	0.099
606.400	-10.868	0.100
606.500	-14.363	0.100
606.600	-10.761	0.099
606.700	-5.098	0.100
606.800	-14.602	0.099
606.900	-4.619	0.099
607.000	-6.224	0.100
607.100	-17.011	0.099
607.200	-18.430	0.100
607.300	-9.539	0.100
607.400	-6.480	0.099
607.500	-29.501	0.099
607.600	-8.202	0.099
607.700	-15.115	0.100
607.800	-14.359	0.100
607.900	0.783	0.099
608.000	-16.004	0.100
608.100	-8.154	0.100
608.200	-19.926	0.099
608.300	-12.312	0.099
608.400	-13.972	0.099
608.500	-14.922	0.100
608.600	-11.675	0.099
608.700	-20.220	0.099
608.800	-9.921	0.099
608.900	-2.541	0.099
609.000	-5.648	0.099
609.100	-7.981	0.099
609.200	-8.837	0.100
609.300	-17.449	0.099
609.400	-4.245	0.099
609.500	-16.027	0.100
609.600	-10.511	0.099
609.700	-11.034	0.099
609.800	-5.765	0.099
609.900	-9.879	0.100
610.000	-9.022	0.099
610.100	-17.902	0.099
610.200	-7.410	0.100
610.300	-14.755	0.099
610.400	-9.169	0.100
610.500	-10.543	0.099
610.600	-8.108	0.099
610.700	-4.540	0.099
610.800	-20.117	0.099
610.900	-9.101	0.099
611.000	-28.134	0.099
611.100	-9.560	0.099
611.200	-20.647	0.099
611.300	-0.909	0.099
611.400	-3.867	0.099
611.500	-18.079	0.099
611.600	1.601	0.099
611.700	-13.133	0.099
611.800	6.482	0.100
611.900	-14.254	0.099
612.000	-9.523	0.099
612.100	-12.061	0.099
612.200	-11.412	0.099
612.300	-14.369	0.099
612.400	-3.302	0.099
612.500	-13.333	0.099
612.600	-15.255	0.099
612.700	-15.193	0.099
612.800	-4.978	0.099
612.900	-7.350	0.099
613.000	-0.232	0.099
613.100	-16.235	0.099
613.200	-18.708	0.099
613.300	-9.328	0.099
613.400	-2.525	0.099
613.500	-17.067	0.099
613.600	-29.987	0.099
613.700	-17.120	0.099
613.800	-1.688	0.099
613.900	-10.430	0.099
614.000	-8.021	0.100
614.100	-9.003	0.099
614.200	-19.458	0.099
614.300	-20.875	0.099
614.400	-1.532	0.099
614.500	-11.825	0.099
614.600	-27.100	0.099
614.700	-8.976	0.099
614.800	-17.667	0.099
614.900	-7.586	0.099
615.000	-10.181	0.099
615.100	-16.995	0.099
615.200	-2.505	0.099
615.300	-15.742	0.099
615.400	-9.690	0.099
615.500	-12.133	0.099
615.600	-14.368	0.099
615.700	-8.143	0.099
615.800	-4.467	0.100
615.900	-21.442	0.099
616.000	-13.311	0.099
616.100	4.201	0.099
616.200	-3.143	0.099
616.300	-8.371	0.099
616.400	-12.423	0.100
616.500	-5.373	0.099
616.600	-15.574	0.099
616.700	-18.775	0.099
616.800	-17.667	0.099
616.900	0.916	0.099
617.000	-11.088	0.100
617.100	-17.162	0.099
617.200	-20.100	0.099
617.300	-8.284	0.099
617.400	-14.934	0.099
617.500	1.345	0.099
617.600	-13.081	0.099
617.700	-12.793	0.099
617.800	-7.925	0.099
617.900	-2.486	0.099
618.000	-13.914	0.099
618.100	-17.694	0.099
618.200	-7.393	0.100
618.300	-18.477	0.099
618.400	-19.601	0.099
618.500	-2.508	0.099
618.600	-18.069	0.099
618.700	-9.081	0.099
618.800	-11.032	0.099
618.900	-7.275	0.099
619.000	1.092	0.100
619.100	-11.108	0.099
619.200	-27.061	0.099
619.300	-6.250	0.099
619.400	-2.424	0.099
619.500	-19.247	0.099
619.600	-13.321	0.100
619.700	-2.291	0.100
619.800	-23.729	0.099
619.900	4.039	0.099
620.000	-11.728	0.099
620.100	-27.134	0.099
620.200	-5.663	0.099
620.300	-0.252	0.099
620.400	-8.171	0.099
620.500	-9.766	0.100
620.600	-6.229	0.099
620.700	-16.080	0.099
620.800	-12.639	0.099
620.900	-20.972	0.099
621.000	-5.086	0.100
621.100	-5.134	0.099
621.200	-4.324	0.100
621.300	-9.038	0.099
621.400	-12.241	0.099
621.500	-11.643	0.100
621.600	-5.338	0.099
621.700	-0.996	0.100
621.800	-5.131	0.099
621.900	-7.150	0.100
622.000	-25.998	0.099
622.100	-8.401	0.099
622.200	-9.005	0.099
622.300	-7.990	0.099
622.400	1.875	0.100
622.500	-15.820	0.099
622.600	4.851	0.100
622.700	-16.184	0.099
622.800	0.132	0.099
622.900	-12.620	0.099
623.000	-9.147	0.099
623.100	-10.360	0.099
623.200	-13.273	0.099
623.300	-10.035	0.099
623.400	-9.608	0.099
623.500	-2.682	0.100
623.600	-11.094	0.099
623.700	-26.628	0.099
623.800	-10.987	0.099
623.900	-5.528	0.099
624.000	-10.536	0.099
624.100	-8.664	0.100
624.200	-8.476	0.100
624.300	-5.390	0.099
624.400	-20.083	0.099
624.500	-17.243	0.099
624.600	-2.377	0.099
624.700	-7.928	0.099
624.800	-13.826	0.099
624.900	-17.750	0.099
625.000	0.681	0.099
625.100	-9.743	0.099
625.200	-8.457	0.099
625.300	-10.329	0.099
625.400	-11.588	0.099
625.500	-13.430	0.099
625.600	-14.160	0.100
625.700	-4.150	0.100
625.800	-17.392	0.099
625.900	-13.235	0.100
626.000	-12.977	0.099
626.100	0.507	0.099
626.200	-0.881	0.099
626.300	-12.008	0.099
626.400	-8.210	0.099
626.500	-20.921	0.099
626.600	5.730	0.100
626.700	-14.395	0.099
626.800	-2.305	0.099
626.900	-8.666	0.100
627.000	0.585	0.099
627.100	-18.611	0.100
627.200	-4.740	0.099
627.300	-2.648	0.100
627.400	-6.785	0.100
627.500	-4.892	0.099
627.600	-13.408	0.100
627.700	-15.099	0.100
627.800	-3.442	0.100
627.900	-3.341	0.099
628.000	-2.941	0.099
628.100	-16.816	0.100
628.200	-10.039	0.099
628.300	-21.145	0.100
628.400	-23.968	0.099
628.500	-15.862	0.099
628.600	0.627	0.100
628.700	-13.223	0.100
628.800	4.963	0.099
628.900	-25.679	0.099
629.000	-10.514	0.099
629.100	-2.859	0.100
629.200	8.492	0.099
629.300	-17.765	0.100
629.400	-22.905	0.099
629.500	-2.901	0.099
629.600	-2.726	0.099
629.700	-14.109	0.099
629.800	-16.841	0.099
629.900	0.018	0.100
630.000	1.070	0.099
630.100	-17.466	0.099
630.200	-1.844	0.099
630.300	-16.932	0.100
630.400	-21.983	0.099
630.500	-3.939	0.099
630.600	-6.064	0.099
630.700	-1.231	0.099
630.800	-14.154	0.100
630.900	-6.906	0.099
631.000	-5.484	0.099
631.100	0.710	0.099
631.200	-0.815	0.099
631.300	-8.457	0.100
631.400	-6.787	0.099
631.500	-0.826	0.099
631.600	7.920	0.099
631.700	1.774	0.100
631.800	0.464	0.099
631.900	-6.967	0.099
632.000	1.855	0.100
632.100	14.079	0.099
632.200	-0.382	0.099
632.300	18.097	0.099
632.400	3.683	0.099
632.500	4.839	0.100
632.600	0.122	0.099
632.700	18.655	0.099
632.800	-1.636	0.099
632.900	10.087	0.099
633.000	5.712	0.099
633.100	9.288	0.099
633.200	0.992	0.099
633.300	18.988	0.099
633.400	11.498	0.099
633.500	16.994	0.099
633.600	13.163	0.100
633.700	15.592	0.099
633.800	10.921	0.099
633.900	12.494	0.099
634.000	7.281	0.099
634.100	-1.232	0.100
634.200	13.072	0.099
634.300	15.328	0.100
634.400	13.102	0.100
634.500	7.329	0.100
634.600	21.041	0.100
634.700	17.021	0.100
634.800	13.343	0.100
634.900	1.507	0.099
635.000	20.940	0.099
635.100	23.401	0.100
635.200	11.547	0.100
635.300	7.184	0.099
635.400	13.890	0.099
635.500	24.386	0.100
635.600	10.899	0.100
635.700	4.106	0.099
635.800	19.604	0.099
635.900	2.652	0.099
636.000	10.361	0.099
636.100	5.717	0.099
636.200	16.975	0.100
636.300	14.302	0.099
636.400	-2.031	0.099
636.500	27.320	0.100
636.600	15.699	0.100
636.700	12.286	0.100
636.800	12.307	0.099
636.900	13.553	0.100
637.000	20.660	0.100
637.100	14.324	0.099
637.200	5.017	0.100
637.300	16.805	0.100
637.400	10.735	0.099
637.500	11.907	0.100
637.600	14.351	0.100
637.700	3.703	0.099
637.800	18.215	0.100
637.900	11.636	0.100
638.000	13.303	0.100
638.100	6.777	0.099
638.200	14.586	0.100
638.300	10.216	0.100
638.400	8.593	0.099
638.500	9.963	0.099
638.600	22.439	0.099
638.700	0.808	0.100
638.800	6.301	0.099
638.900	25.506	0.099
639.000	11.346	0.099
639.100	26.708	0.099
639.200	10.269	0.099
639.300	2.975	0.099
639.400	19.826	0.100
639.500	4.423	0.099
639.600	0.799	0.099
639.700	20.789	0.099
639.800	22.838	0.099
639.900	20.647	0.099
640.000	8.943	0.099
640.100	14.294	0.099
640.200	6.450	0.099
640.300	20.084	0.099
640.400	9.611	0.099
640.500	34.592	0.099
640.600	2.983	0.099
640.700	28.405	0.099
640.800	20.253	0.099
640.900	17.247	0.099
641.000	27.426	0.100
641.100	22.940	0.099
641.200	21.349	0.099
641.300	5.183	0.099
641.400	24.491	0.099
641.500	14.150	0.099
641.600	23.801	0.099
641.700	11.699	0.099
641.800	19.964	0.099
641.900	19.514	0.099
642.000	21.651	0.099
642.100	14.774	0.099
642.200	24.254	0.099
642.300	22.090	0.099
642.400	10.270	0.099
642.500	36.516	0.099
642.600	24.884	0.099
642.700	22.448	0.099
642.800	26.667	0.100
642.900	19.550	0.099
643.000	20.096	0.099
643.100	31.130	0.099
643.200	15.685	0.099
643.300	21.238	0.099
643.400	24.580	0.099
643.500	22.537	0.099
643.600	32.718	0.099
643.700	27.885	0.100
643.800	27.504	0.099
643.900	18.251	0.099
644.000	35.129	0.100
644.100	22.080	0.099
644.200	27.625	0.099
644.300	23.940	0.099
644.400	5.597	0.099
644.500	15.417	0.099
644.600	30.237	0.100
644.700	24.718	0.099
644.800	23.974	0.099
644.900	43.168	0.099
645.000	20.400	0.099
645.100	29.038	0.099
645.200	25.278	0.099
645.300	8.482	0.099
645.400	20.470	0.099
645.500	22.250	0.099
645.600	26.747	0.099
645.700	30.418	0.099
645.800	27.788	0.099
645.900	34.608	0.099
646.000	14.320	0.099
646.100	29.160	0.099
646.200	23.477	0.099
646.300	26.368	0.099
646.400	19.649	0.099
646.500	30.207	0.099
646.600	24.935	0.100
646.700	19.901	0.099
646.800	26.660	0.099
646.900	24.593	0.099
647.000	23.434	0.099
647.100	20.768	0.099
647.200	29.407	0.099
647.300	32.811	0.100
647.400	25.014	0.099
647.500	38.811	0.099
647.600	35.943	0.099
647.700	28.609	0.099
647.800	24.070	0.099
647.900	25.948	0.099
648.000	31.367	0.099
648.100	17.981	0.099
648.200	21.466	0.099
648.300	16.554	0.099
648.400	34.169	0.099
648.500	35.035	0.099
648.600	21.738	0.099
648.700	33.114	0.099
648.800	22.332	0.100
648.900	29.085	0.099
649.000	11.331	0.099
649.100	33.387	0.099
649.200	24.650	0.099
649.300	29.585	0.099
649.400	39.685	0.099
649.500	18.769	0.099
649.600	19.833	0.099
649.700	21.320	0.099
649.800	35.719	0.099
649.900	23.591	0.099
650.000	33.098	0.099
650.100	29.433	0.099
650.200	24.830	0.099
650.300	30.786	0.099
650.400	31.356	0.099
650.500	28.365	0.099
650.600	23.274	0.099
650.700	30.575	0.099
650.800	25.562	0.099
650.900	22.229	0.099
651.000	32.685	0.099
651.100	18.863	0.100
651.200	28.703	0.099
651.300	26.235	0.099
651.400	24.734	0.100
651.500	14.734	0.099
651.600	44.000	0.099
651.700	16.146	0.099
651.800	23.844	0.099
651.900	23.887	0.099
652.000	40.277	0.099
652.100	32.582	0.099
652.200	7.735	0.099
652.300	38.805	0.099
652.400	19.669	0.099
652.500	19.751	0.099
652.600	22.515	0.099
652.700	23.769	0.099
652.800	38.463	0.099
652.900	28.961	0.099
653.000	20.629	0.099
653.100	28.775	0.099
653.200	25.044	0.099
653.300	18.033	0.099
653.400	13.861	0.099
653.500	49.820	0.099
653.600	29.974	0.099
653.700	32.548	0.099
653.800	30.531	0.099
653.900	17.358	0.099
654.000	31.115	0.099
654.100	39.908	0.099
654.200	31.469	0.099
654.300	30.568	0.099
654.400	35.876	0.100
654.500	24.381	0.099
654.600	38.827	0.099
654.700	26.327	0.099
654.800	16.465	0.099
654.900	29.171	0.099
655.000	17.356	0.099
655.100	13.489	0.099
655.200	44.561	0.099
655.300	23.221	0.099
655.400	30.461	0.099
655.500	28.735	0.099
655.600	30.519	0.099
655.700	27.073	0.099
655.800	23.243	0.099
655.900	26.561	0.099
656.000	20.686	0.099
656.100	35.774	0.099
656.200	33.859	0.100
656.300	30.111	0.099
656.400	29.873	0.099
656.500	31.660	0.099
656.600	17.755	0.099
656.700	26.814	0.099
656.800	29.131	0.099
656.900	34.580	0.099
657.000	33.456	0.099
657.100	32.997	0.099
657.200	34.368	0.099
657.300	10.439	0.099
657.400	28.235	0.099
657.500	35.987	0.099
657.600	24.200	0.099
657.700	31.590	0.099
657.800	23.995	0.099
657.900	19.833	0.099
658.000	23.001	0.099
658.100	28.768	0.099
658.200	17.233	0.099
658.300	22.623	0.099
658.400	28.659	0.099
658.500	28.824	0.099
658.600	22.272	0.099
658.700	32.510	0.099
658.800	25.359	0.099
658.900	31.302	0.099
659.000	19.707	0.099
659.100	29.421	0.099
659.200	19.602	0.099
659.300	22.164	0.099
659.400	32.638	0.099
659.500	37.163	0.099
659.600	28.051	0.099
659.700	31.479	0.099
659.800	26.261	0.099
659.900	18.413	0.099
660.000	26.735	0.099
660.100	23.535	0.099
660.200	19.551	0.099
660.300	31.981	0.099
660.400	30.268	0.099
660.500	26.146	0.099
660.600	29.019	0.099
660.700	22.781	0.099
660.800	24.211	0.099
660.900	35.693	0.099
661.000	27.137	0.099
661.100	22.489	0.099
661.200	18.111	0.099
661.300	20.158	0.099
661.400	35.981	0.099
661.500	22.611	0.099
661.600	30.197	0.099
661.700	34.216	0.099
661.800	21.076	0.099
661.900	40.526	0.099
662.000	29.494	0.099
662.100	28.253	0.099
662.200	27.886	0.099
662.300	31.975	0.099
662.400	18.012	0.099
662.500	39.933	0.099
662.600	30.106	0.099
662.700	28.861	0.099
662.800	26.892	0.099
662.900	30.683	0.100
663.000	17.844	0.099
663.100	28.654	0.099
663.200	28.929	0.099
663.300	19.071	0.099
663.400	14.756	0.099
663.500	31.117	0.099
663.600	28.503	0.099
663.700	22.739	0.099
663.800	26.642	0.099
663.900	32.660	0.099
664.000	25.819	0.099
664.100	32.616	0.099
664.200	24.678	0.099
664.300	21.131	0.099
664.400	23.965	0.099
664.500	15.872	0.099
664.600	28.434	0.099
664.700	25.294	0.099
664.800	27.167	0.099
664.900	18.428	0.099
665.000	23.388	0.099
665.100	44.078	0.099
665.200	20.668	0.099
665.300	25.512	0.099
665.400	23.376	0.099
665.500	18.582	0.099
665.600	22.682	0.099
665.700	29.020	0.099
665.800	31.072	0.099
665.900	27.448	0.099
666.000	30.060	0.099
666.100	23.643	0.099
666.200	32.453	0.099
666.300	14.066	0.099
666.400	23.937	0.099
666.500	21.962	0.099
666.600	24.209	0.099
666.700	38.831	0.099
666.800	20.319	0.099
666.900	39.934	0.099
667.000	14.040	0.099
667.100	30.604	0.099
667.200	30.787	0.099
667.300	26.955	0.099
667.400	16.294	0.099
667.500	27.214	0.099
667.600	29.957	0.099
667.700	20.078	0.099
667.800	28.134	0.099
667.900	32.975	0.099
668.000	26.613	0.099
668.100	23.138	0.099
668.200	28.056	0.099
668.300	20.737	0.099
668.400	18.331	0.099
668.500	13.649	0.099
668.600	31.133	0.099
668.700	20.150	0.099
668.800	21.943	0.099
668.900	26.706	0.099
669.000	27.896	0.099
669.100	30.500	0.099
669.200	26.305	0.099
669.300	26.398	0.099
669.400	36.501	0.099
669.500	28.705	0.099
669.600	25.016	0.099
669.700	31.057	0.099
669.800	19.875	0.099
669.900	30.018	0.099
670.000	31.874	0.099
670.100	35.952	0.099
670.200	26.131	0.099
670.300	24.822	0.099
670.400	35.226	0.099
670.500	38.309	0.099
670.600	32.805	0.099
670.700	32.572	0.099
670.800	23.486	0.099
670.900	33.369	0.099
671.000	22.005	0.099
671.100	27.330	0.099
671.200	10.468	0.099
671.300	37.700	0.099
671.400	33.272	0.099
671.500	27.619	0.099
671.600	27.175	0.099
671.700	27.527	0.099
671.800	24.587	0.099
671.900	21.073	0.099
672.000	34.290	0.099
672.100	19.167	0.099
672.200	30.394	0.099
672.300	27.866	0.099
672.400	26.864	0.099
672.500	22.748	0.099
672.600	23.986	0.099
672.700	27.923	0.099
672.800	27.219	0.099
672.900	29.360	0.099
673.000	16.909	0.099
673.100	13.186	0.099
673.200	34.117	0.099
673.300	31.262	0.099
673.400	26.463	0.099
673.500	16.626	0.099
673.600	31.155	0.099
673.700	22.112	0.099
673.800	21.983	0.099
673.900	35.861	0.099
674.000	23.333	0.099
674.100	23.645	0.099
674.200	26.054	0.099
674.300	22.255	0.099
674.400	16.550	0.099
674.500	22.225	0.099
674.600	28.476	0.099
674.700	24.476	0.099
674.800	26.009	0.099
674.900	19.006	0.099
675.000	26.295	0.099
675.100	23.056	0.099
675.200	29.039	0.099
675.300	19.713	0.099
675.400	22.275	0.099
675.500	27.551	0.099
675.600	28.886	0.099
675.700	29.694	0.099
675.800	18.543	0.099
675.900	31.312	0.099
676.000	22.066	0.099
676.100	21.593	0.099
676.200	16.706	0.099
676.300	24.061	0.099
676.400	27.616	0.099
676.500	17.396	0.099
676.600	22.838	0.099
676.700	15.100	0.099
676.800	24.220	0.099
676.900	15.874	0.099
677.000	24.362	0.099
677.100	19.969	0.099
677.200	35.480	0.099
677.300	13.766	0.099
677.400	21.977	0.099
677.500	35.284	0.099
677.600	22.775	0.099
677.700	17.141	0.099
677.800	19.224	0.099
677.900	27.403	0.099
678.000	22.333	0.099
678.100	10.108	0.099
678.200	30.331	0.099
678.300	26.727	0.099
678.400	32.298	0.099
678.500	25.170	0.099
678.600	33.125	0.099
678.700	19.819	0.099
678.800	34.727	0.099
678.900	22.656	0.099
679.000	28.137	0.099
679.100	18.013	0.099
679.200	16.655	0.099
679.300	9.375	0.099
679.400	26.870	0.099
679.500	32.939	0.099
679.600	25.515	0.099
679.700	18.515	0.099
679.800	26.384	0.099
679.900	20.793	0.099
680.000	16.618	0.099
680.100	26.837	0.099
680.200	23.412	0.099
680.300	22.357	0.099
680.400	24.951	0.099
680.500	15.811	0.099
680.600	28.897	0.099
680.700	39.837	0.099
680.800	31.872	0.099
680.900	24.862	0.099
681.000	20.797	0.099
681.100	17.784	0.099
681.200	14.578	0.099
681.300	25.511	0.099
681.400	9.389	0.099
681.500	35.660	0.099
681.600	30.471	0.099
681.700	23.378	0.099
681.800	25.220	0.099
681.900	24.125	0.099
682.000	23.984	0.099
682.100	28.310	0.099
682.200	12.500	0.099
682.300	27.834	0.099
682.400	22.138	0.099
682.500	15.504	0.099
682.600	20.220	0.099
682.700	26.319	0.099
682.800	20.717	0.099
682.900	29.603	0.099
683.000	18.100	0.099
683.100	38.002	0.099
683.200	24.923	0.099
683.300	18.035	0.099
683.400	22.519	0.099
683.500	31.652	0.099
683.600	24.299	0.099
683.700	18.733	0.099
683.800	25.100	0.099
683.900	24.073	0.099
684.000	20.034	0.099
684.100	36.016	0.099
684.200	18.083	0.099
684.300	8.767	0.099
684.400	23.239	0.099
684.500	29.782	0.099
684.600	25.185	0.099
684.700	17.573	0.099
684.800	17.109	0.099
684.900	24.410	0.099
685.000	23.487	0.099
685.100	23.873	0.099
685.200	29.159	0.099
685.300	28.755	0.099
685.400	29.628	0.099
685.500	36.001	0.099
685.600	10.471	0.099
685.700	31.315	0.099
685.800	21.755	0.099
685.900	14.697	0.099
686.000	22.513	0.099
686.100	18.251	0.099
686.200	20.901	0.099
686.300	37.067	0.099
686.400	26.752	0.099
686.500	27.330	0.099
686.600	16.304	0.099
686.700	25.911	0.099
686.800	20.370	0.099
686.900	25.040	0.099
687.000	40.938	0.099
687.100	21.886	0.099
687.200	18.272	0.099
687.300	7.292	0.099
687.400	29.352	0.099
687.500	13.081	0.099
687.600	32.410	0.099
687.700	18.744	0.099
687.800	14.555	0.099
687.900	30.342	0.099
688.000	20.798	0.099
688.100	17.206	0.099
688.200	26.521	0.099
688.300	30.425	0.099
688.400	20.545	0.099
688.500	13.271	0.099
688.600	17.817	0.099
688.700	18.585	0.099
688.800	20.360	0.099
688.900	18.090	0.099
689.000	27.321	0.099
689.100	18.707	0.099
689.200	8.982	0.099
689.300	16.462	0.099
689.400	19.602	0.099
689.500	34.185	0.099
689.600	36.914	0.099
689.700	31.042	0.099
689.800	13.044	0.099
689.900	29.717	0.099
690.000	13.405	0.099
690.100	19.812	0.099
690.200	23.686	0.099
690.300	25.304	0.099
690.400	18.692	0.099
690.500	21.092	0.099
690.600	19.816	0.099
690.700	19.818	0.099
690.800	9.407	0.099
690.900	22.208	0.099
691.000	28.387	0.099
691.100	25.754	0.099
691.200	18.530	0.099
691.300	21.434	0.099
691.400	9.120	0.099
691.500	6.450	0.099
691.600	5.805	0.099
691.700	16.653	0.099
691.800	-2.646	0.099
691.900	19.129	0.099
692.000	12.665	0.099
692.100	4.927	0.099
692.200	5.789	0.099
692.300	7.705	0.099
692.400	1.934	0.099
692.500	1.235	0.099
692.600	3.421	0.099
692.700	20.296	0.099
692.800	5.256	0.099
692.900	-7.294	0.099
693.000	-6.009	0.099
693.100	9.729	0.099
693.200	4.688	0.099
693.300	-14.891	0.099
693.400	9.961	0.099
693.500	5.260	0.099
693.600	4.344	0.099
693.700	-4.088	0.099
693.800	6.108	0.099
693.900	-2.175	0.099
694.000	0.390	0.099
694.100	-10.177	0.099
694.200	11.783	0.099
694.300	-9.697	0.099
694.400	-13.726	0.099
694.500	8.808	0.099
694.600	-13.345	0.099
694.700	1.256	0.099
694.800	-7.407	0.099
694.900	-3.874	0.099
695.000	-5.828	0.099
695.100	-7.863	0.099
695.200	-9.568	0.099
695.300	-0.519	0.099
695.400	6.915	0.099
695.500	0.822	0.099
695.600	-15.268	0.099
695.700	3.014	0.099
695.800	-2.669	0.099
695.900	-11.847	0.099
696.000	4.886	0.099
696.100	-1.445	0.099
696.200	-12.414	0.099
696.300	-2.343	0.099
696.400	-7.051	0.099
696.500	-8.792	0.099
696.600	-15.940	0.099
696.700	-6.883	0.099
696.800	-4.414	0.099
696.900	3.983	0.099
697.000	-16.768	0.099
697.100	-6.506	0.099
697.200	-10.907	0.099
697.300	-12.684	0.099
697.400	-10.623	0.099
697.500	-14.334	0.099
697.600	-10.741	0.099
697.700	-3.616	0.099
697.800	-10.953	0.099
697.900	5.638	0.099
698.000	-25.238	0.099
698.100	-17.374	0.099
698.200	1.627	0.099
698.300	-18.734	0.099
698.400	-7.858	0.099
698.500	-16.154	0.099
698.600	-0.342	0.099
698.700	-9.167	0.099
698.800	-1.932	0.099
698.900	-8.864	0.099
699.000	-12.757	0.099
699.100	-11.368	0.099
699.200	-3.582	0.099
699.300	-3.008	0.099
699.400	-6.827	0.099
699.500	-7.057	0.099
699.600	-10.160	0.099
699.700	-17.174	0.099
699.800	-8.740	0.099
699.900	-7.511	0.099
700.000	-5.305	0.099
700.100	-27.025	0.099
700.200	-3.108	0.099
700.300	-13.091	0.099
700.400	-6.599	0.099
700.500	-13.687	0.099
700.600	1.384	0.099
700.700	-13.901	0.099
700.800	-17.426	0.099
700.900	-8.293	0.099
701.000	-15.990	0.099
701.100	-13.913	0.099
701.200	-13.185	0.099
701.300	-0.628	0.099
701.400	-3.389	0.099
701.500	-15.430	0.099
701.600	-4.759	0.099
701.700	-13.490	0.099
701.800	-17.383	0.099
701.900	-2.705	0.099
702.000	-15.128	0.099
702.100	-12.478	0.099
702.200	-7.474	0.099
702.300	-3.588	0.099
702.400	-4.860	0.099
702.500	-7.494	0.099
702.600	-13.416	0.099
702.700	-19.427	0.099
702.800	-13.161	0.099
702.900	-10.587	0.099
703.000	-16.787	0.099
703.100	-12.217	0.099
703.200	-8.150	0.099
703.300	-16.675	0.099
703.400	-13.908	0.099
703.500	-8.519	0.099
703.600	-11.596	0.099
703.700	-11.748	0.099
703.800	-12.748	0.099
703.900	-12.227	0.099
704.000	-21.294	0.099
704.100	-19.587	0.099
704.200	-2.895	0.099
704.300	-7.496	0.099
704.400	-8.525	0.099
704.500	-8.990	0.099
704.600	-2.256	0.099
704.700	-22.081	0.099
704.800	-14.223	0.099
704.900	-7.247	0.099
705.000	-8.677	0.099
705.100	-18.408	0.099
705.200	-13.857	0.099
705.300	-6.626	0.099
705.400	-14.676	0.099
705.500	-15.859	0.099
705.600	-8.756	0.099
705.700	-13.171	0.099
705.800	-17.086	0.099
705.900	-18.809	0.099
706.000	-12.727	0.099
706.100	-11.111	0.099
706.200	-16.301	0.099
706.300	-12.063	0.099
706.400	-16.735	0.099
706.500	-16.845	0.099
706.600	-12.276	0.099
706.700	-2.707	0.099
706.800	-4.453	0.099
706.900	-15.515	0.099
707.000	-10.699	0.099
707.100	-10.496	0.099
707.200	-14.113	0.099
707.300	-14.369	0.099
707.400	-10.680	0.099
707.500	-11.776	0.099
707.600	-20.309	0.099
707.700	-15.349	0.099
707.800	-17.939	0.099
707.900	-5.123	0.099
708.000	-15.306	0.099
708.100	-14.554	0.099
708.200	-11.359	0.099
708.300	-14.921	0.099
708.400	-10.985	0.099
708.500	-15.683	0.099
708.600	-14.483	0.099
708.700	-23.250	0.099
708.800	-9.588	0.099
708.900	-10.326	0.099
709.000	-18.897	0.099
709.100	-14.540	0.099
709.200	-23.541	0.099
709.300	-6.192	0.099
709.400	-3.593	0.099
709.500	-13.391	0.099
709.600	-28.308	0.099
709.700	-11.953	0.099
709.800	-18.981	0.099
709.900	-20.508	0.099
710.000	-13.023	0.099
710.100	-22.622	0.099
710.200	-13.529	0.099
710.300	-16.501	0.099
710.400	-19.558	0.099
710.500	-14.271	0.099
710.600	-21.942	0.099
710.700	-7.598	0.099
710.800	-20.191	0.099
710.900	-12.503	0.099
711.000	-12.818	0.099
711.100	-13.180	0.099
711.200	-17.047	0.099
711.300	-23.007	0.099
711.400	-32.164	0.099
711.500	-18.485	0.099
711.600	-7.349	0.099
711.700	-10.741	0.099
711.800	-33.064	0.099
711.900	-11.315	0.099
712.000	-29.334	0.099
712.100	-23.796	0.099
712.200	-17.569	0.099
712.300	-14.480	0.099
712.400	-18.080	0.099
712.500	-23.934	0.099
712.600	-21.143	0.099
712.700	-10.178	0.099
712.800	-15.470	0.099
712.900	-13.026	0.099
713.000	-12.321	0.099
713.100	-10.581	0.099
713.200	-9.425	0.099
713.300	-27.085	0.099
713.400	-19.048	0.099
713.500	-8.437	0.099
713.600	-16.911	0.099
713.700	-23.400	0.099
713.800	-12.266	0.099
713.900	-31.609	0.099
714.000	-14.853	0.099
714.100	-13.514	0.099
714.200	-10.142	0.099
714.300	-18.023	0.099
714.400	-7.918	0.099
714.500	-8.829	0.099
714.600	-25.692	0.099
714.700	-6.928	0.099
714.800	-23.227	0.099
714.900	-23.121	0.099
715.000	-26.070	0.099
715.100	-10.659	0.099
715.200	-6.969	0.099
715.300	-26.632	0.099
715.400	-18.206	0.099
715.500	-15.269	0.099
715.600	-21.790	0.099
715.700	-24.186	0.099
715.800	-19.400	0.099
715.900	-7.500	0.099
716.000	-18.639	0.099
716.100	-5.723	0.099
716.200	-21.262	0.099
716.300	-14.158	0.099
716.400	-30.925	0.099
716.500	-17.761	0.099
716.600	-6.007	0.099
716.700	-9.174	0.099
716.800	-5.187	0.099
716.900	-13.428	0.099
717.000	-28.746	0.099
717.100	-26.611	0.099
717.200	-12.808	0.099
717.300	-13.528	0.099
717.400	-22.107	0.099
717.500	-21.808	0.099
717.600	-10.556	0.099
717.700	-25.859	0.099
717.800	0.467	0.099
717.900	-28.114	0.099
718.000	-4.761	0.099
718.100	-12.168	0.099
718.200	-15.928	0.099
718.300	-13.136	0.099
718.400	-26.222	0.099
718.500	-13.279	0.099
718.600	-20.187	0.099
718.700	-13.257	0.099
718.800	-13.019	0.099
718.900	-25.009	0.099
719.000	-13.037	0.099
719.100	-12.142	0.099
719.200	-19.912	0.099
719.300	-34.982	0.099
719.400	-8.330	0.099
719.500	-19.731	0.099
719.600	-31.670	0.099
719.700	-11.988	0.099
719.800	-12.420	0.099
719.900	-14.210	0.099
720.000	-24.075	0.099
720.100	-21.290	0.099
720.200	-30.551	0.099
720.300	-22.840	0.099
720.400	-34.827	0.099
720.500	-20.869	0.099
720.600	-8.966	0.099
720.700	-18.410	0.099
720.800	-16.380	0.099
720.900	-20.493	0.099
721.000	-21.446	0.099
721.100	-11.227	0.099
721.200	-20.813	0.099
721.300	-17.979	0.099
721.400	-14.851	0.099
721.500	-33.892	0.099
721.600	-11.774	0.099
721.700	-20.901	0.099
721.800	-15.588	0.099
721.900	-29.103	0.099
722.000	-5.831	0.099
722.100	-12.921	0.099
722.200	-13.494	0.099
722.300	-17.570	0.099
722.400	-16.841	0.099
722.500	-17.307	0.099
722.600	-20.232	0.099
722.700	-18.621	0.099
722.800	-21.259	0.099
722.900	-24.689	0.099
723.000	-11.804	0.099
723.100	-20.636	0.099
723.200	-22.660	0.099
723.300	-20.196	0.099
723.400	-20.365	0.099
723.500	-25.925	0.099
723.600	-12.177	0.099
723.700	-14.009	0.099
723.800	-15.092	0.099
723.900	-24.519	0.099
724.000	-28.513	0.099
724.100	-7.614	0.099
724.200	-18.822	0.099
724.300	-20.350	0.099
724.400	-32.398	0.099
724.500	-23.550	0.099
724.600	-19.626	0.099
724.700	-18.989	0.099
724.800	-13.220	0.099
724.900	-9.320	0.099
725.000	-23.896	0.099
725.100	-10.406	0.099
725.200	-21.296	0.099
725.300	-20.299	0.099
725.400	-24.776	0.099
725.500	-18.797	0.099
725.600	-7.315	0.099
725.700	-8.520	0.099
725.800	-23.440	0.099
725.900	-15.995	0.099
726.000	-16.634	0.099
726.100	-21.120	0.099
726.200	-16.387	0.099
726.300	-28.536	0.099
726.400	-10.575	0.099
726.500	-12.466	0.099
726.600	-14.819	0.099
726.700	-10.182	0.099
726.800	-16.346	0.099
726.900	-25.777	0.099
727.000	-22.787	0.099
727.100	-37.426	0.099
727.200	0.096	0.099
727.300	-6.579	0.099
727.400	-28.433	0.099
727.500	-14.633	0.099
727.600	-12.255	0.099
727.700	-17.517	0.099
727.800	-12.515	0.099
727.900	-6.675	0.099
728.000	-10.348	0.099
728.100	-16.200	0.099
728.200	-25.144	0.099
728.300	-3.112	0.099
728.400	-6.539	0.099
728.500	-18.868	0.099
728.600	-23.085	0.099
728.700	-12.159	0.099
728.800	-19.094	0.099
728.900	-18.309	0.099
729.000	-14.862	0.099
729.100	-20.623	0.099
729.200	-17.284	0.099
729.300	-25.111	0.099
729.400	-23.417	0.099
729.500	-10.631	0.099
729.600	-19.078	0.099
729.700	-27.504	0.099
729.800	-22.226	0.099
729.900	1.348	0.099
730.000	-13.048	0.099
730.100	-34.525	0.099
730.200	-14.372	0.099
730.300	-13.843	0.099
730.400	-16.589	0.099
730.500	-5.751	0.099
730.600	-20.462	0.099
730.700	-11.825	0.099
730.800	-29.779	0.099
730.900	-16.043	0.099
731.000	-4.030	0.099
731.100	-7.777	0.099
731.200	-11.510	0.099
731.300	-21.700	0.099
731.400	-19.177	0.099
731.500	-11.021	0.099
731.600	-21.752	0.099
731.700	-14.724	0.099
731.800	-7.851	0.099
731.900	-24.897	0.099
732.000	-5.663	0.099
732.100	-20.701	0.099
732.200	-13.390	0.099
732.300	-9.207	0.099
732.400	-18.250	0.099
732.500	-21.746	0.099
732.600	-15.991	0.099
732.700	-30.974	0.099
732.800	-13.983	0.099
732.900	-21.555	0.099
733.000	-8.883	0.099
733.100	-12.103	0.099
733.200	-11.115	0.099
733.300	-18.406	0.099
733.400	-13.575	0.099
733.500	-10.040	0.099
733.600	-12.382	0.099
733.700	-7.919	0.099
733.800	-6.214	0.099
733.900	-17.410	0.099
734.000	-12.694	0.099
734.100	-22.570	0.099
734.200	-25.343	0.099
734.300	-13.529	0.099
734.400	-15.116	0.100
734.500	-12.799	0.099
734.600	-6.073	0.099
734.700	-11.653	0.099
734.800	-14.744	0.099
734.900	-20.078	0.099
735.000	-24.073	0.099
735.100	-12.466	0.099
735.200	-14.314	0.099
735.300	-14.783	0.099
735.400	-8.923	0.099
735.500	-27.494	0.099
735.600	-15.285	0.099
735.700	-30.491	0.099
735.800	-9.967	0.099
735.900	-10.119	0.099
736.000	2.476	0.099
736.100	-26.856	0.099
736.200	-16.610	0.099
736.300	-20.399	0.099
736.400	-10.442	0.099
736.500	-14.179	0.099
736.600	-29.493	0.099
736.700	-15.613	0.099
736.800	-11.800	0.099
736.900	-9.545	0.099
737.000	-11.297	0.099
737.100	-13.616	0.099
737.200	-20.078	0.099
737.300	-9.336	0.099
737.400	-14.926	0.099
737.500	-20.552	0.099
737.600	-17.667	0.099
737.700	-15.390	0.099
737.800	-10.972	0.099
737.900	-24.185	0.099
738.000	-13.850	0.099
738.100	-13.572	0.099
738.200	-16.198	0.099
738.300	-18.389	0.099
738.400	-17.724	0.099
738.500	-15.432	0.099
738.600	-10.000	0.099
738.700	-12.645	0.099
738.800	-6.098	0.099
738.900	-21.614	0.099
739.000	-23.102	0.099
739.100	-11.678	0.099
739.200	-20.583	0.099
739.300	-20.378	0.099
739.400	-18.808	0.099
739.500	-5.235	0.099
739.600	-23.123	0.099
739.700	-0.265	0.099
739.800	-12.976	0.099
739.900	-31.419	0.099
740.000	-9.615	0.099
740.100	-16.731	0.099
740.200	-22.734	0.099
740.300	-4.799	0.099
740.400	-13.422	0.099
740.500	-14.287	0.099
740.600	-14.450	0.099
740.700	-11.586	0.099
740.800	-20.710	0.099
740.900	-6.931	0.099
741.000	-13.101	0.099
741.100	-10.506	0.099
741.200	-16.517	0.100
741.300	-18.063	0.099
741.400	-25.962	0.099
741.500	-6.284	0.099
741.600	-15.039	0.099
741.700	-11.684	0.099
741.800	-22.152	0.099
741.900	-30.711	0.099
742.000	-12.555	0.099
742.100	-14.828	0.099
742.200	-2.603	0.099
742.300	-23.479	0.099
742.400	-1.689	0.099
742.500	-14.980	0.099
742.600	-28.445	0.099
742.700	-18.741	0.099
742.800	-18.521	0.099
742.900	-17.608	0.099
743.000	-27.101	0.099
743.100	-16.515	0.099
743.200	-2.064	0.099
743.300	-16.214	0.099
743.400	-4.028	0.099
743.500	1.301	0.099
743.600	-17.004	0.099
743.700	-15.310	0.099
743.800	-3.382	0.099
743.900	-20.875	0.099
744.000	-18.236	0.099
744.100	-4.051	0.099
744.200	-6.454	0.099
744.300	-10.739	0.099
744.400	-13.827	0.099
744.500	-23.689	0.099
744.600	-9.624	0.099
744.700	-11.847	0.099
744.800	-14.315	0.099
744.900	-24.753	0.099
745.000	-12.675	0.099
745.100	-14.936	0.099
745.200	0.236	0.099
745.300	-13.052	0.099
745.400	-19.768	0.099
745.500	-14.272	0.099
745.600	-13.510	0.099
745.700	-15.197	0.099
745.800	-7.015	0.099
745.900	-22.338	0.099
746.000	-10.369	0.099
746.100	-6.588	0.099
746.200	-12.173	0.099
746.300	-0.969	0.099
746.400	1.622	0.099
746.500	1.473	0.099
746.600	-14.373	0.099
746.700	-13.384	0.099
746.800	-10.396	0.100
746.900	-13.391	0.099
747.000	-1.228	0.099
747.100	-32.860	0.099
747.200	-8.813	0.099
747.300	-16.103	0.099
747.400	-4.886	0.100
747.500	-20.809	0.099
747.600	-10.218	0.099
747.700	-17.463	0.099
747.800	4.894	0.099
747.900	-4.348	0.099
748.000	-24.448	0.099
748.100	-14.428	0.099
748.200	-4.523	0.099
748.300	-14.219	0.099
748.400	-15.790	0.099
748.500	-4.676	0.099
748.600	-24.227	0.099
748.700	-24.841	0.099
748.800	-10.734	0.099
748.900	-2.774	0.099
749.000	-12.893	0.099
749.100	-19.417	0.099
749.200	-6.514	0.099
749.300	-10.103	0.099
749.400	-12.889	0.099
749.500	-23.917	0.099
749.600	-22.806	0.099
749.700	-8.106	0.099
749.800	-16.607	0.099
749.900	-12.217	0.099
750.000	-15.115	0.099
750.100	-0.115	0.099
750.200	-14.807	0.099
750.300	-24.240	0.099
750.400	-7.544	0.099
750.500	-19.349	0.099
750.600	-20.948	0.099
750.700	-11.584	0.099
750.800	-11.440	0.099
750.900	-10.585	0.099
751.000	-11.707	0.099
751.100	-18.266	0.099
751.200	-21.374	0.099
751.300	-11.744	0.099
751.400	-28.630	0.099
751.500	-6.014	0.099
751.600	-7.332	0.099
751.700	-21.123	0.099
751.800	-9.113	0.099
751.900	-3.656	0.099
752.000	-18.084	0.099
752.100	-8.827	0.099
752.200	1.331	0.099
752.300	-13.113	0.099
752.400	-18.591	0.099
752.500	-13.888	0.099
752.600	-10.371	0.099
752.700	-14.602	0.099
752.800	-11.174	0.099
752.900	-12.701	0.099
753.000	-16.122	0.099
753.100	-17.075	0.099
753.200	-7.889	0.099
753.300	-15.627	0.099
753.400	-15.940	0.099
753.500	-1.955	0.099
753.600	-14.336	0.099
753.700	-19.452	0.099
753.800	-11.855	0.099
753.900	-18.611	0.100
754.000	-7.571	0.099
754.100	-15.340	0.099
754.200	-16.788	0.099
754.300	-21.097	0.099
754.400	-10.773	0.099
754.500	-15.695	0.099
754.600	-8.673	0.099
754.700	-8.735	0.099
754.800	-14.706	0.099
754.900	-8.021	0.099
755.000	-15.959	0.099
755.100	-13.621	0.099
755.200	0.117	0.099
755.300	-18.656	0.099
755.400	-23.094	0.099
755.500	-26.449	0.099
755.600	0.745	0.099
755.700	-11.649	0.099
755.800	-17.218	0.099
755.900	-22.323	0.099
756.000	-8.667	0.099
756.100	-1.035	0.099
756.200	-16.183	0.099
756.300	-10.335	0.099
756.400	-31.151	0.099
756.500	2.813	0.099
756.600	-18.848	0.099
756.700	-0.749	0.099
756.800	-19.879	0.099
756.900	-11.722	0.099
757.000	-7.995	0.099
757.100	1.063	0.099
757.200	-20.815	0.099
757.300	-9.991	0.099
757.400	-1.697	0.099
757.500	-13.649	0.099
757.600	-17.374	0.099
757.700	-4.984	0.099
757.800	-17.312	0.099
757.900	0.953	0.099
758.000	-11.715	0.099
758.100	-9.622	0.099
758.200	-4.986	0.099
758.300	-9.746	0.100
758.400	-10.161	0.099
758.500	-14.061	0.099
758.600	-6.001	0.099
758.700	-16.458	0.099
758.800	-8.667	0.099
758.900	-9.903	0.099
759.000	-16.366	0.099
759.100	-9.110	0.099
759.200	-16.775	0.099
759.300	-2.292	0.099
759.400	-3.281	0.099
759.500	-16.224	0.099
759.600	-13.382	0.099
759.700	-15.290	0.099
759.800	-13.895	0.099
759.900	-9.009	0.099
760.000	-8.071	0.099
760.100	-20.300	0.099
760.200	-12.985	0.100
760.300	-16.016	0.099
760.400	-26.440	0.099
760.500	-10.321	0.099
760.600	-14.834	0.099
760.700	-11.835	0.099
760.800	-28.005	0.099
760.900	-2.599	0.099
761.000	-4.277	0.099
761.100	-14.820	0.099
761.200	0.338	0.099
761.300	-28.624	0.099
761.400	-0.648	0.099
761.500	-14.976	0.099
761.600	-11.474	0.099
761.700	-20.406	0.099
761.800	-6.715	0.099
761.900	-12.272	0.099
762.000	-9.896	0.099
762.100	-24.134	0.099
762.200	-4.688	0.099
762.300	-14.095	0.099
762.400	-4.969	0.099
762.500	-0.297	0.099
762.600	-7.082	0.099
762.700	-13.739	0.099
762.800	-6.048	0.099
762.900	-16.489	0.099
763.000	-11.650	0.099
763.100	-11.085	0.099
763.200	-13.775	0.100
763.300	-0.161	0.099
763.400	-7.922	0.099
763.500	-20.494	0.099
763.600	-4.970	0.099
763.700	-8.418	0.099
763.800	-13.776	0.099
763.900	-8.885	0.100
764.000	-8.650	0.099
764.100	-15.402	0.099
764.200	-22.055	0.099
764.300	-19.661	0.099
764.400	0.066	0.099
764.500	-10.927	0.099
764.600	-5.867	0.099
764.700	-7.647	0.099
764.800	-11.441	0.099
764.900	-10.080	0.099
765.000	-7.921	0.099
765.100	-9.362	0.099
765.200	-14.323	0.099
765.300	-12.803	0.099
765.400	-10.619	0.099
765.500	-18.845	0.099
765.600	-14.186	0.099
765.700	-3.830	0.099
765.800	-10.340	0.099
765.900	-9.319	0.099
766.000	-3.223	0.099
766.100	-19.561	0.099
766.200	-12.423	0.099
766.300	-21.880	0.099
766.400	-0.641	0.099
766.500	-12.244	0.099
766.600	-10.308	0.099
766.700	-9.653	0.099
766.800	-10.321	0.099
766.900	-7.872	0.099
767.000	2.673	0.099
767.100	-11.852	0.099
767.200	-9.307	0.099
767.300	-1.983	0.099
767.400	-11.001	0.099
767.500	-30.079	0.099
767.600	-10.155	0.099
767.700	-13.107	0.099
767.800	-12.851	0.099
767.900	-17.344	0.099
768.000	-2.770	0.099
768.100	-3.967	0.099
768.200	-10.831	0.099
768.300	0.378	0.099
768.400	-15.113	0.099
768.500	-17.376	0.099
768.600	-22.514	0.100
768.700	-4.355	0.099
768.800	-7.706	0.099
768.900	0.124	0.099
769.000	-12.883	0.099
769.100	-8.122	0.099
769.200	-4.904	0.099
769.300	-3.246	0.099
769.400	-5.299	0.099
769.500	-23.278	0.099
769.600	-13.595	0.099
769.700	-7.836	0.099
769.800	-20.671	0.099
769.900	-15.961	0.099
770.000	-10.941	0.099
770.100	2.840	0.099
770.200	-15.668	0.099
770.300	-13.983	0.099
770.400	-9.273	0.099
770.500	-8.257	0.099
770.600	-17.149	0.099
770.700	-20.329	0.099
770.800	-13.727	0.099
770.900	1.283	0.099
771.000	-6.259	0.099
771.100	-6.044	0.099
771.200	-19.184	0.099
771.300	-19.891	0.099
771.400	-17.918	0.099
771.500	-12.919	0.099
771.600	-8.234	0.099
771.700	-2.537	0.099
771.800	-5.451	0.099
771.900	-19.085	0.099
772.000	-20.329	0.099
772.100	-12.084	0.099
772.200	-13.163	0.099
772.300	-12.703	0.099
772.400	-11.276	0.099
772.500	0.902	0.099
772.600	-21.051	0.099
772.700	-15.416	0.099
772.800	-5.735	0.099
772.900	-15.658	0.099
773.000	0.922	0.099
773.100	-19.017	0.099
773.200	-21.941	0.099
773.300	-11.296	0.099
773.400	-14.572	0.099
773.500	-11.065	0.099
773.600	-6.318	0.099
773.700	-8.899	0.099
773.800	-7.165	0.099
773.900	-5.404	0.099
774.000	-11.661	0.099
774.100	-28.958	0.099
774.200	-12.454	0.099
774.300	-4.934	0.100
774.400	-7.966	0.099
774.500	-4.333	0.100
774.600	-5.432	0.099
774.700	-21.519	0.099
774.800	-12.779	0.099
774.900	3.192	0.099
775.000	-15.420	0.099
775.100	-8.869	0.099
775.200	-1.599	0.099
775.300	-14.675	0.099
775.400	-3.136	0.099
775.500	-26.036	0.099
775.600	-16.041	0.099
775.700	-20.217	0.099
775.800	-10.550	0.099
775.900	-5.247	0.099
776.000	-8.652	0.099
776.100	-9.384	0.099
776.200	-0.836	0.099
776.300	-1.407	0.099
776.400	-19.483	0.099
776.500	-18.672	0.099
776.600	-6.236	0.099
776.700	-3.615	0.099
776.800	-6.701	0.099
776.900	-7.879	0.099
777.000	-19.478	0.100
777.100	-12.179	0.099
777.200	-19.134	0.099
777.300	7.841	0.099
777.400	-4.805	0.099
777.500	-11.139	0.099
777.600	-3.321	0.099
777.700	-18.600	0.099
777.800	-2.693	0.099
777.900	-8.418	0.099
778.000	-9.187	0.099
778.100	-7.566	0.099
778.200	-13.384	0.099
778.300	-7.163	0.099
778.400	-20.435	0.099
778.500	5.553	0.099
778.600	-16.639	0.099
778.700	4.251	0.099
778.800	-6.232	0.099
778.900	1.654	0.099
779.000	-15.756	0.099
779.100	-10.405	0.099
779.200	-8.993	0.100
779.300	-15.601	0.099
779.400	-16.539	0.099
779.500	-10.138	0.100
779.600	-3.099	0.100
779.700	-5.847	0.099
779.800	-24.562	0.099
779.900	-5.229	0.099
780.000	-15.712	0.099
780.100	-8.246	0.099
780.200	-12.287	0.099
780.300	-17.057	0.100
780.400	-8.625	0.099
780.500	-3.976	0.099
780.600	-23.227	0.099
780.700	-6.913	0.099
780.800	0.256	0.099
780.900	-20.637	0.099
781.000	-2.788	0.100
781.100	-3.260	0.099
781.200	-0.778	0.099
781.300	-4.844	0.099
781.400	-9.993	0.100
781.500	-1.763	0.099
781.600	8.522	0.099
781.700	3.134	0.099
781.800	3.386	0.099
781.900	0.771	0.099
782.000	-2.009	0.099
782.100	2.506	0.099
782.200	15.193	0.099
782.300	3.348	0.099
782.400	-7.329	0.099
782.500	15.404	0.099
782.600	6.654	0.099
782.700	18.074	0.099
782.800	16.224	0.099
782.900	3.946	0.099
783.000	12.709	0.099
783.100	17.044	0.099
783.200	5.496	0.100
783.300	9.246	0.099
783.400	1.602	0.099
783.500	11.096	0.099
783.600	24.889	0.099
783.700	3.514	0.099
783.800	7.472	0.099
783.900	29.708	0.099
784.000	13.509	0.099
784.100	7.968	0.099
784.200	13.512	0.099
784.300	-4.961	0.099
784.400	18.530	0.099
784.500	13.562	0.099
784.600	8.108	0.099
784.700	9.634	0.099
784.800	9.701	0.099
784.900	14.985	0.099
785.000	3.672	0.099
785.100	12.655	0.099
785.200	17.574	0.100
785.300	-4.259	0.099
785.400	17.663	0.099
785.500	25.092	0.099
785.600	18.088	0.099
785.700	5.669	0.099
785.800	7.465	0.099
785.900	7.275	0.099
786.000	10.334	0.099
786.100	-2.221	0.099
786.200	7.454	0.099
786.300	8.510	0.099
786.400	15.583	0.099
786.500	10.238	0.099
786.600	13.916	0.099
786.700	3.431	0.099
786.800	10.872	0.099
786.900	10.029	0.099
787.000	21.450	0.099
787.100	20.558	0.099
787.200	4.994	0.099
787.300	17.636	0.099
787.400	6.672	0.099
787.500	7.396	0.099
787.600	14.782	0.099
787.700	14.829	0.099
787.800	5.380	0.099
787.900	15.604	0.099
788.000	5.890	0.099
788.100	25.030	0.099
788.200	1.583	0.099
788.300	14.233	0.099
788.400	24.485	0.099
788.500	2.445	0.099
788.600	13.733	0.099
788.700	12.698	0.099
788.800	17.393	0.099
788.900	18.232	0.099
789.000	10.887	0.099
789.100	4.228	0.099
789.200	24.353	0.099
789.300	15.737	0.099
789.400	10.805	0.099
789.500	8.302	0.099
789.600	15.979	0.099
789.700	-9.041	0.099
789.800	28.147	0.099
789.900	15.040	0.099
790.000	23.098	0.099
790.100	8.420	0.099
790.200	19.574	0.099
790.300	22.684	0.099
790.400	0.398	0.099
790.500	23.493	0.099
790.600	24.628	0.099
790.700	11.839	0.099
790.800	13.758	0.099
790.900	25.696	0.099
791.000	10.882	0.099
791.100	8.160	0.099
791.200	17.333	0.099
791.300	26.684	0.099
791.400	27.272	0.099
791.500	29.142	0.099
791.600	3.593	0.099
791.700	16.954	0.099
791.800	11.398	0.099
791.900	7.588	0.099
792.000	20.121	0.099
792.100	25.040	0.099
792.200	20.932	0.099
792.300	21.117	0.099
792.400	26.026	0.099
792.500	18.564	0.099
792.600	19.858	0.099
792.700	21.313	0.099
792.800	19.674	0.099
792.900	13.919	0.099
793.000	21.868	0.099
793.100	32.157	0.099
793.200	26.849	0.099
793.300	26.162	0.099
793.400	25.161	0.099
793.500	36.122	0.099
793.600	13.429	0.099
793.700	9.036	0.099
793.800	16.441	0.099
793.900	20.477	0.099
794.000	23.209	0.099
794.100	24.167	0.099
794.200	18.402	0.099
794.300	31.856	0.099
794.400	31.594	0.099
794.500	21.164	0.099
794.600	25.056	0.099
794.700	32.596	0.099
794.800	20.414	0.099
794.900	23.634	0.099
795.000	23.503	0.099
795.100	15.013	0.099
795.200	27.854	0.099
795.300	21.498	0.099
795.400	37.524	0.099
795.500	21.872	0.099
795.600	22.722	0.099
795.700	26.108	0.099
795.800	35.982	0.099
795.900	26.096	0.099
796.000	26.440	0.099
796.100	24.327	0.099
796.200	23.837	0.099
796.300	23.805	0.099
796.400	22.129	0.099
796.500	18.961	0.099
796.600	14.336	0.099
796.700	28.408	0.099
796.800	23.619	0.099
796.900	28.573	0.099
797.000	38.944	0.100
797.100	21.554	0.099
797.200	21.084	0.099
797.300	25.641	0.099
797.400	21.920	0.099
797.500	21.243	0.099
797.600	33.216	0.099
797.700	19.316	0.099
797.800	20.625	0.099
797.900	9.645	0.099
798.000	28.812	0.099
798.100	18.476	0.099
798.200	20.951	0.099
798.300	29.344	0.099
798.400	47.026	0.100
798.500	11.867	0.099
798.600	29.535	0.099
798.700	28.013	0.099
798.800	34.270	0.099
798.900	28.690	0.099
799.000	24.489	0.099
799.100	35.552	0.100
799.200	18.011	0.099
799.300	26.363	0.099
799.400	28.603	0.099
799.500	23.628	0.099
799.600	27.582	0.100
799.700	33.868	0.099
799.800	24.664	0.099
799.900	32.567	0.099
800.000	13.463	0.099
