time /s	I /nA	E /V
0.100	10.674	0.099
0.200	-0.456	0.099
0.300	2.684	0.099
0.400	8.354	0.100
0.500	-16.456	0.099
0.600	-29.644	0.099
0.700	2.194	0.099
0.800	-1.057	0.099
0.900	2.640	0.100
1.000	-16.588	0.100
1.100	4.376	0.100
1.200	-20.516	0.099
1.300	6.966	0.099
1.400	0.561	0.099
1.500	-3.585	0.099
1.600	-14.514	0.099
1.700	11.841	0.100
1.800	7.302	0.099
1.900	2.134	0.100
2.000	-15.315	0.100
2.100	-12.511	0.099
2.200	-7.634	0.100
2.300	-7.455	0.099
2.400	4.624	0.100
2.500	4.560	0.100
2.600	2.209	0.100
2.700	-7.509	0.100
2.800	2.085	0.099
2.900	-2.217	0.099
3.000	-5.526	0.099
3.100	-1.525	0.099
3.200	7.769	0.100
3.300	-11.873	0.100
3.400	-0.941	0.100
3.500	-5.361	0.099
3.600	2.564	0.099
3.700	-0.214	0.100
3.800	-16.410	0.100
3.900	11.971	0.100
4.000	0.609	0.099
4.100	-7.834	0.099
4.200	6.822	0.099
4.300	3.734	0.100
4.400	-15.129	0.099
4.500	-18.337	0.099
4.600	11.246	0.100
4.700	0.978	0.099
4.800	-4.755	0.100
4.900	-5.881	0.099
5.000	-4.612	0.099
5.100	5.024	0.099
5.200	-5.858	0.099
5.300	-2.637	0.099
5.400	4.348	0.100
5.500	4.895	0.099
5.600	-6.776	0.099
5.700	-5.961	0.099
5.800	-1.377	0.099
5.900	0.652	0.099
6.000	-14.049	0.099
6.100	7.861	0.099
6.200	2.705	0.100
6.300	3.544	0.099
6.400	-9.999	0.099
6.500	3.529	0.099
6.600	0.080	0.099
6.700	-5.260	0.099
6.800	6.922	0.099
6.900	5.410	0.099
7.000	-9.140	0.099
7.100	-20.587	0.099
7.200	-12.419	0.099
7.300	11.262	0.099
7.400	4.616	0.099
7.500	7.821	0.099
7.600	-8.955	0.099
7.700	-1.395	0.099
7.800	-0.002	0.099
7.900	-2.070	0.099
8.000	-1.810	0.099
8.100	-23.866	0.099
8.200	-11.941	0.099
8.300	7.171	0.099
8.400	-11.316	0.099
8.500	8.445	0.099
8.600	10.890	0.099
8.700	-3.033	0.099
8.800	3.657	0.099
8.900	-1.232	0.099
9.000	1.987	0.099
9.100	-3.664	0.100
9.200	4.629	0.100
9.300	-12.866	0.100
9.400	3.445	0.099
9.500	7.679	0.099
9.600	5.995	0.099
9.700	-2.543	0.100
9.800	-4.511	0.099
9.900	-14.448	0.099
10.000	9.154	0.099
10.100	-6.239	0.099
10.200	1.925	0.100
10.300	-7.006	0.099
10.400	-7.780	0.099
10.500	-6.402	0.099
10.600	-6.568	0.100
10.700	7.634	0.100
10.800	-8.024	0.100
10.900	-9.722	0.100
11.000	0.181	0.100
11.100	7.211	0.099
11.200	-1.185	0.099
11.300	7.404	0.100
11.400	0.307	0.100
11.500	7.045	0.099
11.600	-12.007	0.099
11.700	-12.938	0.099
11.800	4.433	0.099
11.900	-10.058	0.099
12.000	-1.901	0.099
12.100	-0.773	0.100
12.200	1.985	0.099
12.300	-6.041	0.100
12.400	-8.811	0.100
12.500	-6.955	0.099
12.600	-3.242	0.099
12.700	3.815	0.099
12.800	9.818	0.099
12.900	-16.908	0.099
13.000	-0.687	0.100
13.100	7.626	0.100
13.200	1.064	0.099
13.300	2.418	0.099
13.400	0.852	0.099
13.500	-13.011	0.100
13.600	-0.144	0.099
13.700	-5.168	0.099
13.800	-4.670	0.099
13.900	-0.638	0.100
14.000	2.721	0.100
14.100	-8.082	0.099
14.200	-14.490	0.100
14.300	12.923	0.099
14.400	-13.189	0.100
14.500	9.950	0.099
14.600	-10.591	0.099
14.700	0.637	0.100
14.800	-4.162	0.099
14.900	-8.903	0.099
15.000	-8.879	0.099
15.100	-2.180	0.100
15.200	3.647	0.099
15.300	8.675	0.099
15.400	-11.313	0.100
15.500	-2.038	0.100
15.600	-5.467	0.100
15.700	4.031	0.100
15.800	1.584	0.100
15.900	-5.490	0.099
16.000	4.629	0.099
16.100	-17.963	0.099
16.200	2.702	0.099
16.300	-14.937	0.100
16.400	8.754	0.100
16.500	14.485	0.100
16.600	2.634	0.100
16.700	0.600	0.100
16.800	-6.577	0.100
16.900	-9.654	0.099
17.000	7.799	0.100
17.100	-5.664	0.100
17.200	-3.060	0.099
17.300	-9.590	0.099
17.400	8.807	0.099
17.500	1.665	0.100
17.600	-6.020	0.100
17.700	8.399	0.099
17.800	6.074	0.099
17.900	-5.503	0.100
18.000	8.528	0.099
18.100	-18.285	0.099
18.200	6.080	0.100
18.300	-0.639	0.099
18.400	-13.993	0.099
18.500	13.015	0.099
18.600	-7.864	0.100
18.700	7.485	0.099
18.800	-2.178	0.099
18.900	-8.337	0.099
19.000	-1.678	0.099
19.100	0.150	0.099
19.200	5.962	0.099
19.300	3.343	0.100
19.400	1.252	0.100
19.500	-1.811	0.100
19.600	6.484	0.100
19.700	-1.641	0.100
19.800	-0.905	0.100
19.900	2.069	0.099
20.000	5.419	0.100
20.100	-21.538	0.099
20.200	1.023	0.099
20.300	-7.131	0.099
20.400	-2.078	0.099
20.500	13.718	0.100
20.600	-22.504	0.100
20.700	7.818	0.099
20.800	2.544	0.100
20.900	-0.590	0.100
21.000	5.436	0.099
21.100	11.018	0.100
21.200	8.533	0.099
21.300	-10.144	0.100
21.400	1.416	0.099
21.500	-7.938	0.099
21.600	-5.754	0.100
21.700	-1.863	0.099
21.800	3.327	0.099
21.900	-4.478	0.099
22.000	6.870	0.099
22.100	14.122	0.100
22.200	2.047	0.099
22.300	-7.378	0.100
22.400	2.365	0.100
22.500	0.914	0.099
22.600	-6.111	0.100
22.700	-0.924	0.100
22.800	-2.943	0.100
22.900	-8.502	0.099
23.000	-3.168	0.099
23.100	2.538	0.099
23.200	-6.683	0.099
23.300	-9.720	0.100
23.400	1.125	0.099
23.500	1.128	0.099
23.600	-13.518	0.099
23.700	13.120	0.099
23.800	-0.064	0.100
23.900	-4.631	0.099
24.000	3.826	0.099
24.100	2.933	0.100
24.200	-4.018	0.099
24.300	1.553	0.099
24.400	1.541	0.099
24.500	-10.259	0.099
24.600	3.795	0.099
24.700	-1.494	0.099
24.800	-0.614	0.099
24.900	-13.627	0.099
25.000	-3.844	0.100
25.100	-13.930	0.099
25.200	4.352	0.099
25.300	-10.866	0.099
25.400	17.052	0.099
25.500	1.816	0.099
25.600	-13.779	0.099
25.700	-9.441	0.099
25.800	8.088	0.099
25.900	6.695	0.100
26.000	3.519	0.100
26.100	2.283	0.099
26.200	-4.863	0.100
26.300	7.987	0.099
26.400	-3.274	0.100
26.500	-5.287	0.100
26.600	-5.415	0.100
26.700	-6.262	0.099
26.800	-1.149	0.100
26.900	-1.297	0.100
27.000	-3.376	0.099
27.100	-2.791	0.100
27.200	-4.921	0.100
27.300	-13.145	0.099
27.400	-7.620	0.100
27.500	10.274	0.100
27.600	10.386	0.099
27.700	2.299	0.099
27.800	7.298	0.099
27.900	-16.275	0.100
28.000	3.650	0.100
28.100	-2.290	0.100
28.200	10.696	0.099
28.300	-1.580	0.099
28.400	3.933	0.099
28.500	-20.874	0.099
28.600	5.530	0.100
28.700	-8.370	0.099
28.800	-6.395	0.100
28.900	14.643	0.099
29.000	-7.983	0.099
29.100	-0.471	0.099
29.200	3.580	0.099
29.300	-6.284	0.100
29.400	3.956	0.100
29.500	7.911	0.100
29.600	-1.233	0.100
29.700	2.905	0.100
29.800	-3.981	0.100
29.900	-6.976	0.100
30.000	4.854	0.099
30.100	2.728	0.100
30.200	-10.898	0.100
30.300	3.000	0.100
30.400	2.516	0.100
30.500	13.799	0.100
30.600	0.621	0.100
30.700	3.952	0.099
30.800	-0.380	0.100
30.900	15.813	0.100
31.000	-10.890	0.100
31.100	22.536	0.100
31.200	9.878	0.100
31.300	5.673	0.100
31.400	1.464	0.100
31.500	-1.701	0.100
31.600	15.499	0.100
31.700	10.889	0.100
31.800	19.927	0.100
31.900	17.767	0.100
32.000	16.263	0.100
32.100	12.928	0.100
32.200	22.288	0.100
32.300	6.935	0.100
32.400	5.128	0.100
32.500	10.471	0.100
32.600	28.691	0.100
32.700	20.141	0.100
32.800	17.252	0.100
32.900	6.624	0.099
33.000	21.576	0.100
33.100	13.076	0.100
33.200	18.266	0.099
33.300	16.390	0.100
33.400	19.226	0.099
33.500	1.137	0.100
33.600	22.652	0.100
33.700	28.296	0.099
33.800	29.995	0.099
33.900	27.575	0.099
34.000	22.936	0.099
34.100	2.950	0.099
34.200	15.105	0.099
34.300	19.277	0.099
34.400	25.433	0.100
34.500	29.491	0.100
34.600	21.045	0.099
34.700	9.775	0.099
34.800	18.495	0.099
34.900	24.258	0.099
35.000	24.856	0.099
35.100	25.310	0.099
35.200	40.883	0.099
35.300	7.692	0.099
35.400	31.280	0.099
35.500	7.041	0.099
35.600	32.869	0.100
35.700	44.721	0.100
35.800	14.506	0.100
35.900	32.667	0.100
36.000	22.936	0.099
36.100	22.617	0.099
36.200	36.640	0.099
36.300	18.776	0.099
36.400	31.470	0.100
36.500	31.626	0.099
36.600	22.718	0.099
36.700	25.846	0.100
36.800	20.309	0.100
36.900	29.673	0.099
37.000	13.351	0.099
37.100	0.534	0.100
37.200	30.260	0.100
37.300	24.467	0.099
37.400	35.782	0.100
37.500	26.929	0.099
37.600	20.473	0.100
37.700	25.492	0.100
37.800	24.894	0.100
37.900	28.103	0.099
38.000	35.323	0.100
38.100	29.555	0.099
38.200	40.662	0.099
38.300	32.769	0.099
38.400	24.703	0.099
38.500	42.902	0.099
38.600	21.572	0.099
38.700	24.272	0.100
38.800	26.429	0.100
38.900	31.700	0.100
39.000	23.723	0.099
39.100	33.494	0.100
39.200	25.737	0.100
39.300	22.061	0.099
39.400	18.722	0.100
39.500	29.023	0.099
39.600	14.792	0.099
39.700	15.760	0.100
39.800	26.313	0.099
39.900	4.982	0.099
40.000	28.099	0.100
40.100	43.250	0.100
40.200	28.506	0.099
40.300	32.710	0.100
40.400	18.270	0.100
40.500	32.603	0.099
40.600	27.239	0.100
40.700	27.237	0.100
40.800	26.390	0.100
40.900	22.055	0.099
41.000	20.772	0.099
41.100	19.421	0.100
41.200	33.754	0.099
41.300	41.616	0.099
41.400	17.554	0.099
41.500	35.183	0.099
41.600	22.195	0.099
41.700	16.035	0.099
41.800	21.721	0.099
41.900	28.725	0.100
42.000	22.327	0.099
42.100	21.730	0.099
42.200	18.589	0.099
42.300	18.953	0.099
42.400	39.891	0.099
42.500	37.272	0.100
42.600	31.368	0.100
42.700	16.725	0.100
42.800	12.003	0.099
42.900	22.994	0.099
43.000	20.212	0.100
43.100	31.020	0.099
43.200	12.052	0.100
43.300	32.617	0.099
43.400	50.079	0.099
43.500	26.137	0.099
43.600	21.934	0.099
43.700	29.550	0.099
43.800	31.176	0.099
43.900	25.379	0.100
44.000	24.716	0.100
44.100	26.360	0.099
44.200	29.559	0.099
44.300	19.198	0.100
44.400	26.252	0.100
44.500	29.517	0.100
44.600	18.944	0.099
44.700	25.162	0.100
44.800	34.130	0.100
44.900	30.566	0.099
45.000	13.695	0.099
45.100	21.027	0.099
45.200	16.198	0.099
45.300	31.422	0.099
45.400	28.903	0.099
45.500	17.044	0.099
45.600	31.359	0.099
45.700	31.504	0.100
45.800	36.729	0.099
45.900	15.690	0.099
46.000	41.215	0.099
46.100	25.223	0.099
46.200	31.986	0.100
46.300	25.841	0.099
46.400	32.610	0.099
46.500	20.755	0.099
46.600	26.137	0.099
46.700	12.093	0.100
46.800	14.899	0.100
46.900	28.324	0.099
47.000	27.971	0.099
47.100	16.803	0.099
47.200	26.957	0.100
47.300	27.972	0.099
47.400	27.718	0.100
47.500	25.387	0.099
47.600	32.834	0.099
47.700	26.833	0.100
47.800	15.521	0.099
47.900	42.431	0.099
48.000	42.824	0.099
48.100	26.214	0.100
48.200	16.402	0.099
48.300	13.163	0.100
48.400	23.293	0.099
48.500	32.623	0.100
48.600	36.229	0.100
48.700	25.311	0.100
48.800	12.617	0.100
48.900	27.361	0.100
49.000	7.423	0.099
49.100	12.262	0.099
49.200	28.167	0.099
49.300	19.359	0.099
49.400	16.386	0.100
49.500	32.115	0.099
49.600	20.334	0.099
49.700	28.414	0.099
49.800	30.394	0.100
49.900	33.973	0.099
50.000	32.223	0.100
50.100	18.492	0.099
50.200	1.160	0.099
50.300	20.528	0.099
50.400	52.084	0.099
50.500	19.457	0.100
50.600	27.021	0.099
50.700	20.111	0.099
50.800	32.739	0.099
50.900	26.121	0.099
51.000	34.684	0.099
51.100	31.521	0.099
51.200	20.272	0.099
51.300	24.227	0.099
51.400	40.151	0.099
51.500	22.373	0.099
51.600	20.988	0.099
51.700	33.015	0.099
51.800	25.723	0.099
51.900	13.558	0.099
52.000	45.947	0.099
52.100	40.886	0.099
52.200	27.171	0.100
52.300	18.673	0.099
52.400	22.893	0.099
52.500	31.835	0.100
52.600	18.894	0.099
52.700	29.978	0.099
52.800	19.995	0.099
52.900	25.431	0.099
53.000	43.333	0.099
53.100	36.392	0.099
53.200	2.116	0.099
53.300	32.826	0.099
53.400	23.163	0.100
53.500	21.774	0.099
53.600	34.065	0.099
53.700	38.398	0.099
53.800	23.118	0.099
53.900	40.961	0.099
54.000	32.917	0.100
54.100	40.392	0.099
54.200	18.818	0.100
54.300	35.783	0.099
54.400	26.419	0.100
54.500	24.068	0.099
54.600	36.151	0.100
54.700	18.258	0.099
54.800	17.986	0.099
54.900	33.639	0.100
55.000	19.237	0.099
55.100	20.423	0.099
55.200	24.176	0.099
55.300	50.337	0.099
55.400	33.995	0.099
55.500	33.687	0.099
55.600	20.959	0.099
55.700	39.660	0.099
55.800	19.983	0.099
55.900	28.197	0.099
56.000	24.680	0.100
56.100	37.531	0.099
56.200	24.903	0.099
56.300	29.874	0.099
56.400	38.556	0.099
56.500	46.775	0.099
56.600	38.209	0.099
56.700	18.373	0.099
56.800	37.193	0.099
56.900	36.375	0.100
57.000	21.255	0.100
57.100	43.941	0.099
57.200	26.176	0.100
57.300	27.977	0.099
57.400	26.528	0.100
57.500	15.921	0.099
57.600	32.270	0.099
57.700	29.091	0.099
57.800	25.943	0.100
57.900	26.276	0.099
58.000	33.079	0.099
58.100	30.346	0.100
58.200	26.879	0.099
58.300	38.655	0.099
58.400	19.932	0.100
58.500	29.637	0.099
58.600	35.781	0.099
58.700	36.639	0.099
58.800	43.158	0.099
58.900	40.090	0.099
59.000	25.534	0.100
59.100	29.730	0.099
59.200	28.527	0.099
59.300	25.256	0.099
59.400	32.588	0.099
59.500	30.965	0.100
59.600	38.077	0.099
59.700	21.854	0.100
59.800	33.474	0.099
59.900	33.379	0.099
60.000	24.581	0.099
60.100	38.172	0.100
60.200	25.029	0.099
60.300	16.174	0.099
60.400	27.236	0.099
60.500	51.506	0.099
60.600	33.496	0.099
60.700	30.518	0.099
60.800	46.589	0.099
60.900	24.349	0.100
61.000	30.886	0.099
61.100	28.298	0.099
61.200	41.198	0.099
61.300	27.395	0.099
61.400	15.560	0.099
61.500	31.393	0.099
61.600	22.133	0.099
61.700	50.645	0.099
61.800	38.205	0.100
61.900	26.100	0.099
62.000	40.469	0.099
62.100	49.609	0.099
62.200	21.529	0.099
62.300	33.875	0.099
62.400	26.968	0.099
62.500	38.605	0.099
62.600	25.520	0.099
62.700	20.359	0.099
62.800	34.768	0.100
62.900	40.590	0.100
63.000	26.135	0.100
63.100	29.527	0.099
63.200	41.799	0.099
63.300	42.096	0.099
63.400	22.481	0.099
63.500	34.644	0.100
63.600	34.474	0.099
63.700	15.932	0.099
63.800	40.364	0.099
63.900	24.326	0.099
64.000	31.891	0.099
64.100	26.840	0.099
64.200	32.240	0.099
64.300	34.079	0.099
64.400	31.334	0.099
64.500	24.761	0.099
64.600	23.942	0.100
64.700	48.994	0.099
64.800	37.698	0.099
64.900	39.642	0.099
65.000	35.313	0.099
65.100	26.355	0.099
65.200	37.481	0.099
65.300	35.817	0.099
65.400	27.839	0.099
65.500	27.551	0.100
65.600	10.644	0.099
65.700	48.284	0.100
65.800	29.862	0.099
65.900	30.850	0.099
66.000	31.551	0.100
66.100	29.021	0.099
66.200	24.744	0.100
66.300	17.505	0.099
66.400	34.839	0.099
66.500	22.712	0.099
66.600	30.645	0.099
66.700	46.442	0.100
66.800	23.475	0.099
66.900	11.643	0.099
67.000	36.543	0.099
67.100	50.010	0.099
67.200	31.613	0.099
67.300	35.662	0.099
67.400	26.145	0.099
67.500	33.063	0.100
67.600	30.567	0.099
67.700	34.221	0.099
67.800	34.409	0.100
67.900	38.063	0.099
68.000	35.207	0.099
68.100	25.679	0.100
68.200	32.089	0.099
68.300	23.026	0.100
68.400	37.783	0.099
68.500	38.688	0.099
68.600	19.676	0.099
68.700	47.822	0.099
68.800	37.356	0.100
68.900	33.231	0.099
69.000	28.699	0.099
69.100	30.873	0.100
69.200	22.527	0.099
69.300	38.934	0.099
69.400	23.167	0.100
69.500	54.563	0.100
69.600	11.455	0.099
69.700	20.231	0.100
69.800	47.016	0.099
69.900	28.679	0.099
70.000	42.728	0.099
70.100	25.120	0.099
70.200	41.917	0.099
70.300	21.664	0.100
70.400	40.493	0.100
70.500	38.657	0.099
70.600	27.400	0.099
70.700	37.509	0.099
70.800	31.326	0.099
70.900	31.991	0.099
71.000	38.557	0.099
71.100	35.278	0.099
71.200	23.785	0.099
71.300	31.519	0.099
71.400	34.665	0.099
71.500	35.710	0.099
71.600	26.275	0.099
71.700	38.895	0.099
71.800	14.494	0.100
71.900	36.828	0.099
72.000	37.709	0.099
72.100	27.787	0.099
72.200	35.259	0.099
72.300	31.248	0.099
72.400	43.606	0.099
72.500	40.705	0.100
72.600	34.075	0.099
72.700	28.183	0.099
72.800	34.593	0.099
72.900	40.394	0.099
73.000	40.209	0.099
73.100	41.073	0.099
73.200	30.873	0.099
73.300	38.228	0.099
73.400	40.898	0.100
73.500	27.423	0.100
73.600	33.742	0.100
73.700	44.206	0.099
73.800	33.562	0.099
73.900	36.988	0.100
74.000	26.479	0.099
74.100	38.195	0.099
74.200	38.011	0.099
74.300	43.377	0.099
74.400	32.954	0.099
74.500	37.151	0.099
74.600	41.105	0.099
74.700	40.469	0.100
74.800	25.199	0.099
74.900	30.546	0.099
75.000	37.795	0.099
75.100	42.839	0.099
75.200	22.369	0.099
75.300	40.508	0.099
75.400	49.156	0.100
75.500	35.024	0.100
75.600	35.288	0.099
75.700	47.837	0.099
75.800	46.131	0.099
75.900	38.409	0.100
76.000	18.169	0.100
76.100	24.810	0.100
76.200	18.505	0.099
76.300	37.273	0.099
76.400	41.585	0.099
76.500	33.645	0.099
76.600	54.638	0.099
76.700	25.157	0.099
76.800	36.364	0.100
76.900	20.984	0.099
77.000	23.484	0.099
77.100	33.675	0.099
77.200	46.097	0.100
77.300	45.142	0.099
77.400	51.487	0.100
77.500	37.043	0.099
77.600	45.165	0.099
77.700	36.573	0.100
77.800	33.634	0.100
77.900	40.293	0.099
78.000	45.245	0.099
78.100	36.392	0.099
78.200	40.041	0.100
78.300	23.483	0.099
78.400	22.732	0.099
78.500	48.307	0.099
78.600	39.196	0.100
78.700	45.259	0.099
78.800	49.306	0.099
78.900	36.194	0.099
79.000	38.540	0.099
79.100	26.137	0.099
79.200	43.441	0.099
79.300	45.387	0.100
79.400	25.504	0.099
79.500	30.131	0.100
79.600	44.936	0.100
79.700	33.794	0.099
79.800	31.250	0.099
79.900	33.310	0.100
80.000	53.362	0.099
80.100	28.937	0.099
80.200	32.849	0.099
80.300	47.597	0.099
80.400	42.822	0.099
80.500	32.260	0.099
80.600	38.336	0.099
80.700	42.316	0.099
80.800	27.945	0.099
80.900	36.035	0.099
81.000	38.097	0.100
81.100	46.162	0.099
81.200	38.899	0.099
81.300	35.812	0.099
81.400	31.698	0.099
81.500	44.723	0.099
81.600	32.218	0.099
81.700	27.187	0.099
81.800	33.021	0.099
81.900	35.554	0.099
82.000	31.851	0.099
82.100	41.363	0.099
82.200	43.086	0.099
82.300	41.369	0.099
82.400	26.601	0.099
82.500	34.237	0.099
82.600	31.535	0.099
82.700	39.072	0.099
82.800	49.577	0.100
82.900	40.090	0.099
83.000	38.007	0.099
83.100	38.338	0.099
83.200	27.185	0.099
83.300	39.554	0.099
83.400	38.690	0.099
83.500	37.910	0.099
83.600	40.537	0.099
83.700	34.902	0.100
83.800	48.926	0.099
83.900	25.832	0.099
84.000	33.057	0.099
84.100	55.409	0.099
84.200	45.037	0.099
84.300	36.941	0.099
84.400	32.475	0.099
84.500	25.583	0.099
84.600	44.615	0.099
84.700	32.036	0.099
84.800	49.958	0.099
84.900	34.076	0.099
85.000	25.969	0.099
85.100	37.826	0.099
85.200	67.716	0.099
85.300	25.306	0.099
85.400	36.998	0.099
85.500	39.579	0.099
85.600	47.711	0.099
85.700	40.031	0.100
85.800	19.017	0.099
85.900	43.800	0.099
86.000	44.266	0.100
86.100	34.885	0.100
86.200	36.810	0.100
86.300	37.248	0.099
86.400	33.135	0.099
86.500	28.868	0.099
86.600	48.082	0.099
86.700	31.349	0.099
86.800	20.480	0.099
86.900	37.416	0.099
87.000	42.741	0.099
87.100	32.682	0.099
87.200	55.591	0.099
87.300	32.662	0.100
87.400	29.916	0.100
87.500	22.908	0.099
87.600	54.044	0.099
87.700	37.192	0.099
87.800	37.091	0.099
87.900	44.724	0.099
88.000	36.655	0.099
88.100	35.296	0.099
88.200	28.115	0.099
88.300	33.981	0.099
88.400	57.968	0.099
88.500	45.943	0.100
88.600	40.799	0.099
88.700	39.151	0.099
88.800	36.623	0.099
88.900	44.887	0.099
89.000	30.078	0.099
89.100	46.127	0.099
89.200	28.536	0.100
89.300	41.393	0.099
89.400	38.756	0.099
89.500	35.514	0.099
89.600	32.814	0.099
89.700	50.463	0.100
89.800	30.652	0.099
89.900	32.226	0.100
90.000	30.855	0.100
90.100	42.832	0.099
90.200	39.506	0.099
90.300	38.469	0.099
90.400	28.250	0.100
90.500	39.148	0.100
90.600	37.890	0.099
90.700	24.584	0.099
90.800	30.957	0.099
90.900	33.799	0.099
91.000	19.193	0.099
91.100	26.757	0.100
91.200	31.759	0.100
91.300	8.607	0.099
91.400	29.178	0.100
91.500	10.657	0.099
91.600	12.040	0.099
91.700	37.997	0.099
91.800	24.115	0.100
91.900	0.112	0.100
92.000	19.746	0.099
92.100	11.525	0.099
92.200	20.356	0.100
92.300	22.389	0.099
92.400	21.630	0.100
92.500	12.340	0.099
92.600	16.840	0.099
92.700	24.292	0.100
92.800	11.235	0.100
92.900	13.908	0.099
93.000	11.442	0.100
93.100	5.956	0.099
93.200	7.971	0.100
93.300	12.544	0.100
93.400	12.046	0.100
93.500	6.075	0.099
93.600	4.665	0.099
93.700	-0.983	0.099
93.800	-5.414	0.099
93.900	6.927	0.100
94.000	5.275	0.100
94.100	13.657	0.100
94.200	6.772	0.099
94.300	9.321	0.099
94.400	7.299	0.100
94.500	10.394	0.100
94.600	4.391	0.099
94.700	-5.482	0.100
94.800	11.703	0.100
94.900	-7.218	0.100
95.000	2.932	0.099
95.100	13.206	0.099
95.200	1.608	0.100
95.300	8.334	0.100
95.400	10.622	0.100
95.500	-24.107	0.100
95.600	-9.659	0.099
95.700	-7.721	0.099
95.800	3.123	0.099
95.900	0.111	0.100
96.000	4.035	0.100
96.100	-10.454	0.099
96.200	10.157	0.099
96.300	0.961	0.100
96.400	-7.261	0.099
96.500	-4.070	0.099
96.600	3.123	0.099
96.700	7.939	0.099
96.800	9.480	0.099
96.900	4.087	0.099
97.000	0.730	0.099
97.100	-0.305	0.099
97.200	6.855	0.099
97.300	-7.996	0.099
97.400	-12.866	0.099
97.500	-5.662	0.100
97.600	2.975	0.099
97.700	-12.783	0.099
97.800	-2.314	0.099
97.900	4.547	0.099
98.000	-11.531	0.099
98.100	10.281	0.099
98.200	-18.171	0.099
98.300	-4.115	0.099
98.400	6.376	0.100
98.500	-14.273	0.099
98.600	-17.292	0.099
98.700	0.098	0.100
98.800	-9.534	0.099
98.900	-7.006	0.100
99.000	-7.690	0.099
99.100	-11.057	0.099
99.200	-1.996	0.100
99.300	-7.693	0.100
99.400	3.149	0.100
99.500	-12.344	0.099
99.600	6.910	0.100
99.700	-3.136	0.099
99.800	-17.481	0.099
99.900	3.158	0.100
100.000	-9.552	0.100
100.100	12.412	0.100
100.200	5.894	0.100
100.300	-6.220	0.100
100.400	-5.368	0.100
100.500	-11.342	0.099
100.600	-22.908	0.099
100.700	18.348	0.099
100.800	7.670	0.100
100.900	-1.749	0.100
101.000	3.057	0.100
101.100	-2.929	0.099
101.200	-10.605	0.100
101.300	7.528	0.100
101.400	-8.638	0.100
101.500	-25.947	0.100
101.600	-8.243	0.100
101.700	-7.284	0.100
101.800	-4.826	0.099
101.900	-4.348	0.099
102.000	-7.922	0.099
102.100	-0.354	0.100
102.200	-10.920	0.099
102.300	-6.344	0.100
102.400	-10.661	0.099
102.500	-3.477	0.099
102.600	-7.742	0.099
102.700	6.855	0.099
102.800	-17.382	0.100
102.900	-0.942	0.099
103.000	-1.505	0.100
103.100	-7.594	0.100
103.200	-3.384	0.099
103.300	-15.005	0.099
103.400	-14.250	0.100
103.500	-1.145	0.099
103.600	-1.476	0.100
103.700	-9.144	0.100
103.800	-7.593	0.099
103.900	-16.832	0.099
104.000	-9.003	0.100
104.100	-11.798	0.099
104.200	-16.085	0.100
104.300	-3.024	0.099
104.400	-21.649	0.099
104.500	-4.753	0.099
104.600	1.018	0.100
104.700	-22.300	0.100
104.800	-13.939	0.099
104.900	-1.758	0.100
105.000	-3.333	0.099
105.100	-6.034	0.099
105.200	-16.425	0.099
105.300	-14.555	0.100
105.400	-11.115	0.099
105.500	-11.592	0.099
105.600	-0.211	0.100
105.700	1.665	0.100
105.800	-6.556	0.099
105.900	-7.047	0.100
106.000	-11.610	0.099
106.100	-19.768	0.099
106.200	-6.572	0.099
106.300	-16.835	0.099
106.400	-1.016	0.099
106.500	-15.718	0.099
106.600	-5.259	0.099
106.700	-5.662	0.100
106.800	-9.554	0.099
106.900	3.805	0.099
107.000	-9.769	0.099
107.100	-13.979	0.100
107.200	-14.325	0.099
107.300	-20.369	0.099
107.400	-4.733	0.100
107.500	3.168	0.099
107.600	-12.383	0.100
107.700	-4.678	0.100
107.800	4.298	0.099
107.900	-30.792	0.100
108.000	-13.064	0.100
108.100	-12.984	0.100
108.200	-18.204	0.099
108.300	4.765	0.099
108.400	-7.304	0.100
108.500	-6.545	0.099
108.600	-19.500	0.100
108.700	0.324	0.100
108.800	6.337	0.100
108.900	-8.278	0.100
109.000	-11.868	0.099
109.100	-24.466	0.100
109.200	-5.979	0.099
109.300	-11.747	0.099
109.400	-15.054	0.099
109.500	-0.859	0.099
109.600	-19.136	0.100
109.700	-24.809	0.099
109.800	-15.441	0.099
109.900	-2.477	0.100
110.000	-16.673	0.100
110.100	0.339	0.100
110.200	-4.487	0.100
110.300	-16.377	0.100
110.400	-2.626	0.100
110.500	-24.011	0.100
110.600	-7.006	0.100
110.700	-9.499	0.099
110.800	0.499	0.099
110.900	-26.341	0.100
111.000	-2.719	0.100
111.100	-15.014	0.099
111.200	-4.465	0.099
111.300	-23.142	0.100
111.400	5.316	0.100
111.500	-17.224	0.100
111.600	-9.683	0.100
111.700	-21.843	0.100
111.800	7.397	0.099
111.900	-9.781	0.099
112.000	-11.703	0.099
112.100	-7.758	0.100
112.200	-17.925	0.100
112.300	-18.971	0.100
112.400	-19.300	0.099
112.500	-25.495	0.100
112.600	-9.751	0.100
112.700	-5.719	0.100
112.800	-11.507	0.100
112.900	0.169	0.099
113.000	0.750	0.100
113.100	-15.435	0.100
113.200	-12.732	0.099
113.300	-22.811	0.099
113.400	3.696	0.100
113.500	-11.207	0.099
113.600	-8.370	0.099
113.700	-3.429	0.100
113.800	-1.786	0.100
113.900	-8.332	0.100
114.000	-12.628	0.100
114.100	-7.928	0.100
114.200	-19.725	0.100
114.300	-13.438	0.100
114.400	-13.990	0.100
114.500	-5.402	0.100
114.600	-22.672	0.099
114.700	-9.911	0.100
114.800	-21.974	0.100
114.900	1.971	0.100
115.000	-12.850	0.100
115.100	-12.537	0.100
115.200	-4.815	0.100
115.300	-3.828	0.100
115.400	-16.920	0.100
115.500	-21.272	0.099
115.600	-14.579	0.100
115.700	-7.404	0.100
115.800	-6.629	0.100
115.900	-15.111	0.100
116.000	-22.476	0.100
116.100	-13.220	0.100
116.200	-13.521	0.099
116.300	3.893	0.100
116.400	-4.176	0.100
116.500	-14.959	0.099
116.600	-8.187	0.099
116.700	-18.546	0.099
116.800	-12.154	0.100
116.900	-12.109	0.100
117.000	-11.933	0.100
117.100	-10.163	0.099
117.200	-14.666	0.099
117.300	-16.594	0.099
117.400	-13.244	0.100
117.500	-7.670	0.099
117.600	-4.204	0.100
117.700	-8.396	0.100
117.800	-18.399	0.099
117.900	-21.620	0.099
118.000	-13.514	0.099
118.100	-10.407	0.100
118.200	-5.503	0.099
118.300	-12.100	0.100
118.400	-12.347	0.100
118.500	-17.707	0.100
118.600	-19.468	0.100
118.700	-34.926	0.099
118.800	4.179	0.100
118.900	3.505	0.100
119.000	-7.861	0.100
119.100	0.387	0.099
119.200	-2.500	0.099
119.300	-15.617	0.100
119.400	-17.906	0.100
119.500	-27.970	0.099
119.600	-7.945	0.099
119.700	-13.792	0.099
119.800	-5.902	0.099
119.900	-11.914	0.100
120.000	-15.640	0.099
120.100	-18.965	0.100
120.200	-12.257	0.099
120.300	-9.053	0.100
120.400	-10.082	0.099
120.500	-7.104	0.100
120.600	-16.956	0.100
120.700	-16.447	0.100
120.800	-15.141	0.100
120.900	-19.664	0.100
121.000	-12.620	0.100
121.100	-21.614	0.099
121.200	-20.017	0.100
121.300	12.243	0.099
121.400	2.040	0.100
121.500	-14.330	0.100
121.600	-8.374	0.100
121.700	-8.636	0.100
121.800	-25.481	0.100
121.900	1.933	0.100
122.000	-17.280	0.100
122.100	-4.720	0.100
122.200	-15.725	0.100
122.300	-6.720	0.100
122.400	-8.237	0.100
122.500	-8.137	0.100
122.600	5.527	0.100
122.700	-7.659	0.100
122.800	-14.507	0.100
122.900	-16.696	0.100
123.000	-25.062	0.100
123.100	7.931	0.100
123.200	-10.686	0.100
123.300	-18.906	0.100
123.400	-14.070	0.099
123.500	-16.544	0.099
123.600	-24.079	0.099
123.700	-12.898	0.099
123.800	-11.098	0.099
123.900	-11.685	0.099
124.000	-9.929	0.100
124.100	-13.824	0.099
124.200	-7.050	0.099
124.300	-8.333	0.099
124.400	-17.864	0.100
124.500	-6.995	0.099
124.600	-10.234	0.100
124.700	-11.990	0.100
124.800	-14.230	0.099
124.900	-20.223	0.099
125.000	-14.547	0.100
125.100	-7.234	0.100
125.200	-13.933	0.100
125.300	-10.730	0.100
125.400	-27.558	0.099
125.500	-11.426	0.099
125.600	-14.437	0.100
125.700	-15.369	0.099
125.800	-13.048	0.100
125.900	-4.836	0.100
126.000	-3.182	0.100
126.100	-19.542	0.100
126.200	-25.357	0.099
126.300	-3.038	0.099
126.400	-15.083	0.099
126.500	-8.474	0.099
126.600	-13.635	0.099
126.700	-3.912	0.099
126.800	-5.327	0.099
126.900	5.227	0.099
127.000	0.331	0.099
127.100	-9.067	0.099
127.200	-9.260	0.099
127.300	-8.199	0.099
127.400	-7.449	0.099
127.500	-10.709	0.100
127.600	-10.000	0.100
127.700	-14.990	0.099
127.800	-17.792	0.099
127.900	-14.893	0.100
128.000	-10.033	0.100
128.100	-17.312	0.099
128.200	0.414	0.099
128.300	-6.965	0.099
128.400	-16.285	0.099
128.500	-17.538	0.099
128.600	-0.253	0.099
128.700	-10.923	0.100
128.800	-0.394	0.100
128.900	-8.935	0.099
129.000	-9.822	0.100
129.100	-6.271	0.100
129.200	-15.057	0.099
129.300	-0.938	0.099
129.400	-15.596	0.099
129.500	-13.040	0.100
129.600	-5.067	0.099
129.700	-9.311	0.100
129.800	-16.034	0.100
129.900	-6.655	0.099
130.000	-9.448	0.100
130.100	-21.402	0.100
130.200	-13.059	0.100
130.300	-12.974	0.099
130.400	-5.033	0.099
130.500	-13.555	0.099
130.600	-20.035	0.099
130.700	-7.226	0.099
130.800	-12.726	0.100
130.900	-15.983	0.099
131.000	-6.651	0.099
131.100	-7.695	0.099
131.200	-16.828	0.100
131.300	-10.776	0.100
131.400	-10.931	0.099
131.500	-5.441	0.100
131.600	-12.533	0.100
131.700	-13.359	0.100
131.800	-9.242	0.099
131.900	-6.944	0.100
132.000	-20.667	0.100
132.100	-14.141	0.100
132.200	-6.927	0.099
132.300	-28.751	0.099
132.400	-10.631	0.099
132.500	-1.815	0.100
132.600	-3.987	0.099
132.700	10.127	0.100
132.800	-3.294	0.100
132.900	7.187	0.099
133.000	-13.377	0.100
133.100	-2.113	0.100
133.200	-20.177	0.099
133.300	-12.097	0.100
133.400	-3.809	0.100
133.500	-10.258	0.100
133.600	-8.336	0.100
133.700	-7.440	0.100
133.800	-31.811	0.100
133.900	-14.582	0.099
134.000	6.358	0.100
134.100	-11.983	0.100
134.200	-9.021	0.100
134.300	-19.947	0.100
134.400	-7.290	0.100
134.500	0.694	0.099
134.600	-18.601	0.099
134.700	-13.536	0.100
134.800	-5.380	0.100
134.900	-11.369	0.100
135.000	-21.614	0.099
135.100	-6.701	0.099
135.200	-0.885	0.099
135.300	-17.350	0.099
135.400	-17.211	0.099
135.500	-6.976	0.100
135.600	-10.840	0.100
135.700	-14.627	0.100
135.800	-17.798	0.099
135.900	11.284	0.099
136.000	-7.205	0.099
136.100	-10.818	0.100
136.200	1.551	0.100
136.300	-7.041	0.100
136.400	-10.323	0.100
136.500	-13.472	0.099
136.600	-20.926	0.100
136.700	2.401	0.100
136.800	-3.776	0.100
136.900	-1.671	0.099
137.000	-23.688	0.100
137.100	4.456	0.099
137.200	3.086	0.100
137.300	-11.155	0.100
137.400	-15.494	0.100
137.500	-12.139	0.100
137.600	-13.903	0.100
137.700	-2.360	0.100
137.800	-2.922	0.100
137.900	-13.257	0.100
138.000	-9.457	0.099
138.100	-7.345	0.100
138.200	-10.904	0.100
138.300	-17.245	0.100
138.400	-15.807	0.100
138.500	-11.427	0.099
138.600	-8.152	0.100
138.700	-19.799	0.100
138.800	-7.008	0.100
138.900	-11.970	0.100
139.000	0.605	0.100
139.100	-11.262	0.099
139.200	-12.079	0.099
139.300	-5.758	0.099
139.400	0.642	0.099
139.500	-16.617	0.099
139.600	-20.576	0.099
139.700	-3.100	0.099
139.800	-23.735	0.100
139.900	-1.969	0.099
140.000	-14.077	0.099
140.100	0.933	0.099
140.200	-10.298	0.100
140.300	-5.413	0.100
140.400	-9.304	0.099
140.500	-9.901	0.099
140.600	-0.170	0.099
140.700	-8.658	0.100
140.800	-7.144	0.099
140.900	-2.659	0.100
141.000	-1.448	0.099
141.100	-4.546	0.099
141.200	-4.688	0.099
141.300	-8.066	0.099
141.400	-18.534	0.100
141.500	8.682	0.099
141.600	-9.838	0.099
141.700	-15.154	0.099
141.800	-22.240	0.099
141.900	5.075	0.099
142.000	-18.346	0.099
142.100	-8.792	0.099
142.200	12.817	0.099
142.300	1.269	0.100
142.400	-27.609	0.100
142.500	-3.520	0.100
142.600	-14.261	0.100
142.700	-8.785	0.099
142.800	-5.079	0.099
142.900	-17.336	0.099
143.000	-10.433	0.100
143.100	-1.452	0.100
143.200	-6.560	0.100
143.300	-26.657	0.099
143.400	4.051	0.099
143.500	-6.028	0.099
143.600	-3.814	0.100
143.700	-11.489	0.099
143.800	-3.110	0.099
143.900	-11.700	0.099
144.000	-23.238	0.099
144.100	8.077	0.099
144.200	-14.419	0.100
144.300	2.608	0.100
144.400	-14.747	0.099
144.500	-16.740	0.099
144.600	-13.288	0.099
144.700	4.914	0.099
144.800	-3.213	0.099
144.900	0.043	0.099
145.000	11.789	0.099
145.100	-5.899	0.099
145.200	-18.429	0.099
145.300	-0.386	0.100
145.400	6.168	0.100
145.500	-14.264	0.099
145.600	-23.553	0.100
145.700	-6.683	0.099
145.800	-0.376	0.099
145.900	-2.283	0.100
146.000	3.735	0.099
146.100	-8.237	0.100
146.200	3.307	0.100
146.300	-2.336	0.100
146.400	1.011	0.100
146.500	-15.515	0.099
146.600	-0.277	0.099
146.700	-12.869	0.099
146.800	3.398	0.100
146.900	-3.734	0.099
147.000	-1.354	0.100
147.100	-10.033	0.100
147.200	-12.799	0.100
147.300	-14.295	0.099
147.400	-5.641	0.100
147.500	-11.265	0.099
147.600	-16.545	0.100
147.700	-19.212	0.100
147.800	5.758	0.099
147.900	-1.709	0.099
148.000	-1.080	0.099
148.100	-4.140	0.099
148.200	-2.858	0.099
148.300	-7.773	0.099
148.400	-2.446	0.099
148.500	2.177	0.100
148.600	-5.051	0.100
148.700	-8.857	0.100
148.800	-9.538	0.099
148.900	-13.181	0.099
149.000	-17.795	0.100
149.100	-1.611	0.099
149.200	-1.884	0.100
149.300	2.406	0.099
149.400	-0.756	0.099
149.500	-24.778	0.100
149.600	-0.403	0.100
149.700	-7.513	0.100
149.800	-4.817	0.099
149.900	-6.298	0.100
150.000	2.738	0.099
150.100	-19.585	0.100
150.200	-5.921	0.099
150.300	0.193	0.099
150.400	-4.623	0.100
150.500	-0.848	0.099
150.600	-1.419	0.099
150.700	-14.576	0.100
150.800	-6.482	0.099
150.900	-8.826	0.099
151.000	-1.354	0.099
151.100	-7.266	0.100
151.200	-10.521	0.100
151.300	-2.570	0.099
151.400	4.870	0.100
151.500	-10.690	0.100
151.600	-11.285	0.099
151.700	-15.243	0.100
151.800	-1.156	0.100
151.900	-14.031	0.099
152.000	-13.270	0.100
152.100	-9.071	0.099
152.200	-11.839	0.100
152.300	-5.508	0.099
152.400	-6.275	0.099
152.500	-3.765	0.099
152.600	-7.501	0.099
152.700	-15.006	0.100
152.800	-19.495	0.099
152.900	9.561	0.100
153.000	-6.972	0.099
153.100	-6.793	0.099
153.200	4.751	0.100
153.300	1.323	0.100
153.400	-7.014	0.099
153.500	-8.918	0.100
153.600	-2.426	0.100
153.700	-10.226	0.099
153.800	-20.141	0.099
153.900	14.274	0.100
154.000	-17.202	0.100
154.100	-5.176	0.099
154.200	-1.939	0.100
154.300	-4.421	0.099
154.400	-4.537	0.100
154.500	-19.136	0.100
154.600	-42.220	0.099
154.700	1.603	0.099
154.800	1.965	0.099
154.900	3.092	0.100
155.000	-3.059	0.099
155.100	-18.797	0.100
155.200	4.732	0.099
155.300	-0.920	0.099
155.400	-11.733	0.100
155.500	-10.532	0.100
155.600	-7.136	0.099
155.700	-10.647	0.099
155.800	-9.896	0.099
155.900	-5.972	0.099
156.000	-6.583	0.099
156.100	-8.195	0.100
156.200	-13.582	0.100
156.300	8.030	0.099
156.400	-6.461	0.099
156.500	11.131	0.099
156.600	-2.079	0.100
156.700	-17.053	0.099
156.800	-11.988	0.099
156.900	1.842	0.099
157.000	-23.034	0.099
157.100	-4.950	0.099
157.200	-4.774	0.099
157.300	-3.590	0.099
157.400	0.848	0.100
157.500	-7.510	0.099
157.600	-2.594	0.099
157.700	-8.781	0.099
157.800	-15.008	0.100
157.900	-11.956	0.099
158.000	-3.505	0.099
158.100	-5.393	0.099
158.200	-4.375	0.100
158.300	-2.669	0.099
158.400	-1.612	0.099
158.500	-3.667	0.099
158.600	-2.006	0.100
158.700	5.281	0.099
158.800	-15.771	0.099
158.900	-7.457	0.100
159.000	-22.359	0.099
159.100	1.282	0.099
159.200	-19.688	0.099
159.300	9.933	0.099
159.400	-9.992	0.099
159.500	-6.764	0.099
159.600	-8.890	0.100
159.700	-4.787	0.100
159.800	-9.773	0.099
159.900	7.099	0.100
160.000	0.017	0.099
160.100	-10.893	0.100
160.200	12.933	0.100
160.300	-4.238	0.100
160.400	-15.657	0.100
160.500	-16.827	0.099
160.600	1.142	0.100
160.700	13.894	0.100
160.800	-16.117	0.100
160.900	2.546	0.099
161.000	-8.254	0.100
161.100	-11.947	0.100
161.200	-10.151	0.100
161.300	3.243	0.099
161.400	-9.161	0.099
161.500	-3.179	0.099
161.600	-0.872	0.100
161.700	-3.718	0.100
161.800	10.209	0.100
161.900	10.939	0.100
162.000	-14.756	0.100
162.100	-8.660	0.100
162.200	-4.084	0.100
162.300	-14.547	0.100
162.400	-13.141	0.099
162.500	1.868	0.100
162.600	0.200	0.100
162.700	-26.288	0.099
162.800	0.685	0.100
162.900	-2.243	0.100
163.000	-14.777	0.100
163.100	-2.340	0.100
163.200	-3.267	0.099
163.300	2.649	0.100
163.400	-5.775	0.100
163.500	-9.988	0.099
163.600	-12.302	0.100
163.700	10.168	0.100
163.800	3.291	0.100
163.900	-7.472	0.100
164.000	-2.261	0.099
164.100	-25.220	0.099
164.200	0.094	0.099
164.300	6.090	0.100
164.400	4.732	0.099
164.500	0.589	0.099
164.600	-17.776	0.099
164.700	11.376	0.099
164.800	-1.524	0.099
164.900	-23.741	0.099
165.000	12.081	0.100
165.100	12.883	0.099
165.200	-10.450	0.099
165.300	-3.017	0.100
165.400	-10.953	0.100
165.500	-18.590	0.100
165.600	-2.755	0.099
165.700	-13.500	0.099
165.800	-3.949	0.099
165.900	-9.030	0.099
166.000	9.465	0.099
166.100	10.647	0.100
166.200	2.977	0.100
166.300	-27.760	0.099
166.400	4.929	0.100
166.500	-36.990	0.099
166.600	-5.779	0.099
166.700	-6.041	0.099
166.800	-5.622	0.100
166.900	13.126	0.100
167.000	-6.794	0.099
167.100	-6.745	0.099
167.200	-1.822	0.099
167.300	-11.744	0.100
167.400	-8.199	0.100
167.500	-9.537	0.099
167.600	3.816	0.099
167.700	7.026	0.099
167.800	-14.794	0.100
167.900	-13.802	0.099
168.000	-7.201	0.100
168.100	6.798	0.100
168.200	3.783	0.100
168.300	-7.151	0.100
168.400	-23.748	0.100
168.500	-9.565	0.099
168.600	-3.146	0.100
168.700	-1.798	0.099
168.800	10.957	0.099
168.900	5.878	0.100
169.000	-10.718	0.099
169.100	-4.376	0.100
169.200	1.923	0.099
169.300	-22.113	0.099
169.400	-10.982	0.100
169.500	7.441	0.099
169.600	3.156	0.100
169.700	-7.440	0.100
169.800	-13.089	0.100
169.900	-14.724	0.100
170.000	-5.731	0.099
170.100	-7.015	0.099
170.200	5.153	0.100
170.300	3.666	0.099
170.400	-9.223	0.100
170.500	-10.156	0.099
170.600	3.315	0.100
170.700	5.282	0.100
170.800	-12.804	0.100
170.900	1.195	0.099
171.000	-3.349	0.099
171.100	-3.737	0.100
171.200	7.271	0.100
171.300	-3.937	0.099
171.400	-14.920	0.099
171.500	-5.182	0.100
171.600	-3.132	0.099
171.700	-1.823	0.099
171.800	-2.849	0.099
171.900	-11.441	0.099
172.000	1.878	0.100
172.100	-1.296	0.100
172.200	8.915	0.100
172.300	-2.834	0.100
172.400	-9.567	0.100
172.500	-15.639	0.099
172.600	1.064	0.099
172.700	-3.678	0.100
172.800	8.834	0.099
172.900	-0.969	0.100
173.000	-9.990	0.100
173.100	-10.803	0.100
173.200	-3.864	0.100
173.300	-8.989	0.099
173.400	-8.958	0.100
173.500	-2.088	0.100
173.600	7.932	0.100
173.700	1.247	0.100
173.800	-14.575	0.100
173.900	10.040	0.100
174.000	-2.204	0.099
174.100	-6.853	0.100
174.200	-19.229	0.100
174.300	7.654	0.100
174.400	-2.737	0.099
174.500	5.462	0.100
174.600	-4.147	0.100
174.700	-9.061	0.100
174.800	-12.596	0.099
174.900	-4.239	0.099
175.000	-1.857	0.100
175.100	-3.213	0.099
175.200	-8.659	0.099
175.300	6.487	0.099
175.400	1.178	0.100
175.500	-10.615	0.100
175.600	-15.607	0.100
175.700	2.553	0.099
175.800	-11.979	0.100
175.900	-7.909	0.100
176.000	-5.706	0.099
176.100	-1.408	0.100
176.200	12.206	0.100
176.300	3.176	0.100
176.400	-11.089	0.099
176.500	-7.779	0.100
176.600	-7.938	0.100
176.700	-1.929	0.100
176.800	11.770	0.100
176.900	-7.899	0.100
177.000	-2.251	0.100
177.100	-5.464	0.099
177.200	5.551	0.099
177.300	-16.145	0.100
177.400	-13.423	0.099
177.500	7.879	0.100
177.600	-11.827	0.099
177.700	-3.764	0.100
177.800	-5.782	0.100
177.900	-1.545	0.099
178.000	0.404	0.100
178.100	-2.092	0.100
178.200	-4.679	0.099
178.300	0.268	0.099
178.400	-3.583	0.100
178.500	6.213	0.100
178.600	-8.179	0.100
178.700	-8.307	0.099
178.800	-15.250	0.099
178.900	5.134	0.099
179.000	1.736	0.100
179.100	-0.431	0.099
179.200	4.427	0.100
179.300	0.125	0.100
179.400	0.587	0.099
179.500	-3.345	0.099
179.600	-12.950	0.099
179.700	-3.260	0.099
179.800	-9.813	0.100
179.900	0.191	0.099
180.000	-2.609	0.100
180.100	-6.453	0.099
180.200	-6.094	0.099
180.300	10.731	0.100
180.400	5.323	0.100
180.500	5.693	0.100
180.600	6.811	0.099
180.700	16.936	0.100
180.800	0.160	0.100
180.900	6.883	0.099
181.000	10.674	0.099
181.100	18.104	0.100
181.200	12.272	0.099
181.300	4.708	0.100
181.400	5.753	0.099
181.500	31.437	0.099
181.600	25.896	0.100
181.700	17.391	0.100
181.800	36.832	0.100
181.900	26.069	0.100
182.000	22.262	0.100
182.100	21.814	0.099
182.200	17.521	0.099
182.300	27.473	0.100
182.400	20.294	0.099
182.500	33.897	0.100
182.600	20.170	0.100
182.700	30.386	0.099
182.800	43.861	0.099
182.900	35.923	0.100
183.000	21.886	0.100
183.100	17.676	0.099
183.200	32.758	0.100
183.300	26.720	0.100
183.400	38.443	0.099
183.500	23.578	0.100
183.600	21.602	0.100
183.700	12.205	0.099
183.800	20.571	0.099
183.900	23.429	0.100
184.000	15.646	0.100
184.100	40.906	0.100
184.200	34.621	0.100
184.300	33.536	0.100
184.400	21.763	0.100
184.500	31.326	0.100
184.600	36.029	0.100
184.700	24.797	0.100
184.800	25.299	0.100
184.900	17.202	0.099
185.000	30.287	0.100
185.100	23.311	0.099
185.200	30.477	0.100
185.300	21.501	0.100
185.400	25.532	0.100
185.500	20.518	0.100
185.600	26.208	0.099
185.700	15.835	0.100
185.800	27.964	0.099
185.900	26.137	0.099
186.000	31.773	0.100
186.100	28.662	0.100
186.200	28.197	0.099
186.300	20.609	0.100
186.400	25.225	0.100
186.500	20.195	0.099
186.600	34.397	0.100
186.700	32.384	0.099
186.800	18.141	0.100
186.900	26.132	0.100
187.000	6.326	0.100
187.100	21.908	0.099
187.200	40.196	0.100
187.300	23.918	0.100
187.400	23.607	0.100
187.500	40.391	0.100
187.600	38.534	0.099
187.700	31.840	0.099
187.800	39.014	0.100
187.900	23.156	0.099
188.000	34.051	0.100
188.100	42.186	0.099
188.200	34.360	0.099
188.300	29.617	0.099
188.400	27.246	0.099
188.500	52.818	0.100
188.600	20.607	0.100
188.700	14.704	0.099
188.800	36.227	0.099
188.900	38.692	0.100
189.000	28.782	0.100
189.100	31.662	0.099
189.200	37.641	0.100
189.300	35.874	0.100
189.400	24.147	0.099
189.500	29.699	0.099
189.600	35.374	0.100
189.700	34.861	0.100
189.800	31.991	0.100
189.900	31.485	0.099
190.000	30.650	0.099
190.100	36.582	0.100
190.200	28.303	0.100
190.300	6.606	0.099
190.400	29.196	0.100
190.500	41.014	0.099
190.600	47.223	0.099
190.700	39.245	0.100
190.800	21.691	0.099
190.900	28.560	0.099
191.000	31.655	0.099
191.100	30.722	0.099
191.200	38.594	0.099
191.300	32.829	0.099
191.400	30.162	0.099
191.500	35.615	0.099
191.600	42.451	0.099
191.700	51.147	0.100
191.800	34.750	0.099
191.900	33.073	0.099
192.000	33.464	0.099
192.100	48.239	0.099
192.200	32.869	0.099
192.300	38.076	0.099
192.400	31.712	0.099
192.500	28.328	0.100
192.600	43.211	0.099
192.700	52.462	0.099
192.800	42.996	0.099
192.900	41.335	0.099
193.000	19.719	0.100
193.100	38.741	0.099
193.200	34.383	0.100
193.300	40.512	0.100
193.400	20.907	0.099
193.500	32.509	0.099
193.600	19.319	0.100
193.700	41.260	0.099
193.800	33.076	0.099
193.900	52.810	0.099
194.000	46.458	0.099
194.100	20.011	0.099
194.200	39.718	0.099
194.300	25.688	0.100
194.400	47.207	0.099
194.500	32.965	0.099
194.600	39.461	0.099
194.700	34.832	0.099
194.800	32.953	0.100
194.900	36.390	0.099
195.000	36.416	0.100
195.100	44.715	0.100
195.200	37.133	0.099
195.300	49.223	0.099
195.400	46.188	0.099
195.500	31.790	0.099
195.600	47.561	0.099
195.700	16.129	0.099
195.800	54.944	0.099
195.900	44.308	0.099
196.000	39.742	0.099
196.100	28.584	0.099
196.200	25.120	0.099
196.300	21.541	0.099
196.400	27.226	0.099
196.500	43.873	0.099
196.600	45.719	0.099
196.700	42.893	0.099
196.800	43.341	0.099
196.900	24.083	0.099
197.000	43.887	0.099
197.100	39.420	0.099
197.200	39.713	0.099
197.300	53.001	0.099
197.400	21.053	0.099
197.500	27.587	0.099
197.600	58.394	0.099
197.700	50.520	0.099
197.800	35.983	0.099
197.900	41.506	0.099
198.000	49.321	0.099
198.100	44.810	0.099
198.200	44.403	0.099
198.300	39.678	0.099
198.400	28.588	0.099
198.500	52.853	0.099
198.600	49.052	0.099
198.700	46.793	0.099
198.800	46.397	0.099
198.900	30.539	0.099
199.000	43.457	0.099
199.100	32.655	0.099
199.200	34.941	0.099
199.300	47.930	0.099
199.400	35.910	0.099
199.500	42.913	0.100
199.600	49.449	0.099
199.700	39.638	0.100
199.800	35.344	0.099
199.900	40.667	0.099
200.000	54.272	0.099
200.100	46.047	0.099
200.200	35.550	0.099
200.300	41.324	0.099
200.400	41.676	0.099
200.500	31.695	0.099
200.600	37.629	0.099
200.700	55.254	0.099
200.800	26.021	0.099
200.900	55.871	0.099
201.000	46.019	0.099
201.100	41.794	0.099
201.200	22.492	0.099
201.300	34.576	0.099
201.400	48.853	0.099
201.500	31.931	0.099
201.600	53.335	0.099
201.700	44.622	0.099
201.800	19.412	0.099
201.900	33.739	0.099
202.000	37.588	0.099
202.100	44.419	0.099
202.200	43.399	0.099
202.300	35.498	0.099
202.400	45.069	0.099
202.500	39.984	0.099
202.600	54.135	0.099
202.700	42.957	0.099
202.800	37.765	0.099
202.900	43.094	0.099
203.000	41.021	0.099
203.100	49.600	0.099
203.200	36.658	0.099
203.300	43.884	0.099
203.400	43.518	0.099
203.500	52.255	0.099
203.600	50.378	0.099
203.700	28.272	0.099
203.800	57.775	0.099
203.900	43.066	0.099
204.000	47.307	0.099
204.100	38.143	0.099
204.200	47.602	0.099
204.300	37.995	0.099
204.400	56.212	0.099
204.500	49.957	0.099
204.600	51.393	0.099
204.700	40.788	0.099
204.800	38.441	0.099
204.900	38.652	0.099
205.000	50.899	0.099
205.100	29.523	0.099
205.200	42.835	0.099
205.300	51.681	0.099
205.400	31.324	0.099
205.500	37.313	0.099
205.600	42.840	0.099
205.700	46.079	0.099
205.800	41.392	0.099
205.900	51.931	0.099
206.000	33.819	0.099
206.100	37.705	0.099
206.200	30.704	0.099
206.300	51.739	0.099
206.400	34.907	0.099
206.500	59.838	0.099
206.600	40.458	0.099
206.700	39.572	0.099
206.800	43.340	0.099
206.900	35.681	0.099
207.000	62.669	0.099
207.100	40.635	0.099
207.200	35.392	0.099
207.300	45.329	0.099
207.400	44.457	0.099
207.500	39.126	0.099
207.600	48.730	0.099
207.700	44.823	0.099
207.800	55.595	0.099
207.900	36.173	0.099
208.000	43.962	0.099
208.100	44.184	0.099
208.200	20.135	0.099
208.300	45.919	0.099
208.400	46.228	0.099
208.500	46.133	0.099
208.600	43.351	0.099
208.700	51.731	0.099
208.800	53.862	0.099
208.900	37.856	0.099
209.000	33.273	0.099
209.100	38.337	0.099
209.200	49.072	0.099
209.300	42.133	0.099
209.400	36.293	0.099
209.500	31.806	0.099
209.600	39.169	0.099
209.700	41.864	0.099
209.800	39.906	0.099
209.900	24.353	0.099
210.000	44.504	0.099
210.100	40.557	0.099
210.200	39.547	0.099
210.300	44.615	0.099
210.400	26.268	0.099
210.500	35.456	0.099
210.600	49.375	0.099
210.700	46.933	0.099
210.800	49.122	0.099
210.900	49.407	0.099
211.000	41.901	0.099
211.100	33.204	0.099
211.200	35.287	0.099
211.300	60.347	0.099
211.400	36.824	0.099
211.500	32.277	0.099
211.600	55.591	0.099
211.700	30.684	0.099
211.800	39.754	0.099
211.900	50.338	0.099
212.000	30.244	0.099
212.100	46.863	0.099
212.200	45.935	0.099
212.300	43.025	0.099
212.400	45.736	0.099
212.500	32.946	0.099
212.600	45.948	0.099
212.700	45.108	0.099
212.800	45.808	0.099
212.900	49.894	0.099
213.000	40.923	0.099
213.100	55.430	0.099
213.200	31.952	0.099
213.300	55.311	0.099
213.400	42.107	0.099
213.500	50.055	0.099
213.600	34.469	0.099
213.700	54.853	0.099
213.800	41.266	0.099
213.900	49.736	0.099
214.000	45.111	0.099
214.100	53.936	0.099
214.200	43.298	0.099
214.300	42.496	0.099
214.400	52.391	0.099
214.500	44.167	0.099
214.600	37.438	0.099
214.700	33.072	0.099
214.800	43.591	0.099
214.900	36.104	0.099
215.000	29.568	0.099
215.100	39.717	0.099
215.200	35.923	0.099
215.300	47.659	0.099
215.400	61.032	0.099
215.500	41.355	0.099
215.600	36.992	0.099
215.700	51.936	0.099
215.800	42.322	0.099
215.900	28.602	0.099
216.000	55.539	0.099
216.100	26.913	0.099
216.200	29.724	0.099
216.300	54.329	0.099
216.400	54.967	0.099
216.500	57.886	0.099
216.600	43.287	0.099
216.700	50.329	0.099
216.800	42.601	0.099
216.900	28.681	0.099
217.000	25.748	0.099
217.100	45.833	0.099
217.200	31.728	0.099
217.300	25.517	0.099
217.400	42.659	0.099
217.500	52.925	0.099
217.600	43.871	0.099
217.700	36.543	0.099
217.800	33.280	0.099
217.900	47.421	0.099
218.000	45.354	0.099
218.100	29.397	0.099
218.200	30.021	0.099
218.300	54.162	0.099
218.400	49.455	0.099
218.500	47.106	0.099
218.600	39.708	0.099
218.700	42.691	0.099
218.800	43.413	0.099
218.900	58.962	0.099
219.000	33.880	0.099
219.100	39.626	0.099
219.200	47.233	0.099
219.300	52.754	0.099
219.400	32.197	0.099
219.500	58.156	0.099
219.600	38.579	0.099
219.700	44.233	0.099
219.800	44.304	0.099
219.900	41.009	0.099
220.000	43.399	0.099
220.100	54.475	0.099
220.200	41.734	0.099
220.300	41.471	0.099
220.400	43.869	0.099
220.500	54.582	0.099
220.600	46.124	0.099
220.700	47.569	0.099
220.800	40.210	0.099
220.900	45.106	0.099
221.000	33.219	0.099
221.100	29.672	0.099
221.200	47.122	0.099
221.300	42.055	0.099
221.400	42.292	0.099
221.500	31.669	0.099
221.600	49.478	0.099
221.700	51.388	0.099
221.800	40.652	0.099
221.900	50.094	0.099
222.000	38.365	0.099
222.100	45.793	0.099
222.200	39.851	0.099
222.300	42.809	0.099
222.400	41.455	0.099
222.500	48.223	0.099
222.600	48.875	0.099
222.700	32.058	0.099
222.800	36.988	0.099
222.900	31.135	0.099
223.000	39.777	0.099
223.100	42.245	0.099
223.200	43.394	0.099
223.300	48.436	0.099
223.400	48.860	0.099
223.500	39.896	0.099
223.600	34.109	0.099
223.700	39.627	0.099
223.800	51.898	0.099
223.900	45.686	0.099
224.000	46.155	0.099
224.100	43.200	0.099
224.200	31.797	0.099
224.300	39.488	0.099
224.400	43.211	0.099
224.500	29.833	0.099
224.600	60.864	0.099
224.700	48.301	0.099
224.800	54.563	0.099
224.900	39.094	0.099
225.000	38.492	0.099
225.100	41.466	0.099
225.200	36.069	0.099
225.300	42.861	0.099
225.400	38.656	0.099
225.500	41.203	0.099
225.600	35.995	0.099
225.700	49.675	0.099
225.800	42.306	0.099
225.900	35.334	0.099
226.000	32.137	0.099
226.100	30.716	0.099
226.200	38.524	0.099
226.300	61.084	0.099
226.400	56.150	0.099
226.500	45.355	0.099
226.600	43.163	0.099
226.700	46.154	0.099
226.800	37.919	0.099
226.900	35.989	0.099
227.000	46.337	0.099
227.100	30.537	0.099
227.200	52.927	0.099
227.300	44.432	0.099
227.400	35.233	0.099
227.500	46.260	0.099
227.600	34.355	0.099
227.700	38.517	0.099
227.800	58.959	0.099
227.900	44.517	0.099
228.000	39.731	0.099
228.100	38.260	0.099
228.200	23.121	0.099
228.300	47.337	0.099
228.400	33.916	0.099
228.500	39.260	0.099
228.600	46.180	0.099
228.700	31.198	0.099
228.800	54.081	0.099
228.900	45.297	0.099
229.000	36.683	0.099
229.100	38.947	0.099
229.200	38.372	0.099
229.300	39.677	0.099
229.400	33.961	0.099
229.500	45.025	0.099
229.600	24.128	0.099
229.700	49.377	0.099
229.800	37.150	0.099
229.900	32.731	0.099
230.000	56.702	0.099
230.100	34.831	0.099
230.200	51.036	0.099
230.300	48.831	0.099
230.400	35.397	0.099
230.500	44.111	0.099
230.600	51.215	0.099
230.700	41.532	0.099
230.800	36.864	0.099
230.900	46.502	0.099
231.000	39.741	0.099
231.100	28.390	0.099
231.200	30.591	0.099
231.300	43.362	0.099
231.400	41.771	0.099
231.500	42.144	0.099
231.600	50.661	0.099
231.700	27.208	0.099
231.800	42.005	0.099
231.900	46.765	0.099
232.000	37.666	0.099
232.100	38.520	0.099
232.200	47.901	0.099
232.300	49.643	0.099
232.400	49.997	0.099
232.500	48.585	0.099
232.600	50.133	0.099
232.700	40.591	0.099
232.800	43.799	0.099
232.900	35.836	0.099
233.000	53.389	0.099
233.100	40.134	0.099
233.200	46.143	0.099
233.300	41.598	0.099
233.400	47.359	0.099
233.500	31.574	0.099
233.600	53.334	0.099
233.700	59.222	0.099
233.800	39.794	0.099
233.900	25.989	0.099
234.000	40.987	0.099
234.100	39.404	0.099
234.200	40.874	0.099
234.300	33.960	0.099
234.400	28.413	0.099
234.500	32.929	0.099
234.600	53.967	0.099
234.700	42.933	0.099
234.800	45.053	0.099
234.900	59.379	0.099
235.000	38.264	0.099
235.100	41.574	0.099
235.200	46.545	0.099
235.300	25.013	0.099
235.400	48.176	0.099
235.500	45.969	0.099
235.600	36.260	0.099
235.700	42.658	0.099
235.800	48.561	0.099
235.900	53.878	0.099
236.000	52.863	0.099
236.100	31.775	0.099
236.200	39.712	0.099
236.300	39.968	0.099
236.400	50.558	0.099
236.500	35.044	0.099
236.600	31.739	0.099
236.700	49.954	0.099
236.800	37.847	0.099
236.900	38.903	0.099
237.000	37.374	0.099
237.100	42.176	0.099
237.200	32.153	0.099
237.300	48.274	0.099
237.400	38.836	0.099
237.500	42.610	0.099
237.600	28.141	0.099
237.700	33.910	0.099
237.800	50.531	0.099
237.900	37.127	0.099
238.000	39.812	0.099
238.100	44.866	0.099
238.200	48.842	0.099
238.300	53.018	0.099
238.400	39.714	0.099
238.500	31.322	0.099
238.600	49.983	0.099
238.700	50.550	0.099
238.800	41.348	0.099
238.900	26.125	0.099
239.000	25.968	0.099
239.100	45.245	0.099
239.200	52.578	0.099
239.300	49.134	0.099
239.400	34.991	0.099
239.500	38.843	0.099
239.600	38.946	0.099
239.700	43.260	0.099
239.800	45.207	0.099
239.900	50.666	0.099
240.000	43.158	0.099
240.100	41.840	0.099
240.200	43.861	0.099
240.300	32.370	0.099
240.400	34.239	0.099
240.500	29.524	0.099
240.600	40.084	0.099
240.700	43.760	0.099
240.800	28.042	0.099
240.900	36.173	0.099
241.000	26.683	0.099
241.100	30.338	0.099
241.200	24.530	0.099
241.300	23.093	0.099
241.400	14.925	0.099
241.500	21.144	0.099
241.600	28.710	0.099
241.700	18.815	0.099
241.800	16.088	0.099
241.900	13.307	0.099
242.000	8.373	0.099
242.100	15.309	0.099
242.200	-9.887	0.099
242.300	10.594	0.099
242.400	6.484	0.099
242.500	4.722	0.099
242.600	21.284	0.099
242.700	7.245	0.099
242.800	-0.493	0.099
242.900	14.905	0.099
243.000	-6.427	0.099
243.100	8.790	0.099
243.200	-8.550	0.099
243.300	-4.527	0.099
243.400	-2.652	0.099
243.500	1.060	0.099
243.600	18.584	0.099
243.700	9.473	0.099
243.800	2.020	0.099
243.900	7.897	0.099
244.000	-13.167	0.099
244.100	2.904	0.099
244.200	-7.519	0.099
244.300	5.303	0.099
244.400	-1.518	0.099
244.500	-3.619	0.099
244.600	-5.549	0.099
244.700	10.584	0.099
244.800	2.883	0.099
244.900	-2.198	0.099
245.000	-6.571	0.099
245.100	-23.542	0.099
245.200	0.904	0.099
245.300	7.474	0.099
245.400	-7.767	0.099
245.500	-9.648	0.099
245.600	3.854	0.099
245.700	9.267	0.099
245.800	4.632	0.099
245.900	2.720	0.099
246.000	5.723	0.099
246.100	-2.972	0.099
246.200	-13.160	0.099
246.300	2.156	0.099
246.400	-2.790	0.099
246.500	-5.801	0.099
246.600	-11.523	0.099
246.700	5.582	0.099
246.800	-0.979	0.099
246.900	-7.936	0.099
247.000	-5.040	0.099
247.100	-11.189	0.099
247.200	7.516	0.099
247.300	10.223	0.099
247.400	-2.218	0.099
247.500	6.159	0.099
247.600	-9.032	0.099
247.700	-11.706	0.099
247.800	-1.575	0.099
247.900	-0.467	0.099
248.000	-6.443	0.099
248.100	0.296	0.099
248.200	-11.551	0.099
248.300	-28.155	0.099
248.400	-26.875	0.099
248.500	2.810	0.099
248.600	-8.492	0.099
248.700	-6.693	0.099
248.800	-2.441	0.099
248.900	-6.670	0.099
249.000	-2.934	0.099
249.100	1.543	0.099
249.200	-6.994	0.099
249.300	-10.319	0.099
249.400	-1.161	0.099
249.500	5.849	0.099
249.600	-4.212	0.099
249.700	-16.666	0.099
249.800	1.544	0.099
249.900	-10.952	0.099
250.000	9.474	0.099
250.100	-12.534	0.099
250.200	-4.990	0.099
250.300	-19.516	0.099
250.400	9.562	0.099
250.500	-11.053	0.099
250.600	0.601	0.099
250.700	-9.761	0.099
250.800	-16.846	0.099
250.900	-9.449	0.099
251.000	2.388	0.099
251.100	-18.936	0.099
251.200	-7.333	0.099
251.300	-4.907	0.099
251.400	-14.145	0.099
251.500	-12.738	0.099
251.600	-4.367	0.099
251.700	-9.557	0.099
251.800	-17.764	0.099
251.900	-3.092	0.099
252.000	-7.708	0.099
252.100	-18.492	0.099
252.200	0.663	0.099
252.300	-23.824	0.099
252.400	-17.705	0.099
252.500	1.088	0.099
252.600	-6.360	0.099
252.700	-7.341	0.099
252.800	-13.956	0.099
252.900	-22.170	0.099
253.000	-17.866	0.099
253.100	-8.155	0.099
253.200	-15.783	0.099
253.300	-9.410	0.099
253.400	-23.622	0.099
253.500	-1.818	0.099
253.600	-9.897	0.099
253.700	-17.453	0.099
253.800	-12.467	0.099
253.900	-16.333	0.099
254.000	-13.798	0.099
254.100	2.590	0.099
254.200	-3.095	0.099
254.300	-40.034	0.099
254.400	2.752	0.099
254.500	-1.227	0.099
254.600	-23.383	0.099
254.700	-8.715	0.099
254.800	-10.475	0.099
254.900	-11.350	0.099
255.000	-14.686	0.099
255.100	-11.711	0.099
255.200	-14.553	0.099
255.300	-24.306	0.099
255.400	-23.737	0.099
255.500	-3.558	0.099
255.600	-7.364	0.099
255.700	-9.254	0.099
255.800	-18.000	0.099
255.900	-27.706	0.099
256.000	-14.550	0.099
256.100	-6.797	0.099
256.200	-23.521	0.099
256.300	-30.771	0.099
256.400	-11.983	0.099
256.500	-14.175	0.099
256.600	-10.445	0.099
256.700	-19.748	0.099
256.800	-18.342	0.099
256.900	-7.002	0.099
257.000	-18.522	0.099
257.100	-16.985	0.099
257.200	-26.173	0.099
257.300	-15.897	0.099
257.400	-28.046	0.099
257.500	-30.508	0.099
257.600	-6.387	0.099
257.700	-16.560	0.099
257.800	-23.894	0.099
257.900	-22.585	0.099
258.000	-7.750	0.099
258.100	-34.572	0.099
258.200	-10.312	0.099
258.300	-32.840	0.099
258.400	-5.939	0.099
258.500	-8.412	0.099
258.600	-23.436	0.099
258.700	-8.668	0.099
258.800	-19.944	0.099
258.900	-24.300	0.099
259.000	-9.420	0.099
259.100	-19.847	0.099
259.200	-20.882	0.099
259.300	-4.399	0.099
259.400	-6.029	0.099
259.500	-26.333	0.099
259.600	-31.579	0.099
259.700	-14.994	0.099
259.800	-23.939	0.099
259.900	-20.116	0.099
260.000	-18.442	0.099
260.100	-6.373	0.099
260.200	-8.093	0.099
260.300	-21.917	0.099
260.400	-11.222	0.099
260.500	-19.329	0.099
260.600	-16.026	0.099
260.700	-25.746	0.099
260.800	-24.785	0.099
260.900	-11.973	0.099
261.000	-27.270	0.099
261.100	-15.656	0.099
261.200	-27.179	0.099
261.300	-18.344	0.099
261.400	-44.423	0.099
261.500	-3.140	0.099
261.600	-29.937	0.099
261.700	-6.336	0.099
261.800	-21.386	0.099
261.900	-17.266	0.099
262.000	-26.414	0.099
262.100	-27.927	0.099
262.200	-18.294	0.099
262.300	-30.051	0.099
262.400	-10.771	0.099
262.500	-21.670	0.099
262.600	-24.899	0.099
262.700	-25.495	0.099
262.800	-9.442	0.099
262.900	-0.199	0.099
263.000	-23.807	0.099
263.100	-23.183	0.099
263.200	-14.715	0.099
263.300	-30.237	0.099
263.400	-19.772	0.099
263.500	-28.800	0.099
263.600	-20.553	0.099
263.700	-31.992	0.099
263.800	-22.510	0.099
263.900	-18.884	0.099
264.000	-16.414	0.099
264.100	-21.584	0.099
264.200	-28.771	0.099
264.300	-22.190	0.099
264.400	-10.958	0.099
264.500	-11.148	0.099
264.600	-17.525	0.099
264.700	-24.924	0.099
264.800	-19.552	0.099
264.900	-20.201	0.099
265.000	-19.460	0.099
265.100	-21.898	0.099
265.200	-28.528	0.099
265.300	-11.446	0.099
265.400	-21.374	0.099
265.500	-38.677	0.099
265.600	-17.900	0.099
265.700	-16.299	0.099
265.800	-20.840	0.099
265.900	-8.306	0.099
266.000	-18.639	0.099
266.100	-19.189	0.099
266.200	-33.671	0.099
266.300	-19.889	0.099
266.400	-24.940	0.099
266.500	-24.291	0.099
266.600	-16.417	0.099
266.700	-6.508	0.099
266.800	-28.357	0.099
266.900	-29.898	0.099
267.000	-12.213	0.099
267.100	-9.791	0.099
267.200	-12.749	0.099
267.300	-12.135	0.099
267.400	-21.543	0.099
267.500	-14.813	0.099
267.600	-32.881	0.099
267.700	-17.758	0.099
267.800	-15.793	0.099
267.900	-10.191	0.099
268.000	-14.308	0.099
268.100	-30.183	0.099
268.200	-17.063	0.099
268.300	-20.565	0.099
268.400	-23.821	0.099
268.500	-12.523	0.099
268.600	-13.625	0.099
268.700	-31.529	0.099
268.800	-14.980	0.099
268.900	-17.090	0.099
269.000	-2.861	0.099
269.100	-29.108	0.099
269.200	-8.931	0.099
269.300	-13.807	0.099
269.400	-26.429	0.099
269.500	-22.828	0.099
269.600	-26.343	0.099
269.700	-38.896	0.099
269.800	-12.032	0.099
269.900	-14.823	0.099
270.000	-27.849	0.099
270.100	-25.962	0.099
270.200	-14.229	0.099
270.300	-8.963	0.099
270.400	-33.390	0.099
270.500	-22.728	0.099
270.600	-8.181	0.099
270.700	-19.561	0.099
270.800	-15.587	0.099
270.900	-21.657	0.099
271.000	-21.260	0.099
271.100	-13.019	0.099
271.200	-13.945	0.099
271.300	-25.260	0.099
271.400	-6.124	0.099
271.500	-32.089	0.099
271.600	-11.888	0.099
271.700	-28.693	0.099
271.800	-26.308	0.099
271.900	-28.586	0.099
272.000	-30.215	0.099
272.100	-23.478	0.099
272.200	-8.430	0.099
272.300	-37.233	0.099
272.400	-8.104	0.099
272.500	-5.746	0.099
272.600	-25.375	0.099
272.700	-8.118	0.099
272.800	-17.427	0.099
272.900	-14.847	0.099
273.000	-36.734	0.099
273.100	-14.613	0.099
273.200	-9.188	0.099
273.300	-0.690	0.099
273.400	-19.809	0.099
273.500	-26.359	0.099
273.600	-25.545	0.099
273.700	-14.740	0.099
273.800	-12.167	0.099
273.900	-4.034	0.099
274.000	-16.646	0.099
274.100	-35.852	0.099
274.200	-21.635	0.099
274.300	-11.179	0.099
274.400	-28.481	0.099
274.500	-33.247	0.099
274.600	-23.493	0.099
274.700	-21.301	0.099
274.800	-9.177	0.099
274.900	-25.289	0.099
275.000	-18.034	0.099
275.100	-13.331	0.099
275.200	-12.539	0.099
275.300	-22.715	0.099
275.400	-4.642	0.099
275.500	-29.331	0.099
275.600	-12.587	0.099
275.700	-19.233	0.099
275.800	-22.653	0.099
275.900	-14.926	0.099
276.000	-14.238	0.099
276.100	-15.303	0.099
276.200	-15.863	0.099
276.300	-19.932	0.099
276.400	-26.188	0.099
276.500	-42.235	0.099
276.600	-8.867	0.099
276.700	-11.548	0.099
276.800	-27.138	0.099
276.900	-3.731	0.099
277.000	-19.393	0.099
277.100	-7.757	0.099
277.200	-18.147	0.099
277.300	-27.588	0.099
277.400	-25.060	0.099
277.500	-8.863	0.099
277.600	-15.803	0.099
277.700	-12.908	0.099
277.800	-14.438	0.099
277.900	-7.759	0.099
278.000	-28.414	0.099
278.100	-14.136	0.099
278.200	-13.675	0.099
278.300	-12.085	0.099
278.400	-13.356	0.099
278.500	-10.643	0.099
278.600	-30.449	0.099
278.700	-22.687	0.099
278.800	-13.652	0.099
278.900	-23.669	0.099
279.000	-16.541	0.099
279.100	-25.526	0.099
279.200	-27.703	0.099
279.300	-2.039	0.099
279.400	-29.363	0.099
279.500	-20.328	0.099
279.600	-13.884	0.099
279.700	-21.961	0.099
279.800	-38.265	0.099
279.900	-11.931	0.099
280.000	-3.285	0.099
280.100	-19.254	0.099
280.200	-42.551	0.099
280.300	-38.191	0.099
280.400	-5.154	0.100
280.500	-18.694	0.099
280.600	-0.751	0.100
280.700	-17.647	0.100
280.800	-29.091	0.099
280.900	-23.639	0.100
281.000	6.946	0.100
281.100	-11.568	0.100
281.200	-8.625	0.100
281.300	-32.426	0.100
281.400	-11.794	0.100
281.500	-20.225	0.100
281.600	-12.689	0.100
281.700	-21.741	0.099
281.800	-27.383	0.100
281.900	-16.119	0.100
282.000	-14.577	0.100
282.100	-10.284	0.100
282.200	-22.906	0.100
282.300	-2.959	0.100
282.400	-21.293	0.100
282.500	-2.708	0.100
282.600	-19.799	0.100
282.700	-30.487	0.100
282.800	-12.867	0.100
282.900	-9.250	0.100
283.000	-1.937	0.100
283.100	-12.389	0.100
283.200	-20.143	0.100
283.300	-36.318	0.100
283.400	-6.431	0.100
283.500	-2.731	0.100
283.600	-19.200	0.100
283.700	-29.275	0.100
283.800	-8.523	0.100
283.900	-25.178	0.100
284.000	-16.058	0.100
284.100	-26.731	0.100
284.200	-5.254	0.100
284.300	-21.563	0.100
284.400	-8.891	0.100
284.500	-21.848	0.100
284.600	-19.810	0.100
284.700	-16.341	0.100
284.800	-12.615	0.100
284.900	-7.949	0.100
285.000	-14.863	0.100
285.100	-17.339	0.100
285.200	-17.138	0.100
285.300	-11.485	0.100
285.400	-15.003	0.100
285.500	-17.999	0.100
285.600	-11.733	0.100
285.700	-29.145	0.100
285.800	-14.098	0.100
285.900	-12.321	0.100
286.000	-6.433	0.100
286.100	-7.316	0.100
286.200	-6.786	0.100
286.300	-16.748	0.100
286.400	-18.028	0.100
286.500	-7.682	0.100
286.600	-20.592	0.100
286.700	-12.897	0.100
286.800	-9.420	0.100
286.900	-20.309	0.100
287.000	-26.568	0.100
287.100	-6.716	0.100
287.200	-17.407	0.100
287.300	-17.171	0.100
287.400	-7.177	0.100
287.500	-12.666	0.100
287.600	-15.583	0.100
287.700	-16.714	0.100
287.800	-24.600	0.100
287.900	-17.772	0.100
288.000	-6.859	0.100
288.100	-3.247	0.100
288.200	-11.661	0.100
288.300	-10.861	0.100
288.400	-16.582	0.100
288.500	-23.000	0.100
288.600	-17.749	0.100
288.700	-4.966	0.100
288.800	-14.673	0.100
288.900	-1.642	0.100
289.000	-8.626	0.100
289.100	-4.878	0.100
289.200	-8.349	0.100
289.300	-21.080	0.100
289.400	-14.148	0.100
289.500	-13.031	0.100
289.600	-17.606	0.100
289.700	-9.093	0.100
289.800	-6.819	0.100
289.900	-15.724	0.100
290.000	-16.019	0.100
290.100	-21.048	0.100
290.200	-22.256	0.100
290.300	-6.363	0.100
290.400	-3.044	0.100
290.500	-13.450	0.100
290.600	-18.698	0.100
290.700	-18.979	0.100
290.800	-2.777	0.100
290.900	-8.337	0.100
291.000	-29.493	0.100
291.100	-20.007	0.100
291.200	-7.879	0.100
291.300	-8.863	0.100
291.400	-47.066	0.100
291.500	11.061	0.100
291.600	-5.046	0.100
291.700	-9.927	0.100
291.800	-16.793	0.100
291.900	-13.184	0.100
292.000	-20.204	0.100
292.100	-6.676	0.100
292.200	-3.527	0.100
292.300	-5.700	0.100
292.400	-11.824	0.100
292.500	-14.518	0.100
292.600	-13.841	0.100
292.700	-16.620	0.100
292.800	-11.491	0.100
292.900	-4.595	0.100
293.000	-25.219	0.100
293.100	-8.742	0.100
293.200	-4.046	0.100
293.300	-14.120	0.100
293.400	-6.550	0.100
293.500	-7.758	0.100
293.600	-30.081	0.100
293.700	-5.256	0.100
293.800	-16.496	0.100
293.900	-11.433	0.100
294.000	-13.860	0.100
294.100	-15.721	0.100
294.200	-12.323	0.100
294.300	-23.657	0.100
294.400	-10.381	0.100
294.500	-6.265	0.100
294.600	-10.610	0.100
294.700	-8.331	0.100
294.800	-13.042	0.100
294.900	-8.231	0.100
295.000	-14.502	0.100
295.100	-6.000	0.100
295.200	-20.398	0.100
295.300	-13.223	0.100
295.400	-3.653	0.100
295.500	-20.572	0.100
295.600	-22.447	0.100
295.700	7.064	0.100
295.800	-17.577	0.100
295.900	-20.905	0.100
296.000	-23.968	0.100
296.100	-7.173	0.100
296.200	-22.877	0.100
296.300	-4.699	0.100
296.400	-5.788	0.100
296.500	-22.461	0.100
296.600	1.956	0.100
296.700	-8.447	0.100
296.800	-6.101	0.100
296.900	-11.286	0.100
297.000	-24.564	0.100
297.100	-9.957	0.100
297.200	-10.550	0.100
297.300	-18.420	0.100
297.400	-19.910	0.100
297.500	-20.226	0.100
297.600	-0.692	0.100
297.700	-5.607	0.100
297.800	-15.500	0.100
297.900	-16.936	0.100
298.000	-18.824	0.100
298.100	-13.041	0.100
298.200	-8.701	0.100
298.300	2.233	0.100
298.400	-27.257	0.100
298.500	-12.638	0.100
298.600	0.653	0.100
298.700	-23.784	0.100
298.800	-6.868	0.100
298.900	-18.148	0.100
299.000	-11.342	0.100
299.100	-8.585	0.100
299.200	-15.117	0.100
299.300	0.650	0.100
299.400	-10.412	0.100
299.500	-14.375	0.100
299.600	-3.256	0.100
299.700	-8.253	0.100
299.800	-4.817	0.100
299.900	-4.257	0.100
300.000	-3.918	0.100
300.100	-3.516	0.100
300.200	-7.728	0.100
300.300	-11.901	0.100
300.400	-13.052	0.100
300.500	-14.765	0.100
300.600	-11.692	0.100
300.700	-13.908	0.100
300.800	5.974	0.100
300.900	-15.934	0.100
301.000	-18.847	0.100
301.100	-27.389	0.100
301.200	-17.798	0.100
301.300	-26.188	0.100
301.400	-10.320	0.100
301.500	-12.056	0.100
301.600	-4.740	0.100
301.700	-0.284	0.100
301.800	-12.701	0.100
301.900	-13.325	0.100
302.000	-17.575	0.100
302.100	-8.575	0.100
302.200	-12.656	0.100
302.300	-21.681	0.100
302.400	-4.152	0.100
302.500	-6.022	0.100
302.600	-2.197	0.100
302.700	-13.698	0.099
302.800	-1.605	0.099
302.900	5.053	0.099
303.000	-11.992	0.099
303.100	-9.097	0.099
303.200	-13.148	0.099
303.300	-3.946	0.099
303.400	-14.227	0.099
303.500	-7.655	0.099
303.600	-24.188	0.099
303.700	12.203	0.099
303.800	-14.159	0.099
303.900	-14.559	0.099
304.000	-15.562	0.099
304.100	-11.125	0.099
304.200	-6.790	0.099
304.300	-6.834	0.100
304.400	-18.757	0.099
304.500	-14.756	0.099
304.600	-11.963	0.099
304.700	-16.397	0.099
304.800	-0.861	0.099
304.900	6.019	0.099
305.000	-15.180	0.099
305.100	-15.813	0.099
305.200	-11.122	0.099
305.300	-6.189	0.099
305.400	-14.795	0.099
305.500	-11.881	0.099
305.600	-0.531	0.099
305.700	-11.429	0.099
305.800	-5.524	0.099
305.900	-14.582	0.099
306.000	-22.828	0.099
306.100	-11.572	0.099
306.200	-2.344	0.099
306.300	-2.102	0.099
306.400	-9.099	0.099
306.500	-16.367	0.099
306.600	-11.598	0.099
306.700	-27.118	0.099
306.800	-2.916	0.099
306.900	1.993	0.099
307.000	-23.468	0.100
307.100	-16.298	0.099
307.200	-6.782	0.099
307.300	-2.646	0.099
307.400	-1.139	0.099
307.500	1.733	0.099
307.600	-15.813	0.099
307.700	-15.655	0.099
307.800	3.430	0.099
307.900	-0.078	0.099
308.000	-17.096	0.100
308.100	-18.331	0.099
308.200	-16.137	0.099
308.300	-12.928	0.099
308.400	1.968	0.099
308.500	-17.715	0.099
308.600	-13.174	0.099
308.700	-14.469	0.099
308.800	-14.492	0.099
308.900	-5.326	0.099
309.000	-11.974	0.099
309.100	-12.403	0.099
309.200	3.669	0.100
309.300	-6.749	0.099
309.400	-24.262	0.099
309.500	4.084	0.099
309.600	-2.529	0.099
309.700	-2.209	0.100
309.800	-12.164	0.099
309.900	-11.594	0.099
310.000	-2.005	0.099
310.100	-8.129	0.100
310.200	1.296	0.100
310.300	-2.391	0.099
310.400	-15.875	0.099
310.500	-8.848	0.099
310.600	-11.864	0.100
310.700	-20.362	0.099
310.800	-5.057	0.100
310.900	-2.560	0.099
311.000	-22.384	0.099
311.100	-4.580	0.099
311.200	-17.120	0.099
311.300	-14.098	0.099
311.400	7.837	0.100
311.500	-8.434	0.100
311.600	-28.802	0.099
311.700	-5.285	0.099
311.800	-5.414	0.099
311.900	-9.980	0.099
312.000	2.080	0.099
312.100	-0.662	0.099
312.200	1.260	0.099
312.300	-25.789	0.099
312.400	9.697	0.099
312.500	4.553	0.100
312.600	-12.686	0.099
312.700	-1.055	0.099
312.800	-20.092	0.099
312.900	4.755	0.099
313.000	-6.861	0.099
313.100	-6.977	0.099
313.200	-5.826	0.099
313.300	-7.656	0.099
313.400	-7.549	0.099
313.500	-9.478	0.099
313.600	0.093	0.099
313.700	-8.561	0.099
313.800	-16.089	0.099
313.900	-5.370	0.100
314.000	-22.958	0.099
314.100	-12.793	0.099
314.200	-14.252	0.099
314.300	-9.386	0.099
314.400	-10.512	0.099
314.500	0.401	0.099
314.600	-9.822	0.099
314.700	-20.549	0.099
314.800	-8.572	0.099
314.900	7.147	0.099
315.000	-9.184	0.099
315.100	-9.110	0.099
315.200	10.800	0.099
315.300	-6.688	0.099
315.400	-12.678	0.099
315.500	-5.083	0.099
315.600	-6.012	0.099
315.700	-31.460	0.099
315.800	-7.512	0.099
315.900	-13.805	0.099
316.000	-1.634	0.099
316.100	-15.997	0.099
316.200	-1.810	0.099
316.300	-5.444	0.099
316.400	-11.175	0.099
316.500	-7.526	0.099
316.600	4.480	0.099
316.700	-20.780	0.099
316.800	-24.182	0.099
316.900	-10.665	0.099
317.000	-1.062	0.099
317.100	-5.042	0.099
317.200	-4.115	0.099
317.300	5.764	0.099
317.400	-9.882	0.099
317.500	2.674	0.099
317.600	0.807	0.099
317.700	-18.982	0.099
317.800	-27.272	0.099
317.900	-16.628	0.099
318.000	-3.986	0.099
318.100	-11.234	0.099
318.200	-13.377	0.099
318.300	-24.118	0.099
318.400	1.771	0.099
318.500	2.307	0.099
318.600	-9.037	0.099
318.700	-17.836	0.099
318.800	-11.937	0.099
318.900	-1.351	0.099
319.000	-4.153	0.099
319.100	-11.548	0.100
319.200	-2.683	0.099
319.300	-14.417	0.099
319.400	-6.685	0.099
319.500	-7.927	0.099
319.600	-5.532	0.099
319.700	-2.695	0.099
319.800	-10.347	0.099
319.900	-22.521	0.099
320.000	1.377	0.099
320.100	4.134	0.099
320.200	-5.748	0.099
320.300	-12.411	0.099
320.400	-12.554	0.099
320.500	-6.256	0.099
320.600	-10.399	0.099
320.700	-10.217	0.099
320.800	-18.398	0.099
320.900	-13.018	0.099
321.000	-5.480	0.099
321.100	-7.678	0.099
321.200	-14.842	0.099
321.300	-17.696	0.099
321.400	-9.401	0.099
321.500	-8.694	0.099
321.600	-9.022	0.099
321.700	-14.091	0.099
321.800	13.828	0.099
321.900	1.995	0.099
322.000	-9.263	0.099
322.100	-9.550	0.099
322.200	-15.027	0.100
322.300	-13.278	0.099
322.400	-6.735	0.099
322.500	-13.127	0.099
322.600	-27.970	0.099
322.700	-3.289	0.099
322.800	-4.036	0.099
322.900	-11.832	0.099
323.000	-4.813	0.100
323.100	-1.303	0.099
323.200	-10.485	0.099
323.300	-6.473	0.099
323.400	1.001	0.099
323.500	-9.727	0.099
323.600	-2.542	0.099
323.700	-37.745	0.099
323.800	-0.010	0.099
323.900	-13.668	0.100
324.000	3.860	0.099
324.100	-4.739	0.100
324.200	-10.832	0.099
324.300	8.269	0.099
324.400	0.992	0.099
324.500	-12.156	0.100
324.600	-11.655	0.099
324.700	4.909	0.099
324.800	-1.116	0.099
324.900	-2.261	0.099
325.000	-6.417	0.099
325.100	-14.285	0.100
325.200	-13.977	0.100
325.300	-15.107	0.099
325.400	-11.288	0.099
325.500	-15.447	0.099
325.600	-7.313	0.099
325.700	-9.536	0.099
325.800	-6.090	0.099
325.900	-6.006	0.099
326.000	2.700	0.099
326.100	-15.563	0.099
326.200	2.367	0.099
326.300	-13.416	0.099
326.400	-24.374	0.099
326.500	1.666	0.099
326.600	-13.486	0.100
326.700	-4.277	0.099
326.800	-10.504	0.099
326.900	-12.502	0.099
327.000	-3.205	0.099
327.100	-14.286	0.099
327.200	-10.174	0.100
327.300	-19.155	0.099
327.400	-21.226	0.099
327.500	-13.130	0.099
327.600	5.201	0.099
327.700	-21.965	0.099
327.800	-8.678	0.099
327.900	-15.635	0.099
328.000	-33.990	0.099
328.100	0.844	0.099
328.200	-8.832	0.099
328.300	-14.209	0.099
328.400	-2.762	0.099
328.500	-8.327	0.100
328.600	22.763	0.100
328.700	2.935	0.100
328.800	-16.766	0.100
328.900	-7.866	0.099
329.000	-10.362	0.099
329.100	-13.187	0.099
329.200	-14.593	0.099
329.300	-13.581	0.099
329.400	-4.091	0.099
329.500	16.823	0.100
329.600	-7.472	0.100
329.700	-9.855	0.099
329.800	-12.315	0.099
329.900	-0.658	0.099
330.000	0.027	0.099
330.100	-7.255	0.099
330.200	-6.524	0.099
330.300	7.460	0.100
330.400	-3.305	0.099
330.500	-1.081	0.099
330.600	-1.994	0.099
330.700	0.924	0.100
330.800	7.151	0.099
330.900	7.179	0.100
331.000	-1.980	0.100
331.100	11.115	0.100
331.200	22.132	0.100
331.300	6.712	0.100
331.400	6.170	0.099
331.500	20.963	0.100
331.600	10.610	0.100
331.700	-0.560	0.099
331.800	17.489	0.099
331.900	22.271	0.099
332.000	6.082	0.099
332.100	27.078	0.099
332.200	40.192	0.100
332.300	22.415	0.100
332.400	11.135	0.099
332.500	11.504	0.099
332.600	31.227	0.099
332.700	12.819	0.099
332.800	16.337	0.100
332.900	21.460	0.099
333.000	33.196	0.100
333.100	41.054	0.099
333.200	24.815	0.099
333.300	39.919	0.099
333.400	32.573	0.099
333.500	16.012	0.099
333.600	32.141	0.099
333.700	17.825	0.100
333.800	20.400	0.099
333.900	42.851	0.099
334.000	5.218	0.099
334.100	28.668	0.100
334.200	23.060	0.100
334.300	24.609	0.099
334.400	15.768	0.099
334.500	33.125	0.099
334.600	20.559	0.099
334.700	33.910	0.099
334.800	18.735	0.099
334.900	28.284	0.099
335.000	32.071	0.100
335.100	23.182	0.099
335.200	23.721	0.100
335.300	23.868	0.099
335.400	22.634	0.100
335.500	32.609	0.100
335.600	26.277	0.099
335.700	24.952	0.099
335.800	21.598	0.100
335.900	26.085	0.099
336.000	18.529	0.099
336.100	24.741	0.100
336.200	33.158	0.099
336.300	31.886	0.099
336.400	26.599	0.099
336.500	20.376	0.099
336.600	34.252	0.099
336.700	19.589	0.099
336.800	41.373	0.099
336.900	27.670	0.100
337.000	30.616	0.099
337.100	30.965	0.099
337.200	28.905	0.100
337.300	26.390	0.099
337.400	30.917	0.099
337.500	16.663	0.099
337.600	42.460	0.099
337.700	18.025	0.099
337.800	36.603	0.099
337.900	27.293	0.099
338.000	34.985	0.100
338.100	19.888	0.099
338.200	25.792	0.099
338.300	25.567	0.099
338.400	20.524	0.099
338.500	38.994	0.099
338.600	40.554	0.099
338.700	24.200	0.100
338.800	39.493	0.100
338.900	29.118	0.099
339.000	36.306	0.099
339.100	27.400	0.099
339.200	20.516	0.099
339.300	41.454	0.100
339.400	30.735	0.099
339.500	34.173	0.100
339.600	31.710	0.099
339.700	29.657	0.100
339.800	34.682	0.100
339.900	26.706	0.099
340.000	27.450	0.099
340.100	30.911	0.099
340.200	23.860	0.100
340.300	17.526	0.099
340.400	37.097	0.100
340.500	31.893	0.099
340.600	33.735	0.099
340.700	31.037	0.100
340.800	32.713	0.100
340.900	43.502	0.099
341.000	24.356	0.099
341.100	30.912	0.099
341.200	31.762	0.099
341.300	35.246	0.100
341.400	36.305	0.100
341.500	17.010	0.099
341.600	35.754	0.100
341.700	32.194	0.100
341.800	41.430	0.099
341.900	32.669	0.099
342.000	30.357	0.099
342.100	45.278	0.099
342.200	45.245	0.099
342.300	26.957	0.099
342.400	34.254	0.099
342.500	35.485	0.100
342.600	51.993	0.099
342.700	42.369	0.099
342.800	45.849	0.099
342.900	32.848	0.099
343.000	35.816	0.099
343.100	39.593	0.100
343.200	43.606	0.099
343.300	21.390	0.099
343.400	31.944	0.099
343.500	45.673	0.099
343.600	54.497	0.099
343.700	35.957	0.100
343.800	35.964	0.099
343.900	35.288	0.099
344.000	38.584	0.099
344.100	43.236	0.100
344.200	35.506	0.100
344.300	46.402	0.099
344.400	25.604	0.099
344.500	32.067	0.099
344.600	45.894	0.099
344.700	41.333	0.099
344.800	40.616	0.099
344.900	48.871	0.099
345.000	35.548	0.099
345.100	40.930	0.099
345.200	38.640	0.099
345.300	33.505	0.099
345.400	55.934	0.100
345.500	26.845	0.099
345.600	42.243	0.099
345.700	55.277	0.099
345.800	35.698	0.100
345.900	35.148	0.099
346.000	28.779	0.099
346.100	49.625	0.100
346.200	39.765	0.100
346.300	53.077	0.100
346.400	38.581	0.099
346.500	29.036	0.099
346.600	44.651	0.099
346.700	35.628	0.099
346.800	39.591	0.099
346.900	51.118	0.099
347.000	36.140	0.099
347.100	33.576	0.099
347.200	58.859	0.100
347.300	44.220	0.100
347.400	40.475	0.100
347.500	35.933	0.100
347.600	40.516	0.099
347.700	43.120	0.100
347.800	50.435	0.100
347.900	44.531	0.099
348.000	37.938	0.100
348.100	41.771	0.099
348.200	37.439	0.099
348.300	37.709	0.099
348.400	44.609	0.099
348.500	52.710	0.099
348.600	47.307	0.100
348.700	20.212	0.100
348.800	52.167	0.099
348.900	38.837	0.099
349.000	43.588	0.100
349.100	44.233	0.099
349.200	34.602	0.099
349.300	43.336	0.100
349.400	48.936	0.100
349.500	50.465	0.099
349.600	48.110	0.099
349.700	48.122	0.099
349.800	42.402	0.100
349.900	39.818	0.100
350.000	50.944	0.099
350.100	30.722	0.099
350.200	54.592	0.100
350.300	46.486	0.099
350.400	38.829	0.099
350.500	34.661	0.099
350.600	47.860	0.099
350.700	54.818	0.099
350.800	29.284	0.099
350.900	43.628	0.099
351.000	45.818	0.099
351.100	49.494	0.099
351.200	50.878	0.100
351.300	37.419	0.099
351.400	48.550	0.099
351.500	26.677	0.099
351.600	34.694	0.100
351.700	61.076	0.099
351.800	44.281	0.099
351.900	46.461	0.099
352.000	49.769	0.099
352.100	45.424	0.100
352.200	40.796	0.099
352.300	36.808	0.100
352.400	40.261	0.100
352.500	61.765	0.099
352.600	47.896	0.099
352.700	50.924	0.100
352.800	41.278	0.099
352.900	52.502	0.099
353.000	37.773	0.099
353.100	43.950	0.099
353.200	50.296	0.099
353.300	50.411	0.099
353.400	39.525	0.099
353.500	45.942	0.099
353.600	37.836	0.099
353.700	43.590	0.099
353.800	33.377	0.099
353.900	38.700	0.099
354.000	57.974	0.099
354.100	21.258	0.099
354.200	53.186	0.099
354.300	53.856	0.099
354.400	51.254	0.099
354.500	51.698	0.100
354.600	34.060	0.099
354.700	41.394	0.099
354.800	54.350	0.100
354.900	37.715	0.099
355.000	43.659	0.099
355.100	44.889	0.099
355.200	55.431	0.099
355.300	51.012	0.099
355.400	45.822	0.100
355.500	42.033	0.099
355.600	57.022	0.099
355.700	54.811	0.099
355.800	39.989	0.099
355.900	35.085	0.099
356.000	40.882	0.099
356.100	35.593	0.099
356.200	55.692	0.099
356.300	45.776	0.100
356.400	38.994	0.099
356.500	38.805	0.099
356.600	37.435	0.099
356.700	52.017	0.099
356.800	42.469	0.099
356.900	17.833	0.099
357.000	52.305	0.099
357.100	56.185	0.099
357.200	41.943	0.100
357.300	42.701	0.099
357.400	43.458	0.099
357.500	51.595	0.099
357.600	44.669	0.099
357.700	45.911	0.100
357.800	37.730	0.100
357.900	41.288	0.099
358.000	34.035	0.099
358.100	40.795	0.099
358.200	45.541	0.099
358.300	33.099	0.099
358.400	48.213	0.099
358.500	36.338	0.099
358.600	48.913	0.099
358.700	44.617	0.099
358.800	56.305	0.099
358.900	34.907	0.099
359.000	48.656	0.099
359.100	45.563	0.099
359.200	53.407	0.099
359.300	57.896	0.100
359.400	53.357	0.100
359.500	36.556	0.100
359.600	45.563	0.099
359.700	45.974	0.099
359.800	45.490	0.099
359.900	51.611	0.099
360.000	41.997	0.099
360.100	31.485	0.099
360.200	32.775	0.100
360.300	44.787	0.100
360.400	53.612	0.100
360.500	57.809	0.099
360.600	42.416	0.099
360.700	39.280	0.099
360.800	55.345	0.100
360.900	32.286	0.099
361.000	52.003	0.099
361.100	44.960	0.100
361.200	50.411	0.100
361.300	40.912	0.099
361.400	47.811	0.100
361.500	41.792	0.099
361.600	35.791	0.099
361.700	32.585	0.099
361.800	53.431	0.100
361.900	47.463	0.099
362.000	41.839	0.099
362.100	38.458	0.099
362.200	52.282	0.099
362.300	44.926	0.099
362.400	38.759	0.099
362.500	30.112	0.100
362.600	39.915	0.100
362.700	52.628	0.100
362.800	46.836	0.100
362.900	40.003	0.100
363.000	32.149	0.099
363.100	51.560	0.099
363.200	46.457	0.100
363.300	37.487	0.100
363.400	32.967	0.100
363.500	35.243	0.099
363.600	30.842	0.099
363.700	53.060	0.099
363.800	34.093	0.099
363.900	51.394	0.099
364.000	33.661	0.099
364.100	29.667	0.100
364.200	51.149	0.099
364.300	47.820	0.099
364.400	50.511	0.099
364.500	42.562	0.100
364.600	52.685	0.099
364.700	24.765	0.099
364.800	48.580	0.100
364.900	45.741	0.099
365.000	49.535	0.100
365.100	37.751	0.100
365.200	49.774	0.100
365.300	47.459	0.100
365.400	38.429	0.100
365.500	47.641	0.100
365.600	40.752	0.099
365.700	44.366	0.100
365.800	45.366	0.100
365.900	46.047	0.100
366.000	31.994	0.099
366.100	54.805	0.100
366.200	23.674	0.099
366.300	39.715	0.100
366.400	61.123	0.099
366.500	33.596	0.099
366.600	38.533	0.100
366.700	49.535	0.100
366.800	52.418	0.099
366.900	46.232	0.099
367.000	34.247	0.099
367.100	56.600	0.099
367.200	36.627	0.100
367.300	44.167	0.099
367.400	43.396	0.100
367.500	45.104	0.099
367.600	29.309	0.100
367.700	52.872	0.099
367.800	45.048	0.099
367.900	43.415	0.100
368.000	40.654	0.100
368.100	46.551	0.099
368.200	36.053	0.099
368.300	37.603	0.099
368.400	45.552	0.100
368.500	38.609	0.100
368.600	35.788	0.099
368.700	40.234	0.099
368.800	43.347	0.099
368.900	35.285	0.100
369.000	41.898	0.100
369.100	30.007	0.100
369.200	48.329	0.100
369.300	32.408	0.099
369.400	49.184	0.099
369.500	44.557	0.099
369.600	33.648	0.099
369.700	28.127	0.099
369.800	58.428	0.100
369.900	34.056	0.100
370.000	46.236	0.099
370.100	53.584	0.100
370.200	44.037	0.099
370.300	38.183	0.099
370.400	43.898	0.099
370.500	49.578	0.099
370.600	45.460	0.099
370.700	38.570	0.100
370.800	38.770	0.099
370.900	34.966	0.100
371.000	44.179	0.100
371.100	50.658	0.099
371.200	38.731	0.099
371.300	39.049	0.100
371.400	49.493	0.099
371.500	48.416	0.099
371.600	24.595	0.100
371.700	45.565	0.100
371.800	34.016	0.099
371.900	45.897	0.100
372.000	45.410	0.100
372.100	32.243	0.099
372.200	44.639	0.100
372.300	57.039	0.099
372.400	51.636	0.099
372.500	47.860	0.100
372.600	34.746	0.100
372.700	40.844	0.099
372.800	32.621	0.099
372.900	58.326	0.100
373.000	33.990	0.100
373.100	43.312	0.099
373.200	34.935	0.099
373.300	29.891	0.099
373.400	42.979	0.099
373.500	57.562	0.099
373.600	41.998	0.099
373.700	41.766	0.099
373.800	21.688	0.099
373.900	38.474	0.099
374.000	32.324	0.099
374.100	35.829	0.099
374.200	55.415	0.099
374.300	47.393	0.099
374.400	43.778	0.099
374.500	44.931	0.099
374.600	42.293	0.099
374.700	56.626	0.099
374.800	47.818	0.099
374.900	36.650	0.099
375.000	35.872	0.099
375.100	33.985	0.099
375.200	38.408	0.099
375.300	47.986	0.100
375.400	45.309	0.100
375.500	48.404	0.099
375.600	34.925	0.099
375.700	54.875	0.099
375.800	41.531	0.099
375.900	29.716	0.100
376.000	34.836	0.099
376.100	35.084	0.099
376.200	30.680	0.100
376.300	49.539	0.099
376.400	42.096	0.099
376.500	62.235	0.099
376.600	31.473	0.099
376.700	41.983	0.099
376.800	32.920	0.100
376.900	50.182	0.099
377.000	41.377	0.099
377.100	31.784	0.099
377.200	65.124	0.099
377.300	41.595	0.100
377.400	23.596	0.100
377.500	41.520	0.099
377.600	45.946	0.099
377.700	38.437	0.100
377.800	47.334	0.099
377.900	44.291	0.099
378.000	49.184	0.099
378.100	41.171	0.099
378.200	43.372	0.099
378.300	38.229	0.099
378.400	40.181	0.099
378.500	49.422	0.100
378.600	51.258	0.099
378.700	33.516	0.099
378.800	34.660	0.099
378.900	44.959	0.099
379.000	49.460	0.099
379.100	44.517	0.099
379.200	45.018	0.099
379.300	37.006	0.099
379.400	35.016	0.099
379.500	33.599	0.099
379.600	41.461	0.099
379.700	46.409	0.100
379.800	34.539	0.099
379.900	26.462	0.099
380.000	45.302	0.100
380.100	48.523	0.100
380.200	47.648	0.099
380.300	34.814	0.099
380.400	27.639	0.099
380.500	36.761	0.099
380.600	51.777	0.099
380.700	34.247	0.099
380.800	33.948	0.099
380.900	53.354	0.099
381.000	54.915	0.099
381.100	27.999	0.099
381.200	32.612	0.099
381.300	33.098	0.100
381.400	35.588	0.099
381.500	42.783	0.099
381.600	44.680	0.099
381.700	41.391	0.100
381.800	34.327	0.099
381.900	47.911	0.099
382.000	50.085	0.099
382.100	39.416	0.099
382.200	36.458	0.099
382.300	26.964	0.099
382.400	51.161	0.100
382.500	39.676	0.099
382.600	34.265	0.099
382.700	43.761	0.100
382.800	36.385	0.100
382.900	46.311	0.099
383.000	44.940	0.099
383.100	28.363	0.099
383.200	33.999	0.099
383.300	37.389	0.099
383.400	29.272	0.100
383.500	50.943	0.099
383.600	32.622	0.099
383.700	50.409	0.100
383.800	47.069	0.099
383.900	46.073	0.099
384.000	32.857	0.099
384.100	44.650	0.099
384.200	30.261	0.099
384.300	51.613	0.100
384.400	34.144	0.099
384.500	35.608	0.099
384.600	34.772	0.099
384.700	32.664	0.099
384.800	35.339	0.099
384.900	43.337	0.099
385.000	38.598	0.099
385.100	42.391	0.099
385.200	49.131	0.100
385.300	34.604	0.099
385.400	29.552	0.099
385.500	42.425	0.099
385.600	35.802	0.099
385.700	35.259	0.099
385.800	35.748	0.099
385.900	49.642	0.099
386.000	37.402	0.100
386.100	39.870	0.099
386.200	36.616	0.100
386.300	33.549	0.100
386.400	33.219	0.100
386.500	53.707	0.099
386.600	50.568	0.099
386.700	32.710	0.099
386.800	32.878	0.099
386.900	36.874	0.099
387.000	47.743	0.099
387.100	36.578	0.099
387.200	41.377	0.099
387.300	41.167	0.099
387.400	28.948	0.099
387.500	44.594	0.099
387.600	49.683	0.099
387.700	45.014	0.099
387.800	32.665	0.099
387.900	39.327	0.099
388.000	51.850	0.099
388.100	35.927	0.099
388.200	45.583	0.099
388.300	28.416	0.100
388.400	36.598	0.100
388.500	46.852	0.099
388.600	17.340	0.100
388.700	34.905	0.099
388.800	43.981	0.100
388.900	31.301	0.099
389.000	63.220	0.099
389.100	32.740	0.099
389.200	40.553	0.099
389.300	36.782	0.099
389.400	33.490	0.100
389.500	42.456	0.099
389.600	37.497	0.099
389.700	38.953	0.099
389.800	33.733	0.099
389.900	44.184	0.100
390.000	28.032	0.099
390.100	45.041	0.099
390.200	38.086	0.099
390.300	35.737	0.099
390.400	26.117	0.099
390.500	29.817	0.100
390.600	21.157	0.100
390.700	30.218	0.099
390.800	27.169	0.100
390.900	18.927	0.099
391.000	24.443	0.099
391.100	22.155	0.099
391.200	18.139	0.099
391.300	20.672	0.099
391.400	11.535	0.099
391.500	-2.293	0.099
391.600	12.366	0.100
391.700	16.474	0.099
391.800	9.665	0.100
391.900	15.500	0.099
392.000	10.716	0.099
392.100	3.521	0.099
392.200	3.320	0.099
392.300	-4.033	0.099
392.400	10.983	0.099
392.500	8.915	0.099
392.600	4.211	0.100
392.700	-17.150	0.100
392.800	0.805	0.099
392.900	-1.673	0.099
393.000	-4.904	0.100
393.100	13.164	0.099
393.200	-17.512	0.099
393.300	5.451	0.099
393.400	-5.905	0.099
393.500	-3.412	0.100
393.600	7.660	0.099
393.700	-5.160	0.100
393.800	-12.645	0.099
393.900	-18.122	0.099
394.000	-2.658	0.099
394.100	4.786	0.099
394.200	-0.811	0.099
394.300	-10.734	0.100
394.400	-7.613	0.099
394.500	-5.048	0.099
394.600	-9.699	0.099
394.700	-5.120	0.099
394.800	-1.242	0.099
394.900	-9.303	0.099
395.000	-15.111	0.099
395.100	-0.602	0.099
395.200	-2.857	0.099
395.300	3.364	0.099
395.400	-0.908	0.099
395.500	-23.272	0.099
395.600	-6.755	0.099
395.700	-10.514	0.099
395.800	-3.965	0.099
395.900	-9.960	0.099
396.000	-8.528	0.099
396.100	-0.459	0.099
396.200	1.401	0.099
396.300	-7.952	0.099
396.400	-5.403	0.100
396.500	-7.578	0.099
396.600	7.639	0.099
396.700	-5.910	0.099
396.800	-17.501	0.099
396.900	-12.208	0.099
397.000	1.273	0.099
397.100	-21.080	0.099
397.200	-1.520	0.100
397.300	-4.426	0.099
397.400	-6.793	0.099
397.500	-21.226	0.099
397.600	-2.842	0.099
397.700	-22.887	0.099
397.800	5.770	0.099
397.900	1.569	0.099
398.000	-19.314	0.100
398.100	-9.770	0.099
398.200	-14.897	0.099
398.300	-15.417	0.099
398.400	-19.814	0.099
398.500	0.746	0.099
398.600	-8.717	0.099
398.700	-23.028	0.099
398.800	-4.689	0.099
398.900	-13.964	0.099
399.000	-4.192	0.099
399.100	-6.849	0.099
399.200	-5.002	0.099
399.300	-15.532	0.099
399.400	-8.016	0.099
399.500	-4.287	0.099
399.600	-24.836	0.099
399.700	-2.695	0.099
399.800	-13.977	0.099
399.900	-19.666	0.099
400.000	2.945	0.099
400.100	-9.134	0.099
400.200	-3.042	0.099
400.300	-22.057	0.099
400.400	-16.441	0.099
400.500	-5.935	0.099
400.600	-7.721	0.099
400.700	-10.383	0.099
400.800	-6.385	0.099
400.900	-15.415	0.099
401.000	-21.309	0.099
401.100	-20.883	0.099
401.200	-13.616	0.099
401.300	-5.015	0.099
401.400	-4.841	0.099
401.500	-13.115	0.099
401.600	-17.981	0.099
401.700	-16.864	0.099
401.800	-7.770	0.099
401.900	-4.502	0.099
402.000	-16.475	0.099
402.100	-16.864	0.099
402.200	-16.026	0.099
402.300	-22.732	0.099
402.400	-15.621	0.099
402.500	-11.033	0.099
402.600	-17.367	0.099
402.700	-11.005	0.099
402.800	-6.407	0.099
402.900	-3.536	0.099
403.000	-14.294	0.099
403.100	-2.234	0.099
403.200	-36.133	0.099
403.300	-16.619	0.099
403.400	2.911	0.100
403.500	-15.757	0.100
403.600	-30.626	0.099
403.700	-26.336	0.099
403.800	-17.015	0.099
403.900	-11.720	0.099
404.000	-15.714	0.099
404.100	-28.088	0.099
404.200	-7.148	0.099
404.300	-7.738	0.100
404.400	-21.542	0.099
404.500	-17.311	0.099
404.600	-2.883	0.099
404.700	-22.627	0.099
404.800	-6.364	0.099
404.900	-14.781	0.100
405.000	-24.568	0.099
405.100	-22.119	0.099
405.200	-28.198	0.100
405.300	-20.867	0.099
405.400	-18.367	0.099
405.500	-33.392	0.099
405.600	-5.751	0.099
405.700	-20.488	0.099
405.800	-9.373	0.099
405.900	-15.951	0.099
406.000	-14.685	0.100
406.100	-17.564	0.100
406.200	-20.738	0.100
406.300	-26.558	0.099
406.400	-12.083	0.099
406.500	-20.487	0.100
406.600	-19.176	0.099
406.700	-15.116	0.099
406.800	-31.632	0.099
406.900	-26.603	0.099
407.000	-16.988	0.099
407.100	-7.930	0.100
407.200	-22.683	0.099
407.300	-22.131	0.099
407.400	-36.279	0.099
407.500	-21.709	0.099
407.600	-19.621	0.099
407.700	-9.491	0.099
407.800	-17.598	0.099
407.900	-16.296	0.099
408.000	-8.518	0.099
408.100	-13.954	0.100
408.200	-19.977	0.099
408.300	-16.149	0.099
408.400	-30.876	0.099
408.500	-4.289	0.099
408.600	-20.992	0.100
408.700	-37.595	0.099
408.800	-28.846	0.099
408.900	-15.184	0.099
409.000	-20.490	0.099
409.100	-11.366	0.099
409.200	-36.735	0.099
409.300	-11.551	0.099
409.400	-27.842	0.099
409.500	-18.044	0.099
409.600	-19.777	0.099
409.700	-34.795	0.099
409.800	-30.197	0.099
409.900	8.812	0.099
410.000	-22.659	0.099
410.100	-23.711	0.099
410.200	-19.701	0.100
410.300	-31.379	0.100
410.400	-24.624	0.099
410.500	-22.972	0.100
410.600	-36.219	0.099
410.700	-12.852	0.099
410.800	-18.524	0.100
410.900	-10.853	0.099
411.000	-13.747	0.099
411.100	-28.328	0.100
411.200	-20.205	0.099
411.300	-20.043	0.099
411.400	-14.698	0.100
411.500	-28.891	0.099
411.600	-26.763	0.099
411.700	-29.646	0.099
411.800	-28.301	0.099
411.900	-23.493	0.099
412.000	-18.732	0.099
412.100	-19.756	0.099
412.200	-13.725	0.100
412.300	-30.353	0.100
412.400	-35.551	0.099
412.500	-12.818	0.099
412.600	-20.597	0.099
412.700	-17.214	0.099
412.800	-18.878	0.100
412.900	-34.439	0.099
413.000	-16.157	0.099
413.100	-14.026	0.099
413.200	-32.347	0.099
413.300	-22.403	0.099
413.400	-9.043	0.100
413.500	-4.382	0.099
413.600	-28.154	0.099
413.700	-18.646	0.099
413.800	-30.220	0.100
413.900	-23.940	0.100
414.000	-13.362	0.099
414.100	-29.791	0.100
414.200	-11.529	0.099
414.300	-26.639	0.099
414.400	-15.947	0.100
414.500	-18.710	0.100
414.600	-21.328	0.099
414.700	-16.658	0.099
414.800	-31.589	0.099
414.900	-8.141	0.099
415.000	-28.495	0.099
415.100	-21.509	0.100
415.200	-27.399	0.099
415.300	-28.372	0.099
415.400	-13.403	0.099
415.500	-27.204	0.100
415.600	-25.353	0.099
415.700	-13.415	0.100
415.800	-26.383	0.099
415.900	-16.960	0.099
416.000	-10.348	0.099
416.100	-27.958	0.100
416.200	-18.940	0.099
416.300	-40.613	0.099
416.400	-10.132	0.100
416.500	-19.647	0.099
416.600	-24.460	0.100
416.700	-15.520	0.099
416.800	-25.116	0.100
416.900	-18.216	0.099
417.000	-22.077	0.100
417.100	-24.153	0.099
417.200	-31.372	0.100
417.300	-33.801	0.099
417.400	-28.659	0.100
417.500	-14.387	0.099
417.600	-24.239	0.100
417.700	-21.796	0.099
417.800	-20.590	0.099
417.900	-9.139	0.100
418.000	-5.969	0.100
418.100	-32.498	0.100
418.200	-17.892	0.100
418.300	-32.988	0.099
418.400	-2.620	0.099
418.500	-21.259	0.100
418.600	-17.300	0.099
418.700	-5.950	0.099
418.800	-13.816	0.099
418.900	-21.976	0.100
419.000	-2.670	0.099
419.100	-20.821	0.099
419.200	-23.821	0.099
419.300	-29.820	0.099
419.400	-25.449	0.099
419.500	-17.827	0.099
419.600	-32.482	0.099
419.700	-16.694	0.099
419.800	-24.316	0.099
419.900	-25.904	0.099
420.000	-33.794	0.099
420.100	-22.917	0.099
420.200	-22.825	0.100
420.300	-27.213	0.100
420.400	-18.226	0.100
420.500	-20.077	0.099
420.600	-27.875	0.099
420.700	-26.038	0.099
420.800	-29.024	0.099
420.900	-34.281	0.099
421.000	-18.189	0.099
421.100	-10.923	0.100
421.200	-14.663	0.100
421.300	-34.489	0.099
421.400	-24.313	0.099
421.500	-8.130	0.099
421.600	-16.072	0.099
421.700	-17.102	0.099
421.800	-32.294	0.099
421.900	-25.579	0.099
422.000	-18.866	0.099
422.100	-19.513	0.099
422.200	-16.665	0.100
422.300	-18.919	0.099
422.400	-22.916	0.100
422.500	-25.675	0.100
422.600	-14.407	0.099
422.700	-27.373	0.099
422.800	-9.342	0.099
422.900	-22.257	0.099
423.000	-33.973	0.100
423.100	-15.909	0.099
423.200	-21.777	0.100
423.300	-26.390	0.099
423.400	-28.089	0.099
423.500	-25.433	0.100
423.600	-20.417	0.100
423.700	-23.842	0.100
423.800	-16.958	0.100
423.900	-15.423	0.099
424.000	-21.632	0.099
424.100	-33.756	0.099
424.200	-37.284	0.099
424.300	-24.586	0.099
424.400	-14.712	0.099
424.500	-27.193	0.099
424.600	-20.856	0.099
424.700	-28.261	0.099
424.800	-12.897	0.099
424.900	-22.919	0.099
425.000	-19.109	0.099
425.100	-24.130	0.099
425.200	-17.472	0.099
425.300	-19.771	0.099
425.400	-13.891	0.100
425.500	-25.965	0.099
425.600	-25.572	0.099
425.700	-16.133	0.099
425.800	-21.738	0.100
425.900	-20.941	0.099
426.000	-12.275	0.099
426.100	-39.361	0.099
426.200	-14.232	0.099
426.300	-21.621	0.099
426.400	-35.003	0.099
426.500	-37.339	0.099
426.600	-9.521	0.099
426.700	-9.502	0.099
426.800	-28.759	0.099
426.900	-19.390	0.099
427.000	-18.196	0.099
427.100	-27.653	0.099
427.200	-16.601	0.099
427.300	-35.035	0.100
427.400	-21.251	0.099
427.500	-23.398	0.100
427.600	-13.809	0.099
427.700	-20.008	0.099
427.800	-19.366	0.099
427.900	-14.231	0.099
428.000	-8.175	0.099
428.100	-35.623	0.099
428.200	-25.439	0.100
428.300	-10.126	0.099
428.400	-20.559	0.100
428.500	-10.132	0.099
428.600	-53.479	0.100
428.700	-13.956	0.099
428.800	-13.379	0.099
428.900	-25.060	0.099
429.000	-14.522	0.100
429.100	-21.262	0.099
429.200	-24.297	0.099
429.300	-16.055	0.099
429.400	-27.725	0.099
429.500	-19.539	0.099
429.600	-16.188	0.099
429.700	-23.399	0.099
429.800	-24.557	0.099
429.900	-26.695	0.099
430.000	-17.656	0.099
430.100	-20.575	0.099
430.200	-15.357	0.099
430.300	-35.813	0.099
430.400	-28.218	0.099
430.500	-10.130	0.100
430.600	-7.446	0.099
430.700	-5.676	0.099
430.800	-0.757	0.099
430.900	-10.934	0.099
431.000	-23.925	0.099
431.100	-31.406	0.100
431.200	-31.482	0.099
431.300	-23.801	0.099
431.400	-11.914	0.100
431.500	-26.963	0.099
431.600	-20.273	0.099
431.700	-6.482	0.099
431.800	-25.994	0.099
431.900	-33.406	0.099
432.000	-0.721	0.099
432.100	-26.476	0.099
432.200	-11.653	0.099
432.300	-16.102	0.099
432.400	-23.910	0.099
432.500	-9.018	0.099
432.600	-29.639	0.100
432.700	-19.582	0.099
432.800	-22.873	0.099
432.900	-8.841	0.099
433.000	-20.622	0.099
433.100	-37.395	0.099
433.200	-13.206	0.099
433.300	-28.621	0.099
433.400	-15.798	0.099
433.500	-10.979	0.099
433.600	-16.369	0.099
433.700	-18.098	0.099
433.800	-11.840	0.099
433.900	-40.023	0.099
434.000	-15.265	0.099
434.100	-8.511	0.100
434.200	-25.601	0.100
434.300	4.155	0.099
434.400	-24.485	0.099
434.500	-17.853	0.099
434.600	-11.950	0.099
434.700	-18.115	0.099
434.800	-20.305	0.099
434.900	-17.003	0.099
435.000	-14.249	0.100
435.100	-23.055	0.099
435.200	-16.018	0.099
435.300	-9.042	0.099
435.400	-18.859	0.099
435.500	-19.300	0.099
435.600	-26.206	0.099
435.700	-29.772	0.099
435.800	-16.531	0.100
435.900	-15.653	0.099
436.000	-26.541	0.099
436.100	-27.442	0.100
436.200	-5.635	0.099
436.300	-20.868	0.099
436.400	-14.315	0.099
436.500	-19.082	0.099
436.600	-14.574	0.099
436.700	-18.375	0.099
436.800	-14.557	0.099
436.900	-33.174	0.099
437.000	-24.398	0.099
437.100	-7.776	0.099
437.200	-2.343	0.099
437.300	-21.694	0.099
437.400	-13.524	0.099
437.500	-25.563	0.099
437.600	-19.199	0.099
437.700	-14.582	0.099
437.800	-7.642	0.099
437.900	-14.103	0.099
438.000	-34.650	0.099
438.100	-11.228	0.099
438.200	-8.342	0.099
438.300	-21.071	0.099
438.400	-19.513	0.099
438.500	-28.650	0.099
438.600	-10.604	0.099
438.700	-26.044	0.099
438.800	-22.632	0.099
438.900	-3.706	0.099
439.000	-16.899	0.099
439.100	-3.048	0.099
439.200	-19.553	0.099
439.300	-19.948	0.099
439.400	-18.716	0.099
439.500	-26.327	0.099
439.600	-4.895	0.099
439.700	-21.614	0.099
439.800	-15.449	0.099
439.900	-25.837	0.099
440.000	-4.474	0.099
440.100	-17.272	0.099
440.200	-18.135	0.099
440.300	-20.541	0.099
440.400	-16.859	0.099
440.500	-20.608	0.099
440.600	-17.117	0.099
440.700	-7.061	0.099
440.800	-12.761	0.100
440.900	-14.306	0.099
441.000	-13.035	0.099
441.100	-11.441	0.099
441.200	-20.850	0.099
441.300	-32.790	0.099
441.400	-17.860	0.099
441.500	-12.077	0.099
441.600	-12.751	0.099
441.700	-14.128	0.099
441.800	-27.235	0.099
441.900	-5.982	0.099
442.000	-11.490	0.099
442.100	-14.823	0.099
442.200	-26.909	0.099
442.300	-26.442	0.099
442.400	-9.742	0.099
442.500	-9.690	0.099
442.600	-27.219	0.099
442.700	-33.081	0.100
442.800	-23.842	0.099
442.900	-10.464	0.099
443.000	-14.870	0.099
443.100	-18.047	0.099
443.200	-13.869	0.099
443.300	-9.255	0.099
443.400	-27.855	0.099
443.500	-12.781	0.099
443.600	-19.677	0.099
443.700	-18.216	0.099
443.800	4.471	0.099
443.900	-18.981	0.099
444.000	-17.509	0.099
444.100	-8.984	0.100
444.200	-9.152	0.099
444.300	-12.352	0.099
444.400	-29.292	0.099
444.500	-5.930	0.100
444.600	-9.519	0.099
444.700	-5.891	0.099
444.800	-10.699	0.099
444.900	-25.781	0.099
445.000	-15.031	0.099
445.100	-16.294	0.099
445.200	-10.307	0.099
445.300	-31.123	0.099
445.400	-12.289	0.099
445.500	-10.530	0.099
445.600	-12.891	0.099
445.700	-16.156	0.099
445.800	-20.568	0.099
445.900	-23.487	0.100
446.000	-18.565	0.100
446.100	-22.067	0.099
446.200	-5.521	0.099
446.300	5.267	0.099
446.400	-26.272	0.099
446.500	-24.358	0.099
446.600	-10.246	0.099
446.700	-15.726	0.099
446.800	-3.373	0.099
446.900	-10.334	0.099
447.000	-17.587	0.100
447.100	-11.712	0.099
447.200	-12.532	0.100
447.300	-20.158	0.099
447.400	-23.493	0.099
447.500	-0.253	0.099
447.600	-22.241	0.099
447.700	-21.516	0.099
447.800	-11.936	0.099
447.900	-5.975	0.099
448.000	-25.651	0.099
448.100	-23.208	0.100
448.200	-9.812	0.099
448.300	-12.801	0.099
448.400	-6.339	0.100
448.500	-8.437	0.099
448.600	-15.423	0.099
448.700	-15.909	0.099
448.800	-10.876	0.099
448.900	-4.357	0.099
449.000	-21.425	0.099
449.100	-22.425	0.100
449.200	-5.167	0.099
449.300	-27.292	0.099
449.400	-36.522	0.099
449.500	-22.060	0.099
449.600	6.880	0.099
449.700	-6.899	0.099
449.800	-11.310	0.099
449.900	-19.702	0.099
450.000	-11.942	0.099
450.100	-31.305	0.099
450.200	0.815	0.099
450.300	-12.521	0.099
450.400	-12.865	0.099
450.500	-15.448	0.099
450.600	-11.677	0.099
450.700	-30.279	0.100
450.800	-7.066	0.099
450.900	-7.694	0.099
451.000	-13.383	0.099
451.100	-38.230	0.099
451.200	-8.733	0.099
451.300	-5.272	0.099
451.400	-8.129	0.099
451.500	-10.838	0.099
451.600	-20.314	0.099
451.700	-8.352	0.099
451.800	-5.509	0.099
451.900	-11.856	0.099
452.000	-29.494	0.099
452.100	-9.091	0.099
452.200	-6.508	0.099
452.300	-10.224	0.099
452.400	-15.313	0.099
452.500	-15.387	0.099
452.600	-14.953	0.099
452.700	-7.679	0.099
452.800	-23.127	0.099
452.900	-3.146	0.099
453.000	-23.199	0.099
453.100	-24.242	0.099
453.200	11.321	0.099
453.300	-5.696	0.099
453.400	-14.601	0.099
453.500	-9.415	0.099
453.600	-13.351	0.099
453.700	-6.073	0.099
453.800	-21.062	0.100
453.900	-12.058	0.099
454.000	-8.738	0.099
454.100	-10.781	0.099
454.200	-5.359	0.099
454.300	-18.359	0.099
454.400	-9.150	0.099
454.500	-21.341	0.099
454.600	-9.851	0.099
454.700	-6.475	0.099
454.800	-16.954	0.099
454.900	-13.277	0.099
455.000	-21.914	0.100
455.100	-15.503	0.099
455.200	-5.783	0.099
455.300	-10.300	0.099
455.400	-13.906	0.099
455.500	-8.223	0.099
455.600	-0.310	0.099
455.700	-17.658	0.099
455.800	-17.415	0.099
455.900	-30.616	0.099
456.000	-5.427	0.099
456.100	1.947	0.099
456.200	-14.535	0.099
456.300	-5.867	0.099
456.400	-6.647	0.100
456.500	-24.605	0.099
456.600	-18.329	0.099
456.700	-18.936	0.099
456.800	9.502	0.099
456.900	-6.289	0.099
457.000	0.255	0.099
457.100	-16.829	0.099
457.200	-7.928	0.099
457.300	-23.808	0.099
457.400	-19.326	0.099
457.500	7.013	0.099
457.600	4.307	0.099
457.700	-6.104	0.099
457.800	-15.117	0.100
457.900	-19.760	0.099
458.000	-15.638	0.099
458.100	-16.472	0.099
458.200	-11.998	0.099
458.300	-15.318	0.099
458.400	-15.287	0.099
458.500	-13.050	0.099
458.600	-26.375	0.099
458.700	-4.476	0.099
458.800	4.683	0.099
458.900	-9.681	0.099
459.000	-16.769	0.099
459.100	-7.332	0.099
459.200	-1.530	0.099
459.300	-17.342	0.099
459.400	-21.280	0.099
459.500	-10.732	0.099
459.600	-15.805	0.099
459.700	4.056	0.099
459.800	-11.654	0.099
459.900	-18.387	0.099
460.000	-10.443	0.099
460.100	-20.908	0.099
460.200	-14.896	0.099
460.300	-17.376	0.099
460.400	-11.419	0.099
460.500	-11.017	0.100
460.600	-7.746	0.099
460.700	-15.519	0.099
460.800	-19.024	0.099
460.900	-13.471	0.099
461.000	-4.540	0.099
461.100	-13.212	0.099
461.200	-7.830	0.099
461.300	-16.152	0.099
461.400	-3.798	0.100
461.500	-6.890	0.099
461.600	-14.892	0.099
461.700	-13.740	0.099
461.800	-6.487	0.099
461.900	-18.493	0.099
462.000	-2.443	0.099
462.100	-4.872	0.099
462.200	-26.214	0.099
462.300	-1.809	0.099
462.400	-11.374	0.099
462.500	-4.513	0.099
462.600	-6.615	0.099
462.700	-16.953	0.099
462.800	-20.753	0.099
462.900	-12.760	0.099
463.000	3.562	0.099
463.100	-5.772	0.099
463.200	-18.914	0.099
463.300	-10.234	0.099
463.400	-2.288	0.099
463.500	-21.336	0.099
463.600	-14.844	0.099
463.700	-23.916	0.099
463.800	10.934	0.099
463.900	-3.379	0.099
464.000	-8.205	0.099
464.100	-3.990	0.099
464.200	-10.244	0.099
464.300	-24.229	0.099
464.400	-4.619	0.099
464.500	-20.592	0.099
464.600	-11.015	0.099
464.700	-9.854	0.099
464.800	-17.282	0.099
464.900	-8.204	0.099
465.000	0.040	0.099
465.100	-25.933	0.099
465.200	-25.848	0.099
465.300	-9.482	0.099
465.400	-6.361	0.099
465.500	-11.423	0.099
465.600	-10.554	0.100
465.700	-9.638	0.099
465.800	-14.902	0.099
465.900	-31.325	0.099
466.000	3.496	0.099
466.100	3.562	0.099
466.200	-14.553	0.099
466.300	-22.704	0.099
466.400	-0.050	0.099
466.500	-14.127	0.099
466.600	-24.799	0.099
466.700	-1.523	0.099
466.800	-6.446	0.099
466.900	-35.950	0.099
467.000	0.986	0.099
467.100	-9.412	0.100
467.200	-10.009	0.099
467.300	-5.003	0.099
467.400	-12.063	0.099
467.500	-3.892	0.099
467.600	-11.041	0.100
467.700	-9.375	0.099
467.800	-3.987	0.099
467.900	-17.760	0.099
468.000	-1.908	0.099
468.100	-27.526	0.099
468.200	-5.610	0.099
468.300	-9.222	0.099
468.400	-8.922	0.099
468.500	5.919	0.099
468.600	-25.337	0.099
468.700	-14.717	0.099
468.800	-16.820	0.099
468.900	-18.793	0.099
469.000	-13.409	0.099
469.100	-5.637	0.100
469.200	0.953	0.099
469.300	-8.017	0.099
469.400	-23.657	0.099
469.500	6.824	0.099
469.600	-3.112	0.100
469.700	-6.546	0.099
469.800	-7.582	0.099
469.900	-15.364	0.100
470.000	-6.021	0.099
470.100	-22.095	0.099
470.200	-11.557	0.099
470.300	-28.603	0.099
470.400	-13.586	0.099
470.500	-5.184	0.099
470.600	-5.243	0.099
470.700	-13.972	0.099
470.800	-18.960	0.099
470.900	-10.449	0.099
471.000	-20.795	0.099
471.100	-17.623	0.099
471.200	-8.414	0.099
471.300	-8.915	0.099
471.400	-11.260	0.099
471.500	2.945	0.099
471.600	-17.408	0.099
471.700	-11.818	0.099
471.800	0.292	0.099
471.900	-6.828	0.099
472.000	-7.342	0.099
472.100	-8.674	0.099
472.200	-15.590	0.099
472.300	-11.855	0.099
472.400	-4.444	0.099
472.500	-13.826	0.099
472.600	-15.327	0.099
472.700	0.353	0.099
472.800	-11.820	0.099
472.900	-10.027	0.099
473.000	-8.797	0.099
473.100	-13.659	0.099
473.200	-10.402	0.099
473.300	-6.324	0.099
473.400	-19.313	0.099
473.500	-1.917	0.099
473.600	4.701	0.099
473.700	-2.267	0.099
473.800	-11.373	0.099
473.900	2.452	0.099
474.000	-4.027	0.099
474.100	-12.716	0.099
474.200	-14.169	0.100
474.300	-17.872	0.099
474.400	-9.065	0.099
474.500	-31.934	0.099
474.600	-4.022	0.099
474.700	10.747	0.100
474.800	-22.031	0.099
474.900	-3.810	0.099
475.000	-13.665	0.099
475.100	1.814	0.099
475.200	-14.947	0.099
475.300	-3.804	0.099
475.400	6.664	0.099
475.500	-23.878	0.099
475.600	-13.986	0.099
475.700	4.105	0.099
475.800	-6.786	0.099
475.900	-14.727	0.099
476.000	-3.984	0.099
476.100	-15.346	0.099
476.200	-11.497	0.099
476.300	-16.779	0.099
476.400	-5.529	0.099
476.500	-7.606	0.099
476.600	-13.266	0.100
476.700	-23.966	0.099
476.800	-17.655	0.099
476.900	-4.378	0.099
477.000	-4.635	0.099
477.100	-1.650	0.099
477.200	-28.684	0.099
477.300	-6.778	0.100
477.400	-17.299	0.099
477.500	-14.216	0.099
477.600	-1.227	0.099
477.700	-12.961	0.099
477.800	-7.275	0.100
477.900	-13.115	0.100
478.000	-8.479	0.099
478.100	-23.785	0.099
478.200	4.917	0.100
478.300	-16.706	0.099
478.400	3.819	0.099
478.500	-3.309	0.099
478.600	-15.175	0.099
478.700	-17.028	0.100
478.800	-23.471	0.100
478.900	-3.120	0.100
479.000	3.266	0.100
479.100	1.668	0.099
479.200	-10.204	0.099
479.300	-6.613	0.099
479.400	-18.819	0.099
479.500	-7.068	0.100
479.600	-13.616	0.099
479.700	-13.956	0.099
479.800	-5.294	0.099
479.900	5.501	0.099
480.000	-18.035	0.099
480.100	-24.768	0.099
480.200	-17.099	0.099
480.300	-20.675	0.099
480.400	-6.230	0.099
480.500	-12.430	0.099
480.600	9.424	0.099
480.700	-1.743	0.099
480.800	0.625	0.100
480.900	8.457	0.099
481.000	9.675	0.099
481.100	12.958	0.099
481.200	4.816	0.099
481.300	10.195	0.099
481.400	1.470	0.099
481.500	19.310	0.099
481.600	16.447	0.099
481.700	25.525	0.099
481.800	24.488	0.099
481.900	18.988	0.100
482.000	36.202	0.099
482.100	18.426	0.099
482.200	25.986	0.099
482.300	28.822	0.099
482.400	18.843	0.099
482.500	22.627	0.099
482.600	7.913	0.099
482.700	19.899	0.099
482.800	17.906	0.099
482.900	44.138	0.099
483.000	28.777	0.100
483.100	33.660	0.099
483.200	22.779	0.099
483.300	12.182	0.099
483.400	23.763	0.100
483.500	34.816	0.099
483.600	29.472	0.099
483.700	23.009	0.099
483.800	24.830	0.099
483.900	26.093	0.099
484.000	32.645	0.100
484.100	13.087	0.099
484.200	24.104	0.099
484.300	10.647	0.099
484.400	21.171	0.099
484.500	20.466	0.099
484.600	26.748	0.099
484.700	14.400	0.099
484.800	28.326	0.099
484.900	49.476	0.099
485.000	13.056	0.099
485.100	30.461	0.099
485.200	30.540	0.099
485.300	7.632	0.099
485.400	28.811	0.099
485.500	18.814	0.099
485.600	31.344	0.099
485.700	39.926	0.099
485.800	9.689	0.099
485.900	15.301	0.099
486.000	36.898	0.099
486.100	33.211	0.099
486.200	29.840	0.100
486.300	18.149	0.099
486.400	14.327	0.099
486.500	29.833	0.099
486.600	20.738	0.099
486.700	20.767	0.099
486.800	20.103	0.099
486.900	26.538	0.099
487.000	30.639	0.099
487.100	26.184	0.099
487.200	41.042	0.099
487.300	16.628	0.100
487.400	30.768	0.099
487.500	24.950	0.099
487.600	33.752	0.099
487.700	31.537	0.099
487.800	23.963	0.099
487.900	39.822	0.100
488.000	22.663	0.099
488.100	37.993	0.099
488.200	34.282	0.099
488.300	10.626	0.099
488.400	26.356	0.099
488.500	21.099	0.099
488.600	29.495	0.100
488.700	20.825	0.099
488.800	29.178	0.100
488.900	26.177	0.099
489.000	23.677	0.100
489.100	39.872	0.099
489.200	15.901	0.099
489.300	26.187	0.099
489.400	42.374	0.099
489.500	35.580	0.099
489.600	33.723	0.099
489.700	35.093	0.099
489.800	21.853	0.099
489.900	21.260	0.099
490.000	28.614	0.099
490.100	43.038	0.099
490.200	36.871	0.099
490.300	28.164	0.099
490.400	37.306	0.099
490.500	26.863	0.099
490.600	27.535	0.100
490.700	34.768	0.099
490.800	35.974	0.100
490.900	20.095	0.100
491.000	42.210	0.099
491.100	37.259	0.099
491.200	33.299	0.099
491.300	24.263	0.099
491.400	38.310	0.099
491.500	30.119	0.100
491.600	42.996	0.099
491.700	43.908	0.100
491.800	23.113	0.099
491.900	43.032	0.099
492.000	24.203	0.099
492.100	28.030	0.099
492.200	43.757	0.099
492.300	36.262	0.100
492.400	39.682	0.099
492.500	41.440	0.099
492.600	40.327	0.100
492.700	45.568	0.099
492.800	34.101	0.099
492.900	38.937	0.099
493.000	30.159	0.099
493.100	25.507	0.099
493.200	41.499	0.100
493.300	32.222	0.099
493.400	33.383	0.099
493.500	44.676	0.099
493.600	45.377	0.099
493.700	39.540	0.099
493.800	26.292	0.099
493.900	29.300	0.099
494.000	43.249	0.099
494.100	35.019	0.099
494.200	47.907	0.099
494.300	25.551	0.099
494.400	40.981	0.099
494.500	41.546	0.100
494.600	39.670	0.099
494.700	36.263	0.099
494.800	33.129	0.099
494.900	30.259	0.099
495.000	47.735	0.099
495.100	30.063	0.099
495.200	52.499	0.099
495.300	29.260	0.099
495.400	37.364	0.099
495.500	42.950	0.099
495.600	59.087	0.099
495.700	37.971	0.099
495.800	24.452	0.099
495.900	63.718	0.099
496.000	26.810	0.099
496.100	57.663	0.099
496.200	41.177	0.099
496.300	50.127	0.100
496.400	32.266	0.099
496.500	41.914	0.099
496.600	46.782	0.100
496.700	32.830	0.100
496.800	47.155	0.100
496.900	50.150	0.099
497.000	29.305	0.099
497.100	41.294	0.099
497.200	55.904	0.099
497.300	54.461	0.099
497.400	33.368	0.099
497.500	45.788	0.099
497.600	41.466	0.099
497.700	31.829	0.099
497.800	53.417	0.099
497.900	44.146	0.099
498.000	45.248	0.099
498.100	50.945	0.099
498.200	31.151	0.099
498.300	46.263	0.100
498.400	44.098	0.099
498.500	49.887	0.099
498.600	51.078	0.099
498.700	51.001	0.100
498.800	51.615	0.099
498.900	45.047	0.100
499.000	37.721	0.099
499.100	49.561	0.099
499.200	35.671	0.099
499.300	44.443	0.100
499.400	39.891	0.099
499.500	35.455	0.099
499.600	44.698	0.099
499.700	42.523	0.099
499.800	43.409	0.099
499.900	29.692	0.099
500.000	47.272	0.099
500.100	22.305	0.099
500.200	48.488	0.099
500.300	48.242	0.099
500.400	45.002	0.099
500.500	31.525	0.099
500.600	40.475	0.099
500.700	50.018	0.099
500.800	53.866	0.100
500.900	52.345	0.099
501.000	36.256	0.099
501.100	44.827	0.099
501.200	42.671	0.099
501.300	37.940	0.099
501.400	39.706	0.099
501.500	56.841	0.099
501.600	44.183	0.099
501.700	45.253	0.099
501.800	55.367	0.099
501.900	48.924	0.099
502.000	44.606	0.099
502.100	60.516	0.099
502.200	39.846	0.100
502.300	40.714	0.099
502.400	34.849	0.099
502.500	46.936	0.099
502.600	46.433	0.100
502.700	47.940	0.099
502.800	44.978	0.100
502.900	28.105	0.099
503.000	60.017	0.099
503.100	49.614	0.099
503.200	39.592	0.099
503.300	35.190	0.099
503.400	42.069	0.099
503.500	40.721	0.099
503.600	48.170	0.099
503.700	48.670	0.099
503.800	46.814	0.099
503.900	52.544	0.099
504.000	35.557	0.099
504.100	49.633	0.099
504.200	53.186	0.099
504.300	53.968	0.099
504.400	52.423	0.099
504.500	26.200	0.099
504.600	28.003	0.099
504.700	41.281	0.099
504.800	58.223	0.099
504.900	54.108	0.099
505.000	45.432	0.099
505.100	44.103	0.099
505.200	43.153	0.099
505.300	47.247	0.099
505.400	45.185	0.099
505.500	53.349	0.099
505.600	39.450	0.099
505.700	45.187	0.099
505.800	26.149	0.099
505.900	43.642	0.099
506.000	43.730	0.099
506.100	51.392	0.099
506.200	44.845	0.099
506.300	42.907	0.099
506.400	30.866	0.100
506.500	52.098	0.099
506.600	37.349	0.100
506.700	46.686	0.099
506.800	55.703	0.099
506.900	44.539	0.099
507.000	39.010	0.099
507.100	45.697	0.099
507.200	47.957	0.100
507.300	36.391	0.099
507.400	43.617	0.099
507.500	44.118	0.100
507.600	52.471	0.099
507.700	48.808	0.100
507.800	43.209	0.099
507.900	33.003	0.099
508.000	38.574	0.099
508.100	43.916	0.099
508.200	49.148	0.099
508.300	30.024	0.099
508.400	36.142	0.099
508.500	58.908	0.099
508.600	44.522	0.099
508.700	41.686	0.099
508.800	55.364	0.099
508.900	39.922	0.099
509.000	21.874	0.099
509.100	49.614	0.099
509.200	38.618	0.100
509.300	38.415	0.099
509.400	33.988	0.099
509.500	45.760	0.099
509.600	51.515	0.099
509.700	39.969	0.099
509.800	48.905	0.099
509.900	37.191	0.100
510.000	30.168	0.100
510.100	52.297	0.099
510.200	40.733	0.099
510.300	62.801	0.099
510.400	41.607	0.099
510.500	35.311	0.099
510.600	44.656	0.099
510.700	55.332	0.099
510.800	42.554	0.099
510.900	29.441	0.099
511.000	48.014	0.099
511.100	43.534	0.099
511.200	51.246	0.099
511.300	37.020	0.099
511.400	27.182	0.100
511.500	53.712	0.099
511.600	46.243	0.100
511.700	35.376	0.099
511.800	50.589	0.099
511.900	47.616	0.100
512.000	35.813	0.099
512.100	42.250	0.099
512.200	28.914	0.099
512.300	50.649	0.099
512.400	46.000	0.100
512.500	43.355	0.099
512.600	42.760	0.099
512.700	51.477	0.099
512.800	42.563	0.099
512.900	50.565	0.099
513.000	54.557	0.099
513.100	31.505	0.099
513.200	41.989	0.099
513.300	41.080	0.100
513.400	45.534	0.099
513.500	42.828	0.099
513.600	41.563	0.099
513.700	37.912	0.100
513.800	42.966	0.100
513.900	32.286	0.099
514.000	45.747	0.100
514.100	40.740	0.099
514.200	45.622	0.099
514.300	37.133	0.100
514.400	58.095	0.099
514.500	52.992	0.099
514.600	37.664	0.099
514.700	54.691	0.099
514.800	45.185	0.099
514.900	38.565	0.099
515.000	28.943	0.099
515.100	44.015	0.099
515.200	37.196	0.099
515.300	49.955	0.100
515.400	61.517	0.100
515.500	35.024	0.099
515.600	31.028	0.099
515.700	37.086	0.099
515.800	39.228	0.099
515.900	42.913	0.100
516.000	41.278	0.099
516.100	32.047	0.100
516.200	49.267	0.099
516.300	45.456	0.099
516.400	53.927	0.100
516.500	59.213	0.099
516.600	37.310	0.099
516.700	26.673	0.100
516.800	27.042	0.099
516.900	37.145	0.099
517.000	35.598	0.099
517.100	69.123	0.099
517.200	41.512	0.100
517.300	44.170	0.100
517.400	47.622	0.099
517.500	35.006	0.099
517.600	39.859	0.099
517.700	43.199	0.099
517.800	57.828	0.099
517.900	34.928	0.099
518.000	35.806	0.099
518.100	60.248	0.099
518.200	29.640	0.099
518.300	32.693	0.099
518.400	51.345	0.099
518.500	27.267	0.100
518.600	39.365	0.099
518.700	44.667	0.099
518.800	46.737	0.099
518.900	32.146	0.099
519.000	47.756	0.099
519.100	43.041	0.099
519.200	33.348	0.099
519.300	20.580	0.099
519.400	41.281	0.100
519.500	41.959	0.099
519.600	30.322	0.099
519.700	53.434	0.099
519.800	42.907	0.099
519.900	31.442	0.099
520.000	29.431	0.099
520.100	53.565	0.099
520.200	45.617	0.099
520.300	32.980	0.099
520.400	20.668	0.099
520.500	39.591	0.099
520.600	39.897	0.099
520.700	37.715	0.099
520.800	37.221	0.099
520.900	51.207	0.099
521.000	38.282	0.099
521.100	41.402	0.099
521.200	34.794	0.099
521.300	43.181	0.099
521.400	40.023	0.099
521.500	43.470	0.099
521.600	39.324	0.099
521.700	45.466	0.099
521.800	42.276	0.099
521.900	48.203	0.099
522.000	53.957	0.099
522.100	43.740	0.099
522.200	38.022	0.100
522.300	32.734	0.099
522.400	49.300	0.099
522.500	35.405	0.099
522.600	42.850	0.099
522.700	33.517	0.099
522.800	37.183	0.099
522.900	24.686	0.099
523.000	59.672	0.099
523.100	42.096	0.099
523.200	35.564	0.099
523.300	32.923	0.099
523.400	50.459	0.099
523.500	34.701	0.099
523.600	28.468	0.099
523.700	37.240	0.099
523.800	45.293	0.099
523.900	37.194	0.099
524.000	34.301	0.099
524.100	43.380	0.099
524.200	41.915	0.099
524.300	49.555	0.099
524.400	42.363	0.099
524.500	35.930	0.099
524.600	39.131	0.099
524.700	45.936	0.099
524.800	27.058	0.099
524.900	31.197	0.100
525.000	42.554	0.099
525.100	43.514	0.099
525.200	47.138	0.099
525.300	39.749	0.099
525.400	23.223	0.099
525.500	39.501	0.099
525.600	35.515	0.099
525.700	44.667	0.099
525.800	44.174	0.099
525.900	39.407	0.099
526.000	40.789	0.099
526.100	13.762	0.099
526.200	41.933	0.099
526.300	48.836	0.099
526.400	43.105	0.099
526.500	33.931	0.099
526.600	37.903	0.099
526.700	38.773	0.099
526.800	38.106	0.099
526.900	35.825	0.099
527.000	58.122	0.099
527.100	37.589	0.099
527.200	38.286	0.099
527.300	31.141	0.099
527.400	38.755	0.099
527.500	39.028	0.099
527.600	43.498	0.099
527.700	33.107	0.099
527.800	31.606	0.099
527.900	34.831	0.099
528.000	41.095	0.099
528.100	38.639	0.099
528.200	41.498	0.099
528.300	32.344	0.100
528.400	52.378	0.100
528.500	23.649	0.100
528.600	39.944	0.099
528.700	32.869	0.099
528.800	40.051	0.099
528.900	25.557	0.099
529.000	68.030	0.099
529.100	31.777	0.099
529.200	51.349	0.099
529.300	24.547	0.099
529.400	36.732	0.099
529.500	38.290	0.099
529.600	37.685	0.099
529.700	39.276	0.099
529.800	43.280	0.099
529.900	31.289	0.099
530.000	29.587	0.099
530.100	43.306	0.099
530.200	40.957	0.099
530.300	31.303	0.099
530.400	23.428	0.099
530.500	37.087	0.099
530.600	43.507	0.099
530.700	43.030	0.099
530.800	49.012	0.099
530.900	52.602	0.099
531.000	52.280	0.099
531.100	36.329	0.099
531.200	44.621	0.099
531.300	26.284	0.099
531.400	33.054	0.099
531.500	33.426	0.099
531.600	30.251	0.100
531.700	41.773	0.099
531.800	33.729	0.099
531.900	32.132	0.099
532.000	51.309	0.099
532.100	35.179	0.099
532.200	44.283	0.099
532.300	30.220	0.099
532.400	40.736	0.099
532.500	57.797	0.099
532.600	47.038	0.099
532.700	33.336	0.099
532.800	30.144	0.099
532.900	32.774	0.100
533.000	52.395	0.099
533.100	46.467	0.100
533.200	34.509	0.100
533.300	40.963	0.099
533.400	36.462	0.100
533.500	36.063	0.099
533.600	16.814	0.099
533.700	51.126	0.099
533.800	41.453	0.099
533.900	41.489	0.099
534.000	32.615	0.099
534.100	39.754	0.099
534.200	36.757	0.099
534.300	17.617	0.099
534.400	49.764	0.100
534.500	34.720	0.099
534.600	38.149	0.099
534.700	44.592	0.099
534.800	41.122	0.100
534.900	39.231	0.100
535.000	33.569	0.099
535.100	42.101	0.099
535.200	37.814	0.099
535.300	34.878	0.099
535.400	36.346	0.099
535.500	41.061	0.100
535.600	42.067	0.099
535.700	35.294	0.099
535.800	42.743	0.099
535.900	39.198	0.099
536.000	14.962	0.099
536.100	37.926	0.099
536.200	43.995	0.100
536.300	36.249	0.099
536.400	31.139	0.099
536.500	35.202	0.099
536.600	31.452	0.099
536.700	36.431	0.099
536.800	44.186	0.099
536.900	36.857	0.099
537.000	33.497	0.099
537.100	41.102	0.100
537.200	48.245	0.099
537.300	39.284	0.099
537.400	29.258	0.100
537.500	51.268	0.100
537.600	38.725	0.099
537.700	35.672	0.100
537.800	44.658	0.100
537.900	35.606	0.100
538.000	32.276	0.100
538.100	28.258	0.099
538.200	53.142	0.100
538.300	28.338	0.099
538.400	27.101	0.100
538.500	30.690	0.099
538.600	40.950	0.100
538.700	44.862	0.100
538.800	18.012	0.099
538.900	38.794	0.099
539.000	51.172	0.100
539.100	52.252	0.099
539.200	23.141	0.099
539.300	38.612	0.100
539.400	30.096	0.099
539.500	51.229	0.099
539.600	37.794	0.100
539.700	45.581	0.099
539.800	46.155	0.099
539.900	46.013	0.100
540.000	32.619	0.100
540.100	38.472	0.099
540.200	50.681	0.099
540.300	21.221	0.099
540.400	44.061	0.100
540.500	26.564	0.099
540.600	23.424	0.099
540.700	30.222	0.100
540.800	34.274	0.099
540.900	23.352	0.099
541.000	15.593	0.099
541.100	12.556	0.099
541.200	9.452	0.100
541.300	-0.659	0.099
541.400	3.949	0.099
541.500	7.790	0.099
541.600	6.673	0.100
541.700	18.460	0.099
541.800	3.929	0.099
541.900	11.977	0.099
542.000	13.274	0.100
542.100	-1.456	0.099
542.200	-1.057	0.099
542.300	-6.910	0.100
542.400	2.161	0.099
542.500	-9.855	0.099
542.600	-7.454	0.099
542.700	1.770	0.099
542.800	-4.425	0.100
542.900	-0.183	0.099
543.000	-17.448	0.100
543.100	3.733	0.100
543.200	-11.833	0.100
543.300	-10.191	0.100
543.400	-5.718	0.100
543.500	-13.908	0.099
543.600	-9.347	0.100
543.700	-14.542	0.099
543.800	-9.216	0.099
543.900	-14.005	0.099
544.000	-14.833	0.100
544.100	-17.891	0.099
544.200	-12.897	0.099
544.300	-2.058	0.100
544.400	-19.224	0.099
544.500	-11.368	0.100
544.600	-14.221	0.099
544.700	-15.490	0.099
544.800	-1.305	0.099
544.900	-10.353	0.099
545.000	-10.939	0.099
545.100	-26.064	0.099
545.200	-0.943	0.100
545.300	-16.793	0.100
545.400	-4.189	0.099
545.500	-11.240	0.100
545.600	-7.296	0.099
545.700	-26.671	0.100
545.800	-8.389	0.100
545.900	1.761	0.099
546.000	-19.404	0.100
546.100	-22.814	0.099
546.200	-13.992	0.100
546.300	-8.178	0.100
546.400	-10.781	0.100
546.500	-15.912	0.099
546.600	-31.534	0.099
546.700	-17.658	0.099
546.800	-2.312	0.099
546.900	-11.748	0.099
547.000	-21.439	0.100
547.100	-16.249	0.099
547.200	-25.069	0.099
547.300	-12.780	0.100
547.400	-16.890	0.099
547.500	-5.687	0.099
547.600	-12.885	0.099
547.700	-19.268	0.100
547.800	-33.961	0.099
547.900	-4.093	0.099
548.000	-13.586	0.100
548.100	-13.422	0.099
548.200	-32.722	0.099
548.300	12.340	0.099
548.400	-11.381	0.099
548.500	-19.076	0.099
548.600	-11.872	0.099
548.700	-9.272	0.099
548.800	-11.866	0.099
548.900	-16.428	0.099
549.000	-7.781	0.099
549.100	-15.104	0.100
549.200	-3.165	0.099
549.300	-26.893	0.099
549.400	-27.513	0.100
549.500	-27.244	0.099
549.600	-7.852	0.099
549.700	-11.982	0.099
549.800	-7.007	0.099
549.900	-14.628	0.099
550.000	-20.243	0.099
550.100	-17.896	0.099
550.200	-20.288	0.099
550.300	-14.201	0.099
550.400	-7.271	0.099
550.500	-22.016	0.099
550.600	-10.084	0.099
550.700	-13.279	0.099
550.800	-18.125	0.099
550.900	-15.420	0.099
551.000	-2.260	0.099
551.100	-14.901	0.099
551.200	-10.124	0.100
551.300	-12.571	0.099
551.400	-15.265	0.099
551.500	-20.931	0.099
551.600	-13.051	0.099
551.700	-15.676	0.099
551.800	-28.229	0.099
551.900	-8.278	0.099
552.000	-7.936	0.099
552.100	-5.828	0.099
552.200	-31.004	0.099
552.300	-22.173	0.099
552.400	-14.397	0.099
552.500	-10.052	0.099
552.600	-34.019	0.099
552.700	-23.770	0.099
552.800	-12.648	0.099
552.900	-15.222	0.099
553.000	-11.123	0.100
553.100	-11.649	0.100
553.200	-1.549	0.100
553.300	-11.536	0.099
553.400	-15.844	0.099
553.500	-41.402	0.099
553.600	-25.277	0.099
553.700	-23.122	0.099
553.800	-29.517	0.099
553.900	-8.472	0.099
554.000	-20.449	0.099
554.100	-22.802	0.099
554.200	-17.601	0.099
554.300	-14.625	0.099
554.400	-7.792	0.099
554.500	-10.267	0.099
554.600	-30.699	0.099
554.700	-14.568	0.099
554.800	-35.955	0.099
554.900	-19.117	0.100
555.000	-11.043	0.100
555.100	-26.710	0.100
555.200	-27.411	0.099
555.300	-11.603	0.100
555.400	-19.084	0.099
555.500	-30.041	0.099
555.600	-8.724	0.100
555.700	-39.024	0.099
555.800	-14.040	0.099
555.900	-13.676	0.099
556.000	-8.422	0.099
556.100	-15.335	0.099
556.200	-31.730	0.099
556.300	-24.616	0.099
556.400	-25.158	0.100
556.500	-8.205	0.099
556.600	-23.162	0.099
556.700	-15.999	0.099
556.800	-33.007	0.099
556.900	-16.458	0.100
557.000	-26.630	0.099
557.100	-15.379	0.099
557.200	-22.549	0.099
557.300	-18.834	0.100
557.400	-22.209	0.100
557.500	-27.310	0.100
557.600	-19.562	0.099
557.700	-11.598	0.099
557.800	-28.344	0.099
557.900	-21.430	0.099
558.000	-24.758	0.099
558.100	-26.448	0.099
558.200	-18.434	0.099
558.300	-25.289	0.099
558.400	-18.826	0.099
558.500	-17.211	0.099
558.600	-42.451	0.099
558.700	-33.482	0.099
558.800	-3.237	0.100
558.900	-22.441	0.099
559.000	-29.852	0.099
559.100	-26.131	0.099
559.200	-25.825	0.100
559.300	-18.676	0.099
559.400	-35.096	0.100
559.500	-16.317	0.099
559.600	-29.323	0.099
559.700	-34.846	0.099
559.800	-26.209	0.099
559.900	-20.578	0.100
560.000	-17.743	0.099
560.100	-19.751	0.099
560.200	-10.610	0.099
560.300	-11.599	0.100
560.400	-31.130	0.099
560.500	-31.757	0.100
560.600	-18.194	0.099
560.700	-20.117	0.100
560.800	-32.214	0.100
560.900	-24.446	0.099
561.000	-29.545	0.100
561.100	-17.929	0.100
561.200	-26.415	0.099
561.300	-30.439	0.099
561.400	-21.768	0.099
561.500	-22.378	0.100
561.600	-19.807	0.100
561.700	-21.306	0.100
561.800	-19.193	0.099
561.900	-33.359	0.099
562.000	-18.105	0.100
562.100	-31.385	0.100
562.200	-14.749	0.099
562.300	-25.239	0.100
562.400	-28.970	0.099
562.500	-22.490	0.100
562.600	-10.888	0.099
562.700	-26.188	0.100
562.800	-31.567	0.099
562.900	-22.609	0.099
563.000	-45.436	0.099
563.100	-23.278	0.099
563.200	-22.653	0.099
563.300	-19.378	0.099
563.400	-29.119	0.099
563.500	-31.257	0.099
563.600	-17.082	0.099
563.700	-27.443	0.099
563.800	-40.600	0.099
563.900	-41.740	0.099
564.000	-28.485	0.100
564.100	-27.528	0.100
564.200	-22.074	0.100
564.300	-17.174	0.100
564.400	-12.529	0.100
564.500	-32.419	0.099
564.600	-26.967	0.100
564.700	-24.352	0.100
564.800	-21.243	0.099
564.900	-8.284	0.099
565.000	-32.722	0.099
565.100	-20.966	0.100
565.200	-25.954	0.100
565.300	-38.774	0.099
565.400	-23.518	0.100
565.500	-41.620	0.099
565.600	-13.717	0.099
565.700	-25.140	0.100
565.800	-30.686	0.099
565.900	-20.097	0.099
566.000	-26.141	0.099
566.100	-32.290	0.099
566.200	-16.465	0.099
566.300	-20.652	0.099
566.400	-24.443	0.099
566.500	-11.882	0.100
566.600	-41.334	0.099
566.700	-26.651	0.099
566.800	-12.544	0.099
566.900	-15.910	0.099
567.000	-27.527	0.099
567.100	-20.980	0.099
567.200	-25.343	0.099
567.300	-25.682	0.099
567.400	-25.142	0.100
567.500	-8.908	0.099
567.600	-26.796	0.100
567.700	-21.764	0.099
567.800	-20.906	0.100
567.900	-28.047	0.100
568.000	-23.001	0.099
568.100	-24.069	0.099
568.200	-6.394	0.100
568.300	-39.579	0.099
568.400	-21.845	0.100
568.500	-28.805	0.099
568.600	-29.027	0.100
568.700	-27.066	0.099
568.800	-24.675	0.099
568.900	-23.675	0.100
569.000	-42.666	0.099
569.100	-16.678	0.099
569.200	-19.252	0.099
569.300	-27.632	0.100
569.400	-40.133	0.099
569.500	-21.712	0.099
569.600	-41.584	0.099
569.700	-15.684	0.100
569.800	-19.537	0.099
569.900	-33.289	0.099
570.000	-15.869	0.100
570.100	-12.673	0.099
570.200	-23.710	0.100
570.300	-26.461	0.100
570.400	-22.387	0.100
570.500	-32.111	0.099
570.600	-13.855	0.099
570.700	-35.855	0.100
570.800	-12.257	0.100
570.900	-19.783	0.099
571.000	-32.995	0.100
571.100	-24.207	0.099
571.200	-13.047	0.099
571.300	-35.503	0.099
571.400	-22.626	0.099
571.500	-10.532	0.100
571.600	-21.736	0.100
571.700	-31.899	0.100
571.800	-28.612	0.099
571.900	-29.741	0.099
572.000	-30.769	0.099
572.100	-14.588	0.099
572.200	-37.537	0.100
572.300	-9.962	0.100
572.400	-29.249	0.099
572.500	-16.088	0.099
572.600	-31.139	0.100
572.700	-19.178	0.099
572.800	-11.260	0.100
572.900	-23.404	0.099
573.000	-26.691	0.099
573.100	-30.303	0.099
573.200	-34.291	0.099
573.300	-21.803	0.099
573.400	-40.962	0.099
573.500	-22.671	0.099
573.600	-13.653	0.099
573.700	-18.647	0.099
573.800	-38.135	0.099
573.900	-29.639	0.099
574.000	-31.231	0.099
574.100	-21.137	0.099
574.200	-19.927	0.099
574.300	-8.524	0.099
574.400	-31.400	0.099
574.500	-31.543	0.100
574.600	-20.025	0.099
574.700	-33.620	0.099
574.800	-25.000	0.100
574.900	-9.763	0.100
575.000	-18.130	0.099
575.100	-30.707	0.099
575.200	-19.923	0.099
575.300	-19.845	0.099
575.400	-24.144	0.099
575.500	-28.206	0.099
575.600	-14.031	0.099
575.700	-20.326	0.099
575.800	-23.535	0.099
575.900	-30.000	0.099
576.000	-17.086	0.099
576.100	-17.871	0.100
576.200	-16.535	0.099
576.300	-21.771	0.099
576.400	-34.064	0.100
576.500	-24.221	0.099
576.600	-32.886	0.099
576.700	-28.342	0.099
576.800	-11.457	0.100
576.900	-25.652	0.099
577.000	-36.231	0.100
577.100	-31.652	0.099
577.200	-24.133	0.099
577.300	-23.489	0.099
577.400	-20.333	0.099
577.500	-27.248	0.099
577.600	-15.380	0.100
577.700	-16.697	0.099
577.800	-27.219	0.099
577.900	-39.297	0.099
578.000	-9.238	0.099
578.100	-22.359	0.099
578.200	-14.709	0.100
578.300	-21.448	0.100
578.400	-22.216	0.100
578.500	-34.181	0.099
578.600	-11.536	0.099
578.700	-22.419	0.099
578.800	-33.271	0.099
578.900	-11.017	0.099
579.000	-17.443	0.099
579.100	-15.472	0.100
579.200	-20.505	0.099
579.300	-23.186	0.100
579.400	-31.008	0.100
579.500	-21.992	0.100
579.600	-34.313	0.099
579.700	-23.546	0.099
579.800	-25.487	0.100
579.900	-3.586	0.099
580.000	-18.685	0.099
580.100	-27.105	0.099
580.200	-19.857	0.099
580.300	-18.198	0.099
580.400	-19.322	0.100
580.500	-14.208	0.099
580.600	-23.313	0.100
580.700	-34.180	0.099
580.800	-24.900	0.099
580.900	-21.167	0.099
581.000	-14.797	0.099
581.100	-21.932	0.100
581.200	-18.864	0.100
581.300	-25.580	0.100
581.400	-27.261	0.099
581.500	-21.496	0.099
581.600	-23.323	0.099
581.700	-7.529	0.100
581.800	-5.598	0.099
581.900	-29.290	0.100
582.000	-25.182	0.099
582.100	-27.174	0.099
582.200	-19.569	0.099
582.300	-9.319	0.099
582.400	-17.992	0.099
582.500	-23.170	0.099
582.600	-22.722	0.100
582.700	-17.919	0.099
582.800	-20.126	0.099
582.900	-10.787	0.099
583.000	-28.931	0.099
583.100	-39.790	0.099
583.200	-31.582	0.099
583.300	-14.584	0.099
583.400	-14.035	0.100
583.500	-29.713	0.100
583.600	-29.833	0.099
583.700	-9.888	0.100
583.800	-10.496	0.099
583.900	-22.157	0.100
584.000	-31.600	0.099
584.100	-25.253	0.099
584.200	-8.622	0.099
584.300	-13.981	0.099
584.400	-20.787	0.099
584.500	-19.682	0.099
584.600	-11.187	0.099
584.700	-29.174	0.099
584.800	-27.314	0.099
584.900	-32.914	0.099
585.000	-13.704	0.099
585.100	-17.715	0.100
585.200	-20.723	0.099
585.300	-22.125	0.100
585.400	-16.809	0.099
585.500	-22.307	0.099
585.600	-18.958	0.100
585.700	-24.301	0.100
585.800	-30.136	0.099
585.900	-13.799	0.100
586.000	-19.877	0.099
586.100	-24.220	0.099
586.200	-21.499	0.099
586.300	-31.935	0.100
586.400	-15.556	0.100
586.500	-38.063	0.099
586.600	-28.415	0.099
586.700	-6.160	0.100
586.800	-11.832	0.099
586.900	-12.489	0.099
587.000	-17.173	0.099
587.100	-18.366	0.099
587.200	-20.234	0.099
587.300	-18.492	0.099
587.400	-10.866	0.099
587.500	-16.066	0.100
587.600	-18.572	0.099
587.700	-36.057	0.099
587.800	-11.536	0.099
587.900	-26.660	0.099
588.000	-20.290	0.099
588.100	-17.841	0.100
588.200	-17.936	0.099
588.300	-21.378	0.100
588.400	-24.960	0.099
588.500	-20.429	0.099
588.600	-9.599	0.100
588.700	-18.995	0.100
588.800	-27.452	0.099
588.900	-12.605	0.100
589.000	-17.055	0.100
589.100	-18.276	0.100
589.200	-16.280	0.099
589.300	-29.397	0.100
589.400	-17.685	0.100
589.500	-23.174	0.100
589.600	-7.490	0.099
589.700	-31.089	0.100
589.800	-9.212	0.100
589.900	-20.420	0.100
590.000	-15.331	0.100
590.100	-24.853	0.100
590.200	-21.794	0.100
590.300	-16.564	0.100
590.400	-23.467	0.100
590.500	-39.930	0.100
590.600	-15.868	0.100
590.700	-8.899	0.100
590.800	-17.688	0.100
590.900	-34.527	0.100
591.000	-7.281	0.100
591.100	-16.355	0.100
591.200	-30.079	0.100
591.300	-22.266	0.100
591.400	-29.354	0.100
591.500	-20.878	0.100
591.600	-14.780	0.100
591.700	-21.709	0.099
591.800	-20.138	0.099
591.900	-15.383	0.100
592.000	-25.389	0.100
592.100	-20.948	0.099
592.200	-0.642	0.100
592.300	-34.849	0.099
592.400	-21.834	0.099
592.500	-12.744	0.100
592.600	-11.453	0.100
592.700	-21.860	0.100
592.800	-26.042	0.100
592.900	-11.646	0.099
593.000	-9.924	0.099
593.100	-19.108	0.100
593.200	-33.693	0.100
593.300	-18.395	0.100
593.400	-12.261	0.099
593.500	-31.137	0.100
593.600	-19.209	0.100
593.700	-16.110	0.099
593.800	-9.161	0.100
593.900	-15.118	0.100
594.000	-20.940	0.099
594.100	-15.212	0.099
594.200	-17.683	0.099
594.300	-23.489	0.100
594.400	-8.622	0.100
594.500	-25.279	0.099
594.600	-22.331	0.100
594.700	-13.992	0.100
594.800	-6.172	0.099
594.900	-20.881	0.099
595.000	-14.656	0.099
595.100	-19.249	0.100
595.200	-21.734	0.100
595.300	-17.666	0.100
595.400	-23.512	0.099
595.500	-26.319	0.099
595.600	-4.987	0.100
595.700	-3.327	0.100
595.800	-25.754	0.099
595.900	-3.925	0.099
596.000	-15.569	0.099
596.100	-4.452	0.099
596.200	-32.967	0.099
596.300	-31.151	0.100
596.400	-4.800	0.099
596.500	-30.985	0.099
596.600	-19.700	0.099
596.700	-2.690	0.099
596.800	-4.299	0.099
596.900	-18.039	0.100
597.000	-30.161	0.099
597.100	-7.364	0.099
597.200	-18.121	0.099
597.300	-31.295	0.100
597.400	-15.496	0.099
597.500	-9.034	0.099
597.600	-21.401	0.099
597.700	-3.060	0.100
597.800	-12.407	0.100
597.900	-22.184	0.099
598.000	-12.553	0.099
598.100	-29.080	0.099
598.200	-18.211	0.100
598.300	-18.846	0.100
598.400	-20.876	0.099
598.500	-35.313	0.099
598.600	-11.072	0.100
598.700	-8.297	0.099
598.800	-13.962	0.099
598.900	-27.126	0.099
599.000	-14.605	0.099
599.100	-17.586	0.100
599.200	-24.431	0.099
599.300	-19.476	0.099
599.400	-6.142	0.099
599.500	-7.469	0.099
599.600	-24.119	0.100
599.700	-20.714	0.100
599.800	-9.508	0.100
599.900	-33.268	0.099
600.000	-10.628	0.099
600.100	-13.280	0.099
600.200	-6.309	0.100
600.300	-20.112	0.099
600.400	-18.365	0.099
600.500	-8.754	0.100
600.600	-29.675	0.100
600.700	-8.582	0.099
600.800	10.955	0.100
600.900	-28.701	0.100
601.000	-22.648	0.099
601.100	-2.139	0.099
601.200	-24.625	0.100
601.300	-5.948	0.099
601.400	-17.213	0.100
601.500	-1.878	0.099
601.600	-12.884	0.100
601.700	-21.403	0.099
601.800	-1.859	0.100
601.900	-16.618	0.099
602.000	-33.966	0.099
602.100	-17.795	0.099
602.200	-11.542	0.100
602.300	-9.938	0.099
602.400	-4.638	0.099
602.500	-11.988	0.100
602.600	-17.788	0.100
602.700	-22.518	0.100
602.800	-1.656	0.099
602.900	-23.419	0.100
603.000	-11.704	0.099
603.100	-9.110	0.099
603.200	-20.772	0.099
603.300	-18.128	0.099
603.400	-16.175	0.099
603.500	-8.254	0.099
603.600	-10.894	0.100
603.700	-3.304	0.099
603.800	-9.748	0.099
603.900	-23.452	0.099
604.000	-19.622	0.099
604.100	-15.899	0.099
604.200	4.633	0.099
604.300	-4.767	0.099
604.400	-17.818	0.099
604.500	-22.871	0.099
604.600	-22.491	0.099
604.700	-15.740	0.099
604.800	-12.880	0.099
604.900	-25.657	0.099
605.000	-19.745	0.099
605.100	-13.549	0.100
605.200	-28.324	0.100
605.300	-11.517	0.099
605.400	-7.891	0.099
605.500	-5.717	0.100
605.600	-10.764	0.099
605.700	-7.007	0.099
605.800	-18.075	0.100
605.900	-9.463	0.099
606.000	-14.106	0.099
606.100	-25.901	0.099
606.200	-28.501	0.099
606.300	-15.590	0.100
606.400	-12.953	0.099
606.500	-6.124	0.099
606.600	-14.743	0.100
606.700	-1.926	0.099
606.800	-17.086	0.099
606.900	-25.474	0.100
607.000	-3.897	0.099
607.100	-16.093	0.099
607.200	-9.387	0.099
607.300	-33.335	0.100
607.400	-21.537	0.099
607.500	-21.920	0.099
607.600	-4.037	0.099
607.700	-19.167	0.099
607.800	-24.371	0.099
607.900	-20.941	0.100
608.000	-7.703	0.099
608.100	-3.572	0.100
608.200	-28.773	0.099
608.300	-10.945	0.100
608.400	-2.314	0.100
608.500	-16.020	0.100
608.600	-6.425	0.099
608.700	-24.088	0.099
608.800	-21.041	0.100
608.900	-14.611	0.099
609.000	-20.872	0.099
609.100	-17.436	0.100
609.200	-11.105	0.099
609.300	-25.782	0.099
609.400	-14.682	0.099
609.500	-9.774	0.099
609.600	-12.209	0.099
609.700	-27.422	0.099
609.800	-11.702	0.100
609.900	-14.197	0.099
610.000	-12.600	0.099
610.100	6.551	0.100
610.200	-24.212	0.099
610.300	-30.763	0.099
610.400	-17.499	0.099
610.500	-11.726	0.099
610.600	-15.011	0.099
610.700	-15.266	0.100
610.800	-13.867	0.099
610.900	-3.531	0.099
611.000	-10.873	0.099
611.100	-16.288	0.099
611.200	-14.917	0.100
611.300	-16.492	0.099
611.400	-23.328	0.099
611.500	-15.004	0.100
611.600	-12.259	0.100
611.700	-22.727	0.099
611.800	-7.732	0.100
611.900	-7.533	0.099
612.000	-4.331	0.100
612.100	-14.255	0.099
612.200	-18.442	0.099
612.300	-13.461	0.100
612.400	-20.704	0.099
612.500	-4.962	0.100
612.600	-24.004	0.099
612.700	-15.092	0.100
612.800	-15.577	0.099
612.900	-6.023	0.100
613.000	-19.728	0.100
613.100	-8.345	0.100
613.200	-25.471	0.100
613.300	6.197	0.100
613.400	-4.918	0.100
613.500	-3.216	0.100
613.600	-12.520	0.100
613.700	-30.301	0.100
613.800	-11.860	0.099
613.900	-5.508	0.100
614.000	-14.707	0.100
614.100	-14.793	0.100
614.200	-20.037	0.100
614.300	-9.612	0.100
614.400	-17.481	0.100
614.500	-15.017	0.100
614.600	-11.842	0.099
614.700	-1.970	0.100
614.800	-19.140	0.099
614.900	-7.630	0.100
615.000	-16.784	0.100
615.100	-13.434	0.099
615.200	-8.659	0.100
615.300	-3.621	0.099
615.400	-15.256	0.100
615.500	-19.038	0.099
615.600	-11.803	0.099
615.700	-7.482	0.099
615.800	-15.795	0.099
615.900	-0.968	0.099
616.000	-18.287	0.100
616.100	-14.308	0.099
616.200	-22.739	0.100
616.300	-6.100	0.099
616.400	-15.509	0.099
616.500	-12.682	0.100
616.600	-17.265	0.099
616.700	-14.609	0.100
616.800	-2.330	0.100
616.900	-22.310	0.099
617.000	-7.967	0.099
617.100	-9.184	0.099
617.200	-12.546	0.099
617.300	-6.156	0.100
617.400	-26.534	0.099
617.500	-20.607	0.100
617.600	-4.045	0.100
617.700	-26.541	0.100
617.800	-8.111	0.099
617.900	-12.656	0.099
618.000	-8.640	0.100
618.100	-8.337	0.099
618.200	-17.933	0.099
618.300	-9.624	0.099
618.400	-7.613	0.099
618.500	-25.254	0.100
618.600	-17.226	0.099
618.700	-12.331	0.100
618.800	-8.565	0.099
618.900	-4.479	0.100
619.000	-10.578	0.100
619.100	-26.314	0.100
619.200	-18.331	0.099
619.300	-9.632	0.099
619.400	-18.400	0.100
619.500	-5.114	0.099
619.600	-6.751	0.099
619.700	-17.600	0.100
619.800	-19.330	0.099
619.900	-12.608	0.099
620.000	-16.186	0.099
620.100	-12.472	0.100
620.200	-28.536	0.100
620.300	10.076	0.100
620.400	-8.847	0.100
620.500	-17.976	0.099
620.600	-13.531	0.100
620.700	-1.100	0.100
620.800	-12.001	0.099
620.900	-13.547	0.100
621.000	-22.242	0.100
621.100	1.103	0.099
621.200	-10.918	0.100
621.300	-18.202	0.100
621.400	-10.036	0.100
621.500	-25.426	0.099
621.600	-4.593	0.100
621.700	-14.556	0.099
621.800	-15.600	0.100
621.900	-3.850	0.100
622.000	-9.594	0.100
622.100	-20.067	0.099
622.200	-7.635	0.099
622.300	-28.467	0.099
622.400	-8.277	0.099
622.500	1.919	0.099
622.600	-4.599	0.100
622.700	-23.492	0.099
622.800	-7.448	0.099
622.900	8.755	0.100
623.000	-11.594	0.100
623.100	-8.060	0.100
623.200	-9.939	0.099
623.300	-16.297	0.099
623.400	-7.097	0.100
623.500	-9.330	0.099
623.600	-0.175	0.100
623.700	-14.182	0.099
623.800	-11.810	0.099
623.900	-17.339	0.099
624.000	-14.524	0.099
624.100	-12.698	0.099
624.200	-35.479	0.099
624.300	-8.598	0.099
624.400	5.523	0.099
624.500	-5.629	0.100
624.600	-10.975	0.099
624.700	3.008	0.099
624.800	-18.284	0.099
624.900	-19.840	0.099
625.000	-3.638	0.099
625.100	0.294	0.099
625.200	-1.658	0.099
625.300	-17.381	0.100
625.400	-12.082	0.099
625.500	-27.386	0.099
625.600	-4.797	0.099
625.700	3.352	0.100
625.800	-7.652	0.099
625.900	-1.540	0.100
626.000	-15.590	0.100
626.100	-15.669	0.099
626.200	-22.708	0.100
626.300	-9.654	0.100
626.400	-6.341	0.100
626.500	-21.605	0.100
626.600	-10.971	0.099
626.700	-6.263	0.100
626.800	-13.156	0.100
626.900	-19.806	0.100
627.000	-16.877	0.099
627.100	-25.709	0.099
627.200	-18.146	0.099
627.300	-3.070	0.100
627.400	-0.820	0.099
627.500	-7.322	0.099
627.600	-3.890	0.099
627.700	-19.782	0.099
627.800	-7.120	0.100
627.900	-27.469	0.099
628.000	-24.859	0.099
628.100	-15.282	0.099
628.200	-7.824	0.099
628.300	-17.220	0.099
628.400	-10.943	0.099
628.500	-4.584	0.099
628.600	-1.637	0.099
628.700	-10.557	0.099
628.800	-19.622	0.099
628.900	-6.101	0.099
629.000	-2.213	0.099
629.100	-0.783	0.099
629.200	-20.803	0.099
629.300	-8.531	0.099
629.400	-14.765	0.099
629.500	-4.479	0.099
629.600	-19.073	0.099
629.700	-18.253	0.099
629.800	-17.799	0.099
629.900	-24.630	0.099
630.000	-18.319	0.099
630.100	-7.527	0.099
630.200	3.606	0.099
630.300	-9.316	0.099
630.400	-6.365	0.099
630.500	-11.375	0.100
630.600	-5.593	0.100
630.700	-7.733	0.099
630.800	-4.186	0.100
630.900	-3.331	0.099
631.000	2.479	0.099
631.100	12.968	0.100
631.200	1.700	0.099
631.300	7.269	0.100
631.400	23.974	0.099
631.500	21.676	0.100
631.600	11.090	0.099
631.700	-12.774	0.099
631.800	26.103	0.099
631.900	30.578	0.099
632.000	25.872	0.100
632.100	21.833	0.100
632.200	19.621	0.099
632.300	23.953	0.099
632.400	21.096	0.100
632.500	6.348	0.099
632.600	19.414	0.099
632.700	29.916	0.099
632.800	35.114	0.099
632.900	30.688	0.100
633.000	29.402	0.099
633.100	34.771	0.100
633.200	36.510	0.100
633.300	21.674	0.100
633.400	15.025	0.100
633.500	30.084	0.099
633.600	20.121	0.099
633.700	34.636	0.100
633.800	22.039	0.099
633.900	26.894	0.099
634.000	29.093	0.099
634.100	16.927	0.099
634.200	5.501	0.100
634.300	34.673	0.099
634.400	32.909	0.099
634.500	4.852	0.100
634.600	0.769	0.099
634.700	29.909	0.099
634.800	8.922	0.100
634.900	27.977	0.100
635.000	22.548	0.099
635.100	21.059	0.099
635.200	25.799	0.099
635.300	24.367	0.100
635.400	13.767	0.099
635.500	22.309	0.099
635.600	34.384	0.099
635.700	27.661	0.100
635.800	8.776	0.099
635.900	31.757	0.099
636.000	25.575	0.099
636.100	36.455	0.099
636.200	27.759	0.100
636.300	19.643	0.100
636.400	10.538	0.099
636.500	17.690	0.099
636.600	16.897	0.099
636.700	5.718	0.100
636.800	18.725	0.099
636.900	37.311	0.099
637.000	22.859	0.100
637.100	31.250	0.100
637.200	18.429	0.100
637.300	24.760	0.100
637.400	27.935	0.099
637.500	28.609	0.100
637.600	21.420	0.099
637.700	22.064	0.099
637.800	13.509	0.099
637.900	41.116	0.099
638.000	35.812	0.100
638.100	23.528	0.099
638.200	22.017	0.100
638.300	17.914	0.099
638.400	29.852	0.099
638.500	29.103	0.099
638.600	31.339	0.099
638.700	28.789	0.099
638.800	19.460	0.099
638.900	27.989	0.099
639.000	14.361	0.099
639.100	31.767	0.099
639.200	31.015	0.099
639.300	27.131	0.099
639.400	20.852	0.099
639.500	34.194	0.099
639.600	32.854	0.100
639.700	36.270	0.100
639.800	32.898	0.100
639.900	20.873	0.100
640.000	39.308	0.100
640.100	21.614	0.100
640.200	33.258	0.100
640.300	27.205	0.100
640.400	22.308	0.100
640.500	35.841	0.099
640.600	33.560	0.100
640.700	26.952	0.100
640.800	26.751	0.100
640.900	26.882	0.100
641.000	31.138	0.100
641.100	28.127	0.099
641.200	19.033	0.099
641.300	42.406	0.099
641.400	27.132	0.100
641.500	29.752	0.100
641.600	35.834	0.099
641.700	25.624	0.099
641.800	26.908	0.099
641.900	22.868	0.100
642.000	37.688	0.100
642.100	25.638	0.099
642.200	42.275	0.100
642.300	19.181	0.099
642.400	24.214	0.100
642.500	43.646	0.100
642.600	51.769	0.099
642.700	29.526	0.099
642.800	40.222	0.100
642.900	11.322	0.099
643.000	34.202	0.099
643.100	42.546	0.100
643.200	45.501	0.100
643.300	37.980	0.099
643.400	35.589	0.100
643.500	30.913	0.100
643.600	37.600	0.099
643.700	28.738	0.099
643.800	36.342	0.099
643.900	46.650	0.099
644.000	33.890	0.099
644.100	39.434	0.100
644.200	32.955	0.100
644.300	47.601	0.100
644.400	25.856	0.100
644.500	29.335	0.100
644.600	40.929	0.099
644.700	29.295	0.099
644.800	42.886	0.100
644.900	33.542	0.099
645.000	46.284	0.099
645.100	31.365	0.100
645.200	42.199	0.099
645.300	32.769	0.099
645.400	42.681	0.100
645.500	21.154	0.099
645.600	28.327	0.100
645.700	31.735	0.100
645.800	47.298	0.099
645.900	48.015	0.100
646.000	47.000	0.099
646.100	45.916	0.099
646.200	42.094	0.100
646.300	45.151	0.100
646.400	47.248	0.099
646.500	36.326	0.100
646.600	46.596	0.099
646.700	39.136	0.099
646.800	41.678	0.100
646.900	38.175	0.100
647.000	31.868	0.100
647.100	48.486	0.099
647.200	54.288	0.099
647.300	37.921	0.100
647.400	38.501	0.100
647.500	48.628	0.099
647.600	31.090	0.100
647.700	43.119	0.099
647.800	50.327	0.099
647.900	46.551	0.099
648.000	35.931	0.099
648.100	33.563	0.099
648.200	53.350	0.099
648.300	39.613	0.100
648.400	39.475	0.099
648.500	52.848	0.099
648.600	34.859	0.099
648.700	42.337	0.100
648.800	44.240	0.099
648.900	49.227	0.100
649.000	41.666	0.099
649.100	40.685	0.099
649.200	48.560	0.099
649.300	44.993	0.099
649.400	37.822	0.099
649.500	42.205	0.100
649.600	50.008	0.099
649.700	52.086	0.099
649.800	24.082	0.099
649.900	48.068	0.099
650.000	57.917	0.099
650.100	57.897	0.099
650.200	42.242	0.099
650.300	31.363	0.099
650.400	45.269	0.099
650.500	36.312	0.099
650.600	49.793	0.099
650.700	46.770	0.099
650.800	56.421	0.099
650.900	53.197	0.100
651.000	53.799	0.100
651.100	34.663	0.099
651.200	23.002	0.099
651.300	35.271	0.099
651.400	46.155	0.099
651.500	46.439	0.099
651.600	42.072	0.099
651.700	56.807	0.099
651.800	47.321	0.100
651.900	35.178	0.100
652.000	33.597	0.099
652.100	50.299	0.099
652.200	42.859	0.099
652.300	42.216	0.099
652.400	44.111	0.099
652.500	45.685	0.100
652.600	50.531	0.100
652.700	42.816	0.099
652.800	48.167	0.099
652.900	53.793	0.099
653.000	35.385	0.099
653.100	38.755	0.099
653.200	49.509	0.099
653.300	50.527	0.099
653.400	40.549	0.100
653.500	20.986	0.099
653.600	40.274	0.099
653.700	31.630	0.099
653.800	55.939	0.100
653.900	36.970	0.099
654.000	53.318	0.099
654.100	48.194	0.100
654.200	44.391	0.099
654.300	20.376	0.100
654.400	46.120	0.099
654.500	50.987	0.100
654.600	60.161	0.099
654.700	54.008	0.100
654.800	35.587	0.099
654.900	43.300	0.100
655.000	32.132	0.099
655.100	43.617	0.099
655.200	55.257	0.099
655.300	39.084	0.099
655.400	32.490	0.099
655.500	48.532	0.100
655.600	49.938	0.100
655.700	47.129	0.099
655.800	51.005	0.099
655.900	30.829	0.100
656.000	43.458	0.099
656.100	33.259	0.100
656.200	49.980	0.099
656.300	52.257	0.100
656.400	36.215	0.099
656.500	38.758	0.099
656.600	41.171	0.099
656.700	44.767	0.099
656.800	31.969	0.099
656.900	33.336	0.099
657.000	37.921	0.099
657.100	54.284	0.099
657.200	45.098	0.099
657.300	41.137	0.099
657.400	43.625	0.099
657.500	52.109	0.099
657.600	31.157	0.099
657.700	39.480	0.099
657.800	40.137	0.100
657.900	47.953	0.099
658.000	40.180	0.099
658.100	47.576	0.099
658.200	49.624	0.099
658.300	35.633	0.099
658.400	41.919	0.099
658.500	39.662	0.099
658.600	44.284	0.099
658.700	49.606	0.100
658.800	36.096	0.100
658.900	25.769	0.100
659.000	42.015	0.099
659.100	29.709	0.100
659.200	54.760	0.099
659.300	45.508	0.099
659.400	38.570	0.100
659.500	48.183	0.100
659.600	38.163	0.099
659.700	32.302	0.099
659.800	36.263	0.099
659.900	47.194	0.099
660.000	49.094	0.100
660.100	37.562	0.099
660.200	43.168	0.099
660.300	41.984	0.099
660.400	31.753	0.099
660.500	48.401	0.099
660.600	45.123	0.099
660.700	35.622	0.099
660.800	60.650	0.099
660.900	51.568	0.099
661.000	48.571	0.099
661.100	31.974	0.099
661.200	48.878	0.099
661.300	46.678	0.099
661.400	33.075	0.099
661.500	44.021	0.099
661.600	31.485	0.099
661.700	55.268	0.100
661.800	49.308	0.099
661.900	25.478	0.099
662.000	53.070	0.099
662.100	51.389	0.099
662.200	39.760	0.099
662.300	45.958	0.099
662.400	43.280	0.099
662.500	34.416	0.099
662.600	52.691	0.100
662.700	59.151	0.100
662.800	46.558	0.099
662.900	30.687	0.099
663.000	41.735	0.099
663.100	40.582	0.099
663.200	45.201	0.099
663.300	50.093	0.100
663.400	42.954	0.099
663.500	35.182	0.100
663.600	34.418	0.099
663.700	51.360	0.099
663.800	56.618	0.099
663.900	44.925	0.099
664.000	45.081	0.099
664.100	37.632	0.099
664.200	40.516	0.099
664.300	41.583	0.099
664.400	41.542	0.099
664.500	30.292	0.099
664.600	37.247	0.099
664.700	32.314	0.100
664.800	42.899	0.099
664.900	43.513	0.099
665.000	43.461	0.099
665.100	39.486	0.099
665.200	49.622	0.099
665.300	55.542	0.100
665.400	51.506	0.099
665.500	39.781	0.099
665.600	47.013	0.099
665.700	27.529	0.099
665.800	53.805	0.099
665.900	44.989	0.099
666.000	37.329	0.099
666.100	31.195	0.099
666.200	35.997	0.100
666.300	34.979	0.099
666.400	32.915	0.099
666.500	37.638	0.099
666.600	30.654	0.099
666.700	29.578	0.099
666.800	34.220	0.099
666.900	33.048	0.099
667.000	40.041	0.099
667.100	50.891	0.100
667.200	37.226	0.099
667.300	35.378	0.099
667.400	48.273	0.099
667.500	53.803	0.099
667.600	35.559	0.099
667.700	40.261	0.099
667.800	49.090	0.099
667.900	44.312	0.099
668.000	38.572	0.100
668.100	43.340	0.099
668.200	34.903	0.099
668.300	38.938	0.099
668.400	58.228	0.099
668.500	45.867	0.099
668.600	37.828	0.099
668.700	36.904	0.099
668.800	34.369	0.099
668.900	37.265	0.099
669.000	43.604	0.099
669.100	39.935	0.099
669.200	37.887	0.100
669.300	43.435	0.100
669.400	40.217	0.100
669.500	37.251	0.099
669.600	35.264	0.099
669.700	35.201	0.099
669.800	38.110	0.099
669.900	30.470	0.100
670.000	45.664	0.099
670.100	38.839	0.099
670.200	29.492	0.099
670.300	18.692	0.099
670.400	38.684	0.099
670.500	58.216	0.099
670.600	48.839	0.100
670.700	22.136	0.099
670.800	37.596	0.099
670.900	52.598	0.100
671.000	34.218	0.100
671.100	33.957	0.099
671.200	35.464	0.099
671.300	48.117	0.100
671.400	30.730	0.099
671.500	58.057	0.099
671.600	24.411	0.099
671.700	34.429	0.099
671.800	38.204	0.099
671.900	34.585	0.099
672.000	36.899	0.099
672.100	55.981	0.100
672.200	46.081	0.099
672.300	40.494	0.099
672.400	34.718	0.099
672.500	32.469	0.100
672.600	52.586	0.099
672.700	50.838	0.099
672.800	29.456	0.099
672.900	37.425	0.100
673.000	24.460	0.099
673.100	56.528	0.100
673.200	42.677	0.099
673.300	32.361	0.099
673.400	51.632	0.099
673.500	35.104	0.100
673.600	39.307	0.099
673.700	37.603	0.099
673.800	30.815	0.099
673.900	30.375	0.099
674.000	37.099	0.099
674.100	36.264	0.099
674.200	42.923	0.099
674.300	44.108	0.100
674.400	36.322	0.099
674.500	40.122	0.099
674.600	44.746	0.099
674.700	33.711	0.100
674.800	41.787	0.099
674.900	31.385	0.099
675.000	33.900	0.099
675.100	42.927	0.100
675.200	29.817	0.100
675.300	37.130	0.099
675.400	46.683	0.099
675.500	35.217	0.099
675.600	36.453	0.099
675.700	45.522	0.099
675.800	25.171	0.099
675.900	33.858	0.099
676.000	36.473	0.099
676.100	46.211	0.099
676.200	40.511	0.099
676.300	48.486	0.099
676.400	45.943	0.099
676.500	36.809	0.099
676.600	37.670	0.099
676.700	44.587	0.099
676.800	29.959	0.100
676.900	38.933	0.099
677.000	38.106	0.099
677.100	25.742	0.099
677.200	25.321	0.099
677.300	37.365	0.099
677.400	50.145	0.099
677.500	36.088	0.099
677.600	30.465	0.099
677.700	34.154	0.099
677.800	18.679	0.099
677.900	36.000	0.099
678.000	29.336	0.100
678.100	33.043	0.099
678.200	42.958	0.100
678.300	44.358	0.099
678.400	43.750	0.099
678.500	22.026	0.099
678.600	41.528	0.099
678.700	37.244	0.099
678.800	35.985	0.099
678.900	28.182	0.099
679.000	32.483	0.099
679.100	37.800	0.099
679.200	32.800	0.100
679.300	39.396	0.099
679.400	37.788	0.100
679.500	35.078	0.099
679.600	28.390	0.099
679.700	44.481	0.099
679.800	34.242	0.099
679.900	33.808	0.099
680.000	30.214	0.100
680.100	52.471	0.099
680.200	21.767	0.100
680.300	23.750	0.099
680.400	42.429	0.099
680.500	47.019	0.100
680.600	31.601	0.100
680.700	33.335	0.099
680.800	32.590	0.100
680.900	36.288	0.099
681.000	16.167	0.099
681.100	37.869	0.099
681.200	34.262	0.099
681.300	41.741	0.100
681.400	37.336	0.099
681.500	38.763	0.099
681.600	31.997	0.100
681.700	28.859	0.100
681.800	39.198	0.099
681.900	45.262	0.099
682.000	45.853	0.099
682.100	36.005	0.099
682.200	25.701	0.099
682.300	37.536	0.100
682.400	38.771	0.099
682.500	44.086	0.099
682.600	34.076	0.099
682.700	22.730	0.099
682.800	29.242	0.100
682.900	42.344	0.099
683.000	31.549	0.099
683.100	39.849	0.100
683.200	35.074	0.099
683.300	36.848	0.099
683.400	36.636	0.100
683.500	31.788	0.100
683.600	37.306	0.099
683.700	21.116	0.099
683.800	49.834	0.099
683.900	26.248	0.100
684.000	41.495	0.100
684.100	36.805	0.100
684.200	31.971	0.100
684.300	30.990	0.099
684.400	42.244	0.099
684.500	35.282	0.099
684.600	40.812	0.099
684.700	35.577	0.099
684.800	31.857	0.099
684.900	39.486	0.099
685.000	21.123	0.099
685.100	27.845	0.099
685.200	35.212	0.099
685.300	40.714	0.099
685.400	43.246	0.099
685.500	39.173	0.099
685.600	23.956	0.099
685.700	38.407	0.099
685.800	31.614	0.099
685.900	36.041	0.099
686.000	37.921	0.099
686.100	22.691	0.099
686.200	24.125	0.099
686.300	40.404	0.099
686.400	36.366	0.099
686.500	41.794	0.099
686.600	40.580	0.099
686.700	34.689	0.099
686.800	45.801	0.099
686.900	35.047	0.100
687.000	27.554	0.099
687.100	31.755	0.099
687.200	33.590	0.099
687.300	43.730	0.099
687.400	43.328	0.100
687.500	23.912	0.099
687.600	34.149	0.099
687.700	27.412	0.099
687.800	37.493	0.099
687.900	48.393	0.099
688.000	42.736	0.099
688.100	30.936	0.099
688.200	30.299	0.100
688.300	37.975	0.099
688.400	32.614	0.099
688.500	31.858	0.099
688.600	36.627	0.099
688.700	45.768	0.099
688.800	44.458	0.099
688.900	22.516	0.099
689.000	46.257	0.099
689.100	37.535	0.099
689.200	43.753	0.099
689.300	30.683	0.100
689.400	26.338	0.099
689.500	34.330	0.099
689.600	40.868	0.099
689.700	44.238	0.099
689.800	46.576	0.099
689.900	44.846	0.099
690.000	17.729	0.099
690.100	37.439	0.099
690.200	24.269	0.100
690.300	48.592	0.099
690.400	22.724	0.099
690.500	42.270	0.099
690.600	31.209	0.099
690.700	7.063	0.099
690.800	41.108	0.099
690.900	28.477	0.099
691.000	35.126	0.099
691.100	13.842	0.099
691.200	8.421	0.099
691.300	23.161	0.100
691.400	4.182	0.099
691.500	-8.797	0.099
691.600	10.225	0.100
691.700	3.571	0.099
691.800	23.389	0.100
691.900	5.932	0.099
692.000	-4.453	0.100
692.100	-18.485	0.099
692.200	10.094	0.099
692.300	7.502	0.099
692.400	-8.932	0.099
692.500	-5.807	0.099
692.600	-11.541	0.099
692.700	-10.190	0.099
692.800	-12.207	0.099
692.900	-12.679	0.099
693.000	2.317	0.099
693.100	-7.255	0.099
693.200	-11.110	0.099
693.300	-6.301	0.099
693.400	-7.063	0.099
693.500	-1.965	0.099
693.600	-18.205	0.099
693.700	-16.577	0.100
693.800	-8.768	0.099
693.900	-9.274	0.099
694.000	-17.953	0.099
694.100	-21.450	0.100
694.200	-25.174	0.100
694.300	-1.330	0.099
694.400	10.886	0.099
694.500	-7.881	0.099
694.600	-16.979	0.099
694.700	-8.166	0.099
694.800	-37.017	0.099
694.900	-27.754	0.099
695.000	8.276	0.100
695.100	-11.080	0.099
695.200	-4.135	0.100
695.300	-27.388	0.100
695.400	-6.198	0.099
695.500	-20.893	0.099
695.600	-19.871	0.099
695.700	-17.997	0.100
695.800	2.913	0.099
695.900	-11.554	0.099
696.000	-21.206	0.100
696.100	-12.895	0.100
696.200	-21.297	0.099
696.300	-16.501	0.099
696.400	-17.250	0.100
696.500	-5.747	0.099
696.600	-4.732	0.099
696.700	-21.683	0.099
696.800	-13.032	0.100
696.900	-5.230	0.100
697.000	-10.436	0.100
697.100	-18.833	0.100
697.200	-19.816	0.099
697.300	-21.590	0.099
697.400	-2.520	0.099
697.500	-23.771	0.100
697.600	-13.429	0.099
697.700	-30.735	0.100
697.800	-1.019	0.100
697.900	-2.329	0.099
698.000	-17.985	0.100
698.100	-9.066	0.099
698.200	-17.342	0.100
698.300	-30.709	0.099
698.400	-11.929	0.099
698.500	-20.476	0.100
698.600	2.941	0.099
698.700	-6.633	0.100
698.800	-23.723	0.100
698.900	-6.409	0.099
699.000	-7.589	0.100
699.100	-28.534	0.099
699.200	-27.121	0.099
699.300	-8.890	0.100
699.400	-24.045	0.100
699.500	-16.238	0.100
699.600	-3.713	0.099
699.700	-16.439	0.099
699.800	-15.088	0.100
699.900	-11.481	0.099
700.000	-23.832	0.099
700.100	-21.277	0.100
700.200	-3.866	0.099
700.300	-17.966	0.099
700.400	-13.323	0.100
700.500	-18.453	0.099
700.600	-9.704	0.100
700.700	-8.184	0.099
700.800	-28.307	0.099
700.900	4.713	0.100
701.000	-10.059	0.100
701.100	-13.721	0.100
701.200	-10.309	0.100
701.300	-23.087	0.100
701.400	-15.779	0.100
701.500	-15.055	0.100
701.600	-17.649	0.100
701.700	-17.530	0.100
701.800	-20.802	0.100
701.900	-23.502	0.099
702.000	-37.861	0.100
702.100	-8.464	0.099
702.200	-22.857	0.100
702.300	-13.200	0.099
702.400	-17.478	0.099
702.500	-5.442	0.100
702.600	-22.463	0.100
702.700	-14.230	0.100
702.800	-15.897	0.100
702.900	-15.442	0.099
703.000	-22.444	0.100
703.100	-29.941	0.099
703.200	-7.538	0.099
703.300	-28.203	0.100
703.400	-20.068	0.100
703.500	-13.262	0.100
703.600	-18.717	0.099
703.700	-7.989	0.099
703.800	-32.547	0.099
703.900	-25.138	0.100
704.000	-11.748	0.100
704.100	-23.613	0.100
704.200	-19.589	0.099
704.300	-11.643	0.100
704.400	-20.526	0.100
704.500	-25.297	0.100
704.600	-17.178	0.100
704.700	3.480	0.100
704.800	-14.889	0.100
704.900	-13.900	0.100
705.000	-15.530	0.100
705.100	-38.094	0.100
705.200	-23.284	0.100
705.300	-20.745	0.100
705.400	-17.742	0.100
705.500	-14.961	0.100
705.600	-15.183	0.100
705.700	-28.665	0.100
705.800	-19.209	0.100
705.900	-30.283	0.100
706.000	-14.822	0.100
706.100	-28.934	0.100
706.200	-33.901	0.100
706.300	-31.239	0.100
706.400	-30.483	0.100
706.500	-20.972	0.100
706.600	-22.538	0.100
706.700	-24.965	0.100
706.800	-12.057	0.100
706.900	-19.766	0.100
707.000	-19.057	0.100
707.100	-19.113	0.100
707.200	-29.868	0.100
707.300	-14.316	0.100
707.400	-28.304	0.100
707.500	-10.953	0.100
707.600	-20.329	0.100
707.700	-9.559	0.100
707.800	-26.041	0.100
707.900	-22.181	0.100
708.000	-34.972	0.100
708.100	-34.159	0.100
708.200	-11.953	0.100
708.300	-22.803	0.100
708.400	-31.355	0.100
708.500	-16.647	0.100
708.600	-19.596	0.100
708.700	-35.584	0.100
708.800	-14.875	0.100
708.900	-28.548	0.100
709.000	-21.953	0.100
709.100	-27.481	0.099
709.200	-12.919	0.100
709.300	-23.990	0.099
709.400	-34.681	0.099
709.500	-16.622	0.100
709.600	-26.638	0.100
709.700	-22.284	0.100
709.800	-26.689	0.100
709.900	-18.197	0.100
710.000	-40.280	0.100
710.100	-23.964	0.100
710.200	-20.199	0.100
710.300	-19.691	0.100
710.400	-10.853	0.100
710.500	-16.615	0.100
710.600	-26.001	0.100
710.700	-24.975	0.100
710.800	-36.763	0.100
710.900	-9.560	0.100
711.000	-19.316	0.100
711.100	-24.549	0.100
711.200	-27.757	0.100
711.300	-26.797	0.100
711.400	-23.615	0.099
711.500	-17.076	0.100
711.600	-32.921	0.100
711.700	-21.717	0.100
711.800	-30.052	0.100
711.900	-18.357	0.100
712.000	-28.059	0.100
712.100	-30.712	0.100
712.200	-21.860	0.100
712.300	-32.122	0.100
712.400	-54.437	0.100
712.500	-35.964	0.100
712.600	-17.883	0.099
712.700	-33.419	0.100
712.800	-35.708	0.100
712.900	-24.478	0.100
713.000	-22.962	0.100
713.100	-12.262	0.100
713.200	-33.394	0.100
713.300	-7.195	0.100
713.400	-11.697	0.100
713.500	-34.826	0.100
713.600	-17.838	0.100
713.700	-47.638	0.100
713.800	-15.955	0.100
713.900	-18.536	0.099
714.000	-31.193	0.100
714.100	-27.430	0.100
714.200	-25.843	0.100
714.300	-25.688	0.100
714.400	-29.917	0.100
714.500	-37.363	0.100
714.600	-15.798	0.100
714.700	-26.527	0.100
714.800	-19.055	0.100
714.900	-29.826	0.100
715.000	-9.660	0.100
715.100	-24.093	0.100
715.200	-21.002	0.100
715.300	-17.832	0.100
715.400	-23.404	0.100
715.500	-24.386	0.100
715.600	-26.746	0.100
715.700	-24.633	0.100
715.800	-28.217	0.100
715.900	-32.446	0.100
716.000	-28.918	0.100
716.100	-18.619	0.100
716.200	-36.673	0.100
716.300	-17.393	0.100
716.400	-43.352	0.100
716.500	-27.749	0.100
716.600	-8.188	0.100
716.700	-32.749	0.100
716.800	-27.733	0.100
716.900	-35.066	0.100
717.000	-35.233	0.100
717.100	-20.717	0.100
717.200	-12.579	0.100
717.300	-15.901	0.100
717.400	-19.852	0.100
717.500	-28.332	0.100
717.600	-25.664	0.100
717.700	-22.568	0.100
717.800	-23.317	0.100
717.900	-15.608	0.100
718.000	-23.800	0.100
718.100	-27.447	0.100
718.200	-18.850	0.100
718.300	-7.652	0.100
718.400	-22.181	0.100
718.500	-42.727	0.100
718.600	-22.569	0.100
718.700	-19.269	0.100
718.800	-29.404	0.100
718.900	-6.073	0.100
719.000	-15.524	0.100
719.100	-37.364	0.100
719.200	-20.950	0.100
719.300	-13.585	0.100
719.400	-23.321	0.100
719.500	-18.372	0.100
719.600	-30.962	0.100
719.700	-22.555	0.100
719.800	-39.359	0.100
719.900	-22.756	0.100
720.000	-15.200	0.100
720.100	-25.782	0.100
720.200	-19.393	0.100
720.300	-18.340	0.100
720.400	-22.885	0.100
720.500	-24.605	0.100
720.600	-24.169	0.100
720.700	-24.110	0.100
720.800	-28.483	0.100
720.900	-27.050	0.100
721.000	-28.880	0.100
721.100	-22.759	0.100
721.200	-32.860	0.100
721.300	-14.851	0.100
721.400	-23.733	0.100
721.500	-31.115	0.100
721.600	-26.973	0.100
721.700	-24.887	0.100
721.800	-20.294	0.100
721.900	-28.884	0.100
722.000	-22.924	0.100
722.100	-28.150	0.100
722.200	-30.725	0.100
722.300	-26.609	0.100
722.400	-29.466	0.100
722.500	-19.651	0.100
722.600	-34.017	0.100
722.700	-17.513	0.100
722.800	-20.373	0.100
722.900	-19.087	0.100
723.000	-29.895	0.100
723.100	-25.958	0.100
723.200	-43.584	0.100
723.300	-25.812	0.100
723.400	-16.524	0.100
723.500	-19.849	0.100
723.600	-38.244	0.100
723.700	-14.675	0.100
723.800	-24.982	0.100
723.900	-34.978	0.100
724.000	-30.523	0.100
724.100	-30.600	0.100
724.200	-28.769	0.100
724.300	-16.132	0.100
724.400	-6.465	0.100
724.500	-37.720	0.100
724.600	-23.728	0.100
724.700	-27.317	0.100
724.800	-4.500	0.100
724.900	-32.745	0.100
725.000	-26.216	0.100
725.100	-25.028	0.100
725.200	-8.343	0.100
725.300	-39.398	0.100
725.400	-24.572	0.100
725.500	-22.912	0.100
725.600	-17.628	0.100
725.700	-28.888	0.100
725.800	-21.934	0.100
725.900	-43.505	0.100
726.000	-27.950	0.100
726.100	-33.356	0.100
726.200	-19.183	0.100
726.300	-14.993	0.100
726.400	-21.723	0.100
726.500	-29.653	0.100
726.600	-16.526	0.100
726.700	-31.227	0.100
726.800	-31.578	0.100
726.900	-2.903	0.100
727.000	-27.746	0.100
727.100	-33.045	0.100
727.200	-5.781	0.100
727.300	-29.950	0.100
727.400	-20.643	0.100
727.500	-32.364	0.100
727.600	-27.116	0.100
727.700	-26.746	0.100
727.800	-41.994	0.100
727.900	-19.481	0.100
728.000	-20.904	0.100
728.100	-18.381	0.100
728.200	-31.508	0.100
728.300	-12.377	0.100
728.400	-16.409	0.100
728.500	-25.441	0.100
728.600	-24.940	0.100
728.700	-28.171	0.100
728.800	-9.149	0.100
728.900	-41.575	0.100
729.000	-23.161	0.100
729.100	-13.894	0.100
729.200	-24.236	0.100
729.300	-15.462	0.100
729.400	-16.200	0.100
729.500	-28.432	0.100
729.600	-28.151	0.100
729.700	-14.911	0.100
729.800	-22.553	0.100
729.900	-21.451	0.100
730.000	-17.033	0.100
730.100	-19.196	0.100
730.200	-15.407	0.100
730.300	-27.756	0.100
730.400	-36.008	0.100
730.500	-22.451	0.100
730.600	-31.749	0.100
730.700	-31.833	0.100
730.800	-28.166	0.100
730.900	-22.873	0.100
731.000	-11.571	0.100
731.100	-36.568	0.100
731.200	-15.593	0.100
731.300	-27.478	0.100
731.400	-4.150	0.100
731.500	-20.183	0.100
731.600	-28.919	0.100
731.700	-31.034	0.100
731.800	-27.750	0.100
731.900	-28.534	0.100
732.000	-16.019	0.100
732.100	-12.835	0.100
732.200	-36.232	0.100
732.300	-13.518	0.100
732.400	-23.544	0.100
732.500	-28.400	0.100
732.600	-32.965	0.100
732.700	-19.080	0.100
732.800	-20.348	0.100
732.900	-23.445	0.100
733.000	-14.347	0.100
733.100	-25.376	0.100
733.200	-13.562	0.100
733.300	-20.097	0.100
733.400	-22.174	0.100
733.500	-13.766	0.100
733.600	-25.681	0.100
733.700	-33.104	0.100
733.800	-37.587	0.100
733.900	-15.664	0.100
734.000	-23.168	0.100
734.100	-15.640	0.100
734.200	-32.160	0.100
734.300	-40.408	0.100
734.400	-16.652	0.100
734.500	-28.846	0.100
734.600	-15.722	0.100
734.700	-16.415	0.100
734.800	-27.045	0.100
734.900	-25.266	0.100
735.000	-21.133	0.100
735.100	-22.062	0.100
735.200	-16.954	0.100
735.300	-21.361	0.100
735.400	-22.652	0.100
735.500	-22.034	0.100
735.600	-21.567	0.100
735.700	-17.479	0.100
735.800	-25.099	0.100
735.900	-21.777	0.100
736.000	-29.499	0.100
736.100	-14.697	0.100
736.200	-22.080	0.100
736.300	-19.725	0.100
736.400	-19.447	0.100
736.500	-23.962	0.100
736.600	-28.204	0.100
736.700	-30.803	0.100
736.800	-21.879	0.100
736.900	-26.446	0.100
737.000	-16.902	0.100
737.100	-18.378	0.100
737.200	-29.605	0.100
737.300	-29.164	0.100
737.400	-27.512	0.100
737.500	-9.618	0.100
737.600	-17.843	0.100
737.700	-24.167	0.100
737.800	-23.528	0.100
737.900	-22.313	0.100
738.000	-20.994	0.100
738.100	-20.968	0.100
738.200	-5.241	0.100
738.300	-16.597	0.100
738.400	-11.011	0.100
738.500	-38.287	0.100
738.600	-14.889	0.100
738.700	-19.629	0.100
738.800	-25.178	0.100
738.900	-24.546	0.100
739.000	-28.560	0.100
739.100	-19.426	0.100
739.200	-4.210	0.100
739.300	-6.722	0.100
739.400	-17.799	0.100
739.500	-26.641	0.100
739.600	-22.735	0.100
739.700	-32.124	0.100
739.800	-29.606	0.100
739.900	-26.673	0.100
740.000	-8.610	0.100
740.100	-17.506	0.100
740.200	-15.639	0.100
740.300	-28.827	0.100
740.400	-21.699	0.100
740.500	-24.203	0.100
740.600	-20.469	0.100
740.700	-11.879	0.100
740.800	-26.842	0.100
740.900	-14.879	0.100
741.000	-23.278	0.100
741.100	-17.440	0.100
741.200	3.529	0.100
741.300	-25.260	0.100
741.400	-17.860	0.100
741.500	-21.095	0.100
741.600	-25.651	0.100
741.700	-16.430	0.100
741.800	-16.213	0.100
741.900	-24.926	0.100
742.000	-17.135	0.100
742.100	-19.648	0.100
742.200	-26.857	0.100
742.300	-15.996	0.100
742.400	-17.896	0.100
742.500	-5.241	0.100
742.600	-22.918	0.100
742.700	-13.213	0.100
742.800	-21.600	0.100
742.900	-16.585	0.100
743.000	-30.352	0.100
743.100	-23.599	0.100
743.200	-17.344	0.100
743.300	-19.214	0.100
743.400	-30.521	0.100
743.500	-19.240	0.100
743.600	-20.650	0.100
743.700	-18.104	0.100
743.800	-12.577	0.100
743.900	-24.818	0.100
744.000	-27.934	0.100
744.100	-23.956	0.100
744.200	-15.220	0.100
744.300	-22.700	0.100
744.400	-29.460	0.100
744.500	-6.179	0.100
744.600	-20.009	0.100
744.700	-16.320	0.100
744.800	-7.361	0.100
744.900	-9.008	0.100
745.000	-28.401	0.100
745.100	-20.053	0.100
745.200	-11.373	0.100
745.300	-21.899	0.100
745.400	-32.540	0.100
745.500	3.220	0.100
745.600	-15.571	0.100
745.700	-19.041	0.100
745.800	-11.913	0.100
745.900	-12.011	0.100
746.000	-7.493	0.100
746.100	-24.161	0.100
746.200	-21.670	0.100
746.300	-18.877	0.100
746.400	-26.288	0.100
746.500	-14.633	0.100
746.600	-32.318	0.100
746.700	-4.443	0.100
746.800	-16.756	0.100
746.900	-17.093	0.100
747.000	-12.181	0.100
747.100	-8.599	0.100
747.200	-11.519	0.100
747.300	-14.059	0.100
747.400	-33.591	0.100
747.500	-15.472	0.100
747.600	-13.021	0.100
747.700	-16.741	0.100
747.800	-22.169	0.100
747.900	-31.796	0.100
748.000	-11.222	0.100
748.100	-9.442	0.100
748.200	-19.783	0.100
748.300	-9.516	0.100
748.400	-4.508	0.100
748.500	-11.510	0.100
748.600	-16.874	0.100
748.700	-21.253	0.100
748.800	-28.228	0.100
748.900	2.696	0.100
749.000	-23.811	0.100
749.100	-5.387	0.100
749.200	-5.984	0.100
749.300	-35.250	0.100
749.400	-18.988	0.100
749.500	-23.626	0.100
749.600	-17.515	0.100
749.700	-19.669	0.100
749.800	-21.090	0.100
749.900	-15.367	0.100
750.000	-15.827	0.100
750.100	-13.666	0.100
750.200	-2.135	0.100
750.300	-15.360	0.100
750.400	-27.486	0.100
750.500	-21.377	0.100
750.600	-15.468	0.100
750.700	-27.631	0.100
750.800	-24.818	0.100
750.900	-1.109	0.100
751.000	-18.469	0.100
751.100	-13.939	0.100
751.200	-7.902	0.100
751.300	-8.560	0.100
751.400	-23.535	0.100
751.500	-19.213	0.100
751.600	-1.923	0.100
751.700	-33.213	0.100
751.800	-29.374	0.100
751.900	-0.743	0.100
752.000	-2.810	0.100
752.100	-24.863	0.100
752.200	-14.096	0.100
752.300	-17.783	0.100
752.400	-10.520	0.100
752.500	-13.010	0.100
752.600	-20.644	0.100
752.700	-4.834	0.100
752.800	-19.336	0.100
752.900	-12.664	0.100
753.000	-13.273	0.100
753.100	-18.992	0.100
753.200	-1.684	0.100
753.300	-12.327	0.100
753.400	-15.804	0.100
753.500	-30.940	0.100
753.600	-23.251	0.100
753.700	-20.594	0.100
753.800	-19.948	0.100
753.900	-13.497	0.100
754.000	-0.788	0.100
754.100	-18.858	0.100
754.200	-21.843	0.100
754.300	-18.254	0.100
754.400	-18.497	0.100
754.500	-9.064	0.100
754.600	-11.242	0.100
754.700	-15.978	0.100
754.800	-17.069	0.100
754.900	-6.048	0.100
755.000	-28.075	0.100
755.100	1.645	0.100
755.200	-14.392	0.100
755.300	-16.184	0.100
755.400	-10.339	0.100
755.500	-30.779	0.100
755.600	-16.546	0.100
755.700	-14.106	0.100
755.800	-20.393	0.100
755.900	-16.909	0.100
756.000	-26.883	0.100
756.100	-23.344	0.100
756.200	-7.282	0.100
756.300	-19.757	0.100
756.400	-21.947	0.100
756.500	-4.841	0.100
756.600	-28.126	0.100
756.700	-10.752	0.100
756.800	-21.402	0.100
756.900	-6.211	0.100
757.000	-12.041	0.100
757.100	-21.111	0.100
757.200	-14.968	0.100
757.300	-8.832	0.100
757.400	-8.756	0.100
757.500	-14.069	0.100
757.600	-16.404	0.100
757.700	-30.795	0.100
757.800	-13.272	0.100
757.900	-2.286	0.100
758.000	-17.835	0.100
758.100	-18.285	0.100
758.200	-11.795	0.100
758.300	-1.959	0.100
758.400	-9.449	0.100
758.500	-17.442	0.100
758.600	-16.259	0.100
758.700	-3.030	0.100
758.800	-8.556	0.100
758.900	-11.839	0.100
759.000	-22.521	0.100
759.100	-4.064	0.100
759.200	-21.765	0.100
759.300	-20.151	0.100
759.400	13.807	0.100
759.500	-19.559	0.100
759.600	-20.778	0.100
759.700	-19.448	0.100
759.800	-9.493	0.100
759.900	-15.129	0.100
760.000	-18.001	0.100
760.100	-29.330	0.100
760.200	-13.289	0.100
760.300	-33.669	0.100
760.400	-0.325	0.100
760.500	-9.409	0.100
760.600	-12.271	0.100
760.700	-27.489	0.100
760.800	-22.042	0.100
760.900	-6.636	0.100
761.000	-16.190	0.100
761.100	-10.875	0.100
761.200	-19.124	0.100
761.300	-6.833	0.100
761.400	-11.080	0.100
761.500	-14.465	0.100
761.600	-22.546	0.100
761.700	-20.394	0.100
761.800	-26.969	0.100
761.900	-3.979	0.100
762.000	-21.937	0.100
762.100	-8.384	0.100
762.200	-16.064	0.100
762.300	-14.303	0.100
762.400	-28.994	0.100
762.500	-8.087	0.100
762.600	-5.694	0.100
762.700	-7.286	0.100
762.800	-27.365	0.100
762.900	-11.341	0.100
763.000	-9.533	0.100
763.100	-19.173	0.100
763.200	-15.369	0.100
763.300	-10.927	0.100
763.400	-11.381	0.100
763.500	-14.349	0.100
763.600	-31.532	0.100
763.700	-5.907	0.100
763.800	-7.762	0.100
763.900	4.906	0.100
764.000	-10.944	0.100
764.100	-10.735	0.100
764.200	-15.504	0.100
764.300	-14.826	0.100
764.400	-8.265	0.100
764.500	0.651	0.100
764.600	-21.798	0.100
764.700	-13.138	0.100
764.800	-22.739	0.100
764.900	-24.981	0.100
765.000	-8.714	0.100
765.100	-11.249	0.100
765.200	-15.083	0.100
765.300	-12.818	0.100
765.400	-5.833	0.100
765.500	1.270	0.100
765.600	-15.526	0.100
765.700	-19.965	0.100
765.800	-11.079	0.100
765.900	-17.371	0.100
766.000	-19.822	0.100
766.100	-11.326	0.100
766.200	-5.013	0.100
766.300	-16.075	0.100
766.400	-21.114	0.100
766.500	-19.843	0.100
766.600	-17.268	0.100
766.700	-18.612	0.100
766.800	-38.202	0.100
766.900	-7.191	0.100
767.000	-6.359	0.100
767.100	4.795	0.100
767.200	-13.630	0.100
767.300	-23.885	0.100
767.400	-29.241	0.100
767.500	-28.444	0.100
767.600	-16.380	0.100
767.700	-6.718	0.100
767.800	-5.438	0.100
767.900	-19.045	0.100
768.000	-10.809	0.100
768.100	-11.762	0.100
768.200	-19.519	0.100
768.300	-5.848	0.100
768.400	-23.473	0.100
768.500	-20.677	0.100
768.600	-6.877	0.100
768.700	-4.995	0.100
768.800	-9.582	0.100
768.900	-13.518	0.100
769.000	-10.913	0.100
769.100	-15.365	0.100
769.200	-13.644	0.100
769.300	-18.442	0.100
769.400	-8.433	0.100
769.500	-26.982	0.100
769.600	-17.411	0.100
769.700	-12.312	0.100
769.800	-12.867	0.100
769.900	-18.289	0.100
770.000	-15.117	0.100
770.100	-27.928	0.100
770.200	-14.324	0.100
770.300	-15.484	0.100
770.400	-2.311	0.100
770.500	-22.753	0.100
770.600	-2.425	0.100
770.700	-10.188	0.100
770.800	-11.052	0.100
770.900	0.318	0.100
771.000	-8.507	0.100
771.100	-6.154	0.100
771.200	-21.141	0.100
771.300	-13.517	0.100
771.400	0.086	0.100
771.500	-5.875	0.100
771.600	-24.853	0.100
771.700	-35.550	0.100
771.800	-12.729	0.100
771.900	-22.760	0.100
772.000	2.562	0.100
772.100	-7.686	0.100
772.200	-15.423	0.100
772.300	-16.786	0.100
772.400	-6.125	0.100
772.500	-21.261	0.100
772.600	-23.328	0.100
772.700	-22.473	0.100
772.800	-4.309	0.100
772.900	-13.007	0.100
773.000	-25.085	0.100
773.100	-27.089	0.100
773.200	-8.080	0.100
773.300	-24.139	0.100
773.400	0.574	0.100
773.500	-15.218	0.100
773.600	-13.532	0.100
773.700	-16.828	0.100
773.800	-7.513	0.100
773.900	-10.718	0.100
774.000	-25.546	0.100
774.100	-5.695	0.100
774.200	-7.333	0.100
774.300	-19.507	0.100
774.400	-20.132	0.100
774.500	-20.111	0.100
774.600	-20.556	0.100
774.700	-14.966	0.100
774.800	-6.493	0.100
774.900	-5.401	0.100
775.000	-19.751	0.100
775.100	-10.139	0.100
775.200	-17.206	0.100
775.300	-7.580	0.100
775.400	-9.447	0.100
775.500	-5.518	0.100
775.600	-13.706	0.100
775.700	-20.821	0.100
775.800	-11.521	0.100
775.900	-22.375	0.100
776.000	2.250	0.100
776.100	-11.488	0.100
776.200	-18.194	0.100
776.300	-1.302	0.100
776.400	-27.004	0.100
776.500	-10.679	0.100
776.600	-9.675	0.100
776.700	3.844	0.100
776.800	2.981	0.100
776.900	-6.374	0.100
777.000	-7.874	0.100
777.100	-12.243	0.100
777.200	-7.129	0.100
777.300	-13.412	0.100
777.400	-0.615	0.100
777.500	-29.949	0.100
777.600	-6.776	0.100
777.700	-17.468	0.100
777.800	-1.857	0.100
777.900	-13.246	0.100
778.000	-19.742	0.100
778.100	-13.405	0.100
778.200	-4.359	0.100
778.300	-23.556	0.100
778.400	-21.525	0.100
778.500	-27.489	0.100
778.600	-10.237	0.100
778.700	-3.355	0.100
778.800	-23.721	0.100
778.900	-2.248	0.099
779.000	6.735	0.099
779.100	-12.603	0.099
779.200	-23.297	0.099
779.300	-14.824	0.099
779.400	-14.816	0.099
779.500	-1.559	0.099
779.600	-8.094	0.099
779.700	-13.657	0.099
779.800	-21.414	0.099
779.900	-11.843	0.099
780.000	8.588	0.099
780.100	-18.759	0.099
780.200	-4.580	0.099
780.300	-14.744	0.099
780.400	-15.137	0.099
780.500	-1.468	0.099
780.600	3.534	0.099
780.700	-5.061	0.099
780.800	-19.421	0.099
780.900	-6.582	0.099
781.000	8.958	0.099
781.100	-4.334	0.099
781.200	-8.069	0.099
781.300	20.391	0.099
781.400	-2.462	0.099
781.500	-5.048	0.099
781.600	28.520	0.099
781.700	21.148	0.099
781.800	7.435	0.099
781.900	20.790	0.099
782.000	10.379	0.099
782.100	18.656	0.099
782.200	8.822	0.099
782.300	18.685	0.099
782.400	11.993	0.099
782.500	36.516	0.099
782.600	12.732	0.099
782.700	17.064	0.099
782.800	28.448	0.099
782.900	28.343	0.099
783.000	27.923	0.099
783.100	12.999	0.099
783.200	28.496	0.099
783.300	3.438	0.099
783.400	27.948	0.099
783.500	31.079	0.099
783.600	20.016	0.099
783.700	43.470	0.099
783.800	25.247	0.099
783.900	25.692	0.099
784.000	13.988	0.099
784.100	10.925	0.099
784.200	12.644	0.099
784.300	37.566	0.099
784.400	27.564	0.099
784.500	35.995	0.099
784.600	14.003	0.099
784.700	23.852	0.099
784.800	15.512	0.099
784.900	43.463	0.099
785.000	15.397	0.099
785.100	23.692	0.099
785.200	18.685	0.099
785.300	28.754	0.099
785.400	7.368	0.099
785.500	13.962	0.099
785.600	11.311	0.099
785.700	30.271	0.099
785.800	24.937	0.099
785.900	37.253	0.099
786.000	17.648	0.099
786.100	24.263	0.099
786.200	16.725	0.099
786.300	18.029	0.099
786.400	27.233	0.099
786.500	16.595	0.099
786.600	19.965	0.099
786.700	5.314	0.099
786.800	19.556	0.099
786.900	30.232	0.099
787.000	22.822	0.099
787.100	29.348	0.099
787.200	22.768	0.099
787.300	15.244	0.099
787.400	28.007	0.099
787.500	24.631	0.099
787.600	19.184	0.099
787.700	20.474	0.099
787.800	29.251	0.099
787.900	31.401	0.099
788.000	14.902	0.099
788.100	15.240	0.099
788.200	29.592	0.099
788.300	26.105	0.099
788.400	17.040	0.099
788.500	26.576	0.099
788.600	20.841	0.099
788.700	6.751	0.099
788.800	24.437	0.099
788.900	22.171	0.099
789.000	23.813	0.099
789.100	13.508	0.099
789.200	31.729	0.099
789.300	8.922	0.099
789.400	9.799	0.099
789.500	25.047	0.099
789.600	24.524	0.099
789.700	27.058	0.099
789.800	19.161	0.099
789.900	37.494	0.099
790.000	28.173	0.099
790.100	30.873	0.099
790.200	35.357	0.099
790.300	30.484	0.099
790.400	24.950	0.099
790.500	27.702	0.099
790.600	38.615	0.099
790.700	10.296	0.099
790.800	38.745	0.099
790.900	27.848	0.099
791.000	28.788	0.099
791.100	22.817	0.099
791.200	39.658	0.099
791.300	26.393	0.099
791.400	36.493	0.099
791.500	36.551	0.099
791.600	33.068	0.099
791.700	40.863	0.099
791.800	31.972	0.099
791.900	26.283	0.099
792.000	29.058	0.099
792.100	32.870	0.099
792.200	39.227	0.099
792.300	49.165	0.099
792.400	34.516	0.099
792.500	19.778	0.099
792.600	23.793	0.099
792.700	44.164	0.099
792.800	21.042	0.099
792.900	33.793	0.099
793.000	25.591	0.099
793.100	38.747	0.099
793.200	34.533	0.099
793.300	36.424	0.099
793.400	36.852	0.099
793.500	30.044	0.099
793.600	36.232	0.099
793.700	36.656	0.099
793.800	32.710	0.099
793.900	36.459	0.099
794.000	34.879	0.099
794.100	39.406	0.099
794.200	43.412	0.099
794.300	38.266	0.099
794.400	33.594	0.099
794.500	32.177	0.099
794.600	30.709	0.099
794.700	42.152	0.099
794.800	29.023	0.099
794.900	38.317	0.099
795.000	39.051	0.099
795.100	38.787	0.099
795.200	35.361	0.099
795.300	35.564	0.099
795.400	34.946	0.099
795.500	33.220	0.099
795.600	44.130	0.099
795.700	39.148	0.099
795.800	23.369	0.099
795.900	43.593	0.099
796.000	52.662	0.099
796.100	27.770	0.099
796.200	40.915	0.099
796.300	43.228	0.099
796.400	36.182	0.099
796.500	42.274	0.099
796.600	45.159	0.099
796.700	48.057	0.099
796.800	45.488	0.099
796.900	30.698	0.099
797.000	49.132	0.099
797.100	37.597	0.099
797.200	33.241	0.099
797.300	49.022	0.099
797.400	47.061	0.099
797.500	38.503	0.099
797.600	37.711	0.099
797.700	25.428	0.099
797.800	53.772	0.099
797.900	34.361	0.099
798.000	48.200	0.099
798.100	47.552	0.099
798.200	43.543	0.099
798.300	48.134	0.099
798.400	38.327	0.099
798.500	41.122	0.099
798.600	31.231	0.099
798.700	42.438	0.099
798.800	31.758	0.099
798.900	36.347	0.099
799.000	57.051	0.099
799.100	26.153	0.099
799.200	41.558	0.099
799.300	51.395	0.099
799.400	36.761	0.099
799.500	39.871	0.099
799.600	44.089	0.099
799.700	38.718	0.099
799.800	53.811	0.099
799.900	37.434	0.099
800.000	43.321	0.099
