time /s	I /nA	E /V
0.100	5.871	0.099
0.200	0.365	0.099
0.300	-11.393	0.099
0.400	3.210	0.099
0.500	-3.786	0.099
0.600	18.710	0.099
0.700	1.164	0.100
0.800	-13.563	0.099
0.900	-2.056	0.099
1.000	-6.652	0.099
1.100	-14.295	0.099
1.200	12.640	0.099
1.300	-1.002	0.100
1.400	-19.737	0.099
1.500	-5.471	0.099
1.600	1.694	0.100
1.700	-1.329	0.099
1.800	1.898	0.099
1.900	-13.618	0.099
2.000	-4.748	0.099
2.100	1.716	0.099
2.200	5.118	0.099
2.300	-13.346	0.099
2.400	0.175	0.100
2.500	-12.803	0.099
2.600	5.929	0.099
2.700	4.841	0.099
2.800	-5.329	0.099
2.900	-5.450	0.099
3.000	-5.473	0.099
3.100	-3.680	0.099
3.200	11.805	0.099
3.300	1.501	0.100
3.400	-9.493	0.099
3.500	0.830	0.099
3.600	-9.162	0.099
3.700	-4.139	0.100
3.800	-13.342	0.099
3.900	-3.536	0.099
4.000	-5.980	0.099
4.100	-13.990	0.100
4.200	8.118	0.099
4.300	-1.254	0.099
4.400	-24.199	0.099
4.500	-7.511	0.099
4.600	12.821	0.099
4.700	17.644	0.099
4.800	-4.276	0.100
4.900	0.049	0.100
5.000	-19.698	0.099
5.100	-15.149	0.099
5.200	-6.175	0.100
5.300	-8.175	0.099
5.400	0.855	0.100
5.500	-11.504	0.100
5.600	-6.002	0.099
5.700	-10.057	0.100
5.800	-0.696	0.099
5.900	-6.781	0.099
6.000	-1.654	0.099
6.100	-15.041	0.099
6.200	1.829	0.100
6.300	0.870	0.100
6.400	-8.027	0.099
6.500	-23.684	0.099
6.600	-11.123	0.100
6.700	4.746	0.099
6.800	-7.841	0.099
6.900	-3.879	0.099
7.000	12.532	0.099
7.100	9.221	0.099
7.200	-13.881	0.099
7.300	-5.437	0.100
7.400	-4.237	0.100
7.500	-9.506	0.100
7.600	-5.520	0.099
7.700	-8.607	0.100
7.800	-3.172	0.100
7.900	2.038	0.099
8.000	7.994	0.099
8.100	-12.554	0.099
8.200	-5.689	0.100
8.300	7.309	0.100
8.400	0.585	0.100
8.500	-2.554	0.099
8.600	-8.195	0.100
8.700	-9.860	0.099
8.800	6.276	0.099
8.900	-10.788	0.099
9.000	-16.071	0.099
9.100	-0.455	0.100
9.200	-6.002	0.099
9.300	-11.985	0.100
9.400	-20.674	0.100
9.500	5.015	0.100
9.600	0.258	0.099
9.700	2.107	0.099
9.800	-2.299	0.100
9.900	-6.238	0.100
10.000	15.195	0.099
10.100	-2.956	0.100
10.200	-11.051	0.100
10.300	-11.600	0.100
10.400	-4.091	0.099
10.500	6.641	0.099
10.600	-3.609	0.100
10.700	-9.876	0.099
10.800	4.312	0.100
10.900	-18.625	0.099
11.000	-4.552	0.100
11.100	-5.544	0.099
11.200	-2.455	0.100
11.300	-4.212	0.099
11.400	14.000	0.099
11.500	-3.368	0.099
11.600	-3.837	0.099
11.700	-4.320	0.099
11.800	8.849	0.099
11.900	-21.516	0.100
12.000	-10.334	0.099
12.100	-10.198	0.099
12.200	-10.230	0.100
12.300	-8.824	0.100
12.400	-7.690	0.099
12.500	-3.633	0.100
12.600	-11.345	0.099
12.700	9.216	0.099
12.800	0.036	0.099
12.900	-12.865	0.100
13.000	0.858	0.099
13.100	-3.146	0.100
13.200	-18.427	0.099
13.300	0.043	0.100
13.400	-1.478	0.100
13.500	-6.303	0.100
13.600	0.079	0.100
13.700	-2.429	0.099
13.800	-7.722	0.099
13.900	-8.031	0.099
14.000	-0.433	0.100
14.100	-3.881	0.100
14.200	0.412	0.100
14.300	1.876	0.100
14.400	3.143	0.100
14.500	-6.730	0.100
14.600	-20.510	0.100
14.700	0.848	0.100
14.800	10.766	0.100
14.900	-14.778	0.099
15.000	-1.776	0.099
15.100	1.403	0.100
15.200	-16.858	0.099
15.300	10.733	0.099
15.400	3.621	0.099
15.500	-7.892	0.099
15.600	3.783	0.099
15.700	-18.870	0.099
15.800	-13.940	0.100
15.900	0.123	0.100
16.000	-4.897	0.099
16.100	8.757	0.099
16.200	10.091	0.099
16.300	-7.736	0.100
16.400	-0.974	0.100
16.500	6.742	0.100
16.600	-25.113	0.099
16.700	3.262	0.100
16.800	-12.122	0.099
16.900	-14.255	0.099
17.000	3.063	0.099
17.100	0.626	0.099
17.200	8.564	0.099
17.300	-17.128	0.100
17.400	-14.229	0.099
17.500	3.692	0.099
17.600	-0.275	0.100
17.700	0.002	0.099
17.800	-0.705	0.100
17.900	-24.748	0.099
18.000	8.957	0.099
18.100	3.082	0.099
18.200	0.119	0.099
18.300	-13.246	0.099
18.400	-6.287	0.099
18.500	-4.268	0.099
18.600	10.714	0.100
18.700	-20.410	0.099
18.800	6.736	0.100
18.900	1.835	0.099
19.000	-0.314	0.099
19.100	-24.421	0.099
19.200	4.136	0.099
19.300	-11.126	0.099
19.400	-3.224	0.100
19.500	8.772	0.100
19.600	0.979	0.099
19.700	-20.858	0.100
19.800	10.175	0.099
19.900	-1.653	0.099
20.000	-12.643	0.099
20.100	-9.758	0.100
20.200	10.128	0.100
20.300	5.951	0.099
20.400	-11.908	0.099
20.500	-3.307	0.099
20.600	-4.526	0.099
20.700	-7.001	0.099
20.800	-5.616	0.100
20.900	-14.868	0.099
21.000	3.773	0.099
21.100	-3.795	0.099
21.200	-1.518	0.100
21.300	-8.134	0.099
21.400	-3.754	0.099
21.500	2.571	0.100
21.600	0.992	0.099
21.700	-7.266	0.099
21.800	0.945	0.100
21.900	-6.413	0.099
22.000	-3.070	0.099
22.100	-9.698	0.100
22.200	-7.020	0.099
22.300	12.530	0.099
22.400	-9.113	0.099
22.500	4.194	0.099
22.600	-0.154	0.099
22.700	6.146	0.100
22.800	8.668	0.099
22.900	-11.937	0.100
23.000	-8.950	0.099
23.100	-1.595	0.099
23.200	2.327	0.099
23.300	-7.097	0.100
23.400	-0.548	0.099
23.500	-5.673	0.100
23.600	-4.153	0.099
23.700	-1.196	0.100
23.800	-6.581	0.100
23.900	-0.657	0.099
24.000	-3.983	0.099
24.100	-9.541	0.099
24.200	-11.176	0.099
24.300	-0.908	0.099
24.400	-7.908	0.100
24.500	-3.113	0.100
24.600	-3.488	0.099
24.700	-14.902	0.099
24.800	10.567	0.099
24.900	6.591	0.100
25.000	3.367	0.100
25.100	-11.393	0.100
25.200	-9.094	0.099
25.300	-9.226	0.099
25.400	5.972	0.099
25.500	-4.471	0.099
25.600	-3.283	0.099
25.700	2.202	0.100
25.800	-14.761	0.099
25.900	-11.868	0.099
26.000	-4.418	0.099
26.100	4.641	0.099
26.200	-18.539	0.099
26.300	0.900	0.099
26.400	-5.403	0.099
26.500	6.735	0.100
26.600	-10.907	0.099
26.700	1.181	0.099
26.800	-8.570	0.100
26.900	-18.205	0.100
27.000	-3.203	0.099
27.100	3.432	0.099
27.200	0.035	0.099
27.300	19.615	0.099
27.400	-15.752	0.099
27.500	0.555	0.100
27.600	-22.240	0.099
27.700	14.399	0.099
27.800	-3.262	0.099
27.900	-1.884	0.099
28.000	-10.552	0.100
28.100	-6.545	0.099
28.200	-16.271	0.100
28.300	7.646	0.099
28.400	-1.531	0.100
28.500	-3.510	0.100
28.600	-0.409	0.099
28.700	2.449	0.099
28.800	-19.555	0.099
28.900	-7.049	0.099
29.000	5.666	0.099
29.100	7.143	0.100
29.200	0.040	0.100
29.300	-14.370	0.099
29.400	-2.943	0.100
29.500	10.382	0.100
29.600	-13.885	0.100
29.700	3.593	0.100
29.800	-6.645	0.099
29.900	-13.285	0.100
30.000	9.449	0.099
30.100	-8.159	0.099
30.200	-3.464	0.100
30.300	-4.831	0.099
30.400	-9.972	0.100
30.500	0.415	0.100
30.600	2.107	0.100
30.700	-16.017	0.099
30.800	22.098	0.099
30.900	10.010	0.100
31.000	-0.942	0.099
31.100	1.205	0.100
31.200	-2.425	0.099
31.300	2.254	0.099
31.400	10.291	0.099
31.500	-17.571	0.099
31.600	17.049	0.100
31.700	2.458	0.099
31.800	14.923	0.099
31.900	19.023	0.099
32.000	19.668	0.099
32.100	11.128	0.099
32.200	16.280	0.100
32.300	18.490	0.099
32.400	7.384	0.099
32.500	28.084	0.099
32.600	18.203	0.099
32.700	5.685	0.099
32.800	23.816	0.100
32.900	15.489	0.100
33.000	20.873	0.099
33.100	20.763	0.100
33.200	26.639	0.099
33.300	24.774	0.099
33.400	24.756	0.099
33.500	1.557	0.099
33.600	13.305	0.100
33.700	23.464	0.099
33.800	18.513	0.099
33.900	14.222	0.100
34.000	32.516	0.099
34.100	15.441	0.099
34.200	18.374	0.099
34.300	23.563	0.100
34.400	27.050	0.099
34.500	14.518	0.099
34.600	14.791	0.099
34.700	17.341	0.100
34.800	37.514	0.100
34.900	29.296	0.099
35.000	29.683	0.100
35.100	21.251	0.100
35.200	16.979	0.099
35.300	15.439	0.100
35.400	24.640	0.100
35.500	25.990	0.100
35.600	23.539	0.100
35.700	18.798	0.099
35.800	24.652	0.100
35.900	24.885	0.099
36.000	24.786	0.100
36.100	28.973	0.100
36.200	34.655	0.099
36.300	26.740	0.099
36.400	19.413	0.099
36.500	31.736	0.100
36.600	32.580	0.099
36.700	19.376	0.099
36.800	23.011	0.100
36.900	43.597	0.099
37.000	27.059	0.100
37.100	24.471	0.100
37.200	30.103	0.100
37.300	13.947	0.100
37.400	37.617	0.100
37.500	17.431	0.099
37.600	23.992	0.100
37.700	23.259	0.099
37.800	28.550	0.100
37.900	23.945	0.100
38.000	26.326	0.099
38.100	34.939	0.100
38.200	25.804	0.100
38.300	25.560	0.100
38.400	21.959	0.100
38.500	36.410	0.100
38.600	14.533	0.099
38.700	37.889	0.100
38.800	33.137	0.100
38.900	29.553	0.099
39.000	31.193	0.099
39.100	31.461	0.099
39.200	28.914	0.099
39.300	22.903	0.100
39.400	22.277	0.100
39.500	37.446	0.099
39.600	28.598	0.100
39.700	29.971	0.099
39.800	22.202	0.099
39.900	24.522	0.100
40.000	15.005	0.100
40.100	28.593	0.100
40.200	26.615	0.100
40.300	20.399	0.100
40.400	49.876	0.099
40.500	29.999	0.100
40.600	24.395	0.100
40.700	34.477	0.099
40.800	29.026	0.100
40.900	30.979	0.100
41.000	22.805	0.099
41.100	18.879	0.100
41.200	28.176	0.100
41.300	24.371	0.100
41.400	34.164	0.100
41.500	22.583	0.099
41.600	20.054	0.100
41.700	32.746	0.100
41.800	28.556	0.099
41.900	35.102	0.100
42.000	26.320	0.099
42.100	23.643	0.100
42.200	45.878	0.100
42.300	27.372	0.100
42.400	28.194	0.099
42.500	25.457	0.099
42.600	22.343	0.099
42.700	34.199	0.099
42.800	33.267	0.099
42.900	26.315	0.100
43.000	25.248	0.099
43.100	31.805	0.100
43.200	21.981	0.100
43.300	24.205	0.099
43.400	32.128	0.100
43.500	43.952	0.100
43.600	19.667	0.099
43.700	33.929	0.099
43.800	23.984	0.099
43.900	43.399	0.099
44.000	27.016	0.100
44.100	38.469	0.100
44.200	44.483	0.100
44.300	25.644	0.100
44.400	20.956	0.099
44.500	34.943	0.099
44.600	23.750	0.100
44.700	19.457	0.100
44.800	37.001	0.099
44.900	34.219	0.100
45.000	35.054	0.100
45.100	44.493	0.099
45.200	29.074	0.099
45.300	29.459	0.100
45.400	21.103	0.100
45.500	29.440	0.100
45.600	25.716	0.100
45.700	27.763	0.100
45.800	47.601	0.099
45.900	21.221	0.100
46.000	31.616	0.100
46.100	35.151	0.099
46.200	17.138	0.099
46.300	36.314	0.099
46.400	31.582	0.100
46.500	33.548	0.099
46.600	35.096	0.099
46.700	34.659	0.100
46.800	30.231	0.100
46.900	36.960	0.100
47.000	32.929	0.100
47.100	33.862	0.100
47.200	23.869	0.100
47.300	29.910	0.100
47.400	45.140	0.100
47.500	27.098	0.100
47.600	29.981	0.100
47.700	29.764	0.099
47.800	24.531	0.099
47.900	32.515	0.100
48.000	24.003	0.100
48.100	31.033	0.100
48.200	36.883	0.100
48.300	35.695	0.100
48.400	18.867	0.099
48.500	39.304	0.099
48.600	37.871	0.100
48.700	26.733	0.100
48.800	47.473	0.100
48.900	16.895	0.100
49.000	15.293	0.099
49.100	23.916	0.100
49.200	42.908	0.100
49.300	23.269	0.099
49.400	18.725	0.100
49.500	47.729	0.100
49.600	22.501	0.100
49.700	35.039	0.100
49.800	43.031	0.099
49.900	26.621	0.099
50.000	27.437	0.099
50.100	36.135	0.100
50.200	27.630	0.100
50.300	33.927	0.100
50.400	36.931	0.100
50.500	14.698	0.100
50.600	44.725	0.100
50.700	45.780	0.099
50.800	35.778	0.100
50.900	25.436	0.100
51.000	23.335	0.100
51.100	30.160	0.099
51.200	26.216	0.100
51.300	24.566	0.100
51.400	37.800	0.100
51.500	30.808	0.100
51.600	32.039	0.099
51.700	19.154	0.100
51.800	32.796	0.100
51.900	47.083	0.099
52.000	46.640	0.100
52.100	41.808	0.099
52.200	29.641	0.100
52.300	25.095	0.100
52.400	22.665	0.099
52.500	28.190	0.099
52.600	47.442	0.099
52.700	34.819	0.100
52.800	50.249	0.100
52.900	33.932	0.100
53.000	29.842	0.100
53.100	27.334	0.099
53.200	31.469	0.100
53.300	32.378	0.100
53.400	37.540	0.100
53.500	19.718	0.100
53.600	32.251	0.100
53.700	46.638	0.100
53.800	14.010	0.100
53.900	29.558	0.100
54.000	32.361	0.100
54.100	26.350	0.100
54.200	26.070	0.100
54.300	34.811	0.100
54.400	35.699	0.100
54.500	27.172	0.100
54.600	39.445	0.100
54.700	38.396	0.100
54.800	41.552	0.100
54.900	31.535	0.100
55.000	10.550	0.100
55.100	40.450	0.099
55.200	32.188	0.100
55.300	21.527	0.100
55.400	34.350	0.100
55.500	27.334	0.100
55.600	21.791	0.100
55.700	46.491	0.100
55.800	30.126	0.100
55.900	31.853	0.100
56.000	24.181	0.100
56.100	33.254	0.100
56.200	31.765	0.100
56.300	34.439	0.100
56.400	35.514	0.100
56.500	35.685	0.100
56.600	26.011	0.100
56.700	19.716	0.100
56.800	26.758	0.100
56.900	38.178	0.100
57.000	47.091	0.100
57.100	37.709	0.100
57.200	31.672	0.100
57.300	37.315	0.100
57.400	27.134	0.100
57.500	30.382	0.100
57.600	31.004	0.099
57.700	27.989	0.100
57.800	51.218	0.100
57.900	23.831	0.100
58.000	44.323	0.100
58.100	36.102	0.100
58.200	25.017	0.100
58.300	16.463	0.100
58.400	46.730	0.100
58.500	37.084	0.100
58.600	41.248	0.100
58.700	29.308	0.100
58.800	19.744	0.100
58.900	39.030	0.100
59.000	32.459	0.100
59.100	39.858	0.100
59.200	13.663	0.100
59.300	26.903	0.100
59.400	40.684	0.100
59.500	29.589	0.100
59.600	34.686	0.100
59.700	22.336	0.099
59.800	38.018	0.099
59.900	29.511	0.100
60.000	24.031	0.100
60.100	27.012	0.099
60.200	43.197	0.099
60.300	28.230	0.100
60.400	31.262	0.100
60.500	35.268	0.100
60.600	18.806	0.099
60.700	30.407	0.100
60.800	35.141	0.100
60.900	42.301	0.100
61.000	24.948	0.099
61.100	35.328	0.099
61.200	34.861	0.099
61.300	34.939	0.100
61.400	30.544	0.099
61.500	31.265	0.099
61.600	28.317	0.100
61.700	42.731	0.100
61.800	36.182	0.100
61.900	35.809	0.099
62.000	34.140	0.100
62.100	37.947	0.099
62.200	32.732	0.100
62.300	36.858	0.100
62.400	33.736	0.100
62.500	23.066	0.100
62.600	34.126	0.099
62.700	28.053	0.100
62.800	41.483	0.099
62.900	26.091	0.100
63.000	43.187	0.100
63.100	28.397	0.100
63.200	33.644	0.099
63.300	24.045	0.100
63.400	26.685	0.100
63.500	29.534	0.099
63.600	30.306	0.100
63.700	43.413	0.099
63.800	25.349	0.099
63.900	22.573	0.099
64.000	38.281	0.100
64.100	43.009	0.100
64.200	43.398	0.099
64.300	30.564	0.100
64.400	42.632	0.099
64.500	33.586	0.100
64.600	48.581	0.100
64.700	19.918	0.100
64.800	28.523	0.100
64.900	28.064	0.100
65.000	38.176	0.100
65.100	32.224	0.099
65.200	38.016	0.100
65.300	36.377	0.100
65.400	28.452	0.099
65.500	13.364	0.100
65.600	31.431	0.100
65.700	49.049	0.099
65.800	21.027	0.099
65.900	32.757	0.100
66.000	26.080	0.100
66.100	33.823	0.100
66.200	29.691	0.100
66.300	38.725	0.099
66.400	33.730	0.100
66.500	29.966	0.100
66.600	37.753	0.100
66.700	46.039	0.099
66.800	37.068	0.100
66.900	41.948	0.100
67.000	20.554	0.099
67.100	31.291	0.099
67.200	25.715	0.099
67.300	26.672	0.099
67.400	29.373	0.100
67.500	28.022	0.099
67.600	36.443	0.099
67.700	42.093	0.099
67.800	20.768	0.100
67.900	33.871	0.100
68.000	30.101	0.099
68.100	27.867	0.099
68.200	29.023	0.099
68.300	32.392	0.100
68.400	47.932	0.100
68.500	39.546	0.100
68.600	33.404	0.100
68.700	21.628	0.100
68.800	38.381	0.100
68.900	43.709	0.099
69.000	31.557	0.099
69.100	30.751	0.100
69.200	32.061	0.100
69.300	38.065	0.100
69.400	32.633	0.100
69.500	28.127	0.099
69.600	34.542	0.100
69.700	35.891	0.099
69.800	6.817	0.100
69.900	36.482	0.099
70.000	36.362	0.099
70.100	33.002	0.100
70.200	33.275	0.100
70.300	32.243	0.100
70.400	27.273	0.099
70.500	36.908	0.100
70.600	42.564	0.100
70.700	23.548	0.100
70.800	19.033	0.100
70.900	32.407	0.099
71.000	36.762	0.100
71.100	24.522	0.100
71.200	14.409	0.100
71.300	36.841	0.100
71.400	38.129	0.100
71.500	28.893	0.100
71.600	24.799	0.100
71.700	31.706	0.100
71.800	43.525	0.100
71.900	34.327	0.099
72.000	37.149	0.100
72.100	35.886	0.100
72.200	33.364	0.099
72.300	23.212	0.100
72.400	40.974	0.100
72.500	25.697	0.099
72.600	36.708	0.100
72.700	23.367	0.099
72.800	29.951	0.099
72.900	40.828	0.099
73.000	26.449	0.100
73.100	38.910	0.100
73.200	29.796	0.100
73.300	26.832	0.099
73.400	33.173	0.100
73.500	30.473	0.100
73.600	36.534	0.100
73.700	29.347	0.100
73.800	27.871	0.100
73.900	34.921	0.100
74.000	24.588	0.100
74.100	33.382	0.099
74.200	25.707	0.099
74.300	40.675	0.100
74.400	34.842	0.100
74.500	29.373	0.100
74.600	27.754	0.100
74.700	27.133	0.100
74.800	43.143	0.099
74.900	10.998	0.099
75.000	36.288	0.100
75.100	22.000	0.099
75.200	47.439	0.100
75.300	30.799	0.100
75.400	22.943	0.099
75.500	46.371	0.100
75.600	43.153	0.100
75.700	37.956	0.099
75.800	36.271	0.100
75.900	28.398	0.100
76.000	25.871	0.100
76.100	38.271	0.099
76.200	30.638	0.100
76.300	29.032	0.100
76.400	35.577	0.099
76.500	11.697	0.099
76.600	30.870	0.099
76.700	47.094	0.099
76.800	26.800	0.099
76.900	35.815	0.099
77.000	24.407	0.099
77.100	39.017	0.099
77.200	30.517	0.099
77.300	18.971	0.099
77.400	56.078	0.099
77.500	37.485	0.100
77.600	28.198	0.100
77.700	28.854	0.100
77.800	16.469	0.100
77.900	47.838	0.100
78.000	33.272	0.100
78.100	21.272	0.100
78.200	40.913	0.099
78.300	31.404	0.099
78.400	44.173	0.100
78.500	17.756	0.100
78.600	18.338	0.100
78.700	29.146	0.099
78.800	37.267	0.100
78.900	25.009	0.099
79.000	37.920	0.100
79.100	34.795	0.100
79.200	33.188	0.099
79.300	29.859	0.099
79.400	31.075	0.100
79.500	26.493	0.100
79.600	29.948	0.100
79.700	36.655	0.100
79.800	32.160	0.100
79.900	53.345	0.100
80.000	31.306	0.100
80.100	24.916	0.099
80.200	35.839	0.100
80.300	29.248	0.100
80.400	36.682	0.100
80.500	37.628	0.100
80.600	33.721	0.100
80.700	38.327	0.100
80.800	29.857	0.100
80.900	41.947	0.100
81.000	44.404	0.100
81.100	25.657	0.100
81.200	27.934	0.100
81.300	28.804	0.099
81.400	21.273	0.100
81.500	28.918	0.099
81.600	40.716	0.100
81.700	36.734	0.100
81.800	27.518	0.100
81.900	32.894	0.100
82.000	41.679	0.099
82.100	35.885	0.100
82.200	22.955	0.100
82.300	31.058	0.099
82.400	24.298	0.100
82.500	33.425	0.100
82.600	36.204	0.099
82.700	37.487	0.100
82.800	29.093	0.099
82.900	40.663	0.099
83.000	31.869	0.100
83.100	40.255	0.100
83.200	36.037	0.100
83.300	44.253	0.100
83.400	37.981	0.099
83.500	23.176	0.100
83.600	36.354	0.099
83.700	18.075	0.100
83.800	42.252	0.100
83.900	38.303	0.100
84.000	36.896	0.100
84.100	32.844	0.099
84.200	44.113	0.100
84.300	26.585	0.100
84.400	22.411	0.100
84.500	37.227	0.100
84.600	40.225	0.100
84.700	31.474	0.100
84.800	29.912	0.100
84.900	39.077	0.100
85.000	29.376	0.100
85.100	24.690	0.100
85.200	14.420	0.100
85.300	20.756	0.100
85.400	43.145	0.100
85.500	21.262	0.100
85.600	32.080	0.100
85.700	43.962	0.100
85.800	34.335	0.100
85.900	34.935	0.099
86.000	33.858	0.100
86.100	32.328	0.100
86.200	29.884	0.100
86.300	29.941	0.099
86.400	25.751	0.099
86.500	51.640	0.100
86.600	30.705	0.099
86.700	31.456	0.100
86.800	45.000	0.100
86.900	28.717	0.100
87.000	32.904	0.100
87.100	47.528	0.100
87.200	35.280	0.100
87.300	29.813	0.100
87.400	30.103	0.100
87.500	23.787	0.100
87.600	23.569	0.100
87.700	43.675	0.099
87.800	35.588	0.100
87.900	21.402	0.100
88.000	33.046	0.100
88.100	35.330	0.099
88.200	27.767	0.100
88.300	31.274	0.100
88.400	50.259	0.100
88.500	41.468	0.100
88.600	39.832	0.100
88.700	27.921	0.100
88.800	31.121	0.100
88.900	36.049	0.100
89.000	40.934	0.100
89.100	13.771	0.099
89.200	40.919	0.100
89.300	44.995	0.100
89.400	28.624	0.100
89.500	32.685	0.099
89.600	28.639	0.100
89.700	37.758	0.100
89.800	42.654	0.100
89.900	31.411	0.100
90.000	20.990	0.100
90.100	43.916	0.100
90.200	30.048	0.100
90.300	36.396	0.100
90.400	41.674	0.100
90.500	20.335	0.100
90.600	35.542	0.100
90.700	35.861	0.100
90.800	38.244	0.100
90.900	35.270	0.100
91.000	4.734	0.100
91.100	18.321	0.100
91.200	23.832	0.100
91.300	25.128	0.099
91.400	17.354	0.100
91.500	19.483	0.100
91.600	22.683	0.099
91.700	19.108	0.100
91.800	9.682	0.100
91.900	22.394	0.100
92.000	18.410	0.099
92.100	23.541	0.100
92.200	10.957	0.099
92.300	19.693	0.100
92.400	-1.781	0.100
92.500	4.869	0.099
92.600	39.104	0.100
92.700	16.089	0.100
92.800	-2.505	0.100
92.900	1.988	0.099
93.000	-4.158	0.099
93.100	29.801	0.099
93.200	2.831	0.100
93.300	2.056	0.099
93.400	16.104	0.100
93.500	9.145	0.099
93.600	2.066	0.100
93.700	-6.721	0.099
93.800	3.755	0.099
93.900	-0.638	0.099
94.000	5.667	0.099
94.100	1.769	0.099
94.200	13.424	0.100
94.300	8.039	0.099
94.400	4.441	0.099
94.500	0.028	0.099
94.600	-3.388	0.099
94.700	13.342	0.099
94.800	-1.179	0.099
94.900	2.582	0.099
95.000	5.588	0.099
95.100	2.954	0.099
95.200	7.046	0.099
95.300	-10.805	0.099
95.400	22.067	0.099
95.500	-6.927	0.099
95.600	-9.285	0.099
95.700	-3.210	0.099
95.800	4.481	0.099
95.900	6.510	0.100
96.000	-9.273	0.099
96.100	-1.002	0.099
96.200	1.585	0.099
96.300	14.292	0.099
96.400	-10.710	0.100
96.500	-8.097	0.100
96.600	-9.487	0.100
96.700	-1.308	0.100
96.800	12.421	0.099
96.900	13.578	0.100
97.000	-3.746	0.100
97.100	3.411	0.100
97.200	-12.950	0.100
97.300	-13.576	0.100
97.400	-2.450	0.099
97.500	-1.943	0.100
97.600	8.351	0.099
97.700	1.408	0.100
97.800	-20.512	0.100
97.900	6.454	0.100
98.000	9.857	0.099
98.100	-5.025	0.099
98.200	-17.195	0.100
98.300	1.184	0.100
98.400	6.709	0.100
98.500	-3.737	0.100
98.600	-7.320	0.100
98.700	5.315	0.100
98.800	3.224	0.100
98.900	-10.235	0.100
99.000	-4.618	0.100
99.100	-1.642	0.099
99.200	-0.268	0.100
99.300	-1.056	0.100
99.400	-1.449	0.099
99.500	-11.603	0.099
99.600	-10.182	0.100
99.700	-5.419	0.100
99.800	-5.436	0.100
99.900	-11.546	0.100
100.000	9.343	0.099
100.100	-17.747	0.100
100.200	-10.705	0.099
100.300	2.031	0.100
100.400	5.402	0.099
100.500	-2.709	0.099
100.600	-11.628	0.100
100.700	-23.094	0.100
100.800	-6.835	0.099
100.900	22.716	0.100
101.000	-6.874	0.099
101.100	5.075	0.099
101.200	1.809	0.100
101.300	-6.874	0.099
101.400	2.317	0.099
101.500	-3.529	0.100
101.600	-15.083	0.099
101.700	-7.804	0.100
101.800	-8.094	0.099
101.900	-6.269	0.099
102.000	-0.198	0.099
102.100	-10.968	0.100
102.200	-5.225	0.099
102.300	-0.588	0.099
102.400	8.021	0.100
102.500	-7.158	0.100
102.600	-14.152	0.099
102.700	-6.075	0.099
102.800	-11.425	0.099
102.900	-8.056	0.099
103.000	5.967	0.100
103.100	-12.058	0.100
103.200	-2.125	0.099
103.300	-3.438	0.099
103.400	-7.230	0.099
103.500	11.029	0.099
103.600	-14.719	0.099
103.700	-5.724	0.100
103.800	-6.270	0.099
103.900	-6.431	0.100
104.000	-8.288	0.099
104.100	-21.168	0.100
104.200	-2.408	0.099
104.300	-13.913	0.099
104.400	-7.688	0.099
104.500	-2.089	0.099
104.600	-8.349	0.099
104.700	-10.825	0.099
104.800	-18.979	0.100
104.900	-22.755	0.099
105.000	-2.355	0.100
105.100	-9.012	0.100
105.200	0.663	0.100
105.300	-22.692	0.099
105.400	-6.766	0.100
105.500	-9.588	0.099
105.600	-15.966	0.100
105.700	-7.538	0.099
105.800	-30.570	0.100
105.900	-3.072	0.100
106.000	2.554	0.100
106.100	-9.432	0.100
106.200	-16.863	0.100
106.300	-14.337	0.100
106.400	-5.032	0.099
106.500	-16.977	0.099
106.600	-9.178	0.100
106.700	-7.443	0.099
106.800	0.569	0.100
106.900	-8.540	0.099
107.000	-9.866	0.100
107.100	-10.958	0.100
107.200	-15.145	0.100
107.300	-4.651	0.100
107.400	-15.507	0.099
107.500	-11.902	0.099
107.600	1.908	0.099
107.700	-7.591	0.100
107.800	-5.632	0.099
107.900	-17.777	0.100
108.000	-4.215	0.099
108.100	-6.405	0.100
108.200	-6.846	0.099
108.300	-11.460	0.099
108.400	-10.044	0.099
108.500	-18.886	0.100
108.600	-2.765	0.099
108.700	-24.107	0.099
108.800	1.594	0.100
108.900	-19.094	0.100
109.000	-10.960	0.100
109.100	-19.288	0.100
109.200	-19.897	0.100
109.300	-20.809	0.100
109.400	16.589	0.099
109.500	-11.283	0.099
109.600	-6.631	0.100
109.700	-15.580	0.100
109.800	-13.880	0.100
109.900	-7.494	0.100
110.000	-6.435	0.100
110.100	-4.246	0.100
110.200	-12.958	0.100
110.300	-11.163	0.099
110.400	-19.820	0.100
110.500	-8.800	0.100
110.600	-13.698	0.099
110.700	-15.550	0.100
110.800	-22.825	0.100
110.900	-24.705	0.099
111.000	-10.039	0.099
111.100	0.435	0.100
111.200	-14.445	0.099
111.300	-15.413	0.100
111.400	-23.273	0.100
111.500	-15.928	0.099
111.600	-23.096	0.099
111.700	-17.478	0.099
111.800	-14.246	0.099
111.900	-10.083	0.099
112.000	-13.347	0.099
112.100	-9.616	0.100
112.200	10.413	0.099
112.300	-23.789	0.100
112.400	-23.901	0.100
112.500	-7.554	0.100
112.600	-28.542	0.100
112.700	-0.399	0.100
112.800	0.435	0.100
112.900	-12.646	0.099
113.000	-9.258	0.099
113.100	-15.434	0.100
113.200	-25.252	0.099
113.300	-6.718	0.100
113.400	-3.728	0.099
113.500	-9.647	0.100
113.600	-34.888	0.100
113.700	-4.073	0.100
113.800	-17.292	0.100
113.900	-22.667	0.099
114.000	-22.876	0.100
114.100	-12.734	0.100
114.200	-13.167	0.100
114.300	-9.036	0.100
114.400	-20.290	0.100
114.500	-2.207	0.099
114.600	-13.673	0.099
114.700	-28.810	0.100
114.800	-11.191	0.100
114.900	-17.763	0.100
115.000	-2.826	0.100
115.100	-9.834	0.100
115.200	-11.616	0.100
115.300	-16.274	0.100
115.400	-18.298	0.100
115.500	-13.609	0.099
115.600	0.431	0.099
115.700	-11.445	0.100
115.800	-23.861	0.100
115.900	-7.836	0.100
116.000	-39.025	0.099
116.100	-21.512	0.100
116.200	-0.025	0.100
116.300	-18.243	0.099
116.400	-13.714	0.100
116.500	-23.367	0.100
116.600	-16.243	0.100
116.700	-11.519	0.100
116.800	-20.006	0.100
116.900	-22.365	0.100
117.000	-13.628	0.100
117.100	-12.025	0.099
117.200	-14.291	0.099
117.300	-17.831	0.100
117.400	-26.959	0.100
117.500	-12.125	0.100
117.600	-18.590	0.100
117.700	-16.997	0.100
117.800	-13.755	0.100
117.900	-15.259	0.099
118.000	-20.178	0.099
118.100	-12.597	0.100
118.200	-7.367	0.100
118.300	-14.716	0.100
118.400	-15.313	0.100
118.500	-28.386	0.100
118.600	-8.330	0.100
118.700	-7.913	0.100
118.800	-8.152	0.100
118.900	-26.643	0.100
119.000	-33.192	0.099
119.100	-9.449	0.099
119.200	11.889	0.100
119.300	-1.162	0.100
119.400	-42.818	0.100
119.500	-17.492	0.099
119.600	-19.174	0.099
119.700	-11.241	0.100
119.800	-18.878	0.099
119.900	-6.971	0.099
120.000	-20.609	0.099
120.100	-24.313	0.099
120.200	-9.650	0.100
120.300	-20.281	0.099
120.400	-20.368	0.099
120.500	-10.062	0.099
120.600	-21.249	0.099
120.700	-15.723	0.100
120.800	0.983	0.100
120.900	-7.369	0.099
121.000	-31.038	0.099
121.100	-8.427	0.099
121.200	-7.897	0.100
121.300	-14.951	0.099
121.400	-5.305	0.099
121.500	-16.980	0.099
121.600	-18.759	0.099
121.700	-10.533	0.099
121.800	-20.799	0.099
121.900	-13.536	0.099
122.000	-1.121	0.099
122.100	-28.888	0.099
122.200	-15.810	0.099
122.300	-24.212	0.099
122.400	-23.583	0.099
122.500	-6.157	0.099
122.600	-12.121	0.099
122.700	-4.730	0.100
122.800	-27.674	0.099
122.900	-29.802	0.100
123.000	-18.199	0.099
123.100	-17.016	0.100
123.200	-17.266	0.099
123.300	1.179	0.100
123.400	-5.776	0.100
123.500	-12.479	0.100
123.600	-18.052	0.100
123.700	-8.919	0.100
123.800	-17.288	0.099
123.900	-21.163	0.100
124.000	-23.668	0.100
124.100	-17.125	0.100
124.200	-9.294	0.100
124.300	-13.549	0.100
124.400	-16.750	0.099
124.500	-14.995	0.100
124.600	-25.394	0.100
124.700	-20.589	0.099
124.800	-23.651	0.100
124.900	-15.944	0.099
125.000	-19.879	0.100
125.100	-33.428	0.100
125.200	-12.979	0.099
125.300	-24.439	0.099
125.400	-14.049	0.099
125.500	-5.198	0.100
125.600	-15.708	0.100
125.700	-27.815	0.099
125.800	-11.598	0.099
125.900	-26.522	0.100
126.000	-21.002	0.100
126.100	5.020	0.100
126.200	-25.876	0.100
126.300	-26.371	0.100
126.400	-2.538	0.100
126.500	-32.922	0.100
126.600	-18.365	0.099
126.700	-20.813	0.099
126.800	-19.803	0.100
126.900	-9.033	0.100
127.000	-22.334	0.100
127.100	-21.478	0.099
127.200	-10.808	0.099
127.300	-24.112	0.099
127.400	-7.879	0.100
127.500	-17.589	0.100
127.600	-21.710	0.099
127.700	-4.719	0.100
127.800	-34.799	0.100
127.900	-8.319	0.099
128.000	-4.655	0.100
128.100	-8.403	0.099
128.200	-21.136	0.100
128.300	-33.707	0.100
128.400	-8.957	0.099
128.500	-6.080	0.099
128.600	-28.440	0.099
128.700	-12.953	0.100
128.800	-6.264	0.100
128.900	-2.913	0.100
129.000	-10.684	0.100
129.100	-14.078	0.100
129.200	-29.505	0.100
129.300	-18.170	0.100
129.400	-17.490	0.100
129.500	-12.816	0.100
129.600	5.276	0.100
129.700	-15.378	0.099
129.800	-17.375	0.100
129.900	-6.638	0.100
130.000	-15.468	0.100
130.100	-5.658	0.100
130.200	-21.101	0.100
130.300	-24.087	0.100
130.400	-14.397	0.100
130.500	-10.059	0.100
130.600	-14.597	0.100
130.700	-14.420	0.099
130.800	-18.023	0.100
130.900	-7.914	0.099
131.000	-13.079	0.100
131.100	-14.601	0.099
131.200	-21.357	0.099
131.300	-11.304	0.100
131.400	1.736	0.099
131.500	-20.650	0.099
131.600	-10.831	0.100
131.700	-5.170	0.100
131.800	-20.881	0.100
131.900	-15.108	0.099
132.000	-8.278	0.100
132.100	-17.468	0.100
132.200	-11.761	0.099
132.300	-27.030	0.099
132.400	-19.122	0.100
132.500	-20.195	0.099
132.600	-2.650	0.099
132.700	-4.041	0.100
132.800	-23.757	0.100
132.900	-7.452	0.100
133.000	-35.975	0.099
133.100	-25.999	0.099
133.200	-9.495	0.099
133.300	0.803	0.100
133.400	-13.959	0.100
133.500	-28.146	0.100
133.600	-12.620	0.100
133.700	-25.369	0.100
133.800	-25.471	0.100
133.900	-16.916	0.100
134.000	-22.503	0.100
134.100	-18.503	0.099
134.200	-9.998	0.100
134.300	-29.493	0.100
134.400	-9.315	0.100
134.500	-19.785	0.100
134.600	3.829	0.099
134.700	-12.558	0.100
134.800	-26.999	0.100
134.900	-21.547	0.099
135.000	-15.516	0.100
135.100	-9.467	0.100
135.200	-14.074	0.100
135.300	-10.694	0.100
135.400	-7.948	0.099
135.500	-22.144	0.099
135.600	-22.004	0.100
135.700	-5.754	0.100
135.800	-18.750	0.100
135.900	-16.951	0.100
136.000	-32.061	0.099
136.100	-0.836	0.100
136.200	-4.420	0.099
136.300	-15.884	0.099
136.400	-27.294	0.099
136.500	-7.767	0.099
136.600	-14.635	0.100
136.700	-18.493	0.099
136.800	-13.322	0.099
136.900	-4.656	0.100
137.000	-17.222	0.099
137.100	-18.992	0.100
137.200	-15.776	0.099
137.300	-12.701	0.100
137.400	-4.079	0.100
137.500	-23.789	0.099
137.600	-20.933	0.100
137.700	-26.464	0.099
137.800	-34.350	0.099
137.900	-12.940	0.099
138.000	-1.055	0.100
138.100	-5.566	0.099
138.200	-5.583	0.100
138.300	-18.224	0.099
138.400	-19.071	0.099
138.500	-18.393	0.099
138.600	-17.786	0.099
138.700	-27.044	0.100
138.800	4.333	0.100
138.900	-2.285	0.099
139.000	-13.388	0.099
139.100	-12.029	0.099
139.200	-18.376	0.099
139.300	-20.299	0.099
139.400	-14.452	0.099
139.500	-12.857	0.099
139.600	-16.108	0.100
139.700	-8.736	0.100
139.800	-6.593	0.099
139.900	-35.910	0.100
140.000	-11.735	0.100
140.100	-15.743	0.100
140.200	-5.663	0.099
140.300	-19.488	0.100
140.400	-20.736	0.100
140.500	-13.614	0.099
140.600	-11.367	0.100
140.700	-7.574	0.100
140.800	-23.717	0.099
140.900	-24.553	0.099
141.000	-10.798	0.099
141.100	-3.022	0.100
141.200	-2.993	0.099
141.300	-1.236	0.099
141.400	-22.522	0.099
141.500	-23.752	0.100
141.600	-12.988	0.100
141.700	-17.134	0.099
141.800	-24.808	0.099
141.900	-19.729	0.099
142.000	-11.789	0.100
142.100	-18.559	0.100
142.200	0.497	0.099
142.300	-13.078	0.100
142.400	-14.304	0.099
142.500	-12.048	0.099
142.600	-16.924	0.100
142.700	-3.082	0.100
142.800	-19.003	0.100
142.900	-20.364	0.100
143.000	-10.634	0.100
143.100	-13.911	0.100
143.200	-19.011	0.100
143.300	-4.535	0.099
143.400	-10.519	0.100
143.500	-15.349	0.100
143.600	-13.839	0.099
143.700	-27.869	0.099
143.800	-7.390	0.100
143.900	-2.085	0.100
144.000	-6.952	0.099
144.100	-18.768	0.099
144.200	-24.550	0.100
144.300	-5.272	0.099
144.400	-8.785	0.100
144.500	-13.775	0.099
144.600	-17.068	0.100
144.700	-10.536	0.100
144.800	-8.690	0.100
144.900	-17.138	0.100
145.000	-27.130	0.099
145.100	-17.178	0.099
145.200	-21.439	0.099
145.300	-10.273	0.100
145.400	2.117	0.099
145.500	-30.205	0.099
145.600	-6.667	0.099
145.700	-6.923	0.099
145.800	-9.812	0.100
145.900	-20.972	0.099
146.000	-26.111	0.099
146.100	-8.112	0.100
146.200	-16.753	0.099
146.300	-13.497	0.099
146.400	-5.685	0.100
146.500	-13.784	0.099
146.600	-17.440	0.099
146.700	-2.790	0.099
146.800	-12.641	0.099
146.900	-20.673	0.099
147.000	-10.106	0.099
147.100	-18.377	0.100
147.200	-10.426	0.099
147.300	-7.164	0.100
147.400	-12.491	0.099
147.500	-21.878	0.099
147.600	-14.197	0.100
147.700	-3.581	0.100
147.800	-7.721	0.099
147.900	-10.901	0.100
148.000	-17.486	0.099
148.100	-18.940	0.099
148.200	-11.675	0.099
148.300	0.093	0.100
148.400	-26.961	0.100
148.500	-8.165	0.099
148.600	0.947	0.100
148.700	-15.383	0.099
148.800	-11.553	0.099
148.900	-18.108	0.099
149.000	-6.251	0.100
149.100	-15.085	0.100
149.200	-13.804	0.099
149.300	-31.855	0.099
149.400	-19.287	0.099
149.500	-17.423	0.099
149.600	-17.194	0.100
149.700	-27.518	0.099
149.800	-9.991	0.099
149.900	-2.299	0.100
150.000	-11.204	0.099
150.100	9.698	0.099
150.200	-16.059	0.099
150.300	-18.017	0.100
150.400	-27.288	0.100
150.500	4.515	0.099
150.600	-10.569	0.100
150.700	-18.178	0.099
150.800	-23.218	0.099
150.900	7.178	0.099
151.000	-18.059	0.099
151.100	-7.325	0.099
151.200	-5.983	0.099
151.300	-13.785	0.099
151.400	-25.929	0.100
151.500	-15.224	0.099
151.600	-22.612	0.099
151.700	-3.156	0.099
151.800	-8.605	0.099
151.900	3.988	0.099
152.000	3.610	0.099
152.100	-10.495	0.099
152.200	-5.491	0.099
152.300	-9.509	0.099
152.400	-15.525	0.100
152.500	-13.153	0.100
152.600	-11.622	0.100
152.700	-0.694	0.100
152.800	-18.976	0.100
152.900	-9.669	0.099
153.000	-15.461	0.099
153.100	-22.932	0.100
153.200	-17.667	0.099
153.300	-6.104	0.099
153.400	-9.437	0.099
153.500	0.301	0.099
153.600	-15.250	0.099
153.700	-12.790	0.100
153.800	-20.044	0.099
153.900	-6.203	0.099
154.000	-14.512	0.099
154.100	-16.355	0.099
154.200	4.070	0.100
154.300	-1.564	0.099
154.400	-10.045	0.099
154.500	-11.642	0.100
154.600	-18.381	0.099
154.700	-5.780	0.099
154.800	-10.236	0.099
154.900	-16.047	0.100
155.000	-25.563	0.100
155.100	-16.673	0.100
155.200	-7.693	0.100
155.300	-22.147	0.100
155.400	-11.355	0.099
155.500	-6.671	0.100
155.600	-9.763	0.099
155.700	-10.784	0.100
155.800	-12.103	0.099
155.900	-2.208	0.099
156.000	-10.239	0.099
156.100	-4.740	0.100
156.200	-12.706	0.100
156.300	-5.195	0.099
156.400	-6.160	0.099
156.500	-16.029	0.100
156.600	-7.612	0.100
156.700	-17.597	0.099
156.800	3.376	0.099
156.900	-13.174	0.099
157.000	3.141	0.099
157.100	-21.534	0.100
157.200	-26.194	0.099
157.300	5.473	0.099
157.400	-10.357	0.099
157.500	-17.147	0.099
157.600	-13.381	0.099
157.700	-9.778	0.099
157.800	-9.141	0.100
157.900	-8.659	0.099
158.000	-27.272	0.099
158.100	4.336	0.099
158.200	1.234	0.099
158.300	-5.848	0.099
158.400	-3.585	0.099
158.500	-10.246	0.099
158.600	-8.104	0.099
158.700	-16.157	0.099
158.800	-16.642	0.100
158.900	-13.000	0.099
159.000	-10.717	0.099
159.100	-26.712	0.099
159.200	-15.289	0.099
159.300	-11.938	0.100
159.400	-10.349	0.099
159.500	-5.131	0.099
159.600	-11.763	0.099
159.700	-12.936	0.099
159.800	-9.010	0.099
159.900	-9.700	0.099
160.000	-23.904	0.099
160.100	-20.388	0.099
160.200	-7.885	0.100
160.300	-2.624	0.100
160.400	-6.932	0.100
160.500	-7.516	0.099
160.600	-9.101	0.099
160.700	-16.896	0.100
160.800	-18.655	0.099
160.900	-4.733	0.100
161.000	10.389	0.099
161.100	-4.954	0.099
161.200	-12.625	0.099
161.300	-4.570	0.099
161.400	-6.123	0.099
161.500	-7.057	0.100
161.600	-1.335	0.099
161.700	1.117	0.099
161.800	-4.608	0.099
161.900	-10.025	0.099
162.000	-13.697	0.099
162.100	-11.155	0.099
162.200	-7.917	0.100
162.300	-5.946	0.099
162.400	4.324	0.100
162.500	-22.907	0.099
162.600	-22.499	0.099
162.700	-3.195	0.100
162.800	-22.259	0.099
162.900	-7.562	0.099
163.000	-24.267	0.100
163.100	10.583	0.099
163.200	-10.786	0.099
163.300	-1.839	0.100
163.400	-19.697	0.100
163.500	-0.265	0.099
163.600	-9.251	0.100
163.700	-2.656	0.100
163.800	-8.443	0.099
163.900	-11.896	0.099
164.000	-19.075	0.099
164.100	-3.666	0.099
164.200	-24.876	0.099
164.300	-5.925	0.100
164.400	12.044	0.099
164.500	-17.596	0.099
164.600	-19.924	0.100
164.700	14.408	0.100
164.800	-10.658	0.099
164.900	6.572	0.100
165.000	-1.195	0.100
165.100	-9.431	0.099
165.200	-7.763	0.099
165.300	8.379	0.099
165.400	-20.859	0.099
165.500	-27.675	0.099
165.600	-18.203	0.099
165.700	-6.992	0.099
165.800	-6.174	0.099
165.900	-3.445	0.099
166.000	-0.904	0.099
166.100	-10.364	0.099
166.200	-30.114	0.099
166.300	1.685	0.099
166.400	-4.724	0.099
166.500	-6.011	0.100
166.600	-8.469	0.100
166.700	5.910	0.099
166.800	-10.582	0.099
166.900	-16.639	0.099
167.000	-2.822	0.100
167.100	-25.508	0.099
167.200	-6.198	0.099
167.300	-2.669	0.099
167.400	7.111	0.099
167.500	-4.739	0.099
167.600	3.728	0.100
167.700	-8.463	0.099
167.800	-4.615	0.099
167.900	-26.805	0.099
168.000	-12.202	0.099
168.100	2.545	0.099
168.200	-10.193	0.099
168.300	-11.319	0.099
168.400	-14.328	0.099
168.500	10.416	0.099
168.600	-7.055	0.099
168.700	-6.537	0.099
168.800	-12.465	0.099
168.900	-16.857	0.099
169.000	-5.182	0.099
169.100	-7.029	0.099
169.200	-7.240	0.099
169.300	-10.580	0.099
169.400	-8.298	0.099
169.500	-16.502	0.099
169.600	-4.745	0.099
169.700	-4.540	0.099
169.800	-7.715	0.099
169.900	-2.923	0.099
170.000	-15.687	0.099
170.100	-9.030	0.099
170.200	-8.281	0.100
170.300	-10.848	0.099
170.400	-1.571	0.099
170.500	-14.924	0.099
170.600	0.559	0.099
170.700	-11.344	0.099
170.800	-4.446	0.099
170.900	-13.050	0.099
171.000	-9.426	0.099
171.100	-12.128	0.099
171.200	-9.808	0.099
171.300	0.377	0.099
171.400	-18.563	0.099
171.500	-15.135	0.099
171.600	4.749	0.099
171.700	7.260	0.099
171.800	-3.981	0.099
171.900	-10.046	0.099
172.000	-23.875	0.099
172.100	-9.625	0.099
172.200	-22.671	0.099
172.300	-15.491	0.099
172.400	-6.637	0.099
172.500	-14.704	0.099
172.600	-10.692	0.099
172.700	-2.841	0.100
172.800	-5.743	0.099
172.900	-8.485	0.099
173.000	-17.755	0.099
173.100	-4.871	0.099
173.200	1.986	0.099
173.300	-14.449	0.100
173.400	-5.987	0.099
173.500	-2.772	0.099
173.600	-14.403	0.099
173.700	14.571	0.099
173.800	-8.933	0.099
173.900	5.261	0.099
174.000	-22.618	0.099
174.100	-8.254	0.099
174.200	-16.533	0.099
174.300	-8.081	0.099
174.400	-19.923	0.099
174.500	0.482	0.099
174.600	-6.584	0.099
174.700	-9.259	0.099
174.800	-3.155	0.099
174.900	-12.586	0.099
175.000	-7.956	0.099
175.100	-5.275	0.099
175.200	-11.215	0.099
175.300	-12.894	0.099
175.400	-10.525	0.099
175.500	-1.910	0.099
175.600	-9.535	0.099
175.700	-12.961	0.100
175.800	-10.398	0.099
175.900	9.945	0.099
176.000	-0.169	0.099
176.100	-8.968	0.099
176.200	-6.208	0.099
176.300	-13.598	0.099
176.400	-10.035	0.099
176.500	-18.791	0.099
176.600	7.178	0.099
176.700	-7.389	0.099
176.800	-22.691	0.099
176.900	-8.980	0.099
177.000	-12.721	0.099
177.100	1.753	0.099
177.200	-2.691	0.099
177.300	-0.467	0.099
177.400	-0.751	0.099
177.500	-26.070	0.099
177.600	2.781	0.099
177.700	-19.057	0.099
177.800	-10.555	0.100
177.900	-18.821	0.099
178.000	-7.915	0.099
178.100	-15.648	0.099
178.200	-10.814	0.100
178.300	-2.371	0.100
178.400	-12.689	0.099
178.500	-6.945	0.099
178.600	3.368	0.099
178.700	3.414	0.099
178.800	-15.270	0.099
178.900	-11.289	0.099
179.000	3.192	0.099
179.100	4.537	0.099
179.200	-7.867	0.099
179.300	-17.136	0.099
179.400	-17.051	0.099
179.500	-1.574	0.099
179.600	-11.828	0.099
179.700	-10.467	0.099
179.800	-3.154	0.100
179.900	-15.883	0.099
180.000	-18.356	0.099
180.100	-25.790	0.099
180.200	-5.738	0.099
180.300	-4.734	0.099
180.400	-16.624	0.099
180.500	-0.283	0.099
180.600	-4.801	0.099
180.700	-10.768	0.099
180.800	-2.460	0.099
180.900	-5.347	0.099
181.000	-6.417	0.099
181.100	10.966	0.099
181.200	-8.307	0.099
181.300	9.349	0.099
181.400	6.623	0.099
181.500	1.390	0.099
181.600	6.858	0.099
181.700	13.658	0.099
181.800	6.265	0.099
181.900	0.384	0.100
182.000	10.371	0.099
182.100	10.931	0.099
182.200	21.023	0.099
182.300	13.342	0.100
182.400	13.836	0.099
182.500	8.400	0.099
182.600	24.167	0.099
182.700	1.336	0.099
182.800	33.702	0.099
182.900	28.554	0.099
183.000	8.396	0.099
183.100	12.098	0.099
183.200	23.607	0.099
183.300	18.407	0.099
183.400	25.358	0.099
183.500	19.976	0.099
183.600	16.977	0.099
183.700	8.985	0.099
183.800	32.706	0.099
183.900	27.311	0.099
184.000	26.061	0.099
184.100	13.460	0.100
184.200	24.967	0.099
184.300	26.040	0.099
184.400	12.941	0.099
184.500	31.161	0.099
184.600	23.451	0.100
184.700	25.127	0.099
184.800	18.692	0.099
184.900	26.969	0.099
185.000	19.773	0.099
185.100	24.962	0.099
185.200	6.782	0.099
185.300	35.978	0.099
185.400	29.128	0.099
185.500	27.417	0.100
185.600	15.900	0.099
185.700	17.157	0.100
185.800	20.020	0.099
185.900	12.104	0.099
186.000	27.989	0.099
186.100	10.682	0.099
186.200	37.794	0.099
186.300	21.374	0.099
186.400	16.101	0.100
186.500	28.501	0.100
186.600	6.273	0.099
186.700	28.495	0.099
186.800	30.247	0.100
186.900	23.285	0.099
187.000	10.133	0.100
187.100	33.124	0.100
187.200	9.639	0.099
187.300	30.497	0.099
187.400	31.750	0.100
187.500	23.588	0.100
187.600	18.982	0.099
187.700	21.638	0.099
187.800	29.463	0.099
187.900	21.271	0.099
188.000	3.528	0.099
188.100	32.458	0.099
188.200	58.060	0.099
188.300	25.161	0.099
188.400	5.076	0.099
188.500	17.777	0.099
188.600	35.057	0.099
188.700	19.407	0.099
188.800	27.610	0.099
188.900	19.859	0.099
189.000	26.919	0.099
189.100	23.663	0.099
189.200	33.060	0.099
189.300	17.494	0.099
189.400	24.102	0.099
189.500	23.363	0.099
189.600	31.418	0.099
189.700	29.174	0.100
189.800	26.195	0.099
189.900	27.763	0.099
190.000	33.137	0.099
190.100	31.058	0.099
190.200	11.611	0.100
190.300	16.133	0.099
190.400	23.669	0.099
190.500	32.588	0.099
190.600	26.624	0.099
190.700	29.550	0.099
190.800	34.904	0.099
190.900	22.486	0.099
191.000	34.043	0.099
191.100	25.224	0.099
191.200	29.351	0.099
191.300	38.262	0.099
191.400	20.419	0.099
191.500	51.886	0.099
191.600	39.237	0.100
191.700	25.780	0.099
191.800	24.170	0.100
191.900	25.257	0.099
192.000	44.569	0.099
192.100	27.248	0.099
192.200	32.942	0.099
192.300	31.417	0.099
192.400	17.265	0.099
192.500	39.579	0.099
192.600	31.586	0.099
192.700	47.175	0.099
192.800	32.667	0.099
192.900	40.692	0.099
193.000	28.009	0.099
193.100	33.033	0.099
193.200	22.368	0.099
193.300	31.900	0.099
193.400	42.212	0.099
193.500	25.993	0.099
193.600	32.503	0.099
193.700	27.571	0.099
193.800	38.243	0.099
193.900	42.222	0.099
194.000	30.134	0.099
194.100	37.482	0.099
194.200	37.536	0.100
194.300	29.018	0.099
194.400	41.358	0.099
194.500	42.774	0.099
194.600	30.682	0.099
194.700	44.228	0.099
194.800	29.091	0.099
194.900	17.597	0.099
195.000	28.693	0.099
195.100	36.803	0.099
195.200	39.122	0.099
195.300	40.192	0.099
195.400	41.534	0.099
195.500	37.414	0.099
195.600	34.525	0.099
195.700	33.612	0.099
195.800	31.732	0.099
195.900	35.519	0.099
196.000	42.604	0.099
196.100	26.909	0.099
196.200	39.178	0.099
196.300	36.862	0.099
196.400	38.689	0.099
196.500	30.037	0.099
196.600	48.775	0.099
196.700	35.031	0.099
196.800	37.308	0.099
196.900	45.787	0.099
197.000	45.881	0.099
197.100	44.927	0.100
197.200	30.643	0.099
197.300	49.587	0.099
197.400	48.218	0.099
197.500	23.808	0.099
197.600	36.402	0.099
197.700	29.968	0.099
197.800	39.872	0.099
197.900	27.903	0.099
198.000	43.319	0.099
198.100	30.363	0.099
198.200	38.716	0.099
198.300	30.945	0.099
198.400	43.535	0.099
198.500	49.824	0.100
198.600	35.667	0.099
198.700	58.656	0.099
198.800	29.786	0.099
198.900	32.080	0.099
199.000	43.817	0.099
199.100	43.156	0.099
199.200	38.419	0.099
199.300	35.458	0.099
199.400	56.299	0.099
199.500	29.799	0.099
199.600	32.374	0.099
199.700	43.419	0.099
199.800	32.036	0.100
199.900	40.959	0.099
200.000	39.462	0.099
200.100	28.190	0.099
200.200	33.103	0.099
200.300	53.530	0.099
200.400	41.448	0.099
200.500	35.710	0.099
200.600	43.704	0.099
200.700	31.944	0.099
200.800	28.125	0.099
200.900	34.043	0.099
201.000	31.961	0.099
201.100	34.938	0.100
201.200	49.893	0.099
201.300	47.804	0.099
201.400	21.683	0.099
201.500	36.531	0.099
201.600	41.233	0.099
201.700	44.345	0.099
201.800	42.756	0.099
201.900	49.867	0.099
202.000	26.850	0.099
202.100	30.691	0.099
202.200	35.142	0.099
202.300	38.359	0.099
202.400	43.945	0.099
202.500	30.391	0.099
202.600	51.620	0.099
202.700	37.182	0.099
202.800	32.837	0.099
202.900	56.111	0.099
203.000	38.773	0.099
203.100	30.270	0.099
203.200	54.682	0.099
203.300	38.545	0.099
203.400	22.140	0.099
203.500	39.770	0.099
203.600	37.976	0.099
203.700	43.645	0.100
203.800	28.691	0.099
203.900	49.876	0.099
204.000	31.163	0.099
204.100	45.516	0.099
204.200	17.166	0.099
204.300	31.812	0.099
204.400	49.819	0.099
204.500	48.616	0.099
204.600	30.920	0.099
204.700	36.533	0.099
204.800	35.549	0.099
204.900	38.787	0.099
205.000	46.360	0.099
205.100	34.743	0.099
205.200	46.090	0.099
205.300	36.327	0.099
205.400	39.207	0.099
205.500	51.798	0.099
205.600	44.001	0.099
205.700	21.165	0.099
205.800	39.003	0.099
205.900	34.339	0.099
206.000	32.980	0.099
206.100	46.356	0.099
206.200	46.034	0.099
206.300	28.309	0.099
206.400	27.681	0.099
206.500	33.720	0.099
206.600	37.322	0.099
206.700	55.598	0.099
206.800	38.309	0.099
206.900	48.959	0.100
207.000	36.460	0.099
207.100	28.056	0.099
207.200	36.718	0.099
207.300	38.853	0.099
207.400	35.786	0.099
207.500	41.354	0.099
207.600	41.741	0.099
207.700	19.321	0.099
207.800	48.166	0.100
207.900	45.544	0.100
208.000	31.452	0.099
208.100	45.636	0.099
208.200	43.950	0.099
208.300	37.430	0.099
208.400	26.611	0.099
208.500	48.220	0.099
208.600	48.175	0.099
208.700	42.037	0.099
208.800	33.780	0.099
208.900	42.816	0.099
209.000	54.983	0.099
209.100	34.338	0.099
209.200	26.062	0.099
209.300	13.996	0.099
209.400	51.595	0.099
209.500	49.318	0.099
209.600	40.248	0.099
209.700	19.611	0.099
209.800	40.559	0.099
209.900	46.321	0.099
210.000	39.286	0.099
210.100	57.094	0.099
210.200	36.175	0.099
210.300	35.841	0.099
210.400	35.928	0.099
210.500	35.145	0.099
210.600	44.936	0.099
210.700	43.420	0.099
210.800	33.386	0.099
210.900	32.427	0.099
211.000	50.162	0.099
211.100	39.618	0.099
211.200	58.969	0.099
211.300	34.027	0.099
211.400	33.178	0.099
211.500	35.099	0.099
211.600	28.166	0.099
211.700	41.155	0.099
211.800	39.060	0.099
211.900	25.226	0.099
212.000	36.440	0.100
212.100	40.004	0.099
212.200	23.657	0.099
212.300	32.020	0.099
212.400	49.862	0.099
212.500	26.849	0.099
212.600	41.781	0.099
212.700	45.365	0.099
212.800	27.002	0.099
212.900	44.604	0.099
213.000	33.655	0.099
213.100	55.825	0.099
213.200	30.696	0.099
213.300	38.068	0.099
213.400	36.731	0.099
213.500	29.866	0.099
213.600	44.182	0.099
213.700	45.572	0.099
213.800	25.438	0.099
213.900	27.963	0.099
214.000	43.822	0.100
214.100	43.586	0.099
214.200	45.504	0.099
214.300	45.727	0.099
214.400	32.776	0.099
214.500	31.270	0.099
214.600	36.252	0.099
214.700	37.809	0.099
214.800	37.410	0.099
214.900	32.332	0.099
215.000	39.346	0.099
215.100	38.854	0.100
215.200	42.372	0.100
215.300	28.200	0.099
215.400	36.435	0.099
215.500	46.692	0.099
215.600	45.176	0.099
215.700	43.615	0.099
215.800	46.419	0.099
215.900	26.219	0.100
216.000	31.736	0.099
216.100	32.722	0.099
216.200	37.912	0.099
216.300	42.507	0.099
216.400	36.271	0.100
216.500	35.004	0.099
216.600	26.734	0.099
216.700	47.177	0.099
216.800	33.324	0.099
216.900	32.164	0.099
217.000	38.562	0.100
217.100	52.227	0.100
217.200	34.012	0.099
217.300	24.365	0.100
217.400	38.097	0.099
217.500	57.378	0.099
217.600	23.868	0.099
217.700	27.788	0.099
217.800	40.598	0.099
217.900	40.947	0.099
218.000	50.102	0.099
218.100	30.369	0.099
218.200	41.064	0.099
218.300	26.613	0.099
218.400	35.209	0.099
218.500	59.480	0.099
218.600	38.512	0.099
218.700	35.357	0.100
218.800	36.854	0.099
218.900	38.597	0.099
219.000	21.848	0.099
219.100	26.953	0.099
219.200	51.470	0.099
219.300	28.666	0.100
219.400	36.792	0.099
219.500	51.532	0.099
219.600	46.197	0.099
219.700	32.012	0.099
219.800	27.162	0.099
219.900	24.592	0.099
220.000	29.263	0.099
220.100	45.337	0.099
220.200	43.055	0.099
220.300	39.462	0.099
220.400	32.162	0.099
220.500	39.490	0.099
220.600	30.253	0.099
220.700	50.966	0.100
220.800	19.163	0.099
220.900	41.891	0.100
221.000	35.950	0.100
221.100	40.165	0.099
221.200	41.709	0.099
221.300	23.220	0.100
221.400	35.032	0.099
221.500	46.443	0.100
221.600	37.785	0.099
221.700	35.139	0.099
221.800	31.520	0.100
221.900	41.364	0.099
222.000	36.760	0.099
222.100	43.145	0.100
222.200	41.227	0.099
222.300	39.072	0.100
222.400	38.628	0.099
222.500	43.084	0.099
222.600	22.530	0.099
222.700	44.287	0.099
222.800	36.290	0.100
222.900	42.639	0.099
223.000	40.915	0.100
223.100	48.260	0.099
223.200	26.294	0.100
223.300	32.311	0.100
223.400	29.016	0.099
223.500	35.791	0.099
223.600	41.044	0.100
223.700	39.280	0.099
223.800	36.490	0.100
223.900	48.836	0.100
224.000	31.547	0.100
224.100	31.692	0.100
224.200	56.666	0.099
224.300	28.947	0.100
224.400	35.280	0.100
224.500	36.817	0.100
224.600	42.052	0.099
224.700	28.008	0.099
224.800	41.405	0.100
224.900	30.183	0.100
225.000	20.415	0.099
225.100	33.608	0.100
225.200	36.351	0.099
225.300	38.107	0.099
225.400	34.130	0.100
225.500	43.039	0.099
225.600	38.262	0.100
225.700	22.955	0.100
225.800	46.205	0.099
225.900	33.832	0.099
226.000	36.937	0.099
226.100	38.127	0.099
226.200	15.314	0.099
226.300	41.189	0.099
226.400	23.246	0.099
226.500	48.240	0.100
226.600	49.285	0.099
226.700	34.962	0.099
226.800	30.649	0.100
226.900	52.544	0.100
227.000	45.657	0.099
227.100	22.459	0.099
227.200	45.224	0.099
227.300	37.040	0.099
227.400	32.468	0.099
227.500	27.944	0.099
227.600	44.754	0.100
227.700	44.994	0.099
227.800	41.988	0.099
227.900	41.280	0.099
228.000	32.562	0.099
228.100	14.238	0.099
228.200	28.604	0.099
228.300	32.651	0.099
228.400	25.463	0.099
228.500	44.119	0.099
228.600	43.849	0.099
228.700	38.154	0.099
228.800	27.805	0.099
228.900	48.697	0.099
229.000	36.426	0.100
229.100	26.294	0.100
229.200	30.099	0.099
229.300	37.739	0.099
229.400	27.620	0.099
229.500	40.823	0.099
229.600	46.693	0.099
229.700	36.133	0.100
229.800	40.494	0.099
229.900	31.430	0.099
230.000	46.090	0.100
230.100	31.333	0.099
230.200	30.412	0.099
230.300	28.166	0.099
230.400	17.232	0.099
230.500	38.539	0.099
230.600	41.589	0.099
230.700	45.409	0.099
230.800	38.773	0.099
230.900	25.059	0.099
231.000	27.522	0.099
231.100	33.548	0.099
231.200	42.472	0.099
231.300	42.546	0.099
231.400	29.727	0.099
231.500	40.886	0.100
231.600	32.826	0.099
231.700	29.443	0.099
231.800	57.854	0.100
231.900	36.139	0.099
232.000	40.972	0.099
232.100	36.981	0.099
232.200	31.775	0.099
232.300	30.290	0.100
232.400	30.317	0.099
232.500	33.515	0.099
232.600	39.525	0.099
232.700	44.490	0.099
232.800	34.165	0.099
232.900	35.004	0.099
233.000	37.860	0.099
233.100	36.680	0.099
233.200	45.564	0.100
233.300	14.898	0.099
233.400	36.893	0.099
233.500	42.583	0.099
233.600	19.753	0.099
233.700	26.698	0.099
233.800	38.712	0.099
233.900	32.241	0.099
234.000	38.326	0.099
234.100	40.806	0.099
234.200	32.052	0.100
234.300	27.455	0.099
234.400	41.342	0.099
234.500	30.282	0.099
234.600	20.019	0.099
234.700	35.031	0.099
234.800	22.771	0.099
234.900	50.367	0.099
235.000	58.383	0.099
235.100	34.645	0.099
235.200	13.952	0.099
235.300	30.021	0.099
235.400	26.751	0.099
235.500	33.126	0.099
235.600	32.124	0.099
235.700	38.339	0.099
235.800	40.435	0.099
235.900	34.979	0.100
236.000	24.900	0.099
236.100	44.512	0.099
236.200	18.470	0.099
236.300	39.546	0.099
236.400	37.783	0.099
236.500	34.121	0.099
236.600	46.836	0.100
236.700	34.554	0.099
236.800	19.983	0.099
236.900	13.468	0.099
237.000	25.359	0.099
237.100	34.990	0.099
237.200	39.815	0.099
237.300	39.360	0.099
237.400	33.569	0.099
237.500	41.287	0.099
237.600	18.677	0.099
237.700	41.742	0.100
237.800	30.892	0.099
237.900	36.512	0.099
238.000	24.033	0.099
238.100	45.057	0.099
238.200	27.010	0.099
238.300	26.555	0.099
238.400	33.586	0.100
238.500	40.792	0.099
238.600	34.836	0.099
238.700	38.935	0.099
238.800	31.895	0.099
238.900	16.547	0.099
239.000	36.647	0.099
239.100	44.639	0.099
239.200	20.868	0.099
239.300	42.317	0.100
239.400	43.758	0.099
239.500	21.085	0.099
239.600	28.050	0.099
239.700	49.970	0.099
239.800	18.684	0.099
239.900	20.990	0.099
240.000	36.767	0.099
240.100	27.915	0.099
240.200	29.830	0.099
240.300	45.992	0.099
240.400	47.090	0.100
240.500	24.251	0.099
240.600	35.656	0.100
240.700	37.550	0.100
240.800	31.225	0.099
240.900	32.251	0.099
241.000	20.054	0.100
241.100	26.499	0.099
241.200	30.160	0.099
241.300	17.487	0.099
241.400	12.993	0.099
241.500	8.526	0.099
241.600	27.720	0.099
241.700	26.274	0.099
241.800	12.473	0.099
241.900	10.181	0.099
242.000	2.876	0.100
242.100	7.289	0.099
242.200	-1.739	0.099
242.300	6.562	0.100
242.400	17.596	0.099
242.500	18.703	0.099
242.600	9.319	0.099
242.700	10.882	0.100
242.800	-14.781	0.099
242.900	3.434	0.099
243.000	-11.934	0.099
243.100	4.751	0.099
243.200	-4.189	0.099
243.300	-1.117	0.099
243.400	1.747	0.099
243.500	-8.591	0.099
243.600	-0.021	0.100
243.700	-5.996	0.099
243.800	-2.367	0.099
243.900	10.004	0.099
244.000	1.930	0.099
244.100	5.838	0.099
244.200	-0.649	0.099
244.300	5.553	0.099
244.400	5.711	0.099
244.500	-11.071	0.099
244.600	-5.630	0.099
244.700	-2.709	0.099
244.800	-4.937	0.099
244.900	-7.798	0.099
245.000	-21.040	0.099
245.100	-9.834	0.099
245.200	8.541	0.099
245.300	1.360	0.099
245.400	3.981	0.099
245.500	9.252	0.099
245.600	-11.465	0.099
245.700	-5.655	0.099
245.800	-1.188	0.099
245.900	3.849	0.099
246.000	-4.851	0.099
246.100	-14.391	0.099
246.200	5.453	0.099
246.300	-14.025	0.099
246.400	6.242	0.099
246.500	-0.712	0.099
246.600	-15.597	0.099
246.700	0.832	0.099
246.800	-7.138	0.099
246.900	-25.243	0.099
247.000	-7.071	0.100
247.100	-13.413	0.099
247.200	7.173	0.099
247.300	6.535	0.099
247.400	-0.390	0.099
247.500	-15.439	0.099
247.600	1.569	0.099
247.700	-13.046	0.099
247.800	-25.471	0.099
247.900	-14.795	0.100
248.000	1.390	0.099
248.100	7.324	0.099
248.200	-14.848	0.099
248.300	-9.039	0.099
248.400	-3.846	0.099
248.500	-7.279	0.099
248.600	7.712	0.099
248.700	-4.296	0.099
248.800	-13.818	0.100
248.900	-7.104	0.099
249.000	-6.832	0.099
249.100	-6.860	0.099
249.200	-15.426	0.099
249.300	-7.180	0.099
249.400	1.310	0.099
249.500	-13.782	0.099
249.600	-36.427	0.099
249.700	-11.229	0.099
249.800	-0.349	0.099
249.900	5.115	0.099
250.000	-28.439	0.099
250.100	-0.239	0.100
250.200	2.215	0.099
250.300	-0.634	0.100
250.400	-19.139	0.099
250.500	-17.832	0.099
250.600	-19.463	0.099
250.700	-3.813	0.099
250.800	-1.204	0.100
250.900	-2.131	0.099
251.000	-4.277	0.100
251.100	-12.678	0.099
251.200	-7.258	0.099
251.300	-15.085	0.099
251.400	-21.102	0.099
251.500	-15.786	0.099
251.600	-9.902	0.100
251.700	-27.383	0.099
251.800	-12.056	0.099
251.900	2.676	0.099
252.000	-13.926	0.099
252.100	-12.238	0.099
252.200	-23.018	0.099
252.300	-8.609	0.100
252.400	-12.159	0.100
252.500	-12.033	0.099
252.600	-3.644	0.099
252.700	-23.750	0.099
252.800	-18.410	0.099
252.900	-21.224	0.099
253.000	-15.082	0.099
253.100	-18.155	0.099
253.200	1.283	0.099
253.300	-16.291	0.099
253.400	0.144	0.099
253.500	-3.000	0.099
253.600	-14.657	0.099
253.700	-9.271	0.099
253.800	-17.045	0.099
253.900	-11.971	0.099
254.000	-8.376	0.099
254.100	-9.339	0.099
254.200	-5.067	0.099
254.300	-26.933	0.100
254.400	-14.346	0.100
254.500	-19.350	0.099
254.600	3.770	0.100
254.700	4.698	0.099
254.800	-9.414	0.099
254.900	-22.364	0.100
255.000	-24.598	0.099
255.100	-7.478	0.099
255.200	-10.489	0.099
255.300	-6.366	0.099
255.400	-13.128	0.100
255.500	-12.288	0.100
255.600	-15.720	0.099
255.700	-10.442	0.100
255.800	-19.702	0.099
255.900	0.645	0.099
256.000	-15.975	0.100
256.100	-14.735	0.100
256.200	-17.110	0.099
256.300	-13.398	0.099
256.400	-27.145	0.099
256.500	-6.610	0.099
256.600	1.741	0.099
256.700	-22.720	0.099
256.800	-14.388	0.099
256.900	-30.374	0.099
257.000	-21.448	0.099
257.100	-21.472	0.099
257.200	-17.863	0.099
257.300	-17.882	0.099
257.400	-14.391	0.100
257.500	0.762	0.099
257.600	-18.729	0.099
257.700	-14.606	0.100
257.800	-19.057	0.099
257.900	-22.524	0.099
258.000	-17.008	0.099
258.100	-10.810	0.099
258.200	-24.506	0.099
258.300	-22.483	0.099
258.400	-15.457	0.099
258.500	-17.806	0.100
258.600	-22.266	0.099
258.700	-18.973	0.099
258.800	-18.401	0.099
258.900	-21.511	0.100
259.000	-9.749	0.099
259.100	-16.410	0.099
259.200	-26.475	0.100
259.300	-22.933	0.099
259.400	-36.549	0.099
259.500	-24.334	0.099
259.600	-0.345	0.099
259.700	-7.174	0.099
259.800	-8.868	0.099
259.900	-24.027	0.099
260.000	-28.633	0.099
260.100	-13.543	0.099
260.200	-8.409	0.099
260.300	-17.797	0.099
260.400	-18.809	0.099
260.500	-11.668	0.099
260.600	-23.134	0.100
260.700	-27.691	0.099
260.800	-14.071	0.099
260.900	-16.404	0.099
261.000	-23.832	0.100
261.100	-15.097	0.099
261.200	-15.066	0.099
261.300	-9.818	0.099
261.400	-19.122	0.099
261.500	-23.521	0.099
261.600	-23.359	0.099
261.700	-7.218	0.099
261.800	-25.987	0.099
261.900	-25.836	0.099
262.000	-24.136	0.100
262.100	-12.415	0.099
262.200	-23.680	0.099
262.300	-17.282	0.099
262.400	-23.335	0.099
262.500	-15.464	0.099
262.600	-14.836	0.099
262.700	-13.306	0.100
262.800	-37.235	0.099
262.900	-24.591	0.100
263.000	-7.743	0.100
263.100	-19.277	0.099
263.200	-12.779	0.099
263.300	-12.538	0.099
263.400	-19.085	0.099
263.500	-39.802	0.099
263.600	-13.920	0.099
263.700	-25.402	0.099
263.800	-13.719	0.099
263.900	-17.138	0.099
264.000	-23.281	0.099
264.100	-12.321	0.099
264.200	-23.036	0.099
264.300	-25.632	0.099
264.400	-18.127	0.099
264.500	-13.855	0.099
264.600	-13.983	0.099
264.700	-31.017	0.099
264.800	-17.288	0.099
264.900	-10.876	0.099
265.000	-37.319	0.099
265.100	-36.628	0.099
265.200	-24.498	0.099
265.300	-8.688	0.099
265.400	-22.690	0.099
265.500	-31.968	0.099
265.600	-36.986	0.099
265.700	-8.804	0.099
265.800	-6.126	0.099
265.900	-16.044	0.099
266.000	-22.705	0.099
266.100	-19.426	0.099
266.200	-17.424	0.099
266.300	-15.638	0.099
266.400	-33.672	0.099
266.500	-22.557	0.099
266.600	-23.502	0.099
266.700	-25.482	0.099
266.800	-43.464	0.099
266.900	-19.618	0.099
267.000	-26.591	0.099
267.100	-2.774	0.099
267.200	-17.956	0.099
267.300	-25.672	0.100
267.400	-34.908	0.099
267.500	-21.718	0.099
267.600	-11.796	0.099
267.700	-25.125	0.099
267.800	-20.782	0.099
267.900	-27.392	0.100
268.000	-19.480	0.099
268.100	-24.338	0.099
268.200	-11.018	0.099
268.300	-21.146	0.099
268.400	-31.038	0.099
268.500	-25.814	0.099
268.600	-32.942	0.099
268.700	-14.140	0.099
268.800	-28.456	0.099
268.900	-17.165	0.099
269.000	-20.217	0.099
269.100	-19.406	0.099
269.200	-20.986	0.099
269.300	-30.596	0.099
269.400	-15.208	0.099
269.500	-33.208	0.099
269.600	-7.399	0.099
269.700	-24.901	0.099
269.800	-30.193	0.099
269.900	-23.334	0.099
270.000	-25.741	0.099
270.100	-21.334	0.099
270.200	-14.846	0.099
270.300	-12.822	0.099
270.400	-22.457	0.100
270.500	-20.570	0.099
270.600	-33.630	0.099
270.700	-23.082	0.100
270.800	-5.974	0.099
270.900	-32.466	0.099
271.000	-19.487	0.099
271.100	-35.526	0.099
271.200	-31.954	0.099
271.300	-11.066	0.099
271.400	-30.220	0.100
271.500	-27.110	0.099
271.600	-7.336	0.100
271.700	-20.514	0.099
271.800	-23.991	0.099
271.900	-38.045	0.099
272.000	-23.208	0.099
272.100	-19.377	0.099
272.200	-20.784	0.100
272.300	-16.993	0.099
272.400	-18.458	0.099
272.500	-37.102	0.099
272.600	-20.319	0.099
272.700	-12.264	0.099
272.800	-27.685	0.099
272.900	-32.802	0.099
273.000	-20.972	0.099
273.100	-22.395	0.099
273.200	-18.397	0.099
273.300	-20.298	0.099
273.400	-23.098	0.099
273.500	-28.931	0.100
273.600	-17.592	0.099
273.700	-34.567	0.099
273.800	-35.307	0.099
273.900	-38.635	0.099
274.000	-26.898	0.099
274.100	-4.288	0.099
274.200	-3.639	0.099
274.300	-23.070	0.099
274.400	-33.888	0.099
274.500	-28.109	0.099
274.600	-14.271	0.099
274.700	-26.464	0.099
274.800	-20.719	0.100
274.900	-20.623	0.099
275.000	-29.396	0.099
275.100	-23.797	0.099
275.200	-5.210	0.099
275.300	-20.687	0.099
275.400	-26.457	0.099
275.500	-26.467	0.099
275.600	-23.437	0.099
275.700	-20.289	0.099
275.800	-23.288	0.099
275.900	-18.850	0.099
276.000	-26.134	0.099
276.100	-2.659	0.099
276.200	-33.265	0.099
276.300	-24.406	0.099
276.400	-28.557	0.099
276.500	-27.759	0.099
276.600	-17.618	0.099
276.700	-11.058	0.099
276.800	-10.181	0.099
276.900	-29.114	0.099
277.000	-31.096	0.099
277.100	-18.509	0.099
277.200	-23.955	0.099
277.300	-27.996	0.099
277.400	-25.341	0.099
277.500	-9.603	0.099
277.600	-8.904	0.099
277.700	-42.080	0.099
277.800	-15.692	0.099
277.900	-8.450	0.100
278.000	-23.335	0.099
278.100	-30.908	0.099
278.200	-16.561	0.100
278.300	-7.129	0.099
278.400	-17.240	0.099
278.500	-9.549	0.099
278.600	-39.409	0.099
278.700	-19.952	0.099
278.800	-12.799	0.099
278.900	-20.923	0.099
279.000	-17.373	0.099
279.100	-11.585	0.099
279.200	-12.276	0.099
279.300	-22.344	0.099
279.400	-25.161	0.099
279.500	-28.399	0.099
279.600	-32.119	0.099
279.700	-18.266	0.099
279.800	-24.164	0.099
279.900	-21.292	0.099
280.000	-18.734	0.099
280.100	-28.735	0.099
280.200	-20.689	0.099
280.300	-41.417	0.099
280.400	-11.977	0.100
280.500	-20.428	0.099
280.600	-25.869	0.099
280.700	-14.764	0.099
280.800	-18.064	0.099
280.900	-33.715	0.099
281.000	-9.771	0.099
281.100	-16.902	0.099
281.200	-20.798	0.100
281.300	-18.911	0.099
281.400	-17.234	0.099
281.500	-35.671	0.099
281.600	-13.645	0.100
281.700	-29.264	0.099
281.800	-29.039	0.099
281.900	-14.473	0.099
282.000	-24.036	0.099
282.100	-18.209	0.099
282.200	-33.466	0.099
282.300	-22.381	0.099
282.400	-12.758	0.099
282.500	-26.392	0.099
282.600	-23.689	0.099
282.700	-14.511	0.099
282.800	-4.647	0.099
282.900	-19.495	0.099
283.000	-24.781	0.099
283.100	-30.003	0.099
283.200	-11.746	0.099
283.300	-8.958	0.099
283.400	-22.632	0.099
283.500	-24.566	0.099
283.600	-35.517	0.099
283.700	-17.129	0.099
283.800	-34.226	0.099
283.900	-11.989	0.099
284.000	-2.756	0.099
284.100	-29.013	0.099
284.200	-23.811	0.099
284.300	-13.220	0.099
284.400	-9.556	0.099
284.500	-33.077	0.099
284.600	-11.382	0.099
284.700	-24.621	0.099
284.800	-15.059	0.099
284.900	-27.383	0.099
285.000	-34.603	0.099
285.100	-16.981	0.099
285.200	-12.023	0.099
285.300	-15.931	0.099
285.400	-14.802	0.099
285.500	-32.784	0.099
285.600	-17.863	0.099
285.700	-26.000	0.099
285.800	-7.776	0.099
285.900	-9.838	0.099
286.000	-22.845	0.099
286.100	-21.132	0.099
286.200	-21.458	0.099
286.300	-33.351	0.099
286.400	-13.818	0.099
286.500	-15.174	0.099
286.600	-9.538	0.099
286.700	-12.265	0.099
286.800	-22.584	0.099
286.900	-15.201	0.099
287.000	-26.030	0.099
287.100	-20.278	0.099
287.200	-16.339	0.099
287.300	-24.704	0.099
287.400	-17.845	0.099
287.500	-6.437	0.099
287.600	-7.075	0.099
287.700	-29.823	0.099
287.800	-16.429	0.099
287.900	-34.605	0.099
288.000	-27.851	0.099
288.100	-18.527	0.099
288.200	-9.246	0.099
288.300	-9.992	0.099
288.400	-29.705	0.099
288.500	-26.465	0.099
288.600	-27.031	0.099
288.700	-16.513	0.099
288.800	-13.672	0.099
288.900	-24.818	0.099
289.000	-4.121	0.099
289.100	-23.672	0.099
289.200	-26.115	0.099
289.300	-9.558	0.100
289.400	-29.377	0.099
289.500	-7.488	0.099
289.600	-11.884	0.099
289.700	-22.188	0.099
289.800	-15.786	0.100
289.900	-6.994	0.099
290.000	-8.855	0.099
290.100	-16.924	0.099
290.200	-18.438	0.099
290.300	-18.751	0.099
290.400	-4.217	0.099
290.500	-14.476	0.099
290.600	-14.521	0.099
290.700	-30.646	0.099
290.800	-5.492	0.099
290.900	-23.029	0.099
291.000	-9.081	0.099
291.100	-11.577	0.099
291.200	-15.855	0.099
291.300	-12.001	0.099
291.400	-44.248	0.099
291.500	-11.414	0.099
291.600	-19.667	0.099
291.700	-1.769	0.099
291.800	-9.308	0.099
291.900	-26.890	0.099
292.000	-13.476	0.099
292.100	-13.104	0.099
292.200	-14.967	0.099
292.300	-11.896	0.099
292.400	-20.476	0.099
292.500	0.747	0.099
292.600	-30.280	0.099
292.700	-16.833	0.099
292.800	-18.653	0.099
292.900	-15.344	0.099
293.000	-12.870	0.099
293.100	-7.150	0.099
293.200	-32.853	0.099
293.300	-7.967	0.099
293.400	-6.074	0.099
293.500	-19.556	0.099
293.600	-15.294	0.099
293.700	-13.270	0.099
293.800	-19.995	0.099
293.900	-10.102	0.099
294.000	-15.426	0.099
294.100	-0.338	0.099
294.200	-19.208	0.099
294.300	-24.996	0.099
294.400	-14.582	0.099
294.500	-5.190	0.099
294.600	-25.337	0.099
294.700	-12.634	0.099
294.800	-23.940	0.099
294.900	-17.306	0.099
295.000	-35.031	0.099
295.100	-0.550	0.099
295.200	-13.585	0.099
295.300	-16.399	0.099
295.400	-27.629	0.099
295.500	-20.238	0.099
295.600	-15.434	0.099
295.700	-10.299	0.099
295.800	-15.158	0.099
295.900	-22.384	0.099
296.000	-6.753	0.099
296.100	-9.129	0.099
296.200	-23.342	0.099
296.300	-14.082	0.099
296.400	-16.593	0.099
296.500	-14.800	0.099
296.600	-14.070	0.099
296.700	-12.341	0.099
296.800	-11.681	0.099
296.900	-17.722	0.099
297.000	-23.050	0.099
297.100	-4.379	0.099
297.200	-22.168	0.099
297.300	-21.261	0.099
297.400	-14.833	0.099
297.500	-26.794	0.099
297.600	0.201	0.099
297.700	-26.256	0.099
297.800	-13.180	0.099
297.900	-17.126	0.099
298.000	-11.396	0.099
298.100	-17.597	0.099
298.200	-0.311	0.099
298.300	-21.390	0.099
298.400	-6.262	0.099
298.500	-15.489	0.099
298.600	-10.148	0.099
298.700	-12.005	0.099
298.800	-11.051	0.099
298.900	-7.053	0.099
299.000	-17.267	0.099
299.100	-21.346	0.099
299.200	-19.179	0.099
299.300	-12.830	0.099
299.400	-5.575	0.099
299.500	-10.736	0.099
299.600	-19.075	0.099
299.700	-1.903	0.099
299.800	-24.985	0.099
299.900	-13.979	0.099
300.000	-13.561	0.099
300.100	-14.661	0.099
300.200	-18.608	0.099
300.300	-7.154	0.099
300.400	-22.759	0.099
300.500	-19.819	0.099
300.600	-15.487	0.099
300.700	-17.449	0.099
300.800	-5.711	0.099
300.900	-18.701	0.099
301.000	-5.708	0.099
301.100	3.794	0.099
301.200	-24.399	0.099
301.300	-8.465	0.099
301.400	-12.759	0.099
301.500	-18.517	0.099
301.600	-22.045	0.099
301.700	-5.974	0.099
301.800	-7.481	0.099
301.900	-10.940	0.099
302.000	-8.741	0.099
302.100	-18.203	0.099
302.200	-6.135	0.099
302.300	-19.965	0.099
302.400	-22.369	0.099
302.500	-6.758	0.099
302.600	-0.047	0.099
302.700	-12.955	0.099
302.800	-5.560	0.099
302.900	-7.400	0.099
303.000	-17.757	0.099
303.100	-13.429	0.099
303.200	-27.531	0.099
303.300	-22.534	0.099
303.400	-9.210	0.099
303.500	-23.618	0.099
303.600	5.574	0.099
303.700	-9.418	0.099
303.800	-22.432	0.099
303.900	-23.402	0.099
304.000	7.336	0.099
304.100	-15.808	0.099
304.200	-33.668	0.099
304.300	-31.428	0.099
304.400	-21.965	0.099
304.500	-11.239	0.099
304.600	-21.523	0.099
304.700	-8.065	0.099
304.800	-3.117	0.099
304.900	-5.075	0.099
305.000	-6.125	0.099
305.100	-8.990	0.099
305.200	-16.862	0.099
305.300	-9.637	0.099
305.400	-15.434	0.099
305.500	-8.130	0.099
305.600	-7.388	0.099
305.700	-30.720	0.099
305.800	-22.505	0.099
305.900	-9.323	0.099
306.000	-16.118	0.099
306.100	-23.034	0.099
306.200	-15.301	0.099
306.300	3.617	0.099
306.400	-17.604	0.099
306.500	-6.880	0.099
306.600	-23.695	0.099
306.700	-22.333	0.099
306.800	-16.049	0.099
306.900	-8.669	0.099
307.000	-0.843	0.099
307.100	-15.786	0.099
307.200	-7.229	0.099
307.300	-9.069	0.099
307.400	-20.693	0.099
307.500	-21.862	0.099
307.600	0.832	0.099
307.700	-18.460	0.099
307.800	-22.651	0.099
307.900	-21.537	0.099
308.000	-21.873	0.099
308.100	3.742	0.099
308.200	-4.506	0.099
308.300	-24.860	0.099
308.400	-8.751	0.099
308.500	-24.000	0.099
308.600	-18.839	0.099
308.700	-15.100	0.099
308.800	-5.548	0.099
308.900	-4.320	0.099
309.000	-8.095	0.099
309.100	-16.129	0.099
309.200	-9.506	0.099
309.300	-18.807	0.099
309.400	-1.228	0.099
309.500	-22.080	0.099
309.600	-13.012	0.099
309.700	-11.173	0.099
309.800	-15.212	0.099
309.900	-15.654	0.099
310.000	-14.120	0.099
310.100	-4.388	0.099
310.200	-22.520	0.099
310.300	-5.353	0.099
310.400	-14.975	0.099
310.500	-13.152	0.099
310.600	-6.034	0.099
310.700	-13.268	0.099
310.800	-7.952	0.099
310.900	-21.016	0.099
311.000	-14.007	0.099
311.100	-9.635	0.099
311.200	-10.920	0.099
311.300	-27.123	0.099
311.400	3.852	0.099
311.500	-7.995	0.099
311.600	-17.952	0.099
311.700	-10.790	0.099
311.800	-12.452	0.099
311.900	-31.918	0.099
312.000	-9.203	0.099
312.100	-11.635	0.099
312.200	-11.657	0.099
312.300	-5.010	0.099
312.400	-17.951	0.099
312.500	-10.669	0.099
312.600	-12.011	0.099
312.700	-20.028	0.099
312.800	-15.934	0.099
312.900	-17.491	0.099
313.000	-17.442	0.099
313.100	-18.744	0.099
313.200	-15.585	0.099
313.300	-20.824	0.099
313.400	-18.467	0.099
313.500	-24.164	0.099
313.600	2.659	0.099
313.700	0.575	0.099
313.800	-7.215	0.099
313.900	-22.340	0.099
314.000	-15.367	0.099
314.100	-13.477	0.099
314.200	-1.260	0.099
314.300	-8.087	0.099
314.400	-26.013	0.099
314.500	-16.678	0.099
314.600	-14.878	0.099
314.700	-3.870	0.099
314.800	-15.167	0.099
314.900	-9.847	0.099
315.000	-37.781	0.099
315.100	-20.568	0.099
315.200	-11.887	0.099
315.300	-17.582	0.099
315.400	-5.638	0.099
315.500	-14.785	0.099
315.600	-9.867	0.099
315.700	-2.670	0.099
315.800	-7.213	0.099
315.900	-21.764	0.099
316.000	-4.146	0.099
316.100	-6.044	0.099
316.200	-15.993	0.099
316.300	-9.909	0.099
316.400	-13.506	0.099
316.500	-19.451	0.099
316.600	-3.838	0.099
316.700	-20.616	0.099
316.800	-7.229	0.099
316.900	-26.875	0.099
317.000	-11.800	0.099
317.100	-11.999	0.099
317.200	-20.985	0.099
317.300	-11.969	0.099
317.400	-12.098	0.099
317.500	-11.886	0.099
317.600	-13.641	0.099
317.700	-22.590	0.099
317.800	-3.722	0.099
317.900	-0.351	0.099
318.000	-16.021	0.099
318.100	-12.011	0.099
318.200	-18.454	0.099
318.300	2.415	0.099
318.400	-19.419	0.099
318.500	-22.243	0.099
318.600	1.061	0.099
318.700	-8.674	0.099
318.800	-32.161	0.099
318.900	-12.604	0.099
319.000	3.875	0.099
319.100	-16.191	0.099
319.200	-0.915	0.099
319.300	-0.283	0.099
319.400	-7.186	0.099
319.500	-12.886	0.099
319.600	-12.635	0.099
319.700	-16.365	0.099
319.800	-18.007	0.099
319.900	1.598	0.099
320.000	-15.424	0.099
320.100	-19.135	0.099
320.200	-4.929	0.099
320.300	-7.013	0.099
320.400	-7.642	0.099
320.500	-13.466	0.099
320.600	-34.177	0.099
320.700	-6.061	0.099
320.800	-0.459	0.099
320.900	-3.083	0.099
321.000	-2.934	0.099
321.100	-12.136	0.099
321.200	-23.279	0.099
321.300	-11.642	0.099
321.400	-12.543	0.099
321.500	-15.417	0.099
321.600	-14.798	0.099
321.700	-21.616	0.099
321.800	3.092	0.099
321.900	-4.553	0.099
322.000	-9.635	0.099
322.100	-11.510	0.099
322.200	-6.808	0.099
322.300	-14.530	0.099
322.400	-9.254	0.099
322.500	-8.296	0.099
322.600	-1.706	0.099
322.700	0.429	0.099
322.800	-14.861	0.099
322.900	-13.495	0.099
323.000	-5.312	0.099
323.100	-9.730	0.099
323.200	-2.687	0.099
323.300	-16.412	0.099
323.400	-11.571	0.099
323.500	-22.194	0.099
323.600	-13.832	0.099
323.700	-9.253	0.099
323.800	1.625	0.099
323.900	1.442	0.099
324.000	3.003	0.099
324.100	-14.283	0.099
324.200	-12.287	0.099
324.300	-22.747	0.099
324.400	-10.315	0.099
324.500	-19.387	0.099
324.600	-6.853	0.099
324.700	-15.955	0.099
324.800	-1.894	0.099
324.900	-10.658	0.099
325.000	-21.620	0.099
325.100	-20.204	0.099
325.200	-7.723	0.099
325.300	-3.412	0.099
325.400	-17.038	0.099
325.500	-17.858	0.099
325.600	-15.094	0.099
325.700	-17.729	0.099
325.800	-11.335	0.099
325.900	-25.991	0.099
326.000	8.131	0.099
326.100	-8.492	0.099
326.200	-5.841	0.099
326.300	-7.752	0.099
326.400	-14.778	0.099
326.500	-15.126	0.099
326.600	-10.582	0.099
326.700	-12.607	0.099
326.800	-11.415	0.099
326.900	-8.219	0.099
327.000	-7.884	0.099
327.100	-16.888	0.099
327.200	2.675	0.099
327.300	-27.611	0.099
327.400	-20.678	0.099
327.500	-4.270	0.099
327.600	-6.684	0.099
327.700	-14.517	0.099
327.800	-8.522	0.099
327.900	-11.466	0.099
328.000	-6.151	0.099
328.100	-10.770	0.099
328.200	-9.595	0.099
328.300	-18.215	0.099
328.400	-16.516	0.099
328.500	-12.596	0.099
328.600	1.112	0.099
328.700	5.387	0.099
328.800	-22.507	0.099
328.900	-8.242	0.099
329.000	-12.986	0.099
329.100	-21.444	0.099
329.200	-19.929	0.099
329.300	-11.357	0.099
329.400	-13.208	0.099
329.500	5.008	0.099
329.600	-0.557	0.099
329.700	0.298	0.099
329.800	-3.500	0.099
329.900	-11.210	0.099
330.000	-14.135	0.099
330.100	1.797	0.099
330.200	-8.950	0.099
330.300	-15.921	0.099
330.400	-11.803	0.099
330.500	-3.808	0.099
330.600	10.328	0.099
330.700	-17.669	0.099
330.800	9.879	0.099
330.900	-6.154	0.099
331.000	-11.907	0.099
331.100	6.249	0.099
331.200	2.899	0.099
331.300	-1.896	0.099
331.400	1.432	0.099
331.500	4.207	0.099
331.600	-3.653	0.099
331.700	8.546	0.099
331.800	-0.275	0.099
331.900	-7.597	0.099
332.000	23.184	0.099
332.100	15.680	0.099
332.200	9.281	0.099
332.300	16.800	0.099
332.400	8.748	0.099
332.500	14.704	0.099
332.600	13.966	0.099
332.700	17.904	0.099
332.800	24.107	0.099
332.900	22.690	0.099
333.000	11.921	0.099
333.100	21.479	0.099
333.200	15.591	0.099
333.300	10.957	0.099
333.400	19.471	0.099
333.500	21.471	0.099
333.600	26.380	0.099
333.700	18.223	0.099
333.800	24.412	0.099
333.900	9.388	0.099
334.000	16.054	0.099
334.100	8.873	0.099
334.200	25.101	0.099
334.300	9.933	0.099
334.400	17.672	0.099
334.500	19.673	0.099
334.600	45.948	0.099
334.700	15.918	0.099
334.800	11.519	0.099
334.900	16.415	0.099
335.000	19.563	0.099
335.100	27.488	0.099
335.200	6.610	0.099
335.300	12.561	0.099
335.400	26.566	0.099
335.500	20.360	0.099
335.600	21.712	0.099
335.700	10.569	0.099
335.800	24.243	0.099
335.900	16.278	0.099
336.000	14.191	0.099
336.100	20.759	0.099
336.200	16.653	0.099
336.300	22.691	0.099
336.400	6.766	0.099
336.500	12.161	0.099
336.600	24.299	0.099
336.700	28.453	0.099
336.800	18.377	0.099
336.900	8.133	0.099
337.000	10.565	0.099
337.100	19.848	0.099
337.200	31.737	0.099
337.300	19.569	0.099
337.400	15.111	0.099
337.500	8.929	0.099
337.600	26.578	0.099
337.700	30.366	0.099
337.800	29.365	0.099
337.900	14.008	0.099
338.000	11.611	0.099
338.100	30.688	0.099
338.200	26.677	0.099
338.300	13.627	0.099
338.400	17.985	0.099
338.500	25.758	0.099
338.600	20.898	0.099
338.700	30.029	0.099
338.800	24.309	0.099
338.900	30.249	0.099
339.000	16.432	0.099
339.100	32.313	0.099
339.200	21.715	0.099
339.300	21.948	0.099
339.400	14.445	0.099
339.500	21.760	0.099
339.600	21.855	0.099
339.700	24.467	0.099
339.800	26.655	0.099
339.900	26.007	0.099
340.000	33.903	0.099
340.100	20.937	0.099
340.200	21.526	0.099
340.300	29.635	0.099
340.400	38.700	0.099
340.500	19.959	0.099
340.600	27.180	0.099
340.700	23.948	0.099
340.800	27.301	0.099
340.900	21.274	0.099
341.000	37.374	0.099
341.100	25.784	0.099
341.200	9.512	0.099
341.300	37.779	0.099
341.400	27.123	0.099
341.500	36.447	0.099
341.600	30.222	0.099
341.700	32.612	0.099
341.800	20.880	0.099
341.900	10.995	0.099
342.000	41.113	0.099
342.100	41.192	0.099
342.200	30.425	0.099
342.300	29.165	0.099
342.400	31.749	0.099
342.500	28.074	0.099
342.600	23.334	0.099
342.700	26.096	0.099
342.800	26.839	0.099
342.900	26.965	0.099
343.000	19.385	0.099
343.100	32.180	0.099
343.200	23.419	0.099
343.300	36.062	0.099
343.400	25.093	0.099
343.500	26.267	0.099
343.600	28.765	0.099
343.700	41.260	0.099
343.800	26.561	0.099
343.900	28.408	0.099
344.000	25.436	0.099
344.100	34.129	0.099
344.200	40.298	0.099
344.300	39.395	0.099
344.400	37.083	0.099
344.500	33.176	0.099
344.600	21.936	0.099
344.700	29.937	0.099
344.800	29.363	0.099
344.900	51.789	0.099
345.000	44.454	0.099
345.100	37.632	0.099
345.200	21.792	0.099
345.300	30.069	0.099
345.400	34.015	0.099
345.500	43.165	0.099
345.600	30.445	0.099
345.700	49.079	0.099
345.800	40.010	0.099
345.900	50.537	0.099
346.000	30.468	0.099
346.100	33.597	0.099
346.200	42.649	0.099
346.300	38.467	0.099
346.400	19.469	0.099
346.500	34.331	0.099
346.600	29.977	0.099
346.700	50.906	0.099
346.800	35.939	0.099
346.900	44.415	0.099
347.000	45.029	0.099
347.100	17.414	0.099
347.200	52.983	0.099
347.300	41.331	0.099
347.400	32.348	0.099
347.500	42.299	0.099
347.600	33.090	0.099
347.700	49.032	0.099
347.800	41.498	0.099
347.900	34.503	0.099
348.000	34.819	0.099
348.100	40.485	0.099
348.200	38.187	0.099
348.300	44.102	0.099
348.400	38.579	0.099
348.500	40.342	0.099
348.600	30.277	0.099
348.700	47.697	0.099
348.800	37.511	0.099
348.900	33.648	0.099
349.000	31.952	0.099
349.100	38.626	0.099
349.200	39.014	0.099
349.300	34.730	0.099
349.400	54.220	0.099
349.500	40.950	0.099
349.600	34.943	0.099
349.700	44.538	0.099
349.800	58.072	0.099
349.900	52.578	0.099
350.000	39.225	0.099
350.100	36.808	0.099
350.200	25.286	0.099
350.300	37.900	0.099
350.400	44.315	0.099
350.500	39.618	0.099
350.600	34.653	0.099
350.700	40.889	0.099
350.800	45.575	0.099
350.900	42.172	0.099
351.000	28.115	0.099
351.100	59.801	0.099
351.200	45.133	0.099
351.300	40.271	0.099
351.400	36.068	0.099
351.500	52.746	0.099
351.600	35.362	0.099
351.700	43.275	0.099
351.800	43.948	0.099
351.900	27.298	0.099
352.000	28.084	0.099
352.100	34.257	0.099
352.200	45.135	0.099
352.300	52.417	0.099
352.400	51.551	0.099
352.500	35.707	0.099
352.600	41.545	0.099
352.700	26.599	0.099
352.800	41.609	0.099
352.900	43.123	0.099
353.000	44.006	0.099
353.100	44.504	0.099
353.200	28.526	0.099
353.300	39.843	0.099
353.400	32.025	0.099
353.500	42.204	0.099
353.600	47.776	0.099
353.700	54.331	0.099
353.800	46.253	0.099
353.900	34.750	0.099
354.000	40.020	0.099
354.100	42.883	0.099
354.200	42.133	0.099
354.300	29.084	0.099
354.400	37.297	0.099
354.500	46.735	0.099
354.600	37.101	0.099
354.700	42.562	0.099
354.800	43.848	0.099
354.900	26.507	0.099
355.000	37.252	0.099
355.100	58.092	0.099
355.200	37.584	0.099
355.300	32.877	0.099
355.400	41.276	0.099
355.500	40.994	0.099
355.600	45.982	0.099
355.700	46.454	0.099
355.800	39.930	0.099
355.900	46.576	0.099
356.000	41.101	0.099
356.100	17.186	0.099
356.200	29.687	0.099
356.300	41.364	0.099
356.400	31.122	0.099
356.500	37.880	0.099
356.600	50.842	0.099
356.700	27.370	0.099
356.800	45.527	0.099
356.900	51.434	0.099
357.000	32.559	0.099
357.100	21.145	0.099
357.200	39.817	0.099
357.300	38.596	0.099
357.400	44.533	0.099
357.500	40.871	0.099
357.600	46.479	0.099
357.700	39.397	0.099
357.800	30.329	0.099
357.900	33.374	0.099
358.000	34.421	0.099
358.100	37.280	0.099
358.200	35.457	0.099
358.300	45.184	0.099
358.400	48.604	0.099
358.500	32.022	0.099
358.600	48.747	0.099
358.700	45.640	0.099
358.800	45.076	0.099
358.900	34.546	0.099
359.000	50.592	0.099
359.100	36.381	0.099
359.200	46.073	0.099
359.300	45.726	0.099
359.400	41.018	0.099
359.500	40.437	0.099
359.600	34.777	0.099
359.700	39.980	0.099
359.800	43.098	0.099
359.900	30.066	0.099
360.000	40.961	0.099
360.100	35.607	0.099
360.200	41.789	0.099
360.300	46.143	0.099
360.400	42.812	0.099
360.500	28.240	0.099
360.600	28.280	0.099
360.700	39.325	0.099
360.800	40.553	0.099
360.900	38.672	0.099
361.000	33.602	0.099
361.100	65.998	0.099
361.200	24.659	0.099
361.300	29.601	0.099
361.400	46.350	0.099
361.500	35.113	0.099
361.600	60.029	0.099
361.700	34.807	0.099
361.800	37.465	0.099
361.900	27.441	0.099
362.000	33.900	0.099
362.100	46.879	0.099
362.200	38.357	0.099
362.300	43.649	0.099
362.400	30.609	0.099
362.500	41.812	0.099
362.600	34.231	0.099
362.700	49.010	0.099
362.800	24.196	0.099
362.900	26.619	0.099
363.000	30.779	0.099
363.100	39.436	0.099
363.200	39.536	0.099
363.300	35.815	0.099
363.400	23.851	0.099
363.500	35.964	0.099
363.600	37.958	0.099
363.700	43.230	0.099
363.800	42.016	0.099
363.900	39.989	0.099
364.000	44.603	0.099
364.100	32.227	0.099
364.200	32.578	0.099
364.300	40.647	0.099
364.400	34.519	0.099
364.500	34.359	0.099
364.600	43.634	0.099
364.700	37.949	0.099
364.800	34.296	0.099
364.900	34.844	0.099
365.000	39.380	0.099
365.100	40.198	0.099
365.200	37.658	0.099
365.300	46.226	0.099
365.400	30.710	0.099
365.500	31.361	0.099
365.600	34.711	0.099
365.700	44.367	0.099
365.800	31.230	0.099
365.900	29.395	0.099
366.000	32.418	0.099
366.100	45.919	0.099
366.200	41.079	0.099
366.300	29.629	0.099
366.400	38.270	0.099
366.500	52.789	0.099
366.600	44.718	0.099
366.700	42.538	0.099
366.800	31.472	0.099
366.900	37.964	0.099
367.000	33.951	0.099
367.100	39.421	0.099
367.200	21.789	0.099
367.300	46.069	0.100
367.400	46.949	0.100
367.500	33.423	0.099
367.600	29.057	0.100
367.700	37.908	0.099
367.800	29.291	0.099
367.900	37.269	0.099
368.000	39.414	0.099
368.100	39.204	0.100
368.200	25.490	0.099
368.300	37.136	0.100
368.400	42.167	0.100
368.500	54.117	0.100
368.600	20.175	0.099
368.700	36.076	0.100
368.800	37.143	0.100
368.900	29.521	0.100
369.000	54.170	0.100
369.100	25.815	0.100
369.200	51.529	0.100
369.300	29.832	0.100
369.400	25.124	0.100
369.500	29.535	0.100
369.600	46.758	0.100
369.700	65.218	0.100
369.800	29.587	0.100
369.900	27.333	0.100
370.000	40.108	0.100
370.100	37.360	0.100
370.200	55.241	0.100
370.300	37.621	0.100
370.400	29.383	0.100
370.500	37.490	0.100
370.600	39.937	0.100
370.700	39.386	0.100
370.800	33.978	0.100
370.900	33.336	0.100
371.000	33.908	0.100
371.100	29.422	0.100
371.200	23.266	0.100
371.300	38.687	0.100
371.400	23.772	0.100
371.500	49.059	0.100
371.600	41.403	0.100
371.700	30.927	0.100
371.800	37.225	0.100
371.900	28.677	0.100
372.000	39.319	0.100
372.100	33.367	0.100
372.200	39.555	0.100
372.300	25.319	0.100
372.400	53.888	0.100
372.500	22.514	0.100
372.600	13.785	0.100
372.700	37.234	0.100
372.800	38.508	0.100
372.900	32.972	0.100
373.000	33.587	0.100
373.100	44.295	0.100
373.200	27.864	0.100
373.300	40.253	0.100
373.400	41.856	0.100
373.500	26.075	0.100
373.600	34.523	0.100
373.700	38.453	0.100
373.800	32.867	0.100
373.900	36.487	0.100
374.000	22.392	0.100
374.100	41.360	0.100
374.200	36.731	0.100
374.300	30.243	0.100
374.400	39.584	0.100
374.500	45.698	0.100
374.600	22.267	0.100
374.700	38.716	0.100
374.800	48.716	0.100
374.900	52.540	0.100
375.000	32.079	0.100
375.100	39.589	0.100
375.200	43.056	0.100
375.300	30.440	0.100
375.400	32.950	0.100
375.500	37.793	0.100
375.600	43.862	0.100
375.700	30.219	0.100
375.800	23.416	0.100
375.900	36.547	0.100
376.000	31.803	0.100
376.100	29.136	0.100
376.200	18.778	0.100
376.300	42.946	0.100
376.400	40.143	0.100
376.500	33.096	0.100
376.600	38.184	0.100
376.700	28.422	0.100
376.800	32.253	0.100
376.900	37.219	0.100
377.000	38.519	0.100
377.100	34.213	0.100
377.200	38.800	0.100
377.300	33.982	0.100
377.400	37.334	0.100
377.500	24.004	0.100
377.600	45.718	0.100
377.700	14.687	0.100
377.800	41.599	0.100
377.900	29.879	0.100
378.000	24.920	0.100
378.100	49.657	0.100
378.200	30.283	0.100
378.300	38.665	0.100
378.400	39.177	0.100
378.500	43.535	0.100
378.600	32.611	0.100
378.700	32.281	0.100
378.800	35.951	0.100
378.900	40.585	0.100
379.000	35.723	0.100
379.100	17.240	0.100
379.200	45.245	0.100
379.300	26.158	0.100
379.400	50.257	0.100
379.500	44.981	0.100
379.600	34.828	0.100
379.700	31.075	0.100
379.800	23.132	0.100
379.900	25.981	0.100
380.000	38.206	0.100
380.100	35.384	0.100
380.200	39.175	0.100
380.300	38.570	0.100
380.400	36.247	0.100
380.500	46.499	0.100
380.600	38.588	0.100
380.700	25.461	0.100
380.800	33.674	0.100
380.900	47.008	0.100
381.000	31.595	0.100
381.100	24.100	0.100
381.200	34.480	0.100
381.300	36.852	0.100
381.400	51.848	0.100
381.500	37.151	0.100
381.600	36.010	0.100
381.700	27.458	0.100
381.800	44.028	0.100
381.900	19.641	0.100
382.000	36.143	0.100
382.100	33.522	0.100
382.200	19.242	0.100
382.300	31.459	0.100
382.400	36.035	0.100
382.500	25.881	0.100
382.600	40.208	0.100
382.700	37.386	0.100
382.800	19.706	0.100
382.900	42.721	0.100
383.000	33.161	0.100
383.100	40.786	0.100
383.200	49.920	0.100
383.300	41.423	0.100
383.400	41.961	0.100
383.500	34.665	0.100
383.600	28.540	0.100
383.700	25.218	0.100
383.800	35.055	0.100
383.900	29.504	0.100
384.000	34.258	0.100
384.100	25.789	0.100
384.200	31.279	0.100
384.300	32.964	0.100
384.400	16.552	0.100
384.500	36.905	0.100
384.600	24.902	0.100
384.700	38.290	0.100
384.800	44.256	0.100
384.900	29.581	0.100
385.000	43.511	0.100
385.100	23.745	0.100
385.200	39.898	0.100
385.300	34.895	0.100
385.400	29.939	0.100
385.500	37.972	0.100
385.600	39.686	0.100
385.700	34.571	0.100
385.800	39.270	0.100
385.900	47.350	0.100
386.000	34.415	0.100
386.100	27.691	0.100
386.200	33.499	0.100
386.300	34.068	0.100
386.400	28.558	0.100
386.500	39.247	0.100
386.600	31.254	0.100
386.700	40.862	0.100
386.800	20.549	0.100
386.900	18.049	0.100
387.000	23.355	0.100
387.100	34.116	0.100
387.200	38.878	0.100
387.300	48.549	0.100
387.400	43.246	0.100
387.500	24.509	0.100
387.600	34.260	0.100
387.700	36.436	0.100
387.800	23.011	0.100
387.900	44.361	0.100
388.000	42.300	0.100
388.100	33.893	0.100
388.200	32.260	0.100
388.300	27.473	0.100
388.400	38.968	0.100
388.500	39.650	0.100
388.600	44.245	0.100
388.700	39.748	0.100
388.800	32.388	0.100
388.900	27.274	0.100
389.000	36.039	0.100
389.100	32.858	0.100
389.200	22.477	0.100
389.300	41.306	0.100
389.400	27.244	0.099
389.500	37.018	0.099
389.600	39.136	0.099
389.700	24.280	0.099
389.800	30.840	0.099
389.900	44.195	0.099
390.000	16.261	0.099
390.100	26.543	0.099
390.200	36.558	0.100
390.300	41.657	0.099
390.400	30.410	0.099
390.500	24.665	0.099
390.600	42.775	0.099
390.700	30.219	0.099
390.800	48.407	0.099
390.900	27.082	0.099
391.000	15.270	0.099
391.100	34.241	0.099
391.200	20.748	0.099
391.300	24.182	0.099
391.400	23.913	0.099
391.500	18.027	0.099
391.600	18.767	0.099
391.700	10.352	0.099
391.800	7.724	0.099
391.900	20.773	0.099
392.000	8.133	0.099
392.100	8.364	0.099
392.200	-3.617	0.099
392.300	16.592	0.099
392.400	0.568	0.099
392.500	10.237	0.099
392.600	13.003	0.099
392.700	-1.721	0.099
392.800	0.659	0.099
392.900	-4.377	0.099
393.000	-4.763	0.099
393.100	-0.166	0.099
393.200	-1.415	0.099
393.300	3.095	0.099
393.400	3.812	0.099
393.500	-7.432	0.099
393.600	-20.178	0.099
393.700	2.254	0.099
393.800	-18.895	0.099
393.900	10.276	0.099
394.000	3.141	0.099
394.100	3.408	0.099
394.200	-6.582	0.099
394.300	-1.512	0.099
394.400	-9.742	0.099
394.500	3.558	0.099
394.600	-9.556	0.099
394.700	-8.006	0.099
394.800	0.262	0.099
394.900	13.748	0.099
395.000	-10.239	0.099
395.100	-4.990	0.099
395.200	-4.849	0.099
395.300	-16.229	0.099
395.400	-9.103	0.099
395.500	-9.673	0.099
395.600	-12.214	0.099
395.700	-8.588	0.099
395.800	7.925	0.099
395.900	-19.285	0.099
396.000	-11.181	0.099
396.100	-11.380	0.099
396.200	-11.917	0.099
396.300	-23.183	0.099
396.400	-3.373	0.099
396.500	-9.824	0.099
396.600	-11.307	0.099
396.700	2.957	0.099
396.800	-5.880	0.099
396.900	-1.631	0.099
397.000	-11.651	0.099
397.100	-13.629	0.099
397.200	-24.546	0.099
397.300	2.614	0.099
397.400	-8.905	0.099
397.500	-4.999	0.099
397.600	-9.311	0.099
397.700	6.133	0.099
397.800	-8.381	0.099
397.900	2.666	0.099
398.000	-11.406	0.099
398.100	-12.098	0.099
398.200	-12.274	0.099
398.300	-7.741	0.099
398.400	-12.668	0.099
398.500	-15.940	0.099
398.600	-15.038	0.099
398.700	-14.691	0.099
398.800	18.318	0.099
398.900	-14.971	0.099
399.000	-17.959	0.099
399.100	-24.453	0.099
399.200	6.559	0.099
399.300	-8.585	0.099
399.400	-13.075	0.099
399.500	-14.251	0.099
399.600	-4.521	0.099
399.700	-9.099	0.099
399.800	-9.725	0.099
399.900	-9.793	0.099
400.000	-17.843	0.099
400.100	-4.751	0.099
400.200	-12.292	0.099
400.300	-13.201	0.099
400.400	-13.426	0.099
400.500	-12.059	0.099
400.600	-15.217	0.099
400.700	3.939	0.099
400.800	-9.221	0.099
400.900	-23.902	0.099
401.000	-9.002	0.099
401.100	-3.335	0.099
401.200	-11.251	0.099
401.300	-23.686	0.099
401.400	-6.509	0.099
401.500	-7.264	0.099
401.600	-13.710	0.099
401.700	-11.466	0.099
401.800	-15.196	0.099
401.900	-4.799	0.099
402.000	-5.517	0.099
402.100	-6.507	0.099
402.200	-7.865	0.099
402.300	-24.501	0.099
402.400	-2.422	0.099
402.500	-27.580	0.099
402.600	-14.724	0.099
402.700	-17.716	0.099
402.800	-16.023	0.099
402.900	-11.555	0.099
403.000	-19.723	0.099
403.100	-2.843	0.099
403.200	0.511	0.099
403.300	-2.729	0.099
403.400	-13.688	0.099
403.500	-28.566	0.099
403.600	-20.595	0.099
403.700	-17.218	0.099
403.800	-13.614	0.099
403.900	-4.169	0.099
404.000	-18.574	0.099
404.100	-15.448	0.099
404.200	-14.346	0.099
404.300	-15.296	0.099
404.400	-17.896	0.099
404.500	-21.942	0.099
404.600	-27.633	0.099
404.700	-4.715	0.099
404.800	1.131	0.099
404.900	-5.799	0.099
405.000	-25.350	0.099
405.100	-28.143	0.099
405.200	-10.352	0.099
405.300	-12.359	0.099
405.400	-17.676	0.099
405.500	-12.946	0.099
405.600	-12.549	0.099
405.700	-18.356	0.099
405.800	-16.910	0.099
405.900	-26.415	0.099
406.000	-18.343	0.099
406.100	-2.821	0.100
406.200	-17.758	0.099
406.300	-15.793	0.099
406.400	-36.271	0.099
406.500	-10.928	0.099
406.600	-12.004	0.099
406.700	-27.323	0.099
406.800	-24.965	0.099
406.900	-11.652	0.099
407.000	-18.516	0.099
407.100	-12.241	0.100
407.200	-5.804	0.099
407.300	-15.738	0.099
407.400	-11.964	0.099
407.500	-20.639	0.099
407.600	-19.347	0.099
407.700	-20.775	0.099
407.800	-25.772	0.099
407.900	-8.170	0.099
408.000	-13.370	0.099
408.100	-10.404	0.099
408.200	-16.883	0.099
408.300	-30.160	0.099
408.400	-17.592	0.099
408.500	-17.632	0.099
408.600	-23.375	0.099
408.700	2.129	0.099
408.800	-22.626	0.099
408.900	-38.208	0.099
409.000	-13.573	0.099
409.100	-32.908	0.099
409.200	-6.530	0.099
409.300	-19.051	0.099
409.400	-23.239	0.099
409.500	-9.263	0.099
409.600	-23.445	0.099
409.700	-14.182	0.099
409.800	-25.015	0.099
409.900	-18.422	0.099
410.000	-16.466	0.099
410.100	-8.468	0.099
410.200	-38.856	0.099
410.300	-14.503	0.099
410.400	-22.670	0.099
410.500	-1.907	0.099
410.600	-21.111	0.099
410.700	-9.156	0.099
410.800	-32.021	0.099
410.900	-21.653	0.099
411.000	-23.202	0.099
411.100	8.165	0.099
411.200	-13.739	0.099
411.300	-18.628	0.099
411.400	-12.637	0.099
411.500	-9.742	0.099
411.600	-12.682	0.099
411.700	-16.675	0.099
411.800	-33.567	0.100
411.900	-19.350	0.099
412.000	-24.090	0.099
412.100	-17.675	0.099
412.200	-16.786	0.099
412.300	-18.411	0.100
412.400	-25.241	0.099
412.500	-18.221	0.099
412.600	-14.245	0.099
412.700	-16.558	0.099
412.800	-20.247	0.099
412.900	-17.717	0.099
413.000	-18.613	0.099
413.100	-25.427	0.100
413.200	-21.132	0.099
413.300	-26.100	0.099
413.400	-16.858	0.099
413.500	-19.641	0.100
413.600	-23.252	0.099
413.700	-25.346	0.099
413.800	-23.985	0.099
413.900	-42.200	0.099
414.000	-26.603	0.099
414.100	-29.590	0.099
414.200	-14.426	0.099
414.300	-8.557	0.099
414.400	-9.572	0.099
414.500	-24.265	0.099
414.600	-29.800	0.099
414.700	-18.439	0.099
414.800	-32.235	0.099
414.900	-11.393	0.099
415.000	-1.789	0.099
415.100	-35.278	0.099
415.200	-21.412	0.099
415.300	-21.315	0.099
415.400	-13.790	0.099
415.500	-19.707	0.099
415.600	-26.352	0.099
415.700	-20.072	0.099
415.800	-25.815	0.099
415.900	-25.994	0.099
416.000	-21.706	0.099
416.100	-25.837	0.099
416.200	-25.679	0.099
416.300	-26.191	0.099
416.400	-26.559	0.099
416.500	-22.382	0.099
416.600	-19.762	0.099
416.700	-12.577	0.099
416.800	-22.808	0.099
416.900	-33.159	0.099
417.000	-19.971	0.099
417.100	-26.822	0.099
417.200	-14.164	0.099
417.300	-28.289	0.100
417.400	-19.635	0.099
417.500	-19.720	0.099
417.600	-16.232	0.099
417.700	-39.972	0.099
417.800	-17.280	0.099
417.900	-31.777	0.099
418.000	-22.032	0.099
418.100	-17.589	0.099
418.200	-11.299	0.099
418.300	-36.429	0.099
418.400	-20.446	0.099
418.500	-29.797	0.099
418.600	-33.476	0.099
418.700	2.789	0.099
418.800	-18.697	0.099
418.900	-20.646	0.099
419.000	-24.155	0.099
419.100	-12.654	0.099
419.200	-17.222	0.099
419.300	-10.677	0.099
419.400	-15.390	0.099
419.500	-16.945	0.099
419.600	-25.770	0.099
419.700	-18.301	0.099
419.800	-10.974	0.099
419.900	-16.732	0.099
420.000	-26.150	0.099
420.100	-27.090	0.099
420.200	-29.165	0.099
420.300	-21.519	0.099
420.400	-28.284	0.099
420.500	-16.275	0.099
420.600	-39.671	0.099
420.700	-6.850	0.099
420.800	-27.856	0.099
420.900	-18.753	0.099
421.000	-26.261	0.099
421.100	-40.664	0.099
421.200	-26.538	0.099
421.300	-18.093	0.099
421.400	-18.906	0.099
421.500	-38.778	0.099
421.600	-19.860	0.099
421.700	-30.707	0.099
421.800	-4.817	0.099
421.900	-31.778	0.099
422.000	-24.593	0.099
422.100	-22.463	0.099
422.200	-19.100	0.099
422.300	-21.983	0.099
422.400	-12.841	0.099
422.500	-24.386	0.099
422.600	-19.950	0.099
422.700	-23.303	0.099
422.800	-51.326	0.099
422.900	-16.993	0.099
423.000	-12.006	0.099
423.100	-18.333	0.099
423.200	-22.683	0.099
423.300	-23.909	0.099
423.400	-25.144	0.099
423.500	-27.023	0.099
423.600	-17.001	0.099
423.700	-28.498	0.099
423.800	-20.958	0.099
423.900	-28.906	0.099
424.000	-33.799	0.099
424.100	-21.294	0.099
424.200	-24.337	0.099
424.300	-34.710	0.099
424.400	-27.530	0.099
424.500	-15.259	0.099
424.600	-11.164	0.099
424.700	-18.589	0.100
424.800	-19.983	0.099
424.900	-31.194	0.099
425.000	-21.670	0.099
425.100	-29.142	0.100
425.200	-20.537	0.099
425.300	-1.162	0.099
425.400	-24.815	0.099
425.500	-24.095	0.099
425.600	-24.166	0.099
425.700	-14.790	0.100
425.800	-21.200	0.099
425.900	-34.342	0.099
426.000	-22.172	0.099
426.100	-17.250	0.099
426.200	-8.072	0.099
426.300	-27.243	0.100
426.400	-23.876	0.100
426.500	-5.236	0.099
426.600	-24.746	0.099
426.700	-16.276	0.099
426.800	-32.374	0.099
426.900	-15.889	0.099
427.000	-19.107	0.099
427.100	-21.888	0.099
427.200	-21.195	0.099
427.300	-12.072	0.099
427.400	-21.707	0.099
427.500	-37.522	0.099
427.600	-27.521	0.100
427.700	-29.121	0.099
427.800	-4.685	0.099
427.900	-22.566	0.099
428.000	-12.394	0.099
428.100	-23.879	0.099
428.200	-19.914	0.099
428.300	-30.374	0.099
428.400	-21.981	0.099
428.500	-16.295	0.099
428.600	-7.969	0.099
428.700	-18.427	0.099
428.800	-23.924	0.099
428.900	-32.980	0.099
429.000	-35.425	0.099
429.100	-28.507	0.099
429.200	-27.301	0.099
429.300	-17.574	0.099
429.400	-19.627	0.099
429.500	-21.806	0.099
429.600	-11.176	0.099
429.700	-29.786	0.099
429.800	-13.905	0.099
429.900	-16.988	0.099
430.000	-12.359	0.099
430.100	-18.510	0.099
430.200	-27.033	0.099
430.300	-32.329	0.099
430.400	-15.411	0.099
430.500	-32.705	0.099
430.600	-15.009	0.099
430.700	-20.040	0.099
430.800	-19.916	0.099
430.900	-14.700	0.099
431.000	-19.650	0.099
431.100	-20.806	0.099
431.200	-27.512	0.099
431.300	-26.548	0.099
431.400	-20.264	0.099
431.500	-9.676	0.099
431.600	-31.364	0.099
431.700	-21.340	0.099
431.800	-17.912	0.099
431.900	-11.252	0.099
432.000	-22.433	0.099
432.100	-26.559	0.099
432.200	-12.611	0.099
432.300	-30.351	0.099
432.400	-9.799	0.099
432.500	-23.640	0.099
432.600	-19.615	0.099
432.700	-30.305	0.099
432.800	-18.013	0.099
432.900	-17.920	0.099
433.000	-26.783	0.099
433.100	-11.768	0.099
433.200	-14.071	0.099
433.300	-40.735	0.099
433.400	-22.670	0.099
433.500	-16.930	0.099
433.600	-16.522	0.099
433.700	-32.543	0.099
433.800	-24.272	0.099
433.900	-27.475	0.099
434.000	-40.274	0.099
434.100	-25.391	0.099
434.200	-10.838	0.099
434.300	-28.737	0.099
434.400	-14.140	0.099
434.500	-19.282	0.099
434.600	-25.875	0.099
434.700	-20.235	0.099
434.800	-18.084	0.099
434.900	-9.638	0.099
435.000	-32.983	0.099
435.100	-4.594	0.099
435.200	-19.445	0.099
435.300	-27.583	0.099
435.400	-17.170	0.099
435.500	-22.533	0.100
435.600	-11.630	0.099
435.700	-8.994	0.099
435.800	-29.383	0.099
435.900	-27.520	0.099
436.000	-26.331	0.099
436.100	-4.390	0.099
436.200	-7.289	0.099
436.300	-26.758	0.099
436.400	-17.792	0.099
436.500	-39.088	0.099
436.600	-16.918	0.099
436.700	-7.662	0.099
436.800	-29.177	0.099
436.900	-13.092	0.099
437.000	-17.183	0.099
437.100	-16.267	0.099
437.200	-25.207	0.099
437.300	-17.927	0.099
437.400	-1.080	0.099
437.500	-29.156	0.099
437.600	-20.859	0.099
437.700	-20.351	0.099
437.800	-11.731	0.099
437.900	-39.007	0.099
438.000	-14.327	0.099
438.100	-7.990	0.099
438.200	-18.814	0.099
438.300	-40.530	0.099
438.400	-13.980	0.099
438.500	-28.040	0.099
438.600	-21.748	0.099
438.700	-11.053	0.099
438.800	-10.218	0.099
438.900	-17.688	0.099
439.000	-6.378	0.099
439.100	-21.243	0.099
439.200	-22.818	0.099
439.300	-22.489	0.099
439.400	-7.079	0.099
439.500	-32.891	0.099
439.600	-20.112	0.099
439.700	-4.739	0.099
439.800	-20.942	0.099
439.900	-2.443	0.099
440.000	-28.126	0.099
440.100	-12.404	0.099
440.200	-13.613	0.099
440.300	-25.216	0.099
440.400	-22.633	0.099
440.500	-11.591	0.099
440.600	-13.893	0.099
440.700	-23.179	0.099
440.800	-7.662	0.099
440.900	-29.851	0.099
441.000	-28.072	0.099
441.100	-2.781	0.099
441.200	-14.819	0.099
441.300	-27.047	0.099
441.400	-13.237	0.099
441.500	-14.381	0.099
441.600	-20.730	0.099
441.700	-22.647	0.099
441.800	-27.710	0.099
441.900	-16.357	0.099
442.000	-8.780	0.099
442.100	-17.408	0.099
442.200	-25.372	0.099
442.300	-17.062	0.099
442.400	-24.766	0.099
442.500	-24.742	0.099
442.600	-19.525	0.099
442.700	-34.193	0.099
442.800	-6.859	0.099
442.900	-5.205	0.099
443.000	-12.357	0.099
443.100	-16.063	0.099
443.200	-9.170	0.099
443.300	-18.448	0.099
443.400	-15.199	0.099
443.500	-29.269	0.099
443.600	-6.119	0.099
443.700	-23.704	0.099
443.800	-27.106	0.099
443.900	-17.019	0.099
444.000	-12.795	0.099
444.100	-9.984	0.099
444.200	-19.554	0.099
444.300	-21.663	0.099
444.400	-27.061	0.099
444.500	-2.269	0.099
444.600	-16.872	0.099
444.700	-8.250	0.099
444.800	-18.197	0.099
444.900	-17.488	0.099
445.000	-23.115	0.099
445.100	-4.702	0.099
445.200	-25.339	0.099
445.300	-38.627	0.099
445.400	-4.144	0.099
445.500	-5.697	0.099
445.600	-17.007	0.099
445.700	-9.325	0.099
445.800	-19.686	0.099
445.900	-32.389	0.099
446.000	-4.049	0.099
446.100	-35.605	0.099
446.200	-20.217	0.099
446.300	-0.576	0.099
446.400	-12.987	0.099
446.500	-14.886	0.099
446.600	-28.483	0.099
446.700	-8.508	0.099
446.800	-12.326	0.099
446.900	-37.124	0.099
447.000	-13.245	0.099
447.100	-11.472	0.099
447.200	-9.495	0.099
447.300	-20.136	0.099
447.400	-8.586	0.099
447.500	-10.412	0.099
447.600	-28.245	0.099
447.700	-12.404	0.099
447.800	-20.403	0.099
447.900	-5.399	0.099
448.000	-14.774	0.099
448.100	-11.637	0.099
448.200	-12.311	0.099
448.300	-27.798	0.099
448.400	-22.043	0.099
448.500	-14.595	0.099
448.600	-8.614	0.099
448.700	-17.281	0.099
448.800	-14.894	0.099
448.900	-10.693	0.099
449.000	-19.523	0.099
449.100	-11.322	0.099
449.200	-15.685	0.099
449.300	-15.524	0.099
449.400	-33.290	0.099
449.500	1.265	0.099
449.600	-3.082	0.099
449.700	-13.253	0.099
449.800	-29.848	0.099
449.900	1.552	0.100
450.000	-21.418	0.099
450.100	-6.389	0.099
450.200	-18.661	0.099
450.300	-17.169	0.099
450.400	-15.635	0.099
450.500	-16.187	0.099
450.600	-26.344	0.099
450.700	-32.683	0.099
450.800	-13.228	0.099
450.900	-23.332	0.099
451.000	-12.771	0.099
451.100	-18.284	0.099
451.200	-13.154	0.099
451.300	-22.463	0.099
451.400	-27.451	0.099
451.500	-17.473	0.099
451.600	-5.955	0.099
451.700	-29.315	0.099
451.800	-14.913	0.099
451.900	-15.591	0.099
452.000	-16.416	0.099
452.100	-19.931	0.099
452.200	-24.771	0.099
452.300	-1.344	0.099
452.400	-27.166	0.099
452.500	-19.522	0.099
452.600	-11.395	0.099
452.700	-9.185	0.099
452.800	-11.065	0.099
452.900	-6.802	0.099
453.000	-4.423	0.099
453.100	-8.918	0.099
453.200	-30.415	0.099
453.300	-22.632	0.099
453.400	-8.464	0.099
453.500	-6.738	0.099
453.600	-18.835	0.099
453.700	-13.007	0.099
453.800	-1.738	0.099
453.900	-18.941	0.099
454.000	-10.319	0.099
454.100	-16.679	0.099
454.200	-12.161	0.099
454.300	-22.281	0.099
454.400	-17.862	0.099
454.500	-3.255	0.099
454.600	-6.529	0.099
454.700	-10.154	0.099
454.800	-17.780	0.099
454.900	-4.129	0.099
455.000	-4.437	0.099
455.100	-24.184	0.099
455.200	-16.460	0.099
455.300	-11.193	0.099
455.400	-10.939	0.099
455.500	-25.663	0.099
455.600	-0.076	0.099
455.700	-30.440	0.099
455.800	-16.788	0.099
455.900	-1.759	0.099
456.000	-3.666	0.099
456.100	-17.632	0.099
456.200	-6.336	0.099
456.300	-9.161	0.099
456.400	-24.039	0.099
456.500	-14.991	0.099
456.600	0.730	0.099
456.700	-0.541	0.099
456.800	-26.564	0.099
456.900	-14.768	0.099
457.000	-27.672	0.099
457.100	-8.022	0.099
457.200	-14.378	0.099
457.300	-15.918	0.099
457.400	-1.611	0.099
457.500	-12.361	0.099
457.600	-19.637	0.099
457.700	-25.595	0.099
457.800	-10.280	0.099
457.900	-4.656	0.099
458.000	-23.344	0.099
458.100	-24.648	0.099
458.200	-2.347	0.099
458.300	-13.778	0.099
458.400	-16.267	0.099
458.500	-21.778	0.099
458.600	-17.082	0.099
458.700	-15.737	0.099
458.800	-7.451	0.099
458.900	-1.254	0.099
459.000	-22.939	0.099
459.100	-20.123	0.099
459.200	-23.991	0.099
459.300	-9.848	0.099
459.400	-17.822	0.099
459.500	-11.336	0.099
459.600	-21.166	0.099
459.700	-30.574	0.099
459.800	-8.554	0.099
459.900	-13.968	0.099
460.000	-19.279	0.099
460.100	-11.977	0.099
460.200	-14.673	0.099
460.300	-18.514	0.099
460.400	-7.342	0.099
460.500	-20.488	0.099
460.600	-11.370	0.099
460.700	-12.934	0.099
460.800	-26.633	0.099
460.900	-15.542	0.099
461.000	-9.175	0.099
461.100	-7.066	0.099
461.200	-6.077	0.099
461.300	-20.036	0.099
461.400	5.530	0.099
461.500	-15.352	0.099
461.600	-20.907	0.099
461.700	-14.666	0.099
461.800	-5.310	0.099
461.900	-17.924	0.099
462.000	-20.930	0.099
462.100	-11.444	0.099
462.200	-16.862	0.099
462.300	-9.379	0.099
462.400	-27.665	0.099
462.500	-6.296	0.099
462.600	-10.037	0.099
462.700	-26.100	0.099
462.800	-0.551	0.099
462.900	-20.896	0.099
463.000	-6.473	0.099
463.100	-1.126	0.099
463.200	-11.178	0.099
463.300	-15.071	0.099
463.400	-16.021	0.099
463.500	-25.469	0.099
463.600	-1.646	0.099
463.700	-4.354	0.099
463.800	-20.515	0.099
463.900	-11.941	0.099
464.000	-11.229	0.099
464.100	-3.824	0.099
464.200	-6.548	0.099
464.300	-8.453	0.099
464.400	-5.580	0.099
464.500	-18.965	0.099
464.600	-5.863	0.099
464.700	0.395	0.099
464.800	-16.874	0.099
464.900	-6.489	0.099
465.000	-19.420	0.099
465.100	-21.303	0.099
465.200	-7.643	0.099
465.300	-13.679	0.099
465.400	3.023	0.099
465.500	-9.359	0.099
465.600	-18.658	0.099
465.700	-9.138	0.099
465.800	1.377	0.099
465.900	-33.221	0.099
466.000	-19.139	0.099
466.100	-4.978	0.099
466.200	-8.034	0.099
466.300	-18.544	0.099
466.400	-13.778	0.099
466.500	-26.879	0.099
466.600	-6.544	0.099
466.700	-11.741	0.099
466.800	-3.854	0.099
466.900	-23.211	0.099
467.000	-17.891	0.099
467.100	-13.452	0.099
467.200	-14.640	0.099
467.300	-20.076	0.099
467.400	-8.678	0.099
467.500	-28.368	0.099
467.600	-14.233	0.099
467.700	-5.390	0.099
467.800	-6.641	0.099
467.900	-1.333	0.099
468.000	-10.860	0.099
468.100	-11.071	0.099
468.200	-15.691	0.099
468.300	-16.097	0.099
468.400	-32.245	0.099
468.500	-6.205	0.099
468.600	-8.809	0.099
468.700	1.701	0.099
468.800	-6.142	0.099
468.900	-18.558	0.099
469.000	-10.540	0.099
469.100	-8.155	0.099
469.200	-38.403	0.099
469.300	-22.182	0.099
469.400	-15.152	0.099
469.500	-18.554	0.099
469.600	-4.425	0.099
469.700	-9.166	0.099
469.800	-14.020	0.099
469.900	-17.220	0.099
470.000	-9.643	0.099
470.100	-12.818	0.099
470.200	-8.201	0.099
470.300	6.634	0.099
470.400	-28.733	0.099
470.500	-6.332	0.099
470.600	-6.464	0.099
470.700	-10.909	0.099
470.800	-10.494	0.099
470.900	-16.645	0.099
471.000	-15.212	0.099
471.100	-2.253	0.099
471.200	-20.895	0.099
471.300	-15.292	0.099
471.400	-29.759	0.099
471.500	-3.627	0.099
471.600	-9.604	0.099
471.700	-8.168	0.099
471.800	-16.936	0.099
471.900	-18.401	0.099
472.000	-2.080	0.099
472.100	-3.092	0.099
472.200	-15.941	0.099
472.300	-11.362	0.099
472.400	-15.631	0.099
472.500	-20.048	0.099
472.600	-7.794	0.099
472.700	-5.207	0.099
472.800	-7.442	0.099
472.900	-15.748	0.099
473.000	-22.077	0.099
473.100	-22.231	0.099
473.200	-10.101	0.099
473.300	-15.787	0.099
473.400	-4.450	0.099
473.500	-10.003	0.099
473.600	-3.460	0.099
473.700	-8.768	0.099
473.800	-10.397	0.099
473.900	-12.021	0.099
474.000	-9.515	0.099
474.100	-13.163	0.099
474.200	-19.019	0.099
474.300	-8.250	0.099
474.400	-18.116	0.099
474.500	-3.544	0.099
474.600	-20.075	0.099
474.700	-13.393	0.099
474.800	-3.181	0.099
474.900	-11.423	0.100
475.000	-8.881	0.099
475.100	-22.807	0.099
475.200	-7.034	0.099
475.300	-7.956	0.099
475.400	-12.329	0.099
475.500	-19.163	0.099
475.600	-30.393	0.099
475.700	-19.177	0.099
475.800	6.478	0.099
475.900	-10.498	0.099
476.000	-7.169	0.099
476.100	-9.379	0.099
476.200	-15.598	0.099
476.300	-15.419	0.099
476.400	-12.111	0.099
476.500	-13.670	0.099
476.600	-5.752	0.099
476.700	-21.357	0.099
476.800	-6.947	0.100
476.900	-15.991	0.099
477.000	-3.526	0.099
477.100	-6.442	0.099
477.200	-19.189	0.099
477.300	-13.291	0.099
477.400	-16.882	0.099
477.500	-12.955	0.099
477.600	-17.374	0.099
477.700	-8.450	0.099
477.800	-5.727	0.099
477.900	-17.379	0.099
478.000	-2.975	0.099
478.100	-16.392	0.099
478.200	-13.963	0.099
478.300	-7.176	0.099
478.400	-5.333	0.099
478.500	-14.790	0.099
478.600	-25.462	0.099
478.700	-9.093	0.099
478.800	-12.363	0.099
478.900	-7.719	0.099
479.000	10.537	0.099
479.100	-20.668	0.099
479.200	-8.274	0.100
479.300	-8.261	0.099
479.400	-8.710	0.099
479.500	-14.068	0.100
479.600	-1.030	0.099
479.700	-9.130	0.099
479.800	-27.264	0.099
479.900	-15.941	0.099
480.000	-15.381	0.099
480.100	-5.924	0.100
480.200	-16.416	0.099
480.300	-33.436	0.099
480.400	-24.284	0.099
480.500	-2.856	0.099
480.600	-20.616	0.099
480.700	-12.909	0.099
480.800	-2.638	0.099
480.900	7.991	0.099
481.000	-4.505	0.099
481.100	0.706	0.099
481.200	-9.605	0.099
481.300	-8.607	0.099
481.400	-10.441	0.100
481.500	10.961	0.099
481.600	-8.399	0.099
481.700	4.787	0.099
481.800	12.899	0.099
481.900	-5.728	0.099
482.000	16.297	0.099
482.100	7.374	0.099
482.200	22.284	0.099
482.300	7.946	0.099
482.400	19.603	0.099
482.500	11.828	0.099
482.600	15.204	0.099
482.700	17.122	0.099
482.800	22.066	0.099
482.900	6.844	0.099
483.000	32.447	0.099
483.100	-3.116	0.099
483.200	25.821	0.099
483.300	31.928	0.099
483.400	29.378	0.099
483.500	7.459	0.099
483.600	20.471	0.099
483.700	27.409	0.100
483.800	25.564	0.099
483.900	14.617	0.099
484.000	8.814	0.099
484.100	33.276	0.099
484.200	18.913	0.099
484.300	11.033	0.099
484.400	15.303	0.100
484.500	32.397	0.099
484.600	-0.007	0.099
484.700	20.247	0.099
484.800	19.766	0.099
484.900	6.585	0.100
485.000	34.780	0.099
485.100	20.143	0.099
485.200	6.800	0.099
485.300	16.363	0.100
485.400	31.042	0.099
485.500	7.174	0.099
485.600	19.430	0.099
485.700	22.216	0.100
485.800	21.493	0.100
485.900	16.487	0.100
486.000	21.169	0.099
486.100	18.433	0.100
486.200	19.084	0.099
486.300	9.051	0.099
486.400	14.831	0.099
486.500	19.678	0.099
486.600	20.677	0.100
486.700	19.422	0.099
486.800	21.068	0.099
486.900	7.279	0.099
487.000	27.182	0.100
487.100	11.202	0.100
487.200	17.878	0.099
487.300	36.064	0.100
487.400	20.266	0.100
487.500	20.080	0.099
487.600	10.680	0.099
487.700	32.908	0.100
487.800	27.029	0.099
487.900	12.592	0.099
488.000	16.740	0.099
488.100	24.883	0.099
488.200	22.742	0.099
488.300	19.051	0.099
488.400	30.927	0.099
488.500	29.840	0.099
488.600	6.151	0.099
488.700	13.725	0.099
488.800	17.098	0.099
488.900	27.883	0.099
489.000	30.202	0.099
489.100	29.993	0.099
489.200	24.973	0.099
489.300	16.604	0.100
489.400	16.928	0.099
489.500	15.885	0.100
489.600	29.386	0.099
489.700	29.278	0.099
489.800	27.495	0.099
489.900	6.325	0.099
490.000	34.863	0.099
490.100	28.364	0.099
490.200	21.901	0.099
490.300	35.434	0.099
490.400	24.818	0.099
490.500	7.262	0.099
490.600	35.376	0.099
490.700	43.058	0.100
490.800	18.723	0.099
490.900	10.608	0.099
491.000	32.529	0.100
491.100	16.312	0.099
491.200	24.877	0.099
491.300	40.432	0.099
491.400	19.702	0.099
491.500	23.740	0.099
491.600	35.852	0.100
491.700	24.423	0.099
491.800	23.075	0.099
491.900	25.436	0.099
492.000	36.001	0.099
492.100	17.994	0.099
492.200	18.414	0.099
492.300	38.567	0.099
492.400	51.726	0.099
492.500	24.130	0.099
492.600	30.957	0.099
492.700	39.320	0.099
492.800	42.597	0.099
492.900	27.170	0.099
493.000	36.391	0.099
493.100	22.921	0.099
493.200	19.512	0.099
493.300	32.689	0.099
493.400	44.469	0.099
493.500	32.196	0.099
493.600	25.955	0.099
493.700	35.866	0.099
493.800	26.171	0.099
493.900	25.884	0.099
494.000	29.582	0.099
494.100	38.125	0.099
494.200	22.443	0.099
494.300	24.191	0.099
494.400	34.364	0.099
494.500	38.799	0.099
494.600	51.914	0.100
494.700	32.518	0.099
494.800	47.288	0.100
494.900	24.371	0.099
495.000	39.991	0.099
495.100	27.739	0.099
495.200	29.046	0.100
495.300	41.113	0.099
495.400	42.207	0.099
495.500	30.298	0.100
495.600	28.961	0.099
495.700	45.311	0.099
495.800	37.987	0.099
495.900	35.535	0.099
496.000	20.341	0.099
496.100	39.177	0.099
496.200	36.155	0.100
496.300	34.867	0.099
496.400	44.169	0.099
496.500	30.258	0.099
496.600	24.083	0.099
496.700	34.746	0.099
496.800	38.870	0.099
496.900	49.715	0.099
497.000	48.479	0.099
497.100	47.965	0.099
497.200	30.322	0.100
497.300	45.236	0.099
497.400	25.497	0.099
497.500	36.427	0.099
497.600	44.942	0.100
497.700	42.083	0.100
497.800	35.109	0.099
497.900	32.368	0.099
498.000	52.617	0.099
498.100	34.873	0.099
498.200	51.079	0.099
498.300	26.137	0.099
498.400	35.271	0.100
498.500	47.732	0.099
498.600	50.333	0.100
498.700	30.138	0.100
498.800	43.540	0.099
498.900	47.181	0.099
499.000	45.458	0.100
499.100	37.779	0.099
499.200	33.645	0.099
499.300	38.773	0.099
499.400	33.183	0.099
499.500	18.777	0.099
499.600	31.529	0.099
499.700	43.382	0.099
499.800	45.399	0.099
499.900	37.568	0.099
500.000	37.813	0.099
500.100	26.939	0.099
500.200	52.860	0.099
500.300	53.551	0.099
500.400	42.560	0.099
500.500	40.162	0.100
500.600	37.513	0.099
500.700	46.670	0.099
500.800	38.448	0.099
500.900	33.531	0.099
501.000	41.061	0.099
501.100	45.060	0.100
501.200	35.425	0.099
501.300	42.248	0.099
501.400	37.201	0.099
501.500	42.100	0.099
501.600	25.497	0.099
501.700	31.745	0.099
501.800	20.557	0.099
501.900	45.184	0.099
502.000	37.007	0.099
502.100	54.706	0.099
502.200	39.513	0.099
502.300	45.238	0.099
502.400	44.116	0.099
502.500	47.191	0.099
502.600	48.648	0.099
502.700	35.369	0.099
502.800	33.833	0.099
502.900	36.275	0.100
503.000	35.191	0.099
503.100	38.298	0.099
503.200	40.983	0.099
503.300	37.215	0.099
503.400	49.385	0.099
503.500	37.904	0.099
503.600	48.041	0.099
503.700	41.011	0.099
503.800	36.576	0.099
503.900	40.359	0.099
504.000	43.321	0.099
504.100	39.972	0.099
504.200	29.647	0.099
504.300	36.744	0.100
504.400	27.712	0.099
504.500	53.117	0.099
504.600	53.808	0.099
504.700	38.658	0.099
504.800	34.041	0.099
504.900	42.360	0.099
505.000	27.576	0.099
505.100	43.799	0.099
505.200	27.099	0.099
505.300	64.676	0.099
505.400	21.318	0.100
505.500	32.093	0.099
505.600	35.713	0.099
505.700	36.912	0.100
505.800	54.549	0.099
505.900	46.571	0.099
506.000	29.498	0.099
506.100	35.460	0.099
506.200	45.860	0.099
506.300	29.572	0.100
506.400	50.366	0.099
506.500	32.371	0.099
506.600	40.524	0.099
506.700	30.881	0.100
506.800	36.063	0.099
506.900	40.925	0.099
507.000	36.241	0.100
507.100	49.611	0.099
507.200	44.121	0.100
507.300	35.329	0.100
507.400	34.791	0.100
507.500	46.471	0.100
507.600	38.969	0.099
507.700	26.787	0.100
507.800	34.575	0.099
507.900	35.236	0.100
508.000	42.654	0.099
508.100	44.772	0.099
508.200	35.422	0.100
508.300	41.943	0.099
508.400	43.127	0.099
508.500	39.712	0.099
508.600	39.757	0.100
508.700	36.877	0.099
508.800	46.841	0.100
508.900	43.792	0.100
509.000	33.919	0.099
509.100	37.771	0.100
509.200	44.876	0.099
509.300	41.283	0.099
509.400	23.585	0.099
509.500	58.020	0.099
509.600	23.776	0.099
509.700	26.740	0.099
509.800	35.241	0.099
509.900	33.271	0.099
510.000	51.955	0.099
510.100	51.919	0.099
510.200	46.207	0.099
510.300	27.856	0.100
510.400	38.533	0.100
510.500	42.629	0.100
510.600	43.205	0.100
510.700	33.374	0.099
510.800	28.683	0.099
510.900	45.349	0.099
511.000	28.583	0.100
511.100	37.996	0.099
511.200	40.822	0.100
511.300	39.552	0.099
511.400	42.001	0.099
511.500	33.750	0.099
511.600	32.775	0.100
511.700	37.129	0.100
511.800	54.187	0.099
511.900	38.891	0.099
512.000	44.140	0.099
512.100	38.641	0.099
512.200	29.284	0.099
512.300	41.393	0.100
512.400	38.594	0.099
512.500	27.005	0.099
512.600	42.667	0.100
512.700	39.045	0.099
512.800	24.978	0.100
512.900	42.720	0.099
513.000	32.666	0.099
513.100	32.889	0.099
513.200	29.368	0.100
513.300	38.424	0.100
513.400	37.973	0.099
513.500	42.297	0.100
513.600	41.701	0.100
513.700	49.847	0.100
513.800	38.175	0.099
513.900	35.227	0.099
514.000	35.228	0.100
514.100	58.191	0.100
514.200	29.100	0.099
514.300	45.465	0.100
514.400	24.632	0.099
514.500	41.833	0.100
514.600	27.273	0.100
514.700	33.635	0.100
514.800	29.855	0.100
514.900	34.812	0.099
515.000	37.054	0.099
515.100	45.911	0.100
515.200	30.093	0.100
515.300	43.797	0.099
515.400	49.557	0.099
515.500	33.831	0.100
515.600	30.681	0.100
515.700	42.853	0.099
515.800	35.817	0.099
515.900	34.643	0.099
516.000	46.119	0.099
516.100	33.498	0.100
516.200	37.656	0.100
516.300	36.017	0.099
516.400	37.864	0.099
516.500	43.988	0.100
516.600	21.388	0.099
516.700	45.448	0.099
516.800	38.372	0.100
516.900	39.161	0.100
517.000	9.254	0.099
517.100	48.439	0.099
517.200	43.573	0.099
517.300	41.228	0.099
517.400	30.187	0.099
517.500	30.174	0.099
517.600	32.982	0.099
517.700	41.023	0.099
517.800	40.427	0.099
517.900	42.656	0.099
518.000	39.584	0.100
518.100	37.185	0.100
518.200	42.729	0.099
518.300	41.563	0.099
518.400	37.631	0.099
518.500	43.690	0.100
518.600	41.256	0.100
518.700	30.999	0.100
518.800	36.027	0.100
518.900	29.135	0.099
519.000	36.288	0.099
519.100	42.024	0.100
519.200	25.837	0.099
519.300	28.994	0.099
519.400	44.396	0.099
519.500	37.833	0.099
519.600	40.450	0.100
519.700	38.189	0.099
519.800	40.017	0.099
519.900	25.378	0.099
520.000	44.682	0.099
520.100	37.193	0.099
520.200	45.986	0.099
520.300	44.707	0.099
520.400	46.494	0.099
520.500	33.956	0.100
520.600	31.078	0.099
520.700	17.126	0.100
520.800	45.927	0.099
520.900	38.725	0.099
521.000	21.614	0.099
521.100	35.476	0.099
521.200	35.455	0.100
521.300	45.042	0.100
521.400	33.609	0.099
521.500	38.325	0.099
521.600	42.384	0.099
521.700	40.582	0.099
521.800	45.061	0.099
521.900	49.302	0.099
522.000	30.576	0.100
522.100	47.906	0.100
522.200	32.342	0.099
522.300	29.152	0.099
522.400	21.969	0.100
522.500	37.586	0.099
522.600	28.558	0.099
522.700	56.425	0.099
522.800	37.919	0.099
522.900	25.472	0.099
523.000	40.318	0.099
523.100	43.297	0.099
523.200	39.265	0.100
523.300	35.931	0.099
523.400	43.676	0.099
523.500	31.407	0.100
523.600	38.689	0.099
523.700	30.072	0.099
523.800	38.582	0.099
523.900	32.628	0.099
524.000	36.894	0.100
524.100	27.317	0.099
524.200	30.042	0.099
524.300	38.556	0.099
524.400	43.694	0.099
524.500	49.859	0.100
524.600	21.406	0.099
524.700	35.327	0.099
524.800	22.041	0.099
524.900	43.207	0.099
525.000	46.145	0.099
525.100	38.917	0.099
525.200	26.576	0.099
525.300	33.371	0.099
525.400	33.326	0.099
525.500	45.249	0.099
525.600	30.053	0.099
525.700	40.768	0.100
525.800	30.737	0.099
525.900	28.767	0.100
526.000	18.855	0.099
526.100	42.068	0.100
526.200	40.304	0.099
526.300	26.118	0.100
526.400	24.539	0.100
526.500	40.341	0.100
526.600	39.601	0.100
526.700	29.482	0.099
526.800	31.257	0.099
526.900	34.972	0.099
527.000	44.906	0.099
527.100	38.679	0.099
527.200	40.584	0.099
527.300	29.814	0.099
527.400	30.985	0.099
527.500	40.685	0.099
527.600	22.936	0.099
527.700	43.507	0.100
527.800	35.178	0.099
527.900	38.353	0.099
528.000	19.021	0.099
528.100	43.747	0.100
528.200	20.190	0.099
528.300	37.736	0.100
528.400	40.806	0.100
528.500	31.115	0.099
528.600	32.796	0.100
528.700	33.168	0.099
528.800	41.361	0.099
528.900	33.935	0.100
529.000	44.574	0.099
529.100	31.629	0.099
529.200	43.647	0.099
529.300	20.028	0.100
529.400	43.241	0.099
529.500	21.077	0.099
529.600	37.959	0.099
529.700	37.343	0.099
529.800	33.090	0.099
529.900	41.416	0.099
530.000	23.283	0.099
530.100	40.248	0.099
530.200	25.228	0.099
530.300	35.744	0.099
530.400	45.454	0.099
530.500	25.343	0.099
530.600	52.908	0.100
530.700	48.597	0.100
530.800	32.318	0.099
530.900	27.880	0.099
531.000	32.692	0.099
531.100	35.335	0.100
531.200	29.996	0.100
531.300	36.936	0.099
531.400	30.324	0.099
531.500	36.307	0.100
531.600	25.207	0.099
531.700	41.121	0.099
531.800	39.446	0.100
531.900	39.624	0.099
532.000	48.872	0.100
532.100	34.663	0.099
532.200	16.997	0.099
532.300	34.084	0.099
532.400	43.565	0.100
532.500	39.269	0.100
532.600	31.077	0.099
532.700	23.776	0.099
532.800	39.397	0.099
532.900	30.848	0.099
533.000	28.815	0.100
533.100	37.338	0.100
533.200	13.094	0.099
533.300	33.093	0.099
533.400	33.387	0.099
533.500	45.384	0.099
533.600	37.773	0.099
533.700	31.794	0.099
533.800	41.259	0.099
533.900	36.111	0.099
534.000	25.003	0.099
534.100	38.797	0.100
534.200	39.690	0.099
534.300	23.619	0.099
534.400	19.764	0.099
534.500	41.764	0.099
534.600	42.634	0.099
534.700	24.666	0.099
534.800	30.813	0.099
534.900	41.777	0.100
535.000	31.171	0.099
535.100	23.067	0.100
535.200	21.769	0.100
535.300	21.209	0.100
535.400	42.337	0.099
535.500	34.952	0.100
535.600	28.940	0.099
535.700	30.953	0.099
535.800	46.118	0.099
535.900	39.212	0.099
536.000	37.305	0.099
536.100	38.310	0.100
536.200	29.416	0.099
536.300	34.311	0.100
536.400	40.958	0.099
536.500	33.588	0.099
536.600	30.913	0.100
536.700	39.787	0.099
536.800	20.363	0.100
536.900	30.370	0.099
537.000	39.398	0.099
537.100	36.259	0.100
537.200	60.713	0.099
537.300	26.652	0.099
537.400	36.830	0.099
537.500	32.710	0.099
537.600	33.296	0.099
537.700	27.732	0.099
537.800	37.960	0.099
537.900	46.387	0.099
538.000	38.479	0.099
538.100	30.033	0.100
538.200	35.590	0.100
538.300	32.081	0.099
538.400	42.857	0.100
538.500	22.535	0.099
538.600	24.973	0.099
538.700	38.816	0.100
538.800	51.885	0.100
538.900	23.624	0.099
539.000	32.486	0.099
539.100	44.792	0.100
539.200	20.381	0.099
539.300	25.524	0.100
539.400	33.027	0.099
539.500	32.892	0.100
539.600	46.713	0.099
539.700	28.375	0.100
539.800	32.951	0.100
539.900	33.455	0.099
540.000	20.093	0.099
540.100	34.519	0.100
540.200	31.253	0.099
540.300	37.943	0.100
540.400	29.108	0.100
540.500	43.558	0.100
540.600	32.163	0.100
540.700	25.133	0.099
540.800	29.599	0.099
540.900	30.300	0.100
541.000	23.108	0.099
541.100	18.344	0.099
541.200	17.778	0.099
541.300	19.234	0.100
541.400	10.242	0.099
541.500	16.837	0.099
541.600	17.593	0.100
541.700	18.076	0.099
541.800	0.434	0.099
541.900	12.832	0.100
542.000	7.557	0.099
542.100	8.431	0.099
542.200	4.423	0.100
542.300	-12.917	0.100
542.400	-2.249	0.099
542.500	-8.309	0.099
542.600	-7.246	0.099
542.700	14.294	0.099
542.800	5.963	0.100
542.900	2.529	0.099
543.000	15.102	0.099
543.100	-13.995	0.099
543.200	-1.108	0.099
543.300	-3.691	0.100
543.400	-4.638	0.099
543.500	-3.895	0.099
543.600	2.235	0.099
543.700	-7.668	0.099
543.800	0.647	0.100
543.900	-4.808	0.099
544.000	-25.939	0.099
544.100	-8.296	0.099
544.200	-8.232	0.099
544.300	-4.525	0.099
544.400	-13.738	0.099
544.500	3.836	0.100
544.600	-5.421	0.099
544.700	-3.915	0.099
544.800	-9.468	0.099
544.900	-7.384	0.099
545.000	-6.189	0.099
545.100	-2.599	0.100
545.200	-3.356	0.099
545.300	-13.735	0.099
545.400	-5.492	0.099
545.500	-8.741	0.099
545.600	-13.119	0.099
545.700	-7.364	0.099
545.800	-3.320	0.099
545.900	-5.526	0.099
546.000	-26.594	0.099
546.100	0.127	0.099
546.200	-9.169	0.100
546.300	-8.384	0.099
546.400	-12.393	0.099
546.500	-10.461	0.099
546.600	-15.951	0.099
546.700	-4.484	0.099
546.800	-16.327	0.099
546.900	-9.145	0.099
547.000	-6.933	0.099
547.100	-8.584	0.100
547.200	-1.443	0.099
547.300	-14.601	0.100
547.400	-14.606	0.099
547.500	-11.168	0.100
547.600	-9.047	0.099
547.700	-1.649	0.099
547.800	-23.628	0.099
547.900	-8.581	0.099
548.000	-15.866	0.099
548.100	-9.901	0.099
548.200	-13.986	0.099
548.300	-29.898	0.099
548.400	-6.059	0.099
548.500	-8.018	0.099
548.600	-4.369	0.099
548.700	-12.630	0.100
548.800	-13.672	0.099
548.900	-17.280	0.099
549.000	-5.989	0.100
549.100	-12.813	0.099
549.200	-7.815	0.099
549.300	-0.672	0.100
549.400	-11.481	0.100
549.500	-11.979	0.100
549.600	-17.634	0.100
549.700	-7.241	0.100
549.800	-10.206	0.100
549.900	-20.450	0.100
550.000	13.128	0.100
550.100	-16.847	0.100
550.200	-17.534	0.100
550.300	-14.900	0.099
550.400	-12.147	0.099
550.500	-20.137	0.099
550.600	-4.312	0.100
550.700	-24.010	0.100
550.800	-3.229	0.099
550.900	-12.096	0.099
551.000	-2.140	0.099
551.100	-13.614	0.099
551.200	-7.710	0.099
551.300	-13.741	0.100
551.400	-17.169	0.100
551.500	-6.322	0.100
551.600	-28.568	0.099
551.700	-5.620	0.099
551.800	-13.365	0.099
551.900	-16.999	0.100
552.000	-15.356	0.100
552.100	-25.939	0.099
552.200	-13.200	0.100
552.300	-9.707	0.099
552.400	-2.766	0.100
552.500	-7.921	0.100
552.600	-13.121	0.099
552.700	-14.713	0.100
552.800	-26.104	0.100
552.900	-28.526	0.099
553.000	-18.061	0.100
553.100	-15.716	0.100
553.200	-6.798	0.099
553.300	-17.301	0.099
553.400	-17.208	0.100
553.500	-11.774	0.099
553.600	-29.882	0.099
553.700	-13.543	0.099
553.800	-10.671	0.100
553.900	-24.249	0.099
554.000	-6.145	0.099
554.100	-5.540	0.099
554.200	-16.129	0.099
554.300	-16.295	0.100
554.400	-12.613	0.099
554.500	-2.902	0.100
554.600	-12.213	0.100
554.700	-20.208	0.099
554.800	-7.822	0.099
554.900	-22.983	0.100
555.000	-7.930	0.100
555.100	-10.687	0.099
555.200	-25.418	0.099
555.300	-16.898	0.100
555.400	-19.874	0.099
555.500	-13.193	0.100
555.600	-30.112	0.099
555.700	-7.557	0.099
555.800	-14.005	0.099
555.900	-25.529	0.100
556.000	-21.694	0.100
556.100	-29.896	0.099
556.200	-1.442	0.100
556.300	-20.235	0.100
556.400	-15.949	0.100
556.500	-28.243	0.100
556.600	-12.061	0.099
556.700	-1.233	0.100
556.800	-22.751	0.099
556.900	-15.859	0.100
557.000	-15.403	0.099
557.100	-32.951	0.099
557.200	-21.954	0.099
557.300	-20.699	0.099
557.400	-17.163	0.100
557.500	-13.034	0.099
557.600	-23.238	0.099
557.700	-31.936	0.100
557.800	-22.213	0.099
557.900	-10.101	0.100
558.000	-20.044	0.100
558.100	-20.786	0.099
558.200	-16.158	0.099
558.300	-11.667	0.099
558.400	-24.829	0.099
558.500	-17.085	0.099
558.600	-18.965	0.100
558.700	-17.072	0.100
558.800	-31.858	0.099
558.900	-39.959	0.099
559.000	-15.008	0.099
559.100	-4.586	0.100
559.200	-15.371	0.100
559.300	-19.184	0.099
559.400	-16.815	0.099
559.500	-22.769	0.100
559.600	-28.118	0.100
559.700	-28.466	0.099
559.800	-24.725	0.100
559.900	-15.454	0.099
560.000	-9.437	0.099
560.100	-22.390	0.099
560.200	-26.341	0.099
560.300	-18.045	0.099
560.400	-1.809	0.100
560.500	-19.179	0.099
560.600	-25.530	0.099
560.700	-25.947	0.100
560.800	-21.749	0.100
560.900	-27.085	0.099
561.000	-28.888	0.099
561.100	-31.715	0.099
561.200	-9.316	0.100
561.300	-34.746	0.099
561.400	-31.676	0.100
561.500	-15.122	0.099
561.600	-3.100	0.100
561.700	-16.465	0.099
561.800	-25.631	0.099
561.900	-33.095	0.100
562.000	-13.375	0.099
562.100	-4.920	0.099
562.200	-24.565	0.099
562.300	-29.798	0.100
562.400	-19.234	0.099
562.500	-24.241	0.100
562.600	-18.044	0.100
562.700	-14.311	0.100
562.800	-31.422	0.099
562.900	-23.606	0.100
563.000	-15.935	0.100
563.100	-20.257	0.099
563.200	-19.462	0.100
563.300	-14.942	0.100
563.400	-25.651	0.100
563.500	-23.758	0.100
563.600	-10.564	0.099
563.700	-22.805	0.100
563.800	-10.857	0.100
563.900	-21.154	0.100
564.000	-19.713	0.100
564.100	-21.108	0.100
564.200	-28.647	0.100
564.300	-24.771	0.100
564.400	-34.576	0.099
564.500	-30.992	0.099
564.600	-20.258	0.099
564.700	-12.459	0.100
564.800	-29.157	0.100
564.900	-36.424	0.100
565.000	-17.361	0.100
565.100	-34.973	0.100
565.200	-14.438	0.100
565.300	-27.620	0.099
565.400	-3.592	0.100
565.500	-21.504	0.100
565.600	-35.443	0.100
565.700	-12.532	0.100
565.800	-17.318	0.100
565.900	-14.328	0.100
566.000	-19.303	0.100
566.100	-33.029	0.099
566.200	-32.475	0.099
566.300	-26.038	0.100
566.400	-15.158	0.099
566.500	-28.219	0.099
566.600	-31.699	0.100
566.700	-24.891	0.099
566.800	-25.091	0.100
566.900	-20.764	0.100
567.000	-44.165	0.099
567.100	-34.301	0.100
567.200	-4.317	0.099
567.300	-22.557	0.099
567.400	-11.890	0.099
567.500	-23.408	0.100
567.600	-31.129	0.100
567.700	-26.390	0.100
567.800	-16.041	0.099
567.900	-28.064	0.100
568.000	-27.455	0.099
568.100	-26.979	0.099
568.200	-14.168	0.100
568.300	-36.065	0.099
568.400	-15.312	0.100
568.500	-18.563	0.099
568.600	-33.878	0.100
568.700	-9.802	0.099
568.800	-23.797	0.100
568.900	-16.309	0.100
569.000	-13.322	0.100
569.100	-12.181	0.100
569.200	-23.938	0.100
569.300	-25.159	0.100
569.400	-1.490	0.100
569.500	-18.144	0.100
569.600	-20.461	0.100
569.700	-37.539	0.099
569.800	-39.125	0.099
569.900	-30.842	0.099
570.000	-15.271	0.100
570.100	-47.089	0.099
570.200	-15.279	0.100
570.300	-24.520	0.099
570.400	-33.879	0.100
570.500	-33.397	0.099
570.600	-10.266	0.100
570.700	-25.898	0.100
570.800	-24.780	0.100
570.900	-21.129	0.099
571.000	-17.419	0.099
571.100	-15.981	0.099
571.200	-23.475	0.100
571.300	-21.319	0.100
571.400	-33.466	0.100
571.500	-22.632	0.100
571.600	-15.245	0.100
571.700	-32.895	0.100
571.800	-21.964	0.100
571.900	-22.953	0.100
572.000	-17.513	0.100
572.100	-34.256	0.100
572.200	-12.873	0.100
572.300	-39.177	0.100
572.400	-35.267	0.100
572.500	-26.175	0.100
572.600	-6.411	0.100
572.700	-31.355	0.100
572.800	-33.783	0.099
572.900	-21.972	0.100
573.000	-15.176	0.099
573.100	-15.453	0.100
573.200	-34.060	0.099
573.300	-15.989	0.099
573.400	-33.754	0.099
573.500	-22.303	0.099
573.600	-27.425	0.100
573.700	-20.103	0.099
573.800	-25.228	0.100
573.900	-27.876	0.100
574.000	-41.719	0.100
574.100	-10.961	0.100
574.200	-16.174	0.100
574.300	-15.345	0.100
574.400	-31.050	0.100
574.500	-27.337	0.099
574.600	-26.075	0.100
574.700	-28.586	0.099
574.800	-17.292	0.100
574.900	-18.734	0.100
575.000	-33.006	0.100
575.100	-20.671	0.100
575.200	-22.797	0.100
575.300	-25.122	0.100
575.400	-20.669	0.100
575.500	-18.530	0.100
575.600	-19.912	0.100
575.700	-30.188	0.100
575.800	-33.762	0.100
575.900	-14.958	0.100
576.000	-16.174	0.099
576.100	-16.416	0.099
576.200	-42.814	0.100
576.300	-28.610	0.099
576.400	-13.951	0.100
576.500	-17.313	0.099
576.600	-37.451	0.099
576.700	-33.682	0.100
576.800	-15.292	0.099
576.900	-30.377	0.100
577.000	-18.075	0.100
577.100	-29.288	0.099
577.200	-7.805	0.100
577.300	-28.968	0.100
577.400	-14.699	0.100
577.500	-27.015	0.100
577.600	-22.089	0.100
577.700	-24.872	0.100
577.800	-10.274	0.100
577.900	-33.105	0.100
578.000	-30.766	0.099
578.100	-18.716	0.100
578.200	-22.497	0.100
578.300	-14.519	0.100
578.400	-24.485	0.100
578.500	-14.133	0.100
578.600	-18.424	0.100
578.700	-24.796	0.099
578.800	-23.616	0.099
578.900	-29.044	0.099
579.000	-11.089	0.100
579.100	-11.284	0.100
579.200	-30.239	0.100
579.300	-24.061	0.100
579.400	-12.163	0.099
579.500	-26.058	0.100
579.600	-31.824	0.099
579.700	-23.146	0.100
579.800	-20.045	0.100
579.900	-21.988	0.100
580.000	-24.071	0.100
580.100	-13.206	0.099
580.200	-26.768	0.100
580.300	-16.732	0.100
580.400	-25.588	0.100
580.500	-25.679	0.100
580.600	-32.603	0.099
580.700	-16.489	0.099
580.800	-23.732	0.100
580.900	-17.156	0.099
581.000	-18.518	0.099
581.100	-19.520	0.100
581.200	-34.341	0.099
581.300	-30.417	0.099
581.400	-17.455	0.100
581.500	-9.565	0.100
581.600	-13.825	0.099
581.700	-32.092	0.099
581.800	-37.300	0.099
581.900	-12.068	0.099
582.000	-23.185	0.100
582.100	-14.648	0.100
582.200	-15.056	0.099
582.300	-19.063	0.099
582.400	-23.895	0.100
582.500	-21.526	0.099
582.600	-21.154	0.099
582.700	-16.498	0.099
582.800	-24.305	0.100
582.900	-29.995	0.099
583.000	-31.592	0.099
583.100	-17.122	0.099
583.200	-26.740	0.099
583.300	-8.239	0.099
583.400	-39.707	0.099
583.500	-11.455	0.099
583.600	5.627	0.099
583.700	-23.321	0.100
583.800	-21.715	0.099
583.900	-40.826	0.100
584.000	-37.724	0.100
584.100	-17.580	0.099
584.200	-12.000	0.099
584.300	-5.198	0.100
584.400	-31.381	0.099
584.500	-17.669	0.099
584.600	-23.312	0.100
584.700	-30.293	0.100
584.800	-32.912	0.100
584.900	-12.128	0.100
585.000	-13.381	0.099
585.100	-24.020	0.099
585.200	-12.316	0.100
585.300	-22.136	0.100
585.400	-23.856	0.099
585.500	-12.509	0.099
585.600	-22.355	0.099
585.700	-21.335	0.099
585.800	-20.053	0.099
585.900	-19.711	0.099
586.000	-19.923	0.099
586.100	-10.225	0.100
586.200	-17.167	0.099
586.300	-21.878	0.100
586.400	-26.555	0.099
586.500	-25.035	0.099
586.600	-24.753	0.099
586.700	-24.406	0.100
586.800	-18.081	0.100
586.900	-9.240	0.100
587.000	-24.944	0.099
587.100	-13.370	0.100
587.200	-7.774	0.100
587.300	-20.631	0.100
587.400	-15.954	0.100
587.500	-19.423	0.100
587.600	-19.408	0.100
587.700	-13.407	0.100
587.800	-28.504	0.099
587.900	5.213	0.100
588.000	-14.013	0.100
588.100	-22.680	0.100
588.200	-9.873	0.099
588.300	-37.629	0.100
588.400	-17.305	0.099
588.500	-24.121	0.100
588.600	-30.098	0.100
588.700	-16.428	0.100
588.800	-10.375	0.099
588.900	-15.860	0.100
589.000	-21.307	0.100
589.100	-9.487	0.100
589.200	-40.969	0.099
589.300	-20.817	0.099
589.400	-34.047	0.099
589.500	-13.724	0.099
589.600	-15.909	0.100
589.700	-21.279	0.099
589.800	-21.404	0.099
589.900	-22.808	0.100
590.000	-20.053	0.099
590.100	-13.615	0.099
590.200	-14.244	0.100
590.300	-18.501	0.100
590.400	-6.562	0.100
590.500	-19.697	0.099
590.600	-17.006	0.100
590.700	-25.162	0.100
590.800	-25.750	0.100
590.900	-20.698	0.100
591.000	-9.661	0.099
591.100	-32.384	0.099
591.200	-0.007	0.099
591.300	-13.080	0.100
591.400	-21.965	0.099
591.500	-21.511	0.099
591.600	-26.131	0.100
591.700	-6.599	0.100
591.800	-20.013	0.100
591.900	-22.744	0.099
592.000	-16.719	0.099
592.100	-18.416	0.099
592.200	-29.996	0.099
592.300	-19.842	0.099
592.400	-22.637	0.099
592.500	4.044	0.099
592.600	-27.049	0.099
592.700	-7.013	0.099
592.800	-0.405	0.099
592.900	-17.578	0.100
593.000	-19.394	0.100
593.100	-22.250	0.099
593.200	-16.761	0.100
593.300	-27.600	0.099
593.400	-18.650	0.100
593.500	-12.480	0.100
593.600	-1.381	0.099
593.700	-12.267	0.099
593.800	-30.531	0.100
593.900	-5.009	0.100
594.000	-15.680	0.100
594.100	-2.970	0.100
594.200	-28.218	0.100
594.300	-21.630	0.099
594.400	-16.598	0.100
594.500	-26.029	0.099
594.600	-17.007	0.100
594.700	-2.127	0.100
594.800	-13.488	0.099
594.900	-16.311	0.099
595.000	-21.796	0.099
595.100	-13.406	0.100
595.200	-27.162	0.099
595.300	-15.927	0.100
595.400	-16.159	0.099
595.500	-16.487	0.100
595.600	-17.206	0.100
595.700	-12.327	0.100
595.800	1.805	0.100
595.900	-9.803	0.100
596.000	-12.488	0.100
596.100	-7.463	0.100
596.200	-30.320	0.099
596.300	-8.425	0.099
596.400	-6.790	0.099
596.500	-11.899	0.100
596.600	-24.782	0.099
596.700	-10.984	0.100
596.800	-33.726	0.100
596.900	-8.888	0.100
597.000	-1.880	0.099
597.100	-22.447	0.100
597.200	-23.548	0.100
597.300	-18.269	0.099
597.400	7.745	0.100
597.500	-7.636	0.100
597.600	-16.052	0.100
597.700	-11.944	0.099
597.800	-21.938	0.100
597.900	-14.305	0.100
598.000	-24.234	0.100
598.100	-22.043	0.099
598.200	-15.191	0.100
598.300	-15.689	0.099
598.400	-3.233	0.099
598.500	0.320	0.100
598.600	-22.274	0.100
598.700	-8.580	0.100
598.800	-31.677	0.099
598.900	-9.915	0.100
599.000	-16.530	0.100
599.100	-15.072	0.100
599.200	-15.624	0.099
599.300	-26.745	0.099
599.400	-14.859	0.100
599.500	-5.973	0.100
599.600	-22.073	0.099
599.700	-11.026	0.099
599.800	-12.521	0.100
599.900	-8.127	0.100
600.000	-28.081	0.100
600.100	-11.532	0.099
600.200	-0.453	0.099
600.300	-9.356	0.100
600.400	-29.141	0.100
600.500	-5.581	0.099
600.600	-13.233	0.100
600.700	-17.788	0.100
600.800	-12.723	0.099
600.900	-22.418	0.099
601.000	-1.448	0.099
601.100	-20.094	0.099
601.200	-13.933	0.099
601.300	-14.850	0.100
601.400	-32.177	0.099
601.500	-22.503	0.100
601.600	-12.079	0.100
601.700	-14.757	0.099
601.800	-18.059	0.100
601.900	-3.212	0.100
602.000	-18.194	0.100
602.100	-15.265	0.100
602.200	-5.888	0.100
602.300	-8.969	0.099
602.400	-8.065	0.100
602.500	-14.473	0.099
602.600	-33.041	0.099
602.700	7.468	0.099
602.800	-15.787	0.099
602.900	2.006	0.099
603.000	-22.466	0.099
603.100	-3.054	0.100
603.200	-21.308	0.100
603.300	-21.978	0.100
603.400	-0.921	0.099
603.500	-17.452	0.099
603.600	-8.663	0.100
603.700	-0.699	0.100
603.800	-21.380	0.100
603.900	-12.781	0.100
604.000	-21.382	0.100
604.100	-5.036	0.100
604.200	-14.679	0.100
604.300	-14.974	0.099
604.400	-13.017	0.100
604.500	-11.403	0.100
604.600	-10.748	0.099
604.700	-27.298	0.099
604.800	-17.973	0.100
604.900	-15.191	0.100
605.000	-4.759	0.100
605.100	-14.642	0.099
605.200	-18.827	0.099
605.300	-18.578	0.100
605.400	-24.904	0.100
605.500	-16.802	0.100
605.600	-10.068	0.100
605.700	1.054	0.100
605.800	-15.787	0.099
605.900	-11.906	0.099
606.000	-30.774	0.100
606.100	-7.433	0.099
606.200	-7.218	0.100
606.300	-9.984	0.099
606.400	-16.058	0.100
606.500	-12.877	0.100
606.600	-2.713	0.100
606.700	-18.934	0.100
606.800	-17.472	0.099
606.900	-14.232	0.100
607.000	-15.511	0.099
607.100	-31.661	0.099
607.200	-10.542	0.100
607.300	-12.274	0.100
607.400	-21.706	0.100
607.500	-21.436	0.099
607.600	2.691	0.100
607.700	-34.518	0.099
607.800	-2.959	0.099
607.900	-9.372	0.100
608.000	-20.627	0.100
608.100	-18.790	0.099
608.200	-9.161	0.099
608.300	-23.564	0.099
608.400	-10.667	0.100
608.500	-25.944	0.100
608.600	-5.961	0.099
608.700	-25.074	0.099
608.800	5.317	0.099
608.900	-15.660	0.100
609.000	-28.727	0.099
609.100	-8.848	0.099
609.200	-22.187	0.099
609.300	-12.780	0.099
609.400	-8.047	0.100
609.500	-12.382	0.099
609.600	-6.477	0.099
609.700	-13.034	0.100
609.800	-18.624	0.099
609.900	-12.366	0.099
610.000	-6.610	0.100
610.100	-12.790	0.100
610.200	-16.941	0.099
610.300	-31.935	0.100
610.400	-16.023	0.100
610.500	0.402	0.100
610.600	-8.551	0.100
610.700	-14.629	0.099
610.800	-8.733	0.099
610.900	-11.505	0.100
611.000	-16.954	0.100
611.100	-23.069	0.100
611.200	-10.808	0.100
611.300	1.295	0.099
611.400	-18.540	0.100
611.500	-8.721	0.100
611.600	-20.250	0.100
611.700	-2.805	0.100
611.800	-3.228	0.100
611.900	-36.480	0.100
612.000	-1.840	0.099
612.100	-8.576	0.100
612.200	-9.859	0.100
612.300	-20.376	0.100
612.400	-4.417	0.100
612.500	-13.765	0.100
612.600	-43.214	0.100
612.700	-28.729	0.100
612.800	5.268	0.100
612.900	0.679	0.100
613.000	-16.403	0.100
613.100	-25.867	0.100
613.200	-7.984	0.099
613.300	-8.531	0.100
613.400	-4.541	0.100
613.500	-0.861	0.099
613.600	-13.696	0.100
613.700	-26.379	0.100
613.800	-16.594	0.100
613.900	1.601	0.100
614.000	-8.361	0.100
614.100	-22.431	0.100
614.200	-18.011	0.100
614.300	-19.191	0.100
614.400	8.711	0.100
614.500	-15.997	0.100
614.600	-13.065	0.099
614.700	-1.042	0.100
614.800	-18.865	0.100
614.900	-14.292	0.100
615.000	-30.556	0.100
615.100	-8.156	0.100
615.200	-24.394	0.100
615.300	-22.521	0.100
615.400	-12.245	0.100
615.500	-13.976	0.100
615.600	-12.307	0.100
615.700	1.778	0.100
615.800	-25.354	0.100
615.900	-24.674	0.099
616.000	-7.361	0.099
616.100	-16.023	0.100
616.200	-13.306	0.100
616.300	-9.520	0.100
616.400	-6.376	0.100
616.500	-10.739	0.100
616.600	-13.438	0.100
616.700	-29.838	0.100
616.800	-0.872	0.100
616.900	-13.164	0.100
617.000	-15.540	0.100
617.100	-14.741	0.100
617.200	-11.806	0.099
617.300	-2.647	0.100
617.400	-17.468	0.100
617.500	-5.339	0.100
617.600	-17.749	0.100
617.700	3.254	0.100
617.800	-11.302	0.100
617.900	-14.607	0.100
618.000	2.037	0.100
618.100	-1.802	0.100
618.200	-6.700	0.100
618.300	-4.382	0.100
618.400	-6.170	0.100
618.500	-6.300	0.100
618.600	-10.692	0.099
618.700	-6.414	0.100
618.800	-19.507	0.100
618.900	-8.885	0.100
619.000	-2.110	0.100
619.100	-16.855	0.100
619.200	-2.768	0.099
619.300	2.143	0.100
619.400	-22.554	0.100
619.500	-11.558	0.100
619.600	-23.624	0.100
619.700	-10.617	0.100
619.800	-19.597	0.100
619.900	-16.974	0.100
620.000	-4.343	0.100
620.100	-20.690	0.100
620.200	-6.997	0.100
620.300	-13.720	0.100
620.400	-9.772	0.100
620.500	-13.454	0.100
620.600	-25.757	0.100
620.700	-13.775	0.100
620.800	-13.872	0.100
620.900	-15.013	0.100
621.000	-12.596	0.100
621.100	-7.605	0.100
621.200	-14.745	0.100
621.300	-7.836	0.100
621.400	-17.005	0.100
621.500	-3.497	0.100
621.600	-11.442	0.100
621.700	-13.188	0.100
621.800	-11.027	0.100
621.900	-8.252	0.100
622.000	-5.459	0.100
622.100	-11.596	0.100
622.200	-23.782	0.100
622.300	-13.694	0.100
622.400	-10.269	0.100
622.500	-11.235	0.100
622.600	2.068	0.100
622.700	-6.055	0.100
622.800	-29.592	0.100
622.900	-35.042	0.100
623.000	-11.216	0.100
623.100	-15.078	0.100
623.200	-1.537	0.100
623.300	-2.804	0.100
623.400	-14.955	0.100
623.500	-8.705	0.100
623.600	-4.057	0.100
623.700	-28.204	0.100
623.800	-29.811	0.100
623.900	-6.333	0.100
624.000	-1.778	0.100
624.100	-22.484	0.100
624.200	-14.463	0.100
624.300	1.310	0.100
624.400	-18.441	0.100
624.500	-6.142	0.100
624.600	-24.394	0.099
624.700	-10.274	0.100
624.800	-26.220	0.100
624.900	-8.621	0.100
625.000	-0.450	0.100
625.100	-12.454	0.099
625.200	-9.060	0.100
625.300	-10.629	0.100
625.400	-8.072	0.100
625.500	-27.114	0.100
625.600	5.459	0.100
625.700	1.971	0.100
625.800	-11.082	0.100
625.900	-3.119	0.100
626.000	-17.817	0.099
626.100	-17.107	0.100
626.200	-17.875	0.100
626.300	-5.378	0.100
626.400	5.145	0.100
626.500	-20.539	0.100
626.600	-9.601	0.100
626.700	3.005	0.100
626.800	-10.139	0.100
626.900	-0.709	0.100
627.000	-23.118	0.100
627.100	-13.896	0.100
627.200	-5.313	0.100
627.300	-10.456	0.099
627.400	-17.745	0.099
627.500	-14.774	0.100
627.600	-10.971	0.100
627.700	-23.123	0.100
627.800	-12.957	0.100
627.900	-4.149	0.100
628.000	-10.660	0.100
628.100	-6.026	0.100
628.200	-5.163	0.100
628.300	-2.502	0.100
628.400	-14.239	0.100
628.500	-0.139	0.100
628.600	-12.069	0.100
628.700	-7.761	0.100
628.800	-16.741	0.100
628.900	-2.822	0.100
629.000	-7.566	0.100
629.100	-19.183	0.100
629.200	-8.937	0.100
629.300	-12.014	0.100
629.400	-23.237	0.100
629.500	-0.943	0.100
629.600	-6.542	0.100
629.700	-13.366	0.100
629.800	-17.179	0.100
629.900	-11.956	0.100
630.000	-10.004	0.100
630.100	-9.963	0.100
630.200	-6.117	0.100
630.300	-26.725	0.100
630.400	-16.171	0.100
630.500	-3.948	0.100
630.600	-14.849	0.099
630.700	-13.777	0.100
630.800	-5.254	0.100
630.900	2.473	0.100
631.000	-12.413	0.100
631.100	5.814	0.100
631.200	-2.302	0.100
631.300	-10.156	0.100
631.400	0.512	0.100
631.500	0.632	0.100
631.600	-1.720	0.100
631.700	3.831	0.100
631.800	6.376	0.100
631.900	10.206	0.100
632.000	7.584	0.100
632.100	5.013	0.100
632.200	9.649	0.100
632.300	18.208	0.100
632.400	-0.973	0.100
632.500	9.647	0.100
632.600	12.352	0.100
632.700	-0.261	0.100
632.800	15.251	0.100
632.900	19.332	0.100
633.000	20.989	0.100
633.100	24.500	0.100
633.200	37.533	0.100
633.300	11.394	0.100
633.400	14.493	0.100
633.500	-1.393	0.100
633.600	17.505	0.100
633.700	18.907	0.100
633.800	30.351	0.100
633.900	20.731	0.100
634.000	9.609	0.100
634.100	25.737	0.100
634.200	11.937	0.100
634.300	13.224	0.100
634.400	33.084	0.100
634.500	38.087	0.100
634.600	20.746	0.100
634.700	23.343	0.100
634.800	20.354	0.100
634.900	36.274	0.100
635.000	9.581	0.100
635.100	18.634	0.100
635.200	20.569	0.100
635.300	25.778	0.100
635.400	7.702	0.100
635.500	19.586	0.100
635.600	5.480	0.100
635.700	7.954	0.100
635.800	25.503	0.100
635.900	26.537	0.100
636.000	14.252	0.100
636.100	17.492	0.100
636.200	4.747	0.100
636.300	23.820	0.100
636.400	30.278	0.100
636.500	20.708	0.100
636.600	26.915	0.100
636.700	21.974	0.100
636.800	31.339	0.100
636.900	18.366	0.100
637.000	21.048	0.100
637.100	-0.211	0.100
637.200	26.180	0.100
637.300	16.474	0.100
637.400	24.365	0.100
637.500	13.363	0.100
637.600	12.981	0.100
637.700	4.517	0.100
637.800	20.171	0.100
637.900	14.588	0.100
638.000	30.873	0.100
638.100	28.006	0.100
638.200	23.130	0.100
638.300	8.188	0.100
638.400	33.392	0.100
638.500	43.022	0.100
638.600	18.184	0.100
638.700	23.446	0.100
638.800	15.574	0.100
638.900	18.985	0.100
639.000	14.715	0.100
639.100	28.947	0.100
639.200	28.174	0.100
639.300	13.031	0.100
639.400	21.233	0.100
639.500	33.014	0.100
639.600	18.936	0.100
639.700	11.281	0.100
639.800	29.262	0.100
639.900	18.165	0.100
640.000	29.084	0.100
640.100	28.567	0.100
640.200	25.548	0.100
640.300	25.067	0.100
640.400	26.377	0.100
640.500	25.870	0.100
640.600	25.568	0.100
640.700	25.294	0.100
640.800	10.474	0.100
640.900	23.145	0.100
641.000	25.411	0.100
641.100	34.592	0.100
641.200	32.783	0.100
641.300	21.478	0.100
641.400	29.187	0.100
641.500	26.421	0.100
641.600	32.967	0.100
641.700	29.763	0.100
641.800	22.922	0.100
641.900	16.326	0.100
642.000	37.979	0.100
642.100	13.589	0.100
642.200	39.149	0.100
642.300	14.359	0.100
642.400	27.064	0.100
642.500	36.518	0.100
642.600	22.224	0.100
642.700	31.150	0.100
642.800	29.332	0.100
642.900	17.240	0.100
643.000	40.096	0.100
643.100	17.412	0.100
643.200	29.900	0.100
643.300	28.548	0.100
643.400	28.868	0.100
643.500	33.253	0.100
643.600	33.398	0.100
643.700	28.993	0.099
643.800	14.333	0.100
643.900	35.391	0.100
644.000	32.425	0.100
644.100	28.200	0.100
644.200	41.721	0.100
644.300	8.287	0.100
644.400	30.464	0.100
644.500	41.985	0.100
644.600	32.122	0.100
644.700	26.763	0.100
644.800	48.681	0.100
644.900	35.217	0.100
645.000	34.762	0.100
645.100	30.207	0.100
645.200	34.639	0.100
645.300	43.893	0.100
645.400	26.675	0.100
645.500	36.881	0.100
645.600	13.169	0.099
645.700	32.161	0.100
645.800	61.918	0.100
645.900	54.682	0.100
646.000	24.637	0.100
646.100	36.816	0.100
646.200	37.061	0.100
646.300	34.940	0.100
646.400	45.288	0.100
646.500	25.318	0.100
646.600	41.161	0.100
646.700	39.206	0.100
646.800	32.714	0.100
646.900	42.792	0.100
647.000	32.787	0.100
647.100	21.089	0.100
647.200	28.892	0.100
647.300	42.537	0.100
647.400	21.531	0.100
647.500	45.781	0.100
647.600	34.833	0.100
647.700	35.054	0.100
647.800	37.921	0.100
647.900	39.825	0.100
648.000	44.772	0.100
648.100	40.980	0.100
648.200	39.358	0.100
648.300	37.769	0.100
648.400	42.062	0.100
648.500	40.045	0.100
648.600	27.220	0.100
648.700	49.305	0.100
648.800	45.693	0.100
648.900	38.021	0.100
649.000	37.015	0.100
649.100	35.283	0.100
649.200	45.094	0.100
649.300	29.646	0.100
649.400	29.737	0.100
649.500	40.091	0.100
649.600	29.913	0.100
649.700	25.255	0.100
649.800	37.729	0.100
649.900	50.352	0.100
650.000	43.707	0.099
650.100	38.711	0.100
650.200	42.282	0.100
650.300	18.810	0.100
650.400	31.041	0.100
650.500	41.486	0.100
650.600	36.383	0.100
650.700	36.240	0.100
650.800	44.135	0.100
650.900	37.266	0.100
651.000	19.397	0.100
651.100	35.246	0.100
651.200	27.534	0.100
651.300	48.181	0.100
651.400	47.808	0.100
651.500	42.621	0.100
651.600	43.112	0.100
651.700	35.702	0.100
651.800	38.052	0.100
651.900	41.529	0.100
652.000	44.736	0.100
652.100	29.949	0.100
652.200	42.050	0.100
652.300	43.939	0.100
652.400	44.119	0.100
652.500	36.705	0.100
652.600	46.394	0.100
652.700	47.166	0.099
652.800	36.779	0.100
652.900	35.223	0.100
653.000	39.894	0.100
653.100	28.960	0.100
653.200	45.798	0.100
653.300	32.567	0.100
653.400	46.237	0.100
653.500	38.630	0.100
653.600	28.113	0.100
653.700	33.016	0.100
653.800	47.505	0.100
653.900	39.640	0.100
654.000	34.291	0.100
654.100	39.045	0.100
654.200	34.250	0.100
654.300	34.268	0.100
654.400	25.465	0.100
654.500	44.012	0.100
654.600	41.461	0.100
654.700	32.583	0.100
654.800	24.410	0.100
654.900	48.110	0.100
655.000	38.908	0.100
655.100	30.556	0.100
655.200	49.926	0.100
655.300	41.651	0.100
655.400	36.398	0.100
655.500	46.096	0.100
655.600	34.599	0.100
655.700	45.451	0.100
655.800	43.579	0.100
655.900	26.103	0.100
656.000	56.882	0.100
656.100	57.225	0.100
656.200	34.399	0.100
656.300	23.771	0.100
656.400	36.213	0.100
656.500	28.531	0.100
656.600	39.741	0.100
656.700	30.611	0.100
656.800	31.894	0.100
656.900	45.346	0.100
657.000	44.211	0.100
657.100	47.971	0.100
657.200	38.995	0.100
657.300	44.841	0.100
657.400	52.284	0.100
657.500	31.382	0.100
657.600	36.094	0.100
657.700	25.400	0.100
657.800	37.017	0.100
657.900	38.135	0.100
658.000	38.542	0.100
658.100	34.765	0.100
658.200	39.966	0.100
658.300	32.593	0.100
658.400	36.250	0.100
658.500	45.637	0.100
658.600	34.081	0.100
658.700	32.481	0.100
658.800	40.045	0.100
658.900	41.184	0.100
659.000	42.799	0.100
659.100	50.011	0.100
659.200	34.177	0.100
659.300	48.139	0.100
659.400	30.131	0.100
659.500	39.565	0.100
659.600	28.466	0.100
659.700	23.647	0.100
659.800	34.832	0.100
659.900	46.067	0.100
660.000	41.230	0.100
660.100	41.952	0.100
660.200	48.842	0.100
660.300	39.772	0.100
660.400	44.823	0.100
660.500	27.659	0.100
660.600	36.596	0.100
660.700	17.836	0.100
660.800	53.530	0.100
660.900	38.518	0.100
661.000	38.387	0.100
661.100	37.989	0.100
661.200	27.469	0.100
661.300	52.576	0.100
661.400	41.289	0.100
661.500	23.217	0.100
661.600	40.494	0.100
661.700	43.021	0.100
661.800	42.733	0.100
661.900	33.967	0.100
662.000	29.733	0.100
662.100	39.315	0.100
662.200	55.794	0.099
662.300	38.367	0.100
662.400	31.280	0.100
662.500	29.560	0.100
662.600	43.934	0.100
662.700	47.206	0.100
662.800	47.831	0.100
662.900	43.173	0.100
663.000	15.893	0.100
663.100	42.063	0.100
663.200	38.153	0.100
663.300	34.629	0.100
663.400	45.930	0.099
663.500	23.830	0.100
663.600	45.574	0.100
663.700	45.192	0.100
663.800	34.532	0.100
663.900	34.703	0.100
664.000	21.322	0.100
664.100	42.434	0.100
664.200	35.137	0.100
664.300	24.431	0.099
664.400	42.539	0.100
664.500	44.420	0.100
664.600	44.949	0.099
664.700	22.284	0.100
664.800	43.706	0.100
664.900	36.342	0.100
665.000	41.025	0.100
665.100	37.901	0.100
665.200	36.659	0.100
665.300	42.911	0.100
665.400	28.158	0.100
665.500	34.105	0.100
665.600	30.160	0.100
665.700	39.909	0.100
665.800	32.618	0.100
665.900	58.154	0.100
666.000	26.201	0.100
666.100	37.149	0.100
666.200	38.705	0.100
666.300	40.778	0.100
666.400	34.444	0.100
666.500	54.319	0.100
666.600	16.435	0.100
666.700	21.725	0.100
666.800	36.998	0.100
666.900	44.999	0.100
667.000	46.117	0.100
667.100	25.913	0.100
667.200	22.055	0.100
667.300	41.680	0.100
667.400	52.669	0.100
667.500	21.483	0.100
667.600	25.634	0.100
667.700	30.602	0.100
667.800	47.942	0.100
667.900	33.074	0.100
668.000	27.266	0.100
668.100	42.945	0.100
668.200	47.944	0.100
668.300	31.881	0.100
668.400	50.804	0.100
668.500	25.835	0.100
668.600	45.392	0.100
668.700	28.008	0.100
668.800	32.313	0.100
668.900	34.504	0.100
669.000	31.702	0.100
669.100	41.127	0.099
669.200	44.719	0.100
669.300	29.629	0.100
669.400	30.397	0.100
669.500	44.608	0.100
669.600	32.297	0.100
669.700	42.349	0.100
669.800	30.101	0.100
669.900	48.280	0.100
670.000	31.420	0.100
670.100	40.991	0.100
670.200	47.914	0.100
670.300	33.926	0.100
670.400	39.857	0.100
670.500	31.762	0.100
670.600	16.492	0.100
670.700	42.190	0.100
670.800	33.741	0.100
670.900	35.974	0.100
671.000	45.181	0.100
671.100	32.892	0.100
671.200	51.764	0.100
671.300	36.317	0.100
671.400	27.127	0.100
671.500	40.367	0.100
671.600	28.781	0.100
671.700	29.522	0.100
671.800	40.783	0.100
671.900	45.901	0.100
672.000	37.072	0.100
672.100	26.285	0.100
672.200	27.874	0.100
672.300	51.229	0.100
672.400	41.554	0.100
672.500	29.348	0.100
672.600	45.628	0.100
672.700	37.941	0.100
672.800	49.345	0.100
672.900	45.082	0.100
673.000	24.247	0.100
673.100	32.270	0.100
673.200	28.192	0.100
673.300	49.242	0.100
673.400	41.746	0.100
673.500	31.934	0.100
673.600	32.256	0.100
673.700	30.497	0.100
673.800	13.969	0.100
673.900	33.212	0.100
674.000	39.807	0.100
674.100	46.509	0.100
674.200	41.866	0.100
674.300	37.550	0.100
674.400	22.851	0.099
674.500	32.344	0.100
674.600	27.412	0.099
674.700	25.575	0.100
674.800	39.689	0.100
674.900	43.804	0.100
675.000	35.332	0.100
675.100	42.762	0.100
675.200	41.891	0.100
675.300	33.820	0.100
675.400	41.574	0.100
675.500	25.503	0.100
675.600	32.600	0.100
675.700	41.074	0.100
675.800	39.535	0.100
675.900	28.713	0.100
676.000	36.598	0.100
676.100	28.277	0.100
676.200	45.475	0.100
676.300	43.115	0.100
676.400	34.864	0.100
676.500	42.454	0.100
676.600	38.264	0.100
676.700	45.363	0.100
676.800	32.654	0.100
676.900	36.778	0.100
677.000	43.530	0.100
677.100	46.831	0.100
677.200	31.521	0.099
677.300	24.685	0.100
677.400	30.427	0.100
677.500	22.747	0.100
677.600	38.832	0.100
677.700	50.394	0.100
677.800	11.489	0.100
677.900	30.576	0.099
678.000	41.413	0.100
678.100	32.121	0.100
678.200	35.927	0.099
678.300	30.952	0.100
678.400	56.152	0.100
678.500	29.334	0.099
678.600	16.542	0.100
678.700	32.492	0.100
678.800	37.070	0.100
678.900	47.240	0.100
679.000	28.623	0.100
679.100	26.135	0.100
679.200	31.499	0.100
679.300	58.241	0.100
679.400	20.679	0.100
679.500	29.838	0.100
679.600	32.562	0.100
679.700	45.278	0.099
679.800	39.035	0.100
679.900	47.512	0.100
680.000	35.683	0.100
680.100	19.781	0.100
680.200	46.605	0.100
680.300	39.410	0.100
680.400	28.990	0.100
680.500	40.399	0.100
680.600	31.064	0.099
680.700	28.988	0.100
680.800	25.668	0.100
680.900	37.385	0.100
681.000	30.646	0.100
681.100	14.314	0.100
681.200	39.455	0.100
681.300	44.811	0.100
681.400	39.014	0.100
681.500	28.572	0.100
681.600	31.193	0.100
681.700	28.077	0.100
681.800	20.311	0.100
681.900	34.797	0.100
682.000	36.860	0.099
682.100	30.419	0.100
682.200	42.745	0.100
682.300	31.101	0.100
682.400	24.728	0.100
682.500	27.816	0.099
682.600	30.125	0.100
682.700	40.156	0.099
682.800	33.821	0.100
682.900	21.265	0.100
683.000	35.729	0.100
683.100	49.425	0.100
683.200	22.033	0.099
683.300	33.625	0.100
683.400	32.590	0.100
683.500	31.492	0.100
683.600	33.986	0.100
683.700	19.605	0.100
683.800	29.105	0.100
683.900	19.721	0.100
684.000	31.848	0.100
684.100	53.712	0.100
684.200	47.335	0.100
684.300	26.794	0.100
684.400	44.148	0.100
684.500	52.214	0.100
684.600	25.671	0.100
684.700	40.739	0.100
684.800	24.123	0.100
684.900	31.749	0.100
685.000	37.732	0.100
685.100	31.086	0.100
685.200	29.995	0.100
685.300	41.863	0.100
685.400	33.330	0.100
685.500	31.668	0.100
685.600	32.845	0.100
685.700	35.971	0.100
685.800	15.883	0.100
685.900	37.778	0.100
686.000	40.399	0.100
686.100	27.434	0.100
686.200	26.153	0.100
686.300	27.945	0.100
686.400	37.769	0.100
686.500	42.068	0.100
686.600	39.817	0.100
686.700	41.000	0.100
686.800	45.536	0.100
686.900	32.135	0.100
687.000	28.544	0.100
687.100	38.568	0.099
687.200	24.603	0.100
687.300	20.605	0.100
687.400	30.084	0.099
687.500	31.126	0.100
687.600	31.987	0.100
687.700	46.949	0.100
687.800	19.050	0.100
687.900	21.593	0.100
688.000	37.933	0.100
688.100	44.154	0.100
688.200	28.688	0.100
688.300	23.174	0.100
688.400	39.992	0.100
688.500	31.759	0.100
688.600	22.324	0.100
688.700	39.405	0.100
688.800	32.046	0.100
688.900	36.343	0.100
689.000	36.094	0.100
689.100	25.489	0.100
689.200	38.641	0.100
689.300	34.447	0.100
689.400	37.735	0.100
689.500	34.837	0.100
689.600	20.434	0.100
689.700	32.737	0.100
689.800	15.430	0.100
689.900	33.412	0.100
690.000	26.675	0.100
690.100	42.845	0.100
690.200	24.765	0.100
690.300	34.253	0.100
690.400	36.336	0.100
690.500	39.230	0.100
690.600	39.148	0.100
690.700	35.302	0.100
690.800	40.154	0.100
690.900	26.490	0.100
691.000	25.930	0.100
691.100	30.988	0.100
691.200	22.402	0.100
691.300	6.453	0.100
691.400	24.655	0.100
691.500	26.188	0.100
691.600	5.870	0.100
691.700	23.806	0.100
691.800	-12.765	0.100
691.900	-1.342	0.100
692.000	10.817	0.100
692.100	24.594	0.100
692.200	15.293	0.100
692.300	-6.043	0.100
692.400	12.191	0.100
692.500	3.234	0.100
692.600	-6.139	0.100
692.700	7.369	0.100
692.800	5.993	0.100
692.900	6.902	0.100
693.000	-11.150	0.100
693.100	4.939	0.100
693.200	3.400	0.100
693.300	-3.169	0.100
693.400	3.525	0.100
693.500	-3.059	0.100
693.600	-4.290	0.100
693.700	-15.105	0.100
693.800	-10.615	0.100
693.900	-18.549	0.100
694.000	-7.424	0.100
694.100	2.766	0.100
694.200	-0.802	0.100
694.300	-0.734	0.100
694.400	10.491	0.100
694.500	-11.545	0.100
694.600	-12.427	0.100
694.700	-2.069	0.100
694.800	-13.869	0.100
694.900	-24.445	0.099
695.000	-15.582	0.100
695.100	-6.331	0.100
695.200	-19.061	0.100
695.300	-7.149	0.100
695.400	-9.203	0.100
695.500	-19.284	0.100
695.600	-17.055	0.100
695.700	-10.372	0.100
695.800	-0.269	0.100
695.900	-3.713	0.100
696.000	-12.465	0.100
696.100	0.137	0.100
696.200	-16.741	0.100
696.300	-8.500	0.100
696.400	-11.120	0.100
696.500	-17.923	0.100
696.600	-13.145	0.100
696.700	-4.223	0.100
696.800	-6.747	0.100
696.900	-9.711	0.100
697.000	-3.922	0.100
697.100	-7.578	0.100
697.200	-8.973	0.100
697.300	-17.605	0.100
697.400	-12.042	0.100
697.500	-8.913	0.100
697.600	-14.673	0.100
697.700	-12.638	0.100
697.800	-10.068	0.100
697.900	-21.287	0.100
698.000	-1.101	0.100
698.100	-4.690	0.100
698.200	-19.831	0.100
698.300	-9.296	0.100
698.400	2.293	0.100
698.500	-30.891	0.100
698.600	-19.157	0.100
698.700	-16.388	0.100
698.800	-14.793	0.100
698.900	-4.916	0.100
699.000	-7.944	0.100
699.100	3.156	0.100
699.200	-4.059	0.100
699.300	-20.770	0.100
699.400	-12.396	0.100
699.500	10.606	0.100
699.600	-8.399	0.100
699.700	-5.682	0.100
699.800	-4.598	0.100
699.900	-9.659	0.100
700.000	0.759	0.100
700.100	-26.871	0.100
700.200	-4.442	0.100
700.300	-16.395	0.100
700.400	4.653	0.100
700.500	-11.439	0.100
700.600	-13.845	0.100
700.700	-12.984	0.100
700.800	-12.305	0.100
700.900	-4.230	0.100
701.000	-25.376	0.100
701.100	-23.416	0.100
701.200	-8.714	0.100
701.300	2.307	0.100
701.400	-7.293	0.100
701.500	-19.929	0.100
701.600	-8.131	0.100
701.700	2.247	0.100
701.800	-25.019	0.100
701.900	-14.122	0.100
702.000	-15.681	0.100
702.100	-11.282	0.100
702.200	-16.234	0.100
702.300	-30.901	0.100
702.400	-13.481	0.100
702.500	-9.712	0.100
702.600	-24.543	0.100
702.700	-8.792	0.100
702.800	-12.539	0.100
702.900	-6.804	0.100
703.000	-13.259	0.100
703.100	-20.862	0.100
703.200	3.373	0.100
703.300	-22.543	0.100
703.400	-31.575	0.100
703.500	-12.425	0.100
703.600	1.059	0.100
703.700	-11.554	0.100
703.800	-17.724	0.100
703.900	-20.232	0.100
704.000	-17.962	0.100
704.100	-21.679	0.100
704.200	-15.535	0.100
704.300	-20.764	0.100
704.400	-27.442	0.100
704.500	-15.629	0.100
704.600	-13.138	0.100
704.700	-21.265	0.100
704.800	-18.348	0.100
704.900	-8.208	0.100
705.000	-10.831	0.100
705.100	-16.683	0.100
705.200	-15.632	0.100
705.300	-7.522	0.100
705.400	-12.118	0.100
705.500	-26.506	0.100
705.600	-20.050	0.100
705.700	-16.225	0.100
705.800	-13.637	0.100
705.900	-16.466	0.100
706.000	-8.858	0.100
706.100	-11.933	0.100
706.200	-22.045	0.100
706.300	-35.117	0.100
706.400	-22.014	0.100
706.500	-2.781	0.100
706.600	-15.192	0.100
706.700	-32.944	0.100
706.800	-18.119	0.100
706.900	-17.477	0.100
707.000	-37.733	0.100
707.100	-17.864	0.100
707.200	-9.125	0.100
707.300	-6.921	0.100
707.400	-39.163	0.100
707.500	0.165	0.100
707.600	-21.081	0.100
707.700	-34.372	0.100
707.800	-25.171	0.100
707.900	-8.642	0.100
708.000	-13.877	0.100
708.100	-20.201	0.100
708.200	-28.496	0.100
708.300	-14.055	0.100
708.400	-15.639	0.100
708.500	-18.318	0.100
708.600	-20.525	0.100
708.700	-22.043	0.100
708.800	-39.769	0.100
708.900	-24.665	0.100
709.000	-13.709	0.100
709.100	-5.771	0.100
709.200	-22.386	0.100
709.300	-38.163	0.100
709.400	-17.747	0.100
709.500	-22.831	0.100
709.600	-23.035	0.100
709.700	-25.509	0.100
709.800	-3.207	0.100
709.900	-21.154	0.100
710.000	-18.212	0.100
710.100	-37.915	0.100
710.200	-16.520	0.100
710.300	-35.913	0.100
710.400	-27.230	0.100
710.500	-20.713	0.100
710.600	-25.258	0.100
710.700	-23.443	0.100
710.800	-3.623	0.100
710.900	-22.124	0.100
711.000	-20.219	0.100
711.100	-24.007	0.100
711.200	-14.630	0.100
711.300	-17.830	0.100
711.400	-21.185	0.100
711.500	-19.781	0.100
711.600	-16.304	0.100
711.700	-27.205	0.100
711.800	-27.401	0.100
711.900	-21.103	0.100
712.000	-22.206	0.100
712.100	-24.145	0.100
712.200	-26.629	0.100
712.300	-33.189	0.100
712.400	-25.194	0.100
712.500	-11.934	0.100
712.600	-22.070	0.100
712.700	-31.278	0.100
712.800	-10.559	0.100
712.900	-38.441	0.100
713.000	-20.908	0.100
713.100	-27.383	0.100
713.200	-26.271	0.100
713.300	-15.777	0.100
713.400	-8.719	0.100
713.500	-15.035	0.100
713.600	-26.527	0.100
713.700	-17.649	0.100
713.800	-23.383	0.100
713.900	-19.881	0.100
714.000	-8.703	0.100
714.100	-20.228	0.100
714.200	-27.415	0.100
714.300	-29.500	0.100
714.400	-20.488	0.100
714.500	-8.478	0.100
714.600	-42.518	0.100
714.700	-19.238	0.100
714.800	-27.748	0.100
714.900	-25.566	0.100
715.000	-26.218	0.100
715.100	-27.332	0.100
715.200	-39.017	0.100
715.300	-16.117	0.100
715.400	-28.618	0.100
715.500	-21.536	0.100
715.600	-24.013	0.100
715.700	-19.304	0.100
715.800	-15.418	0.100
715.900	-35.540	0.100
716.000	-26.704	0.100
716.100	8.806	0.100
716.200	-30.662	0.100
716.300	-26.619	0.100
716.400	-23.591	0.100
716.500	-15.758	0.100
716.600	-31.758	0.100
716.700	-45.362	0.100
716.800	-3.259	0.100
716.900	-21.356	0.100
717.000	-7.664	0.100
717.100	-44.131	0.100
717.200	-23.019	0.100
717.300	-22.918	0.100
717.400	-26.797	0.100
717.500	-22.730	0.100
717.600	-13.793	0.100
717.700	-29.437	0.100
717.800	-14.690	0.100
717.900	-24.368	0.100
718.000	-30.446	0.100
718.100	-16.275	0.100
718.200	-25.029	0.100
718.300	-23.880	0.100
718.400	-22.202	0.100
718.500	-23.338	0.100
718.600	-22.356	0.100
718.700	-40.128	0.100
718.800	-6.316	0.100
718.900	-22.877	0.100
719.000	-17.332	0.100
719.100	-29.565	0.100
719.200	-21.782	0.100
719.300	3.378	0.100
719.400	-29.257	0.100
719.500	-19.164	0.100
719.600	-24.739	0.100
719.700	-17.572	0.100
719.800	-26.036	0.100
719.900	-20.077	0.100
720.000	-24.941	0.100
720.100	-28.066	0.100
720.200	-17.863	0.100
720.300	-24.101	0.100
720.400	-14.171	0.100
720.500	-25.004	0.100
720.600	-29.628	0.100
720.700	-22.803	0.100
720.800	-23.419	0.100
720.900	-19.159	0.100
721.000	-15.929	0.100
721.100	-24.704	0.100
721.200	-36.780	0.100
721.300	-22.054	0.100
721.400	-9.664	0.100
721.500	-25.103	0.100
721.600	-23.530	0.100
721.700	-17.076	0.100
721.800	-18.395	0.100
721.900	-13.875	0.100
722.000	-27.452	0.100
722.100	-30.565	0.100
722.200	-21.637	0.100
722.300	-30.615	0.100
722.400	-13.818	0.100
722.500	-23.386	0.100
722.600	-18.011	0.100
722.700	-51.961	0.100
722.800	-31.931	0.100
722.900	-23.727	0.100
723.000	-17.052	0.100
723.100	-18.870	0.100
723.200	-41.039	0.100
723.300	-31.101	0.100
723.400	-10.443	0.100
723.500	-18.411	0.100
723.600	-15.516	0.100
723.700	-36.309	0.100
723.800	-21.084	0.100
723.900	-20.212	0.100
724.000	-20.595	0.100
724.100	-3.970	0.100
724.200	-20.638	0.100
724.300	-30.220	0.100
724.400	-19.498	0.100
724.500	-35.617	0.100
724.600	-29.999	0.100
724.700	-17.651	0.100
724.800	-24.422	0.100
724.900	-5.588	0.100
725.000	-34.562	0.100
725.100	-30.589	0.100
725.200	-29.130	0.100
725.300	-0.125	0.100
725.400	-24.592	0.100
725.500	-23.813	0.100
725.600	-22.556	0.100
725.700	-31.115	0.100
725.800	-23.146	0.100
725.900	-16.006	0.100
726.000	-26.674	0.100
726.100	-9.572	0.100
726.200	-26.551	0.100
726.300	-28.963	0.100
726.400	-15.757	0.100
726.500	-18.383	0.100
726.600	-24.465	0.100
726.700	-10.794	0.100
726.800	-29.130	0.100
726.900	-16.978	0.100
727.000	-28.809	0.100
727.100	-22.388	0.100
727.200	-25.899	0.100
727.300	-19.984	0.100
727.400	-24.394	0.100
727.500	-16.039	0.100
727.600	-24.234	0.100
727.700	-34.824	0.100
727.800	-11.697	0.100
727.900	-28.381	0.100
728.000	-29.505	0.100
728.100	-22.348	0.100
728.200	-10.403	0.100
728.300	-39.475	0.100
728.400	-16.245	0.100
728.500	-20.567	0.100
728.600	-22.428	0.100
728.700	-14.437	0.100
728.800	-18.901	0.100
728.900	-16.027	0.100
729.000	-15.044	0.100
729.100	-28.974	0.100
729.200	-12.034	0.100
729.300	-25.781	0.100
729.400	-16.185	0.100
729.500	-32.398	0.100
729.600	-16.839	0.100
729.700	-24.421	0.100
729.800	-19.125	0.100
729.900	-24.019	0.100
730.000	0.192	0.100
730.100	-13.998	0.100
730.200	-38.961	0.100
730.300	-11.520	0.100
730.400	-28.224	0.100
730.500	-18.575	0.100
730.600	-20.101	0.100
730.700	-25.487	0.100
730.800	-25.199	0.099
730.900	-22.010	0.100
731.000	-17.841	0.100
731.100	-21.124	0.100
731.200	-27.754	0.100
731.300	-0.077	0.100
731.400	-12.486	0.100
731.500	-27.673	0.100
731.600	-30.469	0.100
731.700	-17.025	0.100
731.800	-11.960	0.100
731.900	-19.873	0.100
732.000	-17.026	0.100
732.100	-20.955	0.100
732.200	-18.947	0.100
732.300	-25.701	0.100
732.400	-33.862	0.100
732.500	-11.719	0.100
732.600	-18.108	0.100
732.700	-11.075	0.100
732.800	-7.067	0.100
732.900	-24.968	0.100
733.000	-24.355	0.100
733.100	-28.463	0.100
733.200	-10.476	0.100
733.300	-33.186	0.100
733.400	-21.256	0.100
733.500	-19.502	0.100
733.600	-24.684	0.100
733.700	-26.683	0.100
733.800	-21.751	0.100
733.900	-15.183	0.100
734.000	-15.199	0.100
734.100	-17.102	0.100
734.200	-9.433	0.100
734.300	-23.215	0.100
734.400	-51.743	0.100
734.500	-15.409	0.100
734.600	-25.585	0.100
734.700	-33.930	0.100
734.800	-41.415	0.100
734.900	-3.977	0.100
735.000	-19.241	0.100
735.100	-29.175	0.100
735.200	-6.600	0.100
735.300	-15.504	0.100
735.400	-17.427	0.100
735.500	-21.857	0.100
735.600	-23.395	0.100
735.700	-14.088	0.100
735.800	-18.195	0.100
735.900	-20.647	0.100
736.000	-23.475	0.100
736.100	-23.643	0.100
736.200	-25.737	0.100
736.300	-16.693	0.100
736.400	-16.641	0.100
736.500	-2.759	0.100
736.600	-37.882	0.099
736.700	-34.932	0.100
736.800	-9.247	0.100
736.900	-24.320	0.100
737.000	-21.652	0.100
737.100	-15.986	0.100
737.200	-22.774	0.100
737.300	-11.678	0.100
737.400	-17.077	0.100
737.500	-5.879	0.100
737.600	-30.716	0.100
737.700	-20.332	0.100
737.800	-13.378	0.100
737.900	-14.673	0.100
738.000	-27.649	0.100
738.100	-30.486	0.100
738.200	-20.486	0.100
738.300	-22.919	0.100
738.400	-8.437	0.100
738.500	-7.524	0.100
738.600	-14.656	0.100
738.700	-18.690	0.100
738.800	-11.901	0.100
738.900	-27.936	0.100
739.000	-19.528	0.100
739.100	-25.538	0.100
739.200	-30.766	0.099
739.300	-23.563	0.100
739.400	-5.120	0.100
739.500	-20.743	0.100
739.600	-21.374	0.100
739.700	-22.086	0.100
739.800	-21.627	0.100
739.900	-18.141	0.100
740.000	-23.242	0.100
740.100	-23.085	0.100
740.200	-17.068	0.100
740.300	-24.141	0.100
740.400	-15.452	0.100
740.500	-17.033	0.100
740.600	-21.296	0.100
740.700	-12.015	0.100
740.800	-6.347	0.100
740.900	-19.213	0.100
741.000	-23.906	0.100
741.100	-4.173	0.100
741.200	-17.097	0.100
741.300	-24.004	0.100
741.400	-15.868	0.100
741.500	-25.341	0.100
741.600	-24.757	0.100
741.700	-24.051	0.100
741.800	-21.936	0.100
741.900	-18.654	0.100
742.000	-22.512	0.100
742.100	-26.770	0.100
742.200	-13.590	0.100
742.300	-18.345	0.100
742.400	-11.847	0.100
742.500	-8.595	0.100
742.600	-24.712	0.100
742.700	-18.528	0.100
742.800	-14.038	0.100
742.900	-21.557	0.100
743.000	-19.220	0.100
743.100	-27.139	0.100
743.200	-5.882	0.100
743.300	-14.257	0.100
743.400	-16.089	0.100
743.500	-23.483	0.100
743.600	-15.972	0.100
743.700	-12.999	0.100
743.800	-19.333	0.100
743.900	-18.752	0.100
744.000	-17.835	0.100
744.100	-5.775	0.100
744.200	-23.134	0.100
744.300	-17.977	0.100
744.400	-40.652	0.100
744.500	-3.325	0.100
744.600	-7.267	0.100
744.700	-19.192	0.100
744.800	-22.271	0.100
744.900	-29.827	0.100
745.000	-20.524	0.100
745.100	-12.296	0.100
745.200	-18.985	0.100
745.300	-33.082	0.100
745.400	-13.552	0.100
745.500	-1.962	0.100
745.600	-14.787	0.100
745.700	-23.608	0.100
745.800	-33.861	0.100
745.900	-12.590	0.100
746.000	-36.629	0.100
746.100	-24.954	0.100
746.200	-14.440	0.100
746.300	-9.508	0.100
746.400	-25.575	0.100
746.500	-4.095	0.100
746.600	-29.775	0.100
746.700	-13.967	0.100
746.800	-10.515	0.100
746.900	-18.973	0.100
747.000	-43.160	0.100
747.100	-10.599	0.100
747.200	-12.280	0.100
747.300	-36.192	0.100
747.400	-8.502	0.100
747.500	-16.257	0.100
747.600	-12.770	0.100
747.700	-23.417	0.100
747.800	-20.591	0.100
747.900	-17.601	0.100
748.000	-9.693	0.100
748.100	-18.801	0.100
748.200	-28.363	0.100
748.300	-13.284	0.100
748.400	-14.706	0.100
748.500	2.671	0.100
748.600	-26.824	0.100
748.700	-13.180	0.100
748.800	-13.164	0.100
748.900	-20.142	0.100
749.000	-23.697	0.100
749.100	-14.990	0.100
749.200	-21.856	0.100
749.300	-11.499	0.100
749.400	-16.916	0.100
749.500	-5.321	0.100
749.600	-13.818	0.100
749.700	-27.662	0.100
749.800	-18.241	0.100
749.900	-8.341	0.100
750.000	-18.770	0.100
750.100	-10.479	0.100
750.200	-4.730	0.100
750.300	-30.951	0.100
750.400	-8.390	0.100
750.500	-21.500	0.100
750.600	-22.696	0.100
750.700	-1.786	0.100
750.800	-15.727	0.100
750.900	-29.618	0.100
751.000	-23.375	0.100
751.100	-10.057	0.100
751.200	-8.194	0.100
751.300	-18.609	0.100
751.400	-19.834	0.100
751.500	-19.366	0.100
751.600	-11.000	0.100
751.700	-16.080	0.100
751.800	-4.048	0.100
751.900	-14.470	0.100
752.000	-10.249	0.100
752.100	-25.798	0.100
752.200	-4.290	0.100
752.300	-18.733	0.100
752.400	-12.580	0.100
752.500	-14.187	0.100
752.600	-23.589	0.100
752.700	-22.470	0.100
752.800	-18.286	0.100
752.900	-14.641	0.100
753.000	-6.545	0.100
753.100	-12.307	0.100
753.200	-20.710	0.100
753.300	-18.653	0.100
753.400	-20.281	0.100
753.500	-18.314	0.100
753.600	-12.699	0.100
753.700	-7.875	0.100
753.800	-5.540	0.100
753.900	-14.462	0.100
754.000	-17.209	0.100
754.100	-8.731	0.100
754.200	-20.099	0.100
754.300	-12.036	0.100
754.400	-14.981	0.100
754.500	-20.034	0.100
754.600	-14.800	0.100
754.700	-8.793	0.100
754.800	-1.026	0.100
754.900	-8.389	0.100
755.000	-22.381	0.100
755.100	-16.627	0.100
755.200	-20.252	0.100
755.300	-12.186	0.100
755.400	-6.359	0.100
755.500	-11.430	0.100
755.600	-2.497	0.100
755.700	-24.672	0.100
755.800	-6.352	0.100
755.900	-3.842	0.100
756.000	-15.378	0.100
756.100	-26.558	0.100
756.200	-10.994	0.100
756.300	-24.021	0.100
756.400	-1.755	0.100
756.500	-28.080	0.100
756.600	-13.274	0.100
756.700	-20.032	0.100
756.800	-10.188	0.100
756.900	-13.282	0.100
757.000	-12.090	0.100
757.100	-33.763	0.100
757.200	-12.161	0.100
757.300	-14.893	0.100
757.400	-25.551	0.100
757.500	-9.654	0.100
757.600	-16.560	0.100
757.700	-13.108	0.100
757.800	-12.682	0.100
757.900	-26.750	0.100
758.000	-23.964	0.100
758.100	-11.305	0.100
758.200	-4.876	0.100
758.300	-13.663	0.100
758.400	-10.992	0.100
758.500	-9.867	0.100
758.600	-15.333	0.100
758.700	-15.323	0.100
758.800	-9.927	0.100
758.900	-12.398	0.100
759.000	-13.886	0.100
759.100	-5.516	0.100
759.200	-24.433	0.100
759.300	-13.617	0.100
759.400	-15.245	0.100
759.500	-13.735	0.100
759.600	-13.533	0.100
759.700	-13.330	0.100
759.800	-22.316	0.100
759.900	-24.356	0.100
760.000	-5.703	0.100
760.100	-5.299	0.100
760.200	-12.051	0.100
760.300	-20.711	0.100
760.400	-0.680	0.100
760.500	-7.337	0.100
760.600	-17.147	0.100
760.700	-24.183	0.100
760.800	-8.351	0.100
760.900	-3.067	0.100
761.000	-17.266	0.100
761.100	-11.982	0.100
761.200	-17.548	0.100
761.300	-12.285	0.100
761.400	-18.918	0.100
761.500	-14.860	0.100
761.600	-18.888	0.100
761.700	-20.523	0.100
761.800	0.316	0.100
761.900	-24.099	0.100
762.000	-27.332	0.100
762.100	10.058	0.100
762.200	-9.975	0.100
762.300	-27.365	0.100
762.400	-37.829	0.100
762.500	5.385	0.100
762.600	-2.298	0.100
762.700	-24.167	0.100
762.800	-23.756	0.100
762.900	-2.838	0.100
763.000	-23.581	0.100
763.100	-19.922	0.100
763.200	-6.267	0.100
763.300	-14.114	0.100
763.400	-26.925	0.100
763.500	0.725	0.100
763.600	-25.651	0.100
763.700	-5.895	0.100
763.800	-13.020	0.100
763.900	-21.208	0.100
764.000	-20.272	0.100
764.100	-1.211	0.100
764.200	-12.032	0.100
764.300	-0.634	0.100
764.400	-13.225	0.100
764.500	-25.091	0.100
764.600	-26.807	0.100
764.700	0.330	0.100
764.800	-8.375	0.100
764.900	-17.066	0.100
765.000	-7.641	0.100
765.100	-15.783	0.100
765.200	-9.821	0.100
765.300	-31.030	0.100
765.400	-19.211	0.100
765.500	-7.072	0.100
765.600	-15.213	0.100
765.700	-11.426	0.100
765.800	-8.683	0.100
765.900	-14.695	0.100
766.000	-15.857	0.100
766.100	-6.075	0.100
766.200	0.805	0.100
766.300	-11.409	0.100
766.400	-18.623	0.100
766.500	1.759	0.100
766.600	-11.403	0.100
766.700	-31.823	0.100
766.800	-17.784	0.100
766.900	-14.678	0.100
767.000	-14.592	0.100
767.100	-23.677	0.100
767.200	-2.458	0.100
767.300	-11.730	0.100
767.400	-14.062	0.100
767.500	-20.373	0.100
767.600	-20.268	0.100
767.700	-8.004	0.100
767.800	-10.129	0.100
767.900	-1.509	0.100
768.000	-16.524	0.100
768.100	-19.413	0.100
768.200	-5.791	0.100
768.300	-33.920	0.100
768.400	-12.563	0.100
768.500	-10.428	0.100
768.600	-5.122	0.100
768.700	-10.586	0.100
768.800	-20.267	0.100
768.900	-11.722	0.100
769.000	-8.851	0.100
769.100	-17.768	0.100
769.200	-15.557	0.100
769.300	-9.447	0.100
769.400	-17.604	0.100
769.500	-5.962	0.100
769.600	-20.545	0.100
769.700	-17.399	0.100
769.800	-11.695	0.100
769.900	-14.422	0.100
770.000	-19.173	0.100
770.100	-0.903	0.100
770.200	-9.397	0.100
770.300	-4.492	0.100
770.400	-9.519	0.100
770.500	-22.324	0.100
770.600	-28.340	0.100
770.700	-10.244	0.100
770.800	-6.813	0.100
770.900	-20.689	0.100
771.000	-12.729	0.100
771.100	-12.965	0.100
771.200	-11.707	0.100
771.300	-18.659	0.100
771.400	-11.254	0.100
771.500	-14.601	0.100
771.600	-14.493	0.100
771.700	-12.395	0.100
771.800	-11.243	0.100
771.900	-11.170	0.100
772.000	-10.883	0.100
772.100	-16.109	0.100
772.200	-22.103	0.100
772.300	-6.536	0.100
772.400	-13.625	0.100
772.500	-18.924	0.100
772.600	-13.792	0.100
772.700	-25.495	0.100
772.800	2.575	0.100
772.900	-16.895	0.100
773.000	-11.438	0.100
773.100	-12.158	0.100
773.200	-5.897	0.100
773.300	-10.655	0.100
773.400	-19.688	0.100
773.500	-15.324	0.100
773.600	3.175	0.100
773.700	-12.574	0.100
773.800	-20.088	0.100
773.900	-7.129	0.100
774.000	-13.926	0.100
774.100	-13.220	0.100
774.200	-15.454	0.100
774.300	-12.369	0.100
774.400	9.478	0.100
774.500	-33.988	0.100
774.600	-13.755	0.100
774.700	-8.808	0.100
774.800	-9.972	0.100
774.900	-14.666	0.100
775.000	-5.646	0.100
775.100	-26.805	0.100
775.200	2.623	0.100
775.300	-27.817	0.100
775.400	6.033	0.100
775.500	-16.806	0.100
775.600	-13.570	0.100
775.700	-8.854	0.100
775.800	-8.275	0.100
775.900	-8.675	0.100
776.000	-9.894	0.100
776.100	-19.337	0.100
776.200	-16.998	0.100
776.300	-20.916	0.100
776.400	-14.019	0.100
776.500	-8.008	0.100
776.600	-3.896	0.100
776.700	-8.701	0.100
776.800	-11.942	0.100
776.900	-5.186	0.100
777.000	-12.311	0.100
777.100	-16.331	0.100
777.200	-10.878	0.100
777.300	-17.447	0.100
777.400	-4.488	0.100
777.500	-8.308	0.100
777.600	-15.702	0.100
777.700	-6.711	0.100
777.800	-10.058	0.100
777.900	-23.453	0.100
778.000	-7.755	0.100
778.100	-21.615	0.100
778.200	-13.952	0.100
778.300	-12.921	0.100
778.400	-13.097	0.100
778.500	-9.845	0.100
778.600	-12.871	0.100
778.700	-23.207	0.100
778.800	-4.245	0.100
778.900	-27.017	0.100
779.000	-8.783	0.100
779.100	1.792	0.100
779.200	-6.987	0.100
779.300	-15.700	0.100
779.400	-19.051	0.100
779.500	-21.848	0.100
779.600	-5.932	0.100
779.700	-6.475	0.100
779.800	-3.547	0.100
779.900	-7.629	0.100
780.000	-9.440	0.100
780.100	-9.650	0.100
780.200	-20.622	0.100
780.300	-11.651	0.100
780.400	-14.835	0.100
780.500	-32.620	0.100
780.600	-6.878	0.100
780.700	-11.039	0.100
780.800	-12.071	0.100
780.900	-23.964	0.100
781.000	7.636	0.100
781.100	-13.615	0.100
781.200	-7.558	0.100
781.300	0.763	0.100
781.400	-8.618	0.100
781.500	6.296	0.100
781.600	-18.194	0.100
781.700	17.309	0.100
781.800	14.391	0.100
781.900	10.195	0.100
782.000	8.055	0.100
782.100	-11.111	0.100
782.200	9.205	0.100
782.300	1.490	0.100
782.400	21.531	0.100
782.500	0.445	0.100
782.600	8.993	0.100
782.700	1.783	0.100
782.800	14.393	0.100
782.900	10.200	0.100
783.000	15.220	0.100
783.100	19.439	0.100
783.200	19.168	0.100
783.300	23.108	0.100
783.400	27.899	0.100
783.500	2.816	0.100
783.600	13.375	0.100
783.700	14.929	0.100
783.800	13.987	0.100
783.900	16.291	0.100
784.000	16.365	0.100
784.100	35.802	0.100
784.200	16.607	0.100
784.300	17.863	0.100
784.400	25.667	0.100
784.500	17.819	0.100
784.600	11.234	0.100
784.700	18.140	0.100
784.800	10.478	0.100
784.900	8.043	0.100
785.000	24.663	0.100
785.100	20.779	0.100
785.200	10.052	0.100
785.300	15.812	0.100
785.400	11.591	0.100
785.500	26.745	0.100
785.600	33.056	0.100
785.700	29.306	0.100
785.800	-6.821	0.100
785.900	15.588	0.100
786.000	23.542	0.100
786.100	11.154	0.100
786.200	13.761	0.100
786.300	11.178	0.100
786.400	7.622	0.100
786.500	15.205	0.100
786.600	17.384	0.100
786.700	39.216	0.100
786.800	21.505	0.100
786.900	19.419	0.100
787.000	12.849	0.100
787.100	14.988	0.100
787.200	23.910	0.100
787.300	16.707	0.100
787.400	5.017	0.100
787.500	14.589	0.100
787.600	15.745	0.100
787.700	20.579	0.100
787.800	6.068	0.100
787.900	29.548	0.100
788.000	11.847	0.100
788.100	28.895	0.100
788.200	30.205	0.100
788.300	19.607	0.100
788.400	18.093	0.100
788.500	10.851	0.100
788.600	12.159	0.100
788.700	21.577	0.100
788.800	11.392	0.100
788.900	17.102	0.100
789.000	31.024	0.100
789.100	15.353	0.100
789.200	28.792	0.100
789.300	18.497	0.100
789.400	12.763	0.100
789.500	20.431	0.100
789.600	18.034	0.100
789.700	25.289	0.100
789.800	31.295	0.100
789.900	9.863	0.100
790.000	29.952	0.100
790.100	23.247	0.100
790.200	15.940	0.100
790.300	16.527	0.100
790.400	31.323	0.100
790.500	20.223	0.100
790.600	18.695	0.100
790.700	20.322	0.100
790.800	16.851	0.100
790.900	27.704	0.100
791.000	33.381	0.100
791.100	24.163	0.100
791.200	15.378	0.100
791.300	34.198	0.100
791.400	30.835	0.100
791.500	19.040	0.100
791.600	19.398	0.100
791.700	19.408	0.100
791.800	41.966	0.100
791.900	18.740	0.100
792.000	21.821	0.100
792.100	36.165	0.100
792.200	36.702	0.100
792.300	24.799	0.100
792.400	33.587	0.100
792.500	37.824	0.100
792.600	32.433	0.100
792.700	22.919	0.100
792.800	40.188	0.100
792.900	31.696	0.100
793.000	9.800	0.100
793.100	32.723	0.100
793.200	28.633	0.100
793.300	2.921	0.100
793.400	21.585	0.100
793.500	28.380	0.100
793.600	33.754	0.100
793.700	34.985	0.100
793.800	38.877	0.100
793.900	32.435	0.100
794.000	33.761	0.100
794.100	33.289	0.100
794.200	41.092	0.100
794.300	31.723	0.100
794.400	43.098	0.100
794.500	41.121	0.100
794.600	18.333	0.100
794.700	32.075	0.100
794.800	27.092	0.100
794.900	44.796	0.100
795.000	8.988	0.100
795.100	38.167	0.100
795.200	24.976	0.100
795.300	23.039	0.100
795.400	20.221	0.100
795.500	53.557	0.100
795.600	31.482	0.100
795.700	38.267	0.100
795.800	33.298	0.100
795.900	35.493	0.100
796.000	47.231	0.100
796.100	31.588	0.100
796.200	37.330	0.100
796.300	32.945	0.100
796.400	31.317	0.100
796.500	42.445	0.100
796.600	42.968	0.100
796.700	43.327	0.100
796.800	34.271	0.100
796.900	22.137	0.100
797.000	38.841	0.100
797.100	35.554	0.100
797.200	35.964	0.100
797.300	38.460	0.100
797.400	29.161	0.100
797.500	39.356	0.100
797.600	41.780	0.100
797.700	32.887	0.100
797.800	35.213	0.100
797.900	45.865	0.100
798.000	44.004	0.100
798.100	42.789	0.100
798.200	34.179	0.100
798.300	43.074	0.100
798.400	33.642	0.100
798.500	38.606	0.100
798.600	48.486	0.099
798.700	48.101	0.100
798.800	30.258	0.100
798.900	43.504	0.100
799.000	35.761	0.100
799.100	23.747	0.100
799.200	33.318	0.100
799.300	40.200	0.100
799.400	53.729	0.100
799.500	37.010	0.100
799.600	43.597	0.100
799.700	32.670	0.100
799.800	35.876	0.100
799.900	39.093	0.100
800.000	49.992	0.100
