time /s	I /nA	E /V
0.100	-59.720	0.100
0.200	-60.521	0.100
0.300	-66.287	0.100
0.400	-68.613	0.100
0.500	-70.873	0.100
0.600	-58.407	0.100
0.700	-80.289	0.100
0.800	-61.191	0.100
0.900	-60.300	0.100
1.000	-59.599	0.100
1.100	-52.759	0.100
1.200	-64.058	0.100
1.300	-65.341	0.100
1.400	-57.246	0.100
1.500	-49.481	0.100
1.600	-75.468	0.100
1.700	-67.196	0.100
1.800	-47.619	0.100
1.900	-60.431	0.100
2.000	-57.669	0.100
2.100	-53.700	0.100
2.200	-60.243	0.100
2.300	-64.032	0.100
2.400	-61.464	0.100
2.500	-57.614	0.100
2.600	-64.384	0.100
2.700	-55.926	0.100
2.800	-50.994	0.100
2.900	-64.932	0.100
3.000	-66.418	0.100
3.100	-59.681	0.100
3.200	-61.661	0.100
3.300	-55.833	0.100
3.400	-59.782	0.100
3.500	-57.572	0.100
3.600	-63.954	0.100
3.700	-54.521	0.100
3.800	-64.609	0.100
3.900	-55.397	0.100
4.000	-61.395	0.100
4.100	-54.293	0.100
4.200	-57.574	0.100
4.300	-50.857	0.100
4.400	-45.768	0.100
4.500	-54.495	0.100
4.600	-60.923	0.100
4.700	-56.931	0.100
4.800	-53.826	0.100
4.900	-52.753	0.100
5.000	-49.881	0.100
5.100	-58.581	0.100
5.200	-57.607	0.100
5.300	-48.636	0.100
5.400	-59.632	0.100
5.500	-48.306	0.100
5.600	-58.327	0.100
5.700	-51.888	0.100
5.800	-56.914	0.100
5.900	-52.873	0.100
6.000	-40.477	0.100
6.100	-57.321	0.100
6.200	-47.031	0.100
6.300	-56.791	0.100
6.400	-48.394	0.100
6.500	-41.800	0.100
6.600	-55.901	0.100
6.700	-42.861	0.100
6.800	-57.933	0.100
6.900	-48.815	0.100
7.000	-61.536	0.100
7.100	-51.069	0.100
7.200	-63.261	0.100
7.300	-50.048	0.100
7.400	-63.624	0.100
7.500	-51.309	0.100
7.600	-48.813	0.100
7.700	-47.504	0.100
7.800	-38.643	0.100
7.900	-52.208	0.100
8.000	-49.099	0.100
8.100	-54.840	0.100
8.200	-51.376	0.100
8.300	-49.290	0.100
8.400	-41.773	0.100
8.500	-48.995	0.100
8.600	-53.542	0.100
8.700	-47.540	0.100
8.800	-49.964	0.100
8.900	-61.247	0.100
9.000	-47.779	0.100
9.100	-59.808	0.100
9.200	-65.401	0.100
9.300	-54.157	0.100
9.400	-45.122	0.100
9.500	-49.696	0.100
9.600	-52.857	0.100
9.700	-51.678	0.100
9.800	-48.204	0.100
9.900	-61.354	0.100
10.000	-44.306	0.100
10.100	-43.868	0.100
10.200	-45.886	0.100
10.300	-40.387	0.100
10.400	-44.716	0.100
10.500	-37.848	0.100
10.600	-64.215	0.100
10.700	-42.173	0.100
10.800	-49.876	0.100
10.900	-45.896	0.100
11.000	-53.127	0.100
11.100	-44.076	0.100
11.200	-41.369	0.100
11.300	-47.605	0.100
11.400	-54.056	0.100
11.500	-56.767	0.100
11.600	-57.398	0.100
11.700	-46.237	0.100
11.800	-55.074	0.100
11.900	-46.283	0.100
12.000	-41.072	0.100
12.100	-52.082	0.100
12.200	-64.309	0.100
12.300	-51.337	0.100
12.400	-41.205	0.100
12.500	-49.880	0.100
12.600	-54.283	0.100
12.700	-53.162	0.100
12.800	-41.773	0.100
12.900	-50.865	0.100
13.000	-39.588	0.100
13.100	-56.751	0.100
13.200	-53.373	0.100
13.300	-52.153	0.100
13.400	-48.946	0.100
13.500	-43.437	0.100
13.600	-55.038	0.100
13.700	-58.359	0.100
13.800	-51.460	0.100
13.900	-67.718	0.100
14.000	-52.363	0.100
14.100	-47.787	0.100
14.200	-39.423	0.100
14.300	-51.715	0.100
14.400	-49.306	0.100
14.500	-57.224	0.100
14.600	-46.980	0.100
14.700	-40.455	0.100
14.800	-41.514	0.100
14.900	-49.704	0.100
15.000	-44.491	0.100
15.100	-50.734	0.100
15.200	-42.979	0.100
15.300	-41.021	0.100
15.400	-42.800	0.100
15.500	-39.326	0.100
15.600	-56.134	0.100
15.700	-57.781	0.100
15.800	-63.810	0.100
15.900	-45.685	0.100
16.000	-55.781	0.100
16.100	-62.210	0.100
16.200	-63.077	0.100
16.300	-55.958	0.100
16.400	-54.056	0.100
16.500	-36.671	0.100
16.600	-44.071	0.100
16.700	-57.149	0.100
16.800	-39.841	0.100
16.900	-36.540	0.100
17.000	-48.870	0.100
17.100	-49.338	0.100
17.200	-53.970	0.100
17.300	-56.168	0.100
17.400	-53.470	0.100
17.500	-44.307	0.100
17.600	-47.970	0.100
17.700	-44.787	0.100
17.800	-50.073	0.100
17.900	-35.393	0.100
18.000	-47.651	0.100
18.100	-55.915	0.100
18.200	-43.275	0.100
18.300	-34.398	0.100
18.400	-60.630	0.100
18.500	-46.889	0.100
18.600	-56.148	0.100
18.700	-39.981	0.100
18.800	-47.042	0.100
18.900	-34.668	0.100
19.000	-49.091	0.100
19.100	-38.145	0.100
19.200	-52.517	0.100
19.300	-45.838	0.100
19.400	-54.721	0.100
19.500	-45.124	0.100
19.600	-53.258	0.100
19.700	-48.963	0.100
19.800	-53.718	0.100
19.900	-37.921	0.100
20.000	-43.982	0.100
20.100	-42.365	0.100
20.200	-33.212	0.100
20.300	-46.902	0.100
20.400	-47.142	0.100
20.500	-50.034	0.100
20.600	-39.533	0.100
20.700	-46.520	0.100
20.800	-38.651	0.100
20.900	-53.462	0.100
21.000	-32.566	0.100
21.100	-69.530	0.100
21.200	-58.075	0.100
21.300	-40.119	0.100
21.400	-61.772	0.100
21.500	-46.066	0.100
21.600	-47.849	0.100
21.700	-40.039	0.100
21.800	-58.988	0.100
21.900	-42.039	0.100
22.000	-48.360	0.100
22.100	-44.704	0.100
22.200	-55.545	0.100
22.300	-39.620	0.100
22.400	-40.672	0.100
22.500	-40.247	0.100
22.600	-42.170	0.100
22.700	-42.431	0.100
22.800	-47.986	0.100
22.900	-62.435	0.100
23.000	-39.935	0.100
23.100	-40.022	0.100
23.200	-44.761	0.100
23.300	-45.875	0.100
23.400	-44.926	0.100
23.500	-46.436	0.100
23.600	-36.151	0.100
23.700	-48.997	0.100
23.800	-44.532	0.100
23.900	-42.850	0.100
24.000	-43.175	0.100
24.100	-52.250	0.100
24.200	-40.088	0.100
24.300	-33.589	0.100
24.400	-47.921	0.100
24.500	-40.824	0.100
24.600	-42.476	0.100
24.700	-40.454	0.100
24.800	-40.290	0.100
24.900	-41.910	0.100
25.000	-54.829	0.100
25.100	-38.527	0.100
25.200	-38.654	0.100
25.300	-46.986	0.100
25.400	-42.786	0.100
25.500	-54.372	0.100
25.600	-41.872	0.100
25.700	-35.913	0.100
25.800	-39.276	0.100
25.900	-48.248	0.100
26.000	-31.467	0.100
26.100	-26.754	0.100
26.200	-43.744	0.100
26.300	-42.839	0.100
26.400	-42.512	0.100
26.500	-42.723	0.100
26.600	-29.723	0.100
26.700	-57.589	0.100
26.800	-57.151	0.100
26.900	-33.166	0.100
27.000	-48.946	0.100
27.100	-51.303	0.100
27.200	-38.617	0.100
27.300	-36.912	0.100
27.400	-38.294	0.100
27.500	-50.524	0.100
27.600	-46.990	0.100
27.700	-43.715	0.100
27.800	-44.069	0.100
27.900	-47.050	0.100
28.000	-33.734	0.100
28.100	-50.630	0.100
28.200	-30.639	0.100
28.300	-49.137	0.100
28.400	-39.218	0.100
28.500	-46.817	0.100
28.600	-38.571	0.100
28.700	-37.835	0.100
28.800	-38.048	0.100
28.900	-37.890	0.100
29.000	-40.121	0.100
29.100	-28.775	0.100
29.200	-44.426	0.100
29.300	-37.977	0.100
29.400	-40.816	0.100
29.500	-42.365	0.100
29.600	-46.308	0.100
29.700	-55.469	0.100
29.800	-52.416	0.100
29.900	-36.139	0.100
30.000	-30.023	0.100
30.100	-38.057	0.100
30.200	-39.205	0.100
30.300	-37.655	0.100
30.400	-40.915	0.100
30.500	-33.510	0.100
30.600	-31.463	0.100
30.700	-19.293	0.100
30.800	-31.307	0.100
30.900	-16.973	0.100
31.000	-24.386	0.100
31.100	-27.859	0.100
31.200	-25.884	0.100
31.300	-15.635	0.100
31.400	-16.931	0.100
31.500	-20.092	0.100
31.600	-22.275	0.100
31.700	-17.752	0.100
31.800	-17.383	0.100
31.900	-24.175	0.100
32.000	-18.620	0.100
32.100	-9.213	0.100
32.200	-28.948	0.100
32.300	-22.664	0.100
32.400	-5.882	0.100
32.500	-11.063	0.100
32.600	-5.247	0.100
32.700	-10.926	0.100
32.800	-3.017	0.100
32.900	-6.067	0.100
33.000	-3.525	0.100
33.100	-14.433	0.100
33.200	-15.240	0.100
33.300	-12.138	0.100
33.400	-3.635	0.100
33.500	-12.736	0.100
33.600	-15.830	0.100
33.700	-1.249	0.100
33.800	-23.136	0.100
33.900	-4.999	0.100
34.000	-8.261	0.100
34.100	2.756	0.100
34.200	3.709	0.100
34.300	2.407	0.100
34.400	-14.447	0.100
34.500	-5.916	0.100
34.600	-8.370	0.100
34.700	-5.836	0.100
34.800	0.808	0.100
34.900	0.560	0.100
35.000	5.798	0.100
35.100	0.298	0.100
35.200	0.460	0.100
35.300	-6.772	0.100
35.400	10.605	0.100
35.500	2.469	0.100
35.600	20.654	0.100
35.700	-0.245	0.100
35.800	11.861	0.100
35.900	8.306	0.100
36.000	16.136	0.100
36.100	18.424	0.100
36.200	24.659	0.100
36.300	24.175	0.100
36.400	17.986	0.100
36.500	17.668	0.100
36.600	18.005	0.100
36.700	23.128	0.100
36.800	36.478	0.100
36.900	36.244	0.100
37.000	24.960	0.100
37.100	23.506	0.100
37.200	24.913	0.100
37.300	35.548	0.100
37.400	29.003	0.100
37.500	39.808	0.100
37.600	24.506	0.100
37.700	41.206	0.100
37.800	26.642	0.100
37.900	42.187	0.100
38.000	51.966	0.100
38.100	43.385	0.100
38.200	29.749	0.100
38.300	41.302	0.100
38.400	54.414	0.100
38.500	40.529	0.100
38.600	44.588	0.100
38.700	53.562	0.100
38.800	40.034	0.100
38.900	32.110	0.100
39.000	42.241	0.100
39.100	51.977	0.100
39.200	43.651	0.100
39.300	51.901	0.100
39.400	50.755	0.100
39.500	42.020	0.100
39.600	44.281	0.100
39.700	63.048	0.100
39.800	55.053	0.100
39.900	57.848	0.100
40.000	47.892	0.100
40.100	44.968	0.100
40.200	43.213	0.100
40.300	40.398	0.100
40.400	53.720	0.100
40.500	41.602	0.100
40.600	43.256	0.100
40.700	45.141	0.100
40.800	46.454	0.100
40.900	45.248	0.100
41.000	53.827	0.100
41.100	30.366	0.100
41.200	47.668	0.100
41.300	46.548	0.100
41.400	57.338	0.100
41.500	44.235	0.100
41.600	47.771	0.100
41.700	35.548	0.100
41.800	49.906	0.100
41.900	37.337	0.100
42.000	34.386	0.100
42.100	49.533	0.100
42.200	40.695	0.100
42.300	36.867	0.100
42.400	49.069	0.100
42.500	35.879	0.100
42.600	36.285	0.100
42.700	43.978	0.100
42.800	47.219	0.100
42.900	38.849	0.100
43.000	47.280	0.100
43.100	45.293	0.100
43.200	34.554	0.100
43.300	39.937	0.100
43.400	33.824	0.100
43.500	36.255	0.100
43.600	34.272	0.100
43.700	33.398	0.100
43.800	33.351	0.100
43.900	31.336	0.100
44.000	41.429	0.100
44.100	38.429	0.100
44.200	40.271	0.100
44.300	24.657	0.100
44.400	41.691	0.100
44.500	20.891	0.100
44.600	23.035	0.100
44.700	35.869	0.100
44.800	23.394	0.100
44.900	31.093	0.100
45.000	28.979	0.100
45.100	37.770	0.100
45.200	25.493	0.100
45.300	33.863	0.100
45.400	40.382	0.100
45.500	27.362	0.100
45.600	40.082	0.100
45.700	26.973	0.100
45.800	12.276	0.100
45.900	24.714	0.100
46.000	19.237	0.100
46.100	31.627	0.100
46.200	22.785	0.100
46.300	31.194	0.100
46.400	27.236	0.100
46.500	25.389	0.100
46.600	15.424	0.100
46.700	13.802	0.100
46.800	40.034	0.100
46.900	23.844	0.100
47.000	13.252	0.100
47.100	21.947	0.100
47.200	24.390	0.100
47.300	30.492	0.100
47.400	14.914	0.100
47.500	23.159	0.100
47.600	20.455	0.100
47.700	6.713	0.100
47.800	19.619	0.100
47.900	30.522	0.100
48.000	19.609	0.100
48.100	20.819	0.100
48.200	21.117	0.100
48.300	18.087	0.100
48.400	17.186	0.100
48.500	16.286	0.100
48.600	21.000	0.100
48.700	14.934	0.100
48.800	-1.059	0.100
48.900	17.059	0.100
49.000	15.125	0.100
49.100	12.055	0.100
49.200	19.471	0.100
49.300	22.579	0.100
49.400	23.086	0.100
49.500	20.183	0.100
49.600	12.445	0.100
49.700	20.814	0.100
49.800	7.749	0.100
49.900	14.625	0.100
50.000	9.610	0.100
50.100	13.872	0.100
50.200	28.233	0.100
50.300	13.549	0.100
50.400	10.356	0.100
50.500	16.466	0.100
50.600	24.522	0.100
50.700	12.257	0.100
50.800	8.308	0.100
50.900	12.774	0.100
51.000	18.167	0.100
51.100	25.406	0.100
51.200	4.286	0.100
51.300	17.746	0.100
51.400	24.900	0.100
51.500	30.168	0.100
51.600	13.813	0.100
51.700	8.110	0.100
51.800	19.839	0.100
51.900	7.459	0.100
52.000	23.315	0.100
52.100	10.850	0.100
52.200	11.283	0.100
52.300	12.076	0.100
52.400	23.341	0.100
52.500	21.586	0.100
52.600	9.577	0.100
52.700	13.592	0.100
52.800	24.494	0.100
52.900	6.207	0.100
53.000	19.073	0.100
53.100	27.448	0.100
53.200	8.712	0.100
53.300	14.215	0.100
53.400	32.016	0.100
53.500	28.082	0.100
53.600	24.932	0.100
53.700	27.237	0.100
53.800	5.732	0.100
53.900	12.791	0.100
54.000	17.789	0.100
54.100	15.356	0.100
54.200	26.195	0.100
54.300	11.597	0.100
54.400	17.092	0.100
54.500	19.030	0.100
54.600	24.318	0.100
54.700	24.234	0.100
54.800	23.348	0.100
54.900	20.221	0.100
55.000	18.547	0.100
55.100	26.920	0.100
55.200	12.796	0.100
55.300	11.403	0.100
55.400	17.374	0.100
55.500	13.406	0.100
55.600	14.463	0.100
55.700	32.651	0.100
55.800	22.896	0.100
55.900	29.877	0.100
56.000	10.978	0.100
56.100	14.451	0.100
56.200	29.501	0.100
56.300	21.357	0.100
56.400	10.613	0.100
56.500	12.348	0.100
56.600	23.400	0.100
56.700	23.678	0.100
56.800	16.744	0.100
56.900	6.489	0.100
57.000	3.486	0.100
57.100	23.878	0.100
57.200	25.256	0.100
57.300	20.096	0.100
57.400	31.331	0.100
57.500	16.901	0.100
57.600	13.405	0.100
57.700	19.594	0.100
57.800	20.868	0.100
57.900	29.561	0.100
58.000	17.929	0.100
58.100	33.322	0.100
58.200	19.890	0.100
58.300	20.572	0.100
58.400	26.430	0.100
58.500	26.714	0.100
58.600	24.807	0.100
58.700	17.973	0.100
58.800	16.410	0.100
58.900	9.258	0.100
59.000	27.646	0.100
59.100	31.133	0.100
59.200	25.654	0.100
59.300	19.549	0.100
59.400	21.615	0.100
59.500	10.936	0.100
59.600	20.874	0.100
59.700	27.650	0.100
59.800	33.584	0.100
59.900	17.337	0.100
60.000	22.423	0.100
60.100	17.362	0.100
60.200	16.617	0.100
60.300	26.177	0.100
60.400	18.867	0.100
60.500	31.119	0.100
60.600	35.350	0.100
60.700	13.326	0.100
60.800	18.109	0.100
60.900	19.729	0.100
61.000	25.142	0.100
61.100	26.159	0.100
61.200	23.528	0.100
61.300	25.525	0.100
61.400	23.431	0.100
61.500	17.275	0.100
61.600	22.586	0.100
61.700	20.091	0.100
61.800	31.616	0.100
61.900	28.694	0.100
62.000	37.082	0.100
62.100	23.005	0.100
62.200	27.009	0.100
62.300	40.152	0.100
62.400	24.824	0.100
62.500	31.687	0.100
62.600	19.776	0.100
62.700	28.584	0.100
62.800	22.217	0.100
62.900	13.586	0.100
63.000	26.779	0.100
63.100	38.528	0.100
63.200	28.888	0.100
63.300	26.848	0.100
63.400	26.317	0.100
63.500	24.932	0.100
63.600	21.051	0.100
63.700	25.250	0.100
63.800	25.689	0.100
63.900	21.655	0.100
64.000	30.497	0.100
64.100	26.974	0.100
64.200	34.322	0.100
64.300	15.256	0.100
64.400	26.537	0.100
64.500	26.530	0.100
64.600	23.577	0.100
64.700	27.668	0.100
64.800	6.716	0.100
64.900	30.765	0.100
65.000	24.706	0.100
65.100	35.981	0.100
65.200	25.446	0.100
65.300	26.012	0.100
65.400	29.159	0.100
65.500	25.939	0.100
65.600	25.267	0.100
65.700	29.119	0.100
65.800	33.357	0.100
65.900	19.777	0.100
66.000	37.871	0.100
66.100	37.590	0.100
66.200	24.964	0.100
66.300	16.758	0.100
66.400	21.169	0.100
66.500	25.529	0.100
66.600	33.803	0.100
66.700	43.426	0.100
66.800	33.770	0.100
66.900	20.394	0.100
67.000	31.940	0.100
67.100	25.996	0.100
67.200	28.872	0.100
67.300	31.332	0.100
67.400	26.345	0.100
67.500	29.956	0.100
67.600	16.703	0.100
67.700	34.932	0.100
67.800	35.492	0.100
67.900	21.630	0.100
68.000	24.851	0.100
68.100	26.243	0.100
68.200	38.423	0.100
68.300	30.767	0.100
68.400	35.349	0.100
68.500	35.907	0.100
68.600	31.358	0.100
68.700	28.981	0.100
68.800	22.620	0.100
68.900	32.279	0.100
69.000	35.846	0.100
69.100	27.541	0.100
69.200	19.960	0.100
69.300	23.614	0.100
69.400	28.792	0.100
69.500	36.185	0.100
69.600	36.632	0.100
69.700	34.573	0.100
69.800	34.902	0.100
69.900	26.992	0.100
70.000	39.459	0.100
70.100	39.436	0.100
70.200	30.352	0.100
70.300	26.089	0.100
70.400	18.614	0.100
70.500	24.182	0.100
70.600	25.405	0.100
70.700	36.253	0.100
70.800	33.426	0.100
70.900	32.576	0.100
71.000	37.938	0.100
71.100	16.772	0.100
71.200	50.249	0.100
71.300	36.906	0.100
71.400	31.751	0.100
71.500	29.174	0.100
71.600	26.835	0.100
71.700	23.409	0.100
71.800	27.264	0.100
71.900	30.834	0.100
72.000	38.245	0.100
72.100	31.966	0.100
72.200	31.169	0.100
72.300	44.152	0.100
72.400	36.454	0.100
72.500	22.971	0.100
72.600	40.564	0.100
72.700	37.945	0.100
72.800	22.557	0.100
72.900	27.852	0.100
73.000	26.456	0.100
73.100	30.217	0.100
73.200	33.023	0.100
73.300	41.485	0.100
73.400	31.643	0.100
73.500	51.559	0.100
73.600	34.610	0.100
73.700	18.382	0.100
73.800	24.998	0.100
73.900	44.829	0.100
74.000	29.725	0.100
74.100	37.665	0.100
74.200	42.845	0.100
74.300	30.863	0.100
74.400	28.234	0.100
74.500	42.567	0.100
74.600	35.153	0.100
74.700	37.464	0.100
74.800	50.688	0.100
74.900	30.873	0.100
75.000	18.890	0.100
75.100	19.997	0.100
75.200	37.735	0.100
75.300	43.735	0.100
75.400	30.097	0.100
75.500	30.476	0.100
75.600	37.712	0.100
75.700	38.144	0.100
75.800	45.389	0.100
75.900	41.738	0.100
76.000	44.039	0.100
76.100	31.456	0.100
76.200	31.355	0.100
76.300	41.083	0.100
76.400	22.148	0.100
76.500	28.627	0.100
76.600	43.954	0.100
76.700	38.752	0.100
76.800	28.743	0.100
76.900	25.839	0.100
77.000	31.988	0.100
77.100	32.111	0.100
77.200	43.119	0.100
77.300	39.073	0.100
77.400	38.740	0.100
77.500	29.417	0.100
77.600	50.935	0.100
77.700	25.762	0.100
77.800	33.286	0.100
77.900	38.363	0.100
78.000	41.546	0.100
78.100	45.949	0.100
78.200	34.157	0.100
78.300	33.575	0.100
78.400	46.553	0.100
78.500	38.012	0.100
78.600	46.748	0.100
78.700	39.875	0.100
78.800	33.929	0.100
78.900	38.955	0.100
79.000	28.443	0.100
79.100	39.078	0.100
79.200	44.327	0.100
79.300	42.956	0.100
79.400	42.430	0.100
79.500	43.699	0.100
79.600	31.768	0.100
79.700	34.598	0.100
79.800	46.061	0.100
79.900	26.003	0.100
80.000	30.961	0.100
80.100	25.712	0.100
80.200	31.854	0.100
80.300	28.882	0.100
80.400	45.517	0.100
80.500	41.671	0.100
80.600	43.783	0.100
80.700	41.547	0.100
80.800	50.556	0.100
80.900	45.332	0.100
81.000	36.481	0.100
81.100	41.737	0.100
81.200	39.947	0.100
81.300	38.940	0.100
81.400	25.528	0.100
81.500	35.328	0.100
81.600	31.887	0.100
81.700	43.047	0.100
81.800	44.117	0.100
81.900	45.300	0.100
82.000	37.096	0.100
82.100	23.415	0.100
82.200	31.154	0.100
82.300	52.692	0.100
82.400	29.069	0.100
82.500	35.376	0.100
82.600	35.824	0.100
82.700	42.775	0.100
82.800	50.542	0.100
82.900	47.169	0.100
83.000	47.021	0.100
83.100	30.424	0.100
83.200	51.231	0.100
83.300	42.218	0.100
83.400	38.844	0.100
83.500	43.163	0.100
83.600	38.463	0.100
83.700	34.095	0.100
83.800	43.680	0.100
83.900	40.087	0.100
84.000	50.723	0.100
84.100	43.754	0.100
84.200	39.025	0.100
84.300	54.185	0.100
84.400	49.425	0.100
84.500	34.301	0.100
84.600	37.558	0.100
84.700	37.387	0.100
84.800	33.472	0.100
84.900	36.213	0.100
85.000	42.401	0.100
85.100	39.162	0.100
85.200	54.833	0.100
85.300	51.583	0.100
85.400	41.117	0.100
85.500	51.228	0.100
85.600	41.951	0.100
85.700	41.626	0.100
85.800	40.886	0.100
85.900	36.807	0.100
86.000	50.303	0.100
86.100	35.268	0.100
86.200	37.978	0.100
86.300	45.197	0.100
86.400	50.560	0.100
86.500	43.588	0.100
86.600	33.316	0.100
86.700	47.661	0.100
86.800	37.607	0.100
86.900	20.232	0.100
87.000	48.228	0.100
87.100	51.961	0.100
87.200	46.129	0.100
87.300	42.596	0.100
87.400	45.217	0.100
87.500	40.004	0.100
87.600	42.043	0.100
87.700	50.091	0.100
87.800	45.182	0.100
87.900	38.753	0.100
88.000	44.631	0.100
88.100	49.446	0.100
88.200	27.139	0.100
88.300	41.721	0.100
88.400	44.833	0.100
88.500	44.904	0.100
88.600	40.375	0.100
88.700	37.726	0.100
88.800	49.315	0.100
88.900	41.409	0.100
89.000	41.152	0.100
89.100	43.704	0.100
89.200	47.097	0.100
89.300	43.374	0.100
89.400	42.853	0.100
89.500	39.714	0.100
89.600	52.244	0.100
89.700	39.959	0.100
89.800	44.272	0.100
89.900	32.173	0.100
90.000	36.162	0.100
90.100	38.791	0.100
90.200	47.680	0.100
90.300	49.620	0.100
90.400	29.921	0.100
90.500	45.490	0.100
90.600	32.304	0.100
90.700	23.387	0.100
90.800	21.062	0.100
90.900	17.283	0.100
91.000	16.098	0.100
91.100	9.665	0.100
91.200	7.905	0.100
91.300	8.389	0.100
91.400	19.092	0.100
91.500	-4.452	0.100
91.600	-6.266	0.100
91.700	-6.989	0.100
91.800	1.663	0.100
91.900	2.414	0.100
92.000	-0.102	0.100
92.100	-12.162	0.100
92.200	-13.772	0.100
92.300	-4.738	0.100
92.400	-24.581	0.100
92.500	-11.850	0.100
92.600	-21.308	0.100
92.700	-27.376	0.100
92.800	-24.692	0.100
92.900	-28.189	0.100
93.000	-21.463	0.100
93.100	-18.816	0.100
93.200	-33.332	0.100
93.300	-21.445	0.100
93.400	-33.965	0.100
93.500	-32.221	0.100
93.600	-22.534	0.100
93.700	-21.629	0.100
93.800	-39.388	0.100
93.900	-27.473	0.100
94.000	-31.907	0.100
94.100	-38.290	0.100
94.200	-45.238	0.100
94.300	-24.304	0.100
94.400	-40.040	0.100
94.500	-36.619	0.100
94.600	-32.572	0.100
94.700	-26.717	0.100
94.800	-44.010	0.100
94.900	-36.914	0.100
95.000	-40.165	0.100
95.100	-40.362	0.100
95.200	-26.713	0.100
95.300	-33.619	0.100
95.400	-36.309	0.100
95.500	-38.065	0.100
95.600	-40.122	0.100
95.700	-26.937	0.100
95.800	-24.281	0.100
95.900	-34.096	0.100
96.000	-29.242	0.100
96.100	-48.059	0.100
96.200	-40.525	0.100
96.300	-25.057	0.100
96.400	-31.882	0.100
96.500	-36.818	0.100
96.600	-31.095	0.100
96.700	-31.289	0.100
96.800	-30.690	0.100
96.900	-20.901	0.100
97.000	-25.467	0.100
97.100	-18.741	0.100
97.200	-27.875	0.100
97.300	-27.872	0.100
97.400	-41.189	0.100
97.500	-39.333	0.100
97.600	-30.240	0.100
97.700	-35.227	0.100
97.800	-25.160	0.100
97.900	-29.221	0.100
98.000	-23.678	0.100
98.100	-29.246	0.100
98.200	-15.384	0.100
98.300	-38.892	0.100
98.400	-17.764	0.100
98.500	-33.387	0.100
98.600	-24.677	0.100
98.700	-26.523	0.100
98.800	-35.428	0.100
98.900	-21.043	0.100
99.000	-25.592	0.100
99.100	-17.350	0.100
99.200	-22.309	0.100
99.300	-27.578	0.100
99.400	-28.186	0.100
99.500	-28.237	0.100
99.600	-25.363	0.100
99.700	-39.058	0.100
99.800	-25.497	0.100
99.900	-19.068	0.100
100.000	-26.164	0.100
100.100	-22.211	0.100
100.200	-19.534	0.100
100.300	-30.516	0.100
100.400	-24.513	0.100
100.500	-31.686	0.100
100.600	-20.493	0.100
100.700	-19.472	0.100
100.800	-26.046	0.100
100.900	-23.713	0.100
101.000	-24.406	0.100
101.100	-32.972	0.100
101.200	-14.290	0.100
101.300	-19.938	0.100
101.400	-14.998	0.100
101.500	-16.530	0.100
101.600	-19.064	0.100
101.700	-28.173	0.100
101.800	-28.848	0.100
101.900	-25.106	0.100
102.000	-24.301	0.100
102.100	-13.031	0.100
102.200	-35.082	0.100
102.300	-33.613	0.100
102.400	-33.071	0.100
102.500	-17.431	0.100
102.600	-22.500	0.100
102.700	-13.568	0.100
102.800	-17.001	0.100
102.900	-20.839	0.100
103.000	-38.623	0.100
103.100	-23.154	0.100
103.200	-25.137	0.100
103.300	-36.094	0.100
103.400	-29.049	0.100
103.500	-19.862	0.100
103.600	-21.055	0.100
103.700	-36.895	0.100
103.800	-29.524	0.100
103.900	-15.183	0.100
104.000	-15.183	0.100
104.100	-23.659	0.100
104.200	-29.058	0.100
104.300	-17.453	0.100
104.400	-25.672	0.100
104.500	-33.790	0.100
104.600	-24.828	0.100
104.700	-26.425	0.100
104.800	-22.437	0.100
104.900	-26.619	0.100
105.000	-21.474	0.100
105.100	-20.140	0.100
105.200	-34.213	0.100
105.300	-25.257	0.100
105.400	-26.243	0.100
105.500	-24.270	0.100
105.600	-26.109	0.100
105.700	-25.718	0.100
105.800	-31.500	0.100
105.900	-30.877	0.100
106.000	-30.280	0.100
106.100	-30.616	0.100
106.200	-25.515	0.100
106.300	-17.363	0.100
106.400	-27.717	0.100
106.500	-30.069	0.100
106.600	-30.418	0.100
106.700	-26.223	0.100
106.800	-27.761	0.100
106.900	-16.011	0.100
107.000	-24.454	0.100
107.100	-21.844	0.100
107.200	-27.234	0.100
107.300	-29.482	0.100
107.400	-25.429	0.100
107.500	-22.164	0.100
107.600	-38.576	0.100
107.700	-19.436	0.100
107.800	-23.172	0.100
107.900	-32.103	0.100
108.000	-26.631	0.100
108.100	-32.770	0.100
108.200	-19.195	0.100
108.300	-32.783	0.100
108.400	-23.368	0.100
108.500	-27.248	0.100
108.600	-32.023	0.100
108.700	-16.133	0.100
108.800	-21.285	0.100
108.900	-24.589	0.100
109.000	-27.666	0.100
109.100	-31.794	0.100
109.200	-29.554	0.100
109.300	-24.342	0.100
109.400	-30.255	0.100
109.500	-36.518	0.100
109.600	-24.025	0.100
109.700	-26.874	0.100
109.800	-30.931	0.100
109.900	-32.265	0.100
110.000	-36.295	0.100
110.100	-28.092	0.100
110.200	-32.506	0.100
110.300	-32.653	0.100
110.400	-36.055	0.100
110.500	-15.461	0.100
110.600	-25.534	0.100
110.700	-28.226	0.100
110.800	-31.259	0.100
110.900	-31.563	0.100
111.000	-26.981	0.100
111.100	-34.602	0.100
111.200	-36.302	0.100
111.300	-26.505	0.100
111.400	-33.861	0.100
111.500	-29.966	0.100
111.600	-34.040	0.100
111.700	-26.253	0.100
111.800	-15.148	0.100
111.900	-32.601	0.100
112.000	-19.472	0.100
112.100	-42.050	0.100
112.200	-34.153	0.100
112.300	-20.822	0.100
112.400	-30.665	0.100
112.500	-34.728	0.100
112.600	-39.408	0.100
112.700	-34.690	0.100
112.800	-34.741	0.100
112.900	-34.315	0.100
113.000	-29.872	0.100
113.100	-29.575	0.100
113.200	-32.980	0.100
113.300	-42.449	0.100
113.400	-34.562	0.100
113.500	-22.671	0.100
113.600	-26.339	0.100
113.700	-31.460	0.100
113.800	-28.722	0.100
113.900	-19.738	0.100
114.000	-31.474	0.100
114.100	-38.514	0.100
114.200	-35.885	0.100
114.300	-29.196	0.100
114.400	-34.101	0.100
114.500	-42.281	0.100
114.600	-27.193	0.100
114.700	-29.706	0.100
114.800	-40.290	0.100
114.900	-42.346	0.100
115.000	-28.216	0.100
115.100	-39.468	0.100
115.200	-37.434	0.100
115.300	-30.966	0.100
115.400	-31.984	0.100
115.500	-34.527	0.100
115.600	-27.039	0.100
115.700	-30.518	0.100
115.800	-40.612	0.100
115.900	-27.999	0.100
116.000	-29.493	0.100
116.100	-26.810	0.100
116.200	-23.373	0.100
116.300	-45.742	0.100
116.400	-24.877	0.100
116.500	-25.535	0.100
116.600	-22.537	0.100
116.700	-38.664	0.100
116.800	-38.935	0.100
116.900	-38.216	0.100
117.000	-30.006	0.100
117.100	-41.808	0.100
117.200	-30.683	0.100
117.300	-33.056	0.100
117.400	-54.359	0.100
117.500	-45.884	0.100
117.600	-30.368	0.100
117.700	-29.406	0.100
117.800	-32.608	0.100
117.900	-35.408	0.100
118.000	-19.534	0.100
118.100	-26.124	0.100
118.200	-34.952	0.100
118.300	-41.998	0.100
118.400	-38.099	0.100
118.500	-31.278	0.100
118.600	-30.683	0.100
118.700	-20.615	0.100
118.800	-46.004	0.100
118.900	-33.915	0.100
119.000	-44.496	0.100
119.100	-37.301	0.100
119.200	-31.317	0.100
119.300	-30.147	0.100
119.400	-33.112	0.100
119.500	-16.951	0.100
119.600	-31.553	0.100
119.700	-41.253	0.100
119.800	-46.201	0.100
119.900	-35.319	0.100
120.000	-41.143	0.100
120.100	-47.265	0.100
120.200	-38.087	0.100
120.300	-34.950	0.100
120.400	-31.107	0.100
120.500	-29.333	0.100
120.600	-39.480	0.100
120.700	-18.110	0.100
120.800	-28.944	0.100
120.900	-41.711	0.100
121.000	-41.012	0.100
121.100	-31.351	0.100
121.200	-34.897	0.100
121.300	-29.457	0.100
121.400	-42.032	0.100
121.500	-40.642	0.100
121.600	-30.437	0.100
121.700	-44.081	0.100
121.800	-38.397	0.100
121.900	-31.453	0.100
122.000	-35.711	0.100
122.100	-35.565	0.100
122.200	-41.936	0.100
122.300	-39.861	0.100
122.400	-42.319	0.100
122.500	-36.611	0.100
122.600	-46.751	0.100
122.700	-34.387	0.100
122.800	-32.034	0.100
122.900	-33.034	0.100
123.000	-37.762	0.100
123.100	-38.027	0.100
123.200	-32.135	0.100
123.300	-35.023	0.100
123.400	-38.247	0.100
123.500	-28.854	0.100
123.600	-46.411	0.100
123.700	-38.389	0.100
123.800	-40.276	0.100
123.900	-32.288	0.100
124.000	-28.095	0.100
124.100	-55.840	0.100
124.200	-32.744	0.100
124.300	-27.772	0.100
124.400	-21.124	0.100
124.500	-38.084	0.100
124.600	-38.696	0.100
124.700	-28.740	0.100
124.800	-31.163	0.100
124.900	-43.153	0.100
125.000	-38.400	0.100
125.100	-46.968	0.100
125.200	-36.653	0.100
125.300	-39.741	0.100
125.400	-40.382	0.100
125.500	-32.371	0.100
125.600	-25.529	0.100
125.700	-37.660	0.100
125.800	-43.800	0.100
125.900	-36.542	0.100
126.000	-35.634	0.100
126.100	-31.883	0.100
126.200	-30.688	0.100
126.300	-19.616	0.100
126.400	-36.620	0.100
126.500	-43.798	0.100
126.600	-28.932	0.100
126.700	-35.714	0.100
126.800	-34.386	0.100
126.900	-37.721	0.100
127.000	-41.090	0.100
127.100	-39.572	0.100
127.200	-41.425	0.100
127.300	-33.987	0.100
127.400	-21.129	0.100
127.500	-27.518	0.100
127.600	-40.531	0.100
127.700	-38.884	0.100
127.800	-30.936	0.100
127.900	-39.858	0.100
128.000	-47.982	0.100
128.100	-45.732	0.100
128.200	-40.215	0.100
128.300	-33.757	0.100
128.400	-25.848	0.100
128.500	-34.525	0.100
128.600	-24.734	0.100
128.700	-41.607	0.100
128.800	-33.220	0.100
128.900	-38.083	0.100
129.000	-30.523	0.100
129.100	-30.253	0.100
129.200	-33.716	0.100
129.300	-44.106	0.100
129.400	-36.012	0.100
129.500	-27.939	0.100
129.600	-35.704	0.100
129.700	-30.963	0.100
129.800	-42.146	0.100
129.900	-41.590	0.100
130.000	-18.521	0.100
130.100	-37.401	0.100
130.200	-38.118	0.100
130.300	-37.023	0.100
130.400	-37.620	0.100
130.500	-32.369	0.100
130.600	-30.152	0.100
130.700	-31.830	0.100
130.800	-32.348	0.100
130.900	-35.264	0.100
131.000	-30.652	0.100
131.100	-39.778	0.100
131.200	-27.505	0.100
131.300	-33.366	0.100
131.400	-37.178	0.100
131.500	-30.415	0.100
131.600	-30.847	0.100
131.700	-33.576	0.100
131.800	-34.311	0.100
131.900	-26.706	0.100
132.000	-49.250	0.100
132.100	-38.206	0.100
132.200	-35.792	0.100
132.300	-43.365	0.100
132.400	-41.825	0.100
132.500	-20.308	0.100
132.600	-41.411	0.100
132.700	-40.993	0.100
132.800	-39.058	0.100
132.900	-38.679	0.100
133.000	-34.316	0.100
133.100	-24.678	0.100
133.200	-33.525	0.100
133.300	-23.800	0.100
133.400	-18.678	0.100
133.500	-31.886	0.100
133.600	-33.580	0.100
133.700	-37.835	0.100
133.800	-30.232	0.100
133.900	-35.046	0.100
134.000	-36.720	0.100
134.100	-30.389	0.100
134.200	-37.266	0.100
134.300	-30.691	0.100
134.400	-43.028	0.100
134.500	-36.745	0.100
134.600	-23.678	0.100
134.700	-51.189	0.100
134.800	-42.034	0.100
134.900	-38.742	0.100
135.000	-29.746	0.100
135.100	-37.366	0.100
135.200	-31.464	0.100
135.300	-31.696	0.100
135.400	-41.728	0.100
135.500	-34.370	0.100
135.600	-24.390	0.100
135.700	-31.923	0.100
135.800	-41.044	0.100
135.900	-38.257	0.100
136.000	-25.750	0.100
136.100	-32.538	0.100
136.200	-42.206	0.100
136.300	-27.681	0.100
136.400	-32.363	0.100
136.500	-30.489	0.100
136.600	-40.389	0.100
136.700	-31.442	0.100
136.800	-38.187	0.100
136.900	-30.559	0.100
137.000	-42.321	0.100
137.100	-27.212	0.100
137.200	-30.324	0.100
137.300	-36.182	0.100
137.400	-28.466	0.100
137.500	-27.948	0.100
137.600	-32.920	0.100
137.700	-25.041	0.100
137.800	-42.700	0.100
137.900	-31.887	0.100
138.000	-26.698	0.100
138.100	-31.986	0.100
138.200	-47.872	0.100
138.300	-27.959	0.100
138.400	-33.021	0.100
138.500	-21.882	0.100
138.600	-39.114	0.100
138.700	-26.554	0.100
138.800	-28.457	0.100
138.900	-32.045	0.100
139.000	-23.004	0.100
139.100	-29.383	0.100
139.200	-28.098	0.100
139.300	-40.278	0.100
139.400	-37.402	0.100
139.500	-38.619	0.100
139.600	-22.210	0.100
139.700	-12.007	0.100
139.800	-36.539	0.100
139.900	-44.989	0.100
140.000	-35.160	0.100
140.100	-29.174	0.100
140.200	-32.623	0.100
140.300	-31.713	0.100
140.400	-42.058	0.100
140.500	-25.682	0.100
140.600	-34.662	0.100
140.700	-24.902	0.100
140.800	-25.599	0.100
140.900	-23.618	0.100
141.000	-45.345	0.100
141.100	-45.431	0.100
141.200	-27.182	0.100
141.300	-28.800	0.100
141.400	-37.566	0.100
141.500	-29.160	0.100
141.600	-25.290	0.100
141.700	-27.373	0.100
141.800	-33.010	0.100
141.900	-24.291	0.100
142.000	-30.472	0.100
142.100	-31.327	0.100
142.200	-41.447	0.100
142.300	-28.763	0.100
142.400	-32.953	0.100
142.500	-36.991	0.100
142.600	-31.761	0.100
142.700	-37.868	0.100
142.800	-32.370	0.100
142.900	-22.200	0.100
143.000	-25.407	0.100
143.100	-31.945	0.100
143.200	-39.319	0.100
143.300	-39.458	0.100
143.400	-26.282	0.100
143.500	-37.023	0.100
143.600	-28.127	0.100
143.700	-26.217	0.100
143.800	-28.034	0.100
143.900	-36.981	0.100
144.000	-29.176	0.100
144.100	-35.228	0.100
144.200	-24.895	0.100
144.300	-36.895	0.100
144.400	-31.775	0.100
144.500	-39.173	0.100
144.600	-18.477	0.100
144.700	-36.799	0.100
144.800	-31.221	0.100
144.900	-46.524	0.100
145.000	-37.001	0.100
145.100	-21.965	0.100
145.200	-24.123	0.100
145.300	-28.413	0.100
145.400	-19.657	0.100
145.500	-20.766	0.100
145.600	-38.689	0.100
145.700	-29.066	0.100
145.800	-33.489	0.100
145.900	-42.806	0.100
146.000	-24.928	0.100
146.100	-22.244	0.100
146.200	-24.351	0.100
146.300	-34.187	0.100
146.400	-20.218	0.100
146.500	-36.226	0.100
146.600	-16.754	0.100
146.700	-36.250	0.100
146.800	-41.635	0.100
146.900	-36.787	0.100
147.000	-29.927	0.100
147.100	-25.025	0.100
147.200	-27.109	0.100
147.300	-19.925	0.100
147.400	-32.085	0.100
147.500	-38.001	0.100
147.600	-24.827	0.100
147.700	-33.187	0.100
147.800	-19.168	0.100
147.900	-22.644	0.100
148.000	-26.077	0.100
148.100	-29.764	0.100
148.200	-24.586	0.100
148.300	-30.523	0.100
148.400	-39.517	0.100
148.500	-40.540	0.100
148.600	-24.971	0.100
148.700	-22.033	0.100
148.800	-30.069	0.100
148.900	-21.888	0.100
149.000	-40.010	0.100
149.100	-32.910	0.100
149.200	-19.679	0.100
149.300	-25.713	0.100
149.400	-35.934	0.100
149.500	-33.846	0.100
149.600	-37.978	0.100
149.700	-37.419	0.100
149.800	-21.325	0.100
149.900	-21.086	0.100
150.000	-26.572	0.100
150.100	-39.716	0.100
150.200	-34.867	0.100
150.300	-25.400	0.100
150.400	-24.103	0.100
150.500	-28.597	0.100
150.600	-24.546	0.100
150.700	-31.155	0.100
150.800	-24.563	0.100
150.900	-25.922	0.100
151.000	-30.717	0.100
151.100	-23.546	0.100
151.200	-19.998	0.100
151.300	-24.208	0.100
151.400	-26.862	0.100
151.500	-18.386	0.100
151.600	-33.020	0.100
151.700	-27.600	0.100
151.800	-39.870	0.100
151.900	-22.911	0.100
152.000	-26.988	0.100
152.100	-13.584	0.100
152.200	-16.192	0.100
152.300	-19.954	0.100
152.400	-28.945	0.100
152.500	-35.145	0.100
152.600	-36.377	0.100
152.700	-21.909	0.100
152.800	-24.048	0.100
152.900	-28.275	0.100
153.000	-34.692	0.100
153.100	-32.933	0.100
153.200	-20.922	0.100
153.300	-35.718	0.100
153.400	-28.342	0.100
153.500	-26.398	0.100
153.600	-19.969	0.100
153.700	-27.847	0.100
153.800	-27.998	0.100
153.900	-36.202	0.100
154.000	-22.731	0.100
154.100	-29.422	0.100
154.200	-29.899	0.100
154.300	-18.829	0.100
154.400	-32.903	0.100
154.500	-33.954	0.100
154.600	-39.810	0.100
154.700	-29.934	0.100
154.800	-28.773	0.100
154.900	-20.754	0.100
155.000	-39.886	0.100
155.100	-37.186	0.100
155.200	-31.034	0.100
155.300	-33.776	0.100
155.400	-25.494	0.100
155.500	-17.290	0.100
155.600	-25.886	0.100
155.700	-32.080	0.100
155.800	-30.749	0.100
155.900	-20.486	0.100
156.000	-30.049	0.100
156.100	-30.302	0.100
156.200	-24.314	0.100
156.300	-28.164	0.100
156.400	-24.919	0.100
156.500	-19.131	0.100
156.600	-36.134	0.100
156.700	-25.743	0.100
156.800	-24.903	0.100
156.900	-12.912	0.100
157.000	-36.214	0.100
157.100	-29.430	0.100
157.200	-28.216	0.100
157.300	-17.337	0.100
157.400	-30.346	0.100
157.500	-33.046	0.100
157.600	-28.881	0.100
157.700	-30.966	0.100
157.800	-22.443	0.100
157.900	-26.702	0.100
158.000	-25.329	0.100
158.100	-21.656	0.100
158.200	-22.899	0.100
158.300	-32.255	0.100
158.400	-32.163	0.100
158.500	-29.216	0.100
158.600	-39.272	0.100
158.700	-37.719	0.100
158.800	-24.580	0.100
158.900	-25.027	0.100
159.000	-18.299	0.100
159.100	-23.784	0.100
159.200	-16.955	0.100
159.300	-37.677	0.100
159.400	-20.005	0.100
159.500	-14.503	0.100
159.600	-22.468	0.100
159.700	-31.839	0.100
159.800	-13.692	0.100
159.900	-24.030	0.100
160.000	-23.678	0.100
160.100	-43.106	0.100
160.200	-28.950	0.100
160.300	-21.804	0.100
160.400	-18.915	0.100
160.500	-28.642	0.100
160.600	-27.816	0.100
160.700	-13.642	0.100
160.800	-24.370	0.100
160.900	-14.314	0.100
161.000	-28.354	0.100
161.100	-30.143	0.100
161.200	-14.420	0.100
161.300	-25.721	0.100
161.400	-37.686	0.100
161.500	-18.402	0.100
161.600	-29.583	0.100
161.700	-33.142	0.100
161.800	-32.465	0.100
161.900	-23.755	0.100
162.000	-17.658	0.100
162.100	-23.052	0.100
162.200	-29.095	0.100
162.300	-30.466	0.100
162.400	-18.513	0.100
162.500	-21.787	0.100
162.600	-28.981	0.100
162.700	-22.960	0.100
162.800	-21.537	0.100
162.900	-12.195	0.100
163.000	-19.435	0.100
163.100	-18.765	0.100
163.200	-29.796	0.100
163.300	-24.251	0.100
163.400	-28.577	0.100
163.500	-30.420	0.100
163.600	-20.918	0.100
163.700	-18.382	0.100
163.800	-27.251	0.100
163.900	-25.716	0.100
164.000	-25.894	0.100
164.100	-22.379	0.100
164.200	-27.441	0.100
164.300	-29.853	0.100
164.400	-15.960	0.100
164.500	-38.005	0.100
164.600	-21.945	0.100
164.700	-28.029	0.100
164.800	-34.329	0.100
164.900	-14.409	0.100
165.000	-23.006	0.100
165.100	-32.263	0.100
165.200	-23.724	0.100
165.300	-20.556	0.100
165.400	-17.842	0.100
165.500	-19.753	0.100
165.600	-25.424	0.100
165.700	-13.965	0.100
165.800	-22.334	0.100
165.900	-21.678	0.100
166.000	-12.906	0.100
166.100	-23.681	0.100
166.200	-21.435	0.100
166.300	-27.693	0.100
166.400	-24.976	0.100
166.500	-23.433	0.100
166.600	-23.777	0.100
166.700	-26.852	0.100
166.800	-21.702	0.100
166.900	-14.447	0.100
167.000	-28.377	0.100
167.100	-25.165	0.100
167.200	-31.014	0.100
167.300	-17.991	0.100
167.400	-32.123	0.100
167.500	-19.318	0.100
167.600	-26.318	0.100
167.700	-16.223	0.100
167.800	-14.787	0.100
167.900	-15.938	0.100
168.000	-20.265	0.100
168.100	-39.408	0.100
168.200	-21.297	0.100
168.300	-27.414	0.100
168.400	-27.533	0.100
168.500	-17.968	0.100
168.600	-14.010	0.100
168.700	-9.973	0.100
168.800	-16.921	0.100
168.900	-25.632	0.100
169.000	-29.186	0.100
169.100	-16.298	0.100
169.200	-24.173	0.100
169.300	-22.819	0.100
169.400	-12.953	0.100
169.500	-25.493	0.100
169.600	-35.845	0.100
169.700	-29.316	0.100
169.800	-21.934	0.100
169.900	-26.511	0.100
170.000	-29.011	0.100
170.100	-14.781	0.100
170.200	-21.386	0.100
170.300	-27.760	0.100
170.400	-19.922	0.100
170.500	-17.723	0.100
170.600	-20.730	0.100
170.700	-24.932	0.100
170.800	-28.207	0.100
170.900	-23.158	0.100
171.000	-14.381	0.100
171.100	-18.202	0.100
171.200	-26.681	0.100
171.300	-28.220	0.100
171.400	-24.384	0.100
171.500	-29.485	0.100
171.600	-25.068	0.100
171.700	-25.993	0.100
171.800	-21.398	0.100
171.900	-24.775	0.100
172.000	-25.658	0.100
172.100	-21.475	0.100
172.200	-40.571	0.100
172.300	-28.257	0.100
172.400	-18.761	0.100
172.500	-23.566	0.100
172.600	-32.436	0.100
172.700	-21.734	0.100
172.800	-17.791	0.100
172.900	-31.320	0.100
173.000	-32.123	0.100
173.100	-21.365	0.100
173.200	-15.018	0.100
173.300	-23.807	0.100
173.400	-30.734	0.100
173.500	-18.438	0.100
173.600	-10.208	0.100
173.700	-22.542	0.100
173.800	-24.963	0.100
173.900	-23.623	0.100
174.000	-21.319	0.100
174.100	-16.282	0.100
174.200	-21.777	0.100
174.300	-14.350	0.100
174.400	-26.536	0.100
174.500	-18.650	0.100
174.600	-26.150	0.100
174.700	-15.686	0.100
174.800	-12.352	0.100
174.900	-30.753	0.100
175.000	-12.079	0.100
175.100	-27.555	0.100
175.200	-33.966	0.100
175.300	-14.746	0.100
175.400	-17.471	0.100
175.500	-25.178	0.100
175.600	-15.932	0.100
175.700	-14.930	0.100
175.800	-29.426	0.100
175.900	-37.342	0.100
176.000	-25.016	0.100
176.100	-25.456	0.100
176.200	-4.210	0.100
176.300	-19.158	0.100
176.400	-22.191	0.100
176.500	-29.384	0.100
176.600	-10.878	0.100
176.700	-19.863	0.100
176.800	-20.702	0.100
176.900	-20.532	0.100
177.000	-36.740	0.100
177.100	-24.796	0.100
177.200	-20.119	0.100
177.300	-36.253	0.100
177.400	-25.920	0.100
177.500	-15.477	0.100
177.600	-17.113	0.100
177.700	-31.608	0.100
177.800	-29.911	0.100
177.900	-14.708	0.100
178.000	-23.136	0.100
178.100	-19.445	0.100
178.200	-26.783	0.100
178.300	-12.871	0.100
178.400	-22.149	0.100
178.500	-25.789	0.100
178.600	-25.308	0.100
178.700	-23.008	0.100
178.800	-20.206	0.100
178.900	-22.826	0.100
179.000	-3.526	0.100
179.100	-21.843	0.100
179.200	-24.499	0.100
179.300	-18.504	0.100
179.400	-22.293	0.100
179.500	-28.269	0.100
179.600	-14.003	0.100
179.700	-10.539	0.100
179.800	-20.775	0.100
179.900	-15.548	0.100
180.000	-25.028	0.100
180.100	-21.946	0.100
180.200	-15.810	0.100
180.300	-10.240	0.100
180.400	-13.073	0.100
180.500	-15.900	0.100
180.600	-5.216	0.100
180.700	-8.214	0.100
180.800	11.218	0.100
180.900	-2.493	0.100
181.000	19.693	0.100
181.100	14.442	0.100
181.200	18.807	0.100
181.300	20.838	0.100
181.400	21.778	0.100
181.500	23.597	0.100
181.600	26.866	0.100
181.700	21.409	0.100
181.800	24.942	0.100
181.900	27.327	0.100
182.000	34.440	0.100
182.100	36.851	0.100
182.200	29.521	0.100
182.300	27.983	0.100
182.400	49.585	0.100
182.500	31.850	0.100
182.600	34.656	0.100
182.700	25.519	0.100
182.800	35.930	0.100
182.900	32.378	0.100
183.000	47.573	0.100
183.100	39.931	0.100
183.200	37.359	0.100
183.300	36.596	0.100
183.400	33.211	0.100
183.500	34.312	0.100
183.600	45.918	0.100
183.700	29.072	0.100
183.800	28.648	0.100
183.900	40.187	0.100
184.000	23.367	0.100
184.100	30.739	0.100
184.200	27.633	0.100
184.300	31.133	0.100
184.400	42.381	0.100
184.500	25.203	0.100
184.600	28.214	0.100
184.700	26.965	0.100
184.800	24.649	0.100
184.900	53.645	0.100
185.000	34.847	0.100
185.100	36.313	0.100
185.200	28.983	0.100
185.300	26.675	0.100
185.400	21.359	0.100
185.500	30.339	0.100
185.600	14.833	0.100
185.700	39.875	0.100
185.800	45.817	0.100
185.900	31.955	0.100
186.000	35.162	0.100
186.100	36.790	0.100
186.200	37.620	0.100
186.300	34.676	0.100
186.400	34.836	0.100
186.500	30.629	0.100
186.600	42.010	0.100
186.700	43.883	0.100
186.800	43.008	0.101
186.900	41.141	0.100
187.000	48.929	0.101
187.100	43.476	0.100
187.200	44.916	0.100
187.300	44.891	0.100
187.400	37.387	0.100
187.500	42.293	0.100
187.600	38.756	0.101
187.700	54.211	0.100
187.800	51.696	0.100
187.900	42.749	0.100
188.000	54.576	0.100
188.100	59.575	0.100
188.200	43.090	0.100
188.300	54.650	0.100
188.400	54.316	0.100
188.500	60.268	0.100
188.600	47.120	0.100
188.700	48.548	0.100
188.800	66.200	0.100
188.900	53.482	0.100
189.000	53.899	0.100
189.100	66.402	0.100
189.200	60.834	0.100
189.300	59.992	0.101
189.400	57.499	0.100
189.500	54.420	0.100
189.600	59.238	0.100
189.700	65.396	0.100
189.800	61.819	0.100
189.900	60.439	0.100
190.000	70.137	0.100
190.100	53.330	0.100
190.200	78.230	0.100
190.300	66.844	0.100
190.400	64.564	0.100
190.500	65.381	0.100
190.600	71.728	0.100
190.700	64.393	0.100
190.800	71.309	0.101
190.900	77.699	0.101
191.000	73.317	0.100
191.100	70.956	0.100
191.200	71.266	0.100
191.300	71.638	0.100
191.400	72.081	0.101
191.500	70.704	0.100
191.600	58.241	0.100
191.700	73.905	0.100
191.800	85.122	0.101
191.900	81.635	0.101
192.000	79.450	0.101
192.100	81.875	0.101
192.200	84.900	0.100
192.300	96.011	0.101
192.400	87.529	0.100
192.500	75.060	0.101
192.600	68.257	0.100
192.700	75.629	0.100
192.800	91.398	0.101
192.900	90.045	0.101
193.000	85.796	0.100
193.100	64.637	0.100
193.200	79.956	0.101
193.300	76.145	0.100
193.400	80.693	0.100
193.500	83.889	0.101
193.600	78.636	0.101
193.700	84.127	0.101
193.800	85.545	0.100
193.900	77.876	0.101
194.000	84.603	0.100
194.100	81.668	0.101
194.200	80.202	0.101
194.300	78.474	0.101
194.400	93.663	0.101
194.500	87.371	0.101
194.600	92.923	0.101
194.700	76.885	0.101
194.800	77.874	0.101
194.900	80.483	0.101
195.000	75.207	0.101
195.100	79.415	0.101
195.200	84.892	0.101
195.300	75.828	0.101
195.400	81.194	0.101
195.500	87.125	0.101
195.600	80.339	0.101
195.700	83.937	0.101
195.800	83.745	0.101
195.900	78.594	0.101
196.000	76.180	0.101
196.100	80.548	0.101
196.200	75.005	0.101
196.300	69.721	0.101
196.400	83.279	0.101
196.500	91.039	0.101
196.600	81.314	0.101
196.700	79.811	0.101
196.800	83.403	0.101
196.900	68.685	0.101
197.000	70.162	0.101
197.100	67.750	0.101
197.200	80.312	0.101
197.300	89.308	0.101
197.400	75.226	0.101
197.500	79.713	0.101
197.600	82.073	0.101
197.700	75.185	0.101
197.800	66.932	0.101
197.900	73.711	0.101
198.000	83.410	0.101
198.100	72.954	0.101
198.200	57.693	0.101
198.300	79.107	0.101
198.400	72.571	0.101
198.500	69.387	0.101
198.600	73.289	0.101
198.700	74.266	0.101
198.800	67.010	0.101
198.900	70.212	0.101
199.000	74.772	0.101
199.100	63.916	0.101
199.200	68.982	0.101
199.300	76.079	0.101
199.400	75.252	0.101
199.500	73.035	0.101
199.600	78.985	0.101
199.700	62.300	0.101
199.800	76.362	0.101
199.900	81.404	0.101
200.000	81.121	0.101
200.100	62.223	0.101
200.200	71.918	0.101
200.300	68.418	0.101
200.400	58.744	0.101
200.500	64.568	0.101
200.600	69.590	0.101
200.700	76.562	0.101
200.800	65.630	0.101
200.900	74.098	0.101
201.000	55.838	0.101
201.100	63.845	0.101
201.200	75.982	0.101
201.300	69.293	0.101
201.400	65.503	0.101
201.500	74.939	0.101
201.600	52.616	0.101
201.700	67.674	0.101
201.800	53.131	0.101
201.900	72.295	0.101
202.000	69.628	0.101
202.100	69.059	0.101
202.200	67.397	0.101
202.300	63.643	0.101
202.400	71.726	0.101
202.500	67.374	0.101
202.600	58.693	0.101
202.700	66.644	0.101
202.800	70.494	0.101
202.900	62.057	0.101
203.000	70.109	0.101
203.100	64.911	0.101
203.200	57.834	0.101
203.300	62.015	0.101
203.400	69.504	0.101
203.500	72.680	0.101
203.600	56.289	0.101
203.700	55.261	0.101
203.800	71.518	0.101
203.900	72.365	0.101
204.000	63.638	0.101
204.100	61.759	0.101
204.200	65.951	0.101
204.300	63.089	0.101
204.400	61.793	0.101
204.500	66.817	0.101
204.600	61.352	0.101
204.700	69.837	0.101
204.800	69.526	0.101
204.900	69.906	0.101
205.000	63.963	0.101
205.100	68.451	0.101
205.200	61.297	0.101
205.300	66.996	0.101
205.400	72.679	0.101
205.500	66.244	0.101
205.600	71.644	0.101
205.700	51.891	0.101
205.800	54.892	0.101
205.900	67.828	0.101
206.000	60.063	0.101
206.100	68.324	0.101
206.200	58.927	0.101
206.300	69.951	0.101
206.400	77.950	0.101
206.500	65.145	0.101
206.600	58.046	0.101
206.700	69.152	0.101
206.800	69.115	0.101
206.900	52.530	0.101
207.000	62.144	0.101
207.100	66.965	0.101
207.200	67.576	0.101
207.300	72.566	0.101
207.400	56.302	0.101
207.500	66.398	0.101
207.600	57.128	0.101
207.700	62.698	0.101
207.800	74.457	0.101
207.900	60.351	0.101
208.000	58.900	0.101
208.100	65.748	0.101
208.200	52.932	0.101
208.300	79.446	0.101
208.400	65.841	0.101
208.500	53.897	0.101
208.600	67.497	0.101
208.700	64.430	0.101
208.800	67.203	0.101
208.900	65.888	0.101
209.000	80.871	0.101
209.100	57.288	0.101
209.200	69.819	0.101
209.300	64.397	0.101
209.400	53.013	0.101
209.500	67.899	0.101
209.600	66.567	0.101
209.700	62.884	0.101
209.800	70.698	0.101
209.900	66.616	0.101
210.000	57.259	0.101
210.100	60.181	0.101
210.200	60.126	0.101
210.300	63.630	0.101
210.400	71.149	0.101
210.500	68.526	0.101
210.600	53.866	0.101
210.700	64.461	0.101
210.800	70.117	0.101
210.900	68.693	0.101
211.000	61.316	0.101
211.100	70.430	0.101
211.200	61.763	0.101
211.300	66.216	0.101
211.400	78.518	0.101
211.500	64.514	0.101
211.600	63.177	0.101
211.700	74.495	0.101
211.800	73.088	0.101
211.900	60.426	0.101
212.000	61.774	0.101
212.100	58.712	0.101
212.200	73.481	0.101
212.300	65.662	0.101
212.400	64.319	0.101
212.500	53.503	0.101
212.600	64.594	0.101
212.700	59.414	0.101
212.800	56.212	0.101
212.900	63.046	0.101
213.000	76.019	0.101
213.100	66.345	0.101
213.200	57.798	0.101
213.300	71.450	0.101
213.400	76.021	0.101
213.500	81.287	0.101
213.600	70.713	0.101
213.700	54.054	0.101
213.800	64.255	0.101
213.900	69.571	0.101
214.000	48.465	0.101
214.100	60.442	0.101
214.200	63.926	0.101
214.300	67.528	0.101
214.400	67.913	0.101
214.500	69.261	0.101
214.600	63.686	0.101
214.700	50.910	0.101
214.800	66.231	0.101
214.900	70.450	0.101
215.000	69.452	0.101
215.100	57.387	0.101
215.200	74.065	0.101
215.300	59.147	0.101
215.400	64.850	0.101
215.500	60.470	0.101
215.600	68.377	0.101
215.700	70.972	0.101
215.800	54.609	0.101
215.900	63.915	0.101
216.000	55.438	0.101
216.100	63.173	0.101
216.200	53.282	0.101
216.300	53.320	0.101
216.400	62.639	0.101
216.500	66.400	0.101
216.600	63.267	0.101
216.700	62.810	0.101
216.800	61.545	0.101
216.900	71.561	0.101
217.000	61.779	0.101
217.100	67.119	0.101
217.200	59.170	0.101
217.300	56.808	0.101
217.400	63.001	0.101
217.500	63.891	0.101
217.600	63.832	0.101
217.700	68.087	0.101
217.800	51.664	0.101
217.900	70.031	0.101
218.000	68.182	0.101
218.100	70.209	0.101
218.200	62.160	0.101
218.300	57.138	0.101
218.400	58.337	0.101
218.500	70.359	0.101
218.600	64.555	0.101
218.700	70.093	0.101
218.800	67.491	0.101
218.900	68.262	0.101
219.000	64.882	0.101
219.100	66.095	0.101
219.200	70.216	0.101
219.300	70.052	0.101
219.400	68.321	0.101
219.500	67.379	0.101
219.600	55.679	0.101
219.700	65.395	0.101
219.800	53.992	0.101
219.900	52.228	0.101
220.000	63.002	0.101
220.100	60.249	0.101
220.200	67.236	0.101
220.300	61.389	0.101
220.400	64.253	0.101
220.500	67.135	0.101
220.600	58.101	0.101
220.700	68.144	0.101
220.800	67.493	0.101
220.900	59.117	0.101
221.000	77.473	0.101
221.100	62.619	0.101
221.200	58.330	0.101
221.300	59.753	0.101
221.400	46.535	0.101
221.500	57.962	0.101
221.600	56.386	0.101
221.700	59.420	0.101
221.800	66.388	0.101
221.900	68.155	0.101
222.000	55.999	0.101
222.100	52.405	0.101
222.200	54.681	0.101
222.300	64.937	0.101
222.400	61.155	0.101
222.500	60.822	0.101
222.600	67.511	0.101
222.700	62.605	0.101
222.800	53.944	0.101
222.900	62.178	0.101
223.000	61.171	0.101
223.100	55.531	0.101
223.200	71.200	0.101
223.300	52.656	0.101
223.400	66.476	0.101
223.500	75.176	0.101
223.600	71.522	0.101
223.700	52.895	0.101
223.800	68.808	0.101
223.900	59.590	0.101
224.000	64.524	0.101
224.100	55.734	0.101
224.200	60.673	0.101
224.300	63.705	0.101
224.400	66.518	0.101
224.500	65.740	0.101
224.600	58.422	0.101
224.700	48.714	0.101
224.800	63.600	0.101
224.900	65.680	0.101
225.000	70.779	0.101
225.100	65.591	0.101
225.200	59.505	0.101
225.300	51.735	0.101
225.400	69.785	0.101
225.500	72.212	0.101
225.600	67.403	0.101
225.700	61.196	0.101
225.800	59.056	0.101
225.900	60.278	0.101
226.000	60.406	0.101
226.100	75.496	0.101
226.200	53.154	0.101
226.300	55.326	0.101
226.400	64.910	0.101
226.500	69.852	0.101
226.600	65.521	0.101
226.700	71.501	0.101
226.800	65.440	0.101
226.900	70.934	0.101
227.000	63.106	0.101
227.100	63.832	0.101
227.200	62.825	0.101
227.300	64.436	0.101
227.400	70.594	0.101
227.500	75.301	0.101
227.600	61.755	0.101
227.700	72.763	0.101
227.800	61.112	0.101
227.900	69.341	0.101
228.000	54.549	0.101
228.100	65.799	0.101
228.200	64.171	0.101
228.300	68.579	0.101
228.400	55.756	0.101
228.500	68.237	0.101
228.600	81.390	0.101
228.700	57.262	0.101
228.800	58.081	0.101
228.900	67.166	0.101
229.000	61.273	0.101
229.100	58.753	0.101
229.200	67.839	0.101
229.300	56.164	0.101
229.400	64.460	0.101
229.500	65.865	0.101
229.600	61.181	0.101
229.700	61.544	0.101
229.800	62.468	0.101
229.900	72.860	0.101
230.000	58.843	0.101
230.100	68.970	0.101
230.200	61.476	0.101
230.300	49.507	0.101
230.400	67.384	0.101
230.500	65.536	0.101
230.600	64.149	0.101
230.700	65.355	0.101
230.800	65.739	0.101
230.900	66.442	0.101
231.000	68.177	0.101
231.100	64.426	0.101
231.200	52.781	0.101
231.300	65.600	0.100
231.400	65.662	0.100
231.500	71.032	0.100
231.600	59.741	0.100
231.700	67.320	0.100
231.800	69.217	0.100
231.900	65.121	0.100
232.000	52.815	0.100
232.100	64.509	0.100
232.200	67.513	0.100
232.300	50.337	0.100
232.400	54.422	0.100
232.500	67.066	0.100
232.600	66.367	0.100
232.700	53.921	0.100
232.800	56.099	0.100
232.900	62.366	0.100
233.000	57.624	0.100
233.100	74.099	0.100
233.200	68.168	0.100
233.300	54.689	0.100
233.400	58.670	0.100
233.500	61.494	0.100
233.600	59.342	0.100
233.700	61.322	0.100
233.800	62.745	0.100
233.900	62.232	0.100
234.000	61.562	0.100
234.100	59.863	0.100
234.200	65.594	0.100
234.300	58.606	0.100
234.400	62.314	0.100
234.500	58.924	0.100
234.600	57.456	0.100
234.700	44.746	0.100
234.800	60.285	0.100
234.900	58.041	0.100
235.000	71.013	0.100
235.100	68.017	0.100
235.200	49.424	0.100
235.300	67.268	0.100
235.400	46.949	0.100
235.500	60.908	0.100
235.600	64.711	0.100
235.700	72.005	0.100
235.800	55.519	0.100
235.900	62.417	0.100
236.000	58.894	0.100
236.100	65.986	0.100
236.200	64.519	0.100
236.300	71.810	0.100
236.400	61.323	0.100
236.500	63.627	0.100
236.600	57.728	0.100
236.700	56.179	0.100
236.800	64.118	0.100
236.900	64.829	0.100
237.000	57.943	0.100
237.100	63.811	0.100
237.200	68.945	0.100
237.300	51.423	0.100
237.400	59.408	0.100
237.500	67.281	0.100
237.600	68.736	0.100
237.700	67.870	0.100
237.800	60.439	0.100
237.900	62.753	0.100
238.000	75.778	0.100
238.100	72.089	0.100
238.200	51.857	0.100
238.300	64.520	0.100
238.400	64.490	0.100
238.500	62.990	0.100
238.600	55.255	0.100
238.700	77.950	0.100
238.800	56.997	0.100
238.900	54.205	0.100
239.000	61.718	0.100
239.100	57.662	0.100
239.200	63.645	0.100
239.300	54.204	0.100
239.400	58.947	0.100
239.500	59.193	0.100
239.600	59.351	0.100
239.700	47.996	0.100
239.800	64.348	0.100
239.900	64.474	0.100
240.000	72.343	0.100
240.100	64.745	0.100
240.200	57.127	0.100
240.300	42.545	0.100
240.400	48.892	0.100
240.500	43.241	0.100
240.600	52.144	0.100
240.700	31.184	0.100
240.800	42.516	0.100
240.900	37.770	0.100
241.000	20.955	0.100
241.100	18.608	0.100
241.200	10.863	0.100
241.300	26.445	0.100
241.400	23.884	0.100
241.500	10.071	0.100
241.600	4.030	0.100
241.700	3.457	0.100
241.800	10.328	0.100
241.900	13.791	0.100
242.000	3.931	0.100
242.100	0.015	0.100
242.200	-9.316	0.100
242.300	-6.036	0.100
242.400	-17.114	0.100
242.500	-11.487	0.100
242.600	-11.772	0.100
242.700	-16.093	0.100
242.800	-10.686	0.100
242.900	-19.485	0.100
243.000	-26.082	0.100
243.100	-17.475	0.100
243.200	-19.365	0.100
243.300	-11.367	0.100
243.400	-20.110	0.100
243.500	-18.072	0.100
243.600	-30.781	0.100
243.700	-43.015	0.100
243.800	-33.761	0.100
243.900	-35.970	0.100
244.000	-23.500	0.100
244.100	-46.826	0.100
244.200	-39.348	0.100
244.300	-40.633	0.100
244.400	-28.862	0.100
244.500	-32.082	0.100
244.600	-33.918	0.100
244.700	-30.305	0.100
244.800	-26.077	0.100
244.900	-38.198	0.100
245.000	-34.454	0.100
245.100	-33.288	0.100
245.200	-31.139	0.100
245.300	-32.770	0.100
245.400	-26.236	0.100
245.500	-43.152	0.100
245.600	-30.142	0.100
245.700	-29.065	0.100
245.800	-34.664	0.100
245.900	-25.046	0.100
246.000	-28.517	0.100
246.100	-31.901	0.100
246.200	-27.687	0.100
246.300	-37.352	0.100
246.400	-38.664	0.100
246.500	-24.829	0.100
246.600	-27.458	0.100
246.700	-39.314	0.100
246.800	-34.513	0.100
246.900	-23.469	0.100
247.000	-38.751	0.100
247.100	-42.467	0.100
247.200	-41.022	0.100
247.300	-39.896	0.100
247.400	-45.983	0.100
247.500	-26.520	0.100
247.600	-29.248	0.100
247.700	-38.620	0.100
247.800	-30.016	0.100
247.900	-27.757	0.100
248.000	-19.348	0.100
248.100	-28.432	0.100
248.200	-12.925	0.100
248.300	-25.210	0.100
248.400	-25.288	0.100
248.500	-29.513	0.100
248.600	-16.245	0.100
248.700	-18.181	0.100
248.800	-23.317	0.100
248.900	-30.789	0.100
249.000	-21.163	0.100
249.100	-24.068	0.100
249.200	-30.597	0.100
249.300	-31.236	0.100
249.400	-36.975	0.100
249.500	-21.471	0.100
249.600	-19.686	0.100
249.700	-30.237	0.100
249.800	-27.508	0.100
249.900	-22.577	0.100
250.000	-22.208	0.100
250.100	-25.313	0.100
250.200	-13.573	0.100
250.300	-21.442	0.100
250.400	-19.449	0.100
250.500	-33.425	0.100
250.600	-26.309	0.100
250.700	-22.783	0.100
250.800	-32.207	0.100
250.900	-23.775	0.100
251.000	-25.444	0.100
251.100	-8.275	0.100
251.200	-27.087	0.100
251.300	-22.077	0.100
251.400	-21.954	0.100
251.500	-28.189	0.100
251.600	-17.744	0.100
251.700	-12.261	0.100
251.800	-26.078	0.100
251.900	-25.439	0.100
252.000	-27.596	0.100
252.100	-21.522	0.100
252.200	-18.667	0.100
252.300	-26.858	0.100
252.400	-17.159	0.100
252.500	-26.560	0.100
252.600	-35.771	0.100
252.700	-28.981	0.100
252.800	-34.363	0.100
252.900	-19.934	0.100
253.000	-24.081	0.100
253.100	-19.316	0.100
253.200	-34.810	0.100
253.300	-20.720	0.100
253.400	-12.111	0.100
253.500	-13.313	0.100
253.600	-26.420	0.100
253.700	-37.265	0.100
253.800	-22.164	0.100
253.900	-18.362	0.100
254.000	-26.566	0.100
254.100	-22.777	0.100
254.200	-17.561	0.100
254.300	-30.564	0.100
254.400	-37.685	0.100
254.500	-13.034	0.100
254.600	-31.368	0.100
254.700	-19.009	0.100
254.800	-30.032	0.100
254.900	-26.341	0.100
255.000	-21.453	0.100
255.100	-31.602	0.100
255.200	-29.817	0.100
255.300	-29.173	0.100
255.400	-33.180	0.100
255.500	-18.499	0.100
255.600	-2.727	0.100
255.700	-35.868	0.100
255.800	-28.571	0.100
255.900	-29.814	0.100
256.000	-21.359	0.100
256.100	-22.139	0.100
256.200	-20.157	0.100
256.300	-41.402	0.100
256.400	-33.582	0.100
256.500	-23.922	0.100
256.600	-14.941	0.100
256.700	-33.372	0.100
256.800	-26.580	0.100
256.900	-27.327	0.100
257.000	-36.166	0.100
257.100	-25.402	0.100
257.200	-15.919	0.100
257.300	-27.019	0.100
257.400	-18.255	0.100
257.500	-39.457	0.100
257.600	-27.704	0.100
257.700	-35.001	0.100
257.800	-32.918	0.100
257.900	-20.506	0.100
258.000	-23.115	0.100
258.100	-25.477	0.100
258.200	-25.013	0.100
258.300	-21.732	0.100
258.400	-37.962	0.100
258.500	-28.543	0.100
258.600	-22.702	0.100
258.700	-25.694	0.100
258.800	-35.207	0.100
258.900	-18.202	0.100
259.000	-42.692	0.100
259.100	-35.821	0.100
259.200	-33.321	0.100
259.300	-19.317	0.100
259.400	-35.352	0.100
259.500	-28.532	0.100
259.600	-35.973	0.100
259.700	-22.882	0.100
259.800	-24.488	0.100
259.900	-32.064	0.100
260.000	-20.603	0.100
260.100	-26.085	0.100
260.200	-22.232	0.100
260.300	-32.791	0.100
260.400	-27.971	0.100
260.500	-43.779	0.100
260.600	-26.287	0.100
260.700	-32.064	0.100
260.800	-32.086	0.100
260.900	-24.090	0.100
261.000	-30.260	0.100
261.100	-39.635	0.100
261.200	-29.030	0.100
261.300	-27.836	0.100
261.400	-24.561	0.100
261.500	-27.172	0.100
261.600	-26.328	0.100
261.700	-25.878	0.100
261.800	-30.289	0.100
261.900	-25.084	0.100
262.000	-30.086	0.100
262.100	-30.833	0.100
262.200	-38.374	0.100
262.300	-25.315	0.100
262.400	-30.048	0.100
262.500	-33.396	0.100
262.600	-51.846	0.100
262.700	-32.738	0.100
262.800	-17.831	0.100
262.900	-32.123	0.100
263.000	-19.408	0.100
263.100	-18.971	0.100
263.200	-35.352	0.100
263.300	-30.062	0.100
263.400	-41.234	0.100
263.500	-33.611	0.100
263.600	-25.461	0.100
263.700	-23.873	0.100
263.800	-31.277	0.100
263.900	-33.440	0.100
264.000	-36.119	0.100
264.100	-29.062	0.100
264.200	-30.909	0.100
264.300	-32.125	0.100
264.400	-32.167	0.100
264.500	-32.462	0.100
264.600	-29.316	0.100
264.700	-39.040	0.100
264.800	-34.170	0.100
264.900	-32.454	0.100
265.000	-30.470	0.100
265.100	-32.061	0.100
265.200	-41.284	0.100
265.300	-34.024	0.100
265.400	-30.521	0.100
265.500	-37.949	0.100
265.600	-27.294	0.100
265.700	-27.320	0.100
265.800	-33.981	0.100
265.900	-30.681	0.100
266.000	-31.610	0.100
266.100	-34.879	0.100
266.200	-47.306	0.100
266.300	-34.561	0.100
266.400	-30.992	0.100
266.500	-28.616	0.100
266.600	-38.668	0.100
266.700	-32.814	0.100
266.800	-30.780	0.100
266.900	-41.258	0.100
267.000	-26.298	0.100
267.100	-39.530	0.100
267.200	-42.396	0.100
267.300	-41.002	0.100
267.400	-19.511	0.100
267.500	-33.075	0.100
267.600	-35.083	0.100
267.700	-43.515	0.100
267.800	-30.799	0.100
267.900	-37.347	0.100
268.000	-47.580	0.100
268.100	-36.331	0.100
268.200	-37.520	0.100
268.300	-25.350	0.100
268.400	-27.787	0.100
268.500	-28.877	0.100
268.600	-32.024	0.100
268.700	-33.707	0.100
268.800	-31.718	0.100
268.900	-29.282	0.100
269.000	-31.690	0.100
269.100	-33.744	0.100
269.200	-28.675	0.100
269.300	-27.285	0.100
269.400	-36.569	0.100
269.500	-41.086	0.100
269.600	-41.407	0.100
269.700	-40.299	0.100
269.800	-35.076	0.100
269.900	-40.112	0.100
270.000	-38.425	0.100
270.100	-29.003	0.100
270.200	-36.966	0.100
270.300	-44.335	0.100
270.400	-35.901	0.100
270.500	-44.236	0.100
270.600	-34.834	0.100
270.700	-33.810	0.100
270.800	-31.457	0.100
270.900	-26.557	0.100
271.000	-41.008	0.100
271.100	-43.797	0.100
271.200	-31.516	0.100
271.300	-32.665	0.100
271.400	-37.204	0.100
271.500	-38.439	0.100
271.600	-25.265	0.100
271.700	-44.692	0.100
271.800	-46.847	0.100
271.900	-37.480	0.100
272.000	-32.681	0.100
272.100	-37.070	0.100
272.200	-35.747	0.100
272.300	-35.616	0.100
272.400	-30.709	0.100
272.500	-41.301	0.100
272.600	-36.730	0.100
272.700	-31.177	0.100
272.800	-33.003	0.100
272.900	-30.525	0.100
273.000	-48.824	0.100
273.100	-29.585	0.100
273.200	-36.509	0.100
273.300	-31.567	0.100
273.400	-35.044	0.100
273.500	-45.343	0.100
273.600	-33.708	0.100
273.700	-42.781	0.100
273.800	-31.520	0.100
273.900	-30.594	0.100
274.000	-35.163	0.100
274.100	-38.301	0.100
274.200	-29.107	0.100
274.300	-30.299	0.100
274.400	-31.196	0.100
274.500	-44.255	0.100
274.600	-30.905	0.100
274.700	-30.471	0.100
274.800	-32.043	0.100
274.900	-42.817	0.100
275.000	-32.674	0.100
275.100	-33.124	0.100
275.200	-45.237	0.100
275.300	-39.009	0.100
275.400	-38.040	0.100
275.500	-36.577	0.100
275.600	-41.274	0.100
275.700	-24.897	0.100
275.800	-27.321	0.100
275.900	-49.766	0.100
276.000	-44.735	0.100
276.100	-38.070	0.100
276.200	-28.166	0.100
276.300	-47.559	0.100
276.400	-33.600	0.100
276.500	-43.745	0.100
276.600	-28.402	0.100
276.700	-34.581	0.100
276.800	-29.589	0.100
276.900	-33.016	0.100
277.000	-45.784	0.100
277.100	-37.657	0.100
277.200	-41.898	0.100
277.300	-32.155	0.100
277.400	-36.283	0.100
277.500	-31.996	0.100
277.600	-29.477	0.100
277.700	-34.525	0.100
277.800	-41.497	0.100
277.900	-23.999	0.100
278.000	-43.452	0.100
278.100	-35.480	0.100
278.200	-32.513	0.100
278.300	-41.004	0.100
278.400	-42.325	0.100
278.500	-30.648	0.100
278.600	-38.369	0.100
278.700	-36.261	0.100
278.800	-27.595	0.100
278.900	-32.573	0.100
279.000	-38.897	0.100
279.100	-34.938	0.100
279.200	-33.901	0.100
279.300	-37.181	0.100
279.400	-39.923	0.100
279.500	-33.858	0.100
279.600	-32.271	0.100
279.700	-40.505	0.100
279.800	-44.156	0.100
279.900	-40.491	0.100
280.000	-29.387	0.100
280.100	-38.318	0.100
280.200	-38.639	0.100
280.300	-31.216	0.100
280.400	-31.527	0.100
280.500	-23.985	0.100
280.600	-34.134	0.100
280.700	-47.391	0.100
280.800	-43.776	0.100
280.900	-40.171	0.100
281.000	-28.672	0.100
281.100	-49.065	0.100
281.200	-42.927	0.100
281.300	-36.171	0.100
281.400	-39.137	0.100
281.500	-43.324	0.100
281.600	-32.266	0.100
281.700	-24.018	0.100
281.800	-30.061	0.100
281.900	-38.516	0.100
282.000	-37.896	0.100
282.100	-46.162	0.100
282.200	-41.566	0.100
282.300	-32.125	0.100
282.400	-26.598	0.100
282.500	-25.060	0.100
282.600	-38.629	0.100
282.700	-32.337	0.100
282.800	-36.618	0.100
282.900	-38.818	0.100
283.000	-24.566	0.100
283.100	-40.451	0.100
283.200	-36.061	0.100
283.300	-32.575	0.100
283.400	-45.690	0.100
283.500	-41.940	0.100
283.600	-34.922	0.100
283.700	-25.643	0.100
283.800	-29.341	0.100
283.900	-39.083	0.100
284.000	-38.643	0.100
284.100	-27.601	0.100
284.200	-38.185	0.100
284.300	-48.725	0.100
284.400	-38.819	0.100
284.500	-45.357	0.100
284.600	-32.432	0.100
284.700	-40.479	0.100
284.800	-39.252	0.100
284.900	-24.030	0.100
285.000	-32.007	0.100
285.100	-31.716	0.100
285.200	-30.939	0.100
285.300	-35.596	0.100
285.400	-34.629	0.100
285.500	-29.124	0.100
285.600	-29.517	0.100
285.700	-38.319	0.100
285.800	-37.087	0.100
285.900	-28.701	0.100
286.000	-31.028	0.100
286.100	-36.072	0.100
286.200	-35.717	0.100
286.300	-30.761	0.100
286.400	-40.674	0.100
286.500	-33.040	0.100
286.600	-37.571	0.100
286.700	-32.286	0.100
286.800	-33.997	0.100
286.900	-43.743	0.100
287.000	-28.547	0.100
287.100	-28.695	0.100
287.200	-33.119	0.100
287.300	-34.613	0.100
287.400	-33.127	0.100
287.500	-44.554	0.100
287.600	-40.407	0.100
287.700	-12.420	0.100
287.800	-32.821	0.100
287.900	-39.848	0.100
288.000	-44.441	0.100
288.100	-35.435	0.100
288.200	-25.343	0.100
288.300	-24.370	0.100
288.400	-29.613	0.100
288.500	-25.879	0.100
288.600	-28.548	0.100
288.700	-49.433	0.100
288.800	-42.677	0.100
288.900	-42.366	0.100
289.000	-35.590	0.100
289.100	-29.577	0.100
289.200	-35.499	0.100
289.300	-31.736	0.100
289.400	-44.278	0.100
289.500	-36.160	0.100
289.600	-42.075	0.100
289.700	-24.540	0.100
289.800	-36.269	0.100
289.900	-27.388	0.100
290.000	-21.123	0.100
290.100	-31.979	0.100
290.200	-36.077	0.100
290.300	-27.887	0.100
290.400	-23.664	0.100
290.500	-41.130	0.100
290.600	-29.111	0.100
290.700	-32.517	0.100
290.800	-38.350	0.100
290.900	-29.616	0.100
291.000	-23.954	0.100
291.100	-24.217	0.100
291.200	-30.871	0.100
291.300	-35.724	0.100
291.400	-20.472	0.100
291.500	-36.648	0.100
291.600	-38.624	0.100
291.700	-34.864	0.100
291.800	-33.230	0.100
291.900	-20.927	0.100
292.000	-36.510	0.100
292.100	-35.327	0.100
292.200	-46.464	0.100
292.300	-28.823	0.100
292.400	-28.476	0.100
292.500	-43.917	0.100
292.600	-32.008	0.100
292.700	-35.152	0.100
292.800	-31.689	0.100
292.900	-23.586	0.100
293.000	-49.462	0.100
293.100	-32.616	0.100
293.200	-23.034	0.100
293.300	-21.072	0.100
293.400	-38.700	0.100
293.500	-33.536	0.100
293.600	-22.067	0.100
293.700	-26.684	0.100
293.800	-37.147	0.100
293.900	-35.719	0.100
294.000	-41.358	0.100
294.100	-23.986	0.100
294.200	-44.195	0.100
294.300	-25.716	0.100
294.400	-40.519	0.100
294.500	-31.034	0.100
294.600	-35.548	0.100
294.700	-28.038	0.100
294.800	-37.516	0.100
294.900	-25.143	0.100
295.000	-40.723	0.100
295.100	-22.615	0.100
295.200	-27.878	0.100
295.300	-33.658	0.100
295.400	-51.541	0.100
295.500	-26.237	0.100
295.600	-25.180	0.100
295.700	-24.611	0.100
295.800	-26.555	0.100
295.900	-29.584	0.100
296.000	-26.549	0.100
296.100	-40.609	0.100
296.200	-39.465	0.100
296.300	-22.366	0.100
296.400	-30.245	0.100
296.500	-35.667	0.100
296.600	-32.801	0.100
296.700	-40.293	0.100
296.800	-29.670	0.100
296.900	-43.960	0.100
297.000	-41.547	0.100
297.100	-22.937	0.100
297.200	-25.572	0.100
297.300	-26.724	0.100
297.400	-26.557	0.100
297.500	-37.793	0.100
297.600	-25.369	0.100
297.700	-41.801	0.100
297.800	-27.919	0.100
297.900	-40.420	0.100
298.000	-33.392	0.100
298.100	-34.585	0.100
298.200	-18.475	0.100
298.300	-20.096	0.100
298.400	-31.552	0.100
298.500	-22.671	0.100
298.600	-31.072	0.100
298.700	-19.220	0.100
298.800	-20.572	0.100
298.900	-29.674	0.100
299.000	-41.971	0.100
299.100	-25.371	0.100
299.200	-37.780	0.100
299.300	-26.923	0.100
299.400	-19.484	0.100
299.500	-35.661	0.100
299.600	-36.301	0.100
299.700	-32.875	0.100
299.800	-29.922	0.100
299.900	-29.464	0.100
300.000	-27.695	0.100
300.100	-22.223	0.100
300.200	-33.434	0.100
300.300	-24.645	0.100
300.400	-44.599	0.100
300.500	-24.118	0.100
300.600	-34.505	0.100
300.700	-31.920	0.100
300.800	-27.965	0.100
300.900	-22.053	0.100
301.000	-26.839	0.100
301.100	-26.236	0.100
301.200	-22.128	0.100
301.300	-37.061	0.100
301.400	-25.751	0.100
301.500	-21.377	0.100
301.600	-30.503	0.100
301.700	-16.250	0.100
301.800	-19.105	0.100
301.900	-24.592	0.100
302.000	-28.215	0.100
302.100	-25.681	0.100
302.200	-14.425	0.100
302.300	-36.708	0.100
302.400	-25.981	0.100
302.500	-27.376	0.100
302.600	-30.070	0.100
302.700	-19.858	0.100
302.800	-22.757	0.100
302.900	-23.773	0.100
303.000	-47.172	0.100
303.100	-31.667	0.100
303.200	-28.128	0.100
303.300	-23.712	0.100
303.400	-19.943	0.100
303.500	-22.612	0.100
303.600	-31.846	0.100
303.700	-36.668	0.100
303.800	-20.881	0.100
303.900	-34.574	0.100
304.000	-22.841	0.100
304.100	-23.187	0.100
304.200	-28.977	0.100
304.300	-27.336	0.100
304.400	-31.319	0.100
304.500	-34.011	0.100
304.600	-18.069	0.100
304.700	-41.829	0.100
304.800	-21.269	0.100
304.900	-27.981	0.100
305.000	-37.284	0.100
305.100	-35.689	0.100
305.200	-28.489	0.100
305.300	-22.749	0.100
305.400	-22.055	0.100
305.500	-27.884	0.100
305.600	-35.583	0.100
305.700	-38.683	0.100
305.800	-28.365	0.100
305.900	-11.658	0.100
306.000	-19.395	0.100
306.100	-20.869	0.100
306.200	-31.338	0.100
306.300	-20.706	0.100
306.400	-19.849	0.100
306.500	-28.615	0.100
306.600	-34.922	0.100
306.700	-35.359	0.100
306.800	-29.770	0.100
306.900	-30.051	0.100
307.000	-29.078	0.100
307.100	-23.406	0.100
307.200	-16.864	0.100
307.300	-17.559	0.100
307.400	-36.544	0.100
307.500	-25.454	0.100
307.600	-16.438	0.100
307.700	-22.988	0.100
307.800	-23.814	0.100
307.900	-24.645	0.100
308.000	-36.336	0.100
308.100	-37.334	0.100
308.200	-27.711	0.100
308.300	-21.319	0.100
308.400	-7.524	0.100
308.500	-18.909	0.100
308.600	-27.660	0.100
308.700	-22.369	0.100
308.800	-36.756	0.100
308.900	-31.466	0.100
309.000	-23.443	0.100
309.100	-20.386	0.100
309.200	-29.228	0.100
309.300	-34.241	0.100
309.400	-18.034	0.100
309.500	-27.026	0.100
309.600	-21.818	0.100
309.700	-18.936	0.100
309.800	-33.233	0.100
309.900	-30.233	0.100
310.000	-22.761	0.100
310.100	-28.630	0.100
310.200	-21.731	0.100
310.300	-34.905	0.100
310.400	-16.660	0.100
310.500	-32.691	0.100
310.600	-27.406	0.100
310.700	-13.288	0.100
310.800	-33.930	0.100
310.900	-27.408	0.100
311.000	-31.050	0.100
311.100	-19.669	0.100
311.200	-19.151	0.100
311.300	-16.631	0.100
311.400	-25.326	0.100
311.500	-28.985	0.100
311.600	-32.476	0.100
311.700	-28.936	0.100
311.800	-20.732	0.100
311.900	-25.213	0.100
312.000	-22.669	0.100
312.100	-17.443	0.100
312.200	-23.096	0.100
312.300	-24.314	0.100
312.400	-22.254	0.100
312.500	-26.924	0.100
312.600	-31.821	0.100
312.700	-32.893	0.100
312.800	-18.217	0.100
312.900	-23.831	0.100
313.000	-20.923	0.100
313.100	-18.432	0.100
313.200	-18.055	0.100
313.300	-16.044	0.100
313.400	-28.908	0.100
313.500	-31.806	0.100
313.600	-18.326	0.100
313.700	-32.200	0.100
313.800	-20.972	0.100
313.900	-19.631	0.100
314.000	-16.636	0.100
314.100	-17.782	0.100
314.200	-23.155	0.100
314.300	-26.328	0.100
314.400	-19.049	0.100
314.500	-20.864	0.100
314.600	-28.258	0.100
314.700	-15.032	0.100
314.800	-25.777	0.100
314.900	-27.364	0.100
315.000	-6.927	0.100
315.100	-18.227	0.100
315.200	-16.407	0.100
315.300	-36.609	0.100
315.400	-32.056	0.100
315.500	-15.830	0.100
315.600	-20.359	0.100
315.700	-28.143	0.100
315.800	-20.786	0.100
315.900	-26.491	0.100
316.000	-12.487	0.100
316.100	-21.349	0.100
316.200	-17.076	0.100
316.300	-27.802	0.100
316.400	-35.149	0.100
316.500	-38.834	0.100
316.600	-25.191	0.100
316.700	-28.426	0.100
316.800	-23.947	0.100
316.900	-17.493	0.100
317.000	-19.398	0.100
317.100	-32.677	0.100
317.200	-30.312	0.100
317.300	-25.078	0.100
317.400	-24.862	0.100
317.500	-21.067	0.100
317.600	-12.923	0.100
317.700	-29.322	0.100
317.800	-27.005	0.100
317.900	-28.872	0.100
318.000	-15.848	0.100
318.100	-26.131	0.100
318.200	-22.157	0.100
318.300	-17.213	0.100
318.400	-19.268	0.100
318.500	-24.791	0.100
318.600	-22.759	0.100
318.700	-25.339	0.100
318.800	-21.321	0.100
318.900	-27.897	0.100
319.000	-23.227	0.100
319.100	-23.198	0.100
319.200	-23.015	0.100
319.300	-27.408	0.100
319.400	-28.574	0.100
319.500	-24.382	0.100
319.600	-19.445	0.100
319.700	-27.906	0.100
319.800	-25.379	0.100
319.900	-19.572	0.100
320.000	-12.152	0.100
320.100	-23.378	0.100
320.200	-16.470	0.100
320.300	-28.575	0.100
320.400	-12.420	0.100
320.500	-24.259	0.100
320.600	-24.718	0.100
320.700	-17.044	0.100
320.800	-19.157	0.100
320.900	-18.755	0.100
321.000	-18.805	0.100
321.100	-14.535	0.100
321.200	-28.008	0.100
321.300	-28.679	0.100
321.400	-19.048	0.100
321.500	-29.801	0.100
321.600	-16.209	0.100
321.700	-28.925	0.100
321.800	-17.920	0.100
321.900	-20.140	0.100
322.000	-20.682	0.100
322.100	-22.239	0.100
322.200	-20.125	0.100
322.300	-19.235	0.100
322.400	-26.856	0.100
322.500	-26.407	0.100
322.600	-29.040	0.100
322.700	-19.731	0.100
322.800	-13.775	0.100
322.900	-31.257	0.100
323.000	-15.097	0.100
323.100	-23.911	0.100
323.200	-23.576	0.100
323.300	-23.026	0.100
323.400	-19.676	0.100
323.500	-23.468	0.100
323.600	-19.281	0.100
323.700	-9.088	0.100
323.800	-13.800	0.100
323.900	-26.289	0.100
324.000	-25.098	0.100
324.100	-29.508	0.100
324.200	-26.214	0.100
324.300	-23.137	0.100
324.400	-26.357	0.100
324.500	-13.099	0.100
324.600	-25.990	0.100
324.700	-22.599	0.100
324.800	-22.514	0.100
324.900	-20.361	0.100
325.000	-17.179	0.100
325.100	-21.911	0.100
325.200	-17.135	0.100
325.300	-15.485	0.100
325.400	-12.361	0.100
325.500	-9.996	0.100
325.600	-29.623	0.100
325.700	-23.777	0.100
325.800	-16.000	0.100
325.900	-22.113	0.100
326.000	-22.760	0.100
326.100	-20.238	0.100
326.200	-15.286	0.100
326.300	-12.281	0.100
326.400	-19.821	0.100
326.500	-15.243	0.100
326.600	-14.738	0.100
326.700	-16.891	0.100
326.800	-18.705	0.100
326.900	-19.603	0.100
327.000	-14.564	0.100
327.100	-23.908	0.100
327.200	-22.318	0.100
327.300	-19.948	0.100
327.400	-19.574	0.100
327.500	-30.453	0.100
327.600	-28.589	0.100
327.700	-14.648	0.100
327.800	-20.189	0.100
327.900	-15.070	0.100
328.000	-31.940	0.100
328.100	-24.833	0.100
328.200	-19.446	0.100
328.300	-28.512	0.100
328.400	-14.390	0.100
328.500	-27.232	0.100
328.600	-22.063	0.100
328.700	-16.448	0.100
328.800	-19.971	0.100
328.900	-23.405	0.100
329.000	-17.247	0.100
329.100	-28.223	0.100
329.200	-23.380	0.100
329.300	-22.276	0.100
329.400	-29.915	0.100
329.500	-17.646	0.100
329.600	-21.465	0.100
329.700	-16.144	0.100
329.800	-20.492	0.100
329.900	-17.369	0.100
330.000	-22.639	0.100
330.100	-21.568	0.100
330.200	-21.834	0.100
330.300	-16.566	0.100
330.400	-18.992	0.100
330.500	-14.247	0.100
330.600	8.570	0.100
330.700	-3.390	0.100
330.800	0.941	0.100
330.900	9.323	0.100
331.000	8.020	0.100
331.100	28.332	0.100
331.200	26.610	0.100
331.300	22.374	0.100
331.400	17.276	0.100
331.500	27.448	0.100
331.600	26.968	0.100
331.700	23.181	0.100
331.800	21.792	0.100
331.900	41.876	0.100
332.000	35.047	0.100
332.100	30.802	0.100
332.200	41.236	0.100
332.300	39.952	0.100
332.400	32.741	0.100
332.500	46.777	0.100
332.600	46.413	0.100
332.700	43.953	0.100
332.800	32.026	0.100
332.900	44.397	0.100
333.000	38.438	0.100
333.100	21.116	0.100
333.200	40.158	0.100
333.300	39.782	0.100
333.400	34.007	0.100
333.500	22.442	0.100
333.600	44.578	0.100
333.700	42.809	0.100
333.800	31.452	0.100
333.900	30.033	0.100
334.000	44.510	0.100
334.100	37.928	0.100
334.200	32.226	0.100
334.300	30.933	0.100
334.400	36.451	0.100
334.500	48.796	0.100
334.600	35.398	0.100
334.700	31.295	0.100
334.800	25.348	0.100
334.900	40.830	0.100
335.000	43.593	0.100
335.100	24.767	0.100
335.200	29.224	0.100
335.300	33.522	0.100
335.400	33.262	0.100
335.500	47.130	0.100
335.600	42.166	0.100
335.700	27.279	0.100
335.800	29.868	0.100
335.900	35.484	0.100
336.000	39.345	0.100
336.100	46.842	0.100
336.200	45.219	0.100
336.300	35.954	0.100
336.400	41.882	0.100
336.500	35.562	0.100
336.600	40.222	0.100
336.700	36.258	0.100
336.800	48.662	0.100
336.900	41.163	0.100
337.000	52.464	0.100
337.100	47.861	0.100
337.200	40.487	0.100
337.300	45.742	0.100
337.400	47.927	0.100
337.500	59.377	0.100
337.600	61.482	0.100
337.700	53.859	0.100
337.800	44.031	0.100
337.900	54.960	0.100
338.000	51.109	0.100
338.100	63.493	0.100
338.200	51.622	0.100
338.300	52.859	0.100
338.400	54.829	0.100
338.500	54.402	0.100
338.600	62.236	0.100
338.700	57.296	0.100
338.800	62.792	0.100
338.900	62.239	0.100
339.000	56.532	0.100
339.100	60.454	0.100
339.200	60.949	0.100
339.300	62.372	0.100
339.400	69.385	0.100
339.500	73.091	0.100
339.600	70.637	0.100
339.700	62.609	0.100
339.800	59.712	0.100
339.900	64.739	0.100
340.000	72.816	0.100
340.100	64.410	0.100
340.200	69.368	0.100
340.300	76.636	0.100
340.400	80.797	0.100
340.500	80.193	0.100
340.600	75.435	0.100
340.700	71.078	0.100
340.800	76.591	0.100
340.900	70.684	0.100
341.000	92.322	0.100
341.100	86.146	0.100
341.200	87.009	0.100
341.300	91.529	0.100
341.400	85.948	0.100
341.500	74.451	0.100
341.600	74.952	0.100
341.700	79.214	0.100
341.800	90.906	0.100
341.900	91.086	0.100
342.000	83.929	0.100
342.100	83.709	0.100
342.200	90.349	0.100
342.300	90.803	0.100
342.400	95.170	0.100
342.500	86.171	0.100
342.600	83.222	0.100
342.700	77.674	0.100
342.800	98.380	0.100
342.900	82.036	0.100
343.000	93.329	0.100
343.100	95.809	0.100
343.200	92.659	0.100
343.300	103.714	0.100
343.400	94.415	0.100
343.500	90.304	0.100
343.600	91.597	0.100
343.700	96.522	0.100
343.800	103.885	0.100
343.900	99.016	0.100
344.000	96.219	0.100
344.100	86.556	0.100
344.200	83.788	0.100
344.300	103.140	0.100
344.400	102.388	0.100
344.500	106.920	0.100
344.600	93.327	0.100
344.700	94.090	0.100
344.800	83.467	0.100
344.900	90.613	0.100
345.000	103.471	0.100
345.100	97.494	0.100
345.200	98.209	0.100
345.300	91.173	0.100
345.400	98.613	0.100
345.500	96.721	0.100
345.600	89.765	0.100
345.700	91.677	0.100
345.800	92.480	0.100
345.900	97.716	0.100
346.000	94.799	0.100
346.100	82.536	0.100
346.200	96.501	0.100
346.300	93.208	0.100
346.400	90.940	0.100
346.500	103.472	0.100
346.600	76.777	0.100
346.700	95.026	0.100
346.800	93.299	0.100
346.900	98.024	0.100
347.000	100.419	0.100
347.100	86.877	0.100
347.200	96.075	0.100
347.300	84.145	0.100
347.400	91.193	0.100
347.500	87.464	0.100
347.600	89.168	0.100
347.700	90.978	0.100
347.800	88.697	0.100
347.900	86.147	0.100
348.000	90.028	0.100
348.100	84.681	0.100
348.200	87.996	0.100
348.300	89.304	0.100
348.400	82.612	0.100
348.500	91.551	0.100
348.600	74.938	0.100
348.700	95.387	0.100
348.800	86.470	0.100
348.900	92.383	0.100
349.000	75.285	0.100
349.100	79.705	0.100
349.200	85.768	0.100
349.300	80.950	0.100
349.400	75.241	0.100
349.500	89.937	0.100
349.600	82.681	0.100
349.700	68.454	0.100
349.800	80.482	0.100
349.900	76.293	0.100
350.000	88.752	0.100
350.100	87.962	0.100
350.200	85.257	0.100
350.300	82.996	0.100
350.400	80.944	0.100
350.500	69.403	0.100
350.600	78.070	0.100
350.700	75.892	0.100
350.800	81.158	0.100
350.900	82.232	0.100
351.000	83.730	0.100
351.100	71.327	0.100
351.200	72.143	0.100
351.300	85.022	0.100
351.400	81.888	0.100
351.500	81.685	0.100
351.600	94.046	0.100
351.700	74.541	0.100
351.800	88.964	0.100
351.900	89.843	0.100
352.000	82.079	0.100
352.100	72.411	0.100
352.200	73.079	0.100
352.300	70.770	0.100
352.400	85.198	0.100
352.500	81.122	0.100
352.600	84.044	0.100
352.700	85.287	0.100
352.800	70.677	0.100
352.900	66.494	0.100
353.000	68.937	0.100
353.100	72.404	0.100
353.200	83.631	0.100
353.300	86.623	0.100
353.400	73.351	0.100
353.500	70.109	0.100
353.600	81.941	0.100
353.700	78.681	0.100
353.800	82.163	0.100
353.900	80.520	0.100
354.000	77.550	0.100
354.100	77.980	0.100
354.200	62.522	0.100
354.300	58.940	0.100
354.400	82.866	0.100
354.500	86.621	0.100
354.600	68.070	0.100
354.700	71.908	0.100
354.800	69.898	0.100
354.900	68.056	0.100
355.000	95.401	0.100
355.100	80.578	0.100
355.200	70.823	0.100
355.300	74.941	0.100
355.400	72.815	0.100
355.500	64.572	0.100
355.600	68.102	0.100
355.700	77.035	0.100
355.800	80.019	0.100
355.900	76.035	0.100
356.000	69.747	0.100
356.100	83.968	0.100
356.200	71.346	0.100
356.300	78.526	0.100
356.400	81.136	0.100
356.500	66.525	0.100
356.600	63.206	0.100
356.700	53.392	0.100
356.800	74.375	0.100
356.900	77.821	0.100
357.000	69.994	0.100
357.100	66.516	0.100
357.200	76.535	0.100
357.300	74.592	0.100
357.400	79.759	0.100
357.500	56.095	0.100
357.600	80.805	0.100
357.700	71.466	0.100
357.800	78.629	0.100
357.900	74.950	0.100
358.000	60.416	0.100
358.100	79.251	0.100
358.200	67.297	0.100
358.300	69.035	0.100
358.400	65.555	0.100
358.500	63.871	0.100
358.600	71.492	0.100
358.700	61.770	0.100
358.800	74.237	0.100
358.900	70.983	0.100
359.000	80.154	0.100
359.100	63.368	0.100
359.200	63.168	0.100
359.300	66.926	0.100
359.400	67.581	0.100
359.500	72.637	0.100
359.600	68.515	0.100
359.700	63.515	0.100
359.800	73.598	0.100
359.900	64.736	0.100
360.000	69.434	0.100
360.100	78.774	0.100
360.200	69.100	0.100
360.300	69.021	0.100
360.400	78.121	0.100
360.500	67.659	0.100
360.600	70.210	0.100
360.700	71.997	0.100
360.800	78.523	0.100
360.900	64.274	0.100
361.000	69.923	0.100
361.100	77.513	0.100
361.200	76.720	0.100
361.300	84.602	0.100
361.400	62.710	0.100
361.500	61.376	0.100
361.600	70.781	0.100
361.700	70.964	0.100
361.800	81.348	0.100
361.900	75.592	0.100
362.000	75.173	0.100
362.100	65.958	0.100
362.200	66.937	0.100
362.300	60.748	0.100
362.400	75.527	0.100
362.500	73.995	0.100
362.600	62.206	0.100
362.700	64.504	0.100
362.800	75.628	0.100
362.900	82.861	0.100
363.000	74.072	0.100
363.100	77.061	0.100
363.200	78.405	0.100
363.300	74.757	0.100
363.400	63.946	0.100
363.500	70.809	0.100
363.600	68.783	0.100
363.700	74.410	0.100
363.800	73.380	0.100
363.900	63.398	0.100
364.000	72.715	0.100
364.100	69.298	0.100
364.200	77.055	0.100
364.300	59.965	0.100
364.400	64.425	0.100
364.500	69.778	0.100
364.600	73.016	0.100
364.700	70.581	0.100
364.800	72.706	0.100
364.900	69.623	0.100
365.000	57.188	0.100
365.100	67.830	0.100
365.200	65.049	0.100
365.300	68.775	0.100
365.400	66.794	0.100
365.500	65.219	0.100
365.600	73.924	0.100
365.700	75.861	0.100
365.800	69.809	0.100
365.900	65.791	0.100
366.000	57.306	0.100
366.100	60.541	0.100
366.200	72.916	0.100
366.300	73.301	0.100
366.400	67.779	0.100
366.500	61.537	0.100
366.600	65.212	0.100
366.700	62.081	0.100
366.800	64.908	0.100
366.900	52.877	0.100
367.000	59.971	0.100
367.100	63.814	0.100
367.200	59.537	0.100
367.300	80.900	0.100
367.400	67.111	0.100
367.500	66.690	0.100
367.600	71.253	0.100
367.700	78.949	0.100
367.800	73.849	0.100
367.900	73.181	0.100
368.000	66.443	0.100
368.100	74.137	0.100
368.200	63.717	0.100
368.300	64.003	0.100
368.400	56.131	0.100
368.500	74.171	0.100
368.600	63.321	0.100
368.700	71.805	0.100
368.800	76.892	0.100
368.900	67.444	0.100
369.000	74.132	0.100
369.100	69.523	0.100
369.200	73.918	0.100
369.300	57.005	0.100
369.400	58.705	0.100
369.500	61.717	0.100
369.600	65.306	0.100
369.700	73.182	0.100
369.800	68.900	0.100
369.900	67.734	0.100
370.000	61.588	0.100
370.100	76.038	0.100
370.200	64.238	0.100
370.300	67.685	0.100
370.400	71.093	0.100
370.500	62.755	0.100
370.600	58.088	0.100
370.700	62.184	0.100
370.800	65.586	0.100
370.900	58.655	0.100
371.000	81.194	0.100
371.100	72.356	0.100
371.200	61.370	0.100
371.300	78.225	0.100
371.400	63.548	0.100
371.500	56.816	0.100
371.600	59.170	0.100
371.700	74.933	0.100
371.800	75.827	0.100
371.900	67.061	0.100
372.000	69.860	0.100
372.100	67.757	0.100
372.200	64.301	0.100
372.300	73.792	0.100
372.400	68.554	0.100
372.500	64.743	0.100
372.600	66.922	0.100
372.700	78.321	0.100
372.800	58.802	0.100
372.900	75.009	0.100
373.000	57.386	0.100
373.100	70.675	0.100
373.200	70.603	0.100
373.300	70.409	0.100
373.400	68.465	0.100
373.500	73.360	0.100
373.600	57.541	0.100
373.700	60.791	0.100
373.800	60.520	0.100
373.900	73.512	0.100
374.000	68.155	0.100
374.100	59.329	0.100
374.200	55.110	0.100
374.300	60.374	0.100
374.400	78.246	0.100
374.500	69.998	0.100
374.600	80.268	0.100
374.700	64.391	0.100
374.800	61.686	0.100
374.900	67.508	0.100
375.000	74.172	0.100
375.100	81.887	0.100
375.200	64.835	0.100
375.300	76.432	0.100
375.400	58.485	0.100
375.500	65.897	0.100
375.600	69.521	0.100
375.700	65.664	0.100
375.800	66.067	0.100
375.900	74.094	0.100
376.000	64.932	0.100
376.100	61.207	0.100
376.200	66.955	0.100
376.300	66.475	0.100
376.400	62.235	0.100
376.500	63.932	0.100
376.600	71.167	0.100
376.700	63.003	0.100
376.800	68.690	0.100
376.900	65.695	0.100
377.000	65.718	0.100
377.100	61.580	0.100
377.200	53.899	0.100
377.300	58.694	0.100
377.400	66.943	0.100
377.500	71.018	0.100
377.600	66.587	0.100
377.700	72.988	0.100
377.800	67.161	0.100
377.900	76.246	0.100
378.000	63.227	0.100
378.100	69.350	0.100
378.200	62.790	0.100
378.300	67.787	0.100
378.400	65.559	0.100
378.500	50.085	0.100
378.600	66.038	0.100
378.700	50.570	0.100
378.800	60.042	0.100
378.900	70.400	0.100
379.000	65.076	0.100
379.100	62.008	0.100
379.200	66.954	0.100
379.300	69.974	0.100
379.400	69.350	0.100
379.500	56.832	0.100
379.600	65.109	0.100
379.700	69.686	0.100
379.800	66.517	0.100
379.900	57.609	0.100
380.000	69.270	0.100
380.100	75.255	0.100
380.200	64.596	0.100
380.300	70.272	0.100
380.400	66.047	0.100
380.500	62.533	0.100
380.600	71.841	0.100
380.700	67.420	0.100
380.800	65.496	0.100
380.900	69.799	0.100
381.000	57.605	0.100
381.100	60.254	0.100
381.200	71.399	0.100
381.300	63.162	0.100
381.400	75.072	0.100
381.500	55.529	0.100
381.600	68.334	0.100
381.700	50.681	0.100
381.800	74.928	0.100
381.900	59.406	0.100
382.000	62.050	0.100
382.100	67.607	0.100
382.200	64.193	0.100
382.300	64.022	0.100
382.400	67.532	0.100
382.500	66.420	0.100
382.600	74.650	0.100
382.700	75.359	0.100
382.800	76.576	0.100
382.900	67.842	0.100
383.000	67.320	0.100
383.100	54.523	0.100
383.200	64.500	0.100
383.300	68.977	0.100
383.400	67.316	0.100
383.500	72.676	0.100
383.600	53.814	0.100
383.700	66.774	0.100
383.800	63.336	0.100
383.900	62.519	0.100
384.000	66.743	0.100
384.100	63.592	0.100
384.200	67.369	0.100
384.300	65.090	0.100
384.400	56.370	0.100
384.500	64.198	0.100
384.600	67.667	0.100
384.700	68.586	0.100
384.800	63.151	0.100
384.900	53.586	0.100
385.000	71.167	0.100
385.100	76.168	0.100
385.200	66.797	0.100
385.300	65.079	0.100
385.400	65.708	0.100
385.500	62.002	0.100
385.600	68.588	0.100
385.700	52.481	0.100
385.800	66.296	0.100
385.900	64.296	0.100
386.000	62.618	0.100
386.100	68.118	0.100
386.200	58.634	0.100
386.300	56.165	0.100
386.400	59.813	0.100
386.500	66.614	0.100
386.600	74.098	0.100
386.700	69.107	0.100
386.800	63.176	0.100
386.900	73.515	0.100
387.000	52.446	0.100
387.100	55.463	0.100
387.200	56.315	0.100
387.300	71.733	0.100
387.400	74.061	0.100
387.500	47.725	0.100
387.600	60.378	0.100
387.700	77.868	0.100
387.800	69.078	0.100
387.900	53.248	0.100
388.000	67.326	0.100
388.100	72.426	0.100
388.200	60.833	0.100
388.300	58.405	0.100
388.400	60.265	0.100
388.500	68.744	0.100
388.600	64.214	0.100
388.700	60.173	0.100
388.800	59.869	0.100
388.900	64.157	0.100
389.000	82.110	0.100
389.100	61.034	0.100
389.200	59.883	0.100
389.300	57.038	0.100
389.400	64.124	0.100
389.500	59.075	0.100
389.600	68.306	0.100
389.700	71.334	0.100
389.800	65.092	0.100
389.900	60.284	0.100
390.000	69.316	0.100
390.100	62.127	0.100
390.200	49.223	0.100
390.300	52.010	0.100
390.400	67.855	0.100
390.500	54.567	0.100
390.600	47.862	0.100
390.700	38.307	0.100
390.800	32.209	0.100
390.900	35.493	0.100
391.000	24.543	0.100
391.100	13.557	0.100
391.200	25.508	0.100
391.300	16.741	0.100
391.400	18.926	0.100
391.500	21.189	0.100
391.600	9.294	0.100
391.700	1.433	0.100
391.800	0.923	0.100
391.900	-2.425	0.100
392.000	-12.154	0.100
392.100	5.021	0.100
392.200	-2.383	0.100
392.300	-8.906	0.100
392.400	-11.340	0.100
392.500	-11.137	0.100
392.600	-6.476	0.100
392.700	-12.311	0.100
392.800	-16.313	0.100
392.900	-8.509	0.100
393.000	-15.722	0.100
393.100	-25.792	0.100
393.200	-25.360	0.100
393.300	-34.037	0.100
393.400	-30.443	0.100
393.500	-22.246	0.100
393.600	-16.866	0.100
393.700	-25.938	0.100
393.800	-29.013	0.100
393.900	-40.453	0.100
394.000	-27.352	0.100
394.100	-26.430	0.100
394.200	-32.167	0.100
394.300	-39.128	0.100
394.400	-36.596	0.100
394.500	-44.009	0.100
394.600	-36.774	0.100
394.700	-39.334	0.100
394.800	-46.007	0.100
394.900	-39.666	0.100
395.000	-29.769	0.100
395.100	-33.906	0.100
395.200	-33.505	0.100
395.300	-37.874	0.100
395.400	-25.632	0.100
395.500	-38.674	0.100
395.600	-38.189	0.100
395.700	-35.145	0.100
395.800	-34.803	0.100
395.900	-48.960	0.100
396.000	-38.548	0.100
396.100	-40.743	0.100
396.200	-34.485	0.100
396.300	-32.911	0.100
396.400	-32.518	0.100
396.500	-19.203	0.100
396.600	-26.974	0.100
396.700	-32.279	0.100
396.800	-34.519	0.100
396.900	-26.546	0.100
397.000	-43.091	0.100
397.100	-22.399	0.100
397.200	-22.930	0.100
397.300	-31.686	0.100
397.400	-25.085	0.100
397.500	-46.953	0.100
397.600	-13.366	0.100
397.700	-27.193	0.100
397.800	-28.548	0.100
397.900	-24.064	0.100
398.000	-30.817	0.100
398.100	-36.902	0.100
398.200	-27.516	0.100
398.300	-35.188	0.100
398.400	-41.531	0.100
398.500	-19.509	0.100
398.600	-28.322	0.100
398.700	-36.658	0.100
398.800	-42.676	0.100
398.900	-15.847	0.100
399.000	-27.795	0.100
399.100	-22.582	0.100
399.200	-23.573	0.100
399.300	-28.425	0.100
399.400	-30.094	0.100
399.500	-28.425	0.100
399.600	-29.484	0.100
399.700	-27.941	0.100
399.800	-23.204	0.100
399.900	-37.208	0.100
400.000	-22.981	0.100
400.100	-41.844	0.100
400.200	-19.658	0.100
400.300	-15.382	0.100
400.400	-27.889	0.100
400.500	-34.136	0.100
400.600	-18.738	0.100
400.700	-24.237	0.100
400.800	-22.228	0.100
400.900	-23.837	0.100
401.000	-20.466	0.100
401.100	-25.997	0.100
401.200	-20.780	0.100
401.300	-18.538	0.100
401.400	-24.261	0.100
401.500	-23.184	0.100
401.600	-29.326	0.100
401.700	-16.666	0.100
401.800	-26.826	0.100
401.900	-33.607	0.100
402.000	-28.845	0.100
402.100	-33.541	0.100
402.200	-27.678	0.100
402.300	-28.438	0.100
402.400	-26.021	0.100
402.500	-21.434	0.100
402.600	-31.972	0.100
402.700	-17.328	0.100
402.800	-15.965	0.100
402.900	-23.025	0.100
403.000	-34.101	0.100
403.100	-29.419	0.100
403.200	-28.610	0.100
403.300	-25.824	0.100
403.400	-19.667	0.100
403.500	-33.432	0.100
403.600	-15.110	0.100
403.700	-32.807	0.100
403.800	-32.091	0.100
403.900	-29.773	0.100
404.000	-18.856	0.100
404.100	-16.076	0.100
404.200	-17.000	0.100
404.300	-26.664	0.100
404.400	-36.746	0.100
404.500	-32.068	0.100
404.600	-22.124	0.100
404.700	-25.303	0.100
404.800	-26.927	0.100
404.900	-23.811	0.100
405.000	-18.866	0.100
405.100	-33.809	0.100
405.200	-31.768	0.100
405.300	-25.473	0.100
405.400	-20.744	0.100
405.500	-11.559	0.100
405.600	-30.977	0.100
405.700	-30.329	0.100
405.800	-37.815	0.100
405.900	-35.821	0.100
406.000	-38.299	0.100
406.100	-27.569	0.100
406.200	-15.648	0.100
406.300	-46.340	0.100
406.400	-25.503	0.100
406.500	-24.889	0.100
406.600	-23.897	0.100
406.700	-28.642	0.100
406.800	-29.702	0.100
406.900	-23.897	0.100
407.000	-32.795	0.100
407.100	-14.577	0.100
407.200	-37.977	0.100
407.300	-32.120	0.100
407.400	-39.421	0.100
407.500	-12.151	0.100
407.600	-23.252	0.100
407.700	-33.698	0.100
407.800	-33.953	0.100
407.900	-31.422	0.100
408.000	-27.218	0.100
408.100	-31.169	0.100
408.200	-31.548	0.100
408.300	-15.005	0.100
408.400	-17.338	0.100
408.500	-23.777	0.100
408.600	-32.099	0.100
408.700	-23.856	0.100
408.800	-34.447	0.100
408.900	-23.771	0.100
409.000	-25.025	0.100
409.100	-29.134	0.100
409.200	-36.167	0.100
409.300	-37.110	0.100
409.400	-19.287	0.100
409.500	-37.668	0.100
409.600	-33.806	0.100
409.700	-20.912	0.100
409.800	-23.171	0.100
409.900	-37.305	0.100
410.000	-35.914	0.100
410.100	-30.427	0.100
410.200	-37.778	0.100
410.300	-24.969	0.100
410.400	-24.039	0.100
410.500	-34.823	0.100
410.600	-36.837	0.100
410.700	-39.755	0.100
410.800	-29.337	0.100
410.900	-34.741	0.100
411.000	-29.285	0.100
411.100	-32.707	0.100
411.200	-31.413	0.100
411.300	-35.593	0.100
411.400	-31.202	0.100
411.500	-35.451	0.100
411.600	-38.669	0.100
411.700	-39.852	0.100
411.800	-27.967	0.100
411.900	-39.948	0.100
412.000	-33.396	0.100
412.100	-39.095	0.100
412.200	-22.566	0.100
412.300	-19.997	0.100
412.400	-38.194	0.100
412.500	-29.865	0.100
412.600	-32.016	0.100
412.700	-24.973	0.100
412.800	-25.877	0.100
412.900	-26.204	0.100
413.000	-36.284	0.100
413.100	-39.589	0.100
413.200	-32.993	0.100
413.300	-32.363	0.100
413.400	-37.329	0.100
413.500	-21.615	0.100
413.600	-40.448	0.100
413.700	-29.493	0.100
413.800	-32.915	0.100
413.900	-26.797	0.100
414.000	-28.471	0.100
414.100	-39.778	0.100
414.200	-27.054	0.100
414.300	-41.928	0.100
414.400	-40.781	0.100
414.500	-41.724	0.100
414.600	-39.604	0.100
414.700	-16.969	0.100
414.800	-36.864	0.100
414.900	-45.331	0.100
415.000	-40.443	0.100
415.100	-29.927	0.100
415.200	-33.401	0.100
415.300	-28.315	0.100
415.400	-36.359	0.100
415.500	-39.011	0.100
415.600	-31.246	0.100
415.700	-33.190	0.100
415.800	-34.141	0.100
415.900	-37.319	0.100
416.000	-36.882	0.100
416.100	-41.883	0.100
416.200	-38.307	0.100
416.300	-23.895	0.100
416.400	-28.429	0.100
416.500	-30.947	0.100
416.600	-51.413	0.100
416.700	-30.914	0.100
416.800	-38.025	0.100
416.900	-39.547	0.100
417.000	-42.469	0.100
417.100	-29.194	0.100
417.200	-36.488	0.100
417.300	-27.965	0.100
417.400	-37.415	0.100
417.500	-46.647	0.100
417.600	-50.239	0.100
417.700	-47.154	0.100
417.800	-38.457	0.100
417.900	-34.195	0.100
418.000	-38.866	0.100
418.100	-50.733	0.100
418.200	-32.694	0.100
418.300	-46.707	0.100
418.400	-34.578	0.100
418.500	-41.964	0.100
418.600	-38.257	0.100
418.700	-33.885	0.100
418.800	-50.929	0.100
418.900	-38.935	0.100
419.000	-39.289	0.100
419.100	-28.124	0.100
419.200	-33.847	0.100
419.300	-41.349	0.100
419.400	-48.784	0.100
419.500	-39.944	0.100
419.600	-33.610	0.100
419.700	-31.509	0.100
419.800	-38.531	0.100
419.900	-44.419	0.100
420.000	-41.766	0.100
420.100	-36.223	0.100
420.200	-37.193	0.100
420.300	-42.980	0.100
420.400	-41.034	0.100
420.500	-34.233	0.100
420.600	-31.514	0.100
420.700	-42.662	0.100
420.800	-35.794	0.100
420.900	-49.159	0.100
421.000	-41.092	0.100
421.100	-51.943	0.100
421.200	-32.352	0.100
421.300	-24.345	0.100
421.400	-47.785	0.100
421.500	-36.520	0.100
421.600	-31.587	0.100
421.700	-29.924	0.100
421.800	-44.570	0.100
421.900	-48.518	0.100
422.000	-42.957	0.100
422.100	-42.110	0.100
422.200	-28.014	0.100
422.300	-35.980	0.100
422.400	-36.305	0.100
422.500	-45.395	0.100
422.600	-39.136	0.100
422.700	-43.639	0.100
422.800	-44.171	0.100
422.900	-34.880	0.100
423.000	-46.704	0.100
423.100	-39.178	0.100
423.200	-46.418	0.100
423.300	-43.618	0.100
423.400	-48.155	0.100
423.500	-41.126	0.100
423.600	-37.959	0.100
423.700	-40.554	0.100
423.800	-50.111	0.100
423.900	-45.430	0.100
424.000	-41.374	0.100
424.100	-38.020	0.100
424.200	-38.206	0.100
424.300	-45.462	0.100
424.400	-32.322	0.100
424.500	-41.599	0.100
424.600	-34.019	0.100
424.700	-37.156	0.100
424.800	-38.612	0.100
424.900	-35.930	0.100
425.000	-28.754	0.100
425.100	-37.805	0.100
425.200	-39.678	0.100
425.300	-52.087	0.100
425.400	-36.559	0.100
425.500	-35.417	0.100
425.600	-40.009	0.100
425.700	-42.729	0.100
425.800	-37.926	0.100
425.900	-35.009	0.100
426.000	-34.958	0.100
426.100	-58.175	0.100
426.200	-33.517	0.100
426.300	-37.339	0.100
426.400	-41.026	0.100
426.500	-47.695	0.100
426.600	-49.315	0.100
426.700	-30.811	0.100
426.800	-47.504	0.100
426.900	-34.016	0.100
427.000	-34.370	0.100
427.100	-47.339	0.100
427.200	-44.454	0.100
427.300	-48.205	0.100
427.400	-39.555	0.100
427.500	-41.618	0.100
427.600	-20.286	0.100
427.700	-36.364	0.100
427.800	-42.249	0.100
427.900	-45.949	0.100
428.000	-36.445	0.100
428.100	-45.333	0.100
428.200	-43.465	0.100
428.300	-45.034	0.100
428.400	-35.350	0.100
428.500	-33.872	0.100
428.600	-40.984	0.100
428.700	-50.502	0.100
428.800	-44.691	0.100
428.900	-54.787	0.100
429.000	-44.840	0.100
429.100	-43.423	0.100
429.200	-38.456	0.100
429.300	-34.143	0.100
429.400	-49.369	0.100
429.500	-58.459	0.100
429.600	-35.287	0.100
429.700	-42.139	0.100
429.800	-33.163	0.100
429.900	-36.010	0.100
430.000	-43.879	0.100
430.100	-27.424	0.100
430.200	-37.549	0.100
430.300	-40.619	0.100
430.400	-34.200	0.100
430.500	-49.009	0.100
430.600	-41.676	0.100
430.700	-43.030	0.100
430.800	-41.930	0.100
430.900	-35.163	0.100
431.000	-37.641	0.100
431.100	-49.571	0.100
431.200	-28.863	0.100
431.300	-32.750	0.100
431.400	-41.720	0.100
431.500	-42.588	0.100
431.600	-38.195	0.100
431.700	-31.912	0.100
431.800	-45.774	0.100
431.900	-41.421	0.100
432.000	-43.685	0.100
432.100	-38.095	0.100
432.200	-52.537	0.100
432.300	-29.394	0.100
432.400	-43.499	0.100
432.500	-31.986	0.100
432.600	-42.072	0.100
432.700	-41.788	0.100
432.800	-45.687	0.100
432.900	-37.785	0.100
433.000	-24.782	0.100
433.100	-36.213	0.100
433.200	-34.147	0.100
433.300	-42.774	0.100
433.400	-38.351	0.100
433.500	-43.511	0.100
433.600	-39.110	0.100
433.700	-45.967	0.100
433.800	-31.891	0.100
433.900	-47.123	0.100
434.000	-47.763	0.100
434.100	-44.255	0.100
434.200	-33.449	0.100
434.300	-32.555	0.100
434.400	-43.154	0.100
434.500	-32.629	0.100
434.600	-34.948	0.100
434.700	-30.118	0.100
434.800	-36.104	0.100
434.900	-40.058	0.100
435.000	-42.613	0.100
435.100	-42.864	0.100
435.200	-41.450	0.100
435.300	-41.757	0.100
435.400	-27.630	0.100
435.500	-45.023	0.100
435.600	-51.104	0.100
435.700	-37.901	0.100
435.800	-37.720	0.100
435.900	-46.694	0.100
436.000	-32.180	0.100
436.100	-41.823	0.100
436.200	-25.063	0.100
436.300	-42.398	0.100
436.400	-36.599	0.100
436.500	-33.792	0.100
436.600	-36.429	0.100
436.700	-40.319	0.100
436.800	-34.546	0.100
436.900	-41.465	0.100
437.000	-48.339	0.100
437.100	-33.451	0.100
437.200	-32.837	0.100
437.300	-40.506	0.100
437.400	-38.006	0.100
437.500	-43.628	0.100
437.600	-49.666	0.100
437.700	-24.827	0.100
437.800	-42.612	0.100
437.900	-44.535	0.100
438.000	-41.691	0.100
438.100	-30.012	0.100
438.200	-49.154	0.100
438.300	-38.762	0.100
438.400	-32.293	0.100
438.500	-35.446	0.100
438.600	-33.642	0.100
438.700	-38.153	0.100
438.800	-36.250	0.100
438.900	-40.197	0.100
439.000	-36.644	0.100
439.100	-34.036	0.100
439.200	-31.470	0.100
439.300	-31.268	0.100
439.400	-32.858	0.100
439.500	-36.184	0.100
439.600	-41.679	0.100
439.700	-36.688	0.100
439.800	-47.043	0.100
439.900	-38.159	0.100
440.000	-38.657	0.100
440.100	-27.756	0.100
440.200	-42.737	0.100
440.300	-33.711	0.100
440.400	-37.713	0.100
440.500	-51.548	0.100
440.600	-29.919	0.100
440.700	-38.743	0.100
440.800	-32.347	0.100
440.900	-30.198	0.100
441.000	-35.184	0.100
441.100	-37.391	0.100
441.200	-43.609	0.100
441.300	-36.204	0.100
441.400	-36.407	0.100
441.500	-42.430	0.100
441.600	-30.842	0.100
441.700	-45.804	0.100
441.800	-36.428	0.100
441.900	-31.947	0.100
442.000	-25.066	0.100
442.100	-37.183	0.100
442.200	-31.269	0.100
442.300	-36.663	0.100
442.400	-41.704	0.100
442.500	-35.156	0.100
442.600	-29.641	0.100
442.700	-31.406	0.100
442.800	-38.931	0.100
442.900	-39.135	0.100
443.000	-22.170	0.100
443.100	-33.651	0.100
443.200	-33.773	0.100
443.300	-39.034	0.100
443.400	-46.178	0.100
443.500	-33.410	0.100
443.600	-25.850	0.100
443.700	-23.612	0.100
443.800	-27.407	0.100
443.900	-32.788	0.100
444.000	-32.551	0.100
444.100	-33.962	0.100
444.200	-25.551	0.100
444.300	-31.131	0.100
444.400	-32.076	0.100
444.500	-39.213	0.100
444.600	-40.916	0.100
444.700	-44.055	0.100
444.800	-37.162	0.100
444.900	-40.253	0.100
445.000	-24.253	0.100
445.100	-22.736	0.100
445.200	-39.276	0.100
445.300	-46.202	0.100
445.400	-42.342	0.100
445.500	-34.574	0.100
445.600	-28.222	0.100
445.700	-40.919	0.100
445.800	-35.153	0.100
445.900	-27.532	0.100
446.000	-33.084	0.100
446.100	-30.890	0.100
446.200	-36.438	0.100
446.300	-36.454	0.100
446.400	-37.708	0.100
446.500	-36.546	0.100
446.600	-35.142	0.100
446.700	-35.911	0.100
446.800	-29.894	0.100
446.900	-27.278	0.100
447.000	-34.724	0.100
447.100	-41.865	0.100
447.200	-38.678	0.100
447.300	-20.734	0.100
447.400	-34.291	0.100
447.500	-28.855	0.100
447.600	-40.776	0.100
447.700	-31.450	0.100
447.800	-18.560	0.100
447.900	-31.124	0.100
448.000	-35.574	0.100
448.100	-30.993	0.100
448.200	-37.076	0.100
448.300	-29.272	0.100
448.400	-36.440	0.100
448.500	-32.469	0.100
448.600	-38.469	0.100
448.700	-24.338	0.100
448.800	-38.536	0.100
448.900	-20.272	0.100
449.000	-41.449	0.100
449.100	-32.797	0.100
449.200	-41.176	0.100
449.300	-32.377	0.100
449.400	-34.289	0.100
449.500	-30.878	0.100
449.600	-29.314	0.100
449.700	-29.656	0.100
449.800	-18.193	0.100
449.900	-37.586	0.100
450.000	-36.570	0.100
450.100	-31.009	0.100
450.200	-23.762	0.100
450.300	-33.379	0.100
450.400	-36.148	0.100
450.500	-37.234	0.100
450.600	-38.124	0.100
450.700	-28.903	0.100
450.800	-33.685	0.100
450.900	-35.370	0.100
451.000	-38.194	0.100
451.100	-30.143	0.100
451.200	-20.575	0.100
451.300	-32.659	0.100
451.400	-29.790	0.100
451.500	-34.539	0.100
451.600	-34.830	0.100
451.700	-30.249	0.100
451.800	-36.104	0.100
451.900	-26.870	0.100
452.000	-28.895	0.100
452.100	-40.363	0.100
452.200	-38.476	0.100
452.300	-35.599	0.100
452.400	-33.991	0.100
452.500	-24.751	0.100
452.600	-32.460	0.100
452.700	-33.344	0.100
452.800	-33.687	0.100
452.900	-23.687	0.100
453.000	-35.988	0.100
453.100	-26.583	0.100
453.200	-31.114	0.100
453.300	-34.081	0.100
453.400	-23.499	0.100
453.500	-33.049	0.100
453.600	-26.483	0.100
453.700	-23.444	0.100
453.800	-31.336	0.100
453.900	-29.222	0.100
454.000	-36.448	0.100
454.100	-29.824	0.100
454.200	-32.391	0.100
454.300	-29.170	0.100
454.400	-37.680	0.100
454.500	-34.883	0.100
454.600	-16.644	0.100
454.700	-37.964	0.100
454.800	-46.812	0.100
454.900	-21.793	0.100
455.000	-28.600	0.100
455.100	-42.618	0.100
455.200	-23.621	0.100
455.300	-33.979	0.100
455.400	-28.624	0.100
455.500	-29.783	0.100
455.600	-35.323	0.100
455.700	-33.808	0.100
455.800	-31.180	0.100
455.900	-26.407	0.100
456.000	-25.103	0.100
456.100	-24.750	0.100
456.200	-40.188	0.100
456.300	-29.672	0.100
456.400	-33.271	0.100
456.500	-22.225	0.100
456.600	-35.834	0.100
456.700	-22.873	0.100
456.800	-24.347	0.100
456.900	-29.738	0.100
457.000	-32.187	0.100
457.100	-40.539	0.100
457.200	-25.562	0.100
457.300	-36.458	0.100
457.400	-29.280	0.100
457.500	-41.039	0.100
457.600	-25.288	0.100
457.700	-29.549	0.100
457.800	-38.732	0.100
457.900	-36.311	0.100
458.000	-30.958	0.100
458.100	-31.159	0.100
458.200	-33.165	0.100
458.300	-35.197	0.100
458.400	-32.250	0.100
458.500	-25.909	0.100
458.600	-26.422	0.100
458.700	-34.706	0.100
458.800	-21.399	0.100
458.900	-21.773	0.100
459.000	-31.460	0.100
459.100	-30.756	0.100
459.200	-21.113	0.100
459.300	-37.003	0.100
459.400	-25.100	0.100
459.500	-26.772	0.100
459.600	-32.052	0.100
459.700	-24.007	0.100
459.800	-26.762	0.100
459.900	-30.407	0.100
460.000	-26.559	0.100
460.100	-29.010	0.100
460.200	-24.241	0.100
460.300	-25.565	0.100
460.400	-26.724	0.100
460.500	-35.394	0.100
460.600	-31.601	0.100
460.700	-25.906	0.100
460.800	-6.135	0.100
460.900	-30.769	0.100
461.000	-31.112	0.100
461.100	-24.417	0.100
461.200	-31.882	0.100
461.300	-20.434	0.100
461.400	-36.453	0.100
461.500	-26.312	0.100
461.600	-24.178	0.100
461.700	-31.959	0.100
461.800	-27.747	0.100
461.900	-24.520	0.100
462.000	-20.540	0.100
462.100	-34.010	0.100
462.200	-24.096	0.100
462.300	-29.338	0.100
462.400	-29.427	0.100
462.500	-16.795	0.100
462.600	-24.754	0.100
462.700	-19.770	0.100
462.800	-31.820	0.100
462.900	-30.994	0.100
463.000	-31.665	0.100
463.100	-26.472	0.100
463.200	-30.426	0.100
463.300	-26.916	0.100
463.400	-28.398	0.100
463.500	-27.242	0.100
463.600	-31.255	0.100
463.700	-32.334	0.100
463.800	-26.946	0.100
463.900	-20.404	0.100
464.000	-19.815	0.100
464.100	-12.981	0.100
464.200	-26.602	0.100
464.300	-27.649	0.100
464.400	-15.827	0.100
464.500	-30.187	0.100
464.600	-22.841	0.100
464.700	-37.378	0.100
464.800	-26.398	0.100
464.900	-19.162	0.100
465.000	-13.967	0.100
465.100	-25.393	0.100
465.200	-39.745	0.100
465.300	-25.623	0.100
465.400	-28.521	0.100
465.500	-25.816	0.100
465.600	-25.156	0.100
465.700	-42.611	0.100
465.800	-38.672	0.100
465.900	-34.591	0.100
466.000	-27.300	0.100
466.100	-21.342	0.100
466.200	-23.583	0.100
466.300	-20.374	0.100
466.400	-32.505	0.100
466.500	-17.368	0.100
466.600	-18.829	0.100
466.700	-32.977	0.100
466.800	-25.333	0.100
466.900	-25.258	0.100
467.000	-31.546	0.100
467.100	-34.989	0.100
467.200	-25.271	0.100
467.300	-24.012	0.100
467.400	-28.789	0.100
467.500	-33.988	0.100
467.600	-25.359	0.100
467.700	-26.438	0.100
467.800	-30.107	0.100
467.900	-13.705	0.100
468.000	-26.065	0.100
468.100	-25.008	0.100
468.200	-17.666	0.100
468.300	-29.305	0.100
468.400	-33.084	0.100
468.500	-38.326	0.100
468.600	-29.104	0.100
468.700	-29.590	0.100
468.800	-26.648	0.100
468.900	-28.240	0.100
469.000	-29.502	0.100
469.100	-24.881	0.100
469.200	-24.486	0.100
469.300	-18.506	0.100
469.400	-32.713	0.100
469.500	-37.496	0.100
469.600	-31.678	0.100
469.700	-32.477	0.100
469.800	-21.238	0.100
469.900	-5.533	0.100
470.000	-24.502	0.100
470.100	-21.537	0.100
470.200	-22.835	0.100
470.300	-38.851	0.100
470.400	-25.478	0.100
470.500	-17.928	0.100
470.600	-33.213	0.100
470.700	-36.420	0.100
470.800	-12.506	0.100
470.900	-23.244	0.100
471.000	-24.682	0.100
471.100	-29.947	0.100
471.200	-28.427	0.100
471.300	-27.867	0.100
471.400	-31.498	0.100
471.500	-32.692	0.100
471.600	-23.702	0.100
471.700	-29.116	0.100
471.800	-18.650	0.100
471.900	-21.322	0.100
472.000	-20.490	0.100
472.100	-31.238	0.100
472.200	-18.931	0.100
472.300	-30.194	0.100
472.400	-24.299	0.100
472.500	-25.601	0.100
472.600	-24.583	0.100
472.700	-24.772	0.100
472.800	-27.793	0.100
472.900	-24.701	0.100
473.000	-28.877	0.100
473.100	-24.889	0.100
473.200	-23.189	0.100
473.300	-19.610	0.100
473.400	-24.526	0.100
473.500	-35.809	0.100
473.600	-38.201	0.100
473.700	-25.988	0.100
473.800	-17.390	0.100
473.900	-29.534	0.100
474.000	-22.665	0.100
474.100	-22.822	0.100
474.200	-18.662	0.100
474.300	-31.252	0.100
474.400	-22.986	0.100
474.500	-15.628	0.100
474.600	-23.068	0.100
474.700	-26.126	0.100
474.800	-34.471	0.100
474.900	-26.264	0.100
475.000	-18.705	0.100
475.100	-20.527	0.100
475.200	-24.592	0.100
475.300	-20.642	0.100
475.400	-21.299	0.100
475.500	-29.490	0.100
475.600	-26.717	0.100
475.700	-23.443	0.100
475.800	-30.359	0.100
475.900	-10.331	0.100
476.000	-18.407	0.100
476.100	-28.596	0.100
476.200	-14.532	0.100
476.300	-26.184	0.100
476.400	-29.691	0.100
476.500	-28.745	0.100
476.600	-29.670	0.100
476.700	-16.640	0.100
476.800	-21.869	0.100
476.900	-26.626	0.100
477.000	-33.548	0.100
477.100	-25.979	0.100
477.200	-18.025	0.100
477.300	-27.480	0.100
477.400	-16.146	0.100
477.500	-18.823	0.100
477.600	-16.842	0.100
477.700	-21.931	0.100
477.800	-30.176	0.100
477.900	-31.952	0.100
478.000	-32.896	0.100
478.100	-22.199	0.100
478.200	-19.897	0.100
478.300	-24.247	0.100
478.400	-28.171	0.100
478.500	-14.940	0.100
478.600	-14.009	0.100
478.700	-33.727	0.100
478.800	-30.630	0.100
478.900	-21.501	0.100
479.000	-24.134	0.100
479.100	-15.560	0.100
479.200	-25.095	0.100
479.300	-18.967	0.100
479.400	-35.757	0.100
479.500	-23.567	0.100
479.600	-21.490	0.100
479.700	-20.392	0.100
479.800	-18.668	0.100
479.900	-29.178	0.100
480.000	-18.869	0.100
480.100	-19.310	0.100
480.200	-23.979	0.100
480.300	-20.608	0.100
480.400	-13.235	0.100
480.500	-2.426	0.100
480.600	-0.049	0.100
480.700	0.137	0.100
480.800	5.416	0.100
480.900	15.122	0.100
481.000	9.901	0.100
481.100	4.714	0.100
481.200	20.998	0.100
481.300	13.871	0.100
481.400	15.301	0.100
481.500	18.253	0.100
481.600	25.085	0.100
481.700	30.242	0.100
481.800	38.626	0.100
481.900	35.207	0.100
482.000	32.170	0.100
482.100	37.565	0.100
482.200	43.161	0.100
482.300	34.673	0.100
482.400	42.336	0.100
482.500	38.435	0.100
482.600	38.741	0.100
482.700	39.759	0.100
482.800	51.430	0.100
482.900	41.217	0.100
483.000	29.720	0.100
483.100	52.112	0.100
483.200	46.478	0.100
483.300	43.441	0.100
483.400	29.925	0.100
483.500	45.649	0.100
483.600	32.412	0.100
483.700	37.842	0.100
483.800	40.030	0.100
483.900	29.249	0.100
484.000	33.092	0.100
484.100	50.848	0.100
484.200	37.911	0.100
484.300	36.766	0.100
484.400	42.986	0.100
484.500	42.942	0.100
484.600	35.548	0.100
484.700	32.642	0.100
484.800	29.812	0.100
484.900	22.381	0.100
485.000	35.353	0.100
485.100	36.180	0.100
485.200	30.592	0.100
485.300	23.331	0.100
485.400	44.836	0.100
485.500	40.689	0.100
485.600	35.193	0.100
485.700	30.101	0.100
485.800	26.122	0.100
485.900	30.595	0.100
486.000	47.576	0.100
486.100	28.363	0.100
486.200	43.224	0.100
486.300	49.284	0.100
486.400	47.154	0.100
486.500	57.003	0.100
486.600	40.875	0.100
486.700	31.654	0.100
486.800	36.616	0.100
486.900	35.770	0.100
487.000	47.110	0.100
487.100	54.787	0.100
487.200	41.893	0.100
487.300	44.510	0.100
487.400	45.744	0.100
487.500	49.296	0.100
487.600	44.382	0.100
487.700	60.214	0.100
487.800	48.581	0.100
487.900	50.226	0.100
488.000	49.903	0.100
488.100	50.747	0.100
488.200	43.336	0.100
488.300	43.539	0.100
488.400	55.047	0.100
488.500	51.039	0.100
488.600	60.386	0.100
488.700	49.020	0.100
488.800	44.422	0.100
488.900	61.491	0.100
489.000	56.297	0.100
489.100	50.428	0.100
489.200	68.159	0.100
489.300	51.854	0.100
489.400	63.900	0.100
489.500	57.686	0.100
489.600	51.620	0.100
489.700	55.182	0.100
489.800	78.944	0.100
489.900	67.392	0.100
490.000	60.041	0.100
490.100	66.774	0.100
490.200	57.053	0.100
490.300	70.885	0.100
490.400	72.759	0.100
490.500	79.019	0.100
490.600	64.289	0.100
490.700	64.829	0.100
490.800	73.402	0.100
490.900	82.512	0.100
491.000	77.113	0.100
491.100	79.892	0.100
491.200	74.450	0.100
491.300	59.141	0.100
491.400	68.613	0.100
491.500	73.772	0.100
491.600	78.237	0.100
491.700	81.793	0.100
491.800	75.739	0.100
491.900	82.543	0.100
492.000	84.223	0.100
492.100	78.620	0.100
492.200	79.448	0.100
492.300	71.057	0.100
492.400	82.790	0.100
492.500	92.053	0.100
492.600	86.380	0.100
492.700	83.311	0.100
492.800	91.284	0.100
492.900	96.737	0.100
493.000	91.600	0.100
493.100	98.362	0.100
493.200	90.706	0.100
493.300	84.102	0.100
493.400	88.171	0.100
493.500	100.657	0.100
493.600	90.861	0.100
493.700	86.803	0.100
493.800	94.823	0.100
493.900	95.755	0.100
494.000	101.656	0.100
494.100	98.185	0.100
494.200	91.446	0.100
494.300	89.352	0.100
494.400	97.026	0.100
494.500	90.890	0.100
494.600	102.564	0.100
494.700	89.128	0.100
494.800	98.582	0.100
494.900	101.486	0.100
495.000	102.862	0.100
495.100	92.653	0.100
495.200	88.804	0.100
495.300	83.878	0.100
495.400	94.060	0.100
495.500	93.452	0.100
495.600	93.253	0.100
495.700	93.587	0.100
495.800	99.064	0.100
495.900	93.951	0.100
496.000	88.816	0.100
496.100	85.928	0.100
496.200	91.395	0.100
496.300	83.787	0.100
496.400	90.783	0.100
496.500	91.999	0.100
496.600	104.706	0.100
496.700	86.483	0.100
496.800	83.720	0.100
496.900	84.683	0.100
497.000	91.312	0.100
497.100	95.543	0.100
497.200	73.632	0.100
497.300	93.525	0.100
497.400	104.112	0.100
497.500	100.881	0.100
497.600	90.072	0.100
497.700	99.942	0.100
497.800	83.880	0.100
497.900	93.686	0.100
498.000	86.322	0.100
498.100	84.944	0.100
498.200	83.255	0.100
498.300	85.332	0.100
498.400	87.468	0.100
498.500	93.827	0.100
498.600	97.551	0.100
498.700	88.842	0.100
498.800	85.988	0.100
498.900	82.274	0.100
499.000	80.403	0.100
499.100	81.485	0.100
499.200	80.124	0.100
499.300	90.418	0.100
499.400	82.455	0.100
499.500	87.343	0.100
499.600	89.145	0.100
499.700	87.128	0.100
499.800	90.115	0.100
499.900	86.530	0.100
500.000	79.257	0.100
500.100	76.113	0.100
500.200	73.016	0.100
500.300	85.367	0.100
500.400	87.771	0.100
500.500	79.946	0.100
500.600	83.113	0.100
500.700	76.340	0.100
500.800	81.810	0.100
500.900	88.899	0.100
501.000	63.740	0.100
501.100	74.658	0.100
501.200	81.202	0.100
501.300	83.929	0.100
501.400	85.311	0.100
501.500	93.740	0.100
501.600	91.419	0.100
501.700	73.568	0.100
501.800	79.416	0.100
501.900	80.954	0.100
502.000	81.145	0.100
502.100	85.035	0.100
502.200	79.609	0.100
502.300	82.941	0.100
502.400	83.482	0.100
502.500	82.608	0.100
502.600	72.769	0.100
502.700	69.019	0.100
502.800	71.692	0.100
502.900	84.211	0.100
503.000	77.175	0.100
503.100	81.234	0.100
503.200	79.699	0.100
503.300	78.368	0.100
503.400	68.525	0.100
503.500	77.234	0.100
503.600	78.697	0.100
503.700	75.410	0.100
503.800	76.649	0.100
503.900	83.875	0.100
504.000	75.498	0.100
504.100	74.663	0.100
504.200	71.833	0.100
504.300	67.387	0.100
504.400	72.381	0.100
504.500	75.687	0.100
504.600	83.907	0.100
504.700	80.137	0.100
504.800	70.532	0.100
504.900	69.890	0.100
505.000	72.291	0.100
505.100	71.354	0.100
505.200	90.444	0.100
505.300	71.854	0.100
505.400	81.171	0.100
505.500	73.189	0.100
505.600	73.713	0.100
505.700	77.289	0.100
505.800	73.964	0.100
505.900	79.505	0.100
506.000	74.759	0.100
506.100	84.221	0.100
506.200	73.990	0.100
506.300	70.880	0.100
506.400	72.838	0.100
506.500	82.907	0.100
506.600	70.448	0.100
506.700	77.572	0.100
506.800	72.040	0.100
506.900	83.942	0.100
507.000	79.462	0.100
507.100	78.537	0.100
507.200	72.098	0.100
507.300	74.186	0.100
507.400	71.015	0.100
507.500	74.803	0.100
507.600	80.611	0.100
507.700	72.012	0.100
507.800	66.560	0.100
507.900	86.591	0.100
508.000	76.032	0.100
508.100	79.267	0.100
508.200	85.928	0.100
508.300	61.430	0.100
508.400	71.536	0.100
508.500	68.809	0.100
508.600	68.161	0.100
508.700	78.058	0.100
508.800	71.737	0.100
508.900	70.252	0.100
509.000	79.451	0.100
509.100	79.074	0.100
509.200	64.555	0.100
509.300	82.322	0.100
509.400	77.563	0.100
509.500	73.521	0.100
509.600	68.940	0.100
509.700	74.946	0.100
509.800	81.605	0.100
509.900	78.281	0.100
510.000	60.550	0.100
510.100	74.411	0.100
510.200	66.106	0.100
510.300	70.726	0.100
510.400	74.895	0.100
510.500	69.812	0.100
510.600	70.118	0.100
510.700	76.878	0.100
510.800	62.940	0.100
510.900	76.233	0.100
511.000	64.920	0.100
511.100	74.548	0.100
511.200	78.483	0.100
511.300	68.921	0.100
511.400	70.462	0.100
511.500	75.500	0.100
511.600	66.149	0.100
511.700	64.466	0.100
511.800	81.772	0.100
511.900	73.669	0.100
512.000	77.164	0.100
512.100	69.873	0.100
512.200	70.509	0.100
512.300	76.932	0.100
512.400	73.656	0.100
512.500	72.859	0.100
512.600	70.084	0.100
512.700	80.797	0.100
512.800	76.417	0.100
512.900	72.513	0.100
513.000	74.586	0.100
513.100	71.617	0.100
513.200	68.253	0.100
513.300	63.231	0.100
513.400	78.286	0.100
513.500	71.363	0.100
513.600	72.220	0.100
513.700	67.925	0.100
513.800	70.063	0.100
513.900	70.863	0.100
514.000	60.132	0.100
514.100	73.582	0.100
514.200	79.573	0.100
514.300	73.045	0.100
514.400	67.393	0.100
514.500	72.248	0.100
514.600	67.510	0.100
514.700	69.781	0.100
514.800	85.416	0.100
514.900	67.651	0.100
515.000	79.582	0.100
515.100	69.122	0.100
515.200	68.975	0.100
515.300	67.171	0.100
515.400	74.437	0.100
515.500	67.818	0.100
515.600	65.743	0.100
515.700	77.151	0.100
515.800	69.589	0.100
515.900	69.100	0.100
516.000	75.914	0.100
516.100	65.199	0.100
516.200	76.207	0.100
516.300	61.856	0.100
516.400	76.408	0.100
516.500	75.737	0.100
516.600	64.828	0.100
516.700	70.396	0.100
516.800	69.845	0.100
516.900	69.485	0.100
517.000	74.774	0.100
517.100	71.069	0.100
517.200	80.237	0.100
517.300	62.900	0.100
517.400	66.419	0.100
517.500	61.871	0.100
517.600	61.638	0.100
517.700	68.216	0.100
517.800	69.055	0.100
517.900	62.733	0.100
518.000	84.451	0.100
518.100	69.122	0.100
518.200	62.648	0.100
518.300	69.102	0.100
518.400	60.021	0.100
518.500	61.324	0.100
518.600	63.210	0.100
518.700	56.911	0.100
518.800	62.462	0.100
518.900	69.031	0.100
519.000	75.594	0.100
519.100	71.367	0.100
519.200	72.084	0.100
519.300	68.397	0.100
519.400	70.227	0.100
519.500	71.450	0.100
519.600	71.115	0.100
519.700	70.103	0.100
519.800	73.742	0.100
519.900	69.496	0.100
520.000	63.587	0.100
520.100	80.585	0.100
520.200	81.830	0.100
520.300	69.810	0.100
520.400	57.295	0.100
520.500	60.866	0.100
520.600	60.840	0.100
520.700	57.117	0.100
520.800	81.152	0.100
520.900	71.830	0.100
521.000	82.712	0.100
521.100	70.765	0.100
521.200	61.711	0.100
521.300	70.871	0.100
521.400	78.084	0.100
521.500	67.608	0.100
521.600	69.801	0.100
521.700	61.498	0.100
521.800	71.015	0.100
521.900	69.150	0.100
522.000	65.550	0.100
522.100	65.582	0.100
522.200	80.642	0.100
522.300	65.315	0.100
522.400	67.518	0.100
522.500	71.012	0.100
522.600	76.401	0.100
522.700	76.555	0.100
522.800	63.994	0.100
522.900	68.899	0.100
523.000	70.697	0.100
523.100	68.467	0.100
523.200	59.404	0.100
523.300	56.009	0.100
523.400	63.386	0.100
523.500	62.252	0.100
523.600	57.785	0.100
523.700	80.766	0.100
523.800	66.290	0.100
523.900	72.628	0.100
524.000	59.962	0.100
524.100	70.802	0.100
524.200	73.614	0.100
524.300	79.600	0.100
524.400	75.112	0.100
524.500	73.877	0.100
524.600	75.084	0.100
524.700	56.403	0.100
524.800	68.496	0.100
524.900	61.779	0.100
525.000	68.882	0.100
525.100	66.539	0.100
525.200	74.522	0.100
525.300	71.744	0.100
525.400	72.397	0.100
525.500	60.372	0.100
525.600	73.420	0.100
525.700	76.192	0.100
525.800	61.463	0.100
525.900	66.940	0.100
526.000	62.263	0.100
526.100	67.453	0.100
526.200	68.855	0.100
526.300	64.792	0.100
526.400	60.360	0.100
526.500	60.745	0.100
526.600	65.740	0.100
526.700	60.052	0.100
526.800	55.509	0.100
526.900	77.385	0.100
527.000	66.623	0.100
527.100	67.077	0.100
527.200	74.143	0.100
527.300	63.930	0.100
527.400	61.772	0.100
527.500	55.834	0.100
527.600	49.347	0.100
527.700	77.596	0.100
527.800	52.993	0.100
527.900	67.479	0.100
528.000	67.263	0.100
528.100	54.738	0.100
528.200	62.957	0.100
528.300	57.934	0.100
528.400	75.370	0.100
528.500	65.428	0.100
528.600	58.885	0.100
528.700	71.049	0.100
528.800	61.067	0.100
528.900	70.613	0.100
529.000	68.976	0.100
529.100	60.886	0.100
529.200	63.248	0.100
529.300	69.341	0.100
529.400	53.705	0.100
529.500	62.316	0.100
529.600	72.069	0.100
529.700	77.491	0.100
529.800	61.394	0.100
529.900	80.057	0.100
530.000	66.023	0.100
530.100	59.507	0.100
530.200	76.102	0.100
530.300	61.232	0.100
530.400	65.657	0.100
530.500	64.413	0.100
530.600	67.730	0.100
530.700	55.574	0.100
530.800	71.220	0.100
530.900	70.545	0.100
531.000	71.455	0.100
531.100	65.881	0.100
531.200	58.042	0.100
531.300	63.322	0.100
531.400	63.497	0.100
531.500	61.575	0.100
531.600	64.879	0.100
531.700	59.779	0.100
531.800	63.956	0.100
531.900	68.364	0.100
532.000	82.706	0.100
532.100	68.959	0.100
532.200	65.457	0.100
532.300	72.648	0.100
532.400	64.481	0.100
532.500	62.066	0.100
532.600	66.118	0.100
532.700	60.909	0.100
532.800	72.986	0.100
532.900	67.269	0.100
533.000	62.196	0.100
533.100	64.359	0.100
533.200	75.823	0.100
533.300	79.105	0.100
533.400	74.205	0.100
533.500	59.400	0.100
533.600	57.032	0.100
533.700	70.479	0.100
533.800	63.159	0.100
533.900	74.133	0.100
534.000	64.921	0.100
534.100	71.869	0.100
534.200	63.703	0.100
534.300	60.213	0.100
534.400	63.157	0.100
534.500	69.678	0.100
534.600	66.878	0.100
534.700	63.387	0.100
534.800	58.055	0.100
534.900	72.878	0.100
535.000	49.330	0.100
535.100	66.686	0.100
535.200	64.440	0.100
535.300	60.470	0.100
535.400	63.600	0.100
535.500	71.015	0.100
535.600	68.573	0.100
535.700	53.615	0.100
535.800	63.501	0.100
535.900	79.569	0.100
536.000	61.364	0.100
536.100	61.677	0.100
536.200	63.701	0.100
536.300	76.410	0.100
536.400	71.824	0.100
536.500	65.504	0.100
536.600	51.726	0.100
536.700	56.125	0.100
536.800	77.221	0.100
536.900	63.260	0.100
537.000	60.660	0.100
537.100	68.109	0.100
537.200	74.806	0.100
537.300	71.222	0.100
537.400	62.855	0.100
537.500	64.491	0.100
537.600	70.532	0.100
537.700	62.345	0.100
537.800	69.099	0.100
537.900	46.123	0.100
538.000	65.098	0.100
538.100	66.660	0.100
538.200	69.603	0.100
538.300	67.180	0.100
538.400	62.492	0.100
538.500	70.821	0.100
538.600	59.387	0.100
538.700	66.427	0.100
538.800	66.466	0.100
538.900	79.553	0.100
539.000	70.285	0.100
539.100	74.377	0.100
539.200	60.883	0.100
539.300	51.827	0.100
539.400	66.467	0.100
539.500	70.008	0.100
539.600	66.497	0.100
539.700	67.515	0.100
539.800	62.883	0.100
539.900	63.301	0.100
540.000	66.839	0.100
540.100	73.326	0.100
540.200	61.847	0.100
540.300	44.041	0.100
540.400	51.270	0.100
540.500	48.230	0.100
540.600	46.420	0.100
540.700	28.127	0.100
540.800	41.018	0.100
540.900	32.859	0.100
541.000	26.539	0.100
541.100	23.594	0.100
541.200	13.085	0.100
541.300	19.529	0.100
541.400	13.454	0.100
541.500	-6.879	0.100
541.600	5.237	0.100
541.700	-1.753	0.100
541.800	-0.714	0.100
541.900	-3.662	0.100
542.000	-5.762	0.100
542.100	-3.306	0.100
542.200	-17.145	0.100
542.300	-12.059	0.100
542.400	-10.913	0.100
542.500	-11.535	0.100
542.600	-16.222	0.100
542.700	-13.377	0.100
542.800	-13.742	0.100
542.900	-13.161	0.100
543.000	-32.479	0.100
543.100	-24.948	0.100
543.200	-17.734	0.100
543.300	-21.504	0.100
543.400	-28.964	0.100
543.500	-31.433	0.100
543.600	-32.974	0.100
543.700	-28.686	0.100
543.800	-22.650	0.100
543.900	-36.962	0.100
544.000	-31.844	0.100
544.100	-35.000	0.100
544.200	-44.802	0.100
544.300	-44.702	0.100
544.400	-31.361	0.100
544.500	-37.576	0.100
544.600	-34.412	0.100
544.700	-33.729	0.100
544.800	-42.235	0.100
544.900	-37.015	0.100
545.000	-43.597	0.100
545.100	-41.889	0.100
545.200	-42.758	0.100
545.300	-43.716	0.100
545.400	-38.780	0.100
545.500	-33.570	0.100
545.600	-35.738	0.100
545.700	-42.113	0.100
545.800	-47.675	0.100
545.900	-47.275	0.100
546.000	-37.062	0.100
546.100	-41.719	0.100
546.200	-41.367	0.100
546.300	-30.900	0.100
546.400	-41.728	0.100
546.500	-27.830	0.100
546.600	-44.458	0.100
546.700	-21.757	0.100
546.800	-31.455	0.100
546.900	-50.727	0.100
547.000	-32.526	0.100
547.100	-21.025	0.100
547.200	-28.921	0.100
547.300	-40.548	0.100
547.400	-48.223	0.100
547.500	-36.893	0.100
547.600	-38.262	0.100
547.700	-42.222	0.100
547.800	-33.269	0.100
547.900	-27.244	0.100
548.000	-24.832	0.100
548.100	-39.817	0.100
548.200	-32.591	0.100
548.300	-34.431	0.100
548.400	-32.579	0.100
548.500	-36.087	0.100
548.600	-29.245	0.100
548.700	-23.815	0.100
548.800	-27.708	0.100
548.900	-30.791	0.100
549.000	-32.586	0.100
549.100	-30.978	0.100
549.200	-27.473	0.100
549.300	-35.486	0.100
549.400	-28.840	0.100
549.500	-24.521	0.100
549.600	-28.372	0.100
549.700	-32.738	0.100
549.800	-34.608	0.100
549.900	-31.957	0.100
550.000	-27.685	0.100
550.100	-20.019	0.100
550.200	-18.876	0.100
550.300	-20.066	0.100
550.400	-24.542	0.100
550.500	-38.253	0.100
550.600	-22.251	0.100
550.700	-32.689	0.100
550.800	-24.115	0.100
550.900	-17.625	0.100
551.000	-23.612	0.100
551.100	-31.172	0.100
551.200	-31.252	0.100
551.300	-33.978	0.100
551.400	-37.845	0.100
551.500	-22.309	0.100
551.600	-21.227	0.100
551.700	-42.239	0.100
551.800	-23.385	0.100
551.900	-22.568	0.100
552.000	-36.982	0.100
552.100	-28.257	0.100
552.200	-16.805	0.100
552.300	-18.219	0.100
552.400	-31.077	0.100
552.500	-34.824	0.100
552.600	-19.471	0.100
552.700	-29.562	0.100
552.800	-32.536	0.100
552.900	-34.012	0.100
553.000	-10.629	0.100
553.100	-26.674	0.100
553.200	-25.870	0.100
553.300	-29.930	0.100
553.400	-26.144	0.100
553.500	-22.516	0.100
553.600	-29.145	0.100
553.700	-31.112	0.100
553.800	-25.055	0.100
553.900	-16.279	0.100
554.000	-29.127	0.100
554.100	-27.644	0.100
554.200	-35.607	0.100
554.300	-37.865	0.100
554.400	-28.174	0.100
554.500	-23.948	0.100
554.600	-40.456	0.100
554.700	-35.266	0.100
554.800	-36.458	0.100
554.900	-32.511	0.100
555.000	-34.195	0.100
555.100	-34.467	0.100
555.200	-30.812	0.100
555.300	-32.271	0.100
555.400	-25.422	0.100
555.500	-28.757	0.100
555.600	-30.215	0.100
555.700	-14.862	0.100
555.800	-22.015	0.100
555.900	-37.062	0.100
556.000	-29.804	0.100
556.100	-24.733	0.100
556.200	-29.893	0.100
556.300	-28.649	0.100
556.400	-15.667	0.100
556.500	-24.948	0.100
556.600	-30.953	0.100
556.700	-24.443	0.100
556.800	-24.020	0.100
556.900	-30.489	0.100
557.000	-21.222	0.100
557.100	-26.311	0.100
557.200	-35.397	0.100
557.300	-33.245	0.100
557.400	-39.879	0.100
557.500	-23.891	0.100
557.600	-33.888	0.100
557.700	-37.227	0.100
557.800	-26.190	0.100
557.900	-25.492	0.100
558.000	-32.955	0.100
558.100	-26.762	0.100
558.200	-46.609	0.100
558.300	-20.106	0.100
558.400	-29.892	0.100
558.500	-31.792	0.100
558.600	-37.327	0.100
558.700	-34.100	0.100
558.800	-29.707	0.100
558.900	-23.325	0.100
559.000	-41.055	0.100
559.100	-40.740	0.100
559.200	-34.138	0.100
559.300	-35.116	0.100
559.400	-32.884	0.100
559.500	-38.047	0.100
559.600	-27.699	0.100
559.700	-30.416	0.100
559.800	-31.152	0.100
559.900	-30.254	0.100
560.000	-21.194	0.100
560.100	-32.891	0.100
560.200	-27.488	0.100
560.300	-35.477	0.100
560.400	-45.579	0.100
560.500	-35.110	0.100
560.600	-21.665	0.100
560.700	-31.026	0.100
560.800	-37.764	0.100
560.900	-42.033	0.100
561.000	-24.063	0.100
561.100	-21.599	0.100
561.200	-41.103	0.100
561.300	-31.505	0.100
561.400	-39.160	0.100
561.500	-35.863	0.100
561.600	-33.093	0.100
561.700	-34.331	0.100
561.800	-21.958	0.100
561.900	-36.124	0.100
562.000	-43.744	0.100
562.100	-39.634	0.100
562.200	-42.080	0.100
562.300	-32.353	0.100
562.400	-43.617	0.100
562.500	-27.427	0.100
562.600	-34.048	0.100
562.700	-35.062	0.100
562.800	-33.707	0.100
562.900	-38.630	0.100
563.000	-39.926	0.100
563.100	-37.553	0.100
563.200	-33.459	0.100
563.300	-40.964	0.100
563.400	-30.460	0.100
563.500	-41.441	0.100
563.600	-31.874	0.100
563.700	-47.235	0.100
563.800	-26.538	0.100
563.900	-31.371	0.100
564.000	-42.135	0.100
564.100	-37.809	0.100
564.200	-45.891	0.100
564.300	-44.106	0.100
564.400	-45.297	0.100
564.500	-28.737	0.100
564.600	-36.165	0.100
564.700	-32.868	0.100
564.800	-34.537	0.100
564.900	-35.346	0.100
565.000	-39.154	0.100
565.100	-43.969	0.100
565.200	-40.511	0.100
565.300	-38.491	0.100
565.400	-26.486	0.100
565.500	-35.690	0.100
565.600	-47.014	0.100
565.700	-29.739	0.100
565.800	-39.314	0.100
565.900	-35.192	0.100
566.000	-35.978	0.100
566.100	-42.055	0.100
566.200	-39.171	0.100
566.300	-38.315	0.100
566.400	-35.180	0.100
566.500	-38.992	0.100
566.600	-36.909	0.100
566.700	-36.879	0.100
566.800	-37.637	0.100
566.900	-39.029	0.100
567.000	-43.452	0.100
567.100	-40.079	0.100
567.200	-32.804	0.100
567.300	-32.829	0.100
567.400	-45.275	0.100
567.500	-26.756	0.100
567.600	-31.393	0.100
567.700	-48.063	0.100
567.800	-52.444	0.100
567.900	-42.289	0.100
568.000	-31.377	0.100
568.100	-35.922	0.100
568.200	-31.074	0.100
568.300	-37.186	0.100
568.400	-40.633	0.100
568.500	-42.219	0.100
568.600	-56.044	0.100
568.700	-46.483	0.100
568.800	-48.860	0.100
568.900	-37.079	0.100
569.000	-38.111	0.100
569.100	-45.163	0.100
569.200	-35.845	0.100
569.300	-39.276	0.100
569.400	-40.863	0.100
569.500	-48.293	0.100
569.600	-38.251	0.100
569.700	-34.097	0.100
569.800	-38.993	0.100
569.900	-45.617	0.100
570.000	-40.144	0.100
570.100	-36.946	0.100
570.200	-51.176	0.100
570.300	-43.642	0.100
570.400	-44.272	0.100
570.500	-38.742	0.100
570.600	-55.065	0.100
570.700	-36.667	0.100
570.800	-48.866	0.100
570.900	-48.612	0.100
571.000	-42.612	0.100
571.100	-46.230	0.100
571.200	-43.227	0.100
571.300	-36.864	0.100
571.400	-39.684	0.100
571.500	-34.825	0.100
571.600	-41.395	0.100
571.700	-58.084	0.100
571.800	-31.506	0.100
571.900	-45.887	0.100
572.000	-41.504	0.100
572.100	-37.148	0.100
572.200	-45.501	0.100
572.300	-42.083	0.100
572.400	-37.343	0.100
572.500	-39.099	0.100
572.600	-47.660	0.100
572.700	-42.911	0.100
572.800	-35.023	0.100
572.900	-50.544	0.100
573.000	-41.338	0.100
573.100	-38.650	0.100
573.200	-48.436	0.100
573.300	-38.757	0.100
573.400	-50.597	0.100
573.500	-49.389	0.100
573.600	-51.224	0.100
573.700	-50.155	0.100
573.800	-41.214	0.100
573.900	-43.773	0.100
574.000	-38.803	0.100
574.100	-42.758	0.100
574.200	-42.699	0.100
574.300	-52.241	0.100
574.400	-43.240	0.100
574.500	-33.692	0.100
574.600	-35.438	0.100
574.700	-40.739	0.100
574.800	-50.635	0.100
574.900	-31.007	0.100
575.000	-34.021	0.100
575.100	-38.015	0.100
575.200	-42.561	0.100
575.300	-49.324	0.100
575.400	-54.897	0.100
575.500	-30.554	0.100
575.600	-31.654	0.100
575.700	-46.704	0.100
575.800	-31.560	0.100
575.900	-44.355	0.100
576.000	-40.084	0.100
576.100	-44.702	0.100
576.200	-46.341	0.100
576.300	-40.533	0.100
576.400	-43.833	0.100
576.500	-47.605	0.100
576.600	-59.476	0.100
576.700	-52.853	0.100
576.800	-53.244	0.100
576.900	-39.116	0.100
577.000	-43.302	0.100
577.100	-45.106	0.100
577.200	-37.580	0.100
577.300	-44.797	0.100
577.400	-37.608	0.100
577.500	-38.635	0.100
577.600	-54.117	0.100
577.700	-45.764	0.100
577.800	-42.013	0.100
577.900	-46.092	0.100
578.000	-47.593	0.100
578.100	-35.643	0.100
578.200	-44.937	0.100
578.300	-43.273	0.100
578.400	-38.386	0.100
578.500	-44.469	0.100
578.600	-50.358	0.100
578.700	-38.900	0.100
578.800	-41.429	0.100
578.900	-46.828	0.100
579.000	-44.054	0.100
579.100	-35.765	0.100
579.200	-42.916	0.100
579.300	-35.961	0.100
579.400	-38.513	0.100
579.500	-50.466	0.100
579.600	-50.051	0.100
579.700	-44.460	0.100
579.800	-34.452	0.100
579.900	-31.915	0.100
580.000	-40.220	0.100
580.100	-41.736	0.100
580.200	-40.422	0.100
580.300	-37.953	0.100
580.400	-45.152	0.100
580.500	-38.823	0.100
580.600	-47.656	0.100
580.700	-45.759	0.100
580.800	-42.486	0.100
580.900	-52.288	0.100
581.000	-37.536	0.100
581.100	-42.973	0.100
581.200	-43.613	0.100
581.300	-48.298	0.100
581.400	-31.686	0.100
581.500	-32.300	0.100
581.600	-49.498	0.100
581.700	-37.299	0.100
581.800	-45.732	0.100
581.900	-38.059	0.100
582.000	-57.412	0.100
582.100	-47.840	0.100
582.200	-39.042	0.100
582.300	-28.225	0.100
582.400	-39.961	0.100
582.500	-48.652	0.100
582.600	-40.709	0.100
582.700	-40.229	0.100
582.800	-34.689	0.100
582.900	-45.476	0.100
583.000	-51.404	0.100
583.100	-44.858	0.100
583.200	-43.410	0.100
583.300	-40.294	0.100
583.400	-34.498	0.100
583.500	-55.810	0.100
583.600	-43.643	0.100
583.700	-39.324	0.100
583.800	-44.624	0.100
583.900	-41.057	0.100
584.000	-38.643	0.100
584.100	-45.394	0.100
584.200	-36.973	0.100
584.300	-31.923	0.100
584.400	-35.659	0.100
584.500	-37.331	0.100
584.600	-43.848	0.100
584.700	-41.953	0.100
584.800	-33.325	0.100
584.900	-35.483	0.100
585.000	-34.945	0.100
585.100	-36.760	0.100
585.200	-37.304	0.100
585.300	-46.306	0.100
585.400	-33.520	0.100
585.500	-45.004	0.100
585.600	-43.083	0.100
585.700	-43.989	0.100
585.800	-39.703	0.100
585.900	-38.526	0.100
586.000	-34.445	0.100
586.100	-24.514	0.100
586.200	-42.563	0.100
586.300	-44.289	0.100
586.400	-48.203	0.100
586.500	-38.150	0.100
586.600	-27.788	0.100
586.700	-46.040	0.100
586.800	-33.018	0.100
586.900	-32.360	0.100
587.000	-36.083	0.100
587.100	-49.292	0.100
587.200	-37.646	0.100
587.300	-39.945	0.100
587.400	-43.564	0.100
587.500	-25.009	0.100
587.600	-48.448	0.100
587.700	-46.415	0.100
587.800	-35.774	0.100
587.900	-32.824	0.100
588.000	-39.158	0.100
588.100	-45.547	0.100
588.200	-37.174	0.100
588.300	-39.235	0.100
588.400	-40.127	0.100
588.500	-38.500	0.100
588.600	-40.431	0.100
588.700	-42.673	0.100
588.800	-26.719	0.100
588.900	-44.118	0.100
589.000	-43.584	0.100
589.100	-40.064	0.100
589.200	-39.518	0.100
589.300	-31.251	0.100
589.400	-56.544	0.100
589.500	-42.297	0.100
589.600	-37.936	0.100
589.700	-39.150	0.100
589.800	-40.334	0.100
589.900	-28.219	0.100
590.000	-31.954	0.100
590.100	-44.402	0.100
590.200	-50.577	0.100
590.300	-38.936	0.100
590.400	-42.033	0.100
590.500	-30.995	0.100
590.600	-40.364	0.100
590.700	-36.402	0.100
590.800	-34.128	0.100
590.900	-35.099	0.100
591.000	-40.062	0.100
591.100	-33.452	0.100
591.200	-37.514	0.100
591.300	-30.529	0.100
591.400	-38.806	0.100
591.500	-45.441	0.100
591.600	-32.888	0.100
591.700	-29.064	0.100
591.800	-32.812	0.100
591.900	-42.084	0.100
592.000	-45.428	0.100
592.100	-40.596	0.100
592.200	-46.307	0.100
592.300	-39.971	0.100
592.400	-33.122	0.100
592.500	-36.679	0.100
592.600	-37.605	0.100
592.700	-41.479	0.100
592.800	-39.758	0.100
592.900	-37.555	0.100
593.000	-28.340	0.100
593.100	-44.332	0.100
593.200	-33.650	0.100
593.300	-32.882	0.100
593.400	-37.976	0.100
593.500	-33.573	0.100
593.600	-36.166	0.100
593.700	-40.341	0.100
593.800	-42.545	0.100
593.900	-44.150	0.100
594.000	-46.073	0.100
594.100	-26.033	0.100
594.200	-33.227	0.100
594.300	-40.391	0.100
594.400	-40.126	0.100
594.500	-33.980	0.100
594.600	-38.172	0.100
594.700	-47.153	0.100
594.800	-32.570	0.100
594.900	-33.744	0.100
595.000	-35.721	0.100
595.100	-39.216	0.100
595.200	-43.371	0.100
595.300	-23.859	0.100
595.400	-40.346	0.100
595.500	-43.859	0.100
595.600	-33.487	0.100
595.700	-35.807	0.100
595.800	-42.536	0.100
595.900	-29.953	0.100
596.000	-41.972	0.100
596.100	-43.108	0.100
596.200	-25.047	0.100
596.300	-31.581	0.100
596.400	-38.421	0.100
596.500	-42.679	0.100
596.600	-37.171	0.100
596.700	-33.249	0.100
596.800	-47.108	0.100
596.900	-45.316	0.100
597.000	-35.741	0.100
597.100	-41.988	0.100
597.200	-31.887	0.100
597.300	-28.998	0.100
597.400	-37.483	0.100
597.500	-45.417	0.100
597.600	-40.283	0.100
597.700	-46.501	0.100
597.800	-39.204	0.100
597.900	-30.131	0.100
598.000	-43.147	0.100
598.100	-36.599	0.100
598.200	-23.794	0.100
598.300	-46.051	0.100
598.400	-38.124	0.100
598.500	-33.056	0.100
598.600	-29.284	0.100
598.700	-33.637	0.100
598.800	-29.008	0.100
598.900	-29.770	0.100
599.000	-34.870	0.100
599.100	-27.881	0.100
599.200	-31.380	0.100
599.300	-36.989	0.100
599.400	-37.674	0.100
599.500	-30.409	0.100
599.600	-42.617	0.100
599.700	-43.456	0.100
599.800	-23.329	0.100
599.900	-28.808	0.100
600.000	-35.283	0.100
600.100	-29.454	0.100
600.200	-25.589	0.100
600.300	-37.135	0.100
600.400	-30.173	0.100
600.500	-32.327	0.100
600.600	-24.209	0.100
600.700	-34.385	0.100
600.800	-25.230	0.100
600.900	-39.869	0.100
601.000	-28.694	0.100
601.100	-32.530	0.100
601.200	-29.545	0.100
601.300	-28.429	0.100
601.400	-39.339	0.100
601.500	-29.780	0.100
601.600	-42.207	0.100
601.700	-34.430	0.100
601.800	-35.458	0.100
601.900	-30.964	0.100
602.000	-54.300	0.100
602.100	-33.142	0.100
602.200	-27.106	0.100
602.300	-33.103	0.100
602.400	-32.766	0.100
602.500	-37.697	0.100
602.600	-41.467	0.100
602.700	-41.124	0.100
602.800	-17.282	0.100
602.900	-30.935	0.100
603.000	-33.534	0.100
603.100	-33.279	0.100
603.200	-28.083	0.100
603.300	-23.539	0.100
603.400	-35.087	0.100
603.500	-28.743	0.100
603.600	-29.020	0.100
603.700	-41.038	0.100
603.800	-36.383	0.100
603.900	-37.603	0.100
604.000	-29.962	0.100
604.100	-22.840	0.100
604.200	-33.613	0.100
604.300	-35.907	0.100
604.400	-31.696	0.100
604.500	-30.389	0.100
604.600	-32.302	0.100
604.700	-30.059	0.100
604.800	-33.248	0.100
604.900	-36.075	0.100
605.000	-36.354	0.100
605.100	-32.770	0.100
605.200	-45.820	0.100
605.300	-19.253	0.100
605.400	-37.200	0.100
605.500	-32.032	0.100
605.600	-36.099	0.100
605.700	-39.983	0.100
605.800	-16.786	0.100
605.900	-38.854	0.100
606.000	-27.912	0.100
606.100	-15.888	0.100
606.200	-30.715	0.100
606.300	-42.141	0.100
606.400	-35.167	0.100
606.500	-20.727	0.100
606.600	-27.077	0.100
606.700	-29.233	0.100
606.800	-35.699	0.100
606.900	-34.667	0.100
607.000	-29.311	0.100
607.100	-36.260	0.100
607.200	-32.861	0.100
607.300	-32.022	0.100
607.400	-34.560	0.100
607.500	-32.559	0.100
607.600	-33.844	0.100
607.700	-28.741	0.100
607.800	-18.370	0.100
607.900	-36.903	0.100
608.000	-36.724	0.100
608.100	-24.718	0.100
608.200	-23.593	0.100
608.300	-24.551	0.100
608.400	-37.343	0.100
608.500	-24.863	0.100
608.600	-39.419	0.100
608.700	-36.892	0.100
608.800	-36.467	0.100
608.900	-29.418	0.100
609.000	-33.266	0.100
609.100	-26.808	0.100
609.200	-35.869	0.100
609.300	-31.553	0.100
609.400	-33.022	0.100
609.500	-26.299	0.100
609.600	-32.741	0.100
609.700	-27.908	0.100
609.800	-32.364	0.100
609.900	-31.921	0.100
610.000	-25.319	0.100
610.100	-23.767	0.100
610.200	-23.925	0.100
610.300	-28.576	0.100
610.400	-23.776	0.100
610.500	-29.769	0.100
610.600	-24.761	0.100
610.700	-25.931	0.100
610.800	-26.541	0.100
610.900	-39.649	0.100
611.000	-17.936	0.100
611.100	-26.706	0.100
611.200	-27.829	0.100
611.300	-35.803	0.100
611.400	-21.809	0.100
611.500	-25.172	0.100
611.600	-29.032	0.100
611.700	-29.506	0.100
611.800	-21.115	0.100
611.900	-31.819	0.100
612.000	-38.606	0.100
612.100	-31.409	0.100
612.200	-28.653	0.100
612.300	-22.291	0.100
612.400	-31.869	0.100
612.500	-32.366	0.100
612.600	-25.542	0.100
612.700	-44.181	0.100
612.800	-24.015	0.100
612.900	-29.736	0.100
613.000	-19.956	0.100
613.100	-26.439	0.100
613.200	-25.154	0.100
613.300	-28.862	0.100
613.400	-30.017	0.100
613.500	-32.920	0.100
613.600	-33.431	0.100
613.700	-29.819	0.100
613.800	-22.278	0.100
613.900	-28.951	0.100
614.000	-27.731	0.100
614.100	-19.378	0.100
614.200	-41.973	0.100
614.300	-27.724	0.100
614.400	-28.358	0.100
614.500	-32.484	0.100
614.600	-28.389	0.100
614.700	-29.779	0.100
614.800	-28.572	0.100
614.900	-30.353	0.100
615.000	-25.699	0.100
615.100	-34.779	0.100
615.200	-19.522	0.100
615.300	-21.211	0.100
615.400	-20.701	0.100
615.500	-24.547	0.100
615.600	-44.553	0.100
615.700	-26.886	0.100
615.800	-28.694	0.100
615.900	-37.176	0.100
616.000	-28.104	0.100
616.100	-20.735	0.100
616.200	-24.815	0.100
616.300	-22.277	0.100
616.400	-23.469	0.100
616.500	-10.530	0.100
616.600	-21.121	0.100
616.700	-25.162	0.100
616.800	-38.572	0.100
616.900	-30.139	0.100
617.000	-30.612	0.100
617.100	-34.341	0.100
617.200	-23.058	0.100
617.300	-18.863	0.100
617.400	-27.302	0.100
617.500	-35.687	0.100
617.600	-28.913	0.100
617.700	-23.061	0.100
617.800	-20.717	0.100
617.900	-21.007	0.100
618.000	-27.139	0.100
618.100	-30.952	0.100
618.200	-38.734	0.100
618.300	-30.559	0.100
618.400	-20.916	0.100
618.500	-27.317	0.100
618.600	-30.702	0.100
618.700	-27.601	0.100
618.800	-33.070	0.100
618.900	-35.304	0.100
619.000	-20.652	0.100
619.100	-19.319	0.100
619.200	-21.136	0.100
619.300	-29.530	0.100
619.400	-42.842	0.100
619.500	-25.474	0.100
619.600	-22.531	0.100
619.700	-27.031	0.100
619.800	-17.004	0.100
619.900	-33.337	0.100
620.000	-33.119	0.100
620.100	-28.229	0.100
620.200	-25.877	0.100
620.300	-33.275	0.100
620.400	-23.059	0.100
620.500	-29.122	0.100
620.600	-24.364	0.100
620.700	-5.067	0.100
620.800	-20.969	0.100
620.900	-24.770	0.100
621.000	-28.217	0.100
621.100	-31.420	0.100
621.200	-31.569	0.100
621.300	-22.635	0.100
621.400	-35.296	0.100
621.500	-12.307	0.100
621.600	-23.837	0.100
621.700	-26.244	0.100
621.800	-27.485	0.100
621.900	-19.654	0.100
622.000	-14.873	0.100
622.100	-18.173	0.100
622.200	-21.147	0.100
622.300	-32.684	0.100
622.400	-32.207	0.100
622.500	-35.709	0.100
622.600	-18.859	0.100
622.700	-17.997	0.100
622.800	-23.705	0.100
622.900	-18.542	0.100
623.000	-15.632	0.100
623.100	-22.893	0.100
623.200	-29.608	0.100
623.300	-24.300	0.100
623.400	-36.163	0.100
623.500	-9.040	0.100
623.600	-26.535	0.100
623.700	-33.248	0.100
623.800	-32.343	0.100
623.900	-18.686	0.100
624.000	-25.638	0.100
624.100	-19.523	0.100
624.200	-28.716	0.100
624.300	-26.097	0.100
624.400	-17.129	0.100
624.500	-30.294	0.100
624.600	-33.051	0.100
624.700	-21.815	0.100
624.800	-20.272	0.100
624.900	-13.729	0.100
625.000	-25.797	0.100
625.100	-16.419	0.100
625.200	-29.167	0.100
625.300	-17.920	0.100
625.400	-27.940	0.100
625.500	-20.872	0.100
625.600	-26.806	0.100
625.700	-17.434	0.100
625.800	-37.007	0.100
625.900	-31.434	0.100
626.000	-24.914	0.100
626.100	-29.985	0.100
626.200	-18.738	0.100
626.300	-25.804	0.100
626.400	-26.265	0.100
626.500	-16.511	0.100
626.600	-38.160	0.100
626.700	-31.474	0.100
626.800	-22.121	0.100
626.900	-33.463	0.100
627.000	-36.115	0.100
627.100	-29.391	0.100
627.200	-20.820	0.100
627.300	-22.943	0.100
627.400	-24.999	0.100
627.500	-18.840	0.100
627.600	-8.909	0.100
627.700	-23.768	0.100
627.800	-12.834	0.100
627.900	-24.393	0.100
628.000	-16.657	0.100
628.100	-22.319	0.100
628.200	-33.595	0.100
628.300	-18.309	0.100
628.400	-21.169	0.100
628.500	-26.114	0.100
628.600	-32.934	0.100
628.700	-30.484	0.100
628.800	-19.586	0.100
628.900	-25.020	0.100
629.000	-31.693	0.100
629.100	-35.621	0.100
629.200	-21.213	0.100
629.300	-19.397	0.100
629.400	-10.041	0.100
629.500	-29.194	0.100
629.600	-24.367	0.100
629.700	-26.517	0.100
629.800	-36.630	0.100
629.900	-24.586	0.100
630.000	-20.581	0.100
630.100	-15.307	0.100
630.200	-16.036	0.100
630.300	-14.940	0.100
630.400	-19.966	0.100
630.500	-11.061	0.100
630.600	-12.792	0.100
630.700	1.222	0.100
630.800	-2.090	0.100
630.900	1.028	0.100
631.000	4.883	0.100
631.100	9.704	0.100
631.200	18.540	0.100
631.300	20.283	0.100
631.400	19.636	0.100
631.500	30.607	0.100
631.600	28.211	0.100
631.700	21.328	0.100
631.800	37.902	0.100
631.900	34.011	0.100
632.000	30.064	0.100
632.100	42.699	0.100
632.200	32.834	0.100
632.300	34.596	0.100
632.400	36.616	0.100
632.500	34.767	0.100
632.600	30.918	0.100
632.700	29.227	0.100
632.800	44.360	0.100
632.900	35.107	0.100
633.000	37.323	0.100
633.100	41.756	0.100
633.200	32.670	0.100
633.300	28.628	0.100
633.400	35.381	0.100
633.500	27.102	0.100
633.600	35.342	0.100
633.700	46.664	0.100
633.800	39.075	0.100
633.900	49.908	0.100
634.000	42.942	0.100
634.100	40.341	0.100
634.200	35.949	0.100
634.300	35.549	0.100
634.400	28.696	0.100
634.500	31.162	0.100
634.600	36.267	0.100
634.700	28.087	0.100
634.800	31.143	0.100
634.900	25.912	0.100
635.000	42.471	0.100
635.100	28.533	0.100
635.200	41.315	0.100
635.300	36.931	0.100
635.400	39.700	0.100
635.500	29.292	0.100
635.600	43.832	0.100
635.700	28.639	0.100
635.800	25.556	0.100
635.900	30.488	0.100
636.000	38.483	0.100
636.100	27.016	0.100
636.200	44.130	0.100
636.300	28.052	0.100
636.400	32.636	0.100
636.500	40.756	0.100
636.600	54.173	0.100
636.700	38.503	0.100
636.800	33.666	0.100
636.900	32.176	0.100
637.000	35.093	0.100
637.100	47.679	0.100
637.200	44.080	0.100
637.300	36.379	0.100
637.400	53.665	0.100
637.500	45.208	0.100
637.600	43.885	0.100
637.700	43.232	0.100
637.800	53.176	0.100
637.900	29.470	0.100
638.000	42.034	0.100
638.100	52.498	0.100
638.200	53.413	0.100
638.300	53.955	0.100
638.400	53.435	0.100
638.500	39.134	0.100
638.600	46.191	0.100
638.700	46.621	0.100
638.800	40.634	0.100
638.900	57.595	0.100
639.000	65.884	0.100
639.100	53.120	0.100
639.200	57.538	0.100
639.300	51.158	0.100
639.400	52.168	0.100
639.500	61.334	0.100
639.600	52.681	0.100
639.700	58.572	0.100
639.800	45.047	0.100
639.900	62.549	0.100
640.000	65.564	0.100
640.100	65.991	0.100
640.200	54.684	0.100
640.300	68.101	0.100
640.400	64.140	0.100
640.500	49.286	0.100
640.600	50.646	0.100
640.700	68.391	0.100
640.800	72.251	0.100
640.900	65.508	0.100
641.000	72.787	0.100
641.100	62.195	0.100
641.200	80.902	0.100
641.300	73.603	0.100
641.400	87.037	0.100
641.500	77.734	0.100
641.600	72.145	0.100
641.700	77.684	0.100
641.800	67.645	0.100
641.900	63.719	0.100
642.000	67.806	0.100
642.100	72.315	0.100
642.200	80.464	0.100
642.300	79.471	0.100
642.400	74.442	0.100
642.500	79.254	0.100
642.600	67.359	0.100
642.700	74.855	0.100
642.800	76.834	0.100
642.900	91.211	0.100
643.000	87.797	0.100
643.100	88.614	0.100
643.200	84.381	0.100
643.300	74.356	0.100
643.400	87.521	0.100
643.500	70.658	0.100
643.600	87.537	0.100
643.700	83.885	0.100
643.800	98.110	0.100
643.900	90.669	0.100
644.000	96.621	0.100
644.100	87.463	0.100
644.200	88.168	0.100
644.300	81.855	0.100
644.400	94.175	0.100
644.500	82.873	0.100
644.600	90.893	0.100
644.700	94.012	0.100
644.800	85.774	0.100
644.900	93.229	0.100
645.000	97.861	0.100
645.100	107.067	0.100
645.200	101.038	0.100
645.300	99.616	0.100
645.400	83.519	0.100
645.500	96.779	0.100
645.600	100.687	0.100
645.700	98.736	0.100
645.800	84.354	0.100
645.900	94.175	0.100
646.000	91.720	0.100
646.100	95.634	0.100
646.200	91.893	0.100
646.300	97.046	0.100
646.400	99.417	0.100
646.500	89.065	0.100
646.600	88.348	0.100
646.700	92.529	0.100
646.800	87.226	0.100
646.900	95.244	0.100
647.000	94.131	0.100
647.100	83.420	0.100
647.200	102.579	0.100
647.300	93.409	0.100
647.400	80.420	0.100
647.500	82.068	0.100
647.600	89.749	0.100
647.700	93.198	0.100
647.800	100.309	0.100
647.900	79.360	0.100
648.000	86.231	0.100
648.100	81.136	0.100
648.200	91.345	0.100
648.300	80.411	0.100
648.400	89.937	0.100
648.500	94.935	0.100
648.600	94.094	0.100
648.700	81.748	0.100
648.800	83.475	0.100
648.900	91.449	0.100
649.000	102.169	0.100
649.100	88.440	0.100
649.200	75.283	0.100
649.300	85.305	0.100
649.400	75.355	0.100
649.500	85.531	0.100
649.600	101.219	0.100
649.700	89.111	0.100
649.800	83.031	0.100
649.900	85.713	0.100
650.000	88.931	0.100
650.100	89.359	0.100
650.200	84.307	0.100
650.300	92.578	0.100
650.400	86.334	0.100
650.500	83.203	0.100
650.600	70.935	0.100
650.700	82.969	0.100
650.800	92.800	0.100
650.900	88.650	0.100
651.000	93.684	0.100
651.100	92.886	0.100
651.200	84.181	0.100
651.300	71.673	0.100
651.400	79.176	0.100
651.500	86.236	0.100
651.600	93.791	0.100
651.700	79.068	0.100
651.800	90.910	0.100
651.900	93.963	0.100
652.000	76.297	0.100
652.100	75.854	0.100
652.200	81.575	0.100
652.300	73.518	0.100
652.400	83.768	0.100
652.500	85.783	0.100
652.600	92.926	0.100
652.700	78.488	0.100
652.800	68.896	0.100
652.900	75.952	0.100
653.000	75.424	0.100
653.100	80.119	0.100
653.200	90.632	0.100
653.300	73.258	0.100
653.400	83.017	0.100
653.500	86.134	0.100
653.600	85.378	0.100
653.700	80.778	0.100
653.800	72.150	0.100
653.900	85.866	0.100
654.000	92.229	0.100
654.100	82.503	0.100
654.200	76.038	0.100
654.300	69.690	0.100
654.400	94.166	0.100
654.500	82.328	0.100
654.600	80.392	0.100
654.700	74.218	0.100
654.800	79.966	0.100
654.900	75.364	0.100
655.000	78.302	0.100
655.100	84.758	0.100
655.200	79.950	0.100
655.300	74.436	0.100
655.400	75.257	0.100
655.500	83.919	0.100
655.600	71.831	0.100
655.700	76.969	0.100
655.800	78.502	0.100
655.900	79.214	0.100
656.000	76.022	0.100
656.100	92.023	0.100
656.200	81.883	0.100
656.300	79.282	0.100
656.400	81.784	0.100
656.500	77.850	0.100
656.600	69.569	0.100
656.700	85.482	0.100
656.800	71.812	0.100
656.900	73.134	0.100
657.000	69.131	0.100
657.100	77.912	0.100
657.200	68.133	0.100
657.300	72.690	0.100
657.400	69.756	0.100
657.500	67.824	0.100
657.600	76.839	0.100
657.700	84.414	0.100
657.800	78.804	0.100
657.900	82.673	0.100
658.000	63.555	0.100
658.100	86.313	0.100
658.200	76.267	0.100
658.300	73.537	0.100
658.400	87.215	0.100
658.500	69.977	0.100
658.600	68.416	0.100
658.700	76.984	0.100
658.800	77.482	0.100
658.900	66.017	0.100
659.000	60.210	0.100
659.100	77.551	0.100
659.200	78.143	0.100
659.300	79.467	0.100
659.400	74.843	0.100
659.500	72.237	0.100
659.600	79.653	0.100
659.700	73.725	0.100
659.800	77.941	0.100
659.900	68.918	0.100
660.000	58.846	0.100
660.100	83.592	0.100
660.200	70.331	0.100
660.300	76.120	0.100
660.400	76.292	0.100
660.500	80.033	0.100
660.600	77.962	0.100
660.700	88.847	0.100
660.800	71.010	0.100
660.900	63.574	0.100
661.000	92.999	0.100
661.100	87.476	0.100
661.200	69.998	0.100
661.300	85.365	0.100
661.400	78.903	0.100
661.500	77.684	0.100
661.600	71.378	0.100
661.700	83.465	0.100
661.800	67.349	0.100
661.900	71.341	0.100
662.000	65.937	0.100
662.100	67.549	0.100
662.200	62.996	0.100
662.300	78.910	0.100
662.400	72.973	0.100
662.500	66.797	0.100
662.600	83.686	0.100
662.700	77.723	0.100
662.800	69.685	0.100
662.900	73.684	0.100
663.000	73.914	0.100
663.100	76.918	0.100
663.200	83.660	0.100
663.300	70.538	0.100
663.400	71.597	0.100
663.500	70.772	0.100
663.600	62.236	0.100
663.700	80.958	0.100
663.800	73.658	0.100
663.900	58.860	0.100
664.000	70.747	0.100
664.100	59.391	0.100
664.200	68.665	0.100
664.300	76.047	0.100
664.400	80.762	0.100
664.500	72.057	0.100
664.600	77.938	0.100
664.700	68.623	0.100
664.800	79.994	0.100
664.900	75.108	0.100
665.000	68.529	0.100
665.100	74.158	0.100
665.200	76.742	0.100
665.300	74.085	0.100
665.400	76.707	0.100
665.500	75.600	0.100
665.600	70.788	0.100
665.700	66.666	0.100
665.800	77.185	0.100
665.900	68.572	0.100
666.000	64.170	0.100
666.100	61.251	0.100
666.200	66.793	0.100
666.300	69.918	0.100
666.400	67.026	0.100
666.500	72.093	0.100
666.600	65.081	0.100
666.700	69.825	0.100
666.800	64.324	0.100
666.900	69.242	0.100
667.000	76.526	0.100
667.100	70.845	0.100
667.200	61.537	0.100
667.300	68.060	0.100
667.400	74.713	0.100
667.500	57.863	0.100
667.600	77.719	0.100
667.700	64.105	0.100
667.800	75.972	0.100
667.900	73.871	0.100
668.000	75.999	0.100
668.100	62.176	0.100
668.200	77.237	0.100
668.300	77.822	0.100
668.400	69.763	0.100
668.500	67.031	0.100
668.600	67.714	0.100
668.700	66.828	0.100
668.800	67.479	0.100
668.900	77.683	0.100
669.000	74.435	0.100
669.100	70.865	0.100
669.200	76.231	0.100
669.300	65.256	0.100
669.400	71.110	0.100
669.500	74.832	0.100
669.600	67.171	0.100
669.700	65.201	0.100
669.800	80.075	0.100
669.900	60.594	0.100
670.000	73.593	0.100
670.100	69.677	0.100
670.200	63.861	0.100
670.300	65.382	0.100
670.400	70.488	0.100
670.500	74.546	0.100
670.600	62.242	0.100
670.700	72.013	0.100
670.800	65.283	0.100
670.900	64.400	0.100
671.000	70.062	0.100
671.100	55.762	0.100
671.200	70.593	0.100
671.300	56.896	0.100
671.400	68.293	0.100
671.500	57.300	0.100
671.600	61.770	0.100
671.700	65.393	0.100
671.800	79.310	0.100
671.900	84.657	0.100
672.000	74.310	0.100
672.100	74.392	0.100
672.200	72.047	0.100
672.300	71.890	0.100
672.400	76.784	0.100
672.500	70.300	0.100
672.600	69.618	0.100
672.700	78.808	0.100
672.800	56.308	0.100
672.900	71.977	0.100
673.000	62.661	0.100
673.100	56.143	0.100
673.200	60.862	0.100
673.300	74.357	0.100
673.400	61.491	0.100
673.500	64.600	0.100
673.600	60.949	0.100
673.700	69.951	0.100
673.800	71.602	0.100
673.900	84.977	0.100
674.000	65.566	0.100
674.100	67.699	0.100
674.200	65.002	0.100
674.300	69.480	0.100
674.400	64.201	0.100
674.500	65.136	0.100
674.600	65.184	0.100
674.700	66.650	0.100
674.800	75.074	0.100
674.900	67.296	0.100
675.000	75.774	0.100
675.100	58.143	0.100
675.200	63.861	0.100
675.300	77.200	0.100
675.400	67.247	0.100
675.500	67.228	0.100
675.600	50.547	0.100
675.700	54.869	0.100
675.800	74.256	0.100
675.900	73.474	0.100
676.000	65.578	0.100
676.100	59.214	0.100
676.200	77.992	0.100
676.300	69.482	0.100
676.400	63.378	0.100
676.500	54.878	0.100
676.600	56.379	0.100
676.700	64.666	0.100
676.800	68.975	0.100
676.900	66.181	0.100
677.000	72.902	0.100
677.100	65.420	0.100
677.200	57.343	0.100
677.300	74.339	0.100
677.400	63.484	0.100
677.500	73.604	0.100
677.600	62.981	0.100
677.700	61.137	0.100
677.800	69.537	0.100
677.900	60.528	0.100
678.000	71.607	0.100
678.100	77.733	0.100
678.200	67.707	0.100
678.300	56.573	0.100
678.400	57.323	0.100
678.500	66.128	0.100
678.600	79.939	0.100
678.700	76.165	0.100
678.800	67.081	0.100
678.900	62.654	0.100
679.000	67.339	0.100
679.100	65.818	0.100
679.200	66.652	0.100
679.300	68.663	0.100
679.400	78.003	0.100
679.500	71.926	0.100
679.600	72.748	0.100
679.700	69.717	0.100
679.800	62.431	0.100
679.900	66.767	0.100
680.000	65.823	0.100
680.100	64.954	0.100
680.200	78.028	0.100
680.300	66.282	0.100
680.400	66.729	0.100
680.500	63.791	0.100
680.600	63.562	0.100
680.700	54.543	0.100
680.800	54.990	0.100
680.900	56.468	0.100
681.000	62.422	0.100
681.100	67.940	0.100
681.200	66.646	0.100
681.300	74.893	0.100
681.400	79.217	0.100
681.500	62.619	0.100
681.600	63.114	0.100
681.700	58.304	0.100
681.800	67.436	0.100
681.900	77.967	0.100
682.000	61.534	0.100
682.100	79.787	0.100
682.200	76.995	0.100
682.300	74.197	0.100
682.400	63.236	0.100
682.500	53.984	0.100
682.600	59.396	0.100
682.700	54.297	0.100
682.800	67.835	0.100
682.900	65.771	0.100
683.000	69.544	0.100
683.100	65.751	0.100
683.200	77.657	0.100
683.300	76.755	0.100
683.400	64.147	0.100
683.500	65.172	0.100
683.600	67.207	0.100
683.700	66.139	0.100
683.800	60.410	0.100
683.900	69.782	0.100
684.000	62.656	0.100
684.100	56.695	0.100
684.200	60.731	0.100
684.300	66.848	0.100
684.400	76.151	0.100
684.500	69.674	0.100
684.600	72.420	0.100
684.700	53.038	0.100
684.800	74.959	0.100
684.900	81.832	0.100
685.000	60.472	0.100
685.100	73.961	0.100
685.200	64.835	0.100
685.300	49.900	0.100
685.400	65.825	0.100
685.500	63.231	0.100
685.600	59.772	0.100
685.700	55.456	0.100
685.800	56.961	0.100
685.900	55.921	0.100
686.000	72.724	0.100
686.100	57.422	0.100
686.200	63.034	0.100
686.300	62.828	0.100
686.400	71.638	0.100
686.500	70.024	0.100
686.600	70.865	0.100
686.700	67.381	0.100
686.800	49.235	0.100
686.900	59.163	0.100
687.000	65.572	0.100
687.100	64.715	0.100
687.200	60.286	0.100
687.300	65.900	0.100
687.400	69.965	0.100
687.500	58.595	0.100
687.600	66.692	0.100
687.700	64.183	0.100
687.800	72.019	0.100
687.900	70.385	0.100
688.000	65.685	0.100
688.100	71.439	0.100
688.200	70.829	0.100
688.300	62.921	0.100
688.400	77.879	0.100
688.500	64.039	0.100
688.600	53.168	0.100
688.700	71.797	0.100
688.800	60.554	0.100
688.900	56.217	0.100
689.000	74.359	0.100
689.100	65.163	0.100
689.200	68.527	0.100
689.300	65.425	0.100
689.400	62.046	0.100
689.500	59.127	0.100
689.600	59.435	0.100
689.700	70.026	0.100
689.800	73.044	0.100
689.900	70.104	0.100
690.000	68.321	0.100
690.100	56.688	0.100
690.200	54.176	0.100
690.300	74.240	0.100
690.400	44.214	0.100
690.500	63.094	0.100
690.600	45.141	0.100
690.700	25.735	0.100
690.800	29.023	0.100
690.900	30.622	0.100
691.000	20.277	0.100
691.100	32.335	0.100
691.200	19.717	0.100
691.300	16.924	0.100
691.400	18.590	0.100
691.500	3.373	0.100
691.600	3.670	0.100
691.700	-5.316	0.100
691.800	2.813	0.100
691.900	-8.972	0.100
692.000	5.397	0.100
692.100	1.910	0.100
692.200	-4.971	0.100
692.300	-6.549	0.100
692.400	-14.074	0.100
692.500	-22.514	0.100
692.600	-16.754	0.100
692.700	-19.816	0.100
692.800	-29.978	0.100
692.900	-28.441	0.100
693.000	-16.144	0.100
693.100	-32.916	0.100
693.200	-20.906	0.100
693.300	-29.177	0.100
693.400	-13.427	0.100
693.500	-30.034	0.100
693.600	-24.887	0.100
693.700	-37.970	0.100
693.800	-34.671	0.100
693.900	-38.749	0.100
694.000	-35.949	0.100
694.100	-22.797	0.100
694.200	-24.766	0.100
694.300	-29.589	0.100
694.400	-40.519	0.100
694.500	-37.216	0.100
694.600	-38.233	0.100
694.700	-28.916	0.100
694.800	-39.309	0.100
694.900	-43.373	0.100
695.000	-41.876	0.100
695.100	-42.235	0.100
695.200	-24.262	0.100
695.300	-48.290	0.100
695.400	-46.353	0.100
695.500	-32.564	0.100
695.600	-36.144	0.100
695.700	-45.044	0.100
695.800	-41.351	0.100
695.900	-36.205	0.100
696.000	-45.574	0.100
696.100	-35.277	0.100
696.200	-41.841	0.100
696.300	-29.516	0.100
696.400	-45.167	0.100
696.500	-32.714	0.100
696.600	-42.387	0.100
696.700	-32.376	0.100
696.800	-30.517	0.100
696.900	-49.999	0.100
697.000	-38.133	0.100
697.100	-33.179	0.100
697.200	-31.255	0.100
697.300	-41.077	0.100
697.400	-28.254	0.100
697.500	-21.960	0.100
697.600	-34.363	0.100
697.700	-37.727	0.100
697.800	-45.672	0.100
697.900	-32.304	0.100
698.000	-25.875	0.100
698.100	-21.692	0.100
698.200	-25.159	0.100
698.300	-36.998	0.100
698.400	-37.629	0.100
698.500	-39.653	0.100
698.600	-35.889	0.100
698.700	-33.635	0.100
698.800	-23.819	0.100
698.900	-30.145	0.100
699.000	-29.000	0.100
699.100	-26.405	0.100
699.200	-29.707	0.100
699.300	-35.808	0.100
699.400	-41.031	0.100
699.500	-31.596	0.100
699.600	-27.026	0.100
699.700	-40.656	0.100
699.800	-25.047	0.100
699.900	-24.368	0.100
700.000	-32.710	0.100
700.100	-29.658	0.100
700.200	-32.882	0.100
700.300	-27.020	0.100
700.400	-28.990	0.100
700.500	-16.486	0.100
700.600	-28.864	0.100
700.700	-48.599	0.100
700.800	-34.903	0.100
700.900	-28.769	0.100
701.000	-38.173	0.100
701.100	-37.435	0.100
701.200	-9.207	0.100
701.300	-24.753	0.100
701.400	-28.303	0.100
701.500	-38.566	0.100
701.600	-25.111	0.100
701.700	-35.334	0.100
701.800	-21.089	0.100
701.900	-32.626	0.100
702.000	-29.322	0.100
702.100	-30.232	0.100
702.200	-25.772	0.100
702.300	-32.968	0.100
702.400	-40.572	0.100
702.500	-25.707	0.100
702.600	-31.022	0.100
702.700	-40.593	0.100
702.800	-26.415	0.100
702.900	-22.214	0.100
703.000	-34.645	0.100
703.100	-20.865	0.100
703.200	-31.040	0.100
703.300	-36.608	0.100
703.400	-32.539	0.100
703.500	-34.160	0.100
703.600	-36.282	0.100
703.700	-34.664	0.100
703.800	-40.209	0.100
703.900	-29.487	0.100
704.000	-28.810	0.100
704.100	-19.228	0.100
704.200	-23.716	0.100
704.300	-32.591	0.100
704.400	-33.721	0.100
704.500	-18.091	0.100
704.600	-38.975	0.100
704.700	-33.053	0.100
704.800	-37.548	0.100
704.900	-29.032	0.100
705.000	-25.798	0.100
705.100	-40.196	0.100
705.200	-48.548	0.100
705.300	-30.753	0.100
705.400	-29.858	0.100
705.500	-33.862	0.100
705.600	-36.395	0.100
705.700	-45.477	0.100
705.800	-34.529	0.100
705.900	-25.517	0.100
706.000	-19.038	0.100
706.100	-24.654	0.100
706.200	-40.410	0.100
706.300	-16.237	0.100
706.400	-31.047	0.100
706.500	-33.111	0.100
706.600	-36.826	0.100
706.700	-32.485	0.100
706.800	-31.785	0.100
706.900	-14.990	0.100
707.000	-38.921	0.100
707.100	-25.279	0.100
707.200	-26.885	0.100
707.300	-29.812	0.100
707.400	-33.816	0.100
707.500	-38.755	0.100
707.600	-33.040	0.100
707.700	-50.720	0.100
707.800	-34.023	0.100
707.900	-31.329	0.100
708.000	-29.428	0.100
708.100	-31.571	0.100
708.200	-37.372	0.100
708.300	-40.017	0.100
708.400	-32.372	0.100
708.500	-25.806	0.100
708.600	-23.829	0.100
708.700	-33.939	0.100
708.800	-30.115	0.100
708.900	-48.564	0.100
709.000	-34.092	0.100
709.100	-38.948	0.100
709.200	-24.335	0.100
709.300	-20.820	0.100
709.400	-39.843	0.100
709.500	-35.356	0.100
709.600	-23.352	0.100
709.700	-38.641	0.100
709.800	-37.210	0.100
709.900	-37.843	0.100
710.000	-32.124	0.100
710.100	-44.818	0.100
710.200	-30.088	0.100
710.300	-34.950	0.100
710.400	-29.727	0.100
710.500	-34.475	0.100
710.600	-55.375	0.100
710.700	-41.067	0.100
710.800	-35.935	0.100
710.900	-42.532	0.100
711.000	-28.571	0.100
711.100	-42.672	0.100
711.200	-42.868	0.100
711.300	-32.896	0.100
711.400	-48.770	0.100
711.500	-29.124	0.100
711.600	-24.254	0.100
711.700	-32.822	0.100
711.800	-33.671	0.100
711.900	-41.241	0.100
712.000	-42.298	0.100
712.100	-30.248	0.100
712.200	-42.490	0.100
712.300	-41.721	0.100
712.400	-31.438	0.100
712.500	-41.808	0.100
712.600	-41.271	0.100
712.700	-37.036	0.100
712.800	-35.001	0.100
712.900	-42.831	0.100
713.000	-47.335	0.100
713.100	-34.966	0.100
713.200	-36.984	0.100
713.300	-42.753	0.100
713.400	-39.201	0.100
713.500	-35.010	0.100
713.600	-43.123	0.100
713.700	-34.102	0.100
713.800	-30.719	0.100
713.900	-38.354	0.100
714.000	-38.829	0.100
714.100	-45.782	0.100
714.200	-49.033	0.100
714.300	-38.519	0.100
714.400	-45.136	0.100
714.500	-36.340	0.100
714.600	-45.772	0.100
714.700	-45.897	0.100
714.800	-33.738	0.100
714.900	-49.529	0.100
715.000	-42.221	0.100
715.100	-38.324	0.100
715.200	-35.924	0.100
715.300	-46.538	0.100
715.400	-39.808	0.100
715.500	-39.206	0.100
715.600	-36.092	0.100
715.700	-47.648	0.100
715.800	-47.930	0.100
715.900	-34.058	0.100
716.000	-41.713	0.100
716.100	-41.144	0.100
716.200	-40.115	0.100
716.300	-38.605	0.100
716.400	-37.545	0.100
716.500	-52.630	0.100
716.600	-42.507	0.100
716.700	-50.919	0.100
716.800	-48.538	0.100
716.900	-40.706	0.100
717.000	-52.618	0.100
717.100	-48.774	0.100
717.200	-40.479	0.100
717.300	-43.118	0.100
717.400	-51.328	0.100
717.500	-49.038	0.100
717.600	-29.728	0.100
717.700	-35.175	0.100
717.800	-49.256	0.100
717.900	-36.839	0.100
718.000	-47.043	0.100
718.100	-45.611	0.100
718.200	-48.249	0.100
718.300	-41.041	0.100
718.400	-45.612	0.100
718.500	-41.005	0.100
718.600	-39.294	0.100
718.700	-37.112	0.100
718.800	-32.833	0.100
718.900	-47.568	0.100
719.000	-31.426	0.100
719.100	-46.812	0.100
719.200	-33.601	0.100
719.300	-49.758	0.100
719.400	-40.873	0.100
719.500	-49.994	0.100
719.600	-41.675	0.100
719.700	-37.919	0.100
719.800	-44.279	0.100
719.900	-43.753	0.100
720.000	-40.922	0.100
720.100	-30.190	0.100
720.200	-40.512	0.100
720.300	-45.340	0.100
720.400	-35.725	0.100
720.500	-48.919	0.100
720.600	-47.856	0.100
720.700	-47.194	0.100
720.800	-47.565	0.100
720.900	-55.391	0.100
721.000	-53.080	0.100
721.100	-40.705	0.100
721.200	-46.026	0.100
721.300	-43.822	0.100
721.400	-36.570	0.100
721.500	-38.489	0.100
721.600	-46.221	0.100
721.700	-38.277	0.100
721.800	-49.925	0.100
721.900	-55.568	0.100
722.000	-50.443	0.100
722.100	-48.071	0.100
722.200	-39.653	0.100
722.300	-45.109	0.100
722.400	-48.209	0.100
722.500	-51.617	0.100
722.600	-43.035	0.100
722.700	-46.784	0.100
722.800	-45.533	0.100
722.900	-36.733	0.100
723.000	-53.084	0.100
723.100	-54.498	0.100
723.200	-44.179	0.100
723.300	-41.990	0.100
723.400	-46.793	0.100
723.500	-48.184	0.100
723.600	-41.748	0.100
723.700	-39.485	0.100
723.800	-47.280	0.100
723.900	-40.029	0.100
724.000	-52.230	0.100
724.100	-49.956	0.100
724.200	-46.449	0.100
724.300	-39.689	0.100
724.400	-47.509	0.100
724.500	-47.204	0.100
724.600	-52.995	0.100
724.700	-47.336	0.100
724.800	-34.127	0.100
724.900	-37.227	0.100
725.000	-46.463	0.100
725.100	-57.200	0.100
725.200	-40.690	0.100
725.300	-42.881	0.100
725.400	-43.677	0.100
725.500	-57.190	0.100
725.600	-48.229	0.100
725.700	-48.664	0.100
725.800	-43.297	0.100
725.900	-51.356	0.100
726.000	-52.364	0.100
726.100	-53.080	0.100
726.200	-46.660	0.100
726.300	-49.170	0.100
726.400	-52.679	0.100
726.500	-49.202	0.100
726.600	-51.608	0.100
726.700	-48.708	0.100
726.800	-41.495	0.100
726.900	-46.915	0.100
727.000	-53.782	0.100
727.100	-34.149	0.100
727.200	-45.980	0.100
727.300	-40.096	0.100
727.400	-38.435	0.100
727.500	-47.483	0.100
727.600	-30.910	0.100
727.700	-47.800	0.100
727.800	-37.133	0.100
727.900	-43.282	0.100
728.000	-43.044	0.100
728.100	-42.841	0.100
728.200	-49.528	0.100
728.300	-55.401	0.100
728.400	-43.586	0.100
728.500	-42.396	0.100
728.600	-54.686	0.100
728.700	-35.914	0.100
728.800	-38.007	0.100
728.900	-38.549	0.100
729.000	-41.747	0.100
729.100	-60.676	0.100
729.200	-47.654	0.100
729.300	-44.282	0.100
729.400	-40.879	0.100
729.500	-51.282	0.100
729.600	-50.756	0.100
729.700	-39.131	0.100
729.800	-36.283	0.100
729.900	-39.246	0.100
730.000	-44.429	0.100
730.100	-44.916	0.100
730.200	-51.854	0.100
730.300	-39.289	0.100
730.400	-44.173	0.100
730.500	-41.223	0.100
730.600	-38.331	0.100
730.700	-46.613	0.100
730.800	-36.974	0.100
730.900	-39.391	0.100
731.000	-57.926	0.100
731.100	-51.141	0.100
731.200	-40.939	0.100
731.300	-44.864	0.100
731.400	-44.009	0.100
731.500	-32.629	0.100
731.600	-34.997	0.100
731.700	-41.376	0.100
731.800	-43.441	0.100
731.900	-33.877	0.100
732.000	-46.489	0.100
732.100	-42.372	0.100
732.200	-45.609	0.100
732.300	-47.104	0.100
732.400	-52.539	0.100
732.500	-51.542	0.100
732.600	-45.476	0.100
732.700	-43.445	0.100
732.800	-50.980	0.100
732.900	-46.767	0.100
733.000	-49.854	0.100
733.100	-44.071	0.100
733.200	-46.482	0.100
733.300	-42.121	0.100
733.400	-38.812	0.100
733.500	-41.630	0.100
733.600	-40.374	0.100
733.700	-57.030	0.100
733.800	-53.831	0.100
733.900	-42.096	0.100
734.000	-47.979	0.100
734.100	-41.083	0.100
734.200	-46.082	0.100
734.300	-44.604	0.100
734.400	-40.033	0.100
734.500	-55.106	0.100
734.600	-50.171	0.100
734.700	-36.001	0.100
734.800	-45.462	0.100
734.900	-39.056	0.100
735.000	-38.394	0.100
735.100	-52.910	0.100
735.200	-43.914	0.100
735.300	-37.081	0.100
735.400	-41.998	0.100
735.500	-43.420	0.100
735.600	-42.997	0.100
735.700	-39.938	0.100
735.800	-33.568	0.100
735.900	-44.245	0.100
736.000	-30.008	0.100
736.100	-32.449	0.100
736.200	-57.090	0.100
736.300	-51.097	0.100
736.400	-44.760	0.100
736.500	-43.924	0.100
736.600	-36.756	0.100
736.700	-41.710	0.100
736.800	-50.898	0.100
736.900	-34.945	0.100
737.000	-33.659	0.100
737.100	-47.716	0.100
737.200	-49.365	0.100
737.300	-60.733	0.100
737.400	-37.626	0.100
737.500	-37.299	0.100
737.600	-30.924	0.100
737.700	-44.335	0.100
737.800	-36.225	0.100
737.900	-46.609	0.100
738.000	-49.710	0.100
738.100	-37.371	0.100
738.200	-40.206	0.100
738.300	-31.489	0.100
738.400	-43.454	0.100
738.500	-43.756	0.100
738.600	-32.192	0.100
738.700	-41.428	0.100
738.800	-36.016	0.100
738.900	-41.324	0.100
739.000	-47.124	0.100
739.100	-34.017	0.100
739.200	-52.107	0.100
739.300	-51.768	0.100
739.400	-43.418	0.100
739.500	-36.767	0.100
739.600	-51.761	0.100
739.700	-38.715	0.100
739.800	-37.858	0.100
739.900	-53.962	0.100
740.000	-39.184	0.100
740.100	-29.232	0.100
740.200	-44.367	0.100
740.300	-48.197	0.100
740.400	-41.210	0.100
740.500	-45.212	0.100
740.600	-36.384	0.100
740.700	-41.984	0.100
740.800	-43.125	0.100
740.900	-28.466	0.100
741.000	-29.974	0.100
741.100	-27.138	0.100
741.200	-34.330	0.100
741.300	-34.614	0.100
741.400	-39.368	0.100
741.500	-40.945	0.100
741.600	-30.390	0.100
741.700	-42.720	0.100
741.800	-49.997	0.100
741.900	-57.002	0.100
742.000	-42.697	0.100
742.100	-29.920	0.100
742.200	-25.169	0.100
742.300	-33.059	0.100
742.400	-35.792	0.100
742.500	-46.026	0.100
742.600	-34.097	0.100
742.700	-43.703	0.100
742.800	-45.326	0.100
742.900	-45.985	0.100
743.000	-40.335	0.100
743.100	-52.865	0.100
743.200	-37.502	0.100
743.300	-39.315	0.100
743.400	-33.032	0.100
743.500	-39.729	0.100
743.600	-45.628	0.100
743.700	-34.081	0.100
743.800	-31.882	0.100
743.900	-27.434	0.100
744.000	-35.957	0.100
744.100	-36.608	0.100
744.200	-42.999	0.100
744.300	-40.470	0.100
744.400	-35.069	0.100
744.500	-35.887	0.100
744.600	-29.899	0.100
744.700	-43.117	0.100
744.800	-38.754	0.100
744.900	-47.755	0.100
745.000	-35.833	0.100
745.100	-46.733	0.100
745.200	-35.797	0.100
745.300	-26.036	0.100
745.400	-48.354	0.100
745.500	-44.466	0.100
745.600	-37.098	0.100
745.700	-46.455	0.100
745.800	-42.926	0.100
745.900	-38.422	0.100
746.000	-32.969	0.100
746.100	-38.840	0.100
746.200	-35.653	0.100
746.300	-34.663	0.100
746.400	-39.236	0.100
746.500	-47.017	0.100
746.600	-32.114	0.100
746.700	-37.998	0.100
746.800	-29.725	0.100
746.900	-33.279	0.100
747.000	-35.666	0.100
747.100	-39.137	0.100
747.200	-45.458	0.100
747.300	-38.858	0.100
747.400	-38.122	0.100
747.500	-41.726	0.100
747.600	-44.185	0.100
747.700	-33.765	0.100
747.800	-41.084	0.100
747.900	-37.404	0.100
748.000	-35.371	0.100
748.100	-33.320	0.100
748.200	-30.596	0.100
748.300	-29.219	0.100
748.400	-43.989	0.100
748.500	-36.392	0.100
748.600	-32.299	0.100
748.700	-40.926	0.100
748.800	-36.444	0.100
748.900	-31.794	0.100
749.000	-41.125	0.100
749.100	-26.333	0.100
749.200	-29.441	0.100
749.300	-31.161	0.100
749.400	-36.545	0.100
749.500	-40.973	0.100
749.600	-29.382	0.100
749.700	-25.616	0.100
749.800	-37.949	0.100
749.900	-45.508	0.100
750.000	-30.707	0.100
750.100	-29.913	0.100
750.200	-14.821	0.100
750.300	-44.054	0.100
750.400	-33.136	0.100
750.500	-36.772	0.100
750.600	-33.556	0.100
750.700	-44.825	0.100
750.800	-29.011	0.100
750.900	-31.599	0.100
751.000	-45.304	0.100
751.100	-29.193	0.100
751.200	-36.055	0.100
751.300	-31.840	0.100
751.400	-27.653	0.100
751.500	-37.622	0.100
751.600	-39.224	0.100
751.700	-29.109	0.100
751.800	-41.270	0.100
751.900	-26.333	0.100
752.000	-47.556	0.100
752.100	-45.407	0.100
752.200	-27.502	0.100
752.300	-30.846	0.100
752.400	-33.113	0.100
752.500	-23.593	0.100
752.600	-32.407	0.100
752.700	-51.906	0.100
752.800	-36.523	0.100
752.900	-36.557	0.100
753.000	-42.043	0.100
753.100	-38.747	0.100
753.200	-35.888	0.100
753.300	-33.061	0.100
753.400	-24.865	0.100
753.500	-37.169	0.100
753.600	-25.803	0.100
753.700	-34.306	0.100
753.800	-28.858	0.100
753.900	-43.105	0.100
754.000	-35.321	0.100
754.100	-37.622	0.100
754.200	-35.646	0.100
754.300	-29.315	0.100
754.400	-26.949	0.100
754.500	-28.349	0.100
754.600	-47.361	0.100
754.700	-47.550	0.100
754.800	-37.097	0.100
754.900	-40.745	0.100
755.000	-35.856	0.100
755.100	-20.235	0.100
755.200	-26.734	0.100
755.300	-29.394	0.100
755.400	-37.834	0.100
755.500	-45.646	0.100
755.600	-29.702	0.100
755.700	-25.768	0.100
755.800	-32.108	0.100
755.900	-35.979	0.100
756.000	-41.038	0.100
756.100	-38.741	0.100
756.200	-32.474	0.100
756.300	-27.344	0.100
756.400	-23.051	0.100
756.500	-32.085	0.100
756.600	-38.935	0.100
756.700	-39.946	0.100
756.800	-34.795	0.100
756.900	-31.393	0.100
757.000	-25.511	0.100
757.100	-21.774	0.100
757.200	-40.937	0.100
757.300	-31.920	0.100
757.400	-36.142	0.100
757.500	-36.239	0.100
757.600	-34.584	0.100
757.700	-37.124	0.100
757.800	-27.184	0.100
757.900	-34.216	0.100
758.000	-41.858	0.100
758.100	-32.140	0.100
758.200	-25.686	0.100
758.300	-29.505	0.100
758.400	-38.494	0.100
758.500	-30.351	0.100
758.600	-28.014	0.100
758.700	-32.433	0.100
758.800	-38.488	0.100
758.900	-26.132	0.100
759.000	-32.932	0.100
759.100	-42.122	0.100
759.200	-24.205	0.100
759.300	-42.633	0.100
759.400	-28.311	0.100
759.500	-39.733	0.100
759.600	-33.461	0.100
759.700	-32.272	0.100
759.800	-27.112	0.100
759.900	-31.627	0.100
760.000	-33.761	0.100
760.100	-28.018	0.100
760.200	-31.143	0.100
760.300	-43.203	0.100
760.400	-32.260	0.100
760.500	-33.635	0.100
760.600	-31.524	0.100
760.700	-27.834	0.100
760.800	-35.685	0.100
760.900	-36.164	0.100
761.000	-33.113	0.100
761.100	-36.487	0.100
761.200	-29.492	0.100
761.300	-25.501	0.100
761.400	-18.424	0.100
761.500	-16.684	0.100
761.600	-35.292	0.100
761.700	-48.431	0.100
761.800	-35.814	0.100
761.900	-30.524	0.100
762.000	-34.429	0.100
762.100	-27.417	0.100
762.200	-32.464	0.100
762.300	-32.010	0.100
762.400	-37.273	0.100
762.500	-36.057	0.100
762.600	-28.483	0.100
762.700	-20.776	0.100
762.800	-26.874	0.100
762.900	-26.154	0.100
763.000	-28.326	0.100
763.100	-42.610	0.100
763.200	-25.095	0.100
763.300	-17.191	0.100
763.400	-27.686	0.100
763.500	-23.109	0.100
763.600	-36.775	0.100
763.700	-40.057	0.100
763.800	-26.770	0.100
763.900	-25.035	0.100
764.000	-21.556	0.100
764.100	-33.160	0.100
764.200	-34.951	0.100
764.300	-35.262	0.100
764.400	-29.440	0.100
764.500	-30.348	0.100
764.600	-27.866	0.100
764.700	-42.672	0.100
764.800	-33.263	0.100
764.900	-35.330	0.100
765.000	-25.915	0.100
765.100	-33.032	0.100
765.200	-35.605	0.100
765.300	-50.966	0.100
765.400	-26.371	0.100
765.500	-37.160	0.100
765.600	-27.357	0.100
765.700	-38.555	0.100
765.800	-30.787	0.100
765.900	-29.454	0.100
766.000	-33.531	0.100
766.100	-43.040	0.100
766.200	-28.296	0.100
766.300	-34.786	0.100
766.400	-23.341	0.100
766.500	-24.666	0.100
766.600	-31.126	0.100
766.700	-38.418	0.100
766.800	-26.671	0.100
766.900	-19.821	0.100
767.000	-20.557	0.100
767.100	-34.837	0.100
767.200	-35.763	0.100
767.300	-29.133	0.100
767.400	-27.802	0.100
767.500	-33.107	0.100
767.600	-24.866	0.100
767.700	-39.103	0.100
767.800	-35.301	0.100
767.900	-33.753	0.100
768.000	-23.902	0.100
768.100	-22.570	0.100
768.200	-16.289	0.100
768.300	-15.065	0.100
768.400	-32.555	0.100
768.500	-19.456	0.100
768.600	-36.024	0.100
768.700	-27.302	0.100
768.800	-34.126	0.100
768.900	-33.332	0.100
769.000	-25.398	0.100
769.100	-40.747	0.100
769.200	-29.232	0.100
769.300	-33.149	0.100
769.400	-28.874	0.100
769.500	-28.147	0.100
769.600	-33.800	0.100
769.700	-25.550	0.100
769.800	-33.460	0.100
769.900	-37.832	0.100
770.000	-27.925	0.100
770.100	-30.426	0.100
770.200	-25.647	0.100
770.300	-29.518	0.100
770.400	-27.263	0.100
770.500	-31.552	0.100
770.600	-29.434	0.100
770.700	-40.203	0.100
770.800	-34.598	0.100
770.900	-28.350	0.100
771.000	-34.473	0.100
771.100	-29.096	0.100
771.200	-34.278	0.100
771.300	-25.621	0.100
771.400	-32.850	0.100
771.500	-22.874	0.100
771.600	-35.872	0.100
771.700	-27.692	0.100
771.800	-22.872	0.100
771.900	-21.255	0.100
772.000	-30.797	0.100
772.100	-30.201	0.100
772.200	-26.456	0.100
772.300	-33.640	0.100
772.400	-28.718	0.100
772.500	-31.236	0.100
772.600	-34.133	0.100
772.700	-31.409	0.100
772.800	-49.226	0.100
772.900	-32.032	0.100
773.000	-32.336	0.100
773.100	-29.021	0.100
773.200	-28.858	0.100
773.300	-27.470	0.100
773.400	-32.387	0.100
773.500	-30.139	0.100
773.600	-15.697	0.100
773.700	-35.873	0.100
773.800	-32.959	0.100
773.900	-29.704	0.100
774.000	-23.566	0.100
774.100	-25.218	0.100
774.200	-26.123	0.100
774.300	-30.957	0.100
774.400	-29.690	0.100
774.500	-26.684	0.100
774.600	-27.454	0.100
774.700	-20.435	0.100
774.800	-41.613	0.100
774.900	-21.337	0.100
775.000	-21.345	0.100
775.100	-30.471	0.100
775.200	-21.446	0.100
775.300	-34.793	0.100
775.400	-33.761	0.100
775.500	-20.138	0.100
775.600	-25.407	0.100
775.700	-24.820	0.100
775.800	-30.043	0.100
775.900	-25.401	0.100
776.000	-27.976	0.100
776.100	-18.849	0.100
776.200	-16.031	0.100
776.300	-37.527	0.100
776.400	-34.638	0.100
776.500	-29.269	0.100
776.600	-33.141	0.100
776.700	-22.292	0.100
776.800	-15.793	0.100
776.900	-21.651	0.100
777.000	-25.110	0.100
777.100	-21.633	0.100
777.200	-27.891	0.100
777.300	-32.170	0.100
777.400	-33.751	0.100
777.500	-24.740	0.100
777.600	-34.107	0.100
777.700	-26.515	0.100
777.800	-24.473	0.100
777.900	-22.651	0.100
778.000	-26.177	0.100
778.100	-23.161	0.100
778.200	-35.589	0.100
778.300	-38.998	0.100
778.400	-26.926	0.100
778.500	-34.221	0.100
778.600	-24.260	0.100
778.700	-18.451	0.100
778.800	-34.964	0.100
778.900	-26.175	0.100
779.000	-33.072	0.100
779.100	-24.180	0.100
779.200	-26.434	0.100
779.300	-16.304	0.100
779.400	-25.766	0.100
779.500	-10.851	0.100
779.600	-26.889	0.100
779.700	-35.402	0.100
779.800	-32.356	0.100
779.900	-42.505	0.100
780.000	-29.684	0.100
780.100	-18.524	0.100
780.200	-24.903	0.100
780.300	-34.716	0.100
780.400	-31.190	0.100
780.500	-16.665	0.100
780.600	-23.038	0.100
780.700	-7.244	0.100
780.800	-7.012	0.100
780.900	-5.845	0.100
781.000	6.553	0.100
781.100	0.513	0.100
781.200	10.678	0.100
781.300	28.045	0.100
781.400	20.338	0.100
781.500	11.297	0.100
781.600	28.087	0.100
781.700	21.227	0.100
781.800	23.076	0.100
781.900	35.256	0.100
782.000	30.397	0.100
782.100	16.060	0.100
782.200	27.323	0.100
782.300	29.963	0.100
782.400	30.440	0.100
782.500	28.924	0.100
782.600	41.380	0.100
782.700	37.415	0.100
782.800	42.875	0.100
782.900	32.109	0.100
783.000	32.416	0.100
783.100	45.092	0.100
783.200	35.496	0.100
783.300	29.359	0.100
783.400	29.034	0.100
783.500	39.779	0.100
783.600	41.477	0.100
783.700	39.121	0.100
783.800	24.299	0.100
783.900	22.518	0.100
784.000	28.198	0.100
784.100	45.839	0.100
784.200	49.288	0.100
784.300	39.652	0.100
784.400	37.770	0.100
784.500	28.685	0.100
784.600	35.925	0.100
784.700	20.198	0.100
784.800	43.807	0.100
784.900	34.028	0.100
785.000	33.428	0.100
785.100	26.354	0.100
785.200	24.173	0.100
785.300	29.771	0.100
785.400	28.718	0.100
785.500	34.444	0.100
785.600	37.823	0.100
785.700	26.219	0.100
785.800	28.953	0.100
785.900	18.619	0.100
786.000	19.805	0.100
786.100	27.838	0.100
786.200	29.225	0.100
786.300	33.938	0.100
786.400	36.210	0.100
786.500	26.140	0.100
786.600	21.550	0.100
786.700	33.638	0.100
786.800	45.091	0.100
786.900	42.186	0.100
787.000	29.448	0.100
787.100	37.934	0.100
787.200	31.666	0.100
787.300	34.035	0.100
787.400	46.680	0.100
787.500	37.226	0.100
787.600	47.497	0.100
787.700	29.938	0.100
787.800	45.016	0.100
787.900	36.642	0.100
788.000	47.351	0.100
788.100	50.348	0.100
788.200	47.591	0.100
788.300	44.109	0.100
788.400	44.986	0.100
788.500	45.799	0.100
788.600	43.920	0.100
788.700	45.389	0.100
788.800	47.139	0.100
788.900	48.018	0.100
789.000	56.620	0.100
789.100	41.441	0.100
789.200	44.564	0.100
789.300	48.846	0.100
789.400	47.377	0.100
789.500	46.195	0.100
789.600	46.582	0.100
789.700	40.729	0.100
789.800	51.087	0.100
789.900	55.503	0.100
790.000	45.651	0.100
790.100	58.259	0.100
790.200	63.344	0.100
790.300	47.156	0.100
790.400	52.158	0.100
790.500	62.397	0.100
790.600	61.888	0.100
790.700	54.397	0.100
790.800	57.839	0.100
790.900	57.317	0.100
791.000	59.847	0.100
791.100	53.851	0.100
791.200	57.545	0.100
791.300	75.580	0.100
791.400	63.062	0.100
791.500	50.985	0.100
791.600	54.670	0.100
791.700	67.657	0.100
791.800	65.664	0.100
791.900	64.692	0.100
792.000	66.383	0.100
792.100	67.463	0.100
792.200	60.554	0.100
792.300	64.644	0.100
792.400	77.386	0.100
792.500	76.028	0.100
792.600	74.154	0.100
792.700	74.343	0.100
792.800	81.816	0.100
792.900	78.087	0.100
793.000	79.492	0.100
793.100	71.556	0.100
793.200	75.783	0.100
793.300	82.322	0.100
793.400	68.491	0.100
793.500	95.828	0.100
793.600	74.232	0.100
793.700	70.299	0.100
793.800	82.333	0.100
793.900	90.382	0.100
794.000	72.461	0.100
794.100	76.207	0.100
794.200	83.551	0.100
794.300	88.901	0.100
794.400	80.413	0.100
794.500	80.013	0.100
794.600	80.507	0.100
794.700	86.977	0.100
794.800	87.231	0.100
794.900	99.165	0.100
795.000	81.815	0.100
795.100	73.844	0.100
795.200	87.165	0.100
795.300	90.420	0.100
795.400	91.769	0.100
795.500	89.698	0.100
795.600	87.351	0.100
795.700	108.685	0.100
795.800	93.480	0.100
795.900	93.332	0.100
796.000	77.996	0.100
796.100	83.496	0.100
796.200	82.579	0.100
796.300	87.087	0.100
796.400	83.117	0.100
796.500	93.844	0.100
796.600	84.689	0.100
796.700	87.006	0.100
796.800	82.383	0.100
796.900	89.168	0.100
797.000	83.248	0.100
797.100	89.917	0.100
797.200	101.278	0.100
797.300	88.533	0.100
797.400	89.309	0.100
797.500	91.085	0.100
797.600	95.168	0.100
797.700	90.053	0.100
797.800	86.875	0.100
797.900	87.447	0.100
798.000	84.405	0.100
798.100	83.242	0.100
798.200	90.194	0.100
798.300	79.560	0.100
798.400	75.501	0.100
798.500	84.786	0.100
798.600	95.544	0.100
798.700	86.914	0.100
798.800	92.223	0.100
798.900	75.221	0.100
799.000	80.278	0.100
799.100	84.941	0.100
799.200	90.614	0.100
799.300	85.930	0.100
799.400	80.647	0.100
799.500	90.092	0.100
799.600	85.440	0.100
799.700	86.179	0.100
799.800	76.192	0.100
799.900	89.779	0.100
800.000	85.710	0.100
