time /s	I /nA	E /V
0.100	-21.129	0.100
0.200	-19.618	0.100
0.300	-30.420	0.100
0.400	-22.596	0.100
0.500	-33.542	0.100
0.600	-23.147	0.100
0.700	-18.334	0.100
0.800	-15.704	0.100
0.900	-21.593	0.100
1.000	-13.062	0.100
1.100	-12.087	0.100
1.200	-20.849	0.100
1.300	-26.501	0.100
1.400	-17.857	0.100
1.500	-16.898	0.100
1.600	-18.498	0.100
1.700	-11.489	0.100
1.800	-26.105	0.100
1.900	-29.933	0.100
2.000	-3.828	0.100
2.100	-17.079	0.100
2.200	-24.944	0.100
2.300	-9.921	0.100
2.400	-18.213	0.100
2.500	-14.373	0.100
2.600	-20.576	0.100
2.700	-19.938	0.100
2.800	-25.808	0.100
2.900	-19.118	0.100
3.000	-16.733	0.100
3.100	-17.072	0.100
3.200	-15.821	0.100
3.300	-18.236	0.100
3.400	-32.735	0.100
3.500	-25.388	0.100
3.600	-17.735	0.100
3.700	-21.546	0.100
3.800	-14.079	0.100
3.900	-20.893	0.100
4.000	-8.688	0.100
4.100	-24.528	0.100
4.200	-22.738	0.100
4.300	-22.616	0.100
4.400	-22.424	0.100
4.500	-22.018	0.100
4.600	-24.704	0.100
4.700	-18.874	0.100
4.800	-18.541	0.100
4.900	-17.916	0.100
5.000	-33.208	0.100
5.100	-17.872	0.100
5.200	-29.343	0.100
5.300	-29.888	0.100
5.400	-17.161	0.100
5.500	-21.114	0.100
5.600	-28.124	0.100
5.700	-12.034	0.100
5.800	-20.837	0.100
5.900	-25.001	0.100
6.000	-9.513	0.100
6.100	-18.463	0.100
6.200	-16.250	0.100
6.300	-17.088	0.100
6.400	-19.793	0.100
6.500	-19.365	0.100
6.600	-17.186	0.100
6.700	-19.191	0.100
6.800	-26.149	0.100
6.900	-21.042	0.100
7.000	-15.999	0.100
7.100	-12.849	0.100
7.200	-25.116	0.100
7.300	-20.789	0.100
7.400	-8.814	0.100
7.500	-27.261	0.100
7.600	-17.412	0.100
7.700	-3.764	0.100
7.800	-15.108	0.100
7.900	-20.596	0.100
8.000	-32.901	0.100
8.100	-25.063	0.100
8.200	-18.627	0.100
8.300	-11.893	0.100
8.400	-27.260	0.100
8.500	-25.939	0.100
8.600	-16.055	0.100
8.700	-10.604	0.100
8.800	-22.143	0.100
8.900	-22.786	0.100
9.000	-17.865	0.100
9.100	-33.613	0.100
9.200	-9.449	0.100
9.300	-12.536	0.100
9.400	-18.454	0.100
9.500	-17.905	0.100
9.600	-18.670	0.100
9.700	-15.781	0.100
9.800	-16.945	0.100
9.900	-29.315	0.100
10.000	-28.532	0.100
10.100	-27.930	0.100
10.200	-25.611	0.100
10.300	-14.128	0.100
10.400	-8.122	0.100
10.500	-24.245	0.100
10.600	-16.997	0.100
10.700	-20.851	0.100
10.800	-16.651	0.100
10.900	-23.737	0.100
11.000	-26.624	0.100
11.100	-31.424	0.100
11.200	-30.145	0.100
11.300	-14.361	0.100
11.400	-18.694	0.100
11.500	-26.388	0.100
11.600	-13.335	0.100
11.700	-19.939	0.100
11.800	-13.608	0.100
11.900	-24.999	0.100
12.000	-20.248	0.100
12.100	-22.242	0.100
12.200	-11.519	0.100
12.300	-24.148	0.100
12.400	-11.204	0.100
12.500	-22.438	0.100
12.600	-24.890	0.100
12.700	-15.863	0.100
12.800	-13.749	0.100
12.900	-14.810	0.100
13.000	-21.101	0.100
13.100	-24.069	0.100
13.200	-22.942	0.100
13.300	-15.227	0.100
13.400	-18.547	0.100
13.500	-21.508	0.100
13.600	-18.428	0.100
13.700	-26.857	0.100
13.800	-24.828	0.100
13.900	-27.341	0.100
14.000	-16.805	0.100
14.100	-18.434	0.100
14.200	-12.619	0.100
14.300	-13.531	0.100
14.400	-20.287	0.100
14.500	-14.837	0.100
14.600	-35.152	0.100
14.700	-27.777	0.100
14.800	-18.230	0.100
14.900	-12.996	0.100
15.000	-16.389	0.100
15.100	-18.095	0.100
15.200	-20.495	0.100
15.300	-19.488	0.100
15.400	-15.810	0.100
15.500	-17.748	0.100
15.600	-28.101	0.100
15.700	-19.899	0.100
15.800	-22.381	0.100
15.900	-13.951	0.100
16.000	-5.479	0.100
16.100	-16.602	0.100
16.200	-11.479	0.100
16.300	-17.467	0.100
16.400	-28.718	0.100
16.500	-8.890	0.100
16.600	-13.303	0.100
16.700	-28.968	0.100
16.800	-14.506	0.100
16.900	-13.413	0.100
17.000	-3.365	0.100
17.100	-20.597	0.100
17.200	-20.410	0.100
17.300	-21.443	0.100
17.400	-24.776	0.100
17.500	-16.067	0.100
17.600	-18.234	0.100
17.700	-16.695	0.100
17.800	-14.585	0.100
17.900	-15.952	0.100
18.000	-20.552	0.100
18.100	-14.747	0.100
18.200	-10.740	0.100
18.300	-8.995	0.100
18.400	-11.608	0.100
18.500	-29.152	0.100
18.600	-26.753	0.100
18.700	-14.914	0.100
18.800	-4.416	0.100
18.900	-26.093	0.100
19.000	-29.770	0.100
19.100	-27.683	0.100
19.200	-27.596	0.100
19.300	-11.618	0.100
19.400	-16.123	0.100
19.500	-10.904	0.100
19.600	-14.381	0.100
19.700	-13.425	0.100
19.800	-9.810	0.100
19.900	-12.819	0.100
20.000	-11.791	0.100
20.100	-26.097	0.100
20.200	-24.000	0.100
20.300	-18.606	0.100
20.400	-9.020	0.100
20.500	-16.157	0.100
20.600	-20.721	0.100
20.700	-31.708	0.100
20.800	-15.053	0.100
20.900	-31.520	0.100
21.000	-16.456	0.100
21.100	-14.247	0.100
21.200	-12.629	0.100
21.300	-21.694	0.100
21.400	-22.110	0.100
21.500	-32.419	0.100
21.600	-15.042	0.100
21.700	-21.311	0.100
21.800	-4.717	0.100
21.900	-21.185	0.100
22.000	-18.825	0.100
22.100	-14.474	0.100
22.200	-19.238	0.100
22.300	-5.409	0.100
22.400	-15.187	0.100
22.500	-20.936	0.100
22.600	-19.759	0.100
22.700	-16.874	0.100
22.800	-4.236	0.100
22.900	-25.105	0.100
23.000	-27.258	0.100
23.100	-16.336	0.100
23.200	-5.193	0.100
23.300	-17.007	0.100
23.400	-19.240	0.100
23.500	-19.380	0.100
23.600	-12.817	0.100
23.700	-16.840	0.100
23.800	-16.712	0.100
23.900	-8.890	0.100
24.000	-18.633	0.100
24.100	-17.458	0.100
24.200	-21.138	0.100
24.300	-26.679	0.100
24.400	-19.726	0.100
24.500	-18.916	0.100
24.600	-16.103	0.100
24.700	-34.545	0.100
24.800	-8.615	0.100
24.900	-21.276	0.100
25.000	-34.184	0.100
25.100	-12.057	0.100
25.200	-12.744	0.100
25.300	-12.673	0.100
25.400	-3.714	0.100
25.500	-12.479	0.100
25.600	-20.019	0.100
25.700	-26.652	0.100
25.800	-29.569	0.100
25.900	-21.128	0.100
26.000	-20.243	0.100
26.100	-27.820	0.100
26.200	-13.362	0.100
26.300	-23.293	0.100
26.400	-23.289	0.100
26.500	-12.476	0.100
26.600	-11.089	0.100
26.700	-18.064	0.100
26.800	-17.227	0.100
26.900	-11.587	0.100
27.000	-23.498	0.100
27.100	-17.685	0.100
27.200	-13.643	0.100
27.300	-11.870	0.100
27.400	-12.703	0.100
27.500	-4.778	0.100
27.600	-21.599	0.100
27.700	-17.907	0.100
27.800	-20.925	0.100
27.900	-19.278	0.100
28.000	-6.129	0.100
28.100	-13.932	0.100
28.200	-19.466	0.100
28.300	-22.627	0.100
28.400	-17.655	0.100
28.500	-12.406	0.100
28.600	-22.411	0.100
28.700	-19.129	0.100
28.800	-13.353	0.100
28.900	-23.146	0.100
29.000	-20.955	0.100
29.100	-20.357	0.100
29.200	-14.766	0.100
29.300	-17.258	0.100
29.400	-20.673	0.100
29.500	-21.673	0.100
29.600	-21.855	0.100
29.700	-7.840	0.100
29.800	-19.342	0.100
29.900	-12.894	0.100
30.000	-14.934	0.100
30.100	-10.184	0.100
30.200	-12.395	0.100
30.300	0.593	0.100
30.400	-0.292	0.100
30.500	-9.427	0.100
30.600	-3.199	0.100
30.700	-2.144	0.100
30.800	9.133	0.100
30.900	19.489	0.100
31.000	17.329	0.100
31.100	21.754	0.100
31.200	24.790	0.100
31.300	12.533	0.100
31.400	15.553	0.100
31.500	20.495	0.100
31.600	26.055	0.100
31.700	22.420	0.100
31.800	33.838	0.100
31.900	22.274	0.100
32.000	30.407	0.100
32.100	37.787	0.100
32.200	26.681	0.100
32.300	32.706	0.100
32.400	34.674	0.100
32.500	17.644	0.100
32.600	28.096	0.100
32.700	30.983	0.100
32.800	35.726	0.100
32.900	42.367	0.100
33.000	29.864	0.100
33.100	25.411	0.100
33.200	28.914	0.100
33.300	32.524	0.100
33.400	32.305	0.100
33.500	30.031	0.100
33.600	24.908	0.100
33.700	26.715	0.100
33.800	31.869	0.100
33.900	30.968	0.100
34.000	23.690	0.100
34.100	32.560	0.100
34.200	27.215	0.100
34.300	34.276	0.100
34.400	32.236	0.100
34.500	34.969	0.100
34.600	29.370	0.100
34.700	33.890	0.100
34.800	16.012	0.100
34.900	19.404	0.100
35.000	30.101	0.100
35.100	29.177	0.100
35.200	18.132	0.100
35.300	21.166	0.100
35.400	31.947	0.100
35.500	8.327	0.100
35.600	10.590	0.100
35.700	22.077	0.100
35.800	29.019	0.100
35.900	39.699	0.100
36.000	25.980	0.100
36.100	19.587	0.100
36.200	21.438	0.100
36.300	22.505	0.100
36.400	21.726	0.100
36.500	20.539	0.100
36.600	38.444	0.100
36.700	16.653	0.100
36.800	12.793	0.100
36.900	24.421	0.100
37.000	25.977	0.100
37.100	34.522	0.100
37.200	18.207	0.100
37.300	16.554	0.100
37.400	21.035	0.100
37.500	12.172	0.100
37.600	21.306	0.100
37.700	27.180	0.100
37.800	18.032	0.100
37.900	19.534	0.100
38.000	28.726	0.100
38.100	17.072	0.100
38.200	8.654	0.100
38.300	20.104	0.100
38.400	15.645	0.100
38.500	32.818	0.100
38.600	24.476	0.100
38.700	24.261	0.100
38.800	28.983	0.100
38.900	15.584	0.100
39.000	28.180	0.100
39.100	20.105	0.100
39.200	23.827	0.100
39.300	29.487	0.100
39.400	28.713	0.100
39.500	27.871	0.100
39.600	19.096	0.100
39.700	16.585	0.100
39.800	12.785	0.100
39.900	24.426	0.100
40.000	15.667	0.100
40.100	16.081	0.100
40.200	25.474	0.100
40.300	23.433	0.100
40.400	19.521	0.100
40.500	11.530	0.100
40.600	20.747	0.100
40.700	21.141	0.100
40.800	30.523	0.100
40.900	18.383	0.100
41.000	20.857	0.100
41.100	21.052	0.100
41.200	27.361	0.100
41.300	15.021	0.100
41.400	10.007	0.100
41.500	31.111	0.100
41.600	22.478	0.100
41.700	28.851	0.100
41.800	20.634	0.100
41.900	18.050	0.100
42.000	17.313	0.100
42.100	17.447	0.100
42.200	24.114	0.100
42.300	6.492	0.100
42.400	21.533	0.100
42.500	18.909	0.100
42.600	26.826	0.100
42.700	23.770	0.100
42.800	24.733	0.100
42.900	25.681	0.100
43.000	19.848	0.100
43.100	23.346	0.100
43.200	31.295	0.100
43.300	28.020	0.100
43.400	36.819	0.100
43.500	23.568	0.100
43.600	25.502	0.100
43.700	31.996	0.100
43.800	25.315	0.100
43.900	24.061	0.100
44.000	36.188	0.100
44.100	25.294	0.100
44.200	21.781	0.100
44.300	22.524	0.100
44.400	22.230	0.100
44.500	35.593	0.100
44.600	39.938	0.100
44.700	36.997	0.100
44.800	32.760	0.100
44.900	30.846	0.100
45.000	27.924	0.100
45.100	26.098	0.100
45.200	18.545	0.100
45.300	23.937	0.100
45.400	28.910	0.100
45.500	28.541	0.100
45.600	33.667	0.100
45.700	43.299	0.100
45.800	35.643	0.100
45.900	44.478	0.100
46.000	41.428	0.100
46.100	36.078	0.100
46.200	24.981	0.100
46.300	26.178	0.100
46.400	43.954	0.100
46.500	36.039	0.100
46.600	40.486	0.100
46.700	43.994	0.100
46.800	32.685	0.100
46.900	54.612	0.100
47.000	37.877	0.100
47.100	38.569	0.100
47.200	26.425	0.100
47.300	29.835	0.100
47.400	30.019	0.100
47.500	43.761	0.100
47.600	43.918	0.100
47.700	45.825	0.100
47.800	34.664	0.100
47.900	43.285	0.100
48.000	31.185	0.100
48.100	41.891	0.100
48.200	36.157	0.100
48.300	31.663	0.100
48.400	37.268	0.100
48.500	42.882	0.100
48.600	43.316	0.100
48.700	45.542	0.100
48.800	46.810	0.100
48.900	58.553	0.100
49.000	41.475	0.100
49.100	42.056	0.100
49.200	46.988	0.100
49.300	43.597	0.100
49.400	44.007	0.100
49.500	49.618	0.100
49.600	41.199	0.100
49.700	49.411	0.100
49.800	38.876	0.100
49.900	46.381	0.100
50.000	36.354	0.100
50.100	48.050	0.100
50.200	52.408	0.100
50.300	42.525	0.100
50.400	36.511	0.100
50.500	41.077	0.100
50.600	39.096	0.100
50.700	37.606	0.100
50.800	49.732	0.100
50.900	48.813	0.100
51.000	57.715	0.100
51.100	45.569	0.100
51.200	44.738	0.100
51.300	53.580	0.100
51.400	55.981	0.100
51.500	47.406	0.100
51.600	50.556	0.100
51.700	47.781	0.100
51.800	48.743	0.100
51.900	60.823	0.100
52.000	51.854	0.100
52.100	58.823	0.100
52.200	62.117	0.100
52.300	57.731	0.100
52.400	53.932	0.100
52.500	44.544	0.100
52.600	54.510	0.100
52.700	46.688	0.100
52.800	41.584	0.100
52.900	57.706	0.100
53.000	49.974	0.100
53.100	52.046	0.100
53.200	51.758	0.100
53.300	69.866	0.100
53.400	52.436	0.100
53.500	58.635	0.100
53.600	80.066	0.100
53.700	54.728	0.100
53.800	60.181	0.100
53.900	52.088	0.100
54.000	59.919	0.100
54.100	67.454	0.100
54.200	59.133	0.100
54.300	56.848	0.100
54.400	48.496	0.100
54.500	66.805	0.100
54.600	65.987	0.100
54.700	60.814	0.100
54.800	45.188	0.100
54.900	57.544	0.100
55.000	62.818	0.100
55.100	50.302	0.100
55.200	60.654	0.100
55.300	72.934	0.100
55.400	55.660	0.100
55.500	61.666	0.100
55.600	56.093	0.100
55.700	69.985	0.100
55.800	66.487	0.100
55.900	61.726	0.100
56.000	59.171	0.100
56.100	62.997	0.100
56.200	56.004	0.100
56.300	60.450	0.100
56.400	62.410	0.100
56.500	60.935	0.100
56.600	72.244	0.100
56.700	63.605	0.100
56.800	55.078	0.100
56.900	56.992	0.100
57.000	66.188	0.100
57.100	75.466	0.100
57.200	56.247	0.100
57.300	76.447	0.100
57.400	69.937	0.100
57.500	68.504	0.100
57.600	56.255	0.100
57.700	59.567	0.100
57.800	62.814	0.100
57.900	73.952	0.100
58.000	72.981	0.100
58.100	70.360	0.100
58.200	67.765	0.100
58.300	70.536	0.100
58.400	73.221	0.100
58.500	70.198	0.100
58.600	62.995	0.100
58.700	68.468	0.100
58.800	63.026	0.100
58.900	71.346	0.100
59.000	78.228	0.100
59.100	62.685	0.100
59.200	70.411	0.100
59.300	70.360	0.100
59.400	79.148	0.100
59.500	73.556	0.100
59.600	65.466	0.100
59.700	85.758	0.100
59.800	67.278	0.100
59.900	64.289	0.100
60.000	72.927	0.100
60.100	69.762	0.100
60.200	68.574	0.100
60.300	76.642	0.100
60.400	65.919	0.100
60.500	69.575	0.100
60.600	82.218	0.100
60.700	68.489	0.100
60.800	60.986	0.100
60.900	73.025	0.100
61.000	76.569	0.100
61.100	61.641	0.100
61.200	67.090	0.100
61.300	63.218	0.100
61.400	74.338	0.100
61.500	72.016	0.100
61.600	70.864	0.100
61.700	66.368	0.100
61.800	60.066	0.100
61.900	81.445	0.100
62.000	68.522	0.100
62.100	80.744	0.100
62.200	81.467	0.100
62.300	78.892	0.100
62.400	66.665	0.100
62.500	64.785	0.100
62.600	75.795	0.100
62.700	81.062	0.100
62.800	71.503	0.100
62.900	71.097	0.100
63.000	71.426	0.100
63.100	83.770	0.100
63.200	76.370	0.100
63.300	64.954	0.100
63.400	62.115	0.100
63.500	63.742	0.100
63.600	70.059	0.100
63.700	78.637	0.100
63.800	67.449	0.100
63.900	72.976	0.100
64.000	62.706	0.100
64.100	70.581	0.100
64.200	60.224	0.100
64.300	69.861	0.100
64.400	63.588	0.100
64.500	77.621	0.100
64.600	77.782	0.100
64.700	72.048	0.100
64.800	75.223	0.100
64.900	64.510	0.100
65.000	52.782	0.100
65.100	81.403	0.100
65.200	77.244	0.100
65.300	69.099	0.100
65.400	56.208	0.100
65.500	72.197	0.100
65.600	61.295	0.100
65.700	80.099	0.100
65.800	76.550	0.100
65.900	61.846	0.100
66.000	73.032	0.100
66.100	60.322	0.100
66.200	56.212	0.100
66.300	69.865	0.100
66.400	68.481	0.100
66.500	72.430	0.100
66.600	59.753	0.100
66.700	61.205	0.100
66.800	66.207	0.100
66.900	75.827	0.100
67.000	76.672	0.100
67.100	65.860	0.100
67.200	62.394	0.100
67.300	67.528	0.100
67.400	46.466	0.100
67.500	68.101	0.100
67.600	69.966	0.100
67.700	62.683	0.100
67.800	55.305	0.100
67.900	65.408	0.100
68.000	62.672	0.100
68.100	71.211	0.100
68.200	75.244	0.100
68.300	61.386	0.100
68.400	70.966	0.100
68.500	63.775	0.100
68.600	74.580	0.100
68.700	63.343	0.100
68.800	66.237	0.100
68.900	68.301	0.100
69.000	62.592	0.100
69.100	63.373	0.100
69.200	60.008	0.100
69.300	59.146	0.100
69.400	68.110	0.100
69.500	64.586	0.100
69.600	68.747	0.100
69.700	61.273	0.100
69.800	56.206	0.100
69.900	57.993	0.100
70.000	69.830	0.100
70.100	58.814	0.100
70.200	56.106	0.100
70.300	73.127	0.100
70.400	67.402	0.100
70.500	62.505	0.100
70.600	57.429	0.100
70.700	68.759	0.100
70.800	67.917	0.100
70.900	65.704	0.100
71.000	53.381	0.100
71.100	58.455	0.100
71.200	62.364	0.100
71.300	65.214	0.100
71.400	61.396	0.100
71.500	60.150	0.100
71.600	54.133	0.100
71.700	64.614	0.100
71.800	66.095	0.100
71.900	61.951	0.100
72.000	54.063	0.100
72.100	66.808	0.100
72.200	57.036	0.100
72.300	59.683	0.100
72.400	71.421	0.100
72.500	69.412	0.100
72.600	57.828	0.100
72.700	52.726	0.100
72.800	52.817	0.100
72.900	71.500	0.100
73.000	68.726	0.100
73.100	75.422	0.100
73.200	47.239	0.100
73.300	60.133	0.100
73.400	67.374	0.100
73.500	75.353	0.100
73.600	71.746	0.100
73.700	75.274	0.100
73.800	59.680	0.100
73.900	49.097	0.100
74.000	60.060	0.100
74.100	54.592	0.100
74.200	61.447	0.100
74.300	61.901	0.100
74.400	66.694	0.100
74.500	47.529	0.100
74.600	60.181	0.100
74.700	49.872	0.100
74.800	59.986	0.100
74.900	58.972	0.100
75.000	60.137	0.100
75.100	56.834	0.100
75.200	56.290	0.100
75.300	69.207	0.100
75.400	71.327	0.100
75.500	54.492	0.100
75.600	55.048	0.100
75.700	56.729	0.100
75.800	57.693	0.100
75.900	61.090	0.100
76.000	60.394	0.100
76.100	56.661	0.100
76.200	60.249	0.100
76.300	70.105	0.100
76.400	67.629	0.100
76.500	66.532	0.100
76.600	52.866	0.100
76.700	57.642	0.100
76.800	65.019	0.100
76.900	45.501	0.100
77.000	59.944	0.100
77.100	64.180	0.100
77.200	63.961	0.100
77.300	56.199	0.100
77.400	57.248	0.100
77.500	67.781	0.100
77.600	61.553	0.100
77.700	61.065	0.100
77.800	67.030	0.100
77.900	66.881	0.100
78.000	71.648	0.100
78.100	52.075	0.100
78.200	72.122	0.100
78.300	51.736	0.100
78.400	53.734	0.100
78.500	63.252	0.100
78.600	54.488	0.100
78.700	58.716	0.100
78.800	62.729	0.100
78.900	62.672	0.100
79.000	55.565	0.100
79.100	63.748	0.100
79.200	59.429	0.100
79.300	74.259	0.100
79.400	61.991	0.100
79.500	59.906	0.100
79.600	55.672	0.100
79.700	53.056	0.100
79.800	63.859	0.100
79.900	58.257	0.100
80.000	68.141	0.100
80.100	73.320	0.100
80.200	54.639	0.100
80.300	63.106	0.100
80.400	60.981	0.100
80.500	44.858	0.100
80.600	67.976	0.100
80.700	60.816	0.100
80.800	54.861	0.100
80.900	53.337	0.100
81.000	54.408	0.100
81.100	59.567	0.100
81.200	61.268	0.100
81.300	55.732	0.100
81.400	59.098	0.100
81.500	48.414	0.100
81.600	51.109	0.100
81.700	63.733	0.100
81.800	69.085	0.100
81.900	75.389	0.100
82.000	67.951	0.100
82.100	57.412	0.100
82.200	57.215	0.100
82.300	54.624	0.100
82.400	54.581	0.100
82.500	55.993	0.100
82.600	58.640	0.100
82.700	62.169	0.100
82.800	51.490	0.100
82.900	51.666	0.100
83.000	52.044	0.100
83.100	59.289	0.100
83.200	52.546	0.100
83.300	69.893	0.100
83.400	53.190	0.100
83.500	64.560	0.100
83.600	63.065	0.100
83.700	56.400	0.100
83.800	56.542	0.100
83.900	56.740	0.100
84.000	69.204	0.100
84.100	66.816	0.100
84.200	63.847	0.100
84.300	62.100	0.100
84.400	57.856	0.100
84.500	50.279	0.100
84.600	57.035	0.100
84.700	65.189	0.100
84.800	53.071	0.100
84.900	65.885	0.100
85.000	55.464	0.100
85.100	61.287	0.100
85.200	60.381	0.100
85.300	49.915	0.100
85.400	63.379	0.100
85.500	69.825	0.100
85.600	70.706	0.100
85.700	56.970	0.100
85.800	60.787	0.100
85.900	50.282	0.100
86.000	61.125	0.100
86.100	72.645	0.100
86.200	54.340	0.100
86.300	58.935	0.100
86.400	54.056	0.100
86.500	49.139	0.100
86.600	54.171	0.100
86.700	66.671	0.100
86.800	65.554	0.100
86.900	65.687	0.100
87.000	63.974	0.100
87.100	62.256	0.100
87.200	61.530	0.100
87.300	48.974	0.100
87.400	57.628	0.100
87.500	71.004	0.100
87.600	57.621	0.100
87.700	58.715	0.100
87.800	64.025	0.100
87.900	55.078	0.100
88.000	49.200	0.100
88.100	62.887	0.100
88.200	66.780	0.100
88.300	57.462	0.100
88.400	39.637	0.100
88.500	50.340	0.100
88.600	47.559	0.100
88.700	71.616	0.100
88.800	51.639	0.100
88.900	58.634	0.100
89.000	65.102	0.100
89.100	55.152	0.100
89.200	54.281	0.100
89.300	51.444	0.100
89.400	64.757	0.100
89.500	71.284	0.100
89.600	51.042	0.100
89.700	54.134	0.100
89.800	57.070	0.100
89.900	59.887	0.100
90.000	61.076	0.100
90.100	47.014	0.100
90.200	52.328	0.100
90.300	47.084	0.100
90.400	47.733	0.100
90.500	31.137	0.100
90.600	28.438	0.100
90.700	31.413	0.100
90.800	30.928	0.100
90.900	33.482	0.100
91.000	14.117	0.100
91.100	33.201	0.100
91.200	17.876	0.100
91.300	8.429	0.100
91.400	17.742	0.100
91.500	13.116	0.100
91.600	11.848	0.100
91.700	11.669	0.100
91.800	5.430	0.100
91.900	8.869	0.100
92.000	9.269	0.100
92.100	9.565	0.100
92.200	5.957	0.100
92.300	-3.028	0.100
92.400	1.350	0.100
92.500	5.505	0.100
92.600	-0.462	0.100
92.700	10.808	0.100
92.800	-2.293	0.100
92.900	-1.626	0.100
93.000	-5.127	0.100
93.100	-6.678	0.100
93.200	-6.390	0.100
93.300	-3.973	0.100
93.400	-8.529	0.100
93.500	-0.194	0.100
93.600	-4.926	0.100
93.700	-20.311	0.100
93.800	-3.588	0.100
93.900	-4.315	0.100
94.000	-15.949	0.100
94.100	-2.501	0.100
94.200	-9.677	0.100
94.300	-5.817	0.100
94.400	-17.082	0.100
94.500	-16.677	0.100
94.600	-14.740	0.100
94.700	-11.710	0.100
94.800	-17.044	0.100
94.900	1.587	0.100
95.000	-10.102	0.100
95.100	-18.493	0.100
95.200	-7.624	0.100
95.300	-7.150	0.100
95.400	-14.802	0.100
95.500	-10.557	0.100
95.600	-4.473	0.100
95.700	-19.280	0.100
95.800	-14.224	0.100
95.900	-5.624	0.100
96.000	-18.788	0.100
96.100	-18.954	0.100
96.200	-7.270	0.100
96.300	-12.429	0.100
96.400	-8.453	0.100
96.500	-6.643	0.100
96.600	-8.925	0.100
96.700	-11.445	0.100
96.800	-13.714	0.100
96.900	-16.780	0.100
97.000	-13.139	0.100
97.100	-18.452	0.100
97.200	-15.041	0.100
97.300	-17.201	0.100
97.400	-6.031	0.100
97.500	-7.131	0.100
97.600	-18.901	0.100
97.700	-17.923	0.100
97.800	-11.378	0.100
97.900	-12.278	0.100
98.000	-3.366	0.100
98.100	-14.997	0.100
98.200	-26.656	0.100
98.300	-4.094	0.100
98.400	-8.142	0.100
98.500	-9.083	0.100
98.600	-3.460	0.100
98.700	-16.857	0.100
98.800	-20.834	0.100
98.900	-16.220	0.100
99.000	-6.722	0.100
99.100	-10.131	0.100
99.200	-21.942	0.100
99.300	-7.391	0.100
99.400	-9.472	0.100
99.500	-5.485	0.100
99.600	-15.452	0.100
99.700	-23.763	0.100
99.800	-4.880	0.100
99.900	-13.473	0.100
100.000	-16.422	0.100
100.100	-12.140	0.100
100.200	-13.884	0.100
100.300	-21.792	0.100
100.400	0.293	0.100
100.500	-18.408	0.100
100.600	-12.564	0.100
100.700	-6.018	0.100
100.800	-13.756	0.100
100.900	-5.081	0.100
101.000	-9.964	0.100
101.100	-5.916	0.100
101.200	-14.366	0.100
101.300	-12.114	0.100
101.400	-16.136	0.100
101.500	-6.695	0.100
101.600	-4.498	0.100
101.700	-1.834	0.100
101.800	-7.760	0.100
101.900	-10.371	0.100
102.000	-14.306	0.100
102.100	-19.539	0.100
102.200	-12.803	0.100
102.300	-1.707	0.100
102.400	-9.683	0.100
102.500	-18.423	0.100
102.600	-19.944	0.100
102.700	-4.655	0.100
102.800	-9.508	0.100
102.900	-18.207	0.100
103.000	-10.323	0.100
103.100	-23.765	0.100
103.200	-13.886	0.100
103.300	-19.438	0.100
103.400	-17.241	0.100
103.500	-14.231	0.100
103.600	-17.359	0.100
103.700	-8.032	0.100
103.800	-4.506	0.100
103.900	-14.426	0.100
104.000	-19.915	0.100
104.100	-23.023	0.100
104.200	-10.682	0.100
104.300	-4.466	0.100
104.400	-19.620	0.100
104.500	-13.564	0.100
104.600	-15.825	0.100
104.700	-15.437	0.100
104.800	-5.898	0.100
104.900	-22.341	0.100
105.000	-19.768	0.100
105.100	-14.075	0.100
105.200	-15.570	0.100
105.300	-16.198	0.100
105.400	-9.700	0.100
105.500	-14.096	0.100
105.600	-14.494	0.100
105.700	-21.063	0.100
105.800	-24.714	0.100
105.900	-22.833	0.100
106.000	-16.591	0.100
106.100	-9.597	0.100
106.200	-16.735	0.100
106.300	1.406	0.100
106.400	-20.531	0.100
106.500	-18.494	0.100
106.600	-28.035	0.100
106.700	-13.304	0.100
106.800	-8.911	0.100
106.900	-19.077	0.100
107.000	-11.309	0.100
107.100	-16.762	0.100
107.200	-2.872	0.100
107.300	-17.195	0.100
107.400	-27.046	0.100
107.500	-21.539	0.100
107.600	-20.066	0.100
107.700	-15.034	0.100
107.800	-16.233	0.100
107.900	-14.627	0.100
108.000	-14.884	0.100
108.100	-13.234	0.100
108.200	-23.954	0.100
108.300	-25.592	0.100
108.400	-10.890	0.100
108.500	-16.672	0.100
108.600	-25.826	0.100
108.700	-18.540	0.100
108.800	-12.300	0.100
108.900	-22.325	0.100
109.000	-14.365	0.100
109.100	-16.208	0.100
109.200	-14.688	0.100
109.300	-19.422	0.100
109.400	-23.099	0.100
109.500	-18.015	0.100
109.600	-16.806	0.100
109.700	-12.966	0.100
109.800	-16.030	0.100
109.900	-19.346	0.100
110.000	-30.620	0.100
110.100	-28.138	0.100
110.200	-19.349	0.100
110.300	-18.997	0.100
110.400	-15.893	0.100
110.500	-33.749	0.100
110.600	-35.294	0.100
110.700	-20.161	0.100
110.800	-12.195	0.100
110.900	-16.809	0.100
111.000	-17.514	0.100
111.100	-17.827	0.100
111.200	-18.759	0.100
111.300	-27.728	0.100
111.400	-19.656	0.100
111.500	-23.536	0.100
111.600	-21.192	0.100
111.700	-21.560	0.100
111.800	-20.536	0.100
111.900	-13.694	0.100
112.000	-31.140	0.100
112.100	-19.842	0.100
112.200	-22.777	0.100
112.300	-19.607	0.100
112.400	-15.063	0.100
112.500	-21.626	0.100
112.600	-24.436	0.100
112.700	-22.221	0.100
112.800	-22.284	0.100
112.900	-20.863	0.100
113.000	-21.636	0.100
113.100	-24.172	0.100
113.200	-18.544	0.100
113.300	-30.496	0.100
113.400	-30.020	0.100
113.500	-20.610	0.100
113.600	-25.748	0.100
113.700	-39.562	0.100
113.800	-29.251	0.100
113.900	-20.700	0.100
114.000	-16.284	0.100
114.100	-17.429	0.100
114.200	-15.431	0.100
114.300	-30.469	0.100
114.400	-23.599	0.100
114.500	-23.534	0.100
114.600	-29.698	0.100
114.700	-11.048	0.100
114.800	-20.582	0.100
114.900	-25.162	0.100
115.000	-15.005	0.100
115.100	-16.658	0.100
115.200	-19.106	0.100
115.300	-8.862	0.100
115.400	-30.563	0.100
115.500	-34.562	0.100
115.600	-30.355	0.100
115.700	-22.938	0.100
115.800	-18.788	0.100
115.900	-21.350	0.100
116.000	-16.177	0.100
116.100	-28.074	0.100
116.200	-25.115	0.100
116.300	-30.059	0.100
116.400	-26.259	0.100
116.500	-19.937	0.100
116.600	-21.565	0.100
116.700	-24.488	0.100
116.800	-38.050	0.100
116.900	-21.518	0.100
117.000	-27.674	0.100
117.100	-22.491	0.100
117.200	-19.715	0.100
117.300	-30.434	0.100
117.400	-34.335	0.100
117.500	-34.106	0.100
117.600	-21.308	0.100
117.700	-28.877	0.100
117.800	-21.043	0.100
117.900	-19.598	0.100
118.000	-27.284	0.100
118.100	-31.774	0.100
118.200	-24.029	0.100
118.300	-17.115	0.100
118.400	-22.881	0.100
118.500	-33.649	0.100
118.600	-26.825	0.100
118.700	-30.289	0.100
118.800	-18.813	0.100
118.900	-37.646	0.100
119.000	-37.259	0.100
119.100	-24.747	0.100
119.200	-22.678	0.100
119.300	-29.920	0.100
119.400	-24.769	0.100
119.500	-27.264	0.100
119.600	-26.379	0.100
119.700	-34.444	0.100
119.800	-34.634	0.100
119.900	-34.841	0.100
120.000	-20.882	0.100
120.100	-17.296	0.100
120.200	-30.154	0.100
120.300	-25.487	0.100
120.400	-28.536	0.100
120.500	-14.642	0.100
120.600	-23.713	0.100
120.700	-34.058	0.100
120.800	-31.894	0.100
120.900	-41.576	0.100
121.000	-27.336	0.100
121.100	-21.160	0.100
121.200	-28.241	0.100
121.300	-32.827	0.100
121.400	-27.101	0.100
121.500	-40.381	0.100
121.600	-29.687	0.100
121.700	-26.381	0.100
121.800	-21.792	0.100
121.900	-26.115	0.100
122.000	-34.970	0.100
122.100	-22.474	0.100
122.200	-12.819	0.100
122.300	-23.132	0.100
122.400	-32.656	0.100
122.500	-30.503	0.100
122.600	-25.025	0.100
122.700	-35.578	0.100
122.800	-24.985	0.100
122.900	-34.053	0.100
123.000	-35.036	0.100
123.100	-30.436	0.100
123.200	-35.370	0.100
123.300	-25.420	0.100
123.400	-48.782	0.100
123.500	-29.113	0.100
123.600	-26.816	0.100
123.700	-15.084	0.100
123.800	-25.960	0.100
123.900	-25.838	0.100
124.000	-17.923	0.100
124.100	-38.155	0.100
124.200	-35.768	0.100
124.300	-25.095	0.100
124.400	-41.498	0.100
124.500	-34.188	0.100
124.600	-17.911	0.100
124.700	-29.754	0.100
124.800	-25.052	0.100
124.900	-34.709	0.100
125.000	-31.702	0.100
125.100	-31.277	0.100
125.200	-33.916	0.100
125.300	-20.553	0.100
125.400	-32.805	0.100
125.500	-27.430	0.100
125.600	-31.061	0.100
125.700	-26.743	0.100
125.800	-28.277	0.100
125.900	-35.905	0.100
126.000	-34.002	0.100
126.100	-29.568	0.100
126.200	-39.142	0.100
126.300	-29.446	0.100
126.400	-21.018	0.100
126.500	-26.991	0.100
126.600	-32.454	0.100
126.700	-34.954	0.100
126.800	-30.369	0.100
126.900	-44.029	0.100
127.000	-22.634	0.100
127.100	-26.867	0.100
127.200	-31.861	0.100
127.300	-38.593	0.100
127.400	-33.585	0.100
127.500	-14.131	0.100
127.600	-27.534	0.100
127.700	-39.755	0.100
127.800	-33.679	0.100
127.900	-28.599	0.100
128.000	-28.625	0.100
128.100	-31.966	0.100
128.200	-32.218	0.100
128.300	-32.200	0.100
128.400	-29.351	0.100
128.500	-36.136	0.100
128.600	-29.647	0.100
128.700	-37.465	0.100
128.800	-35.936	0.100
128.900	-42.157	0.100
129.000	-40.702	0.100
129.100	-28.948	0.100
129.200	-35.305	0.100
129.300	-22.087	0.100
129.400	-25.827	0.100
129.500	-25.705	0.100
129.600	-39.356	0.100
129.700	-46.159	0.100
129.800	-32.356	0.100
129.900	-23.159	0.100
130.000	-32.815	0.100
130.100	-39.366	0.100
130.200	-36.995	0.100
130.300	-30.038	0.100
130.400	-27.865	0.100
130.500	-36.722	0.100
130.600	-31.830	0.100
130.700	-37.011	0.100
130.800	-23.136	0.100
130.900	-24.687	0.100
131.000	-34.747	0.100
131.100	-44.023	0.100
131.200	-45.323	0.100
131.300	-39.437	0.100
131.400	-30.226	0.100
131.500	-38.779	0.100
131.600	-28.935	0.100
131.700	-30.897	0.100
131.800	-32.135	0.100
131.900	-20.574	0.100
132.000	-39.856	0.100
132.100	-36.358	0.100
132.200	-40.097	0.100
132.300	-42.504	0.100
132.400	-31.381	0.100
132.500	-41.538	0.100
132.600	-27.985	0.100
132.700	-27.970	0.100
132.800	-42.532	0.100
132.900	-33.496	0.100
133.000	-35.704	0.100
133.100	-36.969	0.100
133.200	-47.224	0.100
133.300	-30.911	0.100
133.400	-29.754	0.100
133.500	-38.023	0.100
133.600	-28.430	0.100
133.700	-29.759	0.100
133.800	-31.370	0.100
133.900	-34.147	0.100
134.000	-31.047	0.100
134.100	-34.108	0.100
134.200	-35.819	0.100
134.300	-42.534	0.100
134.400	-25.197	0.100
134.500	-32.847	0.100
134.600	-23.579	0.100
134.700	-38.807	0.100
134.800	-32.374	0.100
134.900	-31.575	0.100
135.000	-31.272	0.100
135.100	-36.124	0.100
135.200	-33.980	0.100
135.300	-38.976	0.100
135.400	-13.513	0.100
135.500	-38.890	0.100
135.600	-32.859	0.100
135.700	-35.130	0.100
135.800	-26.511	0.100
135.900	-25.174	0.100
136.000	-37.476	0.100
136.100	-43.674	0.100
136.200	-36.440	0.100
136.300	-28.916	0.100
136.400	-43.897	0.100
136.500	-28.124	0.100
136.600	-31.853	0.100
136.700	-33.864	0.100
136.800	-31.730	0.100
136.900	-30.309	0.100
137.000	-40.484	0.100
137.100	-34.218	0.100
137.200	-30.786	0.100
137.300	-30.174	0.100
137.400	-38.780	0.100
137.500	-34.955	0.100
137.600	-24.347	0.100
137.700	-32.954	0.100
137.800	-28.721	0.100
137.900	-36.536	0.100
138.000	-34.722	0.100
138.100	-26.854	0.100
138.200	-39.668	0.100
138.300	-27.409	0.100
138.400	-32.590	0.100
138.500	-40.230	0.100
138.600	-35.043	0.100
138.700	-32.989	0.100
138.800	-36.770	0.100
138.900	-30.077	0.100
139.000	-28.907	0.100
139.100	-34.496	0.100
139.200	-38.347	0.100
139.300	-36.740	0.100
139.400	-30.014	0.100
139.500	-29.978	0.100
139.600	-29.044	0.100
139.700	-40.833	0.100
139.800	-27.299	0.100
139.900	-21.019	0.100
140.000	-23.670	0.100
140.100	-44.909	0.100
140.200	-21.553	0.100
140.300	-28.767	0.100
140.400	-26.882	0.100
140.500	-33.560	0.100
140.600	-35.806	0.100
140.700	-29.891	0.100
140.800	-28.678	0.100
140.900	-23.440	0.100
141.000	-38.965	0.100
141.100	-30.989	0.100
141.200	-30.248	0.100
141.300	-27.920	0.100
141.400	-37.984	0.100
141.500	-26.968	0.100
141.600	-20.110	0.100
141.700	-44.136	0.100
141.800	-27.491	0.100
141.900	-39.651	0.100
142.000	-37.970	0.100
142.100	-28.674	0.100
142.200	-22.913	0.100
142.300	-33.784	0.100
142.400	-32.368	0.100
142.500	-40.313	0.100
142.600	-29.148	0.100
142.700	-34.265	0.100
142.800	-31.344	0.100
142.900	-31.175	0.100
143.000	-28.972	0.100
143.100	-25.794	0.100
143.200	-34.278	0.100
143.300	-35.739	0.100
143.400	-27.303	0.100
143.500	-29.664	0.100
143.600	-36.521	0.100
143.700	-36.514	0.100
143.800	-32.347	0.100
143.900	-24.458	0.100
144.000	-36.928	0.100
144.100	-29.737	0.100
144.200	-37.748	0.100
144.300	-29.929	0.100
144.400	-29.041	0.100
144.500	-44.070	0.100
144.600	-48.788	0.100
144.700	-31.681	0.100
144.800	-27.194	0.100
144.900	-26.315	0.100
145.000	-9.120	0.100
145.100	-27.538	0.100
145.200	-36.370	0.100
145.300	-40.972	0.100
145.400	-27.284	0.100
145.500	-31.057	0.100
145.600	-35.999	0.100
145.700	-17.191	0.100
145.800	-21.800	0.100
145.900	-19.795	0.100
146.000	-33.833	0.100
146.100	-30.948	0.100
146.200	-29.102	0.100
146.300	-20.113	0.100
146.400	-28.712	0.100
146.500	-26.276	0.100
146.600	-32.582	0.100
146.700	-35.672	0.100
146.800	-30.966	0.100
146.900	-33.845	0.100
147.000	-26.048	0.100
147.100	-21.140	0.100
147.200	-19.479	0.100
147.300	-37.420	0.100
147.400	-33.156	0.100
147.500	-30.780	0.100
147.600	-53.981	0.100
147.700	-30.470	0.100
147.800	-24.113	0.100
147.900	-18.582	0.100
148.000	-34.459	0.100
148.100	-33.676	0.100
148.200	-38.209	0.100
148.300	-23.801	0.100
148.400	-20.338	0.100
148.500	-29.478	0.100
148.600	-25.403	0.100
148.700	-29.178	0.100
148.800	-34.397	0.100
148.900	-23.949	0.100
149.000	-40.659	0.100
149.100	-21.537	0.100
149.200	-43.984	0.100
149.300	-31.971	0.100
149.400	-29.584	0.100
149.500	-31.280	0.100
149.600	-29.027	0.100
149.700	-29.220	0.100
149.800	-38.469	0.100
149.900	-15.486	0.100
150.000	-31.598	0.100
150.100	-31.508	0.100
150.200	-28.744	0.100
150.300	-37.861	0.100
150.400	-31.490	0.100
150.500	-31.480	0.100
150.600	-13.182	0.100
150.700	-14.388	0.100
150.800	-28.571	0.100
150.900	-34.619	0.100
151.000	-29.502	0.100
151.100	-23.413	0.100
151.200	-31.975	0.100
151.300	-26.961	0.100
151.400	-29.948	0.100
151.500	-27.084	0.100
151.600	-33.128	0.100
151.700	-18.401	0.100
151.800	-18.968	0.100
151.900	-33.772	0.100
152.000	-20.553	0.100
152.100	-22.458	0.100
152.200	-29.195	0.100
152.300	-30.982	0.100
152.400	-24.052	0.100
152.500	-23.396	0.100
152.600	-43.558	0.100
152.700	-31.379	0.100
152.800	-15.738	0.100
152.900	-36.691	0.100
153.000	-20.752	0.100
153.100	-22.990	0.100
153.200	-34.191	0.100
153.300	-20.437	0.100
153.400	-32.073	0.100
153.500	-40.784	0.100
153.600	-20.909	0.100
153.700	-25.064	0.100
153.800	-36.017	0.100
153.900	-29.460	0.100
154.000	-24.344	0.100
154.100	-28.567	0.100
154.200	-33.035	0.100
154.300	-21.359	0.100
154.400	-18.715	0.100
154.500	-27.067	0.100
154.600	-27.912	0.100
154.700	-18.057	0.100
154.800	-23.424	0.100
154.900	-28.659	0.100
155.000	-20.244	0.100
155.100	-22.373	0.100
155.200	-19.836	0.100
155.300	-32.393	0.100
155.400	-27.292	0.100
155.500	-36.086	0.100
155.600	-22.593	0.100
155.700	-26.866	0.100
155.800	-27.984	0.100
155.900	-37.223	0.100
156.000	-26.223	0.100
156.100	-30.350	0.100
156.200	-18.156	0.100
156.300	-29.316	0.100
156.400	-23.278	0.100
156.500	-29.199	0.100
156.600	-27.125	0.100
156.700	-40.552	0.100
156.800	-19.569	0.100
156.900	-22.192	0.100
157.000	-20.120	0.100
157.100	-20.875	0.100
157.200	-23.025	0.100
157.300	-20.688	0.100
157.400	-28.343	0.100
157.500	-20.558	0.100
157.600	-29.108	0.100
157.700	-14.997	0.100
157.800	-27.097	0.100
157.900	-33.483	0.100
158.000	-30.958	0.100
158.100	-26.820	0.100
158.200	-32.573	0.100
158.300	-24.014	0.100
158.400	-15.680	0.100
158.500	-36.413	0.100
158.600	-38.266	0.100
158.700	-23.581	0.100
158.800	-19.942	0.100
158.900	-29.252	0.100
159.000	-19.745	0.100
159.100	-33.545	0.100
159.200	-39.549	0.100
159.300	-35.776	0.100
159.400	-33.743	0.100
159.500	-18.325	0.100
159.600	-26.035	0.100
159.700	-23.358	0.100
159.800	-28.519	0.100
159.900	-20.776	0.100
160.000	-32.915	0.100
160.100	-25.776	0.100
160.200	-28.699	0.100
160.300	-24.014	0.100
160.400	-27.831	0.100
160.500	-34.322	0.100
160.600	-21.776	0.100
160.700	-26.759	0.100
160.800	-23.407	0.100
160.900	-18.853	0.100
161.000	-27.594	0.100
161.100	-22.464	0.100
161.200	-27.061	0.100
161.300	-32.486	0.100
161.400	-22.216	0.100
161.500	-18.730	0.100
161.600	-26.939	0.100
161.700	-31.120	0.100
161.800	-28.488	0.100
161.900	-16.057	0.100
162.000	-19.398	0.100
162.100	-16.669	0.100
162.200	-21.276	0.100
162.300	-33.117	0.100
162.400	-20.758	0.100
162.500	-32.110	0.100
162.600	-20.902	0.100
162.700	-20.556	0.100
162.800	-21.257	0.100
162.900	-25.693	0.100
163.000	-26.692	0.100
163.100	-33.642	0.100
163.200	-22.069	0.100
163.300	-18.655	0.100
163.400	-29.127	0.100
163.500	-21.606	0.100
163.600	-24.047	0.100
163.700	-20.477	0.100
163.800	-21.926	0.100
163.900	-20.666	0.100
164.000	-35.047	0.100
164.100	-24.191	0.100
164.200	-14.292	0.100
164.300	-25.453	0.100
164.400	-28.393	0.100
164.500	-31.437	0.100
164.600	-30.081	0.100
164.700	-27.103	0.100
164.800	-23.808	0.100
164.900	-11.653	0.100
165.000	-20.384	0.100
165.100	-23.515	0.100
165.200	-25.142	0.100
165.300	-29.899	0.100
165.400	-21.641	0.100
165.500	-33.883	0.100
165.600	-20.696	0.100
165.700	-28.602	0.100
165.800	-38.694	0.100
165.900	-24.470	0.100
166.000	-24.776	0.100
166.100	-22.466	0.100
166.200	-23.302	0.100
166.300	-25.764	0.100
166.400	-10.689	0.100
166.500	-17.511	0.100
166.600	-27.573	0.100
166.700	-23.090	0.100
166.800	-16.892	0.100
166.900	-24.274	0.100
167.000	-29.955	0.100
167.100	-27.903	0.100
167.200	-18.843	0.100
167.300	-23.433	0.100
167.400	-16.504	0.100
167.500	-26.160	0.100
167.600	-24.811	0.100
167.700	-20.061	0.100
167.800	-21.178	0.100
167.900	-25.950	0.100
168.000	-18.058	0.100
168.100	-19.008	0.100
168.200	-30.417	0.100
168.300	-26.458	0.100
168.400	-35.046	0.100
168.500	-15.940	0.100
168.600	-22.705	0.100
168.700	-22.863	0.100
168.800	-21.203	0.100
168.900	-26.163	0.100
169.000	-25.776	0.100
169.100	-27.250	0.100
169.200	-19.608	0.100
169.300	-20.424	0.100
169.400	-17.436	0.100
169.500	-18.827	0.100
169.600	-16.972	0.100
169.700	-20.324	0.100
169.800	-28.650	0.100
169.900	-28.863	0.100
170.000	-17.144	0.100
170.100	-23.310	0.100
170.200	-22.503	0.100
170.300	-26.170	0.100
170.400	-20.381	0.100
170.500	-20.547	0.100
170.600	-23.218	0.100
170.700	-15.575	0.100
170.800	-16.524	0.100
170.900	-33.313	0.100
171.000	-33.216	0.100
171.100	-16.315	0.100
171.200	-20.313	0.100
171.300	-17.448	0.100
171.400	-10.706	0.100
171.500	-19.097	0.100
171.600	-25.417	0.100
171.700	-31.152	0.100
171.800	-25.502	0.100
171.900	-22.094	0.100
172.000	-23.068	0.100
172.100	-20.252	0.100
172.200	-31.163	0.100
172.300	-33.340	0.100
172.400	-29.462	0.100
172.500	-20.570	0.100
172.600	-19.755	0.100
172.700	-28.572	0.100
172.800	-21.926	0.100
172.900	-17.026	0.100
173.000	-23.623	0.100
173.100	-29.772	0.100
173.200	-22.289	0.100
173.300	-19.969	0.100
173.400	-23.840	0.100
173.500	-25.566	0.100
173.600	-14.808	0.100
173.700	-27.956	0.100
173.800	-28.099	0.100
173.900	-17.380	0.100
174.000	-28.540	0.100
174.100	-18.280	0.100
174.200	-31.708	0.100
174.300	-19.380	0.100
174.400	-7.974	0.100
174.500	-19.772	0.100
174.600	-21.668	0.100
174.700	-28.215	0.100
174.800	-33.010	0.100
174.900	-23.988	0.100
175.000	-25.713	0.100
175.100	-14.527	0.100
175.200	-17.138	0.100
175.300	-25.751	0.100
175.400	-24.714	0.100
175.500	-22.111	0.100
175.600	-9.782	0.100
175.700	-27.045	0.100
175.800	-24.189	0.100
175.900	-20.764	0.100
176.000	-18.665	0.100
176.100	-27.730	0.100
176.200	-23.032	0.100
176.300	-9.062	0.100
176.400	-11.289	0.100
176.500	-28.842	0.100
176.600	-19.019	0.100
176.700	-16.181	0.100
176.800	-23.055	0.100
176.900	-24.082	0.100
177.000	-19.715	0.100
177.100	-21.611	0.100
177.200	-26.600	0.100
177.300	-26.002	0.100
177.400	-23.999	0.100
177.500	-23.796	0.100
177.600	-23.368	0.100
177.700	-27.347	0.100
177.800	-11.929	0.100
177.900	-17.024	0.100
178.000	-16.238	0.100
178.100	-28.664	0.100
178.200	-22.304	0.100
178.300	-11.843	0.100
178.400	-21.496	0.100
178.500	-15.228	0.100
178.600	-18.267	0.100
178.700	-18.696	0.100
178.800	-29.065	0.100
178.900	-11.832	0.100
179.000	-12.722	0.100
179.100	-26.130	0.100
179.200	-12.138	0.100
179.300	-27.991	0.100
179.400	-14.677	0.100
179.500	-29.824	0.100
179.600	-24.824	0.100
179.700	-27.668	0.100
179.800	-18.682	0.100
179.900	-18.672	0.100
180.000	-26.472	0.100
180.100	-19.962	0.100
180.200	-23.985	0.100
180.300	-13.132	0.100
180.400	-5.868	0.100
180.500	-6.734	0.100
180.600	11.126	0.100
180.700	14.314	0.100
180.800	12.472	0.100
180.900	3.053	0.100
181.000	20.628	0.100
181.100	13.272	0.100
181.200	17.048	0.100
181.300	22.678	0.100
181.400	21.760	0.100
181.500	20.234	0.100
181.600	12.710	0.100
181.700	34.857	0.100
181.800	18.357	0.100
181.900	29.652	0.100
182.000	35.515	0.100
182.100	25.899	0.100
182.200	31.540	0.100
182.300	29.230	0.100
182.400	28.483	0.100
182.500	40.773	0.100
182.600	34.398	0.100
182.700	19.960	0.100
182.800	21.376	0.100
182.900	14.467	0.100
183.000	31.878	0.100
183.100	37.143	0.100
183.200	28.591	0.100
183.300	31.683	0.100
183.400	36.959	0.100
183.500	32.624	0.100
183.600	42.285	0.100
183.700	41.573	0.100
183.800	32.561	0.100
183.900	33.160	0.100
184.000	19.893	0.100
184.100	38.420	0.100
184.200	35.254	0.100
184.300	37.535	0.100
184.400	38.993	0.100
184.500	43.857	0.100
184.600	35.803	0.100
184.700	38.095	0.100
184.800	40.428	0.100
184.900	31.035	0.100
185.000	37.535	0.100
185.100	42.394	0.100
185.200	29.735	0.100
185.300	23.102	0.100
185.400	43.094	0.100
185.500	26.572	0.100
185.600	30.023	0.100
185.700	35.851	0.100
185.800	42.483	0.100
185.900	32.961	0.100
186.000	27.679	0.100
186.100	40.832	0.100
186.200	41.018	0.100
186.300	37.051	0.100
186.400	39.913	0.100
186.500	29.492	0.100
186.600	30.388	0.100
186.700	31.572	0.100
186.800	32.484	0.100
186.900	25.565	0.100
187.000	34.172	0.100
187.100	25.885	0.100
187.200	39.060	0.100
187.300	34.787	0.100
187.400	35.044	0.100
187.500	30.725	0.100
187.600	40.034	0.100
187.700	34.096	0.100
187.800	33.282	0.100
187.900	40.840	0.100
188.000	51.655	0.100
188.100	18.830	0.100
188.200	46.853	0.100
188.300	37.532	0.100
188.400	26.875	0.100
188.500	45.461	0.100
188.600	42.536	0.100
188.700	52.997	0.100
188.800	30.479	0.100
188.900	38.368	0.100
189.000	39.912	0.100
189.100	40.667	0.100
189.200	33.110	0.100
189.300	43.367	0.100
189.400	45.010	0.100
189.500	37.339	0.100
189.600	42.281	0.100
189.700	28.603	0.100
189.800	30.474	0.100
189.900	35.493	0.100
190.000	42.257	0.100
190.100	44.594	0.100
190.200	32.279	0.100
190.300	52.467	0.100
190.400	37.236	0.100
190.500	33.736	0.100
190.600	46.545	0.100
190.700	38.273	0.100
190.800	48.363	0.100
190.900	47.270	0.100
191.000	50.249	0.100
191.100	39.133	0.100
191.200	46.037	0.100
191.300	44.682	0.100
191.400	36.513	0.100
191.500	29.667	0.100
191.600	46.736	0.100
191.700	39.383	0.100
191.800	45.763	0.100
191.900	46.590	0.100
192.000	41.782	0.100
192.100	49.860	0.100
192.200	40.481	0.100
192.300	51.060	0.100
192.400	39.347	0.100
192.500	36.531	0.100
192.600	46.547	0.100
192.700	45.183	0.100
192.800	33.844	0.100
192.900	60.210	0.100
193.000	37.657	0.100
193.100	57.503	0.100
193.200	46.296	0.100
193.300	48.889	0.100
193.400	37.845	0.100
193.500	50.329	0.100
193.600	47.076	0.100
193.700	52.397	0.100
193.800	57.147	0.100
193.900	40.911	0.100
194.000	37.537	0.100
194.100	50.214	0.100
194.200	52.925	0.100
194.300	47.696	0.100
194.400	45.373	0.100
194.500	57.674	0.100
194.600	52.801	0.100
194.700	49.253	0.100
194.800	51.539	0.100
194.900	48.571	0.100
195.000	57.543	0.100
195.100	56.121	0.100
195.200	42.317	0.100
195.300	48.650	0.100
195.400	53.288	0.100
195.500	47.321	0.100
195.600	54.096	0.100
195.700	53.731	0.100
195.800	57.328	0.100
195.900	49.861	0.100
196.000	56.551	0.100
196.100	58.476	0.100
196.200	53.677	0.100
196.300	70.190	0.100
196.400	66.157	0.100
196.500	55.689	0.100
196.600	54.826	0.100
196.700	56.821	0.100
196.800	60.056	0.100
196.900	54.897	0.100
197.000	47.579	0.100
197.100	52.232	0.100
197.200	58.064	0.100
197.300	67.846	0.100
197.400	54.951	0.100
197.500	60.473	0.100
197.600	54.137	0.100
197.700	63.061	0.100
197.800	56.155	0.100
197.900	71.104	0.100
198.000	63.757	0.100
198.100	68.346	0.100
198.200	53.913	0.100
198.300	63.120	0.100
198.400	64.378	0.100
198.500	64.487	0.100
198.600	63.608	0.100
198.700	71.615	0.100
198.800	62.794	0.100
198.900	72.790	0.100
199.000	69.430	0.100
199.100	65.854	0.100
199.200	72.903	0.100
199.300	70.758	0.100
199.400	66.068	0.100
199.500	69.234	0.100
199.600	68.661	0.100
199.700	59.669	0.100
199.800	59.448	0.100
199.900	78.078	0.100
200.000	69.608	0.100
200.100	60.743	0.100
200.200	67.120	0.100
200.300	59.349	0.100
200.400	66.743	0.100
200.500	71.786	0.100
200.600	74.092	0.100
200.700	77.503	0.100
200.800	69.342	0.100
200.900	74.008	0.100
201.000	72.685	0.100
201.100	75.486	0.100
201.200	63.357	0.100
201.300	78.161	0.100
201.400	68.932	0.100
201.500	73.931	0.100
201.600	63.747	0.100
201.700	76.714	0.100
201.800	75.141	0.100
201.900	78.790	0.100
202.000	74.859	0.100
202.100	65.311	0.100
202.200	79.941	0.100
202.300	79.915	0.100
202.400	72.448	0.100
202.500	74.069	0.100
202.600	80.242	0.100
202.700	70.091	0.100
202.800	80.799	0.100
202.900	77.632	0.100
203.000	66.059	0.100
203.100	74.311	0.100
203.200	78.780	0.100
203.300	80.329	0.100
203.400	69.842	0.100
203.500	73.637	0.100
203.600	84.152	0.100
203.700	83.859	0.100
203.800	90.825	0.100
203.900	75.182	0.100
204.000	74.117	0.100
204.100	83.925	0.100
204.200	79.740	0.100
204.300	72.228	0.100
204.400	75.317	0.100
204.500	82.364	0.100
204.600	78.328	0.100
204.700	71.288	0.100
204.800	73.039	0.100
204.900	61.635	0.100
205.000	89.948	0.100
205.100	83.131	0.100
205.200	72.705	0.100
205.300	72.797	0.100
205.400	71.616	0.100
205.500	71.767	0.100
205.600	72.816	0.100
205.700	79.496	0.100
205.800	77.708	0.100
205.900	78.352	0.100
206.000	72.889	0.100
206.100	83.287	0.100
206.200	73.280	0.100
206.300	89.370	0.100
206.400	57.331	0.100
206.500	81.238	0.100
206.600	70.076	0.100
206.700	79.022	0.100
206.800	86.068	0.100
206.900	80.473	0.100
207.000	72.020	0.100
207.100	80.832	0.100
207.200	67.424	0.100
207.300	89.080	0.100
207.400	81.908	0.100
207.500	80.875	0.100
207.600	79.716	0.100
207.700	78.370	0.100
207.800	73.034	0.100
207.900	68.713	0.100
208.000	69.591	0.100
208.100	80.278	0.100
208.200	72.672	0.100
208.300	72.365	0.100
208.400	82.120	0.100
208.500	70.748	0.100
208.600	67.984	0.100
208.700	69.676	0.100
208.800	68.009	0.100
208.900	77.611	0.100
209.000	75.485	0.100
209.100	80.754	0.100
209.200	64.469	0.100
209.300	65.010	0.100
209.400	81.409	0.100
209.500	76.213	0.100
209.600	83.752	0.100
209.700	75.053	0.100
209.800	62.979	0.100
209.900	76.945	0.100
210.000	73.009	0.100
210.100	62.472	0.100
210.200	82.165	0.100
210.300	66.714	0.100
210.400	82.986	0.100
210.500	72.901	0.100
210.600	58.381	0.100
210.700	79.192	0.100
210.800	65.326	0.100
210.900	74.712	0.100
211.000	78.725	0.100
211.100	87.274	0.100
211.200	75.706	0.100
211.300	70.203	0.100
211.400	79.247	0.100
211.500	79.142	0.100
211.600	61.414	0.100
211.700	70.420	0.100
211.800	81.020	0.100
211.900	66.909	0.100
212.000	61.154	0.100
212.100	74.480	0.100
212.200	66.039	0.100
212.300	89.149	0.100
212.400	70.142	0.100
212.500	55.656	0.100
212.600	57.965	0.100
212.700	69.102	0.100
212.800	56.037	0.100
212.900	68.169	0.100
213.000	95.932	0.100
213.100	78.316	0.100
213.200	71.377	0.100
213.300	75.951	0.100
213.400	62.372	0.100
213.500	70.539	0.100
213.600	82.100	0.100
213.700	67.981	0.100
213.800	70.271	0.100
213.900	71.857	0.100
214.000	65.770	0.100
214.100	63.560	0.100
214.200	71.365	0.100
214.300	71.492	0.100
214.400	69.027	0.100
214.500	69.305	0.100
214.600	67.643	0.100
214.700	71.563	0.100
214.800	70.819	0.100
214.900	62.608	0.100
215.000	73.853	0.100
215.100	61.110	0.100
215.200	78.150	0.100
215.300	70.122	0.100
215.400	71.148	0.100
215.500	67.775	0.100
215.600	76.735	0.100
215.700	70.477	0.100
215.800	79.690	0.100
215.900	72.067	0.100
216.000	62.941	0.100
216.100	71.115	0.100
216.200	65.476	0.100
216.300	62.502	0.100
216.400	60.430	0.100
216.500	68.763	0.100
216.600	65.675	0.100
216.700	56.042	0.100
216.800	72.730	0.100
216.900	69.287	0.100
217.000	71.634	0.100
217.100	61.634	0.100
217.200	63.870	0.100
217.300	87.524	0.100
217.400	76.811	0.100
217.500	53.951	0.100
217.600	61.582	0.100
217.700	48.706	0.100
217.800	66.819	0.100
217.900	70.690	0.100
218.000	74.986	0.100
218.100	60.214	0.100
218.200	76.654	0.100
218.300	67.221	0.100
218.400	75.142	0.100
218.500	72.946	0.100
218.600	68.449	0.100
218.700	62.357	0.100
218.800	71.901	0.100
218.900	70.348	0.100
219.000	69.491	0.100
219.100	70.242	0.100
219.200	61.739	0.100
219.300	60.188	0.100
219.400	76.478	0.100
219.500	61.292	0.100
219.600	66.190	0.100
219.700	71.090	0.100
219.800	67.039	0.100
219.900	63.369	0.100
220.000	67.148	0.100
220.100	59.816	0.100
220.200	77.984	0.100
220.300	65.587	0.100
220.400	63.265	0.100
220.500	76.005	0.100
220.600	53.800	0.100
220.700	60.270	0.100
220.800	63.284	0.100
220.900	66.815	0.100
221.000	82.740	0.100
221.100	67.222	0.100
221.200	58.639	0.100
221.300	63.066	0.100
221.400	70.662	0.100
221.500	64.639	0.100
221.600	64.917	0.100
221.700	60.330	0.100
221.800	70.819	0.100
221.900	66.023	0.100
222.000	62.576	0.100
222.100	60.905	0.100
222.200	75.585	0.100
222.300	63.641	0.100
222.400	66.794	0.100
222.500	68.330	0.100
222.600	64.085	0.100
222.700	65.039	0.100
222.800	62.891	0.100
222.900	74.879	0.100
223.000	66.935	0.100
223.100	70.927	0.100
223.200	79.698	0.100
223.300	58.187	0.100
223.400	63.471	0.100
223.500	61.019	0.100
223.600	58.016	0.100
223.700	62.069	0.100
223.800	59.691	0.100
223.900	62.471	0.100
224.000	71.012	0.100
224.100	47.084	0.100
224.200	68.517	0.100
224.300	68.938	0.100
224.400	69.632	0.100
224.500	67.453	0.100
224.600	66.162	0.100
224.700	66.225	0.100
224.800	63.698	0.100
224.900	76.198	0.100
225.000	60.818	0.100
225.100	72.293	0.100
225.200	67.392	0.100
225.300	64.994	0.100
225.400	69.244	0.100
225.500	64.750	0.100
225.600	76.187	0.100
225.700	69.065	0.100
225.800	68.819	0.100
225.900	64.409	0.100
226.000	66.422	0.100
226.100	59.449	0.100
226.200	53.747	0.100
226.300	68.157	0.100
226.400	68.362	0.100
226.500	71.625	0.100
226.600	66.589	0.100
226.700	75.383	0.100
226.800	67.429	0.100
226.900	57.739	0.100
227.000	70.641	0.100
227.100	56.705	0.100
227.200	55.803	0.100
227.300	65.819	0.100
227.400	61.552	0.100
227.500	67.492	0.100
227.600	61.608	0.100
227.700	54.360	0.100
227.800	75.349	0.100
227.900	68.664	0.100
228.000	69.160	0.100
228.100	70.312	0.100
228.200	69.787	0.100
228.300	68.696	0.100
228.400	53.437	0.100
228.500	61.802	0.100
228.600	63.876	0.100
228.700	66.258	0.100
228.800	66.241	0.100
228.900	68.429	0.100
229.000	62.171	0.100
229.100	59.860	0.100
229.200	66.334	0.100
229.300	59.291	0.100
229.400	66.062	0.100
229.500	63.876	0.100
229.600	69.390	0.100
229.700	68.334	0.100
229.800	45.746	0.100
229.900	59.238	0.100
230.000	74.588	0.100
230.100	66.028	0.100
230.200	59.696	0.100
230.300	68.219	0.101
230.400	68.990	0.101
230.500	62.617	0.101
230.600	68.954	0.101
230.700	63.235	0.101
230.800	67.869	0.101
230.900	68.158	0.101
231.000	61.453	0.101
231.100	79.657	0.101
231.200	64.263	0.101
231.300	62.684	0.101
231.400	62.600	0.101
231.500	60.247	0.101
231.600	57.147	0.101
231.700	63.997	0.101
231.800	64.534	0.101
231.900	65.290	0.101
232.000	72.824	0.101
232.100	61.559	0.101
232.200	57.218	0.101
232.300	71.866	0.101
232.400	60.008	0.101
232.500	61.805	0.101
232.600	63.232	0.101
232.700	69.194	0.101
232.800	58.683	0.101
232.900	58.055	0.101
233.000	72.377	0.101
233.100	68.541	0.101
233.200	47.432	0.101
233.300	52.648	0.101
233.400	53.631	0.101
233.500	60.118	0.101
233.600	67.341	0.101
233.700	68.932	0.101
233.800	63.639	0.101
233.900	61.439	0.101
234.000	72.030	0.101
234.100	72.264	0.101
234.200	62.542	0.101
234.300	73.924	0.101
234.400	69.561	0.101
234.500	63.760	0.101
234.600	58.488	0.101
234.700	60.400	0.101
234.800	62.021	0.101
234.900	64.380	0.101
235.000	61.397	0.101
235.100	57.462	0.101
235.200	58.234	0.101
235.300	62.132	0.101
235.400	62.521	0.101
235.500	80.815	0.101
235.600	66.467	0.101
235.700	66.399	0.101
235.800	63.469	0.101
235.900	64.313	0.101
236.000	60.293	0.101
236.100	71.529	0.101
236.200	64.010	0.101
236.300	67.757	0.101
236.400	66.272	0.101
236.500	71.069	0.101
236.600	56.157	0.101
236.700	55.661	0.101
236.800	60.572	0.101
236.900	53.428	0.101
237.000	77.007	0.101
237.100	79.780	0.101
237.200	74.997	0.101
237.300	62.390	0.101
237.400	62.471	0.101
237.500	55.858	0.101
237.600	67.722	0.101
237.700	61.062	0.101
237.800	73.285	0.101
237.900	54.424	0.101
238.000	60.284	0.101
238.100	68.411	0.101
238.200	62.632	0.101
238.300	65.346	0.101
238.400	69.853	0.101
238.500	71.908	0.101
238.600	64.838	0.101
238.700	68.531	0.101
238.800	51.322	0.101
238.900	57.015	0.101
239.000	65.724	0.101
239.100	60.690	0.101
239.200	61.344	0.101
239.300	61.778	0.101
239.400	68.266	0.101
239.500	54.267	0.101
239.600	62.325	0.101
239.700	68.284	0.101
239.800	59.479	0.101
239.900	57.692	0.101
240.000	63.294	0.101
240.100	47.834	0.101
240.200	58.874	0.101
240.300	49.357	0.101
240.400	42.172	0.101
240.500	35.446	0.101
240.600	35.207	0.101
240.700	38.825	0.101
240.800	37.280	0.101
240.900	22.066	0.101
241.000	13.538	0.101
241.100	14.680	0.101
241.200	31.156	0.101
241.300	12.597	0.101
241.400	10.233	0.101
241.500	16.455	0.101
241.600	26.268	0.101
241.700	8.338	0.101
241.800	6.099	0.101
241.900	9.287	0.101
242.000	-2.659	0.101
242.100	4.464	0.101
242.200	12.728	0.101
242.300	2.752	0.101
242.400	-12.634	0.101
242.500	-1.506	0.101
242.600	3.623	0.101
242.700	0.485	0.101
242.800	-9.915	0.101
242.900	-13.304	0.101
243.000	1.340	0.101
243.100	-8.123	0.101
243.200	-3.564	0.101
243.300	-5.283	0.101
243.400	-4.292	0.101
243.500	-11.257	0.101
243.600	-9.979	0.101
243.700	-7.802	0.101
243.800	-10.346	0.101
243.900	-22.053	0.101
244.000	-9.478	0.101
244.100	-12.982	0.101
244.200	-11.427	0.101
244.300	-24.586	0.101
244.400	-8.555	0.101
244.500	-16.013	0.101
244.600	-29.640	0.101
244.700	-17.898	0.101
244.800	-10.288	0.101
244.900	-16.338	0.101
245.000	-26.319	0.101
245.100	-18.494	0.101
245.200	-16.699	0.101
245.300	-27.444	0.101
245.400	-17.220	0.101
245.500	-21.664	0.101
245.600	-13.285	0.101
245.700	-17.093	0.101
245.800	-19.478	0.101
245.900	-26.716	0.101
246.000	-12.140	0.101
246.100	-6.398	0.101
246.200	-21.970	0.101
246.300	-23.977	0.101
246.400	-26.339	0.101
246.500	-23.830	0.101
246.600	-18.426	0.101
246.700	-18.609	0.101
246.800	-21.860	0.101
246.900	-13.077	0.101
247.000	-14.787	0.101
247.100	-13.825	0.101
247.200	-12.483	0.101
247.300	-18.422	0.101
247.400	-16.126	0.101
247.500	-23.077	0.101
247.600	-12.114	0.101
247.700	-8.683	0.101
247.800	-13.362	0.101
247.900	-34.962	0.101
248.000	-21.507	0.101
248.100	-15.963	0.101
248.200	-10.584	0.101
248.300	-17.890	0.101
248.400	-30.050	0.101
248.500	-5.004	0.101
248.600	-29.873	0.101
248.700	-14.764	0.101
248.800	-27.390	0.100
248.900	-21.236	0.100
249.000	-16.509	0.101
249.100	-15.422	0.101
249.200	-19.808	0.100
249.300	-8.335	0.101
249.400	-14.593	0.100
249.500	-16.989	0.100
249.600	-21.190	0.100
249.700	-14.538	0.100
249.800	-22.653	0.100
249.900	-34.004	0.100
250.000	-34.744	0.100
250.100	-3.727	0.100
250.200	-16.372	0.100
250.300	-19.740	0.100
250.400	-1.748	0.100
250.500	-11.206	0.100
250.600	-28.602	0.100
250.700	-11.651	0.100
250.800	-24.032	0.100
250.900	-17.006	0.100
251.000	-25.284	0.100
251.100	-15.123	0.100
251.200	-23.245	0.100
251.300	-16.066	0.100
251.400	-25.084	0.100
251.500	0.718	0.100
251.600	-18.119	0.100
251.700	-17.956	0.100
251.800	-21.643	0.100
251.900	-20.725	0.100
252.000	-21.769	0.100
252.100	-20.389	0.100
252.200	-25.406	0.100
252.300	-18.085	0.100
252.400	-16.976	0.100
252.500	-14.167	0.100
252.600	-20.809	0.100
252.700	-26.134	0.100
252.800	-24.600	0.100
252.900	-20.238	0.100
253.000	-20.544	0.100
253.100	-20.743	0.100
253.200	-19.697	0.100
253.300	-21.120	0.100
253.400	-21.236	0.100
253.500	-12.144	0.100
253.600	-29.891	0.100
253.700	-12.557	0.100
253.800	-27.474	0.100
253.900	-27.350	0.100
254.000	-15.277	0.100
254.100	-13.661	0.100
254.200	-26.298	0.100
254.300	-21.690	0.100
254.400	-22.330	0.100
254.500	-23.294	0.100
254.600	-10.377	0.100
254.700	-22.668	0.100
254.800	-18.764	0.100
254.900	-25.797	0.100
255.000	-16.638	0.100
255.100	-22.202	0.100
255.200	-23.617	0.100
255.300	-21.396	0.100
255.400	-26.104	0.100
255.500	-23.884	0.100
255.600	-16.132	0.100
255.700	-23.449	0.100
255.800	-17.067	0.100
255.900	-22.672	0.100
256.000	-32.769	0.100
256.100	-31.041	0.100
256.200	-21.140	0.100
256.300	-25.435	0.100
256.400	-28.540	0.100
256.500	-21.362	0.100
256.600	-20.604	0.100
256.700	-17.545	0.100
256.800	-21.762	0.100
256.900	-22.871	0.100
257.000	-17.602	0.100
257.100	-20.210	0.100
257.200	-28.178	0.100
257.300	-27.665	0.100
257.400	-27.523	0.100
257.500	-34.607	0.100
257.600	-31.759	0.100
257.700	-24.265	0.100
257.800	-25.899	0.100
257.900	-25.724	0.100
258.000	-17.851	0.100
258.100	-21.927	0.100
258.200	-20.948	0.100
258.300	-15.394	0.100
258.400	-33.202	0.100
258.500	-16.132	0.100
258.600	-22.199	0.100
258.700	-12.747	0.100
258.800	-25.209	0.100
258.900	-29.352	0.100
259.000	-29.916	0.100
259.100	-29.687	0.100
259.200	-34.001	0.100
259.300	-16.999	0.100
259.400	-15.229	0.100
259.500	-36.254	0.100
259.600	-19.522	0.100
259.700	-34.126	0.100
259.800	-28.016	0.100
259.900	-25.481	0.100
260.000	-28.194	0.100
260.100	-25.209	0.100
260.200	-25.439	0.100
260.300	-16.877	0.100
260.400	-39.084	0.100
260.500	-29.471	0.100
260.600	-22.463	0.100
260.700	-31.589	0.100
260.800	-27.590	0.100
260.900	-30.708	0.100
261.000	-23.108	0.100
261.100	-29.633	0.100
261.200	-29.544	0.100
261.300	-30.540	0.100
261.400	-37.068	0.100
261.500	-24.967	0.100
261.600	-24.417	0.100
261.700	-23.715	0.100
261.800	-33.343	0.100
261.900	-44.331	0.100
262.000	-24.651	0.100
262.100	-31.075	0.100
262.200	-10.824	0.100
262.300	-20.530	0.100
262.400	-20.435	0.100
262.500	-27.514	0.100
262.600	-23.133	0.100
262.700	-19.824	0.100
262.800	-23.296	0.100
262.900	-32.754	0.100
263.000	-28.854	0.100
263.100	-29.757	0.100
263.200	-35.185	0.100
263.300	-17.866	0.100
263.400	-24.395	0.100
263.500	-36.396	0.100
263.600	-19.932	0.100
263.700	-33.762	0.100
263.800	-21.778	0.100
263.900	-25.534	0.100
264.000	-34.699	0.100
264.100	-18.225	0.100
264.200	-23.763	0.100
264.300	-32.257	0.100
264.400	-29.228	0.100
264.500	-19.004	0.100
264.600	-22.191	0.100
264.700	-27.965	0.100
264.800	-16.922	0.100
264.900	-22.737	0.100
265.000	-34.326	0.100
265.100	-40.000	0.100
265.200	-45.592	0.100
265.300	-26.892	0.100
265.400	-38.846	0.100
265.500	-29.755	0.100
265.600	-23.088	0.100
265.700	-32.005	0.100
265.800	-33.917	0.100
265.900	-29.077	0.100
266.000	-31.957	0.100
266.100	-37.651	0.100
266.200	-33.973	0.100
266.300	-27.634	0.100
266.400	-24.373	0.100
266.500	-21.191	0.100
266.600	-28.597	0.100
266.700	-38.484	0.100
266.800	-34.247	0.100
266.900	-41.705	0.100
267.000	-30.778	0.100
267.100	-28.247	0.100
267.200	-31.905	0.100
267.300	-27.201	0.100
267.400	-40.349	0.100
267.500	-39.492	0.100
267.600	-37.429	0.100
267.700	-35.817	0.100
267.800	-32.600	0.100
267.900	-23.228	0.100
268.000	-26.702	0.100
268.100	-36.237	0.100
268.200	-31.707	0.100
268.300	-27.018	0.100
268.400	-30.055	0.100
268.500	-28.027	0.100
268.600	-27.939	0.100
268.700	-41.765	0.100
268.800	-35.858	0.100
268.900	-37.922	0.100
269.000	-25.060	0.100
269.100	-27.489	0.100
269.200	-33.135	0.100
269.300	-37.258	0.100
269.400	-32.506	0.100
269.500	-32.208	0.100
269.600	-33.442	0.100
269.700	-42.854	0.100
269.800	-31.538	0.100
269.900	-34.226	0.100
270.000	-34.611	0.100
270.100	-28.950	0.100
270.200	-39.926	0.100
270.300	-38.517	0.100
270.400	-39.885	0.100
270.500	-35.821	0.100
270.600	-40.870	0.100
270.700	-27.485	0.100
270.800	-37.269	0.100
270.900	-44.869	0.100
271.000	-27.942	0.100
271.100	-40.610	0.100
271.200	-34.479	0.100
271.300	-23.400	0.100
271.400	-31.148	0.100
271.500	-40.679	0.100
271.600	-36.356	0.100
271.700	-38.022	0.100
271.800	-48.402	0.100
271.900	-31.813	0.100
272.000	-29.852	0.100
272.100	-30.561	0.100
272.200	-43.404	0.100
272.300	-33.383	0.100
272.400	-28.558	0.100
272.500	-24.695	0.100
272.600	-39.036	0.100
272.700	-45.709	0.100
272.800	-29.269	0.100
272.900	-43.359	0.100
273.000	-31.127	0.100
273.100	-31.895	0.100
273.200	-22.095	0.100
273.300	-38.579	0.100
273.400	-38.801	0.100
273.500	-32.916	0.100
273.600	-39.405	0.100
273.700	-49.177	0.100
273.800	-44.191	0.100
273.900	-32.880	0.100
274.000	-29.160	0.100
274.100	-34.780	0.100
274.200	-37.266	0.100
274.300	-47.505	0.100
274.400	-42.627	0.100
274.500	-37.820	0.100
274.600	-36.057	0.100
274.700	-28.885	0.100
274.800	-45.802	0.100
274.900	-41.869	0.100
275.000	-37.601	0.100
275.100	-36.976	0.100
275.200	-33.613	0.100
275.300	-22.701	0.100
275.400	-41.706	0.100
275.500	-46.529	0.100
275.600	-42.141	0.100
275.700	-27.665	0.100
275.800	-23.356	0.100
275.900	-40.980	0.100
276.000	-43.935	0.100
276.100	-39.282	0.100
276.200	-33.134	0.100
276.300	-38.946	0.100
276.400	-34.884	0.100
276.500	-47.938	0.100
276.600	-26.041	0.100
276.700	-28.475	0.100
276.800	-28.049	0.100
276.900	-44.194	0.100
277.000	-40.116	0.100
277.100	-42.164	0.100
277.200	-34.047	0.100
277.300	-36.083	0.100
277.400	-42.274	0.100
277.500	-38.611	0.100
277.600	-31.981	0.100
277.700	-26.755	0.100
277.800	-35.320	0.100
277.900	-25.835	0.100
278.000	-39.024	0.100
278.100	-42.480	0.100
278.200	-35.586	0.100
278.300	-44.440	0.100
278.400	-35.377	0.100
278.500	-45.518	0.100
278.600	-41.398	0.100
278.700	-27.431	0.100
278.800	-41.057	0.100
278.900	-38.254	0.100
279.000	-28.150	0.100
279.100	-32.063	0.100
279.200	-32.915	0.100
279.300	-38.487	0.100
279.400	-50.030	0.100
279.500	-34.397	0.100
279.600	-32.238	0.100
279.700	-44.711	0.100
279.800	-34.626	0.100
279.900	-39.906	0.100
280.000	-42.403	0.100
280.100	-34.890	0.100
280.200	-32.585	0.100
280.300	-37.596	0.100
280.400	-32.233	0.100
280.500	-37.461	0.100
280.600	-31.999	0.100
280.700	-40.298	0.100
280.800	-47.168	0.100
280.900	-32.558	0.100
281.000	-38.912	0.100
281.100	-39.881	0.100
281.200	-29.542	0.100
281.300	-32.776	0.100
281.400	-34.856	0.100
281.500	-46.052	0.100
281.600	-35.241	0.100
281.700	-40.360	0.100
281.800	-49.958	0.100
281.900	-30.131	0.100
282.000	-52.475	0.100
282.100	-28.308	0.100
282.200	-46.237	0.100
282.300	-24.482	0.100
282.400	-26.923	0.100
282.500	-29.683	0.100
282.600	-50.436	0.100
282.700	-35.644	0.100
282.800	-39.701	0.100
282.900	-32.482	0.100
283.000	-49.047	0.100
283.100	-40.557	0.100
283.200	-40.097	0.100
283.300	-36.852	0.100
283.400	-33.478	0.100
283.500	-34.504	0.100
283.600	-35.777	0.100
283.700	-42.327	0.100
283.800	-32.201	0.100
283.900	-40.824	0.100
284.000	-42.956	0.100
284.100	-42.590	0.100
284.200	-45.500	0.100
284.300	-34.382	0.100
284.400	-28.895	0.100
284.500	-45.261	0.100
284.600	-38.228	0.100
284.700	-30.518	0.100
284.800	-24.290	0.100
284.900	-35.468	0.100
285.000	-32.569	0.100
285.100	-35.355	0.100
285.200	-34.330	0.100
285.300	-36.150	0.100
285.400	-43.048	0.100
285.500	-37.773	0.100
285.600	-36.657	0.100
285.700	-33.444	0.100
285.800	-37.341	0.100
285.900	-29.936	0.100
286.000	-27.768	0.100
286.100	-23.986	0.100
286.200	-32.637	0.100
286.300	-28.964	0.100
286.400	-37.823	0.100
286.500	-41.082	0.100
286.600	-44.444	0.100
286.700	-36.432	0.100
286.800	-34.631	0.100
286.900	-35.328	0.100
287.000	-41.838	0.100
287.100	-37.291	0.100
287.200	-32.902	0.100
287.300	-30.142	0.100
287.400	-34.105	0.100
287.500	-30.501	0.100
287.600	-30.975	0.100
287.700	-33.573	0.100
287.800	-40.018	0.100
287.900	-34.301	0.100
288.000	-42.467	0.100
288.100	-38.584	0.100
288.200	-30.957	0.100
288.300	-28.143	0.100
288.400	-39.231	0.100
288.500	-44.797	0.100
288.600	-35.759	0.100
288.700	-31.201	0.100
288.800	-31.366	0.100
288.900	-29.532	0.100
289.000	-37.006	0.100
289.100	-39.427	0.100
289.200	-29.681	0.100
289.300	-38.635	0.100
289.400	-44.454	0.100
289.500	-35.416	0.100
289.600	-36.984	0.100
289.700	-36.778	0.100
289.800	-41.246	0.100
289.900	-31.631	0.100
290.000	-28.056	0.100
290.100	-36.320	0.100
290.200	-41.510	0.100
290.300	-32.673	0.100
290.400	-36.425	0.100
290.500	-33.079	0.100
290.600	-40.499	0.100
290.700	-39.954	0.100
290.800	-48.448	0.100
290.900	-39.124	0.100
291.000	-38.912	0.100
291.100	-34.244	0.100
291.200	-21.681	0.100
291.300	-35.411	0.100
291.400	-45.402	0.100
291.500	-37.466	0.100
291.600	-33.745	0.100
291.700	-43.705	0.100
291.800	-34.945	0.100
291.900	-15.356	0.100
292.000	-34.171	0.100
292.100	-34.858	0.100
292.200	-43.634	0.100
292.300	-28.962	0.100
292.400	-29.131	0.100
292.500	-34.566	0.100
292.600	-34.452	0.100
292.700	-36.605	0.100
292.800	-36.807	0.100
292.900	-31.737	0.100
293.000	-35.965	0.100
293.100	-25.485	0.100
293.200	-33.529	0.100
293.300	-40.102	0.100
293.400	-24.711	0.100
293.500	-46.252	0.100
293.600	-26.192	0.100
293.700	-26.683	0.100
293.800	-39.646	0.100
293.900	-37.056	0.100
294.000	-37.382	0.100
294.100	-30.674	0.100
294.200	-26.506	0.100
294.300	-34.217	0.100
294.400	-25.143	0.100
294.500	-18.165	0.100
294.600	-34.140	0.100
294.700	-26.017	0.100
294.800	-32.562	0.100
294.900	-36.862	0.100
295.000	-30.434	0.100
295.100	-26.905	0.100
295.200	-28.674	0.100
295.300	-17.536	0.100
295.400	-33.186	0.100
295.500	-38.290	0.100
295.600	-44.862	0.100
295.700	-43.908	0.100
295.800	-38.035	0.100
295.900	-30.491	0.100
296.000	-28.752	0.100
296.100	-34.076	0.100
296.200	-36.152	0.100
296.300	-33.419	0.100
296.400	-33.462	0.100
296.500	-41.242	0.100
296.600	-41.359	0.100
296.700	-22.748	0.100
296.800	-34.725	0.100
296.900	-30.647	0.100
297.000	-23.132	0.100
297.100	-36.954	0.100
297.200	-31.958	0.100
297.300	-19.623	0.100
297.400	-27.974	0.100
297.500	-28.743	0.100
297.600	-37.748	0.100
297.700	-25.370	0.100
297.800	-23.159	0.100
297.900	-29.962	0.100
298.000	-33.038	0.100
298.100	-30.546	0.100
298.200	-30.622	0.100
298.300	-27.739	0.100
298.400	-33.135	0.100
298.500	-27.027	0.100
298.600	-33.113	0.100
298.700	-26.406	0.100
298.800	-36.992	0.100
298.900	-33.559	0.100
299.000	-31.883	0.100
299.100	-24.974	0.100
299.200	-31.191	0.100
299.300	-19.493	0.100
299.400	-33.618	0.100
299.500	-35.495	0.100
299.600	-32.198	0.100
299.700	-34.698	0.100
299.800	-31.942	0.100
299.900	-29.261	0.100
300.000	-24.421	0.100
300.100	-31.067	0.100
300.200	-31.977	0.100
300.300	-25.685	0.100
300.400	-28.013	0.100
300.500	-33.096	0.100
300.600	-25.952	0.100
300.700	-29.510	0.100
300.800	-30.842	0.100
300.900	-34.428	0.100
301.000	-41.520	0.100
301.100	-33.826	0.100
301.200	-25.718	0.100
301.300	-27.434	0.100
301.400	-39.811	0.100
301.500	-23.414	0.100
301.600	-33.311	0.100
301.700	-30.126	0.100
301.800	-28.647	0.100
301.900	-29.550	0.100
302.000	-33.694	0.100
302.100	-33.784	0.100
302.200	-22.628	0.100
302.300	-24.954	0.100
302.400	-26.153	0.100
302.500	-34.662	0.100
302.600	-29.075	0.100
302.700	-44.907	0.100
302.800	-30.538	0.100
302.900	-22.515	0.100
303.000	-16.906	0.100
303.100	-39.264	0.100
303.200	-24.275	0.100
303.300	-32.639	0.100
303.400	-24.519	0.100
303.500	-40.968	0.100
303.600	-21.177	0.100
303.700	-19.523	0.100
303.800	-21.869	0.100
303.900	-34.798	0.100
304.000	-25.346	0.100
304.100	-39.711	0.100
304.200	-37.450	0.100
304.300	-35.087	0.100
304.400	-27.571	0.100
304.500	-24.307	0.100
304.600	-34.753	0.100
304.700	-24.205	0.100
304.800	-21.343	0.100
304.900	-39.831	0.100
305.000	-33.933	0.100
305.100	-26.653	0.100
305.200	-36.895	0.100
305.300	-27.139	0.100
305.400	-36.990	0.100
305.500	-29.040	0.100
305.600	-17.340	0.100
305.700	-34.748	0.100
305.800	-15.798	0.100
305.900	-32.670	0.100
306.000	-31.862	0.100
306.100	-28.180	0.100
306.200	-26.784	0.100
306.300	-22.772	0.100
306.400	-23.674	0.100
306.500	-37.385	0.100
306.600	-39.305	0.100
306.700	-22.618	0.100
306.800	-34.617	0.100
306.900	-34.630	0.100
307.000	-26.536	0.100
307.100	-30.044	0.100
307.200	-34.893	0.100
307.300	-32.737	0.100
307.400	-21.824	0.100
307.500	-23.690	0.100
307.600	-24.475	0.100
307.700	-28.955	0.100
307.800	-28.589	0.100
307.900	-29.660	0.100
308.000	-31.138	0.100
308.100	-35.411	0.100
308.200	-32.815	0.100
308.300	-22.521	0.100
308.400	-21.292	0.100
308.500	-27.064	0.100
308.600	-16.169	0.100
308.700	-35.900	0.100
308.800	-30.539	0.100
308.900	-43.628	0.100
309.000	-34.005	0.100
309.100	-20.875	0.100
309.200	-23.408	0.100
309.300	-29.048	0.100
309.400	-14.202	0.100
309.500	-32.086	0.100
309.600	-31.576	0.100
309.700	-25.165	0.100
309.800	-18.939	0.100
309.900	-34.000	0.100
310.000	-18.825	0.100
310.100	-16.495	0.100
310.200	-33.275	0.100
310.300	-23.060	0.100
310.400	-21.550	0.100
310.500	-19.224	0.100
310.600	-29.769	0.100
310.700	-16.043	0.100
310.800	-26.755	0.100
310.900	-24.638	0.100
311.000	-23.296	0.100
311.100	-27.619	0.100
311.200	-25.010	0.100
311.300	-23.432	0.100
311.400	-29.769	0.100
311.500	-39.023	0.100
311.600	-30.154	0.100
311.700	-24.248	0.100
311.800	-34.559	0.100
311.900	-25.948	0.100
312.000	-28.266	0.100
312.100	-28.482	0.100
312.200	-34.954	0.100
312.300	-26.661	0.100
312.400	-28.401	0.100
312.500	-17.309	0.100
312.600	-20.721	0.100
312.700	-25.014	0.100
312.800	-22.147	0.100
312.900	-9.649	0.100
313.000	-30.662	0.100
313.100	-23.237	0.100
313.200	-34.541	0.100
313.300	-27.750	0.100
313.400	-25.243	0.100
313.500	-19.107	0.100
313.600	-19.823	0.100
313.700	-28.092	0.100
313.800	-34.717	0.100
313.900	-27.963	0.100
314.000	-23.524	0.100
314.100	-29.708	0.100
314.200	-32.949	0.100
314.300	-21.708	0.100
314.400	-20.459	0.100
314.500	-14.883	0.100
314.600	-20.869	0.100
314.700	-19.822	0.100
314.800	-27.082	0.100
314.900	-21.763	0.100
315.000	-36.347	0.100
315.100	-33.441	0.100
315.200	-22.775	0.100
315.300	-22.662	0.100
315.400	-24.664	0.100
315.500	-24.973	0.100
315.600	-16.105	0.100
315.700	-24.418	0.100
315.800	-26.819	0.100
315.900	-22.227	0.100
316.000	-31.387	0.100
316.100	-22.553	0.100
316.200	-28.000	0.100
316.300	-25.707	0.100
316.400	-21.868	0.100
316.500	-34.333	0.100
316.600	-16.679	0.100
316.700	-26.834	0.100
316.800	-29.139	0.100
316.900	-29.170	0.100
317.000	-26.711	0.100
317.100	-23.256	0.100
317.200	-30.142	0.100
317.300	-25.498	0.100
317.400	-25.300	0.100
317.500	-16.764	0.100
317.600	-25.541	0.100
317.700	-23.386	0.100
317.800	-34.872	0.100
317.900	-23.462	0.100
318.000	-28.421	0.100
318.100	-28.053	0.100
318.200	-28.690	0.100
318.300	-24.242	0.100
318.400	-15.056	0.100
318.500	-18.529	0.100
318.600	-31.627	0.100
318.700	-25.896	0.100
318.800	-28.852	0.100
318.900	-24.494	0.100
319.000	-25.085	0.100
319.100	-29.829	0.100
319.200	-25.492	0.100
319.300	-20.658	0.100
319.400	-29.050	0.100
319.500	-22.839	0.100
319.600	-14.996	0.100
319.700	-32.943	0.100
319.800	-31.968	0.100
319.900	-17.657	0.100
320.000	-30.861	0.100
320.100	-29.900	0.100
320.200	-25.197	0.100
320.300	-26.825	0.100
320.400	-21.069	0.100
320.500	-30.693	0.100
320.600	-24.094	0.100
320.700	-19.915	0.100
320.800	-19.906	0.100
320.900	-19.035	0.100
321.000	-15.212	0.100
321.100	-20.924	0.100
321.200	-34.593	0.100
321.300	-12.166	0.100
321.400	-18.649	0.100
321.500	-29.148	0.100
321.600	-13.997	0.100
321.700	-25.409	0.100
321.800	-22.719	0.100
321.900	-12.034	0.100
322.000	-20.987	0.100
322.100	-17.503	0.100
322.200	-23.729	0.100
322.300	-21.581	0.100
322.400	-21.330	0.100
322.500	-18.824	0.100
322.600	-20.695	0.100
322.700	-34.052	0.100
322.800	-28.513	0.100
322.900	-32.424	0.100
323.000	-24.811	0.100
323.100	-23.957	0.100
323.200	-23.472	0.100
323.300	-25.853	0.100
323.400	-37.199	0.100
323.500	-20.098	0.100
323.600	-15.550	0.100
323.700	-25.006	0.100
323.800	-18.158	0.100
323.900	-26.767	0.100
324.000	-16.743	0.100
324.100	-18.516	0.100
324.200	-20.345	0.100
324.300	-23.389	0.100
324.400	-26.529	0.100
324.500	-31.700	0.100
324.600	-14.156	0.100
324.700	-20.333	0.100
324.800	-30.039	0.100
324.900	-22.113	0.100
325.000	-18.757	0.100
325.100	-18.581	0.100
325.200	-23.705	0.100
325.300	-17.951	0.100
325.400	-15.823	0.100
325.500	-35.735	0.100
325.600	-18.228	0.100
325.700	-24.294	0.100
325.800	-26.441	0.100
325.900	-31.284	0.100
326.000	-22.553	0.100
326.100	-27.520	0.100
326.200	-11.690	0.100
326.300	-24.649	0.100
326.400	-9.819	0.100
326.500	-30.490	0.100
326.600	-33.016	0.100
326.700	-21.606	0.100
326.800	-21.806	0.100
326.900	-37.501	0.100
327.000	-24.432	0.100
327.100	-29.293	0.100
327.200	-24.234	0.100
327.300	-14.667	0.100
327.400	-27.929	0.100
327.500	-16.256	0.100
327.600	-19.706	0.100
327.700	-30.848	0.100
327.800	-16.045	0.100
327.900	-18.355	0.100
328.000	-30.705	0.100
328.100	-31.138	0.100
328.200	-21.163	0.100
328.300	-31.872	0.100
328.400	-19.298	0.100
328.500	-25.838	0.100
328.600	-19.390	0.100
328.700	-30.950	0.100
328.800	-19.986	0.100
328.900	-19.660	0.100
329.000	-20.083	0.100
329.100	-17.558	0.100
329.200	-28.709	0.100
329.300	-22.095	0.100
329.400	-25.676	0.100
329.500	-32.445	0.100
329.600	-20.815	0.100
329.700	-11.957	0.100
329.800	-20.853	0.100
329.900	-21.982	0.100
330.000	-18.302	0.100
330.100	-20.341	0.100
330.200	-16.330	0.100
330.300	-21.218	0.100
330.400	-17.200	0.100
330.500	-3.456	0.100
330.600	3.083	0.100
330.700	2.093	0.100
330.800	10.290	0.100
330.900	7.219	0.100
331.000	0.951	0.100
331.100	11.953	0.100
331.200	9.252	0.100
331.300	14.632	0.100
331.400	17.592	0.100
331.500	23.903	0.100
331.600	37.388	0.100
331.700	33.092	0.100
331.800	24.708	0.100
331.900	25.742	0.100
332.000	32.810	0.100
332.100	36.637	0.100
332.200	33.617	0.100
332.300	26.441	0.100
332.400	21.041	0.100
332.500	39.460	0.100
332.600	32.417	0.100
332.700	27.669	0.100
332.800	20.774	0.100
332.900	41.276	0.100
333.000	36.350	0.100
333.100	25.588	0.100
333.200	29.811	0.100
333.300	31.043	0.100
333.400	32.300	0.100
333.500	38.889	0.100
333.600	37.868	0.100
333.700	31.540	0.100
333.800	42.044	0.100
333.900	38.747	0.100
334.000	23.732	0.100
334.100	43.428	0.100
334.200	46.505	0.100
334.300	34.784	0.100
334.400	42.138	0.100
334.500	30.397	0.100
334.600	34.254	0.100
334.700	43.962	0.100
334.800	40.371	0.100
334.900	39.662	0.100
335.000	32.198	0.100
335.100	26.182	0.100
335.200	37.486	0.100
335.300	34.924	0.100
335.400	32.506	0.100
335.500	25.238	0.100
335.600	28.118	0.100
335.700	39.099	0.100
335.800	35.613	0.100
335.900	34.976	0.100
336.000	22.319	0.100
336.100	40.636	0.100
336.200	35.731	0.100
336.300	33.425	0.100
336.400	26.972	0.100
336.500	33.048	0.100
336.600	34.070	0.100
336.700	23.042	0.100
336.800	38.897	0.100
336.900	36.081	0.100
337.000	25.235	0.100
337.100	32.847	0.100
337.200	46.373	0.100
337.300	31.230	0.100
337.400	25.198	0.100
337.500	26.535	0.100
337.600	28.591	0.100
337.700	35.686	0.100
337.800	30.732	0.100
337.900	39.813	0.100
338.000	44.026	0.100
338.100	40.545	0.100
338.200	42.043	0.100
338.300	33.861	0.100
338.400	41.758	0.100
338.500	35.181	0.100
338.600	40.409	0.100
338.700	42.772	0.100
338.800	33.106	0.100
338.900	37.918	0.100
339.000	40.560	0.100
339.100	38.100	0.100
339.200	26.627	0.100
339.300	31.367	0.100
339.400	27.682	0.100
339.500	31.009	0.100
339.600	36.644	0.100
339.700	34.297	0.100
339.800	35.627	0.100
339.900	39.753	0.100
340.000	34.088	0.100
340.100	33.303	0.100
340.200	35.323	0.100
340.300	34.073	0.100
340.400	34.465	0.100
340.500	40.091	0.100
340.600	44.938	0.100
340.700	40.270	0.100
340.800	33.486	0.100
340.900	19.887	0.100
341.000	34.641	0.100
341.100	46.744	0.100
341.200	33.687	0.100
341.300	29.620	0.100
341.400	43.105	0.100
341.500	33.624	0.100
341.600	46.424	0.100
341.700	42.858	0.100
341.800	37.511	0.100
341.900	42.233	0.100
342.000	23.122	0.100
342.100	28.840	0.100
342.200	43.964	0.100
342.300	41.827	0.100
342.400	35.388	0.100
342.500	39.566	0.100
342.600	30.457	0.100
342.700	24.410	0.100
342.800	42.847	0.100
342.900	45.426	0.100
343.000	42.946	0.100
343.100	43.109	0.100
343.200	39.982	0.100
343.300	40.758	0.100
343.400	35.130	0.100
343.500	36.556	0.100
343.600	29.011	0.100
343.700	39.826	0.100
343.800	37.231	0.100
343.900	39.637	0.100
344.000	43.567	0.100
344.100	46.856	0.100
344.200	50.254	0.100
344.300	43.614	0.100
344.400	57.205	0.100
344.500	36.831	0.100
344.600	35.263	0.100
344.700	40.447	0.100
344.800	36.586	0.100
344.900	46.168	0.100
345.000	46.788	0.100
345.100	52.403	0.100
345.200	49.630	0.100
345.300	38.008	0.100
345.400	36.456	0.100
345.500	48.692	0.100
345.600	40.817	0.100
345.700	32.437	0.100
345.800	47.834	0.100
345.900	58.546	0.100
346.000	51.556	0.100
346.100	44.361	0.100
346.200	47.862	0.100
346.300	54.751	0.100
346.400	50.206	0.100
346.500	56.028	0.100
346.600	62.044	0.100
346.700	58.075	0.100
346.800	47.452	0.100
346.900	33.822	0.100
347.000	51.243	0.100
347.100	44.616	0.100
347.200	59.900	0.100
347.300	53.556	0.100
347.400	61.862	0.100
347.500	50.097	0.100
347.600	50.641	0.100
347.700	62.602	0.100
347.800	53.451	0.100
347.900	53.859	0.100
348.000	49.999	0.100
348.100	61.946	0.100
348.200	63.063	0.100
348.300	53.503	0.100
348.400	64.117	0.100
348.500	65.368	0.100
348.600	63.481	0.100
348.700	58.547	0.100
348.800	64.604	0.100
348.900	55.140	0.100
349.000	56.761	0.100
349.100	62.218	0.100
349.200	63.171	0.100
349.300	60.394	0.100
349.400	62.251	0.100
349.500	69.207	0.100
349.600	67.260	0.100
349.700	67.776	0.100
349.800	69.224	0.100
349.900	59.632	0.100
350.000	69.482	0.100
350.100	66.103	0.100
350.200	72.757	0.100
350.300	60.557	0.100
350.400	74.484	0.100
350.500	68.528	0.100
350.600	66.566	0.100
350.700	69.188	0.100
350.800	88.690	0.100
350.900	72.598	0.100
351.000	69.967	0.100
351.100	57.790	0.100
351.200	59.972	0.100
351.300	70.069	0.100
351.400	72.209	0.100
351.500	89.358	0.100
351.600	76.842	0.100
351.700	66.846	0.100
351.800	81.827	0.100
351.900	61.195	0.100
352.000	79.488	0.100
352.100	72.971	0.100
352.200	79.902	0.100
352.300	77.078	0.100
352.400	70.146	0.100
352.500	72.668	0.100
352.600	87.615	0.100
352.700	80.353	0.100
352.800	72.686	0.100
352.900	84.202	0.100
353.000	80.045	0.100
353.100	73.700	0.100
353.200	70.673	0.100
353.300	64.119	0.100
353.400	81.107	0.100
353.500	83.109	0.100
353.600	81.501	0.100
353.700	86.880	0.100
353.800	73.803	0.100
353.900	73.680	0.100
354.000	84.202	0.100
354.100	83.637	0.100
354.200	88.451	0.100
354.300	80.099	0.100
354.400	92.661	0.100
354.500	72.375	0.100
354.600	87.363	0.100
354.700	74.962	0.100
354.800	70.061	0.100
354.900	85.801	0.100
355.000	86.017	0.100
355.100	80.817	0.100
355.200	80.703	0.100
355.300	80.981	0.100
355.400	87.511	0.100
355.500	81.990	0.100
355.600	80.631	0.100
355.700	69.883	0.100
355.800	79.706	0.100
355.900	80.821	0.100
356.000	74.439	0.100
356.100	75.098	0.100
356.200	81.139	0.100
356.300	82.401	0.100
356.400	75.360	0.100
356.500	73.873	0.100
356.600	82.535	0.100
356.700	84.733	0.100
356.800	81.618	0.100
356.900	79.836	0.100
357.000	69.973	0.100
357.100	78.302	0.100
357.200	85.698	0.100
357.300	74.797	0.100
357.400	82.460	0.100
357.500	75.695	0.100
357.600	68.238	0.100
357.700	86.830	0.100
357.800	84.050	0.100
357.900	75.429	0.100
358.000	77.254	0.100
358.100	71.575	0.100
358.200	77.256	0.100
358.300	78.187	0.100
358.400	72.405	0.100
358.500	68.820	0.100
358.600	74.792	0.100
358.700	78.273	0.100
358.800	76.574	0.100
358.900	76.649	0.100
359.000	90.179	0.100
359.100	78.089	0.100
359.200	75.412	0.100
359.300	67.999	0.100
359.400	66.268	0.100
359.500	87.434	0.100
359.600	73.019	0.100
359.700	78.646	0.100
359.800	78.109	0.100
359.900	72.986	0.100
360.000	76.227	0.100
360.100	75.112	0.100
360.200	81.310	0.100
360.300	81.661	0.100
360.400	89.811	0.100
360.500	79.561	0.100
360.600	73.867	0.100
360.700	76.856	0.100
360.800	77.592	0.100
360.900	86.575	0.100
361.000	68.660	0.100
361.100	67.212	0.100
361.200	75.958	0.100
361.300	66.283	0.100
361.400	71.901	0.100
361.500	71.304	0.100
361.600	82.825	0.100
361.700	74.128	0.100
361.800	72.678	0.100
361.900	67.574	0.100
362.000	74.098	0.100
362.100	75.583	0.100
362.200	79.531	0.100
362.300	65.243	0.100
362.400	73.591	0.100
362.500	71.424	0.100
362.600	77.245	0.100
362.700	72.539	0.100
362.800	78.759	0.100
362.900	75.117	0.100
363.000	76.269	0.100
363.100	75.855	0.100
363.200	79.029	0.100
363.300	66.353	0.100
363.400	60.927	0.100
363.500	84.459	0.100
363.600	72.275	0.100
363.700	75.075	0.100
363.800	66.293	0.100
363.900	74.276	0.100
364.000	82.444	0.100
364.100	65.066	0.100
364.200	75.178	0.100
364.300	64.458	0.100
364.400	79.488	0.100
364.500	77.695	0.100
364.600	66.422	0.100
364.700	62.762	0.100
364.800	76.073	0.100
364.900	65.774	0.100
365.000	77.897	0.100
365.100	76.775	0.100
365.200	79.739	0.100
365.300	61.494	0.100
365.400	67.980	0.100
365.500	64.256	0.100
365.600	65.685	0.100
365.700	70.673	0.100
365.800	75.836	0.100
365.900	73.138	0.100
366.000	79.195	0.100
366.100	70.954	0.100
366.200	79.875	0.100
366.300	62.031	0.100
366.400	75.865	0.100
366.500	67.309	0.100
366.600	64.596	0.100
366.700	73.756	0.100
366.800	75.565	0.100
366.900	72.011	0.100
367.000	72.814	0.100
367.100	65.933	0.100
367.200	62.847	0.100
367.300	72.335	0.100
367.400	70.760	0.100
367.500	56.926	0.100
367.600	76.981	0.100
367.700	71.061	0.100
367.800	58.729	0.100
367.900	73.013	0.100
368.000	57.064	0.100
368.100	64.439	0.100
368.200	72.366	0.100
368.300	77.342	0.100
368.400	60.957	0.100
368.500	62.347	0.100
368.600	72.166	0.100
368.700	68.981	0.100
368.800	62.305	0.100
368.900	64.340	0.100
369.000	62.373	0.100
369.100	67.192	0.100
369.200	68.746	0.100
369.300	75.894	0.100
369.400	82.854	0.100
369.500	75.886	0.100
369.600	66.341	0.100
369.700	67.974	0.100
369.800	71.565	0.100
369.900	71.794	0.100
370.000	73.905	0.100
370.100	76.705	0.100
370.200	68.285	0.100
370.300	57.648	0.100
370.400	66.611	0.100
370.500	66.160	0.100
370.600	67.112	0.100
370.700	68.999	0.100
370.800	71.973	0.100
370.900	66.727	0.100
371.000	59.757	0.100
371.100	74.250	0.100
371.200	69.025	0.100
371.300	65.253	0.100
371.400	70.455	0.100
371.500	61.036	0.100
371.600	69.136	0.100
371.700	62.785	0.100
371.800	63.784	0.100
371.900	63.609	0.100
372.000	72.185	0.100
372.100	81.786	0.100
372.200	67.286	0.100
372.300	68.762	0.100
372.400	67.880	0.100
372.500	73.777	0.100
372.600	74.978	0.100
372.700	72.843	0.100
372.800	67.448	0.100
372.900	55.603	0.100
373.000	66.002	0.100
373.100	67.523	0.100
373.200	62.154	0.100
373.300	66.118	0.100
373.400	74.720	0.100
373.500	71.036	0.100
373.600	68.497	0.100
373.700	65.706	0.100
373.800	66.630	0.100
373.900	71.363	0.100
374.000	64.103	0.100
374.100	64.769	0.100
374.200	74.553	0.100
374.300	52.256	0.100
374.400	66.005	0.100
374.500	70.120	0.100
374.600	62.326	0.100
374.700	60.741	0.100
374.800	63.948	0.100
374.900	59.170	0.100
375.000	63.438	0.100
375.100	58.300	0.100
375.200	70.137	0.100
375.300	66.842	0.100
375.400	79.573	0.100
375.500	65.440	0.100
375.600	78.490	0.100
375.700	65.188	0.100
375.800	66.717	0.100
375.900	58.149	0.100
376.000	59.493	0.100
376.100	71.311	0.100
376.200	66.639	0.100
376.300	68.613	0.100
376.400	66.210	0.100
376.500	73.841	0.100
376.600	69.853	0.100
376.700	68.406	0.100
376.800	67.672	0.100
376.900	61.081	0.100
377.000	70.956	0.100
377.100	63.753	0.100
377.200	58.407	0.100
377.300	73.097	0.100
377.400	64.813	0.100
377.500	75.482	0.100
377.600	69.959	0.100
377.700	69.695	0.100
377.800	72.343	0.100
377.900	60.029	0.100
378.000	53.817	0.100
378.100	56.131	0.100
378.200	69.232	0.100
378.300	53.720	0.100
378.400	68.403	0.100
378.500	73.697	0.100
378.600	69.504	0.100
378.700	67.755	0.100
378.800	67.878	0.100
378.900	61.407	0.100
379.000	68.150	0.100
379.100	63.785	0.100
379.200	65.136	0.100
379.300	63.062	0.100
379.400	61.795	0.100
379.500	65.144	0.100
379.600	64.501	0.100
379.700	59.366	0.100
379.800	66.920	0.100
379.900	56.159	0.100
380.000	67.671	0.100
380.100	63.757	0.100
380.200	53.811	0.100
380.300	69.442	0.100
380.400	72.301	0.100
380.500	74.216	0.100
380.600	64.084	0.100
380.700	62.647	0.100
380.800	69.669	0.100
380.900	60.935	0.100
381.000	66.692	0.100
381.100	56.354	0.100
381.200	67.019	0.100
381.300	68.209	0.100
381.400	70.747	0.100
381.500	68.303	0.100
381.600	69.949	0.100
381.700	63.308	0.100
381.800	59.247	0.100
381.900	64.721	0.100
382.000	82.769	0.100
382.100	62.927	0.100
382.200	59.472	0.100
382.300	64.138	0.100
382.400	71.396	0.100
382.500	65.066	0.100
382.600	66.912	0.100
382.700	63.664	0.100
382.800	63.869	0.100
382.900	50.288	0.100
383.000	56.756	0.100
383.100	60.956	0.100
383.200	64.262	0.100
383.300	59.686	0.100
383.400	63.051	0.100
383.500	71.413	0.100
383.600	60.407	0.100
383.700	74.046	0.100
383.800	65.121	0.100
383.900	71.223	0.100
384.000	61.184	0.100
384.100	63.903	0.100
384.200	63.228	0.100
384.300	58.181	0.100
384.400	57.957	0.100
384.500	63.813	0.100
384.600	65.193	0.100
384.700	63.731	0.100
384.800	63.297	0.100
384.900	64.877	0.100
385.000	76.405	0.100
385.100	54.467	0.100
385.200	67.482	0.100
385.300	64.069	0.100
385.400	56.521	0.100
385.500	69.110	0.100
385.600	53.414	0.100
385.700	58.957	0.100
385.800	61.947	0.100
385.900	61.514	0.100
386.000	58.753	0.100
386.100	62.572	0.100
386.200	60.899	0.100
386.300	66.929	0.100
386.400	65.076	0.100
386.500	66.501	0.100
386.600	70.903	0.100
386.700	61.593	0.100
386.800	56.862	0.100
386.900	50.816	0.100
387.000	61.628	0.100
387.100	69.105	0.100
387.200	63.488	0.100
387.300	70.462	0.100
387.400	60.944	0.100
387.500	70.525	0.100
387.600	72.354	0.100
387.700	61.943	0.100
387.800	61.653	0.100
387.900	69.412	0.100
388.000	57.022	0.100
388.100	58.207	0.100
388.200	64.027	0.100
388.300	62.855	0.100
388.400	75.043	0.100
388.500	65.691	0.100
388.600	67.895	0.100
388.700	67.525	0.100
388.800	61.127	0.100
388.900	69.742	0.100
389.000	58.495	0.100
389.100	52.724	0.100
389.200	69.232	0.100
389.300	67.336	0.100
389.400	65.074	0.100
389.500	58.675	0.100
389.600	63.290	0.100
389.700	64.838	0.100
389.800	64.905	0.100
389.900	56.816	0.100
390.000	56.982	0.100
390.100	46.220	0.100
390.200	44.749	0.100
390.300	46.343	0.100
390.400	47.769	0.100
390.500	56.905	0.100
390.600	38.637	0.100
390.700	38.416	0.100
390.800	26.083	0.100
390.900	16.594	0.100
391.000	20.676	0.100
391.100	16.532	0.100
391.200	20.525	0.100
391.300	16.422	0.100
391.400	16.716	0.100
391.500	2.271	0.100
391.600	4.590	0.100
391.700	18.419	0.100
391.800	-3.562	0.100
391.900	7.050	0.100
392.000	-2.141	0.100
392.100	-4.595	0.100
392.200	-12.029	0.100
392.300	4.641	0.100
392.400	6.298	0.100
392.500	-3.624	0.100
392.600	-15.088	0.100
392.700	-8.501	0.100
392.800	-13.891	0.100
392.900	-10.483	0.100
393.000	-3.761	0.100
393.100	-4.673	0.100
393.200	0.718	0.100
393.300	-5.864	0.100
393.400	-20.354	0.100
393.500	-24.463	0.100
393.600	-18.527	0.100
393.700	-13.501	0.100
393.800	-14.380	0.100
393.900	-15.714	0.100
394.000	-24.803	0.100
394.100	-25.361	0.100
394.200	-22.433	0.100
394.300	-16.733	0.100
394.400	-12.300	0.100
394.500	-25.238	0.100
394.600	-16.030	0.100
394.700	-24.433	0.100
394.800	-6.999	0.100
394.900	-24.435	0.100
395.000	-6.713	0.100
395.100	-16.295	0.100
395.200	-25.531	0.100
395.300	-23.936	0.100
395.400	-19.368	0.100
395.500	-27.485	0.100
395.600	-31.477	0.100
395.700	-29.002	0.100
395.800	-21.900	0.100
395.900	-23.826	0.100
396.000	-31.027	0.100
396.100	-20.788	0.100
396.200	-18.315	0.100
396.300	-17.230	0.100
396.400	-16.972	0.100
396.500	-21.143	0.100
396.600	-16.421	0.100
396.700	-23.609	0.100
396.800	-24.120	0.100
396.900	-35.884	0.100
397.000	-26.025	0.100
397.100	-12.288	0.100
397.200	-15.557	0.100
397.300	-26.135	0.100
397.400	-24.955	0.100
397.500	-12.427	0.100
397.600	-12.732	0.100
397.700	-19.999	0.100
397.800	-18.138	0.100
397.900	-23.658	0.100
398.000	-20.127	0.100
398.100	-19.110	0.100
398.200	-19.545	0.100
398.300	-20.275	0.100
398.400	-11.789	0.100
398.500	-22.909	0.100
398.600	-27.974	0.100
398.700	-10.298	0.100
398.800	-13.048	0.100
398.900	-21.747	0.100
399.000	-17.301	0.100
399.100	-29.365	0.100
399.200	-21.941	0.100
399.300	-19.945	0.100
399.400	-19.046	0.100
399.500	-9.682	0.100
399.600	-14.270	0.100
399.700	-29.370	0.100
399.800	-19.578	0.100
399.900	-23.980	0.100
400.000	-25.808	0.100
400.100	-25.966	0.100
400.200	-12.955	0.100
400.300	-11.964	0.100
400.400	-20.152	0.100
400.500	-19.315	0.100
400.600	-11.670	0.100
400.700	-17.304	0.100
400.800	-6.385	0.100
400.900	-18.443	0.100
401.000	-32.482	0.100
401.100	-19.221	0.100
401.200	-27.535	0.100
401.300	-16.315	0.100
401.400	-16.796	0.100
401.500	-29.558	0.100
401.600	-28.423	0.100
401.700	-23.616	0.100
401.800	-18.197	0.100
401.900	-24.113	0.100
402.000	-22.284	0.100
402.100	-22.083	0.100
402.200	-17.518	0.100
402.300	-13.649	0.100
402.400	-28.606	0.100
402.500	-18.342	0.100
402.600	-26.508	0.100
402.700	-24.626	0.100
402.800	-25.478	0.100
402.900	-35.286	0.100
403.000	-25.047	0.100
403.100	-19.883	0.100
403.200	-19.038	0.100
403.300	-29.945	0.100
403.400	-25.382	0.100
403.500	-30.677	0.100
403.600	-20.721	0.100
403.700	-15.115	0.100
403.800	-22.863	0.100
403.900	-23.292	0.100
404.000	-20.936	0.100
404.100	-21.246	0.100
404.200	-23.669	0.100
404.300	-15.097	0.100
404.400	-25.025	0.100
404.500	-21.944	0.100
404.600	-27.656	0.100
404.700	-19.087	0.100
404.800	-30.604	0.100
404.900	-24.629	0.100
405.000	-19.171	0.100
405.100	-26.901	0.100
405.200	-29.272	0.100
405.300	-29.712	0.100
405.400	-25.753	0.100
405.500	-12.476	0.100
405.600	-21.369	0.100
405.700	-31.558	0.100
405.800	-29.085	0.100
405.900	-27.957	0.100
406.000	-15.055	0.100
406.100	-31.983	0.100
406.200	-21.823	0.100
406.300	-18.133	0.100
406.400	-33.121	0.100
406.500	-33.505	0.100
406.600	-35.802	0.100
406.700	-20.285	0.100
406.800	-22.656	0.100
406.900	-21.112	0.100
407.000	-15.204	0.100
407.100	-30.410	0.100
407.200	-40.459	0.100
407.300	-27.070	0.100
407.400	-36.675	0.100
407.500	-23.261	0.100
407.600	-18.016	0.100
407.700	-15.069	0.100
407.800	-18.907	0.100
407.900	-21.799	0.100
408.000	-40.199	0.100
408.100	-25.163	0.100
408.200	-24.757	0.100
408.300	-29.004	0.100
408.400	-30.589	0.100
408.500	-33.246	0.100
408.600	-35.144	0.100
408.700	-30.998	0.100
408.800	-35.948	0.100
408.900	-30.735	0.100
409.000	-24.221	0.100
409.100	-23.217	0.100
409.200	-27.122	0.100
409.300	-29.291	0.100
409.400	-30.270	0.100
409.500	-28.434	0.100
409.600	-30.118	0.100
409.700	-32.906	0.100
409.800	-27.565	0.100
409.900	-28.758	0.100
410.000	-17.839	0.100
410.100	-23.731	0.100
410.200	-34.054	0.100
410.300	-21.047	0.100
410.400	-24.262	0.100
410.500	-22.084	0.100
410.600	-27.487	0.100
410.700	-27.652	0.100
410.800	-28.216	0.100
410.900	-32.910	0.100
411.000	-38.900	0.100
411.100	-20.707	0.100
411.200	-26.217	0.100
411.300	-14.951	0.100
411.400	-33.701	0.100
411.500	-36.270	0.100
411.600	-25.696	0.100
411.700	-36.884	0.100
411.800	-42.899	0.100
411.900	-11.613	0.100
412.000	-35.556	0.100
412.100	-42.874	0.100
412.200	-47.458	0.100
412.300	-26.285	0.100
412.400	-29.858	0.100
412.500	-18.786	0.100
412.600	-34.264	0.100
412.700	-20.611	0.100
412.800	-29.375	0.100
412.900	-21.646	0.100
413.000	-33.782	0.100
413.100	-42.228	0.100
413.200	-31.509	0.100
413.300	-32.488	0.100
413.400	-28.606	0.100
413.500	-43.351	0.100
413.600	-27.823	0.100
413.700	-21.022	0.100
413.800	-27.692	0.100
413.900	-30.738	0.100
414.000	-19.328	0.100
414.100	-25.446	0.100
414.200	-31.649	0.100
414.300	-50.137	0.100
414.400	-35.228	0.100
414.500	-13.424	0.100
414.600	-30.246	0.100
414.700	-23.776	0.100
414.800	-35.298	0.100
414.900	-37.274	0.100
415.000	-29.573	0.100
415.100	-31.011	0.100
415.200	-42.755	0.100
415.300	-32.153	0.100
415.400	-28.024	0.100
415.500	-35.944	0.100
415.600	-26.794	0.100
415.700	-31.962	0.100
415.800	-30.224	0.100
415.900	-22.955	0.100
416.000	-27.732	0.100
416.100	-38.340	0.100
416.200	-40.921	0.100
416.300	-29.405	0.100
416.400	-22.998	0.100
416.500	-33.851	0.100
416.600	-32.801	0.100
416.700	-36.822	0.100
416.800	-37.900	0.100
416.900	-23.517	0.100
417.000	-49.020	0.100
417.100	-27.249	0.100
417.200	-45.240	0.100
417.300	-37.452	0.100
417.400	-47.172	0.100
417.500	-25.023	0.100
417.600	-29.162	0.100
417.700	-43.412	0.100
417.800	-44.300	0.100
417.900	-41.343	0.100
418.000	-25.083	0.100
418.100	-38.796	0.100
418.200	-35.239	0.100
418.300	-39.636	0.100
418.400	-35.789	0.100
418.500	-28.434	0.100
418.600	-32.988	0.100
418.700	-33.846	0.100
418.800	-32.148	0.100
418.900	-27.175	0.100
419.000	-45.411	0.100
419.100	-30.179	0.100
419.200	-30.630	0.100
419.300	-39.855	0.100
419.400	-39.718	0.100
419.500	-35.626	0.100
419.600	-34.766	0.100
419.700	-38.917	0.100
419.800	-28.214	0.100
419.900	-36.676	0.100
420.000	-41.842	0.100
420.100	-30.853	0.100
420.200	-40.602	0.100
420.300	-38.284	0.100
420.400	-42.497	0.100
420.500	-22.828	0.100
420.600	-38.809	0.100
420.700	-40.096	0.100
420.800	-47.886	0.100
420.900	-34.053	0.100
421.000	-36.615	0.100
421.100	-28.158	0.100
421.200	-29.822	0.100
421.300	-34.990	0.100
421.400	-40.632	0.100
421.500	-35.622	0.100
421.600	-24.170	0.100
421.700	-37.563	0.100
421.800	-32.632	0.100
421.900	-28.453	0.100
422.000	-42.286	0.100
422.100	-41.886	0.100
422.200	-35.868	0.100
422.300	-38.241	0.100
422.400	-29.204	0.100
422.500	-36.298	0.100
422.600	-48.136	0.100
422.700	-35.289	0.100
422.800	-27.479	0.100
422.900	-47.583	0.100
423.000	-42.980	0.100
423.100	-43.848	0.100
423.200	-31.344	0.100
423.300	-44.605	0.100
423.400	-27.173	0.100
423.500	-29.448	0.100
423.600	-42.608	0.100
423.700	-31.788	0.100
423.800	-29.289	0.100
423.900	-35.964	0.100
424.000	-32.871	0.100
424.100	-41.974	0.100
424.200	-46.237	0.100
424.300	-42.772	0.100
424.400	-44.617	0.100
424.500	-42.338	0.100
424.600	-42.846	0.100
424.700	-29.806	0.100
424.800	-38.644	0.100
424.900	-40.297	0.100
425.000	-41.496	0.100
425.100	-30.326	0.100
425.200	-32.550	0.100
425.300	-43.476	0.100
425.400	-48.601	0.100
425.500	-39.146	0.100
425.600	-40.564	0.100
425.700	-35.089	0.100
425.800	-40.540	0.100
425.900	-42.803	0.100
426.000	-41.231	0.100
426.100	-40.348	0.100
426.200	-36.333	0.100
426.300	-40.640	0.100
426.400	-49.826	0.100
426.500	-34.683	0.100
426.600	-36.650	0.100
426.700	-41.715	0.100
426.800	-38.135	0.100
426.900	-39.313	0.100
427.000	-35.034	0.100
427.100	-40.514	0.100
427.200	-32.128	0.100
427.300	-33.542	0.100
427.400	-33.647	0.100
427.500	-40.600	0.100
427.600	-43.005	0.100
427.700	-42.559	0.100
427.800	-43.809	0.100
427.900	-36.487	0.100
428.000	-44.541	0.100
428.100	-45.146	0.100
428.200	-44.565	0.100
428.300	-31.715	0.100
428.400	-41.913	0.100
428.500	-43.477	0.100
428.600	-40.204	0.100
428.700	-50.953	0.100
428.800	-37.423	0.100
428.900	-31.214	0.100
429.000	-38.334	0.100
429.100	-37.300	0.100
429.200	-47.954	0.100
429.300	-41.050	0.100
429.400	-28.761	0.100
429.500	-41.291	0.100
429.600	-36.988	0.100
429.700	-40.617	0.100
429.800	-35.651	0.100
429.900	-40.851	0.100
430.000	-32.660	0.100
430.100	-35.077	0.100
430.200	-34.034	0.100
430.300	-44.358	0.100
430.400	-40.864	0.100
430.500	-40.505	0.100
430.600	-32.401	0.100
430.700	-36.445	0.100
430.800	-46.846	0.100
430.900	-45.081	0.100
431.000	-42.802	0.100
431.100	-43.519	0.100
431.200	-42.143	0.100
431.300	-34.239	0.100
431.400	-37.925	0.100
431.500	-40.662	0.100
431.600	-37.920	0.100
431.700	-38.982	0.100
431.800	-34.849	0.100
431.900	-44.825	0.100
432.000	-41.173	0.100
432.100	-38.579	0.100
432.200	-42.260	0.100
432.300	-43.097	0.100
432.400	-42.196	0.100
432.500	-43.495	0.100
432.600	-39.408	0.100
432.700	-38.315	0.100
432.800	-42.703	0.100
432.900	-35.102	0.100
433.000	-43.451	0.100
433.100	-32.248	0.100
433.200	-34.739	0.100
433.300	-41.838	0.100
433.400	-44.433	0.100
433.500	-42.998	0.100
433.600	-43.594	0.100
433.700	-34.981	0.100
433.800	-39.203	0.100
433.900	-30.241	0.100
434.000	-39.499	0.100
434.100	-40.378	0.100
434.200	-43.530	0.100
434.300	-39.667	0.100
434.400	-51.073	0.100
434.500	-45.267	0.100
434.600	-33.817	0.100
434.700	-34.406	0.100
434.800	-44.429	0.100
434.900	-30.117	0.100
435.000	-39.196	0.100
435.100	-43.709	0.100
435.200	-39.581	0.100
435.300	-29.473	0.100
435.400	-46.137	0.100
435.500	-47.559	0.100
435.600	-53.623	0.100
435.700	-34.854	0.100
435.800	-27.969	0.100
435.900	-30.828	0.100
436.000	-44.002	0.100
436.100	-46.192	0.100
436.200	-33.991	0.100
436.300	-30.350	0.100
436.400	-44.835	0.100
436.500	-38.274	0.100
436.600	-41.360	0.100
436.700	-29.388	0.100
436.800	-41.796	0.100
436.900	-29.330	0.100
437.000	-33.283	0.100
437.100	-38.360	0.100
437.200	-36.854	0.100
437.300	-38.234	0.100
437.400	-32.049	0.100
437.500	-35.028	0.100
437.600	-44.960	0.100
437.700	-48.706	0.100
437.800	-46.967	0.100
437.900	-20.980	0.100
438.000	-33.147	0.100
438.100	-28.872	0.100
438.200	-36.519	0.100
438.300	-41.519	0.100
438.400	-23.357	0.100
438.500	-40.654	0.100
438.600	-44.449	0.100
438.700	-49.948	0.100
438.800	-35.822	0.100
438.900	-38.905	0.100
439.000	-35.660	0.100
439.100	-37.724	0.100
439.200	-39.350	0.100
439.300	-43.960	0.100
439.400	-46.106	0.100
439.500	-38.850	0.100
439.600	-34.986	0.100
439.700	-37.307	0.100
439.800	-36.094	0.100
439.900	-30.025	0.100
440.000	-43.459	0.100
440.100	-26.107	0.100
440.200	-48.121	0.100
440.300	-41.036	0.100
440.400	-45.844	0.100
440.500	-36.563	0.100
440.600	-32.192	0.100
440.700	-32.687	0.100
440.800	-40.433	0.100
440.900	-35.325	0.100
441.000	-29.849	0.100
441.100	-39.479	0.100
441.200	-35.603	0.100
441.300	-39.733	0.100
441.400	-38.519	0.100
441.500	-24.701	0.100
441.600	-31.062	0.100
441.700	-32.248	0.100
441.800	-35.799	0.100
441.900	-41.695	0.100
442.000	-38.485	0.100
442.100	-36.930	0.100
442.200	-39.778	0.100
442.300	-42.550	0.100
442.400	-41.998	0.100
442.500	-34.962	0.100
442.600	-28.703	0.100
442.700	-41.675	0.100
442.800	-33.893	0.100
442.900	-27.091	0.100
443.000	-27.438	0.100
443.100	-36.391	0.100
443.200	-39.613	0.100
443.300	-38.528	0.100
443.400	-37.211	0.100
443.500	-43.405	0.100
443.600	-42.688	0.100
443.700	-35.000	0.100
443.800	-23.707	0.100
443.900	-28.898	0.100
444.000	-32.712	0.100
444.100	-36.269	0.100
444.200	-42.168	0.100
444.300	-49.143	0.100
444.400	-42.002	0.100
444.500	-32.925	0.100
444.600	-25.849	0.100
444.700	-30.093	0.100
444.800	-30.511	0.100
444.900	-32.900	0.100
445.000	-39.601	0.100
445.100	-39.666	0.100
445.200	-47.472	0.100
445.300	-33.370	0.100
445.400	-33.184	0.100
445.500	-32.041	0.100
445.600	-30.640	0.100
445.700	-33.478	0.100
445.800	-41.881	0.100
445.900	-47.133	0.100
446.000	-24.392	0.100
446.100	-29.677	0.100
446.200	-36.103	0.100
446.300	-43.136	0.100
446.400	-35.443	0.100
446.500	-35.276	0.100
446.600	-27.688	0.100
446.700	-28.943	0.100
446.800	-35.846	0.100
446.900	-34.283	0.100
447.000	-32.190	0.100
447.100	-30.727	0.100
447.200	-33.723	0.100
447.300	-35.427	0.100
447.400	-39.350	0.100
447.500	-24.354	0.100
447.600	-31.923	0.100
447.700	-34.812	0.100
447.800	-42.360	0.100
447.900	-39.523	0.100
448.000	-31.457	0.100
448.100	-29.091	0.100
448.200	-42.526	0.100
448.300	-35.006	0.100
448.400	-37.422	0.100
448.500	-34.561	0.100
448.600	-30.451	0.100
448.700	-30.863	0.100
448.800	-33.145	0.100
448.900	-43.131	0.100
449.000	-27.460	0.100
449.100	-22.585	0.100
449.200	-36.777	0.100
449.300	-36.001	0.100
449.400	-24.874	0.100
449.500	-27.232	0.100
449.600	-38.525	0.100
449.700	-34.146	0.100
449.800	-32.020	0.100
449.900	-30.335	0.100
450.000	-34.021	0.100
450.100	-32.688	0.100
450.200	-31.889	0.100
450.300	-26.182	0.100
450.400	-36.014	0.100
450.500	-39.816	0.100
450.600	-42.146	0.100
450.700	-36.169	0.100
450.800	-31.091	0.100
450.900	-38.200	0.100
451.000	-30.754	0.100
451.100	-20.271	0.100
451.200	-30.406	0.100
451.300	-30.782	0.100
451.400	-37.910	0.100
451.500	-36.495	0.100
451.600	-36.788	0.100
451.700	-30.129	0.100
451.800	-39.934	0.100
451.900	-26.757	0.100
452.000	-20.853	0.100
452.100	-32.115	0.100
452.200	-31.688	0.100
452.300	-34.615	0.100
452.400	-23.377	0.100
452.500	-41.325	0.100
452.600	-35.600	0.100
452.700	-32.185	0.100
452.800	-33.339	0.100
452.900	-30.589	0.100
453.000	-23.998	0.100
453.100	-38.697	0.100
453.200	-26.947	0.100
453.300	-43.451	0.100
453.400	-42.047	0.100
453.500	-38.304	0.100
453.600	-26.143	0.100
453.700	-32.387	0.100
453.800	-32.870	0.100
453.900	-32.461	0.100
454.000	-19.421	0.100
454.100	-32.260	0.100
454.200	-31.400	0.100
454.300	-22.744	0.100
454.400	-36.693	0.100
454.500	-35.321	0.100
454.600	-23.167	0.100
454.700	-21.128	0.100
454.800	-32.200	0.100
454.900	-36.573	0.100
455.000	-22.549	0.100
455.100	-42.492	0.100
455.200	-27.698	0.100
455.300	-26.261	0.100
455.400	-30.760	0.100
455.500	-32.877	0.100
455.600	-25.765	0.100
455.700	-31.114	0.100
455.800	-19.894	0.100
455.900	-26.547	0.100
456.000	-38.449	0.100
456.100	-30.621	0.100
456.200	-31.693	0.100
456.300	-32.646	0.100
456.400	-29.975	0.100
456.500	-30.054	0.100
456.600	-18.289	0.100
456.700	-18.867	0.100
456.800	-39.177	0.100
456.900	-46.180	0.100
457.000	-44.814	0.100
457.100	-27.741	0.100
457.200	-34.605	0.100
457.300	-19.560	0.100
457.400	-24.056	0.100
457.500	-27.857	0.100
457.600	-28.072	0.100
457.700	-27.442	0.100
457.800	-25.318	0.100
457.900	-37.794	0.100
458.000	-22.875	0.100
458.100	-30.930	0.100
458.200	-34.060	0.100
458.300	-25.237	0.100
458.400	-34.916	0.100
458.500	-39.230	0.100
458.600	-19.642	0.100
458.700	-26.276	0.100
458.800	-46.812	0.100
458.900	-25.764	0.100
459.000	-21.636	0.100
459.100	-27.884	0.100
459.200	-33.682	0.100
459.300	-38.893	0.100
459.400	-23.642	0.100
459.500	-26.630	0.100
459.600	-34.699	0.100
459.700	-35.071	0.100
459.800	-27.566	0.100
459.900	-40.986	0.100
460.000	-34.870	0.100
460.100	-16.938	0.100
460.200	-16.893	0.100
460.300	-34.575	0.100
460.400	-32.134	0.100
460.500	-34.931	0.100
460.600	-33.603	0.100
460.700	-39.882	0.100
460.800	-29.761	0.100
460.900	-22.560	0.100
461.000	-23.857	0.100
461.100	-27.253	0.100
461.200	-37.100	0.100
461.300	-29.578	0.100
461.400	-26.433	0.100
461.500	-28.713	0.100
461.600	-25.168	0.100
461.700	-26.200	0.100
461.800	-29.117	0.100
461.900	-28.561	0.100
462.000	-41.507	0.100
462.100	-30.908	0.100
462.200	-34.231	0.100
462.300	-27.386	0.100
462.400	-24.051	0.100
462.500	-29.803	0.100
462.600	-24.464	0.100
462.700	-26.548	0.100
462.800	-35.351	0.100
462.900	-23.406	0.100
463.000	-22.133	0.100
463.100	-27.718	0.100
463.200	-36.685	0.100
463.300	-27.594	0.100
463.400	-32.748	0.100
463.500	-25.297	0.100
463.600	-21.539	0.100
463.700	-32.975	0.100
463.800	-25.810	0.100
463.900	-37.040	0.100
464.000	-26.441	0.100
464.100	-24.879	0.100
464.200	-24.576	0.100
464.300	-27.414	0.100
464.400	-35.378	0.100
464.500	-21.269	0.100
464.600	-40.172	0.100
464.700	-26.704	0.100
464.800	-25.099	0.100
464.900	-32.560	0.100
465.000	-28.629	0.100
465.100	-18.732	0.100
465.200	-25.455	0.100
465.300	-27.762	0.100
465.400	-23.708	0.100
465.500	-37.492	0.100
465.600	-30.998	0.100
465.700	-19.967	0.100
465.800	-23.430	0.100
465.900	-34.520	0.100
466.000	-48.571	0.100
466.100	-25.763	0.100
466.200	-27.646	0.100
466.300	-25.902	0.100
466.400	-29.568	0.100
466.500	-20.404	0.100
466.600	-24.101	0.100
466.700	-36.117	0.100
466.800	-37.628	0.100
466.900	-20.250	0.100
467.000	-26.750	0.100
467.100	-29.845	0.100
467.200	-24.473	0.100
467.300	-32.387	0.100
467.400	-21.446	0.100
467.500	-36.871	0.100
467.600	-22.090	0.100
467.700	-35.539	0.100
467.800	-24.492	0.100
467.900	-36.016	0.100
468.000	-38.367	0.100
468.100	-26.161	0.100
468.200	-19.132	0.100
468.300	-31.832	0.100
468.400	-25.647	0.100
468.500	-24.267	0.100
468.600	-28.085	0.100
468.700	-27.026	0.100
468.800	-33.571	0.100
468.900	-25.810	0.100
469.000	-36.533	0.100
469.100	-17.622	0.100
469.200	-33.822	0.100
469.300	-38.582	0.100
469.400	-24.324	0.100
469.500	-9.264	0.100
469.600	-30.622	0.100
469.700	-23.723	0.100
469.800	-29.361	0.100
469.900	-30.513	0.100
470.000	-29.612	0.100
470.100	-33.163	0.100
470.200	-27.085	0.100
470.300	-27.468	0.100
470.400	-12.905	0.100
470.500	-26.139	0.100
470.600	-30.184	0.100
470.700	-25.538	0.100
470.800	-22.811	0.100
470.900	-22.347	0.100
471.000	-26.283	0.100
471.100	-24.001	0.100
471.200	-31.333	0.100
471.300	-32.209	0.100
471.400	-30.209	0.100
471.500	-28.613	0.100
471.600	-28.558	0.100
471.700	-31.376	0.100
471.800	-26.105	0.100
471.900	-18.009	0.100
472.000	-21.005	0.100
472.100	-24.625	0.100
472.200	-31.849	0.100
472.300	-29.796	0.100
472.400	-31.564	0.100
472.500	-40.082	0.100
472.600	-22.684	0.100
472.700	-26.030	0.100
472.800	-21.738	0.100
472.900	-35.928	0.100
473.000	-23.249	0.100
473.100	-27.178	0.100
473.200	-26.966	0.100
473.300	-19.378	0.100
473.400	-27.619	0.100
473.500	-25.123	0.100
473.600	-30.582	0.100
473.700	-19.038	0.100
473.800	-16.923	0.100
473.900	-21.907	0.100
474.000	-23.365	0.100
474.100	-22.435	0.100
474.200	-27.340	0.100
474.300	-26.631	0.100
474.400	-31.585	0.100
474.500	-35.848	0.100
474.600	-26.373	0.100
474.700	-23.635	0.100
474.800	-17.847	0.100
474.900	-22.979	0.100
475.000	-16.625	0.100
475.100	-27.061	0.100
475.200	-36.938	0.100
475.300	-16.905	0.100
475.400	-36.041	0.100
475.500	-29.157	0.100
475.600	-27.410	0.100
475.700	-31.444	0.100
475.800	-29.778	0.100
475.900	-31.165	0.100
476.000	-24.175	0.100
476.100	-22.254	0.100
476.200	-30.837	0.100
476.300	-23.924	0.100
476.400	-25.576	0.100
476.500	-31.789	0.100
476.600	-14.962	0.100
476.700	-22.425	0.100
476.800	-25.843	0.100
476.900	-23.663	0.100
477.000	-39.831	0.100
477.100	-25.793	0.100
477.200	-32.975	0.100
477.300	-25.299	0.100
477.400	-25.493	0.100
477.500	-20.817	0.100
477.600	-38.404	0.100
477.700	-20.902	0.100
477.800	-25.964	0.100
477.900	-31.310	0.100
478.000	-21.524	0.100
478.100	-29.249	0.100
478.200	-20.941	0.100
478.300	-25.467	0.100
478.400	-20.571	0.100
478.500	-24.726	0.100
478.600	-31.021	0.100
478.700	-24.412	0.100
478.800	-10.610	0.100
478.900	-11.802	0.100
479.000	-17.427	0.100
479.100	-15.047	0.100
479.200	-15.791	0.100
479.300	-22.270	0.100
479.400	-32.950	0.100
479.500	-36.826	0.100
479.600	-13.935	0.100
479.700	-18.500	0.100
479.800	-36.674	0.100
479.900	-17.954	0.100
480.000	-22.088	0.100
480.100	-27.598	0.100
480.200	-16.138	0.100
480.300	-20.784	0.100
480.400	-6.398	0.100
480.500	-9.077	0.100
480.600	-3.182	0.100
480.700	-5.817	0.100
480.800	-10.357	0.100
480.900	8.146	0.100
481.000	-0.385	0.100
481.100	16.979	0.100
481.200	17.407	0.100
481.300	17.088	0.100
481.400	18.991	0.100
481.500	16.052	0.100
481.600	37.127	0.100
481.700	21.857	0.100
481.800	22.264	0.100
481.900	35.560	0.100
482.000	20.970	0.100
482.100	24.968	0.100
482.200	18.521	0.100
482.300	34.956	0.100
482.400	22.223	0.100
482.500	25.644	0.100
482.600	46.131	0.100
482.700	39.719	0.100
482.800	35.539	0.100
482.900	35.875	0.100
483.000	22.171	0.100
483.100	34.030	0.100
483.200	38.297	0.100
483.300	28.678	0.100
483.400	32.748	0.100
483.500	35.455	0.100
483.600	30.377	0.100
483.700	25.750	0.100
483.800	33.719	0.100
483.900	35.232	0.100
484.000	42.880	0.100
484.100	48.140	0.100
484.200	39.327	0.100
484.300	30.861	0.100
484.400	41.959	0.100
484.500	32.184	0.100
484.600	36.575	0.100
484.700	31.844	0.100
484.800	40.315	0.100
484.900	35.855	0.100
485.000	32.250	0.100
485.100	31.646	0.100
485.200	23.291	0.100
485.300	29.100	0.100
485.400	35.831	0.100
485.500	33.627	0.100
485.600	31.992	0.100
485.700	34.948	0.100
485.800	27.554	0.100
485.900	31.048	0.100
486.000	33.821	0.100
486.100	31.065	0.100
486.200	33.357	0.100
486.300	28.836	0.100
486.400	36.535	0.100
486.500	31.613	0.100
486.600	17.347	0.100
486.700	21.407	0.100
486.800	33.513	0.100
486.900	37.449	0.100
487.000	29.399	0.100
487.100	34.834	0.100
487.200	39.721	0.100
487.300	26.452	0.100
487.400	35.857	0.100
487.500	36.147	0.100
487.600	25.872	0.100
487.700	18.941	0.100
487.800	33.195	0.100
487.900	24.319	0.100
488.000	34.788	0.100
488.100	30.710	0.100
488.200	47.828	0.100
488.300	33.431	0.100
488.400	20.914	0.100
488.500	32.492	0.100
488.600	38.427	0.100
488.700	23.749	0.100
488.800	36.033	0.100
488.900	28.219	0.100
489.000	25.286	0.100
489.100	28.941	0.100
489.200	43.073	0.100
489.300	37.694	0.100
489.400	34.799	0.100
489.500	29.319	0.100
489.600	37.028	0.100
489.700	35.277	0.100
489.800	25.038	0.100
489.900	30.319	0.100
490.000	36.338	0.100
490.100	35.471	0.100
490.200	34.049	0.100
490.300	32.186	0.100
490.400	23.146	0.100
490.500	36.910	0.100
490.600	42.280	0.100
490.700	30.973	0.100
490.800	29.638	0.100
490.900	31.707	0.100
491.000	30.695	0.100
491.100	27.349	0.100
491.200	35.303	0.100
491.300	28.209	0.100
491.400	28.388	0.100
491.500	27.593	0.100
491.600	42.253	0.100
491.700	33.152	0.100
491.800	32.729	0.100
491.900	38.547	0.100
492.000	35.385	0.100
492.100	33.252	0.100
492.200	36.113	0.100
492.300	36.214	0.100
492.400	45.889	0.100
492.500	38.297	0.100
492.600	38.578	0.100
492.700	37.737	0.100
492.800	38.664	0.100
492.900	34.976	0.100
493.000	42.217	0.100
493.100	32.352	0.100
493.200	20.627	0.100
493.300	37.996	0.100
493.400	47.407	0.100
493.500	21.123	0.100
493.600	28.195	0.100
493.700	38.302	0.100
493.800	48.994	0.100
493.900	43.612	0.100
494.000	32.740	0.100
494.100	33.284	0.100
494.200	35.052	0.100
494.300	39.657	0.100
494.400	23.307	0.100
494.500	24.545	0.100
494.600	39.653	0.100
494.700	38.840	0.100
494.800	33.126	0.100
494.900	43.737	0.100
495.000	44.576	0.100
495.100	40.932	0.100
495.200	48.495	0.100
495.300	37.417	0.100
495.400	50.637	0.100
495.500	43.181	0.100
495.600	40.681	0.100
495.700	49.142	0.100
495.800	40.824	0.100
495.900	48.951	0.100
496.000	48.512	0.100
496.100	50.536	0.100
496.200	48.097	0.100
496.300	32.572	0.100
496.400	37.099	0.100
496.500	41.719	0.100
496.600	43.093	0.100
496.700	46.339	0.100
496.800	42.969	0.100
496.900	49.168	0.100
497.000	51.646	0.100
497.100	55.844	0.100
497.200	53.507	0.100
497.300	41.310	0.100
497.400	50.293	0.100
497.500	56.349	0.100
497.600	54.440	0.100
497.700	46.663	0.100
497.800	57.616	0.100
497.900	61.939	0.100
498.000	55.518	0.100
498.100	55.695	0.100
498.200	53.999	0.100
498.300	60.538	0.100
498.400	64.300	0.100
498.500	58.296	0.100
498.600	57.031	0.100
498.700	52.614	0.100
498.800	57.617	0.100
498.900	58.798	0.100
499.000	52.923	0.100
499.100	65.555	0.100
499.200	56.999	0.100
499.300	59.993	0.100
499.400	66.669	0.100
499.500	57.487	0.100
499.600	63.780	0.100
499.700	61.905	0.100
499.800	56.864	0.100
499.900	55.047	0.100
500.000	53.710	0.100
500.100	67.009	0.100
500.200	69.123	0.100
500.300	73.618	0.100
500.400	70.699	0.100
500.500	71.397	0.100
500.600	56.315	0.100
500.700	68.279	0.100
500.800	74.707	0.100
500.900	60.462	0.100
501.000	63.160	0.100
501.100	60.740	0.100
501.200	60.313	0.100
501.300	70.567	0.100
501.400	77.631	0.100
501.500	60.007	0.100
501.600	58.499	0.100
501.700	60.183	0.100
501.800	65.641	0.100
501.900	81.602	0.100
502.000	73.338	0.100
502.100	69.802	0.100
502.200	79.334	0.100
502.300	69.949	0.100
502.400	65.891	0.100
502.500	75.406	0.100
502.600	72.747	0.100
502.700	74.875	0.100
502.800	73.425	0.100
502.900	70.668	0.100
503.000	67.374	0.100
503.100	75.991	0.100
503.200	74.726	0.100
503.300	85.103	0.100
503.400	85.421	0.100
503.500	69.527	0.100
503.600	63.950	0.100
503.700	76.325	0.100
503.800	79.982	0.100
503.900	77.291	0.100
504.000	81.277	0.100
504.100	70.877	0.100
504.200	80.285	0.100
504.300	70.002	0.100
504.400	76.284	0.100
504.500	75.473	0.100
504.600	71.307	0.100
504.700	81.417	0.100
504.800	86.645	0.100
504.900	77.188	0.100
505.000	84.731	0.100
505.100	79.101	0.100
505.200	72.077	0.100
505.300	78.402	0.100
505.400	80.670	0.100
505.500	75.633	0.100
505.600	83.361	0.100
505.700	81.034	0.100
505.800	79.884	0.100
505.900	78.104	0.100
506.000	85.276	0.100
506.100	74.626	0.100
506.200	74.663	0.100
506.300	76.206	0.100
506.400	73.563	0.100
506.500	71.364	0.100
506.600	70.482	0.100
506.700	84.492	0.100
506.800	74.315	0.100
506.900	74.890	0.100
507.000	80.603	0.100
507.100	84.062	0.100
507.200	73.502	0.100
507.300	70.264	0.100
507.400	79.955	0.100
507.500	75.461	0.100
507.600	80.653	0.100
507.700	75.689	0.100
507.800	73.890	0.100
507.900	75.526	0.100
508.000	68.531	0.100
508.100	67.717	0.100
508.200	73.387	0.100
508.300	81.936	0.100
508.400	69.130	0.100
508.500	65.739	0.100
508.600	86.887	0.100
508.700	86.525	0.100
508.800	75.937	0.100
508.900	76.446	0.100
509.000	73.859	0.100
509.100	68.644	0.100
509.200	77.248	0.100
509.300	70.867	0.100
509.400	75.705	0.100
509.500	69.378	0.100
509.600	67.151	0.100
509.700	78.208	0.100
509.800	62.557	0.100
509.900	76.009	0.100
510.000	80.393	0.100
510.100	82.722	0.100
510.200	64.521	0.100
510.300	63.709	0.100
510.400	67.603	0.100
510.500	73.863	0.100
510.600	75.991	0.100
510.700	75.298	0.100
510.800	69.896	0.100
510.900	77.086	0.100
511.000	75.634	0.100
511.100	75.573	0.100
511.200	69.283	0.100
511.300	66.482	0.100
511.400	64.533	0.100
511.500	81.883	0.100
511.600	69.089	0.100
511.700	75.195	0.100
511.800	63.357	0.100
511.900	63.773	0.100
512.000	62.405	0.100
512.100	62.798	0.100
512.200	77.203	0.100
512.300	73.205	0.100
512.400	71.756	0.100
512.500	63.642	0.100
512.600	66.775	0.100
512.700	71.673	0.100
512.800	72.729	0.100
512.900	58.986	0.100
513.000	68.406	0.100
513.100	73.717	0.100
513.200	76.617	0.100
513.300	70.251	0.100
513.400	51.110	0.100
513.500	64.706	0.100
513.600	67.971	0.100
513.700	68.984	0.100
513.800	70.347	0.100
513.900	74.403	0.100
514.000	72.155	0.100
514.100	67.585	0.100
514.200	73.015	0.100
514.300	74.960	0.100
514.400	66.110	0.100
514.500	67.123	0.100
514.600	57.845	0.100
514.700	60.786	0.100
514.800	70.211	0.100
514.900	64.615	0.100
515.000	68.110	0.100
515.100	65.612	0.100
515.200	68.168	0.100
515.300	70.678	0.100
515.400	75.741	0.100
515.500	73.961	0.100
515.600	63.684	0.100
515.700	70.654	0.100
515.800	70.478	0.100
515.900	59.213	0.100
516.000	50.038	0.100
516.100	74.240	0.100
516.200	85.882	0.100
516.300	71.902	0.100
516.400	65.965	0.100
516.500	63.607	0.100
516.600	67.064	0.100
516.700	72.329	0.100
516.800	71.261	0.100
516.900	73.196	0.100
517.000	64.103	0.100
517.100	61.655	0.100
517.200	53.771	0.100
517.300	70.093	0.100
517.400	67.803	0.100
517.500	77.105	0.100
517.600	63.011	0.100
517.700	62.941	0.100
517.800	71.459	0.100
517.900	65.558	0.100
518.000	63.039	0.100
518.100	62.690	0.100
518.200	80.024	0.100
518.300	61.911	0.100
518.400	71.032	0.100
518.500	64.066	0.100
518.600	64.417	0.100
518.700	72.221	0.100
518.800	75.284	0.100
518.900	69.529	0.100
519.000	60.043	0.100
519.100	67.706	0.100
519.200	69.872	0.100
519.300	68.396	0.100
519.400	60.948	0.100
519.500	62.744	0.100
519.600	57.789	0.100
519.700	62.969	0.100
519.800	68.200	0.100
519.900	67.078	0.100
520.000	57.509	0.100
520.100	73.629	0.100
520.200	63.892	0.100
520.300	66.229	0.100
520.400	59.691	0.100
520.500	70.371	0.100
520.600	54.482	0.100
520.700	54.369	0.100
520.800	66.488	0.100
520.900	74.022	0.100
521.000	76.401	0.100
521.100	76.974	0.100
521.200	68.414	0.100
521.300	70.244	0.100
521.400	67.796	0.100
521.500	67.945	0.100
521.600	58.793	0.100
521.700	69.528	0.100
521.800	78.514	0.100
521.900	65.630	0.100
522.000	62.018	0.100
522.100	60.078	0.100
522.200	60.529	0.100
522.300	67.588	0.100
522.400	54.285	0.100
522.500	67.472	0.100
522.600	64.073	0.100
522.700	60.821	0.100
522.800	61.441	0.100
522.900	74.221	0.100
523.000	61.743	0.100
523.100	70.680	0.100
523.200	62.015	0.100
523.300	63.062	0.100
523.400	66.912	0.100
523.500	77.743	0.100
523.600	69.745	0.100
523.700	58.175	0.100
523.800	54.752	0.100
523.900	73.036	0.100
524.000	63.506	0.100
524.100	63.736	0.100
524.200	68.853	0.100
524.300	60.822	0.100
524.400	65.905	0.100
524.500	52.926	0.100
524.600	56.083	0.100
524.700	64.006	0.100
524.800	68.067	0.100
524.900	51.445	0.100
525.000	64.867	0.100
525.100	77.458	0.100
525.200	75.074	0.100
525.300	64.979	0.100
525.400	56.376	0.100
525.500	64.421	0.100
525.600	57.117	0.100
525.700	59.792	0.100
525.800	73.273	0.100
525.900	53.480	0.100
526.000	63.495	0.100
526.100	66.178	0.100
526.200	62.407	0.100
526.300	56.999	0.100
526.400	60.883	0.100
526.500	64.337	0.100
526.600	70.084	0.100
526.700	68.879	0.100
526.800	57.795	0.100
526.900	81.333	0.100
527.000	68.321	0.100
527.100	59.468	0.100
527.200	65.084	0.100
527.300	55.131	0.100
527.400	68.411	0.100
527.500	59.413	0.100
527.600	59.302	0.100
527.700	64.640	0.100
527.800	69.683	0.100
527.900	73.963	0.100
528.000	64.554	0.100
528.100	67.982	0.100
528.200	58.981	0.100
528.300	52.615	0.100
528.400	59.864	0.100
528.500	65.744	0.100
528.600	65.761	0.100
528.700	62.494	0.100
528.800	62.504	0.100
528.900	56.375	0.100
529.000	59.143	0.100
529.100	66.127	0.100
529.200	58.147	0.100
529.300	65.941	0.100
529.400	70.042	0.100
529.500	61.044	0.100
529.600	63.328	0.100
529.700	60.480	0.100
529.800	71.916	0.100
529.900	63.461	0.100
530.000	72.161	0.100
530.100	60.501	0.100
530.200	61.249	0.100
530.300	56.146	0.100
530.400	65.159	0.100
530.500	56.934	0.100
530.600	69.195	0.100
530.700	69.156	0.100
530.800	65.499	0.100
530.900	55.660	0.100
531.000	63.374	0.100
531.100	61.411	0.100
531.200	69.396	0.100
531.300	53.645	0.100
531.400	53.853	0.100
531.500	56.996	0.100
531.600	62.807	0.100
531.700	73.464	0.100
531.800	54.128	0.100
531.900	69.175	0.100
532.000	61.208	0.100
532.100	74.583	0.100
532.200	56.602	0.100
532.300	62.847	0.100
532.400	59.062	0.100
532.500	65.067	0.100
532.600	57.020	0.100
532.700	62.485	0.100
532.800	72.786	0.100
532.900	65.567	0.100
533.000	67.386	0.100
533.100	77.034	0.100
533.200	56.088	0.100
533.300	56.651	0.100
533.400	57.321	0.100
533.500	68.410	0.100
533.600	61.482	0.100
533.700	59.703	0.100
533.800	55.668	0.100
533.900	60.695	0.100
534.000	60.701	0.100
534.100	63.882	0.100
534.200	58.498	0.100
534.300	68.385	0.100
534.400	51.543	0.100
534.500	61.931	0.100
534.600	53.382	0.100
534.700	71.064	0.100
534.800	67.497	0.100
534.900	59.699	0.100
535.000	60.151	0.100
535.100	49.754	0.100
535.200	57.157	0.100
535.300	53.100	0.100
535.400	60.418	0.100
535.500	66.244	0.100
535.600	66.913	0.100
535.700	62.000	0.100
535.800	58.937	0.100
535.900	60.566	0.100
536.000	60.143	0.100
536.100	63.112	0.100
536.200	63.035	0.100
536.300	62.806	0.100
536.400	60.463	0.100
536.500	75.002	0.100
536.600	43.869	0.100
536.700	51.750	0.100
536.800	57.518	0.100
536.900	66.428	0.100
537.000	63.993	0.100
537.100	62.282	0.100
537.200	53.912	0.100
537.300	58.884	0.100
537.400	64.348	0.100
537.500	60.909	0.100
537.600	47.103	0.100
537.700	58.771	0.100
537.800	63.507	0.100
537.900	51.101	0.100
538.000	60.758	0.100
538.100	58.909	0.100
538.200	59.340	0.100
538.300	64.215	0.100
538.400	69.541	0.100
538.500	58.372	0.100
538.600	64.187	0.100
538.700	47.801	0.100
538.800	61.808	0.100
538.900	64.860	0.100
539.000	53.150	0.100
539.100	59.118	0.100
539.200	54.252	0.100
539.300	58.534	0.100
539.400	62.393	0.100
539.500	58.635	0.100
539.600	51.348	0.100
539.700	61.956	0.100
539.800	61.636	0.100
539.900	58.632	0.100
540.000	48.720	0.100
540.100	53.470	0.100
540.200	50.669	0.100
540.300	58.751	0.100
540.400	33.727	0.100
540.500	39.062	0.100
540.600	32.969	0.100
540.700	35.125	0.100
540.800	32.812	0.100
540.900	30.915	0.100
541.000	11.172	0.100
541.100	11.121	0.100
541.200	11.713	0.100
541.300	9.759	0.100
541.400	16.148	0.100
541.500	13.667	0.100
541.600	4.722	0.100
541.700	1.292	0.100
541.800	3.312	0.100
541.900	2.768	0.100
542.000	-1.749	0.100
542.100	-12.219	0.100
542.200	-6.148	0.100
542.300	-1.064	0.100
542.400	-5.146	0.100
542.500	-8.701	0.100
542.600	-10.705	0.100
542.700	-0.981	0.100
542.800	-19.169	0.100
542.900	-6.673	0.100
543.000	-5.558	0.100
543.100	-11.554	0.100
543.200	-13.985	0.100
543.300	-12.280	0.100
543.400	-20.098	0.100
543.500	-17.878	0.100
543.600	-33.736	0.100
543.700	-15.146	0.100
543.800	-18.113	0.100
543.900	-18.665	0.100
544.000	-22.690	0.100
544.100	-27.245	0.100
544.200	-16.960	0.100
544.300	-17.438	0.100
544.400	-25.913	0.100
544.500	-26.553	0.100
544.600	-23.269	0.100
544.700	-26.233	0.100
544.800	-18.299	0.100
544.900	-24.615	0.100
545.000	-26.519	0.100
545.100	-33.343	0.100
545.200	-28.083	0.100
545.300	-21.810	0.100
545.400	-17.322	0.100
545.500	-27.249	0.100
545.600	-30.145	0.100
545.700	-27.325	0.100
545.800	-29.106	0.100
545.900	-38.463	0.100
546.000	-27.333	0.100
546.100	-26.739	0.100
546.200	-12.861	0.100
546.300	-26.439	0.100
546.400	-18.772	0.100
546.500	-37.874	0.100
546.600	-22.546	0.100
546.700	-19.843	0.100
546.800	-25.868	0.100
546.900	-27.309	0.100
547.000	-27.237	0.100
547.100	-27.379	0.100
547.200	-15.159	0.100
547.300	-23.643	0.100
547.400	-26.854	0.100
547.500	-12.165	0.100
547.600	-20.897	0.100
547.700	-24.174	0.100
547.800	-29.877	0.100
547.900	-15.204	0.100
548.000	-34.778	0.100
548.100	-31.555	0.100
548.200	-17.677	0.100
548.300	-20.228	0.100
548.400	-27.525	0.100
548.500	-12.767	0.100
548.600	-18.629	0.100
548.700	-22.118	0.100
548.800	-31.682	0.100
548.900	-25.043	0.100
549.000	-15.271	0.100
549.100	-19.373	0.100
549.200	-32.778	0.100
549.300	-34.132	0.100
549.400	-20.101	0.100
549.500	-21.035	0.100
549.600	-14.083	0.100
549.700	-32.353	0.100
549.800	-23.220	0.100
549.900	-33.212	0.100
550.000	-26.394	0.100
550.100	-19.963	0.100
550.200	-22.332	0.100
550.300	-27.859	0.100
550.400	-15.738	0.100
550.500	-28.453	0.100
550.600	-32.451	0.100
550.700	-11.567	0.100
550.800	-12.636	0.100
550.900	-25.152	0.100
551.000	-26.358	0.100
551.100	-29.204	0.100
551.200	-33.076	0.100
551.300	-22.922	0.100
551.400	-27.259	0.100
551.500	-16.464	0.100
551.600	-21.765	0.100
551.700	-22.382	0.100
551.800	-17.130	0.100
551.900	-27.977	0.100
552.000	-26.818	0.100
552.100	-18.601	0.100
552.200	-16.654	0.100
552.300	-29.628	0.100
552.400	-29.495	0.100
552.500	-16.483	0.100
552.600	-15.452	0.100
552.700	-27.562	0.100
552.800	-31.259	0.100
552.900	-16.478	0.100
553.000	-30.107	0.100
553.100	-27.882	0.100
553.200	-29.580	0.100
553.300	-19.893	0.100
553.400	-27.397	0.100
553.500	-31.902	0.100
553.600	-27.278	0.100
553.700	-30.939	0.100
553.800	-32.454	0.100
553.900	-23.836	0.100
554.000	-26.734	0.100
554.100	-30.309	0.100
554.200	-32.350	0.100
554.300	-22.380	0.100
554.400	-15.327	0.100
554.500	-25.536	0.100
554.600	-28.136	0.100
554.700	-25.795	0.100
554.800	-33.386	0.100
554.900	-25.522	0.100
555.000	-24.292	0.100
555.100	-20.423	0.100
555.200	-15.747	0.100
555.300	-24.991	0.100
555.400	-26.667	0.100
555.500	-40.348	0.100
555.600	-38.349	0.100
555.700	-25.205	0.100
555.800	-39.267	0.100
555.900	-22.086	0.100
556.000	-27.137	0.100
556.100	-30.437	0.100
556.200	-19.092	0.100
556.300	-27.375	0.100
556.400	-28.659	0.100
556.500	-24.633	0.100
556.600	-39.315	0.100
556.700	-16.137	0.100
556.800	-24.604	0.100
556.900	-30.525	0.100
557.000	-24.360	0.100
557.100	-26.487	0.100
557.200	-24.876	0.100
557.300	-20.538	0.100
557.400	-37.945	0.100
557.500	-26.761	0.100
557.600	-33.453	0.100
557.700	-26.837	0.100
557.800	-29.172	0.100
557.900	-29.288	0.100
558.000	-38.006	0.100
558.100	-36.012	0.100
558.200	-39.144	0.100
558.300	-27.828	0.100
558.400	-24.016	0.100
558.500	-31.403	0.100
558.600	-32.460	0.100
558.700	-40.930	0.100
558.800	-30.013	0.100
558.900	-24.228	0.100
559.000	-25.889	0.100
559.100	-26.245	0.100
559.200	-35.184	0.100
559.300	-38.477	0.100
559.400	-35.444	0.100
559.500	-29.824	0.100
559.600	-27.745	0.100
559.700	-28.713	0.100
559.800	-35.265	0.100
559.900	-22.371	0.100
560.000	-19.730	0.100
560.100	-28.761	0.100
560.200	-29.853	0.100
560.300	-40.380	0.100
560.400	-31.743	0.100
560.500	-31.304	0.100
560.600	-18.983	0.100
560.700	-25.055	0.100
560.800	-36.459	0.100
560.900	-33.296	0.100
561.000	-40.596	0.100
561.100	-33.114	0.100
561.200	-32.290	0.100
561.300	-33.844	0.100
561.400	-38.090	0.100
561.500	-17.882	0.100
561.600	-23.048	0.100
561.700	-28.857	0.100
561.800	-25.868	0.100
561.900	-28.924	0.100
562.000	-38.676	0.100
562.100	-38.664	0.100
562.200	-32.470	0.100
562.300	-32.167	0.100
562.400	-31.110	0.100
562.500	-44.113	0.100
562.600	-35.240	0.100
562.700	-32.013	0.100
562.800	-35.916	0.100
562.900	-35.250	0.100
563.000	-43.095	0.100
563.100	-24.454	0.100
563.200	-40.311	0.100
563.300	-31.911	0.100
563.400	-30.308	0.100
563.500	-25.301	0.100
563.600	-34.057	0.100
563.700	-20.892	0.100
563.800	-36.200	0.100
563.900	-26.298	0.100
564.000	-40.322	0.100
564.100	-40.390	0.100
564.200	-33.354	0.100
564.300	-31.980	0.100
564.400	-37.086	0.100
564.500	-36.091	0.100
564.600	-24.430	0.100
564.700	-31.153	0.100
564.800	-39.865	0.100
564.900	-42.339	0.100
565.000	-42.127	0.100
565.100	-35.283	0.100
565.200	-36.624	0.100
565.300	-30.748	0.100
565.400	-47.141	0.100
565.500	-42.829	0.100
565.600	-15.609	0.100
565.700	-40.380	0.100
565.800	-21.464	0.100
565.900	-41.253	0.100
566.000	-34.425	0.100
566.100	-35.178	0.100
566.200	-30.182	0.100
566.300	-29.286	0.100
566.400	-34.883	0.100
566.500	-33.358	0.100
566.600	-25.555	0.100
566.700	-37.560	0.100
566.800	-31.781	0.100
566.900	-32.319	0.100
567.000	-32.110	0.100
567.100	-36.947	0.100
567.200	-34.031	0.100
567.300	-37.776	0.100
567.400	-37.729	0.100
567.500	-40.621	0.100
567.600	-42.398	0.100
567.700	-39.118	0.100
567.800	-32.956	0.100
567.900	-40.881	0.100
568.000	-35.580	0.100
568.100	-40.204	0.100
568.200	-36.566	0.100
568.300	-39.096	0.100
568.400	-44.222	0.100
568.500	-37.095	0.100
568.600	-41.655	0.100
568.700	-37.086	0.100
568.800	-39.855	0.100
568.900	-32.547	0.100
569.000	-39.453	0.100
569.100	-37.289	0.100
569.200	-40.397	0.100
569.300	-40.491	0.100
569.400	-42.319	0.100
569.500	-33.255	0.100
569.600	-39.149	0.100
569.700	-37.622	0.100
569.800	-39.124	0.100
569.900	-42.401	0.100
570.000	-31.116	0.100
570.100	-32.762	0.100
570.200	-43.422	0.100
570.300	-38.162	0.100
570.400	-39.196	0.100
570.500	-41.092	0.100
570.600	-43.535	0.100
570.700	-46.831	0.100
570.800	-40.260	0.100
570.900	-33.310	0.100
571.000	-42.508	0.100
571.100	-37.699	0.100
571.200	-45.884	0.100
571.300	-40.900	0.100
571.400	-45.731	0.100
571.500	-29.074	0.100
571.600	-37.938	0.100
571.700	-41.461	0.100
571.800	-36.833	0.100
571.900	-43.023	0.100
572.000	-41.630	0.100
572.100	-40.798	0.100
572.200	-45.650	0.100
572.300	-37.811	0.100
572.400	-37.608	0.100
572.500	-42.485	0.100
572.600	-44.125	0.100
572.700	-48.927	0.100
572.800	-42.377	0.100
572.900	-41.990	0.100
573.000	-46.191	0.100
573.100	-34.716	0.100
573.200	-49.632	0.100
573.300	-39.136	0.100
573.400	-44.065	0.100
573.500	-32.390	0.100
573.600	-41.964	0.100
573.700	-39.395	0.100
573.800	-32.091	0.100
573.900	-40.377	0.100
574.000	-42.608	0.100
574.100	-31.299	0.100
574.200	-49.982	0.100
574.300	-44.503	0.100
574.400	-49.536	0.100
574.500	-33.090	0.100
574.600	-50.897	0.100
574.700	-46.011	0.100
574.800	-42.877	0.100
574.900	-57.574	0.100
575.000	-40.619	0.100
575.100	-43.631	0.100
575.200	-34.518	0.100
575.300	-40.997	0.100
575.400	-43.589	0.100
575.500	-39.844	0.100
575.600	-47.751	0.100
575.700	-33.722	0.100
575.800	-27.973	0.100
575.900	-38.007	0.100
576.000	-44.908	0.100
576.100	-40.225	0.100
576.200	-41.043	0.100
576.300	-53.302	0.100
576.400	-43.800	0.100
576.500	-50.311	0.100
576.600	-54.902	0.100
576.700	-35.733	0.100
576.800	-31.809	0.100
576.900	-28.123	0.100
577.000	-34.372	0.100
577.100	-47.869	0.100
577.200	-30.485	0.100
577.300	-43.978	0.100
577.400	-45.595	0.100
577.500	-44.961	0.100
577.600	-44.574	0.100
577.700	-34.428	0.100
577.800	-42.984	0.100
577.900	-54.219	0.100
578.000	-46.354	0.100
578.100	-32.400	0.100
578.200	-40.142	0.100
578.300	-43.930	0.100
578.400	-34.688	0.100
578.500	-37.809	0.100
578.600	-47.872	0.100
578.700	-38.728	0.100
578.800	-50.188	0.100
578.900	-43.288	0.100
579.000	-52.440	0.100
579.100	-46.555	0.100
579.200	-39.248	0.100
579.300	-47.583	0.100
579.400	-45.068	0.100
579.500	-46.603	0.100
579.600	-41.295	0.100
579.700	-44.047	0.100
579.800	-33.684	0.100
579.900	-50.798	0.100
580.000	-50.378	0.100
580.100	-44.693	0.100
580.200	-42.293	0.100
580.300	-40.159	0.100
580.400	-29.335	0.100
580.500	-46.717	0.100
580.600	-44.142	0.100
580.700	-50.550	0.100
580.800	-42.085	0.100
580.900	-41.812	0.100
581.000	-41.881	0.100
581.100	-50.990	0.100
581.200	-37.127	0.100
581.300	-45.052	0.100
581.400	-41.656	0.100
581.500	-35.826	0.100
581.600	-37.120	0.100
581.700	-53.048	0.100
581.800	-33.290	0.100
581.900	-36.472	0.100
582.000	-44.177	0.100
582.100	-55.977	0.100
582.200	-46.369	0.100
582.300	-52.513	0.100
582.400	-37.920	0.100
582.500	-40.071	0.100
582.600	-41.632	0.100
582.700	-34.951	0.100
582.800	-33.327	0.100
582.900	-37.870	0.100
583.000	-44.776	0.100
583.100	-39.787	0.100
583.200	-45.215	0.100
583.300	-47.237	0.100
583.400	-45.762	0.100
583.500	-40.989	0.100
583.600	-35.505	0.100
583.700	-41.900	0.100
583.800	-44.267	0.100
583.900	-51.147	0.100
584.000	-41.153	0.100
584.100	-44.282	0.100
584.200	-51.918	0.100
584.300	-35.970	0.100
584.400	-28.640	0.100
584.500	-47.285	0.100
584.600	-33.766	0.100
584.700	-45.987	0.100
584.800	-47.606	0.100
584.900	-46.571	0.100
585.000	-48.811	0.100
585.100	-45.976	0.100
585.200	-37.503	0.100
585.300	-33.292	0.100
585.400	-43.608	0.100
585.500	-31.343	0.100
585.600	-38.772	0.100
585.700	-43.202	0.100
585.800	-43.340	0.100
585.900	-52.130	0.100
586.000	-38.594	0.100
586.100	-43.439	0.100
586.200	-46.804	0.100
586.300	-42.407	0.100
586.400	-49.038	0.100
586.500	-45.363	0.100
586.600	-43.448	0.100
586.700	-40.138	0.100
586.800	-36.632	0.100
586.900	-34.505	0.100
587.000	-29.030	0.100
587.100	-34.834	0.100
587.200	-46.585	0.100
587.300	-42.364	0.100
587.400	-43.604	0.100
587.500	-48.063	0.100
587.600	-42.285	0.100
587.700	-38.087	0.100
587.800	-30.696	0.100
587.900	-41.756	0.100
588.000	-44.055	0.100
588.100	-40.071	0.100
588.200	-36.645	0.100
588.300	-30.521	0.100
588.400	-36.461	0.100
588.500	-31.562	0.100
588.600	-42.982	0.100
588.700	-37.820	0.100
588.800	-51.126	0.100
588.900	-39.578	0.100
589.000	-46.120	0.100
589.100	-40.960	0.100
589.200	-38.435	0.100
589.300	-56.300	0.100
589.400	-44.964	0.100
589.500	-39.453	0.100
589.600	-46.713	0.100
589.700	-35.198	0.100
589.800	-32.964	0.100
589.900	-42.431	0.100
590.000	-40.168	0.100
590.100	-44.589	0.100
590.200	-39.836	0.100
590.300	-32.027	0.100
590.400	-41.766	0.100
590.500	-43.798	0.100
590.600	-30.890	0.100
590.700	-31.524	0.100
590.800	-28.142	0.100
590.900	-40.331	0.100
591.000	-45.380	0.100
591.100	-41.354	0.100
591.200	-45.732	0.100
591.300	-39.856	0.100
591.400	-42.650	0.100
591.500	-32.507	0.100
591.600	-38.986	0.100
591.700	-34.130	0.100
591.800	-45.392	0.100
591.900	-47.776	0.100
592.000	-49.347	0.100
592.100	-35.261	0.100
592.200	-33.203	0.100
592.300	-40.017	0.100
592.400	-37.589	0.100
592.500	-37.675	0.100
592.600	-34.300	0.100
592.700	-40.706	0.100
592.800	-48.689	0.100
592.900	-42.394	0.100
593.000	-35.589	0.100
593.100	-40.309	0.100
593.200	-47.893	0.100
593.300	-43.630	0.100
593.400	-41.947	0.100
593.500	-52.234	0.100
593.600	-20.025	0.100
593.700	-38.342	0.100
593.800	-45.531	0.100
593.900	-31.760	0.100
594.000	-40.472	0.100
594.100	-42.520	0.100
594.200	-33.963	0.100
594.300	-34.756	0.100
594.400	-40.964	0.100
594.500	-34.208	0.100
594.600	-37.510	0.100
594.700	-47.697	0.100
594.800	-48.982	0.100
594.900	-33.235	0.100
595.000	-29.188	0.100
595.100	-24.693	0.100
595.200	-32.958	0.100
595.300	-40.499	0.100
595.400	-44.317	0.100
595.500	-37.849	0.100
595.600	-28.770	0.100
595.700	-49.116	0.100
595.800	-31.072	0.100
595.900	-32.761	0.100
596.000	-32.409	0.100
596.100	-47.090	0.100
596.200	-35.856	0.100
596.300	-36.279	0.100
596.400	-31.365	0.100
596.500	-30.169	0.100
596.600	-36.235	0.100
596.700	-33.487	0.100
596.800	-38.492	0.100
596.900	-25.926	0.100
597.000	-33.290	0.100
597.100	-50.728	0.100
597.200	-46.310	0.100
597.300	-43.774	0.100
597.400	-31.629	0.100
597.500	-33.263	0.100
597.600	-46.394	0.100
597.700	-42.559	0.100
597.800	-31.880	0.100
597.900	-26.121	0.100
598.000	-32.626	0.100
598.100	-43.497	0.100
598.200	-40.911	0.100
598.300	-39.658	0.100
598.400	-32.786	0.100
598.500	-35.029	0.100
598.600	-38.197	0.100
598.700	-41.606	0.100
598.800	-39.215	0.100
598.900	-43.886	0.100
599.000	-27.298	0.100
599.100	-37.063	0.100
599.200	-37.692	0.100
599.300	-42.092	0.100
599.400	-33.847	0.100
599.500	-33.209	0.100
599.600	-29.194	0.100
599.700	-33.778	0.100
599.800	-30.456	0.100
599.900	-40.216	0.100
600.000	-38.001	0.100
600.100	-32.642	0.100
600.200	-34.000	0.100
600.300	-39.483	0.100
600.400	-37.112	0.100
600.500	-45.499	0.100
600.600	-46.329	0.100
600.700	-30.732	0.100
600.800	-33.695	0.100
600.900	-39.703	0.100
601.000	-44.116	0.100
601.100	-34.198	0.100
601.200	-33.501	0.100
601.300	-31.685	0.100
601.400	-24.754	0.100
601.500	-40.776	0.100
601.600	-34.098	0.100
601.700	-32.266	0.100
601.800	-39.138	0.100
601.900	-42.342	0.100
602.000	-32.139	0.100
602.100	-35.950	0.100
602.200	-22.460	0.100
602.300	-38.606	0.100
602.400	-35.126	0.100
602.500	-39.532	0.100
602.600	-32.595	0.100
602.700	-41.282	0.100
602.800	-23.739	0.100
602.900	-35.182	0.100
603.000	-41.868	0.100
603.100	-33.802	0.100
603.200	-32.857	0.100
603.300	-33.004	0.100
603.400	-34.575	0.100
603.500	-40.599	0.100
603.600	-28.667	0.100
603.700	-34.473	0.100
603.800	-37.898	0.100
603.900	-33.875	0.100
604.000	-36.282	0.100
604.100	-42.491	0.100
604.200	-21.679	0.100
604.300	-31.906	0.100
604.400	-40.883	0.100
604.500	-46.868	0.100
604.600	-24.562	0.100
604.700	-29.503	0.100
604.800	-36.609	0.100
604.900	-32.102	0.100
605.000	-38.035	0.100
605.100	-31.970	0.100
605.200	-34.384	0.100
605.300	-31.695	0.100
605.400	-45.951	0.100
605.500	-34.017	0.100
605.600	-22.416	0.100
605.700	-29.357	0.100
605.800	-36.238	0.100
605.900	-39.060	0.100
606.000	-42.692	0.100
606.100	-22.213	0.100
606.200	-37.999	0.100
606.300	-24.228	0.100
606.400	-32.098	0.100
606.500	-22.821	0.100
606.600	-35.440	0.100
606.700	-35.403	0.100
606.800	-25.611	0.100
606.900	-36.378	0.100
607.000	-29.603	0.100
607.100	-30.759	0.100
607.200	-32.827	0.100
607.300	-28.922	0.100
607.400	-43.637	0.100
607.500	-39.105	0.100
607.600	-28.532	0.100
607.700	-23.847	0.100
607.800	-21.376	0.100
607.900	-36.345	0.100
608.000	-37.924	0.100
608.100	-32.956	0.100
608.200	-36.848	0.100
608.300	-41.763	0.100
608.400	-36.005	0.100
608.500	-27.114	0.100
608.600	-37.671	0.100
608.700	-32.065	0.100
608.800	-28.064	0.100
608.900	-30.405	0.100
609.000	-36.475	0.100
609.100	-42.018	0.100
609.200	-30.379	0.100
609.300	-32.511	0.100
609.400	-36.205	0.100
609.500	-24.228	0.100
609.600	-26.602	0.100
609.700	-39.664	0.100
609.800	-31.458	0.100
609.900	-37.276	0.100
610.000	-29.944	0.100
610.100	-43.752	0.100
610.200	-23.846	0.100
610.300	-37.445	0.100
610.400	-27.507	0.100
610.500	-28.799	0.100
610.600	-34.112	0.100
610.700	-30.235	0.100
610.800	-35.836	0.100
610.900	-35.806	0.100
611.000	-31.040	0.100
611.100	-28.154	0.100
611.200	-33.839	0.100
611.300	-31.195	0.100
611.400	-22.187	0.100
611.500	-35.331	0.100
611.600	-26.863	0.100
611.700	-39.044	0.100
611.800	-40.775	0.100
611.900	-38.063	0.100
612.000	-32.172	0.100
612.100	-30.405	0.100
612.200	-29.558	0.100
612.300	-31.165	0.100
612.400	-31.058	0.100
612.500	-29.001	0.100
612.600	-28.975	0.100
612.700	-29.099	0.100
612.800	-40.645	0.100
612.900	-23.532	0.100
613.000	-30.516	0.100
613.100	-26.416	0.100
613.200	-24.424	0.100
613.300	-37.002	0.100
613.400	-38.798	0.100
613.500	-30.727	0.100
613.600	-22.199	0.100
613.700	-24.215	0.100
613.800	-41.784	0.100
613.900	-24.999	0.100
614.000	-31.084	0.100
614.100	-24.737	0.100
614.200	-24.568	0.100
614.300	-22.584	0.100
614.400	-30.416	0.100
614.500	-34.620	0.100
614.600	-35.316	0.100
614.700	-26.259	0.100
614.800	-27.469	0.100
614.900	-23.175	0.100
615.000	-35.036	0.100
615.100	-30.858	0.100
615.200	-37.986	0.100
615.300	-32.861	0.100
615.400	-32.796	0.100
615.500	-37.700	0.100
615.600	-34.787	0.100
615.700	-31.553	0.100
615.800	-19.980	0.100
615.900	-28.543	0.100
616.000	-24.804	0.100
616.100	-32.632	0.100
616.200	-34.698	0.100
616.300	-33.416	0.100
616.400	-35.648	0.100
616.500	-22.462	0.100
616.600	-22.709	0.100
616.700	-29.828	0.100
616.800	-30.544	0.100
616.900	-33.642	0.100
617.000	-32.286	0.100
617.100	-20.271	0.100
617.200	-27.988	0.100
617.300	-20.433	0.100
617.400	-28.352	0.100
617.500	-29.335	0.100
617.600	-33.522	0.100
617.700	-22.666	0.100
617.800	-21.569	0.100
617.900	-29.867	0.100
618.000	-32.217	0.100
618.100	-34.545	0.100
618.200	-34.124	0.100
618.300	-26.095	0.100
618.400	-37.084	0.100
618.500	-31.968	0.100
618.600	-25.473	0.100
618.700	-32.652	0.100
618.800	-36.952	0.100
618.900	-28.646	0.100
619.000	-22.376	0.100
619.100	-48.574	0.100
619.200	-27.423	0.100
619.300	-26.773	0.100
619.400	-30.567	0.100
619.500	-30.987	0.100
619.600	-16.783	0.100
619.700	-31.720	0.100
619.800	-27.079	0.100
619.900	-32.952	0.100
620.000	-21.361	0.100
620.100	-27.161	0.100
620.200	-23.286	0.100
620.300	-32.407	0.100
620.400	-19.918	0.100
620.500	-33.499	0.100
620.600	-39.275	0.100
620.700	-35.915	0.100
620.800	-26.399	0.100
620.900	-26.396	0.100
621.000	-25.803	0.100
621.100	-26.996	0.100
621.200	-33.799	0.100
621.300	-33.106	0.100
621.400	-33.497	0.100
621.500	-36.353	0.100
621.600	-27.586	0.100
621.700	-24.466	0.100
621.800	-29.203	0.100
621.900	-34.852	0.100
622.000	-34.151	0.100
622.100	-30.052	0.100
622.200	-36.372	0.100
622.300	-23.195	0.100
622.400	-27.316	0.100
622.500	-22.382	0.100
622.600	-36.477	0.100
622.700	-22.356	0.100
622.800	-24.252	0.100
622.900	-30.182	0.100
623.000	-34.688	0.100
623.100	-27.147	0.100
623.200	-35.957	0.100
623.300	-25.703	0.100
623.400	-23.010	0.100
623.500	-26.166	0.100
623.600	-26.924	0.100
623.700	-25.963	0.100
623.800	-28.380	0.100
623.900	-21.765	0.100
624.000	-30.060	0.100
624.100	-40.559	0.100
624.200	-26.325	0.100
624.300	-31.091	0.100
624.400	-34.822	0.100
624.500	-26.813	0.100
624.600	-27.170	0.100
624.700	-33.600	0.100
624.800	-30.300	0.100
624.900	-22.287	0.100
625.000	-28.154	0.100
625.100	-29.655	0.100
625.200	-25.260	0.100
625.300	-26.828	0.100
625.400	-29.477	0.100
625.500	-42.830	0.100
625.600	-33.906	0.100
625.700	-36.647	0.100
625.800	-29.577	0.100
625.900	-23.640	0.100
626.000	-24.957	0.100
626.100	-24.708	0.100
626.200	-20.070	0.100
626.300	-15.856	0.100
626.400	-36.330	0.100
626.500	-27.439	0.100
626.600	-31.030	0.100
626.700	-25.213	0.100
626.800	-37.952	0.100
626.900	-34.531	0.100
627.000	-18.098	0.100
627.100	-29.998	0.100
627.200	-30.162	0.100
627.300	-27.012	0.100
627.400	-23.859	0.100
627.500	-38.660	0.100
627.600	-31.148	0.100
627.700	-21.943	0.100
627.800	-29.734	0.100
627.900	-26.223	0.100
628.000	-36.743	0.100
628.100	-16.451	0.100
628.200	-20.533	0.100
628.300	-36.392	0.100
628.400	-30.919	0.100
628.500	-27.586	0.100
628.600	-22.593	0.100
628.700	-27.104	0.100
628.800	-18.597	0.100
628.900	-31.664	0.100
629.000	-40.858	0.100
629.100	-32.220	0.100
629.200	-21.334	0.100
629.300	-29.888	0.100
629.400	-21.346	0.100
629.500	-28.491	0.100
629.600	-29.500	0.100
629.700	-25.661	0.100
629.800	-24.807	0.100
629.900	-25.884	0.100
630.000	-20.176	0.100
630.100	-18.469	0.100
630.200	-27.025	0.100
630.300	-22.847	0.100
630.400	-20.138	0.100
630.500	-4.546	0.100
630.600	-8.836	0.100
630.700	-1.761	0.100
630.800	4.368	0.100
630.900	1.638	0.100
631.000	-2.053	0.100
631.100	9.527	0.100
631.200	24.037	0.100
631.300	20.431	0.100
631.400	15.989	0.100
631.500	23.397	0.100
631.600	10.064	0.100
631.700	27.477	0.100
631.800	29.581	0.100
631.900	27.360	0.100
632.000	38.468	0.100
632.100	15.479	0.100
632.200	23.473	0.100
632.300	33.462	0.100
632.400	27.362	0.100
632.500	32.216	0.100
632.600	39.105	0.100
632.700	33.003	0.100
632.800	31.991	0.100
632.900	24.912	0.100
633.000	28.755	0.100
633.100	28.844	0.100
633.200	19.937	0.100
633.300	22.059	0.100
633.400	32.940	0.100
633.500	44.397	0.100
633.600	34.928	0.100
633.700	27.731	0.100
633.800	31.275	0.100
633.900	46.345	0.100
634.000	32.091	0.100
634.100	39.359	0.100
634.200	43.137	0.100
634.300	34.885	0.100
634.400	40.300	0.100
634.500	32.639	0.100
634.600	32.043	0.100
634.700	39.898	0.100
634.800	31.627	0.100
634.900	38.333	0.100
635.000	33.269	0.100
635.100	31.827	0.100
635.200	35.093	0.100
635.300	24.490	0.100
635.400	33.639	0.100
635.500	44.515	0.100
635.600	35.559	0.100
635.700	35.000	0.100
635.800	26.688	0.100
635.900	36.209	0.100
636.000	35.073	0.100
636.100	31.701	0.100
636.200	31.773	0.100
636.300	32.662	0.100
636.400	35.680	0.100
636.500	20.368	0.100
636.600	28.936	0.100
636.700	46.545	0.100
636.800	26.766	0.100
636.900	19.601	0.100
637.000	20.627	0.100
637.100	30.511	0.100
637.200	36.598	0.100
637.300	36.396	0.100
637.400	28.272	0.100
637.500	22.159	0.100
637.600	35.781	0.100
637.700	36.894	0.100
637.800	24.771	0.100
637.900	12.716	0.100
638.000	19.702	0.100
638.100	20.978	0.100
638.200	37.903	0.100
638.300	32.728	0.100
638.400	33.278	0.100
638.500	36.719	0.100
638.600	20.822	0.100
638.700	34.653	0.100
638.800	32.416	0.100
638.900	37.601	0.100
639.000	26.953	0.100
639.100	34.366	0.100
639.200	28.277	0.100
639.300	40.542	0.100
639.400	26.985	0.100
639.500	37.563	0.100
639.600	21.992	0.100
639.700	38.178	0.100
639.800	21.741	0.100
639.900	27.772	0.100
640.000	18.970	0.100
640.100	33.931	0.100
640.200	29.450	0.100
640.300	26.724	0.100
640.400	34.466	0.100
640.500	36.322	0.100
640.600	28.289	0.100
640.700	25.234	0.100
640.800	32.479	0.100
640.900	27.426	0.100
641.000	25.454	0.100
641.100	31.513	0.100
641.200	31.128	0.100
641.300	26.752	0.100
641.400	32.328	0.100
641.500	33.205	0.100
641.600	30.848	0.100
641.700	30.991	0.100
641.800	46.025	0.100
641.900	39.153	0.100
642.000	18.425	0.100
642.100	26.751	0.100
642.200	33.221	0.100
642.300	46.018	0.100
642.400	30.883	0.100
642.500	27.439	0.100
642.600	33.349	0.100
642.700	28.691	0.100
642.800	25.547	0.100
642.900	33.662	0.100
643.000	38.083	0.100
643.100	23.842	0.100
643.200	34.391	0.100
643.300	34.278	0.100
643.400	35.824	0.100
643.500	36.943	0.100
643.600	34.590	0.100
643.700	39.556	0.100
643.800	24.777	0.100
643.900	37.019	0.100
644.000	41.140	0.100
644.100	31.466	0.100
644.200	30.337	0.100
644.300	37.249	0.100
644.400	46.724	0.100
644.500	32.164	0.100
644.600	35.902	0.100
644.700	43.661	0.100
644.800	37.357	0.100
644.900	28.459	0.100
645.000	22.050	0.100
645.100	42.992	0.100
645.200	42.257	0.100
645.300	38.134	0.100
645.400	40.688	0.100
645.500	48.020	0.100
645.600	39.889	0.100
645.700	31.926	0.100
645.800	38.524	0.100
645.900	42.473	0.100
646.000	49.506	0.100
646.100	50.162	0.100
646.200	48.729	0.100
646.300	45.263	0.100
646.400	48.338	0.100
646.500	51.277	0.100
646.600	29.910	0.100
646.700	40.133	0.100
646.800	49.107	0.100
646.900	44.332	0.100
647.000	46.682	0.100
647.100	39.384	0.100
647.200	33.975	0.100
647.300	48.833	0.100
647.400	44.503	0.100
647.500	49.911	0.100
647.600	48.180	0.100
647.700	51.044	0.100
647.800	62.200	0.100
647.900	35.814	0.100
648.000	54.866	0.100
648.100	43.322	0.100
648.200	49.458	0.100
648.300	46.427	0.100
648.400	50.747	0.100
648.500	54.741	0.100
648.600	56.587	0.100
648.700	57.541	0.100
648.800	61.422	0.100
648.900	43.194	0.100
649.000	37.380	0.100
649.100	56.629	0.100
649.200	51.385	0.100
649.300	56.454	0.100
649.400	56.894	0.100
649.500	54.899	0.100
649.600	51.646	0.100
649.700	56.999	0.100
649.800	51.384	0.100
649.900	67.477	0.100
650.000	64.019	0.100
650.100	61.834	0.100
650.200	53.364	0.100
650.300	60.390	0.100
650.400	63.042	0.100
650.500	67.653	0.100
650.600	55.026	0.100
650.700	64.254	0.100
650.800	60.337	0.100
650.900	66.295	0.100
651.000	73.529	0.100
651.100	64.865	0.100
651.200	57.418	0.100
651.300	66.982	0.100
651.400	62.776	0.100
651.500	60.968	0.100
651.600	69.338	0.100
651.700	58.944	0.100
651.800	65.657	0.100
651.900	56.111	0.100
652.000	66.242	0.100
652.100	73.255	0.100
652.200	72.962	0.100
652.300	66.078	0.100
652.400	73.746	0.100
652.500	77.924	0.100
652.600	70.036	0.100
652.700	69.230	0.100
652.800	69.432	0.100
652.900	67.285	0.100
653.000	79.495	0.100
653.100	81.518	0.100
653.200	77.768	0.100
653.300	67.201	0.100
653.400	71.080	0.100
653.500	65.691	0.100
653.600	60.743	0.100
653.700	77.901	0.100
653.800	71.822	0.100
653.900	63.781	0.100
654.000	78.189	0.100
654.100	64.877	0.100
654.200	81.910	0.100
654.300	73.132	0.100
654.400	67.045	0.100
654.500	70.226	0.100
654.600	75.354	0.100
654.700	68.617	0.100
654.800	85.560	0.100
654.900	84.866	0.100
655.000	59.912	0.100
655.100	69.487	0.100
655.200	71.758	0.100
655.300	70.042	0.100
655.400	78.318	0.100
655.500	70.051	0.100
655.600	80.012	0.100
655.700	70.543	0.100
655.800	76.689	0.100
655.900	79.481	0.100
656.000	78.091	0.100
656.100	82.675	0.100
656.200	83.167	0.100
656.300	59.838	0.100
656.400	78.377	0.100
656.500	83.992	0.100
656.600	76.971	0.100
656.700	75.807	0.100
656.800	82.323	0.100
656.900	72.541	0.100
657.000	72.782	0.100
657.100	65.850	0.100
657.200	78.648	0.100
657.300	75.005	0.100
657.400	70.972	0.100
657.500	68.959	0.100
657.600	87.736	0.100
657.700	69.306	0.100
657.800	78.144	0.100
657.900	79.753	0.100
658.000	80.786	0.100
658.100	73.685	0.100
658.200	74.801	0.100
658.300	68.407	0.100
658.400	66.428	0.100
658.500	79.023	0.100
658.600	76.028	0.100
658.700	82.238	0.100
658.800	76.281	0.100
658.900	87.887	0.100
659.000	77.517	0.100
659.100	65.810	0.100
659.200	75.111	0.100
659.300	69.789	0.100
659.400	69.538	0.100
659.500	78.756	0.100
659.600	65.444	0.100
659.700	65.521	0.100
659.800	67.619	0.100
659.900	89.351	0.100
660.000	77.564	0.100
660.100	83.496	0.100
660.200	63.722	0.100
660.300	78.125	0.100
660.400	72.872	0.100
660.500	74.541	0.100
660.600	71.563	0.100
660.700	78.706	0.100
660.800	79.424	0.100
660.900	80.985	0.100
661.000	70.580	0.100
661.100	66.306	0.100
661.200	70.814	0.100
661.300	67.218	0.100
661.400	58.673	0.100
661.500	66.215	0.100
661.600	79.640	0.100
661.700	68.472	0.100
661.800	52.262	0.100
661.900	73.834	0.100
662.000	72.632	0.100
662.100	76.804	0.100
662.200	74.489	0.100
662.300	56.952	0.100
662.400	70.906	0.100
662.500	73.411	0.100
662.600	62.610	0.100
662.700	74.023	0.100
662.800	83.175	0.100
662.900	71.388	0.100
663.000	73.284	0.100
663.100	70.278	0.100
663.200	62.162	0.100
663.300	72.577	0.100
663.400	55.808	0.100
663.500	70.285	0.100
663.600	72.570	0.100
663.700	66.677	0.100
663.800	67.147	0.100
663.900	67.724	0.100
664.000	56.680	0.100
664.100	73.736	0.100
664.200	72.956	0.100
664.300	58.594	0.100
664.400	56.084	0.100
664.500	66.411	0.100
664.600	51.786	0.100
664.700	68.310	0.100
664.800	72.224	0.100
664.900	75.808	0.100
665.000	60.371	0.100
665.100	64.907	0.100
665.200	75.080	0.100
665.300	78.256	0.100
665.400	60.086	0.100
665.500	68.280	0.100
665.600	66.570	0.100
665.700	64.851	0.100
665.800	59.680	0.100
665.900	72.134	0.100
666.000	62.765	0.100
666.100	69.955	0.100
666.200	55.466	0.100
666.300	66.619	0.100
666.400	67.708	0.100
666.500	66.421	0.100
666.600	67.480	0.100
666.700	64.713	0.100
666.800	61.037	0.100
666.900	64.588	0.100
667.000	75.488	0.100
667.100	70.333	0.100
667.200	69.071	0.100
667.300	64.766	0.100
667.400	68.273	0.100
667.500	54.706	0.100
667.600	70.782	0.100
667.700	65.204	0.100
667.800	75.951	0.100
667.900	65.854	0.100
668.000	64.845	0.100
668.100	50.392	0.100
668.200	62.861	0.100
668.300	70.712	0.100
668.400	70.343	0.100
668.500	63.620	0.100
668.600	66.893	0.100
668.700	70.755	0.100
668.800	69.370	0.100
668.900	62.541	0.100
669.000	67.967	0.100
669.100	61.836	0.100
669.200	74.209	0.100
669.300	69.335	0.100
669.400	64.856	0.100
669.500	69.406	0.100
669.600	65.123	0.100
669.700	59.561	0.100
669.800	59.239	0.100
669.900	59.483	0.100
670.000	61.636	0.100
670.100	55.760	0.100
670.200	67.579	0.100
670.300	68.498	0.100
670.400	55.512	0.100
670.500	76.168	0.100
670.600	72.968	0.100
670.700	72.545	0.100
670.800	68.778	0.100
670.900	63.892	0.100
671.000	63.995	0.100
671.100	65.183	0.100
671.200	61.992	0.100
671.300	61.822	0.100
671.400	73.217	0.100
671.500	67.062	0.100
671.600	72.367	0.100
671.700	60.808	0.100
671.800	57.118	0.100
671.900	68.503	0.100
672.000	66.897	0.100
672.100	68.260	0.100
672.200	66.007	0.100
672.300	73.641	0.100
672.400	66.058	0.100
672.500	63.215	0.100
672.600	67.575	0.100
672.700	63.938	0.100
672.800	62.837	0.100
672.900	60.170	0.100
673.000	53.593	0.100
673.100	54.727	0.100
673.200	62.983	0.100
673.300	71.684	0.100
673.400	69.679	0.100
673.500	73.178	0.100
673.600	60.893	0.100
673.700	62.071	0.100
673.800	64.613	0.100
673.900	65.293	0.100
674.000	74.164	0.100
674.100	66.427	0.100
674.200	55.688	0.100
674.300	61.764	0.100
674.400	58.645	0.100
674.500	55.907	0.100
674.600	65.511	0.100
674.700	62.654	0.100
674.800	59.144	0.100
674.900	63.105	0.100
675.000	62.860	0.100
675.100	49.598	0.100
675.200	62.773	0.100
675.300	61.053	0.100
675.400	69.566	0.100
675.500	67.912	0.100
675.600	60.868	0.100
675.700	63.200	0.100
675.800	61.563	0.100
675.900	63.347	0.100
676.000	64.968	0.100
676.100	60.028	0.100
676.200	64.387	0.100
676.300	63.165	0.100
676.400	63.425	0.100
676.500	58.332	0.100
676.600	60.153	0.100
676.700	54.563	0.100
676.800	61.472	0.100
676.900	61.990	0.100
677.000	61.735	0.100
677.100	67.255	0.100
677.200	68.920	0.100
677.300	53.601	0.100
677.400	54.686	0.100
677.500	58.312	0.100
677.600	68.043	0.100
677.700	63.299	0.100
677.800	57.876	0.100
677.900	57.971	0.100
678.000	55.346	0.100
678.100	67.397	0.100
678.200	57.598	0.100
678.300	57.497	0.100
678.400	67.735	0.100
678.500	70.850	0.100
678.600	51.676	0.100
678.700	52.064	0.100
678.800	63.394	0.100
678.900	60.017	0.100
679.000	52.873	0.100
679.100	59.494	0.100
679.200	63.720	0.100
679.300	61.775	0.100
679.400	65.344	0.100
679.500	63.609	0.100
679.600	55.709	0.100
679.700	59.751	0.100
679.800	65.372	0.100
679.900	66.061	0.100
680.000	59.108	0.100
680.100	63.289	0.100
680.200	60.285	0.100
680.300	70.375	0.100
680.400	54.990	0.100
680.500	49.509	0.100
680.600	62.772	0.100
680.700	58.461	0.100
680.800	56.380	0.100
680.900	60.647	0.100
681.000	58.370	0.100
681.100	72.520	0.100
681.200	64.604	0.100
681.300	52.585	0.100
681.400	66.684	0.100
681.500	53.563	0.100
681.600	46.478	0.100
681.700	64.505	0.100
681.800	66.425	0.100
681.900	65.927	0.100
682.000	50.164	0.100
682.100	58.717	0.100
682.200	62.570	0.100
682.300	61.231	0.100
682.400	63.344	0.100
682.500	71.120	0.100
682.600	65.143	0.100
682.700	58.211	0.100
682.800	67.513	0.100
682.900	59.329	0.100
683.000	60.264	0.100
683.100	63.136	0.100
683.200	68.376	0.100
683.300	77.236	0.100
683.400	46.119	0.100
683.500	53.516	0.100
683.600	60.071	0.100
683.700	58.313	0.100
683.800	60.040	0.100
683.900	59.796	0.100
684.000	61.798	0.100
684.100	54.497	0.100
684.200	62.623	0.100
684.300	62.779	0.100
684.400	62.873	0.100
684.500	62.213	0.100
684.600	64.172	0.100
684.700	62.054	0.100
684.800	50.625	0.100
684.900	49.912	0.100
685.000	64.839	0.100
685.100	58.422	0.100
685.200	62.098	0.100
685.300	57.168	0.100
685.400	54.052	0.100
685.500	64.273	0.100
685.600	68.826	0.100
685.700	65.466	0.100
685.800	62.500	0.100
685.900	60.523	0.100
686.000	51.061	0.100
686.100	67.936	0.100
686.200	50.498	0.100
686.300	48.395	0.100
686.400	57.652	0.100
686.500	59.500	0.100
686.600	61.254	0.100
686.700	56.501	0.100
686.800	70.105	0.100
686.900	53.448	0.100
687.000	58.218	0.100
687.100	58.286	0.100
687.200	71.117	0.100
687.300	69.190	0.100
687.400	44.982	0.100
687.500	51.775	0.100
687.600	68.731	0.100
687.700	61.154	0.100
687.800	59.601	0.100
687.900	59.282	0.100
688.000	65.246	0.100
688.100	62.335	0.100
688.200	52.945	0.100
688.300	58.789	0.100
688.400	55.207	0.100
688.500	63.753	0.100
688.600	45.994	0.100
688.700	60.811	0.100
688.800	60.762	0.100
688.900	55.266	0.100
689.000	49.147	0.100
689.100	67.846	0.100
689.200	55.728	0.100
689.300	51.895	0.100
689.400	73.177	0.100
689.500	71.386	0.100
689.600	56.704	0.100
689.700	45.447	0.100
689.800	52.607	0.100
689.900	50.981	0.100
690.000	62.078	0.100
690.100	56.366	0.100
690.200	55.936	0.100
690.300	50.572	0.100
690.400	32.310	0.100
690.500	31.759	0.100
690.600	29.362	0.100
690.700	33.588	0.100
690.800	33.318	0.100
690.900	34.251	0.100
691.000	19.202	0.100
691.100	2.997	0.100
691.200	14.702	0.100
691.300	15.349	0.100
691.400	5.112	0.100
691.500	-0.948	0.100
691.600	16.759	0.100
691.700	3.725	0.100
691.800	-8.794	0.100
691.900	0.196	0.100
692.000	-2.208	0.100
692.100	-2.775	0.100
692.200	0.865	0.100
692.300	0.399	0.100
692.400	-11.003	0.100
692.500	-5.377	0.100
692.600	-7.602	0.100
692.700	-7.348	0.100
692.800	-15.118	0.100
692.900	-13.967	0.100
693.000	-12.020	0.100
693.100	-11.343	0.100
693.200	-8.579	0.100
693.300	-26.555	0.100
693.400	-18.818	0.100
693.500	-20.178	0.100
693.600	-11.363	0.100
693.700	-23.497	0.100
693.800	-23.179	0.100
693.900	-20.530	0.100
694.000	-18.486	0.100
694.100	-18.592	0.100
694.200	-31.241	0.100
694.300	-30.561	0.100
694.400	-17.929	0.100
694.500	-26.018	0.100
694.600	-29.892	0.100
694.700	-18.900	0.100
694.800	-32.853	0.100
694.900	-24.303	0.100
695.000	-16.165	0.100
695.100	-25.870	0.100
695.200	-28.680	0.100
695.300	-28.695	0.100
695.400	-21.662	0.100
695.500	-30.101	0.100
695.600	-28.451	0.100
695.700	-32.595	0.100
695.800	-33.455	0.100
695.900	-21.449	0.100
696.000	-32.648	0.100
696.100	-39.023	0.100
696.200	-29.759	0.100
696.300	-9.738	0.100
696.400	-30.439	0.100
696.500	-33.147	0.100
696.600	-34.465	0.100
696.700	-28.637	0.100
696.800	-30.902	0.100
696.900	-24.698	0.100
697.000	-24.180	0.100
697.100	-20.790	0.100
697.200	-24.067	0.100
697.300	-22.190	0.100
697.400	-27.829	0.100
697.500	-29.907	0.100
697.600	-21.874	0.100
697.700	-26.059	0.100
697.800	-39.408	0.100
697.900	-23.986	0.100
698.000	-23.296	0.100
698.100	-21.184	0.100
698.200	-34.017	0.100
698.300	-25.017	0.100
698.400	-26.046	0.100
698.500	-27.361	0.100
698.600	-24.935	0.100
698.700	-29.788	0.100
698.800	-21.797	0.100
698.900	-34.160	0.100
699.000	-30.755	0.100
699.100	-22.704	0.100
699.200	-23.297	0.100
699.300	-20.008	0.100
699.400	-28.528	0.100
699.500	-26.397	0.100
699.600	-20.742	0.100
699.700	-22.346	0.100
699.800	-34.873	0.100
699.900	-23.032	0.100
700.000	-25.992	0.100
700.100	-20.667	0.100
700.200	-24.856	0.100
700.300	-29.910	0.100
700.400	-35.554	0.100
700.500	-29.739	0.100
700.600	-13.653	0.100
700.700	-12.112	0.100
700.800	-15.913	0.100
700.900	-25.626	0.100
701.000	-29.600	0.100
701.100	-31.294	0.100
701.200	-37.413	0.100
701.300	-27.074	0.100
701.400	-20.851	0.100
701.500	-20.874	0.100
701.600	-20.390	0.100
701.700	-27.359	0.100
701.800	-25.012	0.100
701.900	-19.010	0.100
702.000	-30.299	0.100
702.100	-31.646	0.100
702.200	-28.333	0.100
702.300	-25.807	0.100
702.400	-20.178	0.100
702.500	-31.944	0.100
702.600	-33.942	0.100
702.700	-16.496	0.100
702.800	-24.344	0.100
702.900	-31.605	0.100
703.000	-20.631	0.100
703.100	-15.323	0.100
703.200	-20.813	0.100
703.300	-23.054	0.100
703.400	-25.009	0.100
703.500	-28.849	0.100
703.600	-25.949	0.100
703.700	-32.230	0.100
703.800	-30.026	0.100
703.900	-37.512	0.100
704.000	-24.129	0.100
704.100	-24.359	0.100
704.200	-32.175	0.100
704.300	-21.272	0.100
704.400	-38.389	0.100
704.500	-16.971	0.100
704.600	-33.553	0.100
704.700	-42.068	0.100
704.800	-39.664	0.100
704.900	-24.955	0.100
705.000	-37.551	0.100
705.100	-29.735	0.100
705.200	-35.147	0.100
705.300	-22.080	0.100
705.400	-27.616	0.100
705.500	-25.392	0.100
705.600	-35.218	0.100
705.700	-45.736	0.100
705.800	-30.517	0.100
705.900	-27.356	0.100
706.000	-32.175	0.100
706.100	-26.137	0.100
706.200	-32.482	0.100
706.300	-20.572	0.100
706.400	-31.570	0.100
706.500	-31.921	0.100
706.600	-36.294	0.100
706.700	-35.194	0.100
706.800	-36.209	0.100
706.900	-25.836	0.100
707.000	-24.333	0.100
707.100	-30.843	0.100
707.200	-33.995	0.100
707.300	-36.681	0.100
707.400	-34.096	0.100
707.500	-30.726	0.100
707.600	-31.422	0.100
707.700	-20.402	0.100
707.800	-22.915	0.100
707.900	-33.223	0.100
708.000	-38.554	0.100
708.100	-30.767	0.100
708.200	-32.047	0.100
708.300	-30.186	0.100
708.400	-32.879	0.100
708.500	-33.076	0.100
708.600	-22.697	0.100
708.700	-33.178	0.100
708.800	-30.839	0.100
708.900	-33.166	0.100
709.000	-39.481	0.100
709.100	-30.556	0.100
709.200	-30.423	0.100
709.300	-33.540	0.100
709.400	-38.432	0.100
709.500	-36.759	0.100
709.600	-18.528	0.100
709.700	-40.182	0.100
709.800	-29.241	0.100
709.900	-34.472	0.100
710.000	-29.915	0.100
710.100	-44.387	0.100
710.200	-33.897	0.100
710.300	-19.714	0.100
710.400	-33.063	0.100
710.500	-43.820	0.100
710.600	-25.409	0.100
710.700	-50.058	0.100
710.800	-37.926	0.100
710.900	-30.909	0.100
711.000	-42.133	0.100
711.100	-44.400	0.100
711.200	-33.493	0.100
711.300	-33.476	0.100
711.400	-24.285	0.100
711.500	-30.802	0.100
711.600	-25.322	0.100
711.700	-32.542	0.100
711.800	-35.451	0.100
711.900	-29.204	0.100
712.000	-25.784	0.100
712.100	-29.633	0.100
712.200	-38.508	0.100
712.300	-26.977	0.100
712.400	-29.408	0.100
712.500	-45.496	0.100
712.600	-41.154	0.100
712.700	-32.989	0.100
712.800	-29.332	0.100
712.900	-30.368	0.100
713.000	-20.918	0.100
713.100	-37.098	0.100
713.200	-35.941	0.100
713.300	-31.178	0.100
713.400	-41.816	0.100
713.500	-37.164	0.100
713.600	-24.218	0.100
713.700	-42.663	0.100
713.800	-30.535	0.100
713.900	-35.833	0.100
714.000	-46.006	0.100
714.100	-45.781	0.100
714.200	-31.807	0.100
714.300	-40.797	0.100
714.400	-43.735	0.100
714.500	-31.708	0.100
714.600	-36.893	0.100
714.700	-34.357	0.100
714.800	-34.103	0.100
714.900	-35.518	0.100
715.000	-41.913	0.100
715.100	-30.243	0.100
715.200	-34.598	0.100
715.300	-31.433	0.100
715.400	-36.120	0.100
715.500	-46.024	0.100
715.600	-23.275	0.100
715.700	-29.396	0.100
715.800	-43.464	0.100
715.900	-30.353	0.100
716.000	-46.668	0.100
716.100	-37.959	0.100
716.200	-42.565	0.100
716.300	-27.660	0.100
716.400	-47.788	0.100
716.500	-44.137	0.100
716.600	-30.705	0.100
716.700	-30.357	0.100
716.800	-36.387	0.100
716.900	-33.830	0.100
717.000	-33.647	0.100
717.100	-20.471	0.100
717.200	-37.791	0.100
717.300	-36.811	0.100
717.400	-40.455	0.100
717.500	-35.290	0.100
717.600	-35.847	0.100
717.700	-41.017	0.100
717.800	-38.928	0.100
717.900	-47.166	0.100
718.000	-41.867	0.100
718.100	-30.708	0.100
718.200	-32.726	0.100
718.300	-41.885	0.100
718.400	-44.244	0.100
718.500	-26.909	0.100
718.600	-49.627	0.100
718.700	-42.760	0.100
718.800	-26.621	0.100
718.900	-38.234	0.100
719.000	-56.126	0.100
719.100	-31.638	0.100
719.200	-35.930	0.100
719.300	-36.346	0.100
719.400	-43.167	0.100
719.500	-36.738	0.100
719.600	-43.248	0.100
719.700	-41.387	0.100
719.800	-36.558	0.100
719.900	-35.891	0.100
720.000	-30.407	0.100
720.100	-48.162	0.100
720.200	-45.454	0.100
720.300	-41.117	0.100
720.400	-57.604	0.100
720.500	-37.793	0.100
720.600	-35.967	0.100
720.700	-30.269	0.100
720.800	-47.024	0.100
720.900	-40.580	0.100
721.000	-42.259	0.100
721.100	-39.704	0.100
721.200	-48.543	0.100
721.300	-42.991	0.100
721.400	-47.085	0.100
721.500	-25.807	0.100
721.600	-40.669	0.100
721.700	-41.576	0.100
721.800	-49.939	0.100
721.900	-40.778	0.100
722.000	-40.408	0.100
722.100	-47.969	0.100
722.200	-49.307	0.100
722.300	-36.638	0.100
722.400	-34.627	0.100
722.500	-47.419	0.100
722.600	-32.045	0.100
722.700	-40.665	0.100
722.800	-52.180	0.100
722.900	-49.169	0.100
723.000	-40.800	0.100
723.100	-27.940	0.100
723.200	-41.754	0.100
723.300	-44.639	0.100
723.400	-33.555	0.100
723.500	-44.184	0.100
723.600	-51.697	0.100
723.700	-38.759	0.100
723.800	-47.864	0.100
723.900	-43.570	0.100
724.000	-44.677	0.100
724.100	-34.699	0.100
724.200	-41.059	0.100
724.300	-43.012	0.100
724.400	-50.408	0.100
724.500	-43.983	0.100
724.600	-50.445	0.100
724.700	-35.926	0.100
724.800	-53.483	0.100
724.900	-39.704	0.100
725.000	-47.673	0.100
725.100	-44.521	0.100
725.200	-57.746	0.100
725.300	-48.708	0.100
725.400	-43.594	0.100
725.500	-34.236	0.100
725.600	-38.962	0.100
725.700	-44.796	0.100
725.800	-50.093	0.100
725.900	-39.315	0.100
726.000	-41.205	0.100
726.100	-34.044	0.100
726.200	-42.996	0.100
726.300	-48.766	0.100
726.400	-47.251	0.100
726.500	-53.789	0.100
726.600	-47.352	0.100
726.700	-44.883	0.100
726.800	-40.840	0.100
726.900	-41.991	0.100
727.000	-43.041	0.100
727.100	-42.864	0.100
727.200	-54.152	0.100
727.300	-46.627	0.100
727.400	-50.298	0.100
727.500	-45.454	0.100
727.600	-39.365	0.100
727.700	-41.497	0.100
727.800	-45.263	0.100
727.900	-40.629	0.100
728.000	-33.983	0.100
728.100	-45.985	0.100
728.200	-32.839	0.100
728.300	-46.198	0.100
728.400	-57.631	0.100
728.500	-39.030	0.100
728.600	-50.425	0.100
728.700	-39.196	0.100
728.800	-40.216	0.100
728.900	-45.406	0.100
729.000	-44.075	0.100
729.100	-34.707	0.100
729.200	-54.103	0.100
729.300	-38.164	0.100
729.400	-45.528	0.100
729.500	-33.806	0.100
729.600	-37.018	0.100
729.700	-39.426	0.100
729.800	-44.632	0.100
729.900	-49.812	0.100
730.000	-38.726	0.100
730.100	-48.015	0.100
730.200	-45.737	0.100
730.300	-37.489	0.100
730.400	-42.467	0.100
730.500	-41.770	0.100
730.600	-36.300	0.100
730.700	-49.354	0.100
730.800	-40.376	0.100
730.900	-42.974	0.100
731.000	-44.590	0.100
731.100	-37.994	0.100
731.200	-48.946	0.100
731.300	-41.302	0.100
731.400	-40.948	0.100
731.500	-46.939	0.100
731.600	-49.219	0.100
731.700	-50.926	0.100
731.800	-28.788	0.100
731.900	-50.056	0.100
732.000	-40.939	0.100
732.100	-38.861	0.100
732.200	-46.426	0.100
732.300	-39.114	0.100
732.400	-42.310	0.100
732.500	-38.855	0.100
732.600	-49.201	0.100
732.700	-58.237	0.100
732.800	-28.444	0.100
732.900	-51.245	0.100
733.000	-41.286	0.100
733.100	-40.966	0.100
733.200	-50.492	0.100
733.300	-38.400	0.100
733.400	-41.697	0.100
733.500	-31.310	0.100
733.600	-42.840	0.100
733.700	-34.861	0.100
733.800	-42.660	0.100
733.900	-40.439	0.100
734.000	-33.857	0.100
734.100	-51.048	0.100
734.200	-48.169	0.100
734.300	-42.333	0.100
734.400	-35.898	0.100
734.500	-39.099	0.100
734.600	-50.291	0.100
734.700	-45.194	0.100
734.800	-35.292	0.100
734.900	-43.032	0.100
735.000	-53.536	0.100
735.100	-48.865	0.100
735.200	-38.578	0.100
735.300	-41.186	0.100
735.400	-40.058	0.100
735.500	-38.357	0.100
735.600	-39.881	0.100
735.700	-37.503	0.100
735.800	-44.515	0.100
735.900	-42.362	0.100
736.000	-48.475	0.100
736.100	-36.769	0.100
736.200	-37.299	0.100
736.300	-41.589	0.100
736.400	-42.728	0.100
736.500	-39.543	0.100
736.600	-47.703	0.100
736.700	-44.425	0.100
736.800	-42.251	0.100
736.900	-37.977	0.100
737.000	-41.753	0.100
737.100	-37.371	0.100
737.200	-46.911	0.100
737.300	-44.031	0.100
737.400	-41.518	0.100
737.500	-43.123	0.100
737.600	-43.610	0.100
737.700	-44.608	0.100
737.800	-36.932	0.100
737.900	-51.304	0.100
738.000	-30.787	0.100
738.100	-38.407	0.100
738.200	-52.470	0.100
738.300	-43.216	0.100
738.400	-50.134	0.100
738.500	-44.626	0.100
738.600	-49.547	0.100
738.700	-38.002	0.100
738.800	-45.166	0.100
738.900	-37.799	0.100
739.000	-33.347	0.100
739.100	-43.609	0.100
739.200	-39.319	0.100
739.300	-33.293	0.100
739.400	-45.773	0.100
739.500	-40.885	0.100
739.600	-39.853	0.100
739.700	-36.986	0.100
739.800	-41.074	0.100
739.900	-28.378	0.100
740.000	-45.247	0.100
740.100	-48.496	0.100
740.200	-50.417	0.100
740.300	-29.993	0.100
740.400	-54.926	0.100
740.500	-52.667	0.100
740.600	-23.416	0.100
740.700	-41.964	0.100
740.800	-46.246	0.100
740.900	-40.052	0.100
741.000	-40.065	0.100
741.100	-41.630	0.100
741.200	-33.817	0.100
741.300	-30.365	0.100
741.400	-35.777	0.100
741.500	-54.570	0.100
741.600	-33.118	0.100
741.700	-48.798	0.100
741.800	-41.666	0.100
741.900	-32.824	0.100
742.000	-37.158	0.100
742.100	-44.653	0.100
742.200	-41.797	0.100
742.300	-35.781	0.100
742.400	-40.963	0.100
742.500	-47.617	0.100
742.600	-34.605	0.100
742.700	-37.640	0.100
742.800	-36.693	0.100
742.900	-41.849	0.100
743.000	-38.546	0.100
743.100	-46.133	0.100
743.200	-39.984	0.100
743.300	-26.861	0.100
743.400	-34.362	0.100
743.500	-47.522	0.100
743.600	-49.766	0.100
743.700	-47.257	0.100
743.800	-33.694	0.100
743.900	-35.632	0.100
744.000	-32.326	0.100
744.100	-38.895	0.100
744.200	-45.037	0.100
744.300	-48.071	0.100
744.400	-36.358	0.100
744.500	-33.245	0.100
744.600	-40.946	0.100
744.700	-42.708	0.100
744.800	-46.027	0.100
744.900	-41.760	0.100
745.000	-28.048	0.100
745.100	-35.761	0.100
745.200	-39.308	0.100
745.300	-45.149	0.100
745.400	-33.367	0.100
745.500	-43.696	0.100
745.600	-37.445	0.100
745.700	-44.886	0.100
745.800	-45.630	0.100
745.900	-45.819	0.100
746.000	-44.288	0.100
746.100	-41.169	0.100
746.200	-35.387	0.100
746.300	-33.958	0.100
746.400	-36.093	0.100
746.500	-34.401	0.100
746.600	-25.283	0.100
746.700	-34.425	0.100
746.800	-33.867	0.100
746.900	-28.263	0.100
747.000	-43.594	0.100
747.100	-42.695	0.100
747.200	-34.161	0.100
747.300	-45.673	0.100
747.400	-25.717	0.100
747.500	-37.281	0.100
747.600	-46.428	0.100
747.700	-39.932	0.100
747.800	-38.201	0.100
747.900	-34.769	0.100
748.000	-48.933	0.100
748.100	-41.298	0.100
748.200	-35.573	0.100
748.300	-38.785	0.100
748.400	-38.936	0.100
748.500	-41.719	0.100
748.600	-42.733	0.100
748.700	-31.661	0.100
748.800	-45.141	0.100
748.900	-37.573	0.100
749.000	-38.266	0.100
749.100	-30.126	0.100
749.200	-46.497	0.100
749.300	-39.749	0.100
749.400	-37.605	0.100
749.500	-29.205	0.100
749.600	-34.756	0.100
749.700	-38.357	0.100
749.800	-40.785	0.100
749.900	-45.199	0.100
750.000	-36.026	0.100
750.100	-32.049	0.100
750.200	-31.695	0.100
750.300	-37.862	0.100
750.400	-18.848	0.100
750.500	-35.519	0.100
750.600	-49.946	0.100
750.700	-49.871	0.100
750.800	-41.104	0.100
750.900	-42.012	0.100
751.000	-29.829	0.100
751.100	-42.692	0.100
751.200	-36.424	0.100
751.300	-41.052	0.100
751.400	-30.521	0.100
751.500	-40.868	0.100
751.600	-36.629	0.100
751.700	-27.432	0.100
751.800	-37.846	0.100
751.900	-39.356	0.100
752.000	-35.508	0.100
752.100	-36.471	0.100
752.200	-30.627	0.100
752.300	-31.909	0.100
752.400	-43.979	0.100
752.500	-37.695	0.100
752.600	-39.284	0.100
752.700	-28.917	0.100
752.800	-39.230	0.100
752.900	-47.342	0.100
753.000	-35.906	0.100
753.100	-28.471	0.100
753.200	-32.402	0.100
753.300	-32.081	0.100
753.400	-35.675	0.100
753.500	-38.120	0.100
753.600	-39.048	0.100
753.700	-37.052	0.100
753.800	-43.203	0.100
753.900	-44.235	0.100
754.000	-33.791	0.100
754.100	-38.071	0.100
754.200	-27.251	0.100
754.300	-37.102	0.100
754.400	-34.519	0.100
754.500	-41.041	0.100
754.600	-38.011	0.100
754.700	-29.903	0.100
754.800	-37.255	0.100
754.900	-43.173	0.100
755.000	-27.082	0.100
755.100	-31.707	0.100
755.200	-22.203	0.100
755.300	-41.002	0.100
755.400	-35.740	0.100
755.500	-37.939	0.100
755.600	-35.277	0.100
755.700	-29.397	0.100
755.800	-32.674	0.100
755.900	-49.746	0.100
756.000	-30.193	0.100
756.100	-33.135	0.100
756.200	-35.547	0.100
756.300	-38.283	0.100
756.400	-42.458	0.100
756.500	-31.799	0.100
756.600	-34.369	0.100
756.700	-29.129	0.100
756.800	-40.117	0.100
756.900	-45.020	0.100
757.000	-42.149	0.100
757.100	-28.064	0.100
757.200	-29.199	0.100
757.300	-36.348	0.100
757.400	-32.924	0.100
757.500	-32.856	0.100
757.600	-40.748	0.100
757.700	-33.850	0.100
757.800	-29.177	0.100
757.900	-23.936	0.100
758.000	-33.881	0.100
758.100	-26.078	0.100
758.200	-38.937	0.100
758.300	-37.520	0.100
758.400	-40.178	0.100
758.500	-31.576	0.100
758.600	-35.752	0.100
758.700	-30.328	0.100
758.800	-37.250	0.100
758.900	-37.166	0.100
759.000	-32.550	0.100
759.100	-28.499	0.100
759.200	-26.081	0.100
759.300	-26.095	0.100
759.400	-38.405	0.100
759.500	-38.812	0.100
759.600	-45.937	0.100
759.700	-36.538	0.100
759.800	-33.217	0.100
759.900	-33.059	0.100
760.000	-21.133	0.100
760.100	-30.529	0.100
760.200	-44.905	0.100
760.300	-32.010	0.100
760.400	-37.467	0.100
760.500	-36.651	0.100
760.600	-31.288	0.100
760.700	-30.825	0.100
760.800	-17.632	0.100
760.900	-41.307	0.100
761.000	-51.245	0.100
761.100	-39.780	0.100
761.200	-36.268	0.100
761.300	-34.300	0.100
761.400	-38.542	0.100
761.500	-34.343	0.100
761.600	-27.377	0.100
761.700	-21.737	0.100
761.800	-28.120	0.100
761.900	-34.649	0.100
762.000	-43.062	0.100
762.100	-32.324	0.100
762.200	-31.253	0.100
762.300	-27.484	0.100
762.400	-31.759	0.100
762.500	-37.812	0.100
762.600	-43.881	0.100
762.700	-40.602	0.100
762.800	-28.141	0.100
762.900	-29.058	0.100
763.000	-31.958	0.100
763.100	-43.719	0.100
763.200	-26.710	0.100
763.300	-30.755	0.100
763.400	-19.971	0.100
763.500	-41.961	0.100
763.600	-26.522	0.100
763.700	-27.889	0.100
763.800	-26.717	0.100
763.900	-29.805	0.100
764.000	-29.669	0.100
764.100	-34.212	0.100
764.200	-32.663	0.100
764.300	-29.588	0.100
764.400	-27.427	0.100
764.500	-32.696	0.100
764.600	-38.910	0.100
764.700	-22.486	0.100
764.800	-31.842	0.100
764.900	-38.950	0.100
765.000	-27.829	0.100
765.100	-37.489	0.100
765.200	-41.356	0.100
765.300	-31.625	0.100
765.400	-30.361	0.100
765.500	-32.653	0.100
765.600	-27.313	0.100
765.700	-25.471	0.100
765.800	-27.401	0.100
765.900	-20.554	0.100
766.000	-30.799	0.100
766.100	-40.036	0.100
766.200	-38.782	0.100
766.300	-27.278	0.100
766.400	-35.605	0.100
766.500	-30.696	0.100
766.600	-34.772	0.100
766.700	-37.146	0.100
766.800	-24.235	0.100
766.900	-18.817	0.100
767.000	-22.141	0.100
767.100	-43.470	0.100
767.200	-26.405	0.100
767.300	-32.711	0.100
767.400	-28.486	0.100
767.500	-35.567	0.100
767.600	-37.069	0.100
767.700	-31.512	0.100
767.800	-23.604	0.100
767.900	-26.824	0.100
768.000	-41.745	0.100
768.100	-36.185	0.100
768.200	-28.553	0.100
768.300	-37.143	0.100
768.400	-41.417	0.100
768.500	-38.789	0.100
768.600	-33.336	0.100
768.700	-39.230	0.100
768.800	-28.717	0.100
768.900	-34.023	0.100
769.000	-32.507	0.100
769.100	-32.707	0.100
769.200	-32.088	0.100
769.300	-24.999	0.100
769.400	-31.396	0.100
769.500	-26.059	0.100
769.600	-35.241	0.100
769.700	-18.584	0.100
769.800	-24.543	0.100
769.900	-40.962	0.100
770.000	-33.587	0.100
770.100	-41.202	0.100
770.200	-30.402	0.100
770.300	-26.783	0.100
770.400	-23.891	0.100
770.500	-33.935	0.100
770.600	-26.114	0.100
770.700	-33.950	0.100
770.800	-35.351	0.100
770.900	-19.110	0.100
771.000	-34.937	0.100
771.100	-28.279	0.100
771.200	-36.161	0.100
771.300	-31.340	0.100
771.400	-43.918	0.100
771.500	-24.369	0.100
771.600	-29.055	0.100
771.700	-27.947	0.100
771.800	-27.290	0.100
771.900	-38.503	0.100
772.000	-25.763	0.100
772.100	-25.883	0.100
772.200	-31.880	0.100
772.300	-32.425	0.100
772.400	-24.351	0.100
772.500	-25.845	0.100
772.600	-22.893	0.100
772.700	-37.261	0.100
772.800	-26.852	0.100
772.900	-31.653	0.100
773.000	-36.660	0.100
773.100	-26.717	0.100
773.200	-18.548	0.100
773.300	-34.198	0.100
773.400	-31.110	0.100
773.500	-34.171	0.100
773.600	-16.082	0.100
773.700	-25.209	0.100
773.800	-30.381	0.100
773.900	-25.697	0.100
774.000	-34.463	0.100
774.100	-23.021	0.100
774.200	-39.561	0.100
774.300	-46.826	0.100
774.400	-23.273	0.100
774.500	-21.439	0.100
774.600	-38.909	0.100
774.700	-37.308	0.100
774.800	-27.958	0.100
774.900	-26.145	0.100
775.000	-32.592	0.100
775.100	-24.320	0.100
775.200	-29.532	0.100
775.300	-25.112	0.100
775.400	-31.776	0.100
775.500	-37.779	0.100
775.600	-35.802	0.100
775.700	-21.944	0.100
775.800	-36.226	0.100
775.900	-26.605	0.100
776.000	-25.811	0.100
776.100	-21.710	0.100
776.200	-29.409	0.100
776.300	-26.998	0.100
776.400	-29.248	0.100
776.500	-33.176	0.100
776.600	-26.935	0.100
776.700	-23.716	0.100
776.800	-31.172	0.100
776.900	-37.162	0.100
777.000	-36.351	0.100
777.100	-26.920	0.100
777.200	-27.808	0.100
777.300	-30.708	0.100
777.400	-24.071	0.100
777.500	-38.638	0.100
777.600	-37.391	0.100
777.700	-35.429	0.100
777.800	-33.748	0.100
777.900	-20.459	0.100
778.000	-22.289	0.100
778.100	-24.782	0.100
778.200	-26.857	0.100
778.300	-31.865	0.100
778.400	-24.189	0.100
778.500	-33.822	0.100
778.600	-21.161	0.100
778.700	-36.835	0.100
778.800	-17.164	0.100
778.900	-39.826	0.100
779.000	-25.184	0.100
779.100	-19.677	0.100
779.200	-41.034	0.100
779.300	-30.837	0.100
779.400	-36.830	0.100
779.500	-31.152	0.100
779.600	-36.421	0.100
779.700	-30.697	0.100
779.800	-20.730	0.100
779.900	-31.705	0.100
780.000	-17.565	0.100
780.100	-24.349	0.100
780.200	-23.033	0.100
780.300	-24.579	0.100
780.400	-11.345	0.100
780.500	-18.799	0.100
780.600	-4.021	0.100
780.700	-6.291	0.100
780.800	6.508	0.100
780.900	15.509	0.100
781.000	7.614	0.100
781.100	7.603	0.100
781.200	8.922	0.100
781.300	6.248	0.100
781.400	19.123	0.100
781.500	21.814	0.100
781.600	15.810	0.100
781.700	28.023	0.100
781.800	31.155	0.100
781.900	26.563	0.100
782.000	29.623	0.100
782.100	29.888	0.100
782.200	28.127	0.100
782.300	24.724	0.100
782.400	32.293	0.100
782.500	28.587	0.100
782.600	33.838	0.100
782.700	23.372	0.100
782.800	30.956	0.100
782.900	28.290	0.100
783.000	30.401	0.100
783.100	30.487	0.100
783.200	43.264	0.100
783.300	45.404	0.100
783.400	29.592	0.100
783.500	29.248	0.100
783.600	40.961	0.100
783.700	33.941	0.100
783.800	34.172	0.100
783.900	28.943	0.100
784.000	38.161	0.100
784.100	31.610	0.100
784.200	32.427	0.100
784.300	28.384	0.100
784.400	43.080	0.100
784.500	32.184	0.100
784.600	30.306	0.100
784.700	40.161	0.100
784.800	38.858	0.100
784.900	42.621	0.100
785.000	21.488	0.100
785.100	27.176	0.100
785.200	32.570	0.100
785.300	38.646	0.100
785.400	29.832	0.100
785.500	29.531	0.100
785.600	33.849	0.100
785.700	22.979	0.100
785.800	33.740	0.100
785.900	40.327	0.100
786.000	42.266	0.100
786.100	21.613	0.100
786.200	25.220	0.100
786.300	26.027	0.100
786.400	32.171	0.100
786.500	36.915	0.100
786.600	34.608	0.100
786.700	33.720	0.100
786.800	19.017	0.100
786.900	24.734	0.100
787.000	27.399	0.100
787.100	34.522	0.100
787.200	28.343	0.100
787.300	29.852	0.100
787.400	39.314	0.100
787.500	17.961	0.100
787.600	29.111	0.100
787.700	28.348	0.100
787.800	17.820	0.100
787.900	30.891	0.100
788.000	24.450	0.100
788.100	34.066	0.100
788.200	16.665	0.100
788.300	24.081	0.100
788.400	30.330	0.100
788.500	32.312	0.100
788.600	26.046	0.100
788.700	24.703	0.100
788.800	36.738	0.100
788.900	26.944	0.100
789.000	31.216	0.100
789.100	33.397	0.100
789.200	37.054	0.100
789.300	37.804	0.100
789.400	30.889	0.100
789.500	40.338	0.100
789.600	37.363	0.100
789.700	28.661	0.100
789.800	29.771	0.100
789.900	21.736	0.100
790.000	23.199	0.100
790.100	32.675	0.100
790.200	25.784	0.100
790.300	29.906	0.100
790.400	27.914	0.100
790.500	30.641	0.100
790.600	44.553	0.100
790.700	33.196	0.100
790.800	28.257	0.100
790.900	32.667	0.100
791.000	37.816	0.100
791.100	31.477	0.100
791.200	35.418	0.100
791.300	31.610	0.100
791.400	39.155	0.100
791.500	20.956	0.100
791.600	31.495	0.100
791.700	22.069	0.100
791.800	42.920	0.100
791.900	31.793	0.100
792.000	29.788	0.100
792.100	24.845	0.100
792.200	35.992	0.100
792.300	28.309	0.100
792.400	34.311	0.100
792.500	25.005	0.100
792.600	37.855	0.100
792.700	33.719	0.100
792.800	42.917	0.100
792.900	31.838	0.100
793.000	30.225	0.100
793.100	25.804	0.100
793.200	35.356	0.100
793.300	33.691	0.100
793.400	30.886	0.100
793.500	36.612	0.100
793.600	35.317	0.100
793.700	32.113	0.100
793.800	31.394	0.100
793.900	37.953	0.100
794.000	21.496	0.100
794.100	39.965	0.100
794.200	39.959	0.100
794.300	41.233	0.100
794.400	31.672	0.100
794.500	28.576	0.100
794.600	36.834	0.100
794.700	35.010	0.100
794.800	33.088	0.100
794.900	40.070	0.100
795.000	32.405	0.100
795.100	43.509	0.100
795.200	32.207	0.100
795.300	41.307	0.100
795.400	35.152	0.100
795.500	54.022	0.100
795.600	25.153	0.100
795.700	44.516	0.100
795.800	48.133	0.100
795.900	39.729	0.100
796.000	41.488	0.100
796.100	44.715	0.100
796.200	35.183	0.100
796.300	39.952	0.100
796.400	37.801	0.100
796.500	39.120	0.100
796.600	38.346	0.100
796.700	24.488	0.100
796.800	50.942	0.100
796.900	29.138	0.100
797.000	39.707	0.100
797.100	42.079	0.100
797.200	42.929	0.100
797.300	45.313	0.100
797.400	45.128	0.100
797.500	37.208	0.100
797.600	48.204	0.100
797.700	46.378	0.100
797.800	48.440	0.100
797.900	52.335	0.100
798.000	52.104	0.100
798.100	50.293	0.100
798.200	41.521	0.100
798.300	56.352	0.100
798.400	54.867	0.100
798.500	48.235	0.100
798.600	48.637	0.100
798.700	45.161	0.100
798.800	48.434	0.100
798.900	46.303	0.100
799.000	49.152	0.100
799.100	32.354	0.100
799.200	42.335	0.100
799.300	63.803	0.100
799.400	59.453	0.100
799.500	51.481	0.100
799.600	46.342	0.100
799.700	38.607	0.100
799.800	66.893	0.100
799.900	57.781	0.100
800.000	50.545	0.100
