time /s	I /nA	E /V
0.100	-33.230	0.100
0.200	-31.105	0.100
0.300	-24.373	0.100
0.400	-15.525	0.100
0.500	-14.880	0.100
0.600	-23.886	0.100
0.700	-9.478	0.100
0.800	-20.390	0.100
0.900	-23.255	0.100
1.000	-11.089	0.100
1.100	-24.004	0.100
1.200	-25.222	0.100
1.300	-13.573	0.100
1.400	-19.507	0.100
1.500	-26.645	0.100
1.600	-16.968	0.100
1.700	-16.473	0.100
1.800	-25.079	0.100
1.900	-11.543	0.100
2.000	-22.184	0.100
2.100	-24.370	0.100
2.200	-27.229	0.100
2.300	-21.537	0.100
2.400	-24.437	0.100
2.500	-27.934	0.100
2.600	-13.503	0.100
2.700	-12.019	0.100
2.800	-20.410	0.100
2.900	-18.075	0.100
3.000	-22.240	0.100
3.100	-17.834	0.100
3.200	-28.373	0.100
3.300	-14.437	0.100
3.400	-19.387	0.100
3.500	-18.477	0.100
3.600	-22.633	0.100
3.700	-28.578	0.100
3.800	-22.716	0.100
3.900	-21.349	0.100
4.000	-12.454	0.100
4.100	-20.855	0.100
4.200	-22.719	0.100
4.300	-25.776	0.100
4.400	-22.716	0.100
4.500	-22.136	0.100
4.600	-18.654	0.100
4.700	-12.591	0.100
4.800	-17.280	0.100
4.900	-28.008	0.100
5.000	-21.432	0.100
5.100	-7.645	0.100
5.200	-28.012	0.100
5.300	-24.520	0.100
5.400	-25.888	0.100
5.500	-22.076	0.100
5.600	-23.507	0.100
5.700	-21.215	0.100
5.800	-31.047	0.100
5.900	-30.418	0.100
6.000	-16.389	0.100
6.100	-26.460	0.100
6.200	-13.286	0.100
6.300	-15.444	0.100
6.400	-20.632	0.100
6.500	-15.887	0.100
6.600	-13.398	0.100
6.700	-9.973	0.100
6.800	-23.125	0.100
6.900	-9.738	0.100
7.000	-29.373	0.100
7.100	-25.658	0.100
7.200	-21.662	0.100
7.300	-12.174	0.100
7.400	-22.111	0.100
7.500	-15.033	0.100
7.600	-11.814	0.100
7.700	-19.731	0.100
7.800	-23.884	0.100
7.900	-14.390	0.100
8.000	-15.769	0.100
8.100	-21.976	0.100
8.200	-24.817	0.100
8.300	-26.198	0.100
8.400	-20.662	0.100
8.500	-23.775	0.100
8.600	-18.464	0.100
8.700	-23.459	0.100
8.800	-21.188	0.100
8.900	-13.363	0.100
9.000	-13.889	0.100
9.100	-26.526	0.100
9.200	-27.822	0.100
9.300	-8.596	0.100
9.400	-9.279	0.100
9.500	-29.740	0.100
9.600	-16.643	0.100
9.700	-28.333	0.100
9.800	-23.167	0.100
9.900	-11.363	0.100
10.000	-11.903	0.100
10.100	-15.316	0.100
10.200	-28.790	0.100
10.300	-23.476	0.100
10.400	-21.243	0.100
10.500	-13.719	0.100
10.600	-12.786	0.100
10.700	-24.970	0.100
10.800	-19.084	0.100
10.900	-15.749	0.100
11.000	-25.389	0.100
11.100	-9.604	0.100
11.200	-19.854	0.100
11.300	-16.664	0.100
11.400	-19.998	0.100
11.500	-13.277	0.100
11.600	-21.261	0.100
11.700	-25.973	0.100
11.800	-20.404	0.100
11.900	-14.670	0.100
12.000	-26.028	0.100
12.100	-26.537	0.100
12.200	-28.847	0.100
12.300	-10.955	0.100
12.400	-21.304	0.100
12.500	-18.858	0.100
12.600	-17.068	0.100
12.700	-22.574	0.100
12.800	-12.878	0.100
12.900	-23.029	0.100
13.000	-26.733	0.100
13.100	-24.748	0.100
13.200	-14.941	0.100
13.300	-24.233	0.100
13.400	-28.320	0.100
13.500	-19.562	0.100
13.600	-9.789	0.100
13.700	-22.545	0.100
13.800	-12.276	0.100
13.900	-13.298	0.100
14.000	-16.445	0.100
14.100	-28.973	0.100
14.200	-20.586	0.100
14.300	-28.609	0.100
14.400	-21.803	0.100
14.500	-21.199	0.100
14.600	-23.171	0.100
14.700	-28.638	0.100
14.800	-16.884	0.100
14.900	-20.120	0.100
15.000	-24.998	0.100
15.100	-13.142	0.100
15.200	-21.135	0.100
15.300	-23.516	0.100
15.400	-22.629	0.100
15.500	-11.445	0.100
15.600	-15.789	0.100
15.700	-29.026	0.100
15.800	-20.591	0.100
15.900	-15.752	0.100
16.000	-14.952	0.100
16.100	-18.559	0.100
16.200	-23.121	0.100
16.300	-30.557	0.100
16.400	-13.507	0.100
16.500	-11.901	0.100
16.600	-22.395	0.100
16.700	-24.728	0.100
16.800	-12.917	0.100
16.900	-26.500	0.100
17.000	-37.288	0.100
17.100	-12.606	0.100
17.200	-20.171	0.100
17.300	-7.872	0.100
17.400	-14.541	0.100
17.500	-22.068	0.100
17.600	-18.572	0.100
17.700	-20.954	0.100
17.800	-17.552	0.100
17.900	-18.330	0.100
18.000	-11.601	0.100
18.100	-8.726	0.100
18.200	-20.210	0.100
18.300	-19.842	0.100
18.400	-19.225	0.100
18.500	-18.693	0.100
18.600	-28.569	0.100
18.700	-23.517	0.100
18.800	-17.010	0.100
18.900	-15.102	0.100
19.000	-25.184	0.100
19.100	-24.035	0.100
19.200	-22.968	0.100
19.300	-23.435	0.100
19.400	-15.174	0.100
19.500	-18.770	0.100
19.600	-25.158	0.100
19.700	-17.667	0.100
19.800	-17.681	0.100
19.900	-14.953	0.100
20.000	-15.002	0.100
20.100	-32.540	0.100
20.200	-23.378	0.100
20.300	-27.976	0.100
20.400	-20.432	0.100
20.500	-13.118	0.100
20.600	-20.027	0.100
20.700	-18.506	0.100
20.800	-28.713	0.100
20.900	-26.873	0.100
21.000	-6.912	0.100
21.100	-10.896	0.100
21.200	-32.825	0.100
21.300	-21.091	0.100
21.400	-18.544	0.100
21.500	-19.006	0.100
21.600	-28.361	0.100
21.700	-28.883	0.100
21.800	-19.972	0.100
21.900	-11.974	0.100
22.000	-25.007	0.100
22.100	-20.648	0.100
22.200	-10.337	0.100
22.300	-15.646	0.100
22.400	-16.222	0.100
22.500	-19.263	0.100
22.600	-20.244	0.100
22.700	-10.184	0.100
22.800	-28.544	0.100
22.900	-18.250	0.100
23.000	-22.403	0.100
23.100	-14.470	0.100
23.200	-27.753	0.100
23.300	-22.494	0.100
23.400	-13.642	0.100
23.500	-9.369	0.100
23.600	-16.103	0.100
23.700	-27.621	0.100
23.800	-16.232	0.100
23.900	-10.467	0.100
24.000	-19.755	0.100
24.100	-22.901	0.100
24.200	-19.593	0.100
24.300	-25.698	0.100
24.400	-15.045	0.100
24.500	-12.969	0.100
24.600	-24.249	0.100
24.700	-17.775	0.100
24.800	-23.264	0.100
24.900	-20.792	0.100
25.000	-28.039	0.100
25.100	-19.432	0.100
25.200	-18.494	0.100
25.300	-24.789	0.100
25.400	-8.984	0.100
25.500	-17.130	0.100
25.600	-16.450	0.100
25.700	-14.259	0.100
25.800	-21.461	0.100
25.900	-21.783	0.100
26.000	-6.272	0.100
26.100	-19.277	0.100
26.200	-19.726	0.100
26.300	-13.226	0.100
26.400	-21.473	0.100
26.500	-22.984	0.100
26.600	-26.174	0.100
26.700	-18.894	0.100
26.800	-21.360	0.100
26.900	-26.016	0.100
27.000	-16.611	0.100
27.100	-20.386	0.100
27.200	-15.605	0.100
27.300	-15.922	0.100
27.400	-20.437	0.100
27.500	-26.983	0.100
27.600	-24.423	0.100
27.700	-20.387	0.100
27.800	-18.051	0.100
27.900	-3.394	0.100
28.000	-16.698	0.100
28.100	-26.494	0.100
28.200	-14.829	0.100
28.300	-19.411	0.100
28.400	-22.225	0.100
28.500	-18.961	0.100
28.600	-12.195	0.100
28.700	-24.180	0.100
28.800	-14.948	0.100
28.900	-16.953	0.100
29.000	-30.606	0.100
29.100	-26.075	0.100
29.200	-18.238	0.100
29.300	3.199	0.100
29.400	-16.635	0.100
29.500	-23.425	0.100
29.600	-19.074	0.100
29.700	-15.558	0.100
29.800	-19.152	0.100
29.900	-14.170	0.100
30.000	-10.184	0.100
30.100	-13.619	0.100
30.200	-9.639	0.100
30.300	-6.076	0.100
30.400	-5.418	0.100
30.500	-0.073	0.100
30.600	-3.140	0.100
30.700	-1.684	0.100
30.800	-5.229	0.100
30.900	-6.223	0.100
31.000	7.494	0.100
31.100	22.970	0.100
31.200	18.289	0.100
31.300	8.243	0.100
31.400	17.991	0.100
31.500	23.567	0.100
31.600	29.466	0.100
31.700	30.260	0.100
31.800	30.305	0.100
31.900	37.557	0.100
32.000	16.046	0.100
32.100	26.194	0.100
32.200	24.527	0.100
32.300	26.450	0.100
32.400	23.678	0.100
32.500	26.420	0.100
32.600	30.866	0.100
32.700	23.643	0.100
32.800	41.005	0.100
32.900	36.651	0.100
33.000	43.648	0.100
33.100	32.783	0.100
33.200	36.441	0.100
33.300	29.193	0.100
33.400	25.660	0.100
33.500	33.377	0.100
33.600	49.181	0.100
33.700	39.946	0.100
33.800	12.764	0.100
33.900	33.455	0.100
34.000	33.051	0.100
34.100	30.814	0.100
34.200	43.256	0.100
34.300	40.188	0.100
34.400	25.250	0.100
34.500	31.980	0.100
34.600	17.465	0.100
34.700	27.229	0.100
34.800	31.993	0.100
34.900	33.316	0.100
35.000	29.761	0.100
35.100	25.232	0.100
35.200	25.463	0.100
35.300	40.637	0.100
35.400	30.502	0.100
35.500	33.376	0.100
35.600	27.002	0.100
35.700	25.034	0.100
35.800	34.035	0.100
35.900	29.151	0.100
36.000	20.720	0.100
36.100	18.551	0.100
36.200	24.462	0.100
36.300	10.218	0.100
36.400	20.123	0.100
36.500	14.501	0.100
36.600	34.234	0.100
36.700	33.020	0.100
36.800	21.486	0.100
36.900	30.970	0.100
37.000	23.544	0.100
37.100	16.997	0.100
37.200	16.744	0.100
37.300	26.143	0.100
37.400	24.475	0.100
37.500	19.816	0.100
37.600	23.401	0.100
37.700	15.868	0.100
37.800	19.949	0.100
37.900	20.044	0.100
38.000	15.663	0.100
38.100	21.930	0.100
38.200	23.340	0.100
38.300	30.571	0.100
38.400	8.285	0.100
38.500	21.521	0.100
38.600	30.689	0.100
38.700	21.301	0.100
38.800	22.418	0.100
38.900	22.663	0.100
39.000	24.958	0.100
39.100	14.991	0.100
39.200	16.387	0.100
39.300	19.957	0.100
39.400	24.429	0.100
39.500	8.194	0.100
39.600	18.032	0.100
39.700	21.849	0.100
39.800	24.592	0.100
39.900	7.017	0.100
40.000	7.523	0.100
40.100	38.598	0.100
40.200	15.383	0.100
40.300	22.470	0.100
40.400	13.209	0.100
40.500	26.681	0.100
40.600	18.047	0.100
40.700	25.373	0.100
40.800	15.873	0.100
40.900	13.437	0.100
41.000	15.309	0.100
41.100	14.223	0.100
41.200	13.526	0.100
41.300	12.116	0.100
41.400	2.960	0.100
41.500	20.659	0.100
41.600	21.704	0.100
41.700	14.914	0.100
41.800	19.911	0.100
41.900	16.962	0.100
42.000	16.313	0.100
42.100	29.195	0.100
42.200	25.397	0.100
42.300	18.151	0.100
42.400	9.409	0.100
42.500	26.247	0.100
42.600	23.964	0.100
42.700	18.905	0.100
42.800	14.042	0.100
42.900	13.554	0.100
43.000	14.202	0.100
43.100	21.975	0.100
43.200	15.610	0.100
43.300	25.066	0.100
43.400	9.329	0.100
43.500	16.172	0.100
43.600	13.476	0.100
43.700	11.110	0.100
43.800	18.751	0.100
43.900	29.976	0.100
44.000	22.341	0.100
44.100	11.364	0.100
44.200	10.269	0.100
44.300	27.356	0.100
44.400	23.461	0.100
44.500	23.512	0.100
44.600	16.666	0.100
44.700	18.589	0.100
44.800	9.704	0.100
44.900	31.851	0.100
45.000	9.195	0.100
45.100	16.976	0.100
45.200	13.169	0.100
45.300	17.402	0.100
45.400	27.219	0.100
45.500	21.185	0.100
45.600	26.828	0.100
45.700	15.931	0.100
45.800	22.099	0.100
45.900	36.163	0.100
46.000	23.939	0.100
46.100	14.176	0.100
46.200	26.167	0.100
46.300	22.833	0.100
46.400	24.856	0.100
46.500	20.979	0.100
46.600	24.557	0.100
46.700	25.237	0.100
46.800	27.681	0.100
46.900	24.190	0.100
47.000	21.359	0.100
47.100	29.606	0.100
47.200	21.741	0.100
47.300	22.451	0.100
47.400	34.679	0.100
47.500	27.759	0.100
47.600	24.799	0.100
47.700	23.995	0.100
47.800	33.344	0.100
47.900	28.575	0.100
48.000	25.096	0.100
48.100	18.402	0.100
48.200	26.158	0.100
48.300	28.120	0.100
48.400	27.467	0.100
48.500	22.170	0.100
48.600	22.807	0.100
48.700	38.445	0.100
48.800	28.359	0.100
48.900	30.700	0.100
49.000	25.722	0.100
49.100	29.402	0.100
49.200	41.303	0.100
49.300	32.017	0.100
49.400	26.853	0.100
49.500	25.739	0.100
49.600	26.134	0.100
49.700	25.108	0.100
49.800	22.428	0.100
49.900	39.679	0.100
50.000	28.467	0.100
50.100	28.010	0.100
50.200	32.812	0.100
50.300	38.431	0.100
50.400	40.381	0.100
50.500	33.606	0.100
50.600	34.938	0.100
50.700	42.413	0.100
50.800	33.441	0.100
50.900	39.008	0.100
51.000	30.851	0.100
51.100	27.754	0.100
51.200	28.777	0.100
51.300	44.266	0.100
51.400	35.692	0.100
51.500	30.148	0.100
51.600	42.111	0.100
51.700	47.045	0.100
51.800	49.214	0.100
51.900	45.989	0.100
52.000	35.021	0.100
52.100	31.641	0.100
52.200	40.419	0.100
52.300	37.748	0.100
52.400	35.843	0.100
52.500	33.641	0.100
52.600	40.128	0.100
52.700	44.404	0.100
52.800	38.978	0.100
52.900	32.064	0.100
53.000	32.947	0.100
53.100	48.193	0.100
53.200	35.112	0.100
53.300	42.326	0.100
53.400	39.780	0.100
53.500	44.528	0.100
53.600	40.633	0.100
53.700	39.842	0.100
53.800	47.224	0.100
53.900	40.457	0.100
54.000	36.506	0.100
54.100	46.520	0.100
54.200	41.003	0.100
54.300	47.765	0.100
54.400	34.475	0.100
54.500	40.562	0.100
54.600	43.769	0.100
54.700	49.434	0.100
54.800	41.687	0.100
54.900	47.581	0.100
55.000	42.709	0.100
55.100	53.762	0.100
55.200	46.405	0.100
55.300	48.359	0.100
55.400	58.083	0.100
55.500	44.017	0.100
55.600	49.006	0.100
55.700	42.163	0.100
55.800	39.194	0.100
55.900	56.988	0.100
56.000	45.038	0.100
56.100	52.463	0.100
56.200	44.453	0.100
56.300	60.861	0.100
56.400	47.980	0.100
56.500	51.095	0.100
56.600	43.205	0.100
56.700	47.876	0.100
56.800	45.171	0.100
56.900	51.779	0.100
57.000	40.667	0.100
57.100	49.766	0.100
57.200	49.459	0.100
57.300	60.781	0.100
57.400	57.147	0.100
57.500	57.436	0.100
57.600	56.326	0.100
57.700	54.567	0.100
57.800	48.934	0.100
57.900	54.951	0.100
58.000	47.754	0.100
58.100	50.621	0.100
58.200	46.798	0.100
58.300	63.874	0.100
58.400	64.170	0.100
58.500	56.304	0.100
58.600	50.648	0.100
58.700	46.362	0.100
58.800	58.601	0.100
58.900	53.182	0.100
59.000	48.123	0.100
59.100	54.167	0.100
59.200	63.420	0.100
59.300	65.362	0.100
59.400	54.890	0.100
59.500	54.965	0.100
59.600	63.083	0.100
59.700	54.519	0.100
59.800	61.111	0.100
59.900	54.812	0.100
60.000	64.011	0.100
60.100	66.162	0.100
60.200	63.900	0.100
60.300	57.772	0.100
60.400	56.738	0.100
60.500	62.808	0.100
60.600	64.249	0.100
60.700	58.641	0.100
60.800	65.531	0.100
60.900	60.718	0.100
61.000	58.843	0.100
61.100	74.695	0.100
61.200	59.337	0.100
61.300	69.708	0.100
61.400	71.912	0.100
61.500	63.758	0.100
61.600	64.044	0.100
61.700	54.629	0.100
61.800	61.070	0.100
61.900	54.321	0.100
62.000	67.149	0.100
62.100	70.437	0.100
62.200	58.283	0.100
62.300	52.807	0.100
62.400	64.248	0.100
62.500	61.240	0.100
62.600	72.851	0.100
62.700	59.794	0.100
62.800	63.588	0.100
62.900	69.097	0.100
63.000	72.500	0.100
63.100	65.925	0.100
63.200	72.129	0.100
63.300	61.978	0.100
63.400	64.032	0.100
63.500	64.397	0.100
63.600	64.265	0.100
63.700	53.262	0.100
63.800	64.328	0.100
63.900	69.862	0.100
64.000	59.189	0.100
64.100	57.787	0.100
64.200	74.551	0.100
64.300	69.790	0.100
64.400	64.421	0.100
64.500	63.490	0.100
64.600	73.328	0.100
64.700	59.568	0.100
64.800	66.826	0.100
64.900	60.993	0.100
65.000	52.452	0.100
65.100	61.988	0.100
65.200	68.456	0.100
65.300	73.871	0.100
65.400	74.941	0.100
65.500	66.203	0.100
65.600	63.272	0.100
65.700	64.295	0.100
65.800	76.397	0.100
65.900	66.889	0.100
66.000	66.725	0.100
66.100	61.643	0.100
66.200	66.544	0.100
66.300	68.250	0.100
66.400	81.670	0.100
66.500	56.161	0.100
66.600	58.172	0.100
66.700	66.884	0.100
66.800	64.264	0.100
66.900	74.475	0.100
67.000	63.863	0.100
67.100	72.880	0.100
67.200	69.350	0.100
67.300	67.303	0.100
67.400	73.485	0.100
67.500	74.617	0.100
67.600	70.692	0.100
67.700	62.173	0.100
67.800	62.385	0.100
67.900	63.375	0.100
68.000	69.322	0.100
68.100	68.296	0.100
68.200	79.168	0.100
68.300	72.608	0.100
68.400	72.892	0.100
68.500	71.146	0.100
68.600	55.051	0.100
68.700	67.884	0.100
68.800	60.752	0.100
68.900	58.403	0.100
69.000	62.612	0.100
69.100	66.855	0.100
69.200	65.558	0.100
69.300	61.490	0.100
69.400	63.399	0.100
69.500	60.434	0.100
69.600	62.727	0.100
69.700	61.746	0.100
69.800	74.272	0.100
69.900	69.265	0.100
70.000	53.547	0.100
70.100	60.686	0.100
70.200	68.781	0.100
70.300	61.030	0.100
70.400	56.866	0.100
70.500	48.912	0.100
70.600	58.655	0.100
70.700	76.389	0.100
70.800	65.229	0.100
70.900	56.575	0.100
71.000	68.208	0.100
71.100	60.224	0.100
71.200	57.033	0.100
71.300	66.036	0.100
71.400	66.588	0.100
71.500	64.112	0.100
71.600	65.007	0.100
71.700	66.282	0.100
71.800	67.300	0.100
71.900	60.486	0.100
72.000	72.572	0.100
72.100	65.965	0.100
72.200	62.041	0.100
72.300	57.110	0.100
72.400	48.220	0.100
72.500	58.424	0.100
72.600	75.348	0.100
72.700	63.390	0.100
72.800	62.346	0.100
72.900	58.831	0.100
73.000	56.831	0.100
73.100	64.621	0.100
73.200	61.292	0.100
73.300	71.463	0.100
73.400	64.132	0.100
73.500	56.744	0.100
73.600	56.759	0.100
73.700	51.014	0.100
73.800	72.217	0.100
73.900	68.013	0.100
74.000	63.147	0.100
74.100	59.270	0.100
74.200	65.365	0.100
74.300	58.798	0.100
74.400	54.054	0.100
74.500	60.008	0.100
74.600	65.188	0.100
74.700	53.875	0.100
74.800	71.598	0.100
74.900	60.042	0.100
75.000	68.367	0.100
75.100	57.972	0.100
75.200	61.312	0.100
75.300	61.848	0.100
75.400	56.956	0.100
75.500	54.710	0.100
75.600	59.711	0.100
75.700	57.406	0.100
75.800	62.446	0.100
75.900	55.138	0.100
76.000	69.443	0.100
76.100	59.158	0.100
76.200	52.981	0.100
76.300	68.076	0.100
76.400	66.247	0.100
76.500	58.749	0.100
76.600	57.582	0.100
76.700	58.339	0.100
76.800	60.813	0.100
76.900	61.634	0.100
77.000	63.813	0.100
77.100	60.796	0.100
77.200	62.107	0.100
77.300	54.491	0.100
77.400	64.874	0.100
77.500	56.202	0.100
77.600	73.950	0.100
77.700	59.748	0.100
77.800	50.038	0.100
77.900	51.576	0.100
78.000	61.500	0.100
78.100	55.805	0.100
78.200	62.255	0.100
78.300	70.797	0.100
78.400	73.183	0.100
78.500	57.677	0.100
78.600	62.161	0.100
78.700	63.140	0.100
78.800	57.498	0.100
78.900	64.929	0.100
79.000	56.636	0.100
79.100	51.040	0.100
79.200	58.395	0.100
79.300	61.941	0.100
79.400	66.692	0.100
79.500	71.320	0.100
79.600	70.598	0.100
79.700	64.720	0.100
79.800	58.631	0.100
79.900	71.219	0.100
80.000	69.937	0.100
80.100	60.104	0.100
80.200	52.595	0.100
80.300	60.428	0.100
80.400	62.282	0.100
80.500	61.282	0.100
80.600	52.358	0.100
80.700	56.869	0.100
80.800	63.448	0.100
80.900	71.234	0.100
81.000	62.385	0.100
81.100	56.465	0.100
81.200	54.828	0.100
81.300	61.153	0.100
81.400	62.362	0.100
81.500	59.882	0.100
81.600	59.213	0.100
81.700	63.279	0.100
81.800	57.676	0.100
81.900	64.083	0.100
82.000	65.575	0.100
82.100	48.356	0.100
82.200	51.246	0.100
82.300	65.227	0.100
82.400	60.597	0.100
82.500	53.983	0.100
82.600	51.645	0.100
82.700	64.698	0.100
82.800	64.792	0.100
82.900	60.204	0.100
83.000	67.191	0.100
83.100	72.064	0.100
83.200	48.705	0.100
83.300	52.093	0.100
83.400	57.666	0.100
83.500	55.792	0.100
83.600	62.072	0.100
83.700	58.124	0.100
83.800	60.419	0.100
83.900	60.558	0.100
84.000	52.687	0.100
84.100	54.444	0.100
84.200	74.819	0.100
84.300	64.316	0.100
84.400	52.090	0.100
84.500	68.665	0.100
84.600	53.785	0.100
84.700	51.963	0.100
84.800	52.022	0.100
84.900	57.623	0.100
85.000	56.449	0.100
85.100	62.241	0.100
85.200	63.025	0.100
85.300	60.234	0.100
85.400	63.804	0.100
85.500	60.538	0.100
85.600	51.385	0.100
85.700	53.362	0.100
85.800	62.468	0.100
85.900	68.923	0.100
86.000	61.852	0.100
86.100	56.647	0.100
86.200	58.511	0.100
86.300	59.365	0.100
86.400	57.739	0.100
86.500	62.833	0.100
86.600	55.104	0.100
86.700	51.342	0.100
86.800	66.336	0.100
86.900	58.425	0.100
87.000	53.345	0.100
87.100	62.952	0.100
87.200	57.405	0.100
87.300	58.158	0.100
87.400	53.927	0.100
87.500	61.527	0.100
87.600	64.936	0.100
87.700	55.277	0.100
87.800	65.103	0.100
87.900	47.063	0.100
88.000	63.672	0.100
88.100	55.202	0.100
88.200	59.521	0.100
88.300	51.091	0.100
88.400	52.598	0.100
88.500	55.418	0.100
88.600	72.836	0.100
88.700	68.994	0.100
88.800	64.965	0.100
88.900	56.314	0.100
89.000	44.784	0.100
89.100	50.128	0.100
89.200	47.549	0.100
89.300	56.975	0.100
89.400	56.902	0.100
89.500	63.660	0.100
89.600	58.782	0.100
89.700	67.445	0.100
89.800	63.610	0.100
89.900	60.699	0.100
90.000	63.147	0.100
90.100	53.281	0.100
90.200	56.770	0.100
90.300	40.456	0.100
90.400	47.160	0.100
90.500	56.610	0.100
90.600	48.490	0.100
90.700	45.497	0.100
90.800	50.012	0.100
90.900	32.800	0.100
91.000	24.266	0.100
91.100	17.495	0.100
91.200	20.264	0.100
91.300	27.064	0.100
91.400	20.720	0.100
91.500	21.125	0.100
91.600	14.345	0.100
91.700	16.565	0.100
91.800	-4.871	0.100
91.900	9.853	0.100
92.000	10.286	0.100
92.100	17.556	0.100
92.200	13.732	0.100
92.300	6.758	0.100
92.400	4.844	0.100
92.500	4.168	0.100
92.600	4.937	0.100
92.700	-0.766	0.100
92.800	-2.374	0.100
92.900	4.061	0.100
93.000	0.478	0.100
93.100	-1.140	0.100
93.200	1.517	0.100
93.300	3.200	0.100
93.400	-5.136	0.100
93.500	1.621	0.100
93.600	-9.579	0.100
93.700	-5.041	0.100
93.800	-0.632	0.100
93.900	-7.271	0.100
94.000	-6.692	0.100
94.100	-5.901	0.100
94.200	-13.946	0.100
94.300	-3.498	0.100
94.400	-4.598	0.100
94.500	3.225	0.100
94.600	-14.743	0.100
94.700	-9.011	0.100
94.800	2.284	0.100
94.900	-1.854	0.100
95.000	-11.590	0.100
95.100	-1.918	0.100
95.200	-20.251	0.100
95.300	-10.215	0.100
95.400	-7.956	0.100
95.500	-6.221	0.100
95.600	-2.087	0.100
95.700	-18.046	0.100
95.800	-13.976	0.100
95.900	-7.892	0.100
96.000	-2.373	0.100
96.100	-12.409	0.100
96.200	-19.022	0.100
96.300	-1.600	0.100
96.400	-5.023	0.100
96.500	-7.470	0.100
96.600	-10.950	0.100
96.700	-24.181	0.100
96.800	-7.365	0.100
96.900	-4.659	0.100
97.000	-0.976	0.100
97.100	-8.408	0.100
97.200	-6.912	0.100
97.300	-4.697	0.100
97.400	-12.555	0.100
97.500	-12.495	0.100
97.600	-8.294	0.100
97.700	-3.679	0.100
97.800	5.261	0.100
97.900	0.247	0.100
98.000	5.078	0.100
98.100	-5.605	0.100
98.200	-10.935	0.100
98.300	8.251	0.100
98.400	-9.702	0.100
98.500	-13.499	0.100
98.600	-4.608	0.100
98.700	-5.781	0.100
98.800	-3.446	0.100
98.900	3.131	0.100
99.000	-11.060	0.100
99.100	-0.766	0.100
99.200	-1.267	0.100
99.300	-0.105	0.100
99.400	-16.735	0.100
99.500	-5.726	0.100
99.600	-3.391	0.100
99.700	-13.564	0.100
99.800	-14.026	0.100
99.900	-6.920	0.100
100.000	-6.559	0.100
100.100	-3.386	0.100
100.200	-2.922	0.100
100.300	-15.056	0.100
100.400	-3.571	0.100
100.500	-3.431	0.100
100.600	-1.515	0.100
100.700	-14.926	0.100
100.800	-2.505	0.100
100.900	-8.844	0.100
101.000	-15.198	0.100
101.100	-0.937	0.100
101.200	-2.408	0.100
101.300	-8.635	0.100
101.400	5.533	0.100
101.500	-13.142	0.100
101.600	-14.997	0.100
101.700	-13.763	0.100
101.800	-5.604	0.100
101.900	-4.817	0.100
102.000	2.546	0.100
102.100	-12.341	0.100
102.200	-7.741	0.100
102.300	-13.913	0.100
102.400	-8.355	0.100
102.500	-10.107	0.100
102.600	-9.469	0.100
102.700	-22.040	0.100
102.800	-11.193	0.100
102.900	-10.415	0.100
103.000	-12.132	0.100
103.100	-18.345	0.100
103.200	-6.150	0.100
103.300	-11.030	0.100
103.400	-6.161	0.100
103.500	-13.934	0.100
103.600	-10.972	0.100
103.700	-7.768	0.100
103.800	-17.395	0.100
103.900	-4.921	0.100
104.000	-10.173	0.100
104.100	-5.048	0.100
104.200	-11.419	0.100
104.300	-17.785	0.100
104.400	-12.843	0.100
104.500	-2.826	0.100
104.600	-8.126	0.100
104.700	-8.642	0.100
104.800	7.874	0.100
104.900	-11.488	0.100
105.000	-17.916	0.100
105.100	-17.264	0.100
105.200	-22.346	0.100
105.300	-1.947	0.100
105.400	-11.477	0.100
105.500	-6.064	0.100
105.600	-23.282	0.100
105.700	-9.571	0.100
105.800	-10.463	0.100
105.900	-16.920	0.100
106.000	-9.094	0.100
106.100	-10.009	0.100
106.200	-3.886	0.100
106.300	-5.188	0.100
106.400	-21.338	0.100
106.500	-15.660	0.100
106.600	-12.499	0.100
106.700	-18.379	0.100
106.800	-7.222	0.100
106.900	-8.079	0.100
107.000	-24.263	0.100
107.100	-13.692	0.100
107.200	-11.669	0.100
107.300	-14.795	0.100
107.400	-16.029	0.100
107.500	-22.300	0.100
107.600	-11.448	0.100
107.700	-18.214	0.100
107.800	-12.281	0.100
107.900	-8.600	0.100
108.000	-22.202	0.100
108.100	-21.085	0.100
108.200	-17.297	0.100
108.300	-11.555	0.100
108.400	-8.103	0.100
108.500	-6.337	0.100
108.600	-9.179	0.100
108.700	-17.214	0.100
108.800	-12.947	0.100
108.900	-19.974	0.100
109.000	-10.717	0.100
109.100	-23.076	0.100
109.200	-4.700	0.100
109.300	-16.783	0.100
109.400	-21.398	0.100
109.500	-13.026	0.100
109.600	-13.797	0.100
109.700	-27.018	0.100
109.800	-7.919	0.100
109.900	-11.712	0.100
110.000	-10.476	0.100
110.100	-15.132	0.100
110.200	-16.556	0.100
110.300	-22.995	0.100
110.400	-20.853	0.100
110.500	-17.702	0.100
110.600	-21.941	0.100
110.700	-24.287	0.100
110.800	-18.444	0.100
110.900	-20.989	0.100
111.000	-10.918	0.100
111.100	-15.712	0.100
111.200	-15.127	0.100
111.300	-17.476	0.100
111.400	-10.892	0.100
111.500	-27.889	0.100
111.600	-24.803	0.100
111.700	-24.529	0.100
111.800	-5.416	0.100
111.900	-13.982	0.100
112.000	-23.596	0.100
112.100	-21.230	0.100
112.200	-8.790	0.100
112.300	-28.033	0.100
112.400	-8.491	0.100
112.500	-31.002	0.100
112.600	-17.771	0.100
112.700	-13.366	0.100
112.800	-15.979	0.100
112.900	-17.616	0.100
113.000	-26.177	0.100
113.100	-21.724	0.100
113.200	-17.262	0.100
113.300	-12.104	0.100
113.400	-30.585	0.100
113.500	-15.436	0.100
113.600	-15.831	0.100
113.700	-14.099	0.100
113.800	-15.458	0.100
113.900	-19.542	0.100
114.000	-28.123	0.100
114.100	-16.772	0.100
114.200	-11.357	0.100
114.300	-14.916	0.100
114.400	-29.375	0.100
114.500	-22.617	0.100
114.600	-23.816	0.100
114.700	-22.001	0.100
114.800	-26.743	0.100
114.900	-21.245	0.100
115.000	-24.667	0.100
115.100	-11.911	0.100
115.200	-23.148	0.100
115.300	-21.405	0.100
115.400	-14.102	0.100
115.500	-13.940	0.100
115.600	-19.406	0.100
115.700	-19.006	0.100
115.800	-29.664	0.100
115.900	-16.986	0.100
116.000	-20.947	0.100
116.100	-15.775	0.100
116.200	-29.871	0.100
116.300	-18.235	0.100
116.400	-22.008	0.100
116.500	-18.441	0.100
116.600	-24.791	0.100
116.700	-30.259	0.100
116.800	-28.357	0.100
116.900	-18.360	0.100
117.000	-17.087	0.100
117.100	-22.774	0.100
117.200	-20.039	0.100
117.300	-27.292	0.100
117.400	-26.232	0.100
117.500	-23.444	0.100
117.600	-21.167	0.100
117.700	-14.876	0.100
117.800	-13.104	0.100
117.900	-27.864	0.100
118.000	-27.249	0.100
118.100	-27.061	0.100
118.200	-20.924	0.100
118.300	-27.624	0.100
118.400	-24.217	0.100
118.500	-27.830	0.100
118.600	-15.003	0.100
118.700	-26.971	0.100
118.800	-15.996	0.100
118.900	-21.404	0.100
119.000	-30.533	0.100
119.100	-25.159	0.100
119.200	-27.966	0.100
119.300	-20.061	0.100
119.400	-27.724	0.100
119.500	-33.499	0.100
119.600	-27.536	0.100
119.700	-19.923	0.100
119.800	-30.988	0.100
119.900	-33.344	0.100
120.000	-17.969	0.100
120.100	-26.595	0.100
120.200	-29.661	0.100
120.300	-19.464	0.100
120.400	-13.574	0.100
120.500	-29.121	0.100
120.600	-31.309	0.100
120.700	-24.786	0.100
120.800	-30.749	0.100
120.900	-20.217	0.100
121.000	-21.069	0.100
121.100	-25.675	0.100
121.200	-26.924	0.100
121.300	-17.836	0.100
121.400	-16.195	0.100
121.500	-23.755	0.100
121.600	-25.017	0.100
121.700	-24.976	0.100
121.800	-33.224	0.100
121.900	-29.750	0.100
122.000	-19.341	0.100
122.100	-15.051	0.100
122.200	-38.855	0.100
122.300	-23.806	0.100
122.400	-24.110	0.100
122.500	-28.792	0.100
122.600	-28.766	0.100
122.700	-22.956	0.100
122.800	-33.168	0.100
122.900	-31.401	0.100
123.000	-18.201	0.100
123.100	-24.152	0.100
123.200	-23.899	0.100
123.300	-21.901	0.100
123.400	-29.031	0.100
123.500	-31.221	0.100
123.600	-27.110	0.100
123.700	-22.813	0.100
123.800	-24.975	0.100
123.900	-34.335	0.100
124.000	-33.081	0.100
124.100	-25.864	0.100
124.200	-27.013	0.100
124.300	-14.013	0.100
124.400	-17.350	0.100
124.500	-30.948	0.100
124.600	-35.664	0.100
124.700	-24.867	0.100
124.800	-43.453	0.100
124.900	-24.984	0.100
125.000	-24.912	0.100
125.100	-29.670	0.100
125.200	-25.459	0.100
125.300	-28.609	0.100
125.400	-29.595	0.100
125.500	-23.182	0.100
125.600	-30.922	0.100
125.700	-19.020	0.100
125.800	-26.247	0.100
125.900	-31.271	0.100
126.000	-38.583	0.100
126.100	-35.378	0.100
126.200	-42.499	0.100
126.300	-28.531	0.100
126.400	-36.948	0.100
126.500	-17.327	0.100
126.600	-28.938	0.100
126.700	-25.246	0.100
126.800	-22.990	0.100
126.900	-38.891	0.100
127.000	-26.716	0.100
127.100	-26.264	0.100
127.200	-41.953	0.100
127.300	-37.357	0.100
127.400	-28.236	0.100
127.500	-29.424	0.100
127.600	-11.691	0.100
127.700	-34.201	0.100
127.800	-20.138	0.100
127.900	-34.488	0.100
128.000	-31.001	0.100
128.100	-31.609	0.100
128.200	-38.917	0.100
128.300	-38.358	0.100
128.400	-36.134	0.100
128.500	-24.819	0.100
128.600	-34.454	0.100
128.700	-24.601	0.100
128.800	-26.313	0.100
128.900	-24.842	0.100
129.000	-35.771	0.100
129.100	-31.899	0.100
129.200	-29.869	0.100
129.300	-28.396	0.100
129.400	-29.921	0.100
129.500	-42.651	0.100
129.600	-25.170	0.100
129.700	-26.262	0.100
129.800	-13.462	0.100
129.900	-32.114	0.100
130.000	-37.793	0.100
130.100	-28.652	0.100
130.200	-33.474	0.100
130.300	-30.295	0.100
130.400	-39.215	0.100
130.500	-24.953	0.100
130.600	-29.218	0.100
130.700	-30.956	0.100
130.800	-46.564	0.100
130.900	-27.726	0.100
131.000	-24.988	0.100
131.100	-33.495	0.100
131.200	-33.786	0.100
131.300	-29.008	0.100
131.400	-28.404	0.100
131.500	-33.776	0.100
131.600	-33.457	0.100
131.700	-21.934	0.100
131.800	-39.599	0.100
131.900	-23.558	0.100
132.000	-31.598	0.100
132.100	-31.228	0.100
132.200	-34.657	0.100
132.300	-21.150	0.100
132.400	-26.362	0.100
132.500	-32.182	0.100
132.600	-30.159	0.100
132.700	-40.157	0.100
132.800	-34.447	0.100
132.900	-26.768	0.100
133.000	-25.845	0.100
133.100	-26.447	0.100
133.200	-32.321	0.100
133.300	-18.704	0.100
133.400	-26.723	0.100
133.500	-32.862	0.100
133.600	-19.126	0.100
133.700	-43.881	0.100
133.800	-30.968	0.100
133.900	-32.761	0.100
134.000	-38.508	0.100
134.100	-30.224	0.100
134.200	-13.712	0.100
134.300	-30.705	0.100
134.400	-31.926	0.100
134.500	-37.617	0.100
134.600	-23.523	0.100
134.700	-27.551	0.100
134.800	-27.242	0.100
134.900	-41.146	0.100
135.000	-19.436	0.100
135.100	-36.747	0.100
135.200	-32.440	0.100
135.300	-27.090	0.100
135.400	-27.870	0.100
135.500	-27.242	0.100
135.600	-26.548	0.100
135.700	-31.076	0.100
135.800	-26.913	0.100
135.900	-29.634	0.100
136.000	-40.271	0.100
136.100	-30.330	0.100
136.200	-22.729	0.100
136.300	-30.297	0.100
136.400	-24.716	0.100
136.500	-30.727	0.100
136.600	-34.962	0.100
136.700	-20.593	0.100
136.800	-29.170	0.100
136.900	-36.334	0.100
137.000	-31.061	0.100
137.100	-38.579	0.100
137.200	-32.272	0.100
137.300	-17.444	0.100
137.400	-31.716	0.100
137.500	-33.723	0.100
137.600	-35.559	0.100
137.700	-28.598	0.100
137.800	-32.555	0.100
137.900	-25.091	0.100
138.000	-36.380	0.100
138.100	-40.755	0.100
138.200	-34.262	0.100
138.300	-33.303	0.100
138.400	-19.060	0.100
138.500	-26.540	0.100
138.600	-36.075	0.100
138.700	-21.965	0.100
138.800	-30.087	0.100
138.900	-33.945	0.100
139.000	-30.856	0.100
139.100	-22.792	0.100
139.200	-24.502	0.100
139.300	-33.602	0.100
139.400	-26.332	0.100
139.500	-29.113	0.100
139.600	-38.474	0.100
139.700	-22.504	0.100
139.800	-18.900	0.100
139.900	-36.621	0.100
140.000	-39.583	0.100
140.100	-32.800	0.100
140.200	-31.031	0.100
140.300	-35.724	0.100
140.400	-34.973	0.100
140.500	-26.284	0.100
140.600	-32.631	0.100
140.700	-11.899	0.100
140.800	-28.101	0.100
140.900	-26.096	0.100
141.000	-32.928	0.100
141.100	-37.591	0.100
141.200	-28.198	0.100
141.300	-24.731	0.100
141.400	-24.196	0.100
141.500	-33.355	0.100
141.600	-43.384	0.100
141.700	-39.984	0.100
141.800	-29.795	0.100
141.900	-30.187	0.100
142.000	-30.163	0.100
142.100	-25.803	0.100
142.200	-23.162	0.100
142.300	-16.759	0.100
142.400	-30.264	0.100
142.500	-28.553	0.100
142.600	-29.382	0.100
142.700	-30.526	0.100
142.800	-21.930	0.100
142.900	-26.448	0.100
143.000	-27.730	0.100
143.100	-28.980	0.100
143.200	-20.853	0.100
143.300	-29.166	0.100
143.400	-33.332	0.100
143.500	-32.121	0.100
143.600	-35.094	0.100
143.700	-19.040	0.100
143.800	-28.792	0.100
143.900	-32.276	0.100
144.000	-35.439	0.100
144.100	-29.984	0.100
144.200	-23.777	0.100
144.300	-23.015	0.100
144.400	-27.494	0.100
144.500	-31.694	0.100
144.600	-29.572	0.100
144.700	-15.749	0.100
144.800	-32.824	0.100
144.900	-33.690	0.100
145.000	-35.019	0.100
145.100	-33.036	0.100
145.200	-39.688	0.100
145.300	-25.538	0.100
145.400	-14.753	0.100
145.500	-28.451	0.100
145.600	-22.185	0.100
145.700	-23.782	0.100
145.800	-25.888	0.100
145.900	-30.247	0.100
146.000	-37.187	0.100
146.100	-30.147	0.100
146.200	-27.979	0.100
146.300	-40.033	0.100
146.400	-35.384	0.100
146.500	-24.380	0.100
146.600	-34.929	0.100
146.700	-20.125	0.100
146.800	-25.551	0.100
146.900	-26.873	0.100
147.000	-32.763	0.100
147.100	-29.752	0.100
147.200	-34.454	0.100
147.300	-35.084	0.100
147.400	-28.324	0.100
147.500	-25.120	0.100
147.600	-34.070	0.100
147.700	-27.320	0.100
147.800	-32.704	0.100
147.900	-19.372	0.100
148.000	-30.910	0.100
148.100	-32.233	0.100
148.200	-25.097	0.100
148.300	-25.777	0.100
148.400	-29.064	0.100
148.500	-34.550	0.100
148.600	-25.242	0.100
148.700	-18.332	0.100
148.800	-29.938	0.100
148.900	-22.043	0.100
149.000	-31.980	0.100
149.100	-24.767	0.100
149.200	-40.490	0.100
149.300	-30.333	0.100
149.400	-32.887	0.100
149.500	-17.545	0.100
149.600	-31.623	0.100
149.700	-35.342	0.100
149.800	-27.817	0.100
149.900	-24.934	0.100
150.000	-23.611	0.100
150.100	-36.458	0.100
150.200	-31.951	0.100
150.300	-34.968	0.100
150.400	-35.250	0.100
150.500	-20.411	0.100
150.600	-31.651	0.100
150.700	-28.750	0.100
150.800	-31.790	0.100
150.900	-19.499	0.100
151.000	-21.490	0.100
151.100	-17.030	0.100
151.200	-31.485	0.100
151.300	-35.609	0.100
151.400	-31.037	0.100
151.500	-15.033	0.100
151.600	-22.933	0.100
151.700	-25.043	0.100
151.800	-33.485	0.100
151.900	-29.169	0.100
152.000	-24.514	0.100
152.100	-21.165	0.100
152.200	-30.948	0.100
152.300	-30.923	0.100
152.400	-22.831	0.100
152.500	-12.796	0.100
152.600	-35.161	0.100
152.700	-25.691	0.100
152.800	-29.117	0.100
152.900	-27.801	0.100
153.000	-16.016	0.100
153.100	-20.543	0.100
153.200	-31.198	0.100
153.300	-29.884	0.100
153.400	-45.595	0.100
153.500	-38.193	0.100
153.600	-33.110	0.100
153.700	-22.659	0.100
153.800	-21.659	0.100
153.900	-19.819	0.100
154.000	-26.045	0.100
154.100	-19.189	0.100
154.200	-28.809	0.100
154.300	-33.311	0.100
154.400	-31.363	0.100
154.500	-28.406	0.100
154.600	-26.735	0.100
154.700	-17.538	0.100
154.800	-42.330	0.100
154.900	-18.319	0.100
155.000	-23.576	0.100
155.100	-26.772	0.100
155.200	-27.881	0.100
155.300	-26.948	0.100
155.400	-26.955	0.100
155.500	-22.394	0.100
155.600	-28.338	0.100
155.700	-12.334	0.100
155.800	-22.956	0.100
155.900	-26.092	0.100
156.000	-31.179	0.100
156.100	-26.462	0.100
156.200	-28.602	0.100
156.300	-22.002	0.100
156.400	-25.652	0.100
156.500	-31.777	0.100
156.600	-28.785	0.100
156.700	-10.902	0.100
156.800	-25.656	0.100
156.900	-23.734	0.100
157.000	-25.362	0.100
157.100	-16.909	0.100
157.200	-14.918	0.100
157.300	-28.681	0.100
157.400	-39.358	0.100
157.500	-27.519	0.100
157.600	-29.048	0.100
157.700	-14.452	0.100
157.800	-27.402	0.100
157.900	-8.600	0.100
158.000	-27.879	0.100
158.100	-17.704	0.100
158.200	-27.321	0.100
158.300	-26.195	0.100
158.400	-13.196	0.100
158.500	-21.144	0.100
158.600	-25.864	0.100
158.700	-21.973	0.100
158.800	-18.641	0.100
158.900	-20.334	0.100
159.000	-12.190	0.100
159.100	-25.186	0.101
159.200	-17.603	0.100
159.300	-25.465	0.100
159.400	-30.467	0.100
159.500	-25.773	0.100
159.600	-21.426	0.100
159.700	-25.947	0.100
159.800	-26.470	0.100
159.900	-19.424	0.100
160.000	-18.327	0.100
160.100	-19.782	0.100
160.200	-25.365	0.100
160.300	-29.782	0.100
160.400	-28.835	0.100
160.500	-15.091	0.100
160.600	-25.692	0.100
160.700	-30.217	0.100
160.800	-17.219	0.100
160.900	-19.311	0.100
161.000	-16.526	0.101
161.100	-26.024	0.100
161.200	-37.075	0.100
161.300	-18.614	0.100
161.400	-14.222	0.100
161.500	-28.154	0.100
161.600	-20.988	0.100
161.700	-20.105	0.100
161.800	-24.682	0.100
161.900	-29.690	0.100
162.000	-20.632	0.100
162.100	-22.784	0.100
162.200	-19.603	0.100
162.300	-23.578	0.100
162.400	-24.332	0.100
162.500	-34.015	0.100
162.600	-14.112	0.100
162.700	-13.352	0.100
162.800	-15.297	0.100
162.900	-17.874	0.100
163.000	-27.656	0.100
163.100	-31.049	0.101
163.200	-21.814	0.101
163.300	-22.565	0.100
163.400	-26.205	0.100
163.500	-30.398	0.100
163.600	-20.596	0.100
163.700	-20.844	0.100
163.800	-27.478	0.100
163.900	-32.676	0.101
164.000	-30.025	0.100
164.100	-12.187	0.101
164.200	-20.268	0.100
164.300	-24.704	0.101
164.400	-17.574	0.101
164.500	-10.144	0.101
164.600	-25.014	0.100
164.700	-21.225	0.100
164.800	-22.388	0.100
164.900	-26.945	0.100
165.000	-20.245	0.101
165.100	-17.058	0.100
165.200	-21.385	0.100
165.300	-27.789	0.101
165.400	-19.977	0.100
165.500	-30.003	0.100
165.600	-22.797	0.100
165.700	-16.292	0.100
165.800	-22.952	0.100
165.900	-19.362	0.101
166.000	-30.463	0.101
166.100	-28.518	0.100
166.200	-18.770	0.100
166.300	-22.699	0.101
166.400	-23.552	0.100
166.500	-15.857	0.101
166.600	-28.408	0.101
166.700	-14.491	0.101
166.800	-18.116	0.101
166.900	-9.944	0.101
167.000	-22.253	0.101
167.100	-33.439	0.101
167.200	-27.921	0.101
167.300	-22.763	0.101
167.400	-19.978	0.101
167.500	-21.648	0.101
167.600	-18.422	0.101
167.700	-9.165	0.101
167.800	-14.477	0.101
167.900	-40.543	0.101
168.000	-28.099	0.101
168.100	-26.688	0.101
168.200	-26.960	0.101
168.300	-25.422	0.101
168.400	-19.589	0.101
168.500	-27.652	0.101
168.600	-13.596	0.101
168.700	-34.503	0.101
168.800	-15.230	0.101
168.900	-13.876	0.101
169.000	-14.791	0.101
169.100	-25.852	0.101
169.200	-14.023	0.101
169.300	-21.130	0.101
169.400	-24.655	0.101
169.500	-15.679	0.101
169.600	-35.256	0.101
169.700	-11.698	0.101
169.800	-24.271	0.101
169.900	-19.407	0.101
170.000	-16.889	0.101
170.100	-27.710	0.101
170.200	-18.568	0.101
170.300	-18.431	0.101
170.400	-14.979	0.101
170.500	-11.521	0.101
170.600	-23.235	0.101
170.700	-20.129	0.101
170.800	-22.998	0.101
170.900	-13.116	0.101
171.000	-19.185	0.101
171.100	-26.961	0.101
171.200	-27.815	0.101
171.300	-20.231	0.101
171.400	-26.157	0.101
171.500	-16.603	0.101
171.600	-26.572	0.101
171.700	-17.791	0.101
171.800	-22.050	0.101
171.900	-16.631	0.101
172.000	-15.276	0.101
172.100	-22.845	0.101
172.200	-17.419	0.101
172.300	-16.844	0.101
172.400	-11.526	0.101
172.500	-21.134	0.101
172.600	-20.125	0.101
172.700	-12.470	0.101
172.800	-21.692	0.101
172.900	-29.331	0.101
173.000	-24.735	0.101
173.100	-21.352	0.101
173.200	-28.614	0.101
173.300	-14.762	0.101
173.400	-18.905	0.101
173.500	-30.072	0.101
173.600	-25.999	0.101
173.700	-11.467	0.101
173.800	-20.245	0.101
173.900	-18.475	0.101
174.000	-16.177	0.101
174.100	-27.790	0.101
174.200	-17.688	0.101
174.300	-16.203	0.101
174.400	-11.208	0.101
174.500	-18.723	0.101
174.600	-22.224	0.101
174.700	-27.021	0.101
174.800	-17.370	0.101
174.900	-19.779	0.101
175.000	-22.128	0.101
175.100	-20.854	0.101
175.200	-23.223	0.101
175.300	-11.655	0.101
175.400	-20.134	0.101
175.500	-23.678	0.101
175.600	-22.154	0.101
175.700	-23.963	0.101
175.800	-22.937	0.101
175.900	-18.891	0.101
176.000	-21.783	0.101
176.100	-23.882	0.101
176.200	-22.726	0.101
176.300	-27.728	0.101
176.400	-21.523	0.101
176.500	-11.129	0.101
176.600	-15.183	0.101
176.700	-17.523	0.101
176.800	-29.872	0.101
176.900	-16.021	0.101
177.000	-13.486	0.101
177.100	-16.638	0.101
177.200	-20.402	0.101
177.300	-14.043	0.101
177.400	-22.678	0.101
177.500	-18.828	0.101
177.600	-19.062	0.101
177.700	-21.716	0.101
177.800	-23.129	0.101
177.900	-23.103	0.101
178.000	-18.631	0.101
178.100	-22.376	0.101
178.200	-21.491	0.101
178.300	-10.541	0.101
178.400	-14.685	0.101
178.500	-20.854	0.101
178.600	-15.831	0.101
178.700	-12.129	0.101
178.800	-25.030	0.101
178.900	-24.671	0.101
179.000	-34.371	0.101
179.100	-22.467	0.101
179.200	-18.392	0.101
179.300	-15.081	0.101
179.400	-27.214	0.101
179.500	-7.401	0.101
179.600	-13.284	0.101
179.700	-22.519	0.101
179.800	-7.468	0.101
179.900	-20.924	0.101
180.000	-17.775	0.101
180.100	-3.734	0.101
180.200	-15.811	0.101
180.300	-13.430	0.101
180.400	-17.300	0.101
180.500	-7.205	0.101
180.600	2.891	0.101
180.700	6.049	0.101
180.800	12.824	0.101
180.900	3.026	0.101
181.000	19.806	0.101
181.100	14.212	0.101
181.200	18.089	0.101
181.300	11.204	0.101
181.400	18.274	0.101
181.500	14.888	0.101
181.600	20.345	0.101
181.700	25.599	0.101
181.800	24.327	0.101
181.900	29.832	0.101
182.000	25.624	0.101
182.100	30.876	0.101
182.200	32.647	0.101
182.300	31.654	0.101
182.400	36.664	0.101
182.500	34.664	0.101
182.600	36.693	0.101
182.700	30.793	0.101
182.800	31.891	0.101
182.900	31.207	0.101
183.000	29.321	0.101
183.100	33.804	0.101
183.200	33.653	0.101
183.300	32.903	0.101
183.400	42.787	0.101
183.500	49.533	0.101
183.600	38.653	0.101
183.700	30.769	0.101
183.800	32.609	0.101
183.900	30.126	0.101
184.000	37.020	0.101
184.100	31.161	0.101
184.200	38.438	0.101
184.300	35.923	0.101
184.400	40.570	0.101
184.500	50.175	0.101
184.600	43.236	0.101
184.700	42.669	0.101
184.800	45.577	0.101
184.900	37.970	0.101
185.000	30.958	0.101
185.100	36.309	0.101
185.200	42.798	0.101
185.300	36.537	0.101
185.400	30.911	0.101
185.500	40.337	0.101
185.600	39.710	0.101
185.700	38.258	0.101
185.800	30.812	0.101
185.900	50.821	0.101
186.000	30.811	0.101
186.100	33.773	0.101
186.200	35.236	0.101
186.300	39.660	0.101
186.400	36.506	0.101
186.500	30.364	0.101
186.600	35.901	0.101
186.700	37.813	0.101
186.800	26.913	0.101
186.900	25.182	0.101
187.000	32.733	0.101
187.100	29.732	0.101
187.200	31.284	0.101
187.300	36.536	0.101
187.400	45.658	0.101
187.500	31.162	0.101
187.600	24.391	0.101
187.700	42.631	0.101
187.800	29.450	0.101
187.900	23.448	0.101
188.000	22.862	0.101
188.100	32.206	0.101
188.200	27.370	0.101
188.300	36.697	0.101
188.400	41.864	0.101
188.500	29.418	0.101
188.600	23.148	0.101
188.700	42.250	0.101
188.800	40.286	0.101
188.900	41.971	0.101
189.000	31.717	0.101
189.100	40.200	0.101
189.200	28.977	0.101
189.300	28.089	0.101
189.400	34.642	0.101
189.500	41.599	0.101
189.600	39.493	0.101
189.700	35.600	0.101
189.800	24.029	0.101
189.900	36.292	0.101
190.000	38.272	0.101
190.100	36.583	0.101
190.200	37.599	0.101
190.300	39.329	0.101
190.400	33.810	0.101
190.500	33.578	0.101
190.600	43.832	0.101
190.700	45.032	0.101
190.800	39.464	0.101
190.900	33.867	0.101
191.000	24.681	0.101
191.100	37.522	0.101
191.200	39.287	0.101
191.300	35.821	0.101
191.400	34.901	0.101
191.500	35.777	0.101
191.600	37.034	0.101
191.700	23.970	0.101
191.800	29.953	0.101
191.900	43.568	0.101
192.000	26.397	0.101
192.100	41.254	0.101
192.200	37.867	0.101
192.300	24.702	0.101
192.400	32.964	0.101
192.500	48.434	0.101
192.600	36.232	0.101
192.700	27.782	0.101
192.800	17.142	0.101
192.900	45.579	0.101
193.000	32.743	0.101
193.100	31.467	0.101
193.200	36.024	0.101
193.300	35.702	0.101
193.400	35.844	0.101
193.500	31.012	0.101
193.600	34.940	0.101
193.700	31.067	0.101
193.800	38.631	0.101
193.900	36.117	0.101
194.000	37.025	0.101
194.100	29.697	0.101
194.200	36.040	0.101
194.300	35.699	0.101
194.400	42.445	0.101
194.500	39.946	0.101
194.600	37.323	0.101
194.700	33.957	0.101
194.800	36.925	0.101
194.900	44.768	0.101
195.000	47.704	0.101
195.100	43.689	0.101
195.200	36.679	0.101
195.300	32.495	0.101
195.400	42.707	0.101
195.500	32.541	0.101
195.600	41.834	0.101
195.700	36.564	0.101
195.800	39.317	0.101
195.900	43.388	0.101
196.000	40.897	0.101
196.100	38.039	0.101
196.200	38.472	0.101
196.300	45.026	0.101
196.400	44.739	0.101
196.500	29.689	0.101
196.600	42.954	0.101
196.700	45.663	0.101
196.800	42.963	0.101
196.900	56.009	0.101
197.000	48.233	0.101
197.100	44.298	0.101
197.200	49.821	0.101
197.300	45.355	0.101
197.400	41.038	0.101
197.500	40.545	0.101
197.600	44.199	0.101
197.700	36.774	0.101
197.800	48.239	0.101
197.900	45.741	0.101
198.000	46.848	0.101
198.100	40.469	0.101
198.200	53.799	0.101
198.300	46.201	0.101
198.400	57.558	0.101
198.500	46.324	0.101
198.600	53.368	0.101
198.700	50.086	0.101
198.800	51.561	0.101
198.900	49.280	0.101
199.000	41.649	0.101
199.100	49.328	0.101
199.200	59.566	0.101
199.300	50.858	0.101
199.400	41.674	0.101
199.500	48.275	0.101
199.600	50.780	0.101
199.700	49.314	0.101
199.800	51.928	0.101
199.900	60.135	0.101
200.000	54.091	0.101
200.100	56.753	0.101
200.200	63.924	0.101
200.300	62.272	0.101
200.400	62.162	0.101
200.500	59.687	0.101
200.600	60.991	0.101
200.700	62.747	0.101
200.800	63.225	0.101
200.900	72.028	0.101
201.000	54.765	0.101
201.100	64.016	0.101
201.200	56.475	0.101
201.300	55.549	0.101
201.400	61.655	0.101
201.500	52.098	0.101
201.600	66.916	0.101
201.700	58.864	0.101
201.800	59.367	0.101
201.900	64.489	0.101
202.000	68.620	0.101
202.100	55.293	0.101
202.200	69.421	0.101
202.300	59.630	0.101
202.400	68.715	0.101
202.500	61.369	0.101
202.600	61.273	0.100
202.700	68.878	0.100
202.800	76.210	0.100
202.900	67.903	0.100
203.000	75.983	0.100
203.100	69.706	0.100
203.200	61.016	0.100
203.300	65.054	0.100
203.400	65.177	0.100
203.500	65.843	0.100
203.600	70.025	0.100
203.700	76.267	0.100
203.800	75.116	0.100
203.900	72.215	0.100
204.000	73.168	0.100
204.100	63.472	0.100
204.200	69.621	0.100
204.300	65.130	0.100
204.400	80.387	0.100
204.500	69.338	0.100
204.600	69.877	0.100
204.700	58.680	0.100
204.800	82.065	0.100
204.900	83.210	0.100
205.000	68.886	0.100
205.100	66.009	0.100
205.200	71.490	0.100
205.300	76.727	0.100
205.400	68.891	0.100
205.500	80.472	0.100
205.600	72.197	0.100
205.700	72.792	0.100
205.800	68.948	0.100
205.900	84.231	0.100
206.000	78.089	0.100
206.100	65.967	0.100
206.200	65.573	0.100
206.300	68.941	0.100
206.400	75.377	0.100
206.500	70.561	0.100
206.600	75.689	0.100
206.700	79.798	0.100
206.800	77.559	0.100
206.900	61.936	0.100
207.000	77.747	0.100
207.100	79.381	0.100
207.200	74.110	0.100
207.300	82.787	0.100
207.400	80.855	0.100
207.500	83.416	0.100
207.600	80.405	0.100
207.700	70.722	0.100
207.800	74.726	0.100
207.900	72.896	0.100
208.000	76.648	0.100
208.100	82.131	0.100
208.200	80.681	0.100
208.300	74.549	0.100
208.400	80.250	0.100
208.500	68.147	0.100
208.600	80.314	0.100
208.700	62.146	0.100
208.800	69.832	0.100
208.900	69.281	0.100
209.000	71.771	0.100
209.100	75.293	0.100
209.200	74.167	0.100
209.300	82.648	0.100
209.400	72.880	0.100
209.500	68.592	0.100
209.600	78.754	0.100
209.700	78.505	0.100
209.800	73.448	0.100
209.900	73.585	0.100
210.000	77.094	0.100
210.100	80.763	0.100
210.200	62.485	0.100
210.300	65.890	0.100
210.400	77.419	0.100
210.500	83.107	0.100
210.600	74.260	0.100
210.700	73.189	0.100
210.800	69.380	0.100
210.900	75.637	0.100
211.000	71.942	0.100
211.100	70.051	0.100
211.200	72.316	0.100
211.300	60.756	0.100
211.400	80.398	0.100
211.500	74.941	0.100
211.600	77.330	0.100
211.700	76.268	0.100
211.800	66.379	0.100
211.900	63.602	0.100
212.000	72.056	0.100
212.100	69.593	0.100
212.200	77.665	0.100
212.300	78.519	0.100
212.400	69.057	0.100
212.500	71.484	0.100
212.600	70.709	0.100
212.700	70.106	0.100
212.800	68.304	0.100
212.900	71.426	0.100
213.000	65.117	0.100
213.100	68.635	0.100
213.200	81.111	0.100
213.300	73.201	0.100
213.400	53.109	0.100
213.500	66.154	0.100
213.600	77.600	0.100
213.700	76.369	0.100
213.800	78.855	0.100
213.900	69.922	0.100
214.000	71.810	0.100
214.100	67.979	0.100
214.200	62.653	0.100
214.300	66.980	0.100
214.400	65.811	0.100
214.500	64.993	0.100
214.600	80.009	0.100
214.700	61.823	0.100
214.800	76.056	0.100
214.900	55.465	0.100
215.000	75.999	0.100
215.100	68.561	0.100
215.200	74.371	0.100
215.300	67.359	0.100
215.400	71.550	0.100
215.500	70.702	0.100
215.600	55.574	0.100
215.700	54.350	0.100
215.800	77.278	0.100
215.900	79.400	0.100
216.000	78.520	0.100
216.100	76.264	0.100
216.200	66.651	0.100
216.300	66.600	0.100
216.400	71.143	0.100
216.500	70.930	0.100
216.600	58.107	0.100
216.700	62.887	0.100
216.800	63.363	0.100
216.900	65.813	0.100
217.000	62.941	0.100
217.100	67.966	0.100
217.200	68.314	0.100
217.300	74.882	0.100
217.400	67.105	0.100
217.500	65.832	0.100
217.600	66.109	0.100
217.700	74.294	0.100
217.800	63.485	0.100
217.900	65.409	0.100
218.000	58.877	0.100
218.100	70.203	0.100
218.200	65.284	0.100
218.300	74.610	0.100
218.400	63.026	0.100
218.500	60.981	0.100
218.600	67.325	0.100
218.700	63.625	0.100
218.800	62.295	0.100
218.900	67.413	0.100
219.000	68.522	0.100
219.100	69.447	0.100
219.200	63.152	0.100
219.300	65.843	0.100
219.400	74.158	0.100
219.500	64.509	0.100
219.600	62.969	0.100
219.700	67.824	0.100
219.800	67.329	0.100
219.900	53.410	0.100
220.000	70.113	0.100
220.100	76.391	0.100
220.200	65.450	0.100
220.300	74.067	0.100
220.400	49.864	0.100
220.500	70.171	0.100
220.600	66.126	0.100
220.700	55.924	0.100
220.800	61.584	0.100
220.900	66.985	0.100
221.000	60.225	0.100
221.100	63.225	0.100
221.200	64.315	0.100
221.300	53.786	0.100
221.400	80.594	0.100
221.500	63.570	0.100
221.600	63.662	0.100
221.700	63.849	0.100
221.800	56.936	0.100
221.900	66.128	0.100
222.000	66.730	0.100
222.100	60.287	0.100
222.200	73.152	0.100
222.300	64.556	0.100
222.400	55.846	0.100
222.500	58.496	0.100
222.600	86.202	0.100
222.700	69.867	0.100
222.800	64.426	0.100
222.900	60.546	0.100
223.000	69.199	0.100
223.100	52.352	0.100
223.200	68.737	0.100
223.300	67.255	0.100
223.400	59.939	0.100
223.500	52.510	0.100
223.600	66.812	0.100
223.700	66.270	0.100
223.800	64.504	0.100
223.900	58.123	0.100
224.000	64.126	0.100
224.100	64.897	0.100
224.200	58.686	0.100
224.300	72.860	0.100
224.400	69.314	0.100
224.500	66.456	0.100
224.600	60.718	0.100
224.700	68.574	0.100
224.800	57.308	0.100
224.900	71.124	0.100
225.000	70.802	0.100
225.100	69.751	0.100
225.200	63.122	0.100
225.300	65.988	0.100
225.400	58.233	0.100
225.500	58.877	0.100
225.600	64.421	0.100
225.700	57.184	0.100
225.800	71.477	0.100
225.900	62.549	0.100
226.000	65.275	0.100
226.100	56.630	0.100
226.200	62.755	0.100
226.300	71.282	0.100
226.400	74.660	0.100
226.500	75.403	0.100
226.600	55.016	0.100
226.700	65.471	0.100
226.800	56.698	0.100
226.900	61.449	0.100
227.000	63.423	0.100
227.100	68.829	0.100
227.200	61.042	0.100
227.300	60.188	0.100
227.400	65.702	0.100
227.500	53.947	0.100
227.600	66.383	0.100
227.700	62.338	0.100
227.800	59.916	0.100
227.900	64.015	0.100
228.000	66.142	0.100
228.100	68.672	0.100
228.200	61.575	0.100
228.300	67.252	0.100
228.400	65.476	0.100
228.500	59.852	0.100
228.600	66.806	0.100
228.700	64.188	0.100
228.800	64.303	0.100
228.900	64.704	0.100
229.000	80.982	0.100
229.100	68.767	0.100
229.200	64.197	0.100
229.300	63.373	0.100
229.400	57.374	0.100
229.500	59.772	0.100
229.600	63.106	0.100
229.700	63.733	0.100
229.800	65.304	0.100
229.900	60.890	0.100
230.000	68.521	0.100
230.100	59.660	0.100
230.200	65.310	0.100
230.300	66.978	0.100
230.400	65.972	0.100
230.500	69.301	0.100
230.600	65.197	0.100
230.700	55.489	0.100
230.800	58.316	0.100
230.900	66.405	0.100
231.000	56.130	0.100
231.100	62.210	0.100
231.200	62.857	0.100
231.300	62.727	0.100
231.400	70.496	0.100
231.500	61.800	0.100
231.600	60.771	0.100
231.700	57.303	0.100
231.800	70.769	0.100
231.900	59.679	0.100
232.000	77.555	0.100
232.100	73.702	0.100
232.200	51.608	0.100
232.300	56.913	0.100
232.400	64.682	0.100
232.500	57.840	0.100
232.600	66.667	0.100
232.700	58.505	0.100
232.800	66.058	0.100
232.900	58.851	0.100
233.000	74.513	0.100
233.100	65.843	0.100
233.200	65.962	0.100
233.300	66.655	0.100
233.400	74.018	0.100
233.500	60.896	0.100
233.600	64.013	0.100
233.700	53.827	0.100
233.800	61.877	0.100
233.900	67.897	0.100
234.000	70.124	0.100
234.100	59.867	0.100
234.200	69.345	0.100
234.300	60.567	0.100
234.400	64.180	0.100
234.500	60.671	0.100
234.600	66.308	0.100
234.700	74.943	0.100
234.800	71.504	0.100
234.900	62.024	0.100
235.000	63.650	0.100
235.100	61.356	0.100
235.200	61.238	0.100
235.300	58.727	0.100
235.400	56.490	0.100
235.500	63.160	0.100
235.600	66.911	0.100
235.700	68.945	0.100
235.800	55.234	0.100
235.900	57.732	0.100
236.000	64.777	0.100
236.100	63.713	0.100
236.200	60.997	0.100
236.300	55.469	0.100
236.400	66.279	0.100
236.500	62.139	0.100
236.600	60.387	0.100
236.700	59.135	0.100
236.800	62.720	0.100
236.900	67.767	0.100
237.000	53.908	0.100
237.100	65.264	0.100
237.200	56.296	0.100
237.300	65.876	0.100
237.400	58.876	0.100
237.500	69.145	0.100
237.600	63.913	0.100
237.700	65.740	0.100
237.800	55.790	0.100
237.900	57.434	0.100
238.000	62.976	0.100
238.100	70.520	0.100
238.200	57.564	0.100
238.300	56.780	0.100
238.400	60.652	0.100
238.500	59.008	0.100
238.600	68.767	0.100
238.700	53.590	0.100
238.800	71.163	0.100
238.900	70.183	0.100
239.000	61.241	0.100
239.100	57.789	0.100
239.200	70.261	0.100
239.300	70.091	0.100
239.400	56.800	0.100
239.500	65.899	0.100
239.600	61.449	0.100
239.700	55.747	0.100
239.800	61.164	0.100
239.900	61.989	0.100
240.000	57.968	0.100
240.100	54.072	0.100
240.200	53.911	0.100
240.300	46.920	0.100
240.400	53.405	0.100
240.500	40.487	0.100
240.600	45.853	0.100
240.700	44.863	0.100
240.800	37.654	0.100
240.900	33.603	0.100
241.000	49.034	0.100
241.100	31.140	0.100
241.200	30.756	0.100
241.300	24.120	0.100
241.400	7.543	0.100
241.500	16.368	0.100
241.600	14.902	0.100
241.700	22.655	0.100
241.800	11.425	0.100
241.900	6.986	0.100
242.000	10.805	0.100
242.100	4.864	0.100
242.200	10.156	0.100
242.300	4.571	0.100
242.400	2.433	0.100
242.500	3.900	0.100
242.600	-0.112	0.100
242.700	11.338	0.100
242.800	4.956	0.100
242.900	-2.646	0.100
243.000	-5.091	0.100
243.100	-10.774	0.100
243.200	6.092	0.100
243.300	-12.897	0.100
243.400	-6.644	0.100
243.500	-2.007	0.100
243.600	-3.460	0.100
243.700	-8.344	0.100
243.800	-9.851	0.100
243.900	-5.342	0.100
244.000	-17.016	0.100
244.100	-1.608	0.100
244.200	-1.801	0.100
244.300	-11.030	0.100
244.400	0.977	0.100
244.500	-14.677	0.100
244.600	-17.878	0.100
244.700	-23.262	0.100
244.800	-12.758	0.100
244.900	-19.271	0.100
245.000	0.796	0.100
245.100	-7.737	0.100
245.200	-10.379	0.100
245.300	-11.767	0.100
245.400	-15.430	0.100
245.500	-32.943	0.100
245.600	-17.436	0.100
245.700	-12.012	0.100
245.800	-12.579	0.100
245.900	-13.027	0.100
246.000	-18.510	0.100
246.100	-11.082	0.100
246.200	-18.127	0.100
246.300	-22.058	0.100
246.400	-11.918	0.100
246.500	-18.143	0.100
246.600	-10.023	0.100
246.700	-13.087	0.100
246.800	-15.571	0.100
246.900	-16.007	0.100
247.000	-21.666	0.100
247.100	-22.999	0.100
247.200	-1.149	0.100
247.300	-8.887	0.100
247.400	-5.035	0.100
247.500	-17.130	0.100
247.600	-17.628	0.100
247.700	-10.752	0.100
247.800	-26.854	0.100
247.900	-4.323	0.100
248.000	-14.549	0.100
248.100	-10.829	0.100
248.200	-14.443	0.100
248.300	-16.796	0.100
248.400	-21.128	0.100
248.500	-3.399	0.100
248.600	-17.067	0.100
248.700	-11.960	0.100
248.800	-6.466	0.100
248.900	-15.961	0.100
249.000	-19.205	0.100
249.100	-14.269	0.100
249.200	-6.216	0.100
249.300	-13.158	0.100
249.400	-19.999	0.100
249.500	-14.093	0.100
249.600	-9.543	0.100
249.700	-4.724	0.100
249.800	-15.640	0.100
249.900	-10.752	0.100
250.000	-17.558	0.100
250.100	-15.578	0.100
250.200	-11.774	0.100
250.300	-6.693	0.100
250.400	3.242	0.100
250.500	-15.572	0.100
250.600	-18.466	0.100
250.700	-35.140	0.100
250.800	-18.465	0.100
250.900	-21.783	0.100
251.000	-10.133	0.100
251.100	-1.673	0.100
251.200	-16.155	0.100
251.300	-5.613	0.100
251.400	-22.978	0.100
251.500	-19.123	0.100
251.600	-18.613	0.100
251.700	-22.454	0.100
251.800	-15.416	0.100
251.900	-8.174	0.100
252.000	-16.820	0.100
252.100	-16.832	0.100
252.200	-21.133	0.100
252.300	-13.991	0.100
252.400	-24.250	0.100
252.500	-6.958	0.100
252.600	-8.509	0.100
252.700	-21.824	0.100
252.800	-6.947	0.100
252.900	-25.198	0.100
253.000	-12.750	0.100
253.100	-26.552	0.100
253.200	-20.352	0.100
253.300	-7.045	0.100
253.400	-5.767	0.100
253.500	-13.231	0.100
253.600	-16.996	0.100
253.700	-24.947	0.100
253.800	-21.153	0.100
253.900	-26.620	0.100
254.000	-25.200	0.100
254.100	-21.273	0.100
254.200	-12.733	0.100
254.300	-12.135	0.100
254.400	-9.365	0.100
254.500	-20.152	0.100
254.600	-11.582	0.100
254.700	-17.713	0.100
254.800	-19.247	0.100
254.900	-22.737	0.100
255.000	-8.554	0.100
255.100	-14.243	0.100
255.200	-15.128	0.100
255.300	-16.788	0.100
255.400	-20.463	0.100
255.500	-18.290	0.100
255.600	-15.541	0.100
255.700	-15.600	0.100
255.800	-32.667	0.100
255.900	-21.676	0.100
256.000	-12.995	0.100
256.100	-8.757	0.100
256.200	-19.767	0.100
256.300	-21.371	0.100
256.400	-15.135	0.100
256.500	-12.039	0.100
256.600	-26.944	0.100
256.700	-18.401	0.100
256.800	-16.608	0.100
256.900	-16.571	0.100
257.000	-29.324	0.100
257.100	-8.975	0.100
257.200	-23.747	0.100
257.300	-18.193	0.100
257.400	-16.409	0.100
257.500	-21.684	0.100
257.600	-6.385	0.100
257.700	-23.371	0.100
257.800	-25.871	0.100
257.900	-15.049	0.100
258.000	-15.437	0.100
258.100	-24.351	0.100
258.200	-18.621	0.100
258.300	-18.109	0.100
258.400	-34.385	0.100
258.500	-16.525	0.100
258.600	-24.875	0.100
258.700	-27.761	0.100
258.800	-24.211	0.100
258.900	-17.885	0.100
259.000	-34.266	0.100
259.100	-20.926	0.100
259.200	-16.015	0.100
259.300	-27.987	0.100
259.400	-21.455	0.100
259.500	-22.292	0.100
259.600	-13.032	0.100
259.700	-33.291	0.100
259.800	-22.343	0.100
259.900	-15.054	0.100
260.000	-27.146	0.100
260.100	-25.480	0.100
260.200	-17.424	0.100
260.300	-24.386	0.100
260.400	-27.106	0.100
260.500	-33.354	0.100
260.600	-20.422	0.100
260.700	-24.491	0.100
260.800	-23.926	0.100
260.900	-24.097	0.100
261.000	-19.029	0.100
261.100	-24.739	0.100
261.200	-30.575	0.100
261.300	-28.350	0.100
261.400	-21.624	0.100
261.500	-38.005	0.100
261.600	-16.836	0.100
261.700	-9.212	0.100
261.800	-12.670	0.100
261.900	-28.561	0.100
262.000	-26.982	0.100
262.100	-23.321	0.100
262.200	-26.052	0.100
262.300	-10.470	0.100
262.400	-26.915	0.100
262.500	-25.456	0.100
262.600	-34.235	0.100
262.700	-18.832	0.100
262.800	-16.426	0.100
262.900	-12.465	0.100
263.000	-21.216	0.100
263.100	-23.588	0.100
263.200	-17.355	0.100
263.300	-28.534	0.100
263.400	-19.025	0.100
263.500	-34.893	0.100
263.600	-19.119	0.100
263.700	-20.907	0.100
263.800	-21.678	0.100
263.900	-35.106	0.100
264.000	-29.973	0.100
264.100	-16.565	0.100
264.200	-26.334	0.100
264.300	-23.708	0.100
264.400	-14.107	0.100
264.500	-25.482	0.100
264.600	-20.047	0.100
264.700	-31.410	0.100
264.800	-28.227	0.100
264.900	-25.528	0.100
265.000	-32.054	0.100
265.100	-32.455	0.100
265.200	-17.505	0.100
265.300	-23.322	0.100
265.400	-24.672	0.100
265.500	-23.325	0.100
265.600	-17.114	0.100
265.700	-27.680	0.100
265.800	-33.496	0.100
265.900	-28.461	0.100
266.000	-24.735	0.100
266.100	-19.639	0.100
266.200	-24.651	0.100
266.300	-30.417	0.100
266.400	-22.532	0.100
266.500	-28.774	0.100
266.600	-26.033	0.100
266.700	-31.782	0.100
266.800	-23.164	0.100
266.900	-20.385	0.100
267.000	-40.700	0.100
267.100	-38.884	0.100
267.200	-37.749	0.100
267.300	-28.151	0.100
267.400	-31.245	0.100
267.500	-26.832	0.100
267.600	-28.013	0.100
267.700	-32.974	0.100
267.800	-29.850	0.100
267.900	-37.675	0.100
268.000	-21.342	0.100
268.100	-23.988	0.100
268.200	-20.814	0.100
268.300	-28.249	0.100
268.400	-22.473	0.100
268.500	-26.217	0.100
268.600	-32.913	0.100
268.700	-23.724	0.100
268.800	-36.377	0.100
268.900	-36.624	0.100
269.000	-29.525	0.100
269.100	-19.920	0.100
269.200	-32.287	0.100
269.300	-38.414	0.100
269.400	-37.125	0.100
269.500	-20.817	0.100
269.600	-28.485	0.100
269.700	-32.094	0.100
269.800	-14.190	0.100
269.900	-35.745	0.100
270.000	-25.464	0.100
270.100	-43.479	0.100
270.200	-30.907	0.100
270.300	-19.084	0.100
270.400	-22.380	0.100
270.500	-33.792	0.100
270.600	-36.545	0.100
270.700	-37.496	0.100
270.800	-21.825	0.100
270.900	-27.136	0.100
271.000	-24.048	0.100
271.100	-32.682	0.100
271.200	-29.035	0.100
271.300	-34.261	0.100
271.400	-30.782	0.100
271.500	-28.869	0.100
271.600	-28.192	0.100
271.700	-27.383	0.100
271.800	-36.541	0.100
271.900	-29.901	0.100
272.000	-36.539	0.100
272.100	-33.820	0.100
272.200	-30.345	0.100
272.300	-28.837	0.100
272.400	-27.277	0.100
272.500	-39.994	0.100
272.600	-30.450	0.100
272.700	-25.238	0.100
272.800	-39.050	0.100
272.900	-36.321	0.100
273.000	-39.172	0.100
273.100	-32.708	0.100
273.200	-26.382	0.100
273.300	-25.700	0.100
273.400	-37.121	0.100
273.500	-36.601	0.100
273.600	-35.111	0.100
273.700	-26.344	0.100
273.800	-29.560	0.100
273.900	-33.583	0.100
274.000	-34.367	0.100
274.100	-26.111	0.100
274.200	-40.294	0.100
274.300	-28.690	0.100
274.400	-28.677	0.100
274.500	-38.243	0.100
274.600	-26.811	0.100
274.700	-28.247	0.100
274.800	-31.040	0.100
274.900	-28.859	0.100
275.000	-39.265	0.100
275.100	-38.394	0.100
275.200	-38.577	0.100
275.300	-24.532	0.100
275.400	-31.897	0.100
275.500	-39.697	0.100
275.600	-41.219	0.100
275.700	-28.262	0.100
275.800	-41.429	0.100
275.900	-34.782	0.100
276.000	-39.095	0.100
276.100	-31.266	0.100
276.200	-37.550	0.100
276.300	-33.060	0.100
276.400	-32.314	0.100
276.500	-37.077	0.100
276.600	-40.085	0.100
276.700	-38.868	0.100
276.800	-43.983	0.100
276.900	-43.141	0.100
277.000	-29.082	0.100
277.100	-31.210	0.100
277.200	-34.604	0.100
277.300	-53.903	0.100
277.400	-34.555	0.100
277.500	-33.160	0.100
277.600	-30.911	0.100
277.700	-29.625	0.100
277.800	-32.219	0.100
277.900	-28.273	0.100
278.000	-40.213	0.100
278.100	-36.767	0.100
278.200	-38.517	0.100
278.300	-27.044	0.100
278.400	-43.401	0.100
278.500	-38.000	0.100
278.600	-28.903	0.100
278.700	-36.980	0.100
278.800	-44.261	0.100
278.900	-40.249	0.100
279.000	-21.437	0.100
279.100	-28.986	0.100
279.200	-43.818	0.100
279.300	-35.740	0.100
279.400	-28.609	0.100
279.500	-36.957	0.100
279.600	-38.342	0.100
279.700	-34.806	0.100
279.800	-38.417	0.100
279.900	-27.524	0.100
280.000	-29.685	0.100
280.100	-26.566	0.100
280.200	-41.390	0.100
280.300	-41.719	0.100
280.400	-33.601	0.100
280.500	-24.196	0.100
280.600	-28.832	0.100
280.700	-36.648	0.100
280.800	-39.425	0.100
280.900	-41.466	0.100
281.000	-44.813	0.100
281.100	-42.104	0.100
281.200	-36.632	0.100
281.300	-30.524	0.100
281.400	-32.568	0.100
281.500	-45.301	0.100
281.600	-38.880	0.100
281.700	-37.031	0.100
281.800	-27.297	0.100
281.900	-42.353	0.100
282.000	-32.627	0.100
282.100	-28.935	0.100
282.200	-35.489	0.100
282.300	-30.279	0.100
282.400	-33.076	0.100
282.500	-52.953	0.100
282.600	-22.493	0.100
282.700	-36.502	0.100
282.800	-39.705	0.100
282.900	-27.760	0.100
283.000	-40.119	0.100
283.100	-33.783	0.100
283.200	-41.526	0.100
283.300	-42.014	0.100
283.400	-38.135	0.100
283.500	-32.993	0.100
283.600	-31.082	0.100
283.700	-40.879	0.100
283.800	-44.582	0.100
283.900	-37.693	0.100
284.000	-28.408	0.100
284.100	-34.470	0.100
284.200	-24.643	0.100
284.300	-34.833	0.100
284.400	-28.110	0.100
284.500	-30.709	0.100
284.600	-38.070	0.100
284.700	-33.908	0.100
284.800	-43.271	0.100
284.900	-44.433	0.100
285.000	-32.625	0.100
285.100	-31.609	0.100
285.200	-40.011	0.100
285.300	-41.526	0.100
285.400	-42.183	0.100
285.500	-36.676	0.100
285.600	-29.440	0.100
285.700	-51.189	0.100
285.800	-41.577	0.100
285.900	-43.452	0.100
286.000	-22.715	0.100
286.100	-36.190	0.100
286.200	-37.621	0.100
286.300	-34.881	0.100
286.400	-32.047	0.100
286.500	-29.305	0.100
286.600	-25.774	0.100
286.700	-21.956	0.100
286.800	-31.811	0.100
286.900	-36.559	0.100
287.000	-40.327	0.100
287.100	-38.191	0.100
287.200	-22.184	0.100
287.300	-42.523	0.100
287.400	-40.678	0.100
287.500	-30.995	0.100
287.600	-34.925	0.100
287.700	-41.060	0.100
287.800	-32.907	0.100
287.900	-30.115	0.100
288.000	-35.152	0.100
288.100	-37.986	0.100
288.200	-41.467	0.100
288.300	-41.894	0.100
288.400	-35.037	0.100
288.500	-29.476	0.100
288.600	-40.153	0.100
288.700	-43.848	0.100
288.800	-38.753	0.100
288.900	-27.144	0.100
289.000	-35.485	0.100
289.100	-27.412	0.100
289.200	-20.413	0.100
289.300	-28.247	0.100
289.400	-29.994	0.100
289.500	-35.507	0.100
289.600	-25.128	0.100
289.700	-41.193	0.100
289.800	-31.300	0.100
289.900	-30.905	0.100
290.000	-29.069	0.100
290.100	-29.357	0.100
290.200	-36.727	0.100
290.300	-25.009	0.100
290.400	-32.549	0.100
290.500	-43.330	0.100
290.600	-40.621	0.100
290.700	-18.357	0.100
290.800	-28.996	0.100
290.900	-23.760	0.100
291.000	-39.087	0.100
291.100	-35.256	0.100
291.200	-36.537	0.100
291.300	-28.243	0.100
291.400	-36.976	0.100
291.500	-39.494	0.100
291.600	-25.898	0.100
291.700	-26.946	0.100
291.800	-24.109	0.100
291.900	-25.581	0.100
292.000	-37.314	0.100
292.100	-44.986	0.100
292.200	-30.563	0.100
292.300	-32.005	0.100
292.400	-30.824	0.100
292.500	-30.789	0.100
292.600	-29.405	0.100
292.700	-34.722	0.100
292.800	-35.390	0.100
292.900	-30.920	0.100
293.000	-38.959	0.100
293.100	-26.915	0.100
293.200	-34.090	0.100
293.300	-35.117	0.100
293.400	-35.965	0.100
293.500	-31.556	0.100
293.600	-45.688	0.100
293.700	-26.710	0.100
293.800	-20.172	0.100
293.900	-26.257	0.100
294.000	-35.562	0.100
294.100	-43.387	0.100
294.200	-23.213	0.100
294.300	-25.247	0.100
294.400	-22.016	0.100
294.500	-30.721	0.100
294.600	-32.520	0.100
294.700	-34.784	0.100
294.800	-32.071	0.100
294.900	-43.664	0.100
295.000	-35.699	0.100
295.100	-31.258	0.100
295.200	-29.591	0.100
295.300	-24.640	0.100
295.400	-31.277	0.100
295.500	-32.590	0.100
295.600	-40.634	0.100
295.700	-30.745	0.100
295.800	-26.415	0.100
295.900	-35.824	0.100
296.000	-35.595	0.100
296.100	-32.352	0.100
296.200	-33.902	0.100
296.300	-33.149	0.100
296.400	-29.811	0.100
296.500	-30.037	0.100
296.600	-38.115	0.100
296.700	-37.478	0.100
296.800	-29.058	0.100
296.900	-31.977	0.100
297.000	-38.473	0.100
297.100	-36.110	0.100
297.200	-28.428	0.100
297.300	-24.519	0.100
297.400	-36.655	0.100
297.500	-28.879	0.100
297.600	-24.677	0.100
297.700	-23.317	0.100
297.800	-33.333	0.100
297.900	-33.016	0.100
298.000	-24.380	0.100
298.100	-30.484	0.100
298.200	-26.022	0.100
298.300	-22.864	0.100
298.400	-22.635	0.100
298.500	-23.928	0.100
298.600	-33.380	0.100
298.700	-35.706	0.100
298.800	-20.589	0.100
298.900	-20.529	0.100
299.000	-33.763	0.100
299.100	-31.054	0.100
299.200	-38.950	0.100
299.300	-35.503	0.100
299.400	-22.836	0.100
299.500	-17.601	0.100
299.600	-30.993	0.100
299.700	-36.180	0.100
299.800	-28.655	0.100
299.900	-30.968	0.100
300.000	-34.782	0.100
300.100	-28.146	0.100
300.200	-26.630	0.100
300.300	-29.723	0.100
300.400	-23.123	0.100
300.500	-25.465	0.100
300.600	-30.944	0.100
300.700	-35.449	0.100
300.800	-33.681	0.100
300.900	-26.409	0.100
301.000	-31.625	0.100
301.100	-22.085	0.100
301.200	-26.374	0.100
301.300	-15.127	0.100
301.400	-30.917	0.100
301.500	-38.928	0.100
301.600	-35.082	0.100
301.700	-28.788	0.100
301.800	-27.706	0.100
301.900	-26.995	0.100
302.000	-27.837	0.100
302.100	-33.092	0.100
302.200	-28.140	0.100
302.300	-34.178	0.100
302.400	-22.579	0.100
302.500	-34.312	0.100
302.600	-32.381	0.100
302.700	-27.020	0.100
302.800	-24.032	0.100
302.900	-28.814	0.100
303.000	-47.586	0.100
303.100	-29.603	0.100
303.200	-34.525	0.100
303.300	-32.573	0.100
303.400	-38.447	0.100
303.500	-19.137	0.100
303.600	-22.920	0.100
303.700	-25.345	0.100
303.800	-22.124	0.100
303.900	-24.853	0.100
304.000	-17.948	0.100
304.100	-26.426	0.100
304.200	-22.359	0.100
304.300	-28.519	0.100
304.400	-40.727	0.100
304.500	-38.836	0.100
304.600	-25.304	0.100
304.700	-22.031	0.100
304.800	-29.021	0.100
304.900	-25.513	0.100
305.000	-27.513	0.100
305.100	-26.380	0.100
305.200	-34.101	0.100
305.300	-26.632	0.100
305.400	-37.068	0.100
305.500	-34.172	0.100
305.600	-35.492	0.100
305.700	-25.226	0.100
305.800	-25.355	0.100
305.900	-33.580	0.100
306.000	-16.716	0.100
306.100	-24.348	0.100
306.200	-25.435	0.100
306.300	-22.203	0.100
306.400	-37.061	0.100
306.500	-33.246	0.100
306.600	-30.415	0.100
306.700	-25.289	0.100
306.800	-14.966	0.100
306.900	-18.149	0.100
307.000	-20.831	0.100
307.100	-27.722	0.100
307.200	-28.618	0.100
307.300	-29.274	0.100
307.400	-30.599	0.100
307.500	-23.364	0.100
307.600	-25.753	0.100
307.700	-28.015	0.100
307.800	-35.609	0.100
307.900	-25.756	0.100
308.000	-18.460	0.100
308.100	-28.634	0.100
308.200	-26.079	0.100
308.300	-29.488	0.100
308.400	-26.208	0.100
308.500	-27.104	0.100
308.600	-33.874	0.100
308.700	-26.110	0.100
308.800	-33.477	0.100
308.900	-27.488	0.100
309.000	-23.475	0.100
309.100	-35.757	0.100
309.200	-31.829	0.100
309.300	-17.469	0.100
309.400	-20.054	0.100
309.500	-36.991	0.100
309.600	-30.725	0.100
309.700	-27.149	0.100
309.800	-22.777	0.100
309.900	-27.169	0.100
310.000	-21.413	0.100
310.100	-28.996	0.100
310.200	-35.986	0.100
310.300	-23.450	0.100
310.400	-28.575	0.100
310.500	-18.602	0.100
310.600	-22.425	0.100
310.700	-24.689	0.100
310.800	-31.924	0.100
310.900	-26.579	0.100
311.000	-21.407	0.100
311.100	-24.947	0.100
311.200	-19.879	0.100
311.300	-22.034	0.100
311.400	-26.539	0.100
311.500	-22.743	0.100
311.600	-33.355	0.100
311.700	-11.419	0.100
311.800	-18.793	0.100
311.900	-30.375	0.100
312.000	-24.485	0.100
312.100	-22.859	0.100
312.200	-20.101	0.100
312.300	-4.158	0.100
312.400	-21.679	0.100
312.500	-25.842	0.100
312.600	-28.455	0.100
312.700	-24.136	0.100
312.800	-31.259	0.100
312.900	-33.284	0.100
313.000	-16.856	0.100
313.100	-22.739	0.100
313.200	-24.229	0.100
313.300	-24.363	0.100
313.400	-27.917	0.100
313.500	-24.892	0.100
313.600	-23.384	0.100
313.700	-25.107	0.100
313.800	-22.883	0.100
313.900	-24.309	0.100
314.000	-20.047	0.100
314.100	-26.516	0.100
314.200	-23.912	0.100
314.300	-23.025	0.100
314.400	-12.723	0.100
314.500	-19.699	0.100
314.600	-13.294	0.100
314.700	-19.999	0.100
314.800	-18.167	0.100
314.900	-19.398	0.100
315.000	-23.676	0.100
315.100	-33.040	0.100
315.200	-25.143	0.100
315.300	-23.519	0.100
315.400	-17.344	0.100
315.500	-19.113	0.100
315.600	-18.268	0.100
315.700	-16.743	0.100
315.800	-12.181	0.100
315.900	-30.115	0.100
316.000	-31.001	0.100
316.100	-28.131	0.100
316.200	-22.261	0.100
316.300	-34.899	0.100
316.400	-23.399	0.100
316.500	-21.223	0.100
316.600	-26.504	0.100
316.700	-18.589	0.100
316.800	-25.355	0.100
316.900	-18.341	0.100
317.000	-11.146	0.100
317.100	-21.858	0.100
317.200	-27.680	0.100
317.300	-26.656	0.100
317.400	-22.642	0.100
317.500	-14.991	0.100
317.600	-18.614	0.100
317.700	-29.265	0.100
317.800	-22.274	0.100
317.900	-23.580	0.100
318.000	-21.706	0.100
318.100	-29.301	0.100
318.200	-27.903	0.100
318.300	-24.115	0.100
318.400	-18.237	0.100
318.500	-22.465	0.100
318.600	-28.498	0.100
318.700	-16.182	0.100
318.800	-14.662	0.100
318.900	-22.244	0.100
319.000	-31.205	0.100
319.100	-23.591	0.100
319.200	-22.448	0.100
319.300	-26.132	0.100
319.400	-28.465	0.100
319.500	-21.452	0.100
319.600	-26.780	0.100
319.700	-22.848	0.100
319.800	-18.555	0.100
319.900	-28.460	0.100
320.000	-21.018	0.100
320.100	-14.986	0.100
320.200	-19.482	0.100
320.300	-16.204	0.100
320.400	-24.666	0.100
320.500	-25.733	0.100
320.600	-27.810	0.100
320.700	-21.238	0.100
320.800	-24.898	0.100
320.900	-31.794	0.100
321.000	-25.261	0.100
321.100	-27.266	0.100
321.200	-18.614	0.100
321.300	-23.575	0.100
321.400	-23.279	0.100
321.500	-28.177	0.100
321.600	-22.661	0.100
321.700	-29.816	0.100
321.800	-13.986	0.100
321.900	-23.211	0.100
322.000	-27.059	0.100
322.100	-23.040	0.100
322.200	-10.399	0.100
322.300	-16.891	0.100
322.400	-16.551	0.100
322.500	-25.054	0.100
322.600	-16.687	0.100
322.700	-21.373	0.100
322.800	-20.948	0.100
322.900	-30.446	0.100
323.000	-25.926	0.100
323.100	-20.625	0.100
323.200	-26.463	0.100
323.300	-19.801	0.100
323.400	-18.342	0.100
323.500	-16.990	0.100
323.600	-19.673	0.100
323.700	-22.912	0.100
323.800	-21.938	0.100
323.900	-40.352	0.100
324.000	-19.876	0.100
324.100	-21.380	0.100
324.200	-19.252	0.100
324.300	-14.791	0.100
324.400	-15.407	0.100
324.500	-20.919	0.100
324.600	-17.812	0.100
324.700	-19.923	0.100
324.800	-23.432	0.100
324.900	-21.652	0.100
325.000	-31.968	0.100
325.100	-27.103	0.100
325.200	-11.233	0.100
325.300	-22.660	0.100
325.400	-16.912	0.100
325.500	-21.531	0.100
325.600	-15.018	0.100
325.700	-9.406	0.100
325.800	-32.216	0.100
325.900	-25.651	0.100
326.000	-25.054	0.100
326.100	-29.691	0.100
326.200	-18.478	0.100
326.300	-23.598	0.100
326.400	-33.048	0.100
326.500	-21.674	0.100
326.600	-24.662	0.100
326.700	-26.893	0.100
326.800	-20.231	0.100
326.900	-13.873	0.100
327.000	-24.139	0.100
327.100	-21.590	0.100
327.200	-19.215	0.100
327.300	-16.589	0.100
327.400	-22.165	0.100
327.500	-25.527	0.100
327.600	-18.096	0.100
327.700	-17.224	0.100
327.800	-34.798	0.100
327.900	-17.544	0.100
328.000	-17.033	0.100
328.100	-24.696	0.100
328.200	-18.064	0.100
328.300	-18.151	0.100
328.400	-15.608	0.100
328.500	-20.993	0.100
328.600	-14.230	0.100
328.700	-30.607	0.100
328.800	-26.643	0.100
328.900	-14.665	0.100
329.000	-28.274	0.100
329.100	-21.717	0.100
329.200	-19.551	0.100
329.300	-19.103	0.100
329.400	-25.188	0.100
329.500	-25.085	0.100
329.600	-28.120	0.100
329.700	-27.200	0.100
329.800	-16.730	0.100
329.900	-7.853	0.100
330.000	-17.702	0.100
330.100	-23.620	0.100
330.200	-30.238	0.100
330.300	-14.432	0.100
330.400	-4.733	0.100
330.500	-8.812	0.100
330.600	-10.789	0.100
330.700	4.388	0.100
330.800	1.124	0.100
330.900	14.907	0.100
331.000	-0.450	0.100
331.100	26.224	0.100
331.200	28.356	0.100
331.300	23.265	0.100
331.400	28.477	0.100
331.500	21.861	0.100
331.600	27.980	0.100
331.700	28.482	0.100
331.800	28.342	0.100
331.900	21.187	0.100
332.000	21.040	0.100
332.100	12.490	0.100
332.200	29.294	0.100
332.300	35.727	0.100
332.400	29.238	0.100
332.500	46.528	0.100
332.600	23.654	0.100
332.700	40.252	0.100
332.800	33.914	0.100
332.900	40.221	0.100
333.000	42.812	0.100
333.100	35.707	0.100
333.200	29.356	0.100
333.300	45.259	0.100
333.400	35.076	0.100
333.500	33.413	0.100
333.600	46.024	0.100
333.700	40.533	0.100
333.800	39.765	0.100
333.900	39.210	0.100
334.000	40.059	0.100
334.100	38.936	0.100
334.200	30.182	0.100
334.300	41.325	0.100
334.400	40.496	0.100
334.500	37.711	0.100
334.600	27.758	0.100
334.700	43.861	0.100
334.800	37.202	0.100
334.900	42.581	0.100
335.000	44.082	0.100
335.100	42.183	0.100
335.200	39.790	0.100
335.300	35.863	0.100
335.400	49.605	0.100
335.500	42.253	0.100
335.600	37.385	0.100
335.700	33.123	0.100
335.800	34.762	0.100
335.900	32.276	0.100
336.000	29.758	0.100
336.100	33.989	0.100
336.200	33.367	0.100
336.300	37.847	0.100
336.400	32.200	0.100
336.500	31.610	0.100
336.600	31.160	0.100
336.700	33.204	0.100
336.800	30.616	0.100
336.900	41.841	0.100
337.000	37.093	0.100
337.100	28.872	0.100
337.200	27.615	0.100
337.300	42.632	0.100
337.400	44.006	0.100
337.500	38.564	0.100
337.600	28.477	0.100
337.700	27.982	0.100
337.800	31.922	0.100
337.900	35.049	0.100
338.000	14.482	0.100
338.100	30.005	0.100
338.200	29.697	0.100
338.300	35.699	0.100
338.400	25.429	0.100
338.500	36.340	0.100
338.600	37.052	0.100
338.700	32.125	0.100
338.800	39.643	0.100
338.900	38.680	0.100
339.000	34.940	0.100
339.100	43.997	0.100
339.200	20.562	0.100
339.300	38.791	0.100
339.400	42.456	0.100
339.500	39.836	0.100
339.600	34.379	0.100
339.700	36.244	0.100
339.800	27.822	0.100
339.900	17.266	0.100
340.000	37.262	0.100
340.100	45.796	0.100
340.200	31.063	0.100
340.300	38.338	0.100
340.400	26.421	0.100
340.500	33.790	0.100
340.600	27.294	0.100
340.700	29.054	0.100
340.800	35.264	0.100
340.900	38.609	0.100
341.000	35.891	0.100
341.100	38.781	0.100
341.200	34.952	0.100
341.300	38.250	0.100
341.400	44.686	0.100
341.500	35.040	0.100
341.600	31.425	0.100
341.700	42.528	0.100
341.800	41.774	0.100
341.900	31.493	0.100
342.000	31.563	0.100
342.100	31.077	0.100
342.200	39.457	0.100
342.300	40.212	0.100
342.400	32.093	0.100
342.500	31.937	0.100
342.600	30.546	0.100
342.700	25.480	0.100
342.800	39.036	0.100
342.900	29.540	0.100
343.000	33.425	0.100
343.100	34.645	0.100
343.200	29.568	0.100
343.300	24.913	0.100
343.400	42.451	0.100
343.500	28.077	0.100
343.600	42.499	0.100
343.700	41.059	0.100
343.800	38.100	0.100
343.900	35.675	0.100
344.000	36.364	0.100
344.100	33.927	0.100
344.200	41.473	0.100
344.300	35.289	0.100
344.400	31.923	0.100
344.500	37.882	0.100
344.600	29.510	0.100
344.700	38.042	0.100
344.800	37.204	0.100
344.900	41.291	0.100
345.000	21.644	0.100
345.100	41.009	0.100
345.200	46.246	0.100
345.300	32.154	0.100
345.400	39.069	0.100
345.500	35.241	0.100
345.600	32.239	0.100
345.700	38.846	0.100
345.800	41.211	0.100
345.900	26.589	0.100
346.000	49.626	0.100
346.100	44.527	0.100
346.200	27.960	0.100
346.300	39.018	0.100
346.400	36.557	0.100
346.500	34.103	0.100
346.600	44.225	0.100
346.700	47.987	0.100
346.800	48.262	0.100
346.900	41.347	0.100
347.000	40.174	0.100
347.100	42.324	0.100
347.200	54.424	0.100
347.300	50.059	0.100
347.400	36.484	0.100
347.500	36.220	0.100
347.600	37.678	0.100
347.700	51.370	0.100
347.800	53.105	0.100
347.900	41.533	0.100
348.000	39.923	0.100
348.100	52.643	0.100
348.200	43.430	0.100
348.300	44.073	0.100
348.400	49.236	0.100
348.500	51.378	0.100
348.600	44.752	0.100
348.700	51.145	0.100
348.800	50.255	0.100
348.900	48.793	0.100
349.000	34.867	0.100
349.100	56.632	0.100
349.200	57.469	0.100
349.300	53.850	0.100
349.400	44.307	0.100
349.500	51.813	0.100
349.600	46.479	0.100
349.700	50.471	0.100
349.800	58.641	0.100
349.900	45.191	0.100
350.000	48.922	0.100
350.100	59.530	0.100
350.200	58.147	0.100
350.300	63.712	0.100
350.400	55.367	0.100
350.500	53.351	0.100
350.600	59.595	0.100
350.700	51.028	0.100
350.800	56.522	0.100
350.900	58.130	0.100
351.000	63.740	0.100
351.100	60.737	0.100
351.200	62.672	0.100
351.300	61.464	0.100
351.400	60.557	0.100
351.500	56.824	0.100
351.600	60.521	0.100
351.700	60.609	0.100
351.800	66.640	0.100
351.900	70.754	0.100
352.000	58.681	0.100
352.100	56.095	0.100
352.200	62.084	0.100
352.300	72.890	0.100
352.400	68.912	0.100
352.500	72.298	0.100
352.600	63.888	0.100
352.700	74.823	0.100
352.800	67.395	0.100
352.900	64.766	0.100
353.000	69.948	0.100
353.100	67.043	0.100
353.200	71.277	0.100
353.300	62.919	0.100
353.400	80.422	0.100
353.500	64.771	0.100
353.600	74.869	0.100
353.700	69.318	0.100
353.800	65.612	0.100
353.900	66.838	0.100
354.000	76.828	0.100
354.100	68.758	0.100
354.200	83.003	0.100
354.300	74.408	0.100
354.400	64.383	0.100
354.500	69.238	0.100
354.600	79.329	0.100
354.700	83.010	0.100
354.800	74.682	0.100
354.900	77.611	0.100
355.000	74.825	0.100
355.100	77.390	0.100
355.200	76.843	0.100
355.300	78.543	0.100
355.400	75.761	0.100
355.500	88.870	0.100
355.600	81.686	0.100
355.700	62.928	0.100
355.800	86.215	0.100
355.900	80.191	0.100
356.000	75.085	0.100
356.100	71.884	0.100
356.200	73.443	0.100
356.300	77.489	0.100
356.400	90.460	0.100
356.500	78.464	0.100
356.600	74.794	0.100
356.700	78.585	0.100
356.800	80.877	0.100
356.900	79.454	0.100
357.000	83.969	0.100
357.100	79.225	0.100
357.200	76.812	0.100
357.300	85.654	0.100
357.400	80.910	0.100
357.500	79.586	0.100
357.600	82.821	0.100
357.700	75.786	0.100
357.800	81.822	0.100
357.900	81.956	0.100
358.000	76.788	0.100
358.100	75.078	0.100
358.200	77.502	0.100
358.300	71.238	0.100
358.400	80.772	0.100
358.500	82.381	0.100
358.600	70.913	0.100
358.700	77.199	0.100
358.800	75.799	0.100
358.900	68.963	0.100
359.000	76.437	0.100
359.100	80.902	0.100
359.200	86.928	0.100
359.300	76.875	0.100
359.400	87.043	0.100
359.500	80.670	0.100
359.600	76.784	0.100
359.700	76.589	0.100
359.800	77.612	0.100
359.900	87.089	0.100
360.000	80.859	0.100
360.100	78.983	0.100
360.200	80.042	0.100
360.300	74.427	0.100
360.400	80.115	0.100
360.500	82.078	0.100
360.600	86.347	0.100
360.700	74.497	0.100
360.800	81.175	0.100
360.900	71.008	0.100
361.000	63.016	0.100
361.100	76.472	0.100
361.200	68.562	0.100
361.300	78.532	0.100
361.400	78.757	0.100
361.500	82.671	0.100
361.600	81.532	0.100
361.700	66.519	0.100
361.800	84.263	0.100
361.900	79.306	0.100
362.000	78.568	0.100
362.100	69.922	0.100
362.200	81.317	0.100
362.300	72.298	0.100
362.400	74.397	0.100
362.500	82.656	0.100
362.600	69.983	0.100
362.700	73.383	0.100
362.800	91.075	0.100
362.900	72.603	0.100
363.000	64.836	0.100
363.100	74.629	0.100
363.200	70.101	0.100
363.300	69.317	0.100
363.400	73.484	0.100
363.500	73.347	0.100
363.600	74.905	0.100
363.700	78.608	0.100
363.800	77.997	0.100
363.900	70.257	0.100
364.000	84.410	0.100
364.100	78.363	0.100
364.200	76.621	0.100
364.300	69.166	0.100
364.400	68.843	0.100
364.500	69.083	0.100
364.600	72.800	0.100
364.700	78.062	0.100
364.800	70.852	0.100
364.900	69.011	0.100
365.000	73.684	0.100
365.100	72.140	0.100
365.200	72.457	0.100
365.300	80.296	0.100
365.400	64.852	0.100
365.500	72.509	0.100
365.600	67.457	0.100
365.700	65.816	0.100
365.800	73.587	0.100
365.900	72.618	0.100
366.000	55.850	0.100
366.100	69.486	0.100
366.200	86.232	0.100
366.300	60.836	0.100
366.400	74.729	0.100
366.500	68.007	0.100
366.600	65.145	0.100
366.700	69.524	0.100
366.800	60.398	0.100
366.900	76.765	0.100
367.000	68.668	0.100
367.100	78.113	0.100
367.200	80.053	0.100
367.300	62.392	0.100
367.400	69.636	0.100
367.500	84.730	0.100
367.600	76.997	0.100
367.700	61.916	0.100
367.800	71.036	0.100
367.900	67.163	0.100
368.000	57.099	0.100
368.100	64.779	0.100
368.200	74.827	0.100
368.300	70.315	0.100
368.400	72.989	0.100
368.500	65.767	0.100
368.600	62.724	0.100
368.700	62.843	0.100
368.800	80.798	0.100
368.900	64.617	0.100
369.000	67.376	0.100
369.100	76.958	0.100
369.200	61.257	0.100
369.300	69.661	0.100
369.400	68.010	0.100
369.500	57.423	0.100
369.600	81.962	0.100
369.700	74.116	0.100
369.800	69.980	0.100
369.900	52.723	0.100
370.000	66.057	0.100
370.100	73.792	0.100
370.200	63.521	0.100
370.300	78.277	0.100
370.400	70.612	0.100
370.500	59.747	0.100
370.600	56.483	0.100
370.700	76.253	0.100
370.800	68.672	0.100
370.900	65.735	0.100
371.000	69.947	0.100
371.100	69.250	0.100
371.200	68.657	0.100
371.300	60.043	0.100
371.400	64.342	0.100
371.500	74.610	0.100
371.600	70.557	0.100
371.700	73.871	0.100
371.800	62.273	0.100
371.900	65.240	0.100
372.000	64.996	0.100
372.100	67.523	0.100
372.200	65.199	0.100
372.300	66.078	0.100
372.400	71.012	0.100
372.500	67.100	0.100
372.600	77.040	0.100
372.700	75.052	0.100
372.800	60.379	0.100
372.900	68.597	0.100
373.000	69.276	0.100
373.100	59.792	0.100
373.200	65.397	0.100
373.300	70.479	0.100
373.400	70.146	0.100
373.500	69.362	0.100
373.600	78.354	0.100
373.700	73.629	0.100
373.800	63.425	0.100
373.900	73.810	0.100
374.000	75.776	0.100
374.100	73.033	0.100
374.200	69.206	0.100
374.300	58.655	0.100
374.400	70.100	0.100
374.500	70.480	0.100
374.600	73.310	0.100
374.700	68.961	0.100
374.800	59.994	0.100
374.900	77.433	0.100
375.000	67.349	0.100
375.100	69.107	0.100
375.200	73.766	0.100
375.300	68.049	0.100
375.400	62.753	0.100
375.500	63.305	0.100
375.600	59.690	0.100
375.700	66.356	0.100
375.800	72.635	0.100
375.900	76.202	0.100
376.000	80.422	0.100
376.100	59.909	0.100
376.200	56.679	0.100
376.300	71.767	0.100
376.400	62.811	0.100
376.500	66.887	0.100
376.600	65.532	0.100
376.700	59.000	0.100
376.800	67.305	0.100
376.900	74.562	0.100
377.000	53.324	0.100
377.100	53.212	0.100
377.200	65.863	0.100
377.300	55.935	0.100
377.400	75.555	0.100
377.500	73.197	0.100
377.600	71.179	0.100
377.700	49.381	0.100
377.800	60.442	0.100
377.900	65.802	0.100
378.000	66.339	0.100
378.100	63.728	0.100
378.200	61.421	0.100
378.300	62.148	0.100
378.400	63.363	0.100
378.500	78.933	0.100
378.600	68.834	0.100
378.700	79.531	0.100
378.800	52.997	0.100
378.900	65.252	0.100
379.000	60.079	0.100
379.100	54.776	0.100
379.200	69.203	0.100
379.300	66.516	0.100
379.400	70.026	0.100
379.500	65.476	0.100
379.600	64.482	0.100
379.700	62.192	0.100
379.800	63.963	0.100
379.900	80.121	0.100
380.000	62.534	0.100
380.100	63.279	0.100
380.200	64.180	0.100
380.300	73.063	0.100
380.400	64.970	0.100
380.500	55.003	0.100
380.600	71.182	0.100
380.700	69.461	0.100
380.800	64.070	0.100
380.900	64.139	0.100
381.000	53.399	0.100
381.100	66.423	0.100
381.200	56.881	0.100
381.300	63.170	0.100
381.400	64.978	0.100
381.500	61.604	0.100
381.600	71.920	0.100
381.700	69.080	0.100
381.800	52.163	0.100
381.900	66.600	0.100
382.000	72.951	0.100
382.100	70.888	0.100
382.200	62.264	0.100
382.300	73.174	0.100
382.400	64.695	0.100
382.500	58.482	0.100
382.600	64.972	0.100
382.700	71.961	0.100
382.800	73.091	0.100
382.900	73.961	0.100
383.000	61.109	0.100
383.100	52.156	0.100
383.200	61.963	0.100
383.300	61.442	0.100
383.400	67.145	0.100
383.500	64.423	0.100
383.600	60.332	0.100
383.700	72.289	0.100
383.800	64.822	0.100
383.900	56.533	0.100
384.000	61.203	0.100
384.100	60.415	0.100
384.200	61.612	0.100
384.300	59.744	0.100
384.400	83.210	0.100
384.500	63.742	0.100
384.600	58.100	0.100
384.700	56.035	0.100
384.800	65.072	0.100
384.900	62.390	0.100
385.000	71.111	0.100
385.100	62.574	0.100
385.200	58.627	0.100
385.300	58.784	0.100
385.400	64.690	0.100
385.500	66.658	0.100
385.600	57.244	0.100
385.700	64.869	0.100
385.800	69.001	0.100
385.900	57.759	0.100
386.000	59.766	0.100
386.100	57.931	0.100
386.200	73.995	0.100
386.300	66.623	0.100
386.400	65.890	0.100
386.500	63.762	0.100
386.600	60.162	0.100
386.700	61.037	0.100
386.800	66.542	0.100
386.900	60.591	0.100
387.000	79.901	0.100
387.100	73.990	0.100
387.200	51.522	0.100
387.300	51.517	0.100
387.400	62.098	0.100
387.500	63.072	0.100
387.600	57.398	0.100
387.700	52.865	0.100
387.800	67.356	0.100
387.900	73.662	0.100
388.000	65.432	0.100
388.100	53.223	0.100
388.200	74.011	0.100
388.300	70.802	0.100
388.400	64.974	0.100
388.500	59.707	0.100
388.600	54.315	0.100
388.700	56.230	0.100
388.800	64.653	0.100
388.900	59.104	0.100
389.000	56.846	0.100
389.100	60.607	0.100
389.200	63.172	0.100
389.300	60.380	0.100
389.400	58.810	0.100
389.500	64.495	0.100
389.600	64.409	0.100
389.700	68.709	0.100
389.800	62.298	0.100
389.900	64.317	0.100
390.000	73.946	0.100
390.100	44.176	0.100
390.200	51.086	0.100
390.300	52.556	0.100
390.400	55.299	0.100
390.500	53.402	0.100
390.600	61.767	0.100
390.700	22.694	0.100
390.800	42.002	0.100
390.900	25.576	0.100
391.000	24.627	0.100
391.100	20.322	0.100
391.200	24.955	0.100
391.300	14.997	0.100
391.400	28.173	0.100
391.500	21.893	0.100
391.600	5.352	0.100
391.700	13.015	0.100
391.800	12.732	0.100
391.900	2.872	0.100
392.000	5.471	0.100
392.100	7.183	0.100
392.200	4.623	0.100
392.300	0.912	0.100
392.400	-11.395	0.100
392.500	-9.975	0.100
392.600	2.354	0.100
392.700	5.857	0.100
392.800	2.170	0.100
392.900	-7.513	0.100
393.000	-3.406	0.100
393.100	-11.953	0.100
393.200	3.557	0.100
393.300	-17.151	0.100
393.400	-14.259	0.100
393.500	-13.190	0.100
393.600	-16.513	0.100
393.700	-9.431	0.100
393.800	-14.386	0.100
393.900	-26.366	0.100
394.000	-21.946	0.100
394.100	-16.047	0.100
394.200	-7.787	0.100
394.300	-17.725	0.100
394.400	-3.724	0.100
394.500	-4.358	0.100
394.600	-22.209	0.100
394.700	-15.333	0.100
394.800	-7.995	0.100
394.900	-12.156	0.100
395.000	-18.524	0.100
395.100	-22.954	0.100
395.200	-19.344	0.100
395.300	-26.460	0.100
395.400	-17.853	0.100
395.500	-16.980	0.100
395.600	-27.098	0.100
395.700	-21.741	0.100
395.800	-22.920	0.100
395.900	-11.927	0.100
396.000	-26.931	0.100
396.100	-23.652	0.100
396.200	-15.979	0.100
396.300	-21.984	0.100
396.400	-13.067	0.100
396.500	-24.832	0.100
396.600	-11.762	0.100
396.700	-13.252	0.100
396.800	-19.719	0.100
396.900	-15.831	0.100
397.000	-12.087	0.100
397.100	-14.095	0.100
397.200	-16.792	0.100
397.300	-9.858	0.100
397.400	-4.627	0.100
397.500	-19.942	0.100
397.600	-23.407	0.100
397.700	-17.833	0.100
397.800	-35.344	0.100
397.900	-22.957	0.100
398.000	-3.015	0.100
398.100	-10.058	0.100
398.200	-19.792	0.100
398.300	-16.347	0.100
398.400	-12.650	0.100
398.500	-15.468	0.100
398.600	-11.698	0.100
398.700	-26.483	0.100
398.800	-22.911	0.100
398.900	-23.185	0.100
399.000	-13.029	0.100
399.100	-2.479	0.100
399.200	-17.286	0.100
399.300	-20.744	0.100
399.400	-24.331	0.100
399.500	-4.987	0.100
399.600	-13.461	0.100
399.700	-15.097	0.100
399.800	-21.941	0.100
399.900	-19.426	0.100
400.000	-14.039	0.100
400.100	-21.273	0.100
400.200	-17.550	0.100
400.300	-12.960	0.100
400.400	-18.839	0.100
400.500	-9.882	0.100
400.600	-19.938	0.100
400.700	-16.457	0.100
400.800	-13.633	0.100
400.900	-20.234	0.100
401.000	-27.277	0.100
401.100	-20.643	0.100
401.200	-15.868	0.100
401.300	-17.790	0.100
401.400	-17.909	0.100
401.500	-16.759	0.100
401.600	-10.036	0.100
401.700	-8.990	0.100
401.800	-0.317	0.100
401.900	-6.942	0.100
402.000	-21.422	0.100
402.100	-9.811	0.100
402.200	-27.013	0.100
402.300	-21.599	0.100
402.400	-22.127	0.100
402.500	-16.378	0.100
402.600	-15.588	0.100
402.700	-24.046	0.100
402.800	-19.185	0.100
402.900	-23.238	0.100
403.000	-6.614	0.100
403.100	-18.744	0.100
403.200	-16.218	0.100
403.300	-15.140	0.100
403.400	-14.885	0.100
403.500	-18.662	0.100
403.600	-15.792	0.100
403.700	-18.571	0.100
403.800	-5.649	0.100
403.900	-6.356	0.100
404.000	-18.302	0.100
404.100	-19.647	0.100
404.200	-22.011	0.100
404.300	-19.568	0.100
404.400	-19.009	0.100
404.500	-16.514	0.100
404.600	-16.800	0.100
404.700	-25.989	0.100
404.800	-22.425	0.100
404.900	-21.065	0.100
405.000	-26.429	0.100
405.100	-14.018	0.100
405.200	-18.066	0.100
405.300	-13.812	0.100
405.400	-33.637	0.100
405.500	-27.074	0.100
405.600	-18.788	0.100
405.700	-20.212	0.100
405.800	-25.433	0.100
405.900	-28.628	0.100
406.000	-19.805	0.100
406.100	-17.027	0.100
406.200	-18.445	0.100
406.300	-20.138	0.100
406.400	-4.453	0.100
406.500	-21.913	0.100
406.600	-31.236	0.100
406.700	-32.957	0.100
406.800	-16.021	0.100
406.900	-28.189	0.100
407.000	-15.013	0.100
407.100	-19.921	0.100
407.200	-26.637	0.100
407.300	-30.217	0.100
407.400	-25.299	0.100
407.500	-9.269	0.100
407.600	-24.441	0.100
407.700	-14.077	0.100
407.800	-19.945	0.100
407.900	-31.942	0.100
408.000	-29.661	0.100
408.100	-28.154	0.100
408.200	-23.355	0.100
408.300	-18.664	0.100
408.400	-19.143	0.100
408.500	-24.583	0.100
408.600	-25.117	0.100
408.700	-24.683	0.100
408.800	-28.537	0.100
408.900	-18.117	0.100
409.000	-33.213	0.100
409.100	-29.959	0.100
409.200	-17.675	0.100
409.300	-13.256	0.100
409.400	-26.352	0.100
409.500	-10.168	0.100
409.600	-24.921	0.100
409.700	-23.903	0.100
409.800	-29.285	0.100
409.900	-22.473	0.100
410.000	-27.504	0.100
410.100	-19.102	0.100
410.200	-28.117	0.100
410.300	-35.891	0.100
410.400	-26.206	0.100
410.500	-41.238	0.100
410.600	-34.716	0.100
410.700	-26.949	0.100
410.800	-24.898	0.100
410.900	-29.072	0.100
411.000	-18.360	0.100
411.100	-23.770	0.100
411.200	-25.905	0.100
411.300	-27.357	0.100
411.400	-24.403	0.100
411.500	-22.763	0.100
411.600	-29.455	0.100
411.700	-26.579	0.100
411.800	-32.315	0.100
411.900	-25.841	0.100
412.000	-25.764	0.100
412.100	-28.638	0.100
412.200	-11.986	0.100
412.300	-19.322	0.100
412.400	-19.629	0.100
412.500	-26.841	0.100
412.600	-20.302	0.100
412.700	-22.472	0.100
412.800	-27.061	0.100
412.900	-20.183	0.100
413.000	-32.267	0.100
413.100	-22.417	0.100
413.200	-22.679	0.100
413.300	-29.445	0.100
413.400	-30.574	0.100
413.500	-32.043	0.100
413.600	-21.397	0.100
413.700	-18.005	0.100
413.800	-28.333	0.100
413.900	-31.346	0.100
414.000	-18.658	0.100
414.100	-35.361	0.100
414.200	-31.439	0.100
414.300	-16.941	0.100
414.400	-28.443	0.100
414.500	-33.044	0.100
414.600	-21.740	0.100
414.700	-30.706	0.100
414.800	-28.754	0.100
414.900	-26.203	0.100
415.000	-26.619	0.100
415.100	-27.438	0.100
415.200	-28.438	0.100
415.300	-20.095	0.100
415.400	-30.796	0.100
415.500	-30.640	0.100
415.600	-35.931	0.100
415.700	-32.165	0.100
415.800	-19.101	0.100
415.900	-26.984	0.100
416.000	-26.511	0.100
416.100	-35.253	0.100
416.200	-33.369	0.100
416.300	-17.470	0.100
416.400	-30.447	0.100
416.500	-25.727	0.100
416.600	-21.334	0.100
416.700	-37.243	0.100
416.800	-32.581	0.100
416.900	-27.962	0.100
417.000	-19.117	0.100
417.100	-34.306	0.100
417.200	-32.271	0.100
417.300	-27.554	0.100
417.400	-28.770	0.100
417.500	-38.830	0.100
417.600	-39.519	0.100
417.700	-23.437	0.100
417.800	-35.862	0.100
417.900	-33.259	0.100
418.000	-20.672	0.100
418.100	-34.479	0.100
418.200	-15.712	0.100
418.300	-26.852	0.100
418.400	-36.880	0.100
418.500	-38.145	0.100
418.600	-31.322	0.100
418.700	-24.076	0.100
418.800	-25.577	0.100
418.900	-38.176	0.100
419.000	-29.169	0.100
419.100	-30.906	0.100
419.200	-38.070	0.100
419.300	-27.052	0.100
419.400	-23.520	0.100
419.500	-31.219	0.100
419.600	-30.193	0.100
419.700	-40.509	0.100
419.800	-22.802	0.100
419.900	-37.401	0.100
420.000	-32.022	0.100
420.100	-40.072	0.100
420.200	-36.701	0.100
420.300	-29.148	0.100
420.400	-39.818	0.100
420.500	-32.279	0.100
420.600	-23.363	0.100
420.700	-28.425	0.100
420.800	-29.697	0.100
420.900	-37.414	0.100
421.000	-29.981	0.100
421.100	-32.556	0.100
421.200	-30.630	0.100
421.300	-31.783	0.100
421.400	-40.305	0.100
421.500	-36.476	0.100
421.600	-21.771	0.100
421.700	-37.629	0.100
421.800	-32.667	0.100
421.900	-37.694	0.100
422.000	-29.067	0.100
422.100	-36.897	0.100
422.200	-28.685	0.100
422.300	-25.189	0.100
422.400	-26.109	0.100
422.500	-27.228	0.100
422.600	-32.683	0.100
422.700	-35.971	0.100
422.800	-33.254	0.100
422.900	-33.993	0.100
423.000	-27.026	0.100
423.100	-37.894	0.100
423.200	-32.978	0.100
423.300	-27.298	0.100
423.400	-39.665	0.100
423.500	-29.698	0.100
423.600	-29.086	0.100
423.700	-38.626	0.100
423.800	-40.003	0.100
423.900	-39.336	0.100
424.000	-38.556	0.100
424.100	-36.984	0.100
424.200	-32.497	0.100
424.300	-36.132	0.100
424.400	-35.253	0.100
424.500	-47.376	0.100
424.600	-37.132	0.100
424.700	-37.991	0.100
424.800	-37.621	0.100
424.900	-31.106	0.100
425.000	-26.075	0.100
425.100	-35.209	0.100
425.200	-38.024	0.100
425.300	-24.604	0.100
425.400	-33.122	0.100
425.500	-33.665	0.100
425.600	-39.642	0.100
425.700	-30.814	0.100
425.800	-36.614	0.100
425.900	-31.729	0.100
426.000	-36.669	0.100
426.100	-39.862	0.100
426.200	-28.892	0.100
426.300	-29.165	0.100
426.400	-41.465	0.100
426.500	-41.620	0.100
426.600	-35.632	0.100
426.700	-30.999	0.100
426.800	-36.606	0.100
426.900	-44.811	0.100
427.000	-35.386	0.100
427.100	-39.014	0.100
427.200	-31.415	0.100
427.300	-30.368	0.100
427.400	-31.877	0.100
427.500	-33.729	0.100
427.600	-38.711	0.100
427.700	-30.859	0.100
427.800	-38.138	0.100
427.900	-48.365	0.100
428.000	-30.948	0.100
428.100	-30.854	0.100
428.200	-35.897	0.100
428.300	-28.910	0.100
428.400	-29.277	0.100
428.500	-39.498	0.100
428.600	-38.749	0.100
428.700	-29.939	0.100
428.800	-42.255	0.100
428.900	-40.652	0.100
429.000	-37.373	0.100
429.100	-40.101	0.100
429.200	-31.949	0.100
429.300	-30.793	0.100
429.400	-31.203	0.100
429.500	-48.582	0.100
429.600	-23.283	0.100
429.700	-29.324	0.100
429.800	-36.966	0.100
429.900	-33.869	0.100
430.000	-38.467	0.100
430.100	-36.848	0.100
430.200	-28.994	0.100
430.300	-36.103	0.100
430.400	-34.817	0.100
430.500	-31.262	0.100
430.600	-29.451	0.100
430.700	-33.843	0.100
430.800	-26.532	0.100
430.900	-39.521	0.100
431.000	-37.786	0.100
431.100	-42.642	0.100
431.200	-31.988	0.100
431.300	-30.412	0.100
431.400	-28.920	0.100
431.500	-39.884	0.100
431.600	-32.759	0.100
431.700	-39.455	0.100
431.800	-36.196	0.100
431.900	-40.138	0.100
432.000	-32.777	0.100
432.100	-45.298	0.100
432.200	-39.784	0.100
432.300	-45.164	0.100
432.400	-32.822	0.100
432.500	-23.473	0.100
432.600	-35.252	0.100
432.700	-41.280	0.100
432.800	-36.285	0.100
432.900	-27.637	0.100
433.000	-27.151	0.100
433.100	-37.036	0.100
433.200	-41.447	0.100
433.300	-44.915	0.100
433.400	-39.261	0.100
433.500	-46.599	0.100
433.600	-27.411	0.100
433.700	-33.558	0.100
433.800	-47.611	0.100
433.900	-41.585	0.100
434.000	-36.504	0.100
434.100	-34.270	0.100
434.200	-46.340	0.100
434.300	-29.233	0.100
434.400	-29.977	0.100
434.500	-30.517	0.100
434.600	-42.699	0.100
434.700	-31.455	0.100
434.800	-30.797	0.100
434.900	-32.142	0.100
435.000	-40.944	0.100
435.100	-36.003	0.100
435.200	-39.732	0.100
435.300	-37.065	0.100
435.400	-24.967	0.100
435.500	-23.056	0.100
435.600	-32.599	0.100
435.700	-33.448	0.100
435.800	-43.207	0.100
435.900	-49.447	0.100
436.000	-32.908	0.100
436.100	-34.885	0.100
436.200	-38.211	0.100
436.300	-32.782	0.100
436.400	-43.853	0.100
436.500	-47.775	0.100
436.600	-32.839	0.100
436.700	-22.847	0.100
436.800	-29.604	0.100
436.900	-42.782	0.100
437.000	-32.137	0.100
437.100	-35.773	0.100
437.200	-40.070	0.100
437.300	-23.053	0.100
437.400	-39.834	0.100
437.500	-35.445	0.100
437.600	-41.231	0.100
437.700	-34.527	0.100
437.800	-32.215	0.100
437.900	-40.294	0.100
438.000	-31.556	0.100
438.100	-27.009	0.100
438.200	-38.758	0.100
438.300	-35.221	0.100
438.400	-37.592	0.100
438.500	-27.272	0.100
438.600	-30.863	0.100
438.700	-37.907	0.100
438.800	-39.086	0.100
438.900	-32.790	0.100
439.000	-35.812	0.100
439.100	-37.281	0.100
439.200	-36.424	0.100
439.300	-34.820	0.100
439.400	-42.735	0.100
439.500	-31.374	0.100
439.600	-51.171	0.100
439.700	-35.363	0.100
439.800	-33.386	0.100
439.900	-32.232	0.100
440.000	-31.916	0.100
440.100	-36.110	0.100
440.200	-44.225	0.100
440.300	-32.075	0.100
440.400	-38.593	0.100
440.500	-20.450	0.100
440.600	-37.295	0.100
440.700	-33.426	0.100
440.800	-51.269	0.100
440.900	-29.319	0.100
441.000	-39.193	0.100
441.100	-32.387	0.100
441.200	-37.376	0.100
441.300	-33.574	0.100
441.400	-36.567	0.100
441.500	-51.728	0.100
441.600	-33.730	0.100
441.700	-22.639	0.100
441.800	-27.987	0.100
441.900	-32.949	0.100
442.000	-46.449	0.100
442.100	-27.741	0.100
442.200	-37.867	0.100
442.300	-30.142	0.100
442.400	-35.066	0.100
442.500	-24.473	0.100
442.600	-29.341	0.100
442.700	-28.189	0.100
442.800	-34.411	0.100
442.900	-33.902	0.100
443.000	-39.967	0.100
443.100	-27.101	0.100
443.200	-29.371	0.100
443.300	-31.838	0.100
443.400	-30.393	0.100
443.500	-37.056	0.100
443.600	-27.307	0.100
443.700	-36.606	0.100
443.800	-37.052	0.100
443.900	-32.066	0.100
444.000	-35.243	0.100
444.100	-25.506	0.100
444.200	-38.723	0.100
444.300	-37.655	0.100
444.400	-32.891	0.100
444.500	-31.771	0.100
444.600	-28.916	0.100
444.700	-30.485	0.100
444.800	-37.719	0.100
444.900	-39.532	0.100
445.000	-23.997	0.100
445.100	-35.195	0.100
445.200	-28.435	0.100
445.300	-30.483	0.100
445.400	-30.858	0.100
445.500	-32.062	0.100
445.600	-47.689	0.100
445.700	-41.833	0.100
445.800	-31.589	0.100
445.900	-29.437	0.100
446.000	-27.670	0.100
446.100	-34.867	0.100
446.200	-40.550	0.100
446.300	-34.018	0.100
446.400	-27.757	0.100
446.500	-26.201	0.100
446.600	-28.612	0.100
446.700	-38.949	0.100
446.800	-38.550	0.100
446.900	-29.405	0.100
447.000	-27.116	0.100
447.100	-21.202	0.100
447.200	-30.972	0.100
447.300	-34.220	0.100
447.400	-32.393	0.100
447.500	-29.799	0.100
447.600	-41.434	0.100
447.700	-34.589	0.100
447.800	-32.609	0.100
447.900	-22.879	0.100
448.000	-26.842	0.100
448.100	-30.356	0.100
448.200	-35.277	0.100
448.300	-37.105	0.100
448.400	-28.677	0.100
448.500	-18.359	0.100
448.600	-25.784	0.100
448.700	-28.321	0.100
448.800	-33.561	0.100
448.900	-37.643	0.100
449.000	-27.816	0.100
449.100	-33.109	0.100
449.200	-29.752	0.100
449.300	-18.615	0.100
449.400	-23.159	0.100
449.500	-30.138	0.100
449.600	-38.704	0.100
449.700	-23.450	0.100
449.800	-25.722	0.100
449.900	-25.527	0.100
450.000	-24.165	0.100
450.100	-23.742	0.100
450.200	-34.723	0.100
450.300	-29.349	0.100
450.400	-37.172	0.100
450.500	-48.170	0.100
450.600	-29.397	0.100
450.700	-33.828	0.100
450.800	-28.827	0.100
450.900	-30.717	0.100
451.000	-38.204	0.100
451.100	-29.793	0.100
451.200	-39.541	0.100
451.300	-28.494	0.100
451.400	-30.601	0.100
451.500	-30.692	0.100
451.600	-33.857	0.100
451.700	-29.739	0.100
451.800	-24.239	0.100
451.900	-28.650	0.100
452.000	-40.552	0.100
452.100	-30.050	0.100
452.200	-36.241	0.100
452.300	-34.839	0.100
452.400	-31.488	0.100
452.500	-29.659	0.100
452.600	-37.449	0.100
452.700	-20.762	0.100
452.800	-14.912	0.100
452.900	-29.821	0.100
453.000	-20.565	0.100
453.100	-27.906	0.100
453.200	-47.234	0.100
453.300	-22.667	0.100
453.400	-29.838	0.100
453.500	-29.146	0.100
453.600	-17.351	0.100
453.700	-30.925	0.100
453.800	-31.057	0.100
453.900	-35.672	0.100
454.000	-28.309	0.100
454.100	-26.122	0.100
454.200	-33.067	0.100
454.300	-29.077	0.100
454.400	-18.857	0.100
454.500	-35.035	0.100
454.600	-23.948	0.100
454.700	-21.291	0.100
454.800	-30.793	0.100
454.900	-31.593	0.100
455.000	-17.491	0.100
455.100	-30.255	0.100
455.200	-31.802	0.100
455.300	-27.856	0.100
455.400	-20.944	0.100
455.500	-23.191	0.100
455.600	-30.649	0.100
455.700	-37.851	0.100
455.800	-37.323	0.100
455.900	-24.521	0.100
456.000	-21.963	0.100
456.100	-28.841	0.100
456.200	-28.045	0.100
456.300	-20.194	0.100
456.400	-25.933	0.100
456.500	-24.845	0.100
456.600	-32.577	0.100
456.700	-27.907	0.100
456.800	-28.791	0.100
456.900	-19.487	0.100
457.000	-36.268	0.100
457.100	-33.078	0.100
457.200	-25.186	0.100
457.300	-39.972	0.100
457.400	-27.717	0.100
457.500	-32.889	0.100
457.600	-29.989	0.100
457.700	-20.310	0.100
457.800	-17.954	0.100
457.900	-26.449	0.100
458.000	-32.273	0.100
458.100	-25.094	0.100
458.200	-23.693	0.100
458.300	-37.484	0.100
458.400	-24.399	0.100
458.500	-20.753	0.100
458.600	-16.815	0.100
458.700	-25.942	0.100
458.800	-23.370	0.100
458.900	-25.759	0.100
459.000	-31.362	0.100
459.100	-27.847	0.100
459.200	-32.633	0.100
459.300	-26.555	0.100
459.400	-20.084	0.100
459.500	-31.697	0.100
459.600	-20.705	0.100
459.700	-29.296	0.100
459.800	-25.779	0.100
459.900	-30.443	0.100
460.000	-17.679	0.100
460.100	-29.032	0.100
460.200	-23.552	0.100
460.300	-28.704	0.100
460.400	-21.195	0.100
460.500	-24.363	0.100
460.600	-23.204	0.100
460.700	-15.588	0.100
460.800	-29.204	0.100
460.900	-40.804	0.100
461.000	-32.799	0.100
461.100	-31.104	0.100
461.200	-31.863	0.100
461.300	-22.483	0.100
461.400	-22.134	0.100
461.500	-23.304	0.100
461.600	-22.541	0.100
461.700	-23.139	0.100
461.800	-17.155	0.100
461.900	-34.197	0.100
462.000	-27.331	0.100
462.100	-28.457	0.100
462.200	-12.049	0.100
462.300	-34.566	0.100
462.400	-31.605	0.100
462.500	-23.595	0.100
462.600	-28.018	0.100
462.700	-26.027	0.100
462.800	-32.034	0.100
462.900	-26.228	0.100
463.000	-20.289	0.100
463.100	-26.501	0.100
463.200	-14.784	0.100
463.300	-19.370	0.100
463.400	-23.665	0.100
463.500	-26.883	0.100
463.600	-35.072	0.100
463.700	-33.297	0.100
463.800	-18.951	0.100
463.900	-29.531	0.100
464.000	-31.218	0.100
464.100	-18.035	0.100
464.200	-17.191	0.100
464.300	-28.753	0.100
464.400	-25.771	0.100
464.500	-27.441	0.100
464.600	-24.907	0.100
464.700	-31.305	0.100
464.800	-19.356	0.100
464.900	-40.149	0.100
465.000	-21.256	0.100
465.100	-28.021	0.100
465.200	-35.147	0.100
465.300	-25.246	0.100
465.400	-15.550	0.100
465.500	-22.418	0.100
465.600	-19.732	0.100
465.700	-21.964	0.100
465.800	-36.917	0.100
465.900	-32.028	0.100
466.000	-20.212	0.100
466.100	-31.442	0.100
466.200	-24.652	0.100
466.300	-17.739	0.100
466.400	-20.696	0.100
466.500	-13.797	0.100
466.600	-15.843	0.100
466.700	-24.215	0.100
466.800	-26.001	0.100
466.900	-26.099	0.100
467.000	-22.475	0.100
467.100	-25.006	0.100
467.200	-27.418	0.100
467.300	-21.001	0.100
467.400	-23.896	0.100
467.500	-26.728	0.100
467.600	-20.533	0.100
467.700	-29.773	0.100
467.800	-40.503	0.100
467.900	-30.915	0.100
468.000	-31.786	0.100
468.100	-14.470	0.100
468.200	-23.755	0.100
468.300	-14.827	0.100
468.400	-19.483	0.100
468.500	-26.187	0.100
468.600	-26.958	0.100
468.700	-27.287	0.100
468.800	-29.824	0.100
468.900	-22.791	0.100
469.000	-12.175	0.100
469.100	-20.516	0.100
469.200	-24.956	0.100
469.300	-29.283	0.100
469.400	-29.585	0.100
469.500	-31.874	0.100
469.600	-27.134	0.100
469.700	-20.541	0.100
469.800	-10.420	0.100
469.900	-19.293	0.100
470.000	-25.484	0.100
470.100	-24.435	0.100
470.200	-28.922	0.100
470.300	-31.063	0.100
470.400	-15.825	0.100
470.500	-29.405	0.100
470.600	-28.669	0.100
470.700	-35.259	0.100
470.800	-24.313	0.100
470.900	-13.161	0.100
471.000	-17.707	0.100
471.100	-26.004	0.100
471.200	-35.934	0.100
471.300	-26.606	0.100
471.400	-13.637	0.100
471.500	-20.704	0.100
471.600	-22.535	0.100
471.700	-20.022	0.100
471.800	-16.824	0.100
471.900	-15.741	0.100
472.000	-31.154	0.100
472.100	-23.464	0.100
472.200	-22.412	0.100
472.300	-30.774	0.100
472.400	-21.858	0.100
472.500	-26.522	0.100
472.600	-33.118	0.100
472.700	-28.354	0.100
472.800	-11.335	0.100
472.900	-8.947	0.100
473.000	-23.948	0.100
473.100	-17.335	0.100
473.200	-29.744	0.100
473.300	-25.661	0.100
473.400	-16.415	0.100
473.500	-26.329	0.100
473.600	-23.290	0.100
473.700	-23.297	0.100
473.800	-31.856	0.100
473.900	-15.755	0.100
474.000	-17.286	0.100
474.100	-32.530	0.100
474.200	-30.288	0.100
474.300	-19.000	0.100
474.400	-20.539	0.100
474.500	-11.386	0.100
474.600	-9.732	0.100
474.700	-25.747	0.100
474.800	-18.228	0.100
474.900	-16.827	0.100
475.000	-29.453	0.100
475.100	-23.889	0.100
475.200	-21.108	0.100
475.300	-24.369	0.100
475.400	-28.318	0.100
475.500	-17.725	0.100
475.600	-28.130	0.100
475.700	-16.772	0.100
475.800	-30.534	0.100
475.900	-22.490	0.100
476.000	-28.359	0.100
476.100	-21.039	0.100
476.200	-25.152	0.100
476.300	-16.742	0.100
476.400	-22.992	0.100
476.500	-16.680	0.100
476.600	-17.643	0.100
476.700	-14.660	0.100
476.800	-17.995	0.100
476.900	-31.835	0.100
477.000	-24.189	0.100
477.100	-30.330	0.100
477.200	-22.381	0.100
477.300	-21.763	0.100
477.400	-26.772	0.100
477.500	-21.043	0.100
477.600	-21.250	0.100
477.700	-17.451	0.100
477.800	-27.649	0.100
477.900	-19.575	0.100
478.000	-27.691	0.100
478.100	-24.520	0.100
478.200	-31.979	0.100
478.300	-24.422	0.100
478.400	-31.824	0.100
478.500	-22.332	0.100
478.600	-24.481	0.100
478.700	-15.386	0.100
478.800	-15.252	0.100
478.900	-28.588	0.100
479.000	-33.672	0.100
479.100	-27.930	0.100
479.200	-15.895	0.100
479.300	-15.421	0.100
479.400	-21.381	0.100
479.500	-15.284	0.100
479.600	-22.723	0.100
479.700	-26.921	0.100
479.800	-8.517	0.100
479.900	-12.800	0.100
480.000	-17.859	0.100
480.100	-5.828	0.100
480.200	-18.076	0.100
480.300	-21.155	0.100
480.400	-10.920	0.100
480.500	-14.544	0.100
480.600	-3.997	0.100
480.700	-12.677	0.100
480.800	-7.536	0.100
480.900	8.231	0.100
481.000	12.706	0.100
481.100	9.204	0.100
481.200	20.319	0.100
481.300	22.736	0.100
481.400	18.973	0.100
481.500	25.236	0.100
481.600	25.108	0.100
481.700	28.173	0.100
481.800	28.775	0.100
481.900	29.004	0.100
482.000	40.350	0.100
482.100	42.663	0.100
482.200	39.880	0.100
482.300	39.705	0.100
482.400	31.387	0.100
482.500	28.554	0.100
482.600	35.243	0.100
482.700	37.178	0.100
482.800	34.027	0.100
482.900	44.218	0.100
483.000	41.925	0.100
483.100	37.480	0.100
483.200	34.737	0.100
483.300	45.705	0.100
483.400	39.953	0.100
483.500	37.858	0.100
483.600	35.546	0.100
483.700	38.810	0.100
483.800	40.620	0.100
483.900	41.756	0.100
484.000	36.726	0.100
484.100	44.561	0.100
484.200	30.066	0.100
484.300	43.525	0.100
484.400	44.171	0.100
484.500	42.724	0.100
484.600	31.600	0.100
484.700	48.073	0.100
484.800	40.559	0.100
484.900	44.572	0.100
485.000	31.217	0.100
485.100	40.628	0.100
485.200	40.135	0.100
485.300	43.298	0.100
485.400	38.204	0.100
485.500	37.623	0.100
485.600	24.471	0.100
485.700	37.244	0.100
485.800	39.242	0.100
485.900	40.911	0.100
486.000	40.723	0.100
486.100	36.695	0.100
486.200	30.340	0.100
486.300	45.404	0.100
486.400	34.950	0.100
486.500	39.351	0.100
486.600	38.424	0.100
486.700	39.684	0.100
486.800	32.908	0.100
486.900	26.032	0.100
487.000	33.245	0.100
487.100	40.052	0.100
487.200	31.578	0.100
487.300	31.791	0.100
487.400	32.802	0.100
487.500	25.952	0.100
487.600	29.818	0.100
487.700	39.098	0.100
487.800	39.705	0.100
487.900	29.107	0.100
488.000	23.257	0.100
488.100	28.373	0.100
488.200	31.593	0.100
488.300	31.933	0.100
488.400	29.790	0.100
488.500	45.742	0.100
488.600	36.778	0.100
488.700	28.468	0.100
488.800	33.636	0.100
488.900	34.321	0.100
489.000	31.536	0.100
489.100	37.389	0.100
489.200	41.662	0.100
489.300	36.208	0.100
489.400	34.237	0.100
489.500	35.964	0.100
489.600	46.098	0.100
489.700	47.332	0.100
489.800	29.657	0.100
489.900	27.739	0.100
490.000	29.847	0.100
490.100	24.470	0.100
490.200	38.709	0.100
490.300	36.970	0.100
490.400	27.806	0.100
490.500	40.143	0.100
490.600	41.473	0.100
490.700	32.410	0.100
490.800	44.747	0.100
490.900	35.354	0.100
491.000	28.902	0.100
491.100	25.768	0.100
491.200	34.604	0.100
491.300	42.166	0.100
491.400	45.654	0.100
491.500	40.473	0.100
491.600	38.604	0.100
491.700	34.213	0.100
491.800	37.778	0.100
491.900	28.494	0.100
492.000	34.519	0.100
492.100	44.036	0.100
492.200	30.691	0.100
492.300	35.916	0.100
492.400	42.521	0.100
492.500	39.474	0.100
492.600	39.324	0.100
492.700	35.180	0.100
492.800	31.869	0.100
492.900	45.054	0.100
493.000	37.571	0.100
493.100	29.414	0.100
493.200	37.335	0.100
493.300	31.156	0.100
493.400	46.785	0.100
493.500	46.714	0.100
493.600	40.188	0.100
493.700	38.381	0.100
493.800	36.349	0.100
493.900	47.242	0.100
494.000	37.591	0.100
494.100	43.804	0.100
494.200	48.548	0.100
494.300	31.452	0.100
494.400	33.564	0.100
494.500	39.506	0.100
494.600	41.921	0.100
494.700	39.979	0.100
494.800	47.563	0.100
494.900	45.031	0.100
495.000	31.741	0.100
495.100	31.788	0.100
495.200	51.277	0.100
495.300	41.072	0.100
495.400	31.086	0.100
495.500	38.968	0.100
495.600	41.516	0.100
495.700	27.529	0.100
495.800	43.494	0.100
495.900	45.221	0.100
496.000	41.251	0.100
496.100	45.632	0.100
496.200	39.774	0.100
496.300	56.293	0.100
496.400	41.656	0.100
496.500	48.802	0.100
496.600	51.467	0.100
496.700	40.812	0.100
496.800	48.508	0.100
496.900	47.263	0.100
497.000	35.765	0.100
497.100	40.151	0.100
497.200	39.289	0.100
497.300	52.117	0.100
497.400	59.553	0.100
497.500	51.513	0.100
497.600	47.029	0.100
497.700	60.826	0.100
497.800	42.703	0.100
497.900	43.935	0.100
498.000	45.872	0.100
498.100	47.963	0.100
498.200	52.363	0.100
498.300	58.649	0.100
498.400	46.884	0.100
498.500	46.695	0.100
498.600	63.166	0.100
498.700	56.808	0.100
498.800	40.687	0.100
498.900	52.387	0.100
499.000	57.955	0.100
499.100	65.446	0.100
499.200	68.911	0.100
499.300	56.085	0.100
499.400	48.566	0.100
499.500	47.837	0.100
499.600	56.557	0.100
499.700	54.400	0.100
499.800	58.573	0.100
499.900	60.845	0.100
500.000	58.884	0.100
500.100	67.789	0.100
500.200	62.890	0.100
500.300	64.812	0.100
500.400	54.686	0.100
500.500	56.832	0.100
500.600	62.256	0.100
500.700	60.364	0.100
500.800	69.486	0.100
500.900	67.095	0.100
501.000	69.867	0.100
501.100	62.729	0.100
501.200	69.583	0.100
501.300	61.253	0.100
501.400	66.792	0.100
501.500	62.144	0.100
501.600	70.512	0.100
501.700	49.681	0.100
501.800	64.427	0.100
501.900	67.547	0.100
502.000	57.960	0.100
502.100	62.153	0.100
502.200	67.087	0.100
502.300	65.610	0.100
502.400	75.720	0.100
502.500	71.847	0.100
502.600	69.906	0.100
502.700	65.069	0.100
502.800	65.628	0.100
502.900	72.096	0.100
503.000	74.538	0.100
503.100	71.034	0.100
503.200	66.506	0.100
503.300	76.859	0.100
503.400	62.727	0.100
503.500	64.211	0.100
503.600	80.787	0.100
503.700	74.465	0.100
503.800	73.318	0.100
503.900	73.406	0.100
504.000	71.806	0.100
504.100	81.676	0.100
504.200	71.739	0.100
504.300	80.784	0.100
504.400	74.146	0.100
504.500	67.552	0.100
504.600	85.034	0.100
504.700	84.048	0.100
504.800	74.368	0.100
504.900	74.183	0.100
505.000	68.650	0.100
505.100	72.885	0.100
505.200	79.277	0.100
505.300	80.678	0.100
505.400	76.812	0.100
505.500	69.546	0.100
505.600	76.923	0.100
505.700	89.471	0.100
505.800	81.945	0.100
505.900	72.166	0.100
506.000	82.445	0.100
506.100	86.204	0.100
506.200	65.025	0.100
506.300	73.689	0.100
506.400	81.438	0.100
506.500	75.245	0.100
506.600	75.270	0.100
506.700	80.692	0.100
506.800	92.934	0.100
506.900	78.190	0.100
507.000	83.310	0.100
507.100	78.721	0.100
507.200	78.058	0.100
507.300	79.189	0.100
507.400	81.480	0.100
507.500	77.115	0.100
507.600	71.582	0.100
507.700	81.759	0.100
507.800	90.602	0.100
507.900	86.009	0.100
508.000	64.778	0.100
508.100	80.802	0.100
508.200	85.395	0.100
508.300	81.930	0.100
508.400	77.882	0.100
508.500	80.049	0.100
508.600	84.311	0.100
508.700	75.132	0.100
508.800	80.869	0.100
508.900	83.120	0.100
509.000	76.815	0.100
509.100	82.906	0.100
509.200	80.249	0.100
509.300	74.197	0.100
509.400	75.824	0.100
509.500	85.344	0.100
509.600	70.856	0.100
509.700	82.526	0.100
509.800	79.800	0.100
509.900	90.275	0.100
510.000	95.261	0.100
510.100	73.271	0.100
510.200	77.813	0.100
510.300	82.344	0.100
510.400	83.649	0.100
510.500	73.920	0.100
510.600	72.646	0.100
510.700	72.044	0.100
510.800	81.132	0.100
510.900	81.280	0.100
511.000	82.146	0.100
511.100	73.720	0.100
511.200	72.521	0.100
511.300	80.923	0.100
511.400	73.819	0.100
511.500	82.708	0.100
511.600	74.493	0.100
511.700	74.919	0.100
511.800	64.469	0.100
511.900	70.943	0.100
512.000	79.423	0.100
512.100	71.767	0.100
512.200	72.771	0.100
512.300	72.134	0.100
512.400	71.108	0.100
512.500	79.019	0.100
512.600	79.585	0.100
512.700	70.630	0.100
512.800	65.559	0.100
512.900	72.964	0.100
513.000	69.615	0.100
513.100	72.622	0.100
513.200	77.628	0.100
513.300	70.111	0.100
513.400	75.757	0.100
513.500	69.255	0.100
513.600	91.799	0.100
513.700	75.400	0.100
513.800	70.854	0.100
513.900	71.509	0.100
514.000	72.275	0.100
514.100	60.986	0.100
514.200	65.041	0.100
514.300	68.087	0.100
514.400	70.846	0.100
514.500	75.857	0.100
514.600	77.044	0.100
514.700	73.233	0.100
514.800	75.881	0.100
514.900	88.845	0.100
515.000	76.896	0.100
515.100	90.316	0.100
515.200	59.984	0.100
515.300	69.246	0.100
515.400	67.536	0.100
515.500	65.349	0.100
515.600	69.540	0.100
515.700	76.033	0.100
515.800	66.842	0.100
515.900	77.580	0.100
516.000	72.520	0.100
516.100	78.323	0.100
516.200	69.001	0.100
516.300	81.512	0.100
516.400	78.451	0.100
516.500	72.152	0.100
516.600	70.597	0.100
516.700	68.009	0.100
516.800	59.783	0.100
516.900	64.516	0.100
517.000	74.986	0.100
517.100	74.411	0.100
517.200	75.157	0.100
517.300	75.704	0.100
517.400	72.835	0.100
517.500	78.444	0.100
517.600	69.622	0.100
517.700	59.135	0.100
517.800	69.698	0.100
517.900	64.439	0.100
518.000	73.531	0.100
518.100	65.183	0.100
518.200	65.694	0.100
518.300	63.170	0.100
518.400	70.721	0.100
518.500	71.601	0.100
518.600	66.993	0.100
518.700	64.930	0.100
518.800	65.047	0.100
518.900	66.025	0.100
519.000	67.487	0.100
519.100	71.563	0.100
519.200	76.946	0.100
519.300	81.902	0.100
519.400	71.391	0.100
519.500	60.479	0.100
519.600	72.163	0.100
519.700	64.517	0.100
519.800	74.144	0.100
519.900	63.885	0.100
520.000	79.288	0.100
520.100	71.229	0.100
520.200	71.535	0.100
520.300	67.909	0.100
520.400	64.709	0.100
520.500	64.735	0.100
520.600	68.265	0.100
520.700	74.939	0.100
520.800	62.096	0.100
520.900	63.909	0.100
521.000	66.299	0.100
521.100	63.552	0.100
521.200	70.080	0.100
521.300	71.441	0.100
521.400	76.121	0.100
521.500	70.958	0.100
521.600	64.805	0.100
521.700	73.968	0.100
521.800	76.006	0.100
521.900	64.923	0.100
522.000	69.053	0.100
522.100	78.020	0.100
522.200	76.301	0.100
522.300	71.762	0.100
522.400	70.704	0.100
522.500	63.737	0.100
522.600	56.855	0.100
522.700	71.895	0.100
522.800	67.335	0.100
522.900	73.003	0.100
523.000	61.770	0.100
523.100	63.352	0.100
523.200	73.152	0.100
523.300	57.559	0.100
523.400	73.609	0.100
523.500	81.740	0.100
523.600	63.116	0.100
523.700	80.104	0.100
523.800	66.689	0.100
523.900	65.098	0.100
524.000	67.010	0.100
524.100	74.172	0.100
524.200	71.283	0.100
524.300	71.841	0.100
524.400	61.764	0.100
524.500	62.628	0.100
524.600	63.124	0.100
524.700	74.000	0.100
524.800	77.731	0.100
524.900	70.431	0.100
525.000	64.272	0.100
525.100	82.910	0.100
525.200	63.331	0.100
525.300	71.167	0.100
525.400	63.183	0.100
525.500	68.533	0.100
525.600	72.433	0.100
525.700	76.893	0.100
525.800	67.407	0.100
525.900	63.423	0.100
526.000	66.144	0.100
526.100	61.815	0.100
526.200	68.315	0.100
526.300	78.132	0.100
526.400	59.375	0.100
526.500	69.343	0.100
526.600	64.780	0.100
526.700	66.927	0.100
526.800	66.482	0.100
526.900	67.157	0.100
527.000	69.063	0.100
527.100	69.331	0.100
527.200	80.862	0.100
527.300	74.640	0.100
527.400	72.249	0.100
527.500	60.060	0.100
527.600	66.572	0.100
527.700	66.430	0.100
527.800	74.219	0.100
527.900	52.916	0.100
528.000	57.940	0.100
528.100	56.019	0.100
528.200	68.746	0.100
528.300	74.588	0.100
528.400	75.829	0.100
528.500	65.191	0.100
528.600	56.059	0.100
528.700	65.042	0.100
528.800	71.061	0.100
528.900	68.627	0.100
529.000	68.398	0.100
529.100	70.369	0.100
529.200	78.308	0.100
529.300	68.138	0.100
529.400	53.814	0.100
529.500	67.694	0.100
529.600	69.125	0.100
529.700	67.461	0.100
529.800	68.542	0.100
529.900	64.630	0.100
530.000	64.697	0.100
530.100	67.918	0.100
530.200	66.877	0.100
530.300	66.092	0.100
530.400	61.535	0.100
530.500	67.429	0.100
530.600	67.320	0.100
530.700	78.114	0.100
530.800	62.735	0.100
530.900	64.542	0.100
531.000	62.586	0.100
531.100	63.122	0.100
531.200	75.264	0.100
531.300	60.967	0.100
531.400	62.942	0.100
531.500	58.576	0.100
531.600	64.330	0.100
531.700	55.865	0.100
531.800	65.185	0.100
531.900	73.204	0.100
532.000	64.834	0.100
532.100	69.233	0.100
532.200	69.965	0.100
532.300	64.207	0.100
532.400	75.814	0.100
532.500	73.514	0.100
532.600	75.403	0.100
532.700	70.097	0.100
532.800	62.239	0.100
532.900	72.446	0.100
533.000	60.771	0.100
533.100	50.322	0.100
533.200	58.347	0.100
533.300	67.860	0.100
533.400	68.599	0.100
533.500	62.138	0.100
533.600	55.808	0.100
533.700	60.667	0.100
533.800	67.589	0.100
533.900	57.210	0.100
534.000	63.470	0.100
534.100	67.545	0.100
534.200	72.168	0.100
534.300	72.533	0.100
534.400	69.622	0.100
534.500	65.143	0.100
534.600	60.085	0.100
534.700	63.347	0.100
534.800	59.153	0.100
534.900	58.987	0.100
535.000	66.675	0.100
535.100	49.734	0.100
535.200	65.149	0.100
535.300	59.466	0.100
535.400	69.809	0.100
535.500	64.104	0.100
535.600	67.264	0.100
535.700	69.189	0.100
535.800	76.381	0.100
535.900	76.489	0.100
536.000	65.797	0.100
536.100	59.189	0.100
536.200	62.817	0.100
536.300	64.031	0.100
536.400	65.345	0.100
536.500	61.557	0.100
536.600	63.949	0.100
536.700	59.327	0.100
536.800	68.826	0.100
536.900	73.169	0.100
537.000	60.625	0.100
537.100	59.344	0.100
537.200	76.245	0.100
537.300	58.814	0.100
537.400	62.874	0.100
537.500	51.980	0.100
537.600	67.789	0.100
537.700	58.218	0.100
537.800	65.806	0.100
537.900	61.653	0.100
538.000	73.583	0.100
538.100	56.534	0.100
538.200	66.130	0.100
538.300	69.231	0.100
538.400	67.766	0.100
538.500	59.932	0.100
538.600	62.070	0.100
538.700	60.975	0.100
538.800	56.570	0.100
538.900	49.448	0.100
539.000	60.181	0.100
539.100	52.290	0.100
539.200	61.738	0.100
539.300	72.467	0.100
539.400	74.878	0.100
539.500	68.371	0.100
539.600	64.746	0.100
539.700	56.867	0.100
539.800	49.411	0.100
539.900	62.336	0.100
540.000	62.522	0.100
540.100	58.395	0.100
540.200	69.300	0.100
540.300	62.689	0.100
540.400	53.500	0.100
540.500	39.743	0.100
540.600	38.853	0.100
540.700	39.826	0.100
540.800	44.750	0.100
540.900	23.720	0.100
541.000	32.931	0.100
541.100	19.106	0.100
541.200	25.121	0.100
541.300	15.509	0.100
541.400	15.499	0.100
541.500	23.869	0.100
541.600	16.015	0.100
541.700	1.991	0.100
541.800	12.927	0.100
541.900	2.498	0.100
542.000	-12.881	0.100
542.100	3.840	0.100
542.200	1.873	0.100
542.300	11.505	0.100
542.400	2.866	0.100
542.500	3.931	0.100
542.600	0.569	0.100
542.700	-4.042	0.100
542.800	-4.051	0.100
542.900	-9.848	0.100
543.000	-7.884	0.100
543.100	-3.700	0.100
543.200	-9.504	0.100
543.300	-11.545	0.100
543.400	-11.401	0.100
543.500	-10.537	0.100
543.600	-3.404	0.100
543.700	-15.083	0.100
543.800	-8.100	0.100
543.900	-12.369	0.100
544.000	-30.577	0.100
544.100	-13.761	0.100
544.200	-21.774	0.100
544.300	-20.548	0.100
544.400	-11.048	0.100
544.500	-19.083	0.100
544.600	-22.736	0.100
544.700	-26.778	0.100
544.800	-18.880	0.100
544.900	-14.237	0.100
545.000	-12.985	0.100
545.100	-20.312	0.100
545.200	-26.932	0.100
545.300	-26.319	0.100
545.400	-21.737	0.100
545.500	-21.193	0.100
545.600	-15.595	0.100
545.700	-24.922	0.100
545.800	-17.848	0.100
545.900	-17.329	0.100
546.000	-26.888	0.100
546.100	-23.934	0.100
546.200	-18.525	0.100
546.300	-8.513	0.100
546.400	-24.377	0.100
546.500	-21.356	0.100
546.600	-31.913	0.100
546.700	-14.674	0.100
546.800	-17.506	0.100
546.900	-17.791	0.100
547.000	-14.630	0.100
547.100	-4.114	0.100
547.200	-25.502	0.100
547.300	-18.616	0.100
547.400	-27.880	0.100
547.500	-24.014	0.100
547.600	-4.861	0.100
547.700	-27.211	0.100
547.800	-28.481	0.100
547.900	-14.237	0.100
548.000	-15.439	0.100
548.100	-10.506	0.100
548.200	-17.490	0.100
548.300	-30.663	0.100
548.400	-11.894	0.100
548.500	-14.987	0.100
548.600	-14.448	0.100
548.700	-10.999	0.100
548.800	-19.989	0.100
548.900	-15.659	0.100
549.000	-17.578	0.100
549.100	-26.583	0.100
549.200	-18.381	0.100
549.300	-15.342	0.100
549.400	-26.379	0.100
549.500	-20.789	0.100
549.600	-23.632	0.100
549.700	-27.431	0.100
549.800	-8.611	0.100
549.900	-21.142	0.100
550.000	-17.812	0.100
550.100	-9.599	0.100
550.200	-15.244	0.100
550.300	-27.686	0.100
550.400	-20.064	0.100
550.500	-18.395	0.100
550.600	-14.367	0.100
550.700	-10.277	0.100
550.800	-27.210	0.100
550.900	-16.469	0.100
551.000	-12.365	0.100
551.100	-11.361	0.100
551.200	-23.446	0.100
551.300	-20.301	0.100
551.400	-13.447	0.100
551.500	-25.823	0.100
551.600	-18.817	0.100
551.700	-13.380	0.100
551.800	-14.762	0.100
551.900	-18.336	0.100
552.000	-29.750	0.100
552.100	-33.447	0.100
552.200	-13.434	0.100
552.300	-28.415	0.100
552.400	-23.515	0.100
552.500	-21.083	0.100
552.600	-20.205	0.100
552.700	-19.200	0.100
552.800	-27.819	0.100
552.900	-15.553	0.100
553.000	-25.691	0.100
553.100	-25.392	0.100
553.200	-23.352	0.100
553.300	-18.000	0.100
553.400	-20.735	0.100
553.500	-21.986	0.100
553.600	-5.944	0.100
553.700	-10.953	0.100
553.800	-27.532	0.100
553.900	-28.557	0.100
554.000	-28.684	0.100
554.100	-23.077	0.100
554.200	-22.594	0.100
554.300	-20.690	0.100
554.400	-16.486	0.100
554.500	-27.880	0.100
554.600	-20.631	0.100
554.700	-29.023	0.100
554.800	-27.209	0.100
554.900	-9.379	0.100
555.000	-16.416	0.100
555.100	-32.533	0.100
555.200	-20.625	0.100
555.300	-17.091	0.100
555.400	-21.358	0.100
555.500	-17.795	0.100
555.600	-25.944	0.100
555.700	-18.925	0.100
555.800	-32.410	0.100
555.900	-19.815	0.100
556.000	-11.784	0.100
556.100	-19.309	0.100
556.200	-12.676	0.100
556.300	-20.491	0.100
556.400	-25.698	0.100
556.500	-26.591	0.100
556.600	-22.920	0.100
556.700	-21.410	0.100
556.800	-17.482	0.100
556.900	-24.811	0.100
557.000	-28.295	0.100
557.100	-23.953	0.100
557.200	-31.521	0.100
557.300	-15.717	0.100
557.400	-13.332	0.100
557.500	-26.606	0.100
557.600	-31.284	0.100
557.700	-28.731	0.100
557.800	-21.169	0.100
557.900	-18.541	0.100
558.000	-29.932	0.100
558.100	-26.504	0.100
558.200	-18.947	0.100
558.300	-28.630	0.100
558.400	-26.750	0.100
558.500	-21.549	0.100
558.600	-21.456	0.100
558.700	-20.651	0.100
558.800	-28.158	0.100
558.900	-25.495	0.100
559.000	-24.243	0.100
559.100	-16.818	0.100
559.200	-20.577	0.100
559.300	-27.275	0.100
559.400	-18.947	0.100
559.500	-18.321	0.100
559.600	-25.787	0.100
559.700	-25.243	0.100
559.800	-20.413	0.100
559.900	-30.580	0.100
560.000	-33.966	0.100
560.100	-22.851	0.100
560.200	-14.998	0.100
560.300	-29.601	0.100
560.400	-31.890	0.100
560.500	-21.957	0.100
560.600	-22.107	0.100
560.700	-22.584	0.100
560.800	-22.055	0.100
560.900	-16.392	0.100
561.000	-32.486	0.100
561.100	-21.882	0.100
561.200	-26.446	0.100
561.300	-16.507	0.100
561.400	-26.386	0.100
561.500	-18.801	0.100
561.600	-22.477	0.100
561.700	-42.449	0.100
561.800	-26.801	0.100
561.900	-21.108	0.100
562.000	-26.417	0.100
562.100	-30.901	0.100
562.200	-22.099	0.100
562.300	-21.238	0.100
562.400	-27.352	0.100
562.500	-29.117	0.100
562.600	-26.065	0.100
562.700	-29.386	0.100
562.800	-28.584	0.100
562.900	-23.604	0.100
563.000	-29.640	0.100
563.100	-24.214	0.100
563.200	-29.171	0.100
563.300	-33.595	0.100
563.400	-35.609	0.100
563.500	-33.116	0.100
563.600	-24.159	0.100
563.700	-22.962	0.100
563.800	-32.892	0.100
563.900	-19.742	0.100
564.000	-21.494	0.100
564.100	-30.571	0.100
564.200	-27.265	0.100
564.300	-19.215	0.100
564.400	-30.524	0.100
564.500	-38.083	0.100
564.600	-31.557	0.100
564.700	-27.918	0.100
564.800	-19.771	0.100
564.900	-26.134	0.100
565.000	-32.020	0.100
565.100	-34.139	0.100
565.200	-27.928	0.100
565.300	-27.904	0.100
565.400	-23.494	0.100
565.500	-32.121	0.100
565.600	-42.741	0.100
565.700	-44.470	0.100
565.800	-26.197	0.100
565.900	-21.725	0.100
566.000	-21.549	0.100
566.100	-31.701	0.100
566.200	-17.586	0.100
566.300	-31.281	0.100
566.400	-31.500	0.100
566.500	-30.823	0.100
566.600	-28.862	0.100
566.700	-30.316	0.100
566.800	-31.991	0.100
566.900	-28.496	0.100
567.000	-33.166	0.100
567.100	-25.237	0.100
567.200	-31.007	0.100
567.300	-25.983	0.100
567.400	-40.084	0.100
567.500	-34.814	0.100
567.600	-29.863	0.100
567.700	-37.554	0.100
567.800	-35.405	0.100
567.900	-29.177	0.100
568.000	-28.645	0.100
568.100	-28.701	0.100
568.200	-34.641	0.100
568.300	-30.322	0.100
568.400	-30.500	0.100
568.500	-34.681	0.100
568.600	-30.043	0.100
568.700	-27.797	0.100
568.800	-43.124	0.100
568.900	-42.379	0.100
569.000	-26.461	0.100
569.100	-25.558	0.100
569.200	-26.516	0.100
569.300	-39.338	0.100
569.400	-35.364	0.100
569.500	-40.378	0.100
569.600	-27.027	0.100
569.700	-26.638	0.100
569.800	-30.787	0.100
569.900	-20.762	0.100
570.000	-38.470	0.100
570.100	-45.988	0.100
570.200	-29.846	0.100
570.300	-25.970	0.100
570.400	-15.206	0.100
570.500	-30.908	0.100
570.600	-38.177	0.100
570.700	-31.940	0.100
570.800	-26.608	0.100
570.900	-35.369	0.100
571.000	-34.785	0.100
571.100	-32.264	0.100
571.200	-36.456	0.100
571.300	-39.575	0.100
571.400	-23.567	0.100
571.500	-31.614	0.100
571.600	-22.741	0.100
571.700	-32.708	0.100
571.800	-35.046	0.100
571.900	-28.189	0.100
572.000	-26.955	0.100
572.100	-35.814	0.100
572.200	-40.503	0.100
572.300	-35.276	0.100
572.400	-31.923	0.100
572.500	-41.842	0.100
572.600	-37.729	0.100
572.700	-35.591	0.100
572.800	-23.524	0.100
572.900	-37.060	0.100
573.000	-31.267	0.100
573.100	-32.163	0.100
573.200	-28.126	0.100
573.300	-51.711	0.100
573.400	-37.238	0.100
573.500	-33.720	0.100
573.600	-22.559	0.100
573.700	-45.538	0.100
573.800	-37.987	0.100
573.900	-38.795	0.100
574.000	-27.289	0.100
574.100	-39.392	0.100
574.200	-39.669	0.100
574.300	-34.661	0.100
574.400	-39.262	0.100
574.500	-48.539	0.100
574.600	-46.672	0.100
574.700	-36.784	0.100
574.800	-43.544	0.100
574.900	-37.506	0.100
575.000	-25.735	0.100
575.100	-41.230	0.100
575.200	-32.661	0.100
575.300	-37.057	0.100
575.400	-33.811	0.100
575.500	-41.240	0.100
575.600	-36.989	0.100
575.700	-39.462	0.100
575.800	-42.554	0.100
575.900	-39.578	0.100
576.000	-15.750	0.100
576.100	-30.471	0.100
576.200	-31.070	0.100
576.300	-45.757	0.100
576.400	-33.504	0.100
576.500	-43.839	0.100
576.600	-35.697	0.100
576.700	-31.556	0.100
576.800	-30.250	0.100
576.900	-44.279	0.100
577.000	-30.626	0.100
577.100	-34.593	0.100
577.200	-51.626	0.100
577.300	-40.035	0.100
577.400	-33.772	0.100
577.500	-41.078	0.100
577.600	-30.672	0.100
577.700	-38.468	0.100
577.800	-32.221	0.100
577.900	-45.025	0.100
578.000	-38.581	0.100
578.100	-40.468	0.100
578.200	-41.078	0.100
578.300	-38.071	0.100
578.400	-31.921	0.100
578.500	-37.054	0.100
578.600	-42.079	0.100
578.700	-30.023	0.100
578.800	-30.683	0.100
578.900	-36.040	0.100
579.000	-33.066	0.100
579.100	-32.554	0.100
579.200	-45.695	0.100
579.300	-34.701	0.100
579.400	-31.785	0.100
579.500	-38.722	0.100
579.600	-23.399	0.100
579.700	-40.823	0.100
579.800	-44.326	0.100
579.900	-35.711	0.100
580.000	-34.219	0.100
580.100	-38.860	0.100
580.200	-41.715	0.100
580.300	-44.196	0.100
580.400	-38.648	0.100
580.500	-30.202	0.100
580.600	-30.620	0.100
580.700	-45.363	0.100
580.800	-32.135	0.100
580.900	-38.489	0.100
581.000	-32.772	0.100
581.100	-48.237	0.100
581.200	-44.964	0.100
581.300	-38.943	0.100
581.400	-31.619	0.100
581.500	-33.942	0.100
581.600	-27.503	0.100
581.700	-43.375	0.100
581.800	-40.142	0.100
581.900	-38.691	0.100
582.000	-28.229	0.100
582.100	-43.774	0.100
582.200	-38.138	0.100
582.300	-35.243	0.100
582.400	-43.939	0.100
582.500	-35.354	0.100
582.600	-31.300	0.100
582.700	-41.960	0.100
582.800	-44.739	0.100
582.900	-30.602	0.100
583.000	-40.778	0.100
583.100	-41.174	0.100
583.200	-42.196	0.100
583.300	-28.448	0.100
583.400	-40.384	0.100
583.500	-35.116	0.100
583.600	-36.947	0.100
583.700	-27.628	0.100
583.800	-47.242	0.100
583.900	-46.116	0.100
584.000	-35.948	0.100
584.100	-36.726	0.100
584.200	-41.803	0.100
584.300	-31.439	0.100
584.400	-26.475	0.100
584.500	-37.575	0.100
584.600	-31.793	0.100
584.700	-31.801	0.100
584.800	-42.688	0.100
584.900	-34.414	0.100
585.000	-50.356	0.100
585.100	-38.241	0.100
585.200	-36.581	0.100
585.300	-40.906	0.100
585.400	-32.065	0.100
585.500	-36.017	0.100
585.600	-37.199	0.100
585.700	-38.981	0.100
585.800	-45.212	0.100
585.900	-39.937	0.100
586.000	-30.037	0.100
586.100	-32.148	0.100
586.200	-39.157	0.100
586.300	-47.944	0.100
586.400	-35.483	0.100
586.500	-32.135	0.100
586.600	-35.441	0.100
586.700	-31.339	0.100
586.800	-39.374	0.100
586.900	-41.152	0.100
587.000	-40.229	0.100
587.100	-32.445	0.100
587.200	-34.859	0.100
587.300	-31.325	0.100
587.400	-27.291	0.100
587.500	-35.168	0.100
587.600	-39.640	0.100
587.700	-37.833	0.100
587.800	-34.130	0.100
587.900	-35.091	0.100
588.000	-38.664	0.100
588.100	-34.535	0.100
588.200	-23.690	0.100
588.300	-38.562	0.100
588.400	-48.856	0.100
588.500	-36.442	0.100
588.600	-34.690	0.100
588.700	-42.027	0.100
588.800	-39.955	0.100
588.900	-39.430	0.100
589.000	-36.638	0.100
589.100	-32.286	0.100
589.200	-32.630	0.100
589.300	-31.203	0.100
589.400	-42.353	0.100
589.500	-36.943	0.100
589.600	-32.917	0.100
589.700	-33.698	0.100
589.800	-31.039	0.100
589.900	-26.176	0.100
590.000	-36.967	0.100
590.100	-26.240	0.100
590.200	-33.894	0.100
590.300	-41.101	0.100
590.400	-34.770	0.100
590.500	-40.444	0.100
590.600	-30.292	0.100
590.700	-38.983	0.100
590.800	-26.511	0.100
590.900	-41.921	0.100
591.000	-27.479	0.100
591.100	-29.634	0.100
591.200	-45.490	0.100
591.300	-27.302	0.100
591.400	-35.432	0.100
591.500	-39.907	0.100
591.600	-46.382	0.100
591.700	-35.376	0.100
591.800	-28.070	0.100
591.900	-36.615	0.100
592.000	-44.440	0.100
592.100	-30.988	0.100
592.200	-40.543	0.100
592.300	-21.932	0.100
592.400	-21.737	0.100
592.500	-38.960	0.100
592.600	-46.343	0.100
592.700	-33.329	0.100
592.800	-37.617	0.100
592.900	-35.722	0.100
593.000	-40.717	0.100
593.100	-33.651	0.100
593.200	-36.091	0.100
593.300	-46.235	0.100
593.400	-30.481	0.100
593.500	-28.311	0.100
593.600	-37.501	0.100
593.700	-33.193	0.100
593.800	-23.632	0.100
593.900	-26.199	0.100
594.000	-29.740	0.100
594.100	-29.362	0.100
594.200	-34.348	0.100
594.300	-36.921	0.100
594.400	-31.742	0.100
594.500	-18.422	0.100
594.600	-36.776	0.100
594.700	-25.273	0.100
594.800	-35.454	0.100
594.900	-48.950	0.100
595.000	-38.307	0.100
595.100	-31.441	0.100
595.200	-30.228	0.100
595.300	-41.824	0.100
595.400	-34.027	0.100
595.500	-30.978	0.100
595.600	-32.060	0.100
595.700	-34.299	0.100
595.800	-27.203	0.100
595.900	-25.029	0.100
596.000	-30.681	0.100
596.100	-27.739	0.100
596.200	-24.178	0.100
596.300	-40.539	0.100
596.400	-32.856	0.100
596.500	-35.946	0.100
596.600	-31.669	0.100
596.700	-36.804	0.100
596.800	-38.104	0.100
596.900	-40.409	0.100
597.000	-38.069	0.100
597.100	-33.471	0.100
597.200	-24.997	0.100
597.300	-28.348	0.100
597.400	-33.360	0.100
597.500	-39.682	0.100
597.600	-29.936	0.100
597.700	-31.909	0.100
597.800	-33.366	0.100
597.900	-41.238	0.100
598.000	-31.792	0.100
598.100	-18.923	0.100
598.200	-32.795	0.100
598.300	-21.588	0.100
598.400	-15.052	0.100
598.500	-26.019	0.100
598.600	-38.532	0.100
598.700	-41.976	0.100
598.800	-34.358	0.100
598.900	-35.029	0.100
599.000	-30.028	0.100
599.100	-30.623	0.100
599.200	-33.218	0.100
599.300	-41.546	0.100
599.400	-30.753	0.100
599.500	-28.460	0.100
599.600	-36.384	0.100
599.700	-25.727	0.100
599.800	-42.026	0.100
599.900	-44.747	0.100
600.000	-29.069	0.100
600.100	-22.220	0.100
600.200	-25.609	0.100
600.300	-43.028	0.100
600.400	-36.053	0.100
600.500	-35.755	0.100
600.600	-35.052	0.100
600.700	-36.165	0.100
600.800	-27.220	0.100
600.900	-34.572	0.100
601.000	-26.831	0.100
601.100	-29.508	0.100
601.200	-36.857	0.100
601.300	-34.809	0.100
601.400	-33.115	0.100
601.500	-30.855	0.100
601.600	-31.890	0.100
601.700	-32.217	0.100
601.800	-30.111	0.100
601.900	-32.034	0.100
602.000	-24.368	0.100
602.100	-22.194	0.100
602.200	-31.523	0.100
602.300	-22.170	0.100
602.400	-24.419	0.100
602.500	-28.375	0.100
602.600	-32.048	0.100
602.700	-24.941	0.100
602.800	-24.614	0.100
602.900	-31.961	0.100
603.000	-36.678	0.100
603.100	-28.916	0.100
603.200	-32.231	0.100
603.300	-24.338	0.100
603.400	-18.910	0.100
603.500	-29.183	0.100
603.600	-28.408	0.100
603.700	-41.402	0.100
603.800	-33.900	0.100
603.900	-26.401	0.100
604.000	-22.879	0.100
604.100	-29.303	0.100
604.200	-38.259	0.100
604.300	-24.850	0.100
604.400	-25.829	0.100
604.500	-35.120	0.100
604.600	-38.224	0.100
604.700	-35.942	0.100
604.800	-34.889	0.100
604.900	-29.464	0.100
605.000	-32.606	0.100
605.100	-21.432	0.100
605.200	-15.398	0.100
605.300	-25.310	0.100
605.400	-30.779	0.100
605.500	-21.692	0.100
605.600	-31.729	0.100
605.700	-29.117	0.100
605.800	-35.477	0.100
605.900	-28.885	0.100
606.000	-22.723	0.100
606.100	-18.166	0.100
606.200	-42.132	0.100
606.300	-25.972	0.100
606.400	-33.585	0.100
606.500	-30.388	0.100
606.600	-21.351	0.100
606.700	-28.884	0.100
606.800	-24.518	0.100
606.900	-36.349	0.100
607.000	-29.808	0.100
607.100	-30.273	0.100
607.200	-32.473	0.100
607.300	-32.883	0.100
607.400	-29.980	0.100
607.500	-26.366	0.100
607.600	-25.662	0.100
607.700	-29.495	0.100
607.800	-37.843	0.100
607.900	-21.541	0.100
608.000	-35.223	0.100
608.100	-19.012	0.100
608.200	-19.114	0.100
608.300	-22.007	0.100
608.400	-34.479	0.100
608.500	-29.498	0.100
608.600	-30.574	0.100
608.700	-24.341	0.100
608.800	-32.624	0.100
608.900	-20.405	0.100
609.000	-27.475	0.100
609.100	-32.407	0.100
609.200	-27.852	0.100
609.300	-34.186	0.100
609.400	-28.916	0.100
609.500	-22.766	0.100
609.600	-19.434	0.100
609.700	-40.102	0.100
609.800	-30.391	0.100
609.900	-20.678	0.100
610.000	-20.198	0.100
610.100	-15.996	0.100
610.200	-35.343	0.100
610.300	-34.483	0.100
610.400	-26.841	0.100
610.500	-31.701	0.100
610.600	-30.075	0.100
610.700	-35.459	0.100
610.800	-28.511	0.100
610.900	-25.299	0.100
611.000	-32.718	0.100
611.100	-25.691	0.100
611.200	-26.968	0.100
611.300	-17.680	0.100
611.400	-27.717	0.100
611.500	-24.565	0.100
611.600	-22.846	0.100
611.700	-23.985	0.100
611.800	-29.432	0.100
611.900	-11.554	0.100
612.000	-34.210	0.100
612.100	-27.461	0.100
612.200	-23.236	0.100
612.300	-34.615	0.100
612.400	-22.319	0.100
612.500	-26.849	0.100
612.600	-28.765	0.100
612.700	-36.440	0.100
612.800	-23.065	0.100
612.900	-32.125	0.100
613.000	-26.647	0.100
613.100	-17.598	0.100
613.200	-28.666	0.100
613.300	-27.106	0.100
613.400	-20.499	0.100
613.500	-24.876	0.100
613.600	-21.551	0.100
613.700	-33.567	0.100
613.800	-25.431	0.100
613.900	-21.310	0.100
614.000	-21.631	0.100
614.100	-26.732	0.100
614.200	-24.631	0.100
614.300	-20.851	0.100
614.400	-23.679	0.100
614.500	-21.102	0.100
614.600	-28.328	0.100
614.700	-31.339	0.100
614.800	-39.076	0.100
614.900	-24.461	0.100
615.000	-17.954	0.100
615.100	-29.998	0.100
615.200	-18.831	0.100
615.300	-23.432	0.100
615.400	-29.441	0.100
615.500	-36.499	0.100
615.600	-22.455	0.100
615.700	-19.086	0.100
615.800	-23.148	0.100
615.900	-35.484	0.100
616.000	-29.128	0.100
616.100	-18.273	0.100
616.200	-26.546	0.100
616.300	-17.717	0.100
616.400	-28.013	0.100
616.500	-15.067	0.100
616.600	-12.476	0.100
616.700	-31.306	0.100
616.800	-26.380	0.100
616.900	-28.216	0.100
617.000	-29.683	0.100
617.100	-24.875	0.100
617.200	-23.478	0.100
617.300	-26.325	0.100
617.400	-24.641	0.100
617.500	-12.520	0.100
617.600	-22.371	0.100
617.700	-18.042	0.100
617.800	-32.360	0.100
617.900	-28.460	0.100
618.000	-27.208	0.100
618.100	-24.867	0.100
618.200	-25.529	0.100
618.300	-23.589	0.100
618.400	-26.705	0.100
618.500	-18.417	0.100
618.600	-29.419	0.100
618.700	-22.327	0.100
618.800	-8.612	0.100
618.900	-23.707	0.100
619.000	-30.489	0.100
619.100	-30.573	0.100
619.200	-38.824	0.100
619.300	-28.732	0.100
619.400	-34.269	0.100
619.500	-22.576	0.100
619.600	-20.749	0.100
619.700	-17.918	0.100
619.800	-27.984	0.100
619.900	-24.004	0.100
620.000	-23.889	0.100
620.100	-20.730	0.100
620.200	-27.282	0.100
620.300	-29.687	0.100
620.400	-33.611	0.100
620.500	-22.572	0.100
620.600	-23.276	0.100
620.700	-12.571	0.100
620.800	-22.908	0.100
620.900	-37.079	0.100
621.000	-19.784	0.100
621.100	-26.653	0.100
621.200	-29.904	0.100
621.300	-29.279	0.100
621.400	-13.741	0.100
621.500	-11.419	0.100
621.600	-31.781	0.100
621.700	-33.204	0.100
621.800	-18.740	0.100
621.900	-12.672	0.100
622.000	-25.518	0.100
622.100	-28.454	0.100
622.200	-16.185	0.100
622.300	-24.325	0.100
622.400	-19.279	0.100
622.500	-17.931	0.100
622.600	-22.003	0.100
622.700	-23.518	0.100
622.800	-31.199	0.100
622.900	-31.858	0.100
623.000	-26.420	0.100
623.100	-26.856	0.100
623.200	-25.579	0.100
623.300	-18.745	0.100
623.400	-19.373	0.100
623.500	-27.881	0.100
623.600	-19.999	0.100
623.700	-32.249	0.100
623.800	-20.856	0.100
623.900	-24.650	0.100
624.000	-23.821	0.100
624.100	-31.608	0.100
624.200	-24.149	0.100
624.300	-23.942	0.100
624.400	-12.458	0.100
624.500	-22.361	0.100
624.600	-20.109	0.100
624.700	-18.645	0.100
624.800	-35.186	0.100
624.900	-20.818	0.100
625.000	-23.693	0.100
625.100	-24.096	0.100
625.200	-16.059	0.100
625.300	-24.568	0.100
625.400	-23.018	0.100
625.500	-35.542	0.100
625.600	-19.938	0.100
625.700	-29.871	0.100
625.800	-22.462	0.100
625.900	-27.043	0.100
626.000	-29.297	0.100
626.100	-17.660	0.100
626.200	-27.181	0.100
626.300	-24.386	0.100
626.400	-13.605	0.100
626.500	-31.536	0.100
626.600	-36.151	0.100
626.700	-28.038	0.100
626.800	-17.175	0.100
626.900	-17.395	0.100
627.000	-25.614	0.100
627.100	-21.006	0.100
627.200	-22.178	0.100
627.300	-31.072	0.100
627.400	-21.191	0.100
627.500	-22.471	0.100
627.600	-25.281	0.100
627.700	-19.517	0.100
627.800	-25.848	0.100
627.900	-27.932	0.100
628.000	-10.588	0.100
628.100	-13.738	0.100
628.200	-14.528	0.100
628.300	-27.193	0.100
628.400	-27.982	0.100
628.500	-27.270	0.100
628.600	-19.246	0.100
628.700	-16.051	0.100
628.800	-20.871	0.100
628.900	-31.223	0.100
629.000	-21.913	0.100
629.100	-20.386	0.100
629.200	-26.900	0.100
629.300	-14.609	0.100
629.400	-33.084	0.100
629.500	-20.549	0.100
629.600	-15.389	0.100
629.700	-26.367	0.100
629.800	-22.377	0.100
629.900	-18.030	0.100
630.000	-24.105	0.100
630.100	-20.076	0.100
630.200	-28.291	0.100
630.300	-23.523	0.100
630.400	-19.558	0.100
630.500	-16.152	0.100
630.600	-11.321	0.100
630.700	-3.332	0.100
630.800	12.534	0.100
630.900	23.440	0.100
631.000	13.083	0.100
631.100	22.109	0.100
631.200	17.945	0.100
631.300	24.175	0.100
631.400	18.217	0.100
631.500	24.319	0.100
631.600	36.006	0.100
631.700	30.286	0.100
631.800	37.549	0.100
631.900	40.812	0.100
632.000	34.824	0.100
632.100	29.466	0.100
632.200	51.570	0.100
632.300	36.780	0.100
632.400	26.633	0.100
632.500	43.052	0.100
632.600	30.057	0.100
632.700	44.350	0.100
632.800	45.902	0.100
632.900	30.450	0.100
633.000	42.880	0.100
633.100	46.301	0.100
633.200	33.928	0.100
633.300	34.156	0.100
633.400	45.606	0.100
633.500	43.056	0.100
633.600	45.541	0.100
633.700	40.663	0.100
633.800	44.300	0.100
633.900	40.709	0.100
634.000	51.296	0.100
634.100	38.722	0.100
634.200	42.270	0.100
634.300	38.257	0.100
634.400	50.828	0.100
634.500	35.994	0.100
634.600	42.988	0.100
634.700	29.142	0.100
634.800	40.911	0.100
634.900	52.708	0.100
635.000	44.846	0.100
635.100	37.662	0.100
635.200	42.642	0.100
635.300	36.785	0.100
635.400	54.769	0.100
635.500	48.699	0.100
635.600	29.785	0.100
635.700	41.180	0.100
635.800	43.348	0.100
635.900	47.789	0.100
636.000	29.444	0.100
636.100	44.162	0.100
636.200	44.776	0.100
636.300	32.643	0.100
636.400	31.531	0.100
636.500	34.224	0.100
636.600	36.349	0.100
636.700	33.781	0.100
636.800	41.374	0.100
636.900	33.643	0.100
637.000	34.091	0.100
637.100	34.372	0.100
637.200	38.564	0.100
637.300	30.061	0.100
637.400	30.545	0.100
637.500	38.104	0.100
637.600	35.853	0.100
637.700	37.309	0.100
637.800	37.054	0.100
637.900	45.624	0.100
638.000	28.604	0.100
638.100	30.998	0.100
638.200	32.775	0.100
638.300	40.317	0.100
638.400	28.372	0.100
638.500	25.249	0.100
638.600	29.194	0.100
638.700	34.547	0.100
638.800	33.947	0.100
638.900	42.859	0.100
639.000	43.739	0.100
639.100	35.987	0.100
639.200	28.421	0.100
639.300	41.043	0.100
639.400	29.995	0.100
639.500	41.643	0.100
639.600	39.601	0.100
639.700	36.019	0.100
639.800	36.201	0.100
639.900	36.010	0.100
640.000	35.334	0.100
640.100	42.785	0.100
640.200	34.837	0.100
640.300	34.711	0.100
640.400	34.987	0.100
640.500	40.064	0.100
640.600	37.734	0.100
640.700	43.390	0.100
640.800	42.198	0.100
640.900	37.687	0.100
641.000	33.375	0.100
641.100	28.794	0.100
641.200	52.947	0.100
641.300	44.739	0.100
641.400	39.084	0.100
641.500	39.217	0.100
641.600	31.165	0.100
641.700	42.119	0.100
641.800	35.921	0.100
641.900	45.677	0.100
642.000	49.067	0.100
642.100	42.012	0.100
642.200	30.091	0.100
642.300	34.940	0.100
642.400	38.115	0.100
642.500	32.994	0.100
642.600	50.488	0.100
642.700	42.434	0.100
642.800	45.993	0.100
642.900	37.746	0.100
643.000	38.909	0.100
643.100	42.767	0.100
643.200	46.638	0.100
643.300	38.247	0.100
643.400	44.191	0.100
643.500	44.453	0.100
643.600	40.838	0.100
643.700	44.168	0.100
643.800	34.869	0.100
643.900	30.962	0.100
644.000	43.092	0.100
644.100	46.394	0.100
644.200	35.379	0.100
644.300	36.267	0.100
644.400	46.985	0.100
644.500	51.189	0.100
644.600	25.084	0.100
644.700	46.707	0.100
644.800	39.623	0.100
644.900	52.853	0.100
645.000	54.430	0.100
645.100	49.174	0.100
645.200	39.591	0.100
645.300	30.493	0.100
645.400	46.061	0.100
645.500	39.701	0.100
645.600	43.816	0.100
645.700	42.192	0.100
645.800	47.728	0.100
645.900	45.237	0.100
646.000	48.191	0.100
646.100	49.809	0.100
646.200	42.219	0.100
646.300	32.441	0.100
646.400	51.017	0.100
646.500	45.969	0.100
646.600	49.538	0.100
646.700	45.230	0.100
646.800	51.355	0.100
646.900	39.312	0.100
647.000	48.410	0.100
647.100	52.330	0.100
647.200	51.873	0.100
647.300	44.195	0.100
647.400	60.651	0.100
647.500	65.015	0.100
647.600	40.738	0.100
647.700	52.544	0.100
647.800	42.795	0.100
647.900	61.136	0.100
648.000	65.291	0.100
648.100	47.784	0.100
648.200	62.048	0.100
648.300	52.034	0.100
648.400	59.530	0.100
648.500	59.047	0.100
648.600	45.323	0.100
648.700	53.527	0.100
648.800	58.974	0.100
648.900	55.842	0.100
649.000	46.919	0.100
649.100	46.982	0.100
649.200	62.174	0.100
649.300	65.980	0.100
649.400	56.648	0.100
649.500	57.837	0.100
649.600	54.981	0.100
649.700	62.515	0.100
649.800	52.185	0.100
649.900	57.154	0.100
650.000	60.815	0.100
650.100	70.407	0.100
650.200	58.639	0.100
650.300	62.686	0.100
650.400	58.363	0.100
650.500	59.610	0.100
650.600	62.866	0.100
650.700	65.660	0.100
650.800	71.558	0.100
650.900	62.738	0.100
651.000	63.999	0.100
651.100	72.958	0.100
651.200	77.210	0.100
651.300	69.002	0.100
651.400	67.366	0.100
651.500	56.444	0.100
651.600	63.702	0.100
651.700	60.256	0.100
651.800	78.472	0.100
651.900	72.626	0.100
652.000	70.258	0.100
652.100	68.895	0.100
652.200	70.128	0.100
652.300	81.760	0.100
652.400	79.919	0.100
652.500	68.254	0.100
652.600	58.896	0.100
652.700	72.801	0.100
652.800	77.602	0.100
652.900	64.897	0.100
653.000	76.944	0.100
653.100	76.426	0.100
653.200	76.249	0.100
653.300	75.439	0.100
653.400	69.260	0.100
653.500	82.839	0.100
653.600	78.828	0.100
653.700	83.372	0.100
653.800	73.005	0.100
653.900	65.645	0.100
654.000	69.567	0.100
654.100	74.370	0.100
654.200	80.421	0.100
654.300	73.625	0.100
654.400	83.228	0.100
654.500	77.238	0.100
654.600	69.917	0.100
654.700	70.726	0.100
654.800	68.592	0.100
654.900	91.898	0.100
655.000	80.128	0.100
655.100	83.112	0.100
655.200	67.506	0.100
655.300	76.508	0.100
655.400	77.503	0.100
655.500	79.764	0.100
655.600	83.627	0.100
655.700	87.565	0.100
655.800	87.650	0.100
655.900	79.891	0.100
656.000	74.466	0.100
656.100	64.321	0.100
656.200	84.570	0.100
656.300	99.248	0.100
656.400	77.449	0.100
656.500	85.083	0.100
656.600	89.197	0.100
656.700	76.066	0.100
656.800	78.157	0.100
656.900	76.815	0.100
657.000	87.966	0.100
657.100	63.925	0.100
657.200	86.343	0.100
657.300	83.868	0.100
657.400	86.369	0.100
657.500	84.874	0.100
657.600	79.322	0.100
657.700	85.245	0.100
657.800	83.667	0.100
657.900	87.390	0.100
658.000	65.717	0.100
658.100	72.753	0.100
658.200	84.842	0.100
658.300	70.245	0.100
658.400	87.825	0.100
658.500	73.170	0.100
658.600	79.551	0.100
658.700	86.924	0.100
658.800	84.155	0.100
658.900	81.597	0.100
659.000	86.025	0.100
659.100	87.414	0.100
659.200	84.899	0.100
659.300	76.549	0.100
659.400	84.989	0.100
659.500	75.409	0.100
659.600	82.355	0.100
659.700	82.723	0.100
659.800	79.132	0.100
659.900	69.838	0.100
660.000	76.587	0.100
660.100	74.070	0.100
660.200	85.515	0.100
660.300	75.846	0.100
660.400	76.695	0.100
660.500	82.141	0.100
660.600	78.619	0.100
660.700	79.873	0.100
660.800	80.621	0.100
660.900	75.558	0.100
661.000	65.789	0.100
661.100	87.944	0.100
661.200	74.556	0.100
661.300	84.504	0.100
661.400	74.529	0.100
661.500	81.591	0.100
661.600	67.470	0.100
661.700	74.792	0.100
661.800	75.594	0.100
661.900	77.867	0.100
662.000	66.479	0.100
662.100	78.372	0.100
662.200	84.561	0.100
662.300	80.295	0.100
662.400	83.277	0.100
662.500	65.493	0.100
662.600	78.143	0.100
662.700	73.335	0.100
662.800	66.153	0.100
662.900	85.167	0.100
663.000	86.403	0.100
663.100	70.107	0.100
663.200	76.822	0.100
663.300	68.221	0.100
663.400	75.759	0.100
663.500	73.223	0.100
663.600	74.109	0.100
663.700	85.264	0.100
663.800	68.572	0.100
663.900	81.998	0.100
664.000	79.187	0.100
664.100	68.643	0.100
664.200	73.075	0.100
664.300	67.925	0.100
664.400	67.006	0.100
664.500	84.798	0.100
664.600	72.058	0.100
664.700	64.462	0.100
664.800	73.094	0.100
664.900	68.297	0.100
665.000	83.198	0.100
665.100	67.198	0.100
665.200	72.169	0.100
665.300	69.958	0.100
665.400	62.702	0.100
665.500	83.598	0.100
665.600	71.503	0.100
665.700	72.799	0.100
665.800	74.818	0.100
665.900	84.436	0.100
666.000	72.505	0.100
666.100	72.475	0.100
666.200	69.753	0.100
666.300	67.425	0.100
666.400	66.847	0.100
666.500	72.090	0.100
666.600	77.309	0.100
666.700	72.739	0.100
666.800	72.281	0.100
666.900	69.971	0.100
667.000	60.961	0.100
667.100	71.893	0.100
667.200	71.711	0.100
667.300	77.760	0.100
667.400	66.168	0.100
667.500	69.008	0.100
667.600	67.926	0.100
667.700	66.606	0.100
667.800	70.042	0.100
667.900	69.285	0.100
668.000	75.365	0.100
668.100	55.239	0.100
668.200	71.300	0.100
668.300	74.247	0.100
668.400	72.813	0.100
668.500	82.034	0.100
668.600	60.317	0.100
668.700	77.164	0.100
668.800	68.093	0.100
668.900	66.872	0.100
669.000	70.521	0.100
669.100	80.651	0.100
669.200	57.238	0.100
669.300	68.217	0.100
669.400	65.917	0.100
669.500	67.646	0.100
669.600	72.834	0.100
669.700	68.675	0.100
669.800	70.897	0.100
669.900	74.955	0.100
670.000	62.582	0.100
670.100	72.025	0.100
670.200	68.491	0.100
670.300	73.049	0.100
670.400	80.698	0.100
670.500	66.586	0.100
670.600	66.196	0.100
670.700	56.080	0.100
670.800	67.583	0.100
670.900	67.467	0.100
671.000	73.829	0.100
671.100	75.943	0.100
671.200	59.010	0.100
671.300	72.600	0.100
671.400	74.744	0.100
671.500	59.135	0.100
671.600	65.417	0.100
671.700	70.316	0.100
671.800	70.242	0.100
671.900	72.273	0.100
672.000	69.187	0.100
672.100	67.164	0.100
672.200	73.975	0.100
672.300	74.747	0.100
672.400	82.336	0.100
672.500	66.782	0.100
672.600	59.521	0.100
672.700	66.153	0.100
672.800	78.656	0.100
672.900	72.784	0.100
673.000	57.965	0.100
673.100	68.258	0.100
673.200	66.883	0.100
673.300	74.753	0.100
673.400	67.249	0.100
673.500	59.385	0.100
673.600	65.921	0.100
673.700	66.879	0.100
673.800	61.399	0.100
673.900	80.035	0.100
674.000	80.982	0.100
674.100	64.919	0.100
674.200	55.929	0.100
674.300	73.270	0.100
674.400	60.024	0.100
674.500	77.666	0.100
674.600	70.939	0.100
674.700	75.954	0.100
674.800	63.690	0.100
674.900	57.738	0.100
675.000	71.680	0.100
675.100	65.850	0.100
675.200	70.177	0.100
675.300	65.943	0.100
675.400	69.799	0.100
675.500	73.069	0.100
675.600	75.598	0.100
675.700	74.306	0.100
675.800	62.996	0.100
675.900	67.823	0.100
676.000	69.832	0.100
676.100	58.473	0.100
676.200	65.647	0.100
676.300	63.490	0.100
676.400	74.803	0.100
676.500	55.107	0.100
676.600	69.714	0.100
676.700	66.355	0.100
676.800	63.076	0.100
676.900	66.413	0.100
677.000	76.063	0.100
677.100	68.429	0.100
677.200	72.482	0.100
677.300	72.981	0.100
677.400	54.771	0.100
677.500	65.366	0.100
677.600	62.946	0.100
677.700	68.693	0.100
677.800	69.054	0.100
677.900	79.400	0.100
678.000	70.199	0.100
678.100	73.905	0.100
678.200	54.984	0.100
678.300	62.387	0.100
678.400	77.593	0.100
678.500	62.566	0.100
678.600	61.031	0.100
678.700	66.497	0.100
678.800	65.929	0.100
678.900	57.195	0.100
679.000	73.274	0.100
679.100	56.186	0.100
679.200	70.403	0.100
679.300	67.109	0.100
679.400	60.321	0.100
679.500	73.467	0.100
679.600	65.862	0.100
679.700	52.790	0.100
679.800	69.625	0.100
679.900	62.933	0.100
680.000	72.797	0.100
680.100	65.472	0.100
680.200	65.215	0.100
680.300	67.134	0.100
680.400	63.023	0.100
680.500	70.739	0.100
680.600	72.939	0.100
680.700	63.417	0.100
680.800	68.216	0.100
680.900	64.097	0.100
681.000	76.106	0.100
681.100	65.517	0.100
681.200	72.093	0.100
681.300	72.813	0.100
681.400	59.250	0.100
681.500	72.182	0.100
681.600	61.680	0.100
681.700	62.692	0.100
681.800	65.966	0.100
681.900	62.526	0.100
682.000	47.224	0.100
682.100	62.522	0.100
682.200	68.717	0.100
682.300	66.968	0.100
682.400	69.490	0.100
682.500	60.718	0.100
682.600	71.544	0.100
682.700	63.160	0.100
682.800	61.688	0.100
682.900	67.059	0.100
683.000	69.692	0.100
683.100	61.677	0.100
683.200	61.817	0.100
683.300	64.156	0.100
683.400	69.338	0.100
683.500	79.248	0.100
683.600	56.062	0.100
683.700	66.897	0.100
683.800	56.192	0.100
683.900	61.678	0.100
684.000	69.544	0.100
684.100	68.916	0.100
684.200	64.144	0.100
684.300	57.710	0.100
684.400	65.705	0.100
684.500	61.657	0.100
684.600	71.289	0.100
684.700	62.648	0.100
684.800	57.884	0.100
684.900	61.263	0.100
685.000	66.168	0.100
685.100	61.580	0.100
685.200	67.906	0.100
685.300	73.698	0.100
685.400	63.547	0.100
685.500	69.240	0.100
685.600	72.495	0.100
685.700	66.334	0.100
685.800	69.045	0.100
685.900	64.235	0.100
686.000	58.305	0.100
686.100	69.829	0.100
686.200	65.909	0.100
686.300	58.109	0.100
686.400	56.522	0.100
686.500	76.975	0.100
686.600	57.714	0.100
686.700	64.603	0.100
686.800	60.361	0.100
686.900	56.615	0.100
687.000	66.384	0.100
687.100	65.447	0.100
687.200	69.540	0.100
687.300	65.124	0.100
687.400	55.745	0.100
687.500	66.536	0.100
687.600	60.517	0.100
687.700	60.070	0.100
687.800	60.599	0.100
687.900	71.115	0.100
688.000	56.272	0.100
688.100	80.500	0.100
688.200	65.383	0.100
688.300	56.685	0.100
688.400	68.519	0.100
688.500	76.684	0.100
688.600	55.952	0.100
688.700	55.553	0.100
688.800	65.296	0.100
688.900	62.101	0.100
689.000	60.440	0.100
689.100	75.329	0.100
689.200	62.867	0.100
689.300	59.466	0.100
689.400	56.631	0.100
689.500	55.941	0.100
689.600	57.432	0.100
689.700	68.326	0.100
689.800	67.413	0.100
689.900	62.518	0.100
690.000	62.865	0.100
690.100	70.244	0.100
690.200	60.065	0.100
690.300	73.164	0.100
690.400	52.246	0.100
690.500	50.312	0.100
690.600	44.338	0.100
690.700	42.774	0.100
690.800	33.438	0.100
690.900	38.075	0.100
691.000	29.929	0.100
691.100	21.559	0.100
691.200	18.817	0.100
691.300	22.695	0.100
691.400	1.034	0.100
691.500	18.445	0.100
691.600	9.666	0.100
691.700	9.973	0.100
691.800	-0.220	0.100
691.900	9.718	0.100
692.000	4.005	0.100
692.100	-10.339	0.100
692.200	-3.656	0.100
692.300	-3.839	0.100
692.400	0.920	0.100
692.500	-1.740	0.100
692.600	-12.068	0.100
692.700	-7.804	0.100
692.800	2.854	0.100
692.900	-7.072	0.100
693.000	-16.128	0.100
693.100	-26.848	0.100
693.200	-14.743	0.100
693.300	-0.899	0.100
693.400	-13.491	0.100
693.500	-17.026	0.100
693.600	-21.692	0.100
693.700	-10.150	0.100
693.800	-13.312	0.100
693.900	-15.992	0.100
694.000	-6.876	0.100
694.100	-22.431	0.100
694.200	-21.426	0.100
694.300	-23.961	0.100
694.400	-24.536	0.100
694.500	-18.979	0.100
694.600	-19.570	0.100
694.700	-17.505	0.100
694.800	-31.478	0.100
694.900	-24.416	0.100
695.000	-14.345	0.100
695.100	-16.661	0.100
695.200	-14.632	0.100
695.300	-27.735	0.100
695.400	-24.101	0.100
695.500	-24.008	0.100
695.600	-36.437	0.100
695.700	-29.797	0.100
695.800	-29.790	0.100
695.900	-23.475	0.100
696.000	-31.015	0.100
696.100	-25.927	0.100
696.200	-14.439	0.100
696.300	-21.105	0.100
696.400	-18.335	0.100
696.500	-26.398	0.100
696.600	-29.999	0.100
696.700	-31.863	0.100
696.800	-24.650	0.100
696.900	-30.638	0.100
697.000	-18.706	0.100
697.100	-19.707	0.100
697.200	-25.996	0.100
697.300	-26.779	0.100
697.400	-24.720	0.100
697.500	-24.273	0.100
697.600	-23.672	0.100
697.700	-29.810	0.100
697.800	-27.431	0.100
697.900	-15.527	0.100
698.000	-24.621	0.100
698.100	-28.044	0.100
698.200	-10.772	0.100
698.300	-18.223	0.100
698.400	-20.708	0.100
698.500	-18.855	0.100
698.600	-19.573	0.100
698.700	-25.440	0.100
698.800	-16.909	0.100
698.900	-13.317	0.100
699.000	-14.596	0.100
699.100	-23.164	0.100
699.200	-22.933	0.100
699.300	-19.749	0.100
699.400	-18.977	0.100
699.500	-36.329	0.100
699.600	-25.707	0.100
699.700	-23.487	0.100
699.800	-22.949	0.100
699.900	-21.662	0.100
700.000	-10.946	0.100
700.100	-20.482	0.100
700.200	-16.604	0.100
700.300	-9.978	0.100
700.400	-22.778	0.100
700.500	-12.644	0.100
700.600	-28.854	0.100
700.700	-23.297	0.100
700.800	-22.661	0.100
700.900	-25.371	0.100
701.000	-18.067	0.100
701.100	-20.925	0.100
701.200	-32.865	0.100
701.300	-34.155	0.100
701.400	-18.333	0.100
701.500	-10.963	0.100
701.600	-25.033	0.100
701.700	-16.743	0.100
701.800	-23.734	0.100
701.900	-25.949	0.100
702.000	-27.447	0.100
702.100	-25.520	0.100
702.200	-21.682	0.100
702.300	-22.892	0.100
702.400	-14.463	0.100
702.500	-27.255	0.100
702.600	-22.396	0.100
702.700	-25.949	0.100
702.800	-15.838	0.100
702.900	-21.214	0.100
703.000	-18.506	0.100
703.100	-33.603	0.100
703.200	-28.094	0.100
703.300	-21.857	0.100
703.400	-18.802	0.100
703.500	-25.174	0.100
703.600	-14.852	0.100
703.700	-23.780	0.100
703.800	-27.567	0.100
703.900	-10.912	0.100
704.000	-17.134	0.100
704.100	-18.754	0.100
704.200	-24.894	0.100
704.300	-19.246	0.100
704.400	-27.230	0.100
704.500	-31.115	0.100
704.600	-20.747	0.100
704.700	-17.015	0.100
704.800	-22.258	0.100
704.900	-17.360	0.100
705.000	-17.237	0.100
705.100	-24.371	0.100
705.200	-28.491	0.100
705.300	-16.203	0.100
705.400	-21.145	0.100
705.500	-31.141	0.100
705.600	-16.433	0.100
705.700	-26.510	0.100
705.800	-27.966	0.100
705.900	-24.354	0.100
706.000	-24.980	0.100
706.100	-29.603	0.100
706.200	-19.608	0.100
706.300	-18.340	0.100
706.400	-15.667	0.100
706.500	-18.255	0.100
706.600	-19.429	0.100
706.700	-21.223	0.100
706.800	-19.116	0.100
706.900	-29.194	0.100
707.000	-30.212	0.100
707.100	-28.024	0.100
707.200	-18.975	0.100
707.300	-23.145	0.100
707.400	-27.189	0.100
707.500	-28.022	0.100
707.600	-25.389	0.100
707.700	-27.687	0.100
707.800	-34.313	0.100
707.900	-22.590	0.100
708.000	-14.504	0.100
708.100	-28.645	0.100
708.200	-26.188	0.100
708.300	-28.064	0.100
708.400	-25.827	0.100
708.500	-22.433	0.100
708.600	-34.716	0.100
708.700	-41.267	0.100
708.800	-21.112	0.100
708.900	-37.214	0.100
709.000	-28.669	0.100
709.100	-20.359	0.100
709.200	-19.761	0.100
709.300	-27.685	0.100
709.400	-32.695	0.100
709.500	-32.178	0.100
709.600	-32.555	0.100
709.700	-14.762	0.100
709.800	-20.110	0.100
709.900	-31.390	0.100
710.000	-28.732	0.100
710.100	-24.978	0.100
710.200	-25.394	0.100
710.300	-24.243	0.100
710.400	-28.484	0.100
710.500	-29.387	0.100
710.600	-29.684	0.100
710.700	-39.728	0.100
710.800	-29.692	0.100
710.900	-20.434	0.100
711.000	-24.770	0.100
711.100	-33.926	0.100
711.200	-29.185	0.100
711.300	-26.230	0.100
711.400	-39.341	0.100
711.500	-28.717	0.100
711.600	-21.291	0.100
711.700	-28.119	0.100
711.800	-18.516	0.100
711.900	-33.426	0.100
712.000	-25.852	0.100
712.100	-32.081	0.100
712.200	-27.576	0.100
712.300	-37.279	0.100
712.400	-30.089	0.100
712.500	-27.105	0.100
712.600	-29.617	0.100
712.700	-37.961	0.100
712.800	-45.796	0.100
712.900	-27.148	0.100
713.000	-25.784	0.100
713.100	-28.839	0.100
713.200	-31.891	0.100
713.300	-30.845	0.100
713.400	-31.130	0.100
713.500	-28.837	0.100
713.600	-22.256	0.100
713.700	-25.427	0.100
713.800	-25.537	0.100
713.900	-32.119	0.100
714.000	-27.931	0.100
714.100	-29.334	0.100
714.200	-33.472	0.100
714.300	-24.661	0.100
714.400	-37.465	0.100
714.500	-13.452	0.100
714.600	-27.093	0.100
714.700	-19.157	0.100
714.800	-25.760	0.100
714.900	-37.299	0.100
715.000	-28.120	0.100
715.100	-24.651	0.100
715.200	-23.928	0.100
715.300	-27.647	0.100
715.400	-35.657	0.100
715.500	-31.889	0.100
715.600	-26.281	0.100
715.700	-31.508	0.100
715.800	-24.400	0.100
715.900	-21.653	0.100
716.000	-33.305	0.100
716.100	-29.261	0.100
716.200	-26.075	0.100
716.300	-35.178	0.100
716.400	-44.599	0.100
716.500	-26.115	0.100
716.600	-25.079	0.100
716.700	-31.583	0.100
716.800	-25.431	0.100
716.900	-29.855	0.100
717.000	-23.537	0.100
717.100	-34.792	0.100
717.200	-24.010	0.100
717.300	-42.134	0.100
717.400	-28.215	0.100
717.500	-29.428	0.100
717.600	-31.467	0.100
717.700	-28.140	0.100
717.800	-31.399	0.100
717.900	-43.346	0.100
718.000	-37.700	0.100
718.100	-32.879	0.100
718.200	-32.681	0.100
718.300	-23.665	0.100
718.400	-23.647	0.100
718.500	-26.549	0.100
718.600	-29.155	0.100
718.700	-31.214	0.100
718.800	-39.268	0.100
718.900	-33.373	0.100
719.000	-30.418	0.100
719.100	-29.610	0.100
719.200	-32.295	0.100
719.300	-34.853	0.100
719.400	-28.729	0.100
719.500	-21.630	0.100
719.600	-28.297	0.100
719.700	-35.521	0.100
719.800	-36.837	0.100
719.900	-35.558	0.100
720.000	-28.104	0.100
720.100	-18.886	0.100
720.200	-33.399	0.100
720.300	-38.717	0.100
720.400	-35.279	0.100
720.500	-27.676	0.100
720.600	-41.505	0.100
720.700	-25.747	0.100
720.800	-37.259	0.100
720.900	-39.682	0.100
721.000	-33.757	0.100
721.100	-33.399	0.100
721.200	-22.121	0.100
721.300	-33.023	0.100
721.400	-27.505	0.100
721.500	-35.479	0.100
721.600	-41.037	0.100
721.700	-31.120	0.100
721.800	-24.054	0.100
721.900	-34.373	0.100
722.000	-37.106	0.100
722.100	-45.589	0.100
722.200	-31.289	0.100
722.300	-31.499	0.100
722.400	-42.251	0.100
722.500	-42.665	0.100
722.600	-39.095	0.100
722.700	-37.597	0.100
722.800	-28.114	0.100
722.900	-41.855	0.100
723.000	-37.579	0.100
723.100	-27.142	0.100
723.200	-28.165	0.100
723.300	-47.900	0.100
723.400	-40.934	0.100
723.500	-34.570	0.100
723.600	-43.143	0.100
723.700	-46.705	0.100
723.800	-31.718	0.100
723.900	-28.367	0.100
724.000	-39.799	0.100
724.100	-31.676	0.100
724.200	-40.260	0.100
724.300	-28.877	0.100
724.400	-44.491	0.100
724.500	-32.516	0.100
724.600	-45.109	0.100
724.700	-33.778	0.100
724.800	-33.558	0.100
724.900	-39.370	0.100
725.000	-31.830	0.100
725.100	-35.767	0.100
725.200	-30.757	0.100
725.300	-40.670	0.100
725.400	-44.227	0.100
725.500	-30.836	0.100
725.600	-42.676	0.100
725.700	-38.949	0.100
725.800	-22.016	0.100
725.900	-40.876	0.100
726.000	-36.913	0.100
726.100	-46.935	0.100
726.200	-41.402	0.100
726.300	-43.183	0.100
726.400	-21.259	0.100
726.500	-37.478	0.100
726.600	-38.688	0.100
726.700	-32.468	0.100
726.800	-37.376	0.100
726.900	-44.215	0.100
727.000	-27.564	0.100
727.100	-31.646	0.100
727.200	-39.238	0.100
727.300	-39.773	0.100
727.400	-30.223	0.100
727.500	-37.767	0.100
727.600	-41.448	0.100
727.700	-40.078	0.100
727.800	-32.350	0.100
727.900	-47.930	0.100
728.000	-42.251	0.100
728.100	-38.128	0.100
728.200	-35.773	0.100
728.300	-27.763	0.100
728.400	-38.949	0.100
728.500	-45.938	0.100
728.600	-46.717	0.100
728.700	-40.313	0.100
728.800	-25.269	0.100
728.900	-37.478	0.100
729.000	-40.193	0.100
729.100	-37.073	0.100
729.200	-47.144	0.100
729.300	-43.093	0.100
729.400	-46.855	0.100
729.500	-31.559	0.100
729.600	-25.959	0.100
729.700	-45.991	0.100
729.800	-48.142	0.100
729.900	-40.929	0.100
730.000	-36.075	0.100
730.100	-28.551	0.100
730.200	-44.292	0.100
730.300	-34.991	0.100
730.400	-40.053	0.100
730.500	-45.096	0.100
730.600	-42.592	0.100
730.700	-33.639	0.100
730.800	-30.588	0.100
730.900	-31.787	0.100
731.000	-32.607	0.100
731.100	-46.272	0.100
731.200	-53.982	0.100
731.300	-39.004	0.100
731.400	-37.210	0.100
731.500	-33.686	0.100
731.600	-40.124	0.100
731.700	-34.903	0.100
731.800	-40.126	0.100
731.900	-27.965	0.100
732.000	-37.046	0.100
732.100	-45.581	0.100
732.200	-34.264	0.100
732.300	-42.041	0.100
732.400	-42.255	0.100
732.500	-37.257	0.100
732.600	-35.485	0.100
732.700	-35.397	0.100
732.800	-38.548	0.100
732.900	-39.931	0.100
733.000	-31.167	0.100
733.100	-40.154	0.100
733.200	-32.454	0.100
733.300	-37.257	0.100
733.400	-39.278	0.100
733.500	-41.653	0.100
733.600	-37.600	0.100
733.700	-37.005	0.100
733.800	-40.064	0.100
733.900	-44.521	0.100
734.000	-40.224	0.100
734.100	-41.709	0.100
734.200	-37.665	0.100
734.300	-36.827	0.100
734.400	-49.251	0.100
734.500	-42.910	0.100
734.600	-27.190	0.100
734.700	-36.402	0.100
734.800	-43.039	0.100
734.900	-32.719	0.100
735.000	-33.882	0.100
735.100	-31.992	0.100
735.200	-46.507	0.100
735.300	-33.440	0.100
735.400	-33.465	0.100
735.500	-36.244	0.100
735.600	-40.237	0.100
735.700	-45.841	0.100
735.800	-40.750	0.100
735.900	-44.288	0.100
736.000	-32.258	0.100
736.100	-25.479	0.100
736.200	-36.493	0.100
736.300	-39.394	0.100
736.400	-31.215	0.100
736.500	-35.125	0.100
736.600	-47.136	0.100
736.700	-33.792	0.100
736.800	-47.073	0.100
736.900	-39.335	0.100
737.000	-42.808	0.100
737.100	-38.881	0.100
737.200	-36.064	0.100
737.300	-23.478	0.100
737.400	-35.566	0.100
737.500	-45.362	0.100
737.600	-42.647	0.100
737.700	-36.748	0.100
737.800	-37.739	0.100
737.900	-48.553	0.100
738.000	-34.016	0.100
738.100	-24.656	0.100
738.200	-35.840	0.100
738.300	-35.253	0.100
738.400	-40.492	0.100
738.500	-39.056	0.100
738.600	-33.459	0.100
738.700	-39.958	0.100
738.800	-38.799	0.100
738.900	-45.344	0.100
739.000	-37.158	0.100
739.100	-33.888	0.100
739.200	-27.005	0.100
739.300	-27.262	0.100
739.400	-38.256	0.100
739.500	-41.585	0.100
739.600	-43.408	0.100
739.700	-37.837	0.100
739.800	-33.188	0.100
739.900	-30.537	0.100
740.000	-38.365	0.100
740.100	-39.884	0.100
740.200	-35.623	0.100
740.300	-30.824	0.100
740.400	-51.013	0.100
740.500	-29.316	0.100
740.600	-39.095	0.100
740.700	-45.341	0.100
740.800	-39.884	0.100
740.900	-32.956	0.100
741.000	-35.948	0.100
741.100	-32.666	0.100
741.200	-33.131	0.100
741.300	-41.062	0.100
741.400	-28.541	0.100
741.500	-41.135	0.100
741.600	-42.023	0.100
741.700	-34.886	0.100
741.800	-36.279	0.100
741.900	-42.553	0.100
742.000	-28.495	0.100
742.100	-35.737	0.100
742.200	-45.944	0.100
742.300	-28.419	0.100
742.400	-31.773	0.100
742.500	-36.932	0.100
742.600	-37.639	0.100
742.700	-32.910	0.100
742.800	-43.833	0.100
742.900	-30.452	0.100
743.000	-42.578	0.100
743.100	-26.239	0.100
743.200	-20.896	0.100
743.300	-37.585	0.100
743.400	-33.041	0.100
743.500	-27.570	0.100
743.600	-29.740	0.100
743.700	-33.200	0.100
743.800	-39.755	0.100
743.900	-33.466	0.100
744.000	-38.628	0.100
744.100	-42.907	0.100
744.200	-46.069	0.100
744.300	-24.884	0.100
744.400	-30.194	0.100
744.500	-35.415	0.100
744.600	-25.974	0.100
744.700	-26.962	0.100
744.800	-27.469	0.100
744.900	-44.237	0.100
745.000	-34.982	0.100
745.100	-22.860	0.100
745.200	-29.812	0.100
745.300	-31.554	0.100
745.400	-35.955	0.100
745.500	-30.259	0.100
745.600	-41.852	0.100
745.700	-40.830	0.100
745.800	-24.441	0.100
745.900	-33.892	0.100
746.000	-41.893	0.100
746.100	-43.137	0.100
746.200	-36.963	0.100
746.300	-30.370	0.100
746.400	-35.269	0.100
746.500	-29.694	0.100
746.600	-37.442	0.100
746.700	-34.827	0.100
746.800	-33.567	0.100
746.900	-32.003	0.100
747.000	-37.216	0.100
747.100	-25.490	0.100
747.200	-24.399	0.100
747.300	-40.453	0.100
747.400	-40.850	0.100
747.500	-37.369	0.100
747.600	-42.725	0.100
747.700	-34.171	0.100
747.800	-35.402	0.100
747.900	-25.370	0.100
748.000	-32.930	0.100
748.100	-34.022	0.100
748.200	-46.296	0.100
748.300	-38.200	0.100
748.400	-21.287	0.100
748.500	-28.066	0.100
748.600	-30.647	0.100
748.700	-19.224	0.100
748.800	-36.575	0.100
748.900	-32.663	0.100
749.000	-47.093	0.100
749.100	-35.080	0.100
749.200	-37.535	0.100
749.300	-26.586	0.100
749.400	-27.493	0.100
749.500	-17.303	0.100
749.600	-40.405	0.100
749.700	-34.336	0.100
749.800	-32.046	0.100
749.900	-37.953	0.100
750.000	-26.873	0.100
750.100	-30.186	0.100
750.200	-37.363	0.100
750.300	-45.475	0.100
750.400	-39.239	0.100
750.500	-25.733	0.100
750.600	-26.191	0.100
750.700	-25.030	0.100
750.800	-31.600	0.100
750.900	-29.993	0.100
751.000	-35.865	0.100
751.100	-33.410	0.100
751.200	-36.013	0.100
751.300	-29.294	0.100
751.400	-28.216	0.100
751.500	-27.954	0.100
751.600	-30.143	0.100
751.700	-28.984	0.100
751.800	-33.536	0.100
751.900	-26.723	0.100
752.000	-34.826	0.100
752.100	-30.016	0.100
752.200	-33.454	0.100
752.300	-32.727	0.100
752.400	-31.994	0.100
752.500	-32.286	0.100
752.600	-36.848	0.100
752.700	-40.305	0.100
752.800	-32.896	0.100
752.900	-23.211	0.100
753.000	-24.645	0.100
753.100	-35.683	0.100
753.200	-44.746	0.100
753.300	-31.243	0.100
753.400	-29.882	0.100
753.500	-33.389	0.100
753.600	-24.412	0.100
753.700	-24.976	0.100
753.800	-31.405	0.100
753.900	-36.630	0.100
754.000	-21.976	0.100
754.100	-23.259	0.100
754.200	-46.343	0.100
754.300	-30.593	0.100
754.400	-31.360	0.100
754.500	-25.712	0.100
754.600	-30.961	0.100
754.700	-28.708	0.100
754.800	-36.254	0.100
754.900	-26.612	0.100
755.000	-13.339	0.100
755.100	-32.062	0.100
755.200	-34.949	0.100
755.300	-15.805	0.100
755.400	-32.582	0.100
755.500	-32.045	0.100
755.600	-33.559	0.100
755.700	-32.454	0.100
755.800	-41.154	0.100
755.900	-30.435	0.100
756.000	-36.861	0.100
756.100	-21.777	0.100
756.200	-28.718	0.100
756.300	-29.218	0.100
756.400	-29.163	0.100
756.500	-36.187	0.100
756.600	-31.552	0.100
756.700	-24.117	0.100
756.800	-28.656	0.100
756.900	-32.930	0.100
757.000	-27.063	0.100
757.100	-23.378	0.100
757.200	-33.242	0.100
757.300	-31.605	0.100
757.400	-20.651	0.100
757.500	-29.939	0.100
757.600	-28.247	0.100
757.700	-28.889	0.100
757.800	-39.242	0.100
757.900	-27.646	0.100
758.000	-35.906	0.100
758.100	-22.618	0.100
758.200	-31.253	0.100
758.300	-27.105	0.100
758.400	-21.146	0.100
758.500	-28.361	0.100
758.600	-28.554	0.100
758.700	-37.951	0.100
758.800	-37.949	0.100
758.900	-36.125	0.100
759.000	-31.628	0.100
759.100	-25.575	0.100
759.200	-26.339	0.100
759.300	-32.118	0.100
759.400	-28.657	0.100
759.500	-22.031	0.100
759.600	-26.081	0.100
759.700	-19.709	0.100
759.800	-33.873	0.100
759.900	-26.457	0.100
760.000	-38.801	0.100
760.100	-38.530	0.100
760.200	-40.223	0.100
760.300	-34.684	0.100
760.400	-32.779	0.100
760.500	-12.393	0.100
760.600	-16.414	0.100
760.700	-26.786	0.100
760.800	-25.584	0.100
760.900	-33.055	0.100
761.000	-17.460	0.100
761.100	-29.206	0.100
761.200	-31.907	0.100
761.300	-36.516	0.100
761.400	-39.188	0.100
761.500	-35.362	0.100
761.600	-27.965	0.100
761.700	-16.464	0.100
761.800	-16.687	0.100
761.900	-20.472	0.100
762.000	-34.292	0.100
762.100	-32.903	0.100
762.200	-27.030	0.100
762.300	-29.751	0.100
762.400	-22.335	0.100
762.500	-26.317	0.100
762.600	-24.106	0.100
762.700	-37.029	0.100
762.800	-33.835	0.100
762.900	-28.791	0.100
763.000	-25.320	0.100
763.100	-23.528	0.100
763.200	-40.095	0.100
763.300	-23.197	0.100
763.400	-18.560	0.100
763.500	-18.849	0.100
763.600	-17.013	0.100
763.700	-28.226	0.100
763.800	-33.805	0.100
763.900	-36.687	0.100
764.000	-30.050	0.100
764.100	-40.608	0.100
764.200	-24.954	0.100
764.300	-36.205	0.100
764.400	-29.336	0.100
764.500	-27.579	0.100
764.600	-31.064	0.100
764.700	-20.227	0.100
764.800	-23.576	0.100
764.900	-40.888	0.100
765.000	-24.318	0.100
765.100	-26.319	0.100
765.200	-29.284	0.100
765.300	-19.807	0.100
765.400	-23.602	0.100
765.500	-17.687	0.100
765.600	-31.988	0.100
765.700	-32.650	0.100
765.800	-18.852	0.100
765.900	-22.715	0.100
766.000	-31.509	0.100
766.100	-27.930	0.100
766.200	-21.833	0.100
766.300	-34.727	0.100
766.400	-35.314	0.100
766.500	-21.454	0.100
766.600	-28.234	0.100
766.700	-32.387	0.100
766.800	-20.426	0.100
766.900	-29.330	0.100
767.000	-25.844	0.100
767.100	-26.857	0.100
767.200	-24.783	0.100
767.300	-21.845	0.100
767.400	-22.806	0.100
767.500	-16.701	0.100
767.600	-24.396	0.100
767.700	-22.215	0.100
767.800	-28.581	0.100
767.900	-37.668	0.100
768.000	-34.897	0.100
768.100	-27.289	0.100
768.200	-24.472	0.100
768.300	-24.069	0.100
768.400	-27.819	0.100
768.500	-24.179	0.100
768.600	-18.135	0.100
768.700	-32.722	0.100
768.800	-21.124	0.100
768.900	-26.537	0.100
769.000	-33.112	0.100
769.100	-31.246	0.100
769.200	-24.585	0.100
769.300	-36.377	0.100
769.400	-19.969	0.100
769.500	-25.021	0.100
769.600	-25.761	0.100
769.700	-25.148	0.100
769.800	-25.786	0.100
769.900	-15.130	0.100
770.000	-32.874	0.100
770.100	-26.977	0.100
770.200	-37.589	0.100
770.300	-24.544	0.100
770.400	-28.250	0.100
770.500	-17.910	0.100
770.600	-17.462	0.100
770.700	-17.538	0.100
770.800	-33.259	0.100
770.900	-36.509	0.100
771.000	-22.169	0.100
771.100	-12.158	0.100
771.200	-18.263	0.100
771.300	-27.011	0.100
771.400	-27.466	0.100
771.500	-27.660	0.100
771.600	-11.378	0.100
771.700	-24.687	0.100
771.800	-25.116	0.100
771.900	-28.832	0.100
772.000	-29.283	0.100
772.100	-30.960	0.100
772.200	-34.501	0.100
772.300	-27.580	0.100
772.400	-13.044	0.100
772.500	-21.962	0.100
772.600	-23.440	0.100
772.700	-21.445	0.100
772.800	-21.498	0.100
772.900	-30.977	0.100
773.000	-20.974	0.100
773.100	-10.501	0.100
773.200	-29.334	0.100
773.300	-23.578	0.100
773.400	-12.167	0.100
773.500	-20.134	0.100
773.600	-29.152	0.100
773.700	-22.528	0.100
773.800	-27.448	0.100
773.900	-31.323	0.100
774.000	-24.107	0.100
774.100	-27.386	0.100
774.200	-25.991	0.100
774.300	-27.747	0.100
774.400	-25.656	0.100
774.500	-20.053	0.100
774.600	-24.777	0.100
774.700	-22.708	0.100
774.800	-22.261	0.100
774.900	-21.889	0.100
775.000	-25.308	0.100
775.100	-14.685	0.100
775.200	-25.952	0.100
775.300	-31.129	0.100
775.400	-18.385	0.100
775.500	-25.619	0.100
775.600	-23.843	0.100
775.700	-16.500	0.100
775.800	-28.220	0.100
775.900	-20.268	0.100
776.000	-30.247	0.100
776.100	-33.058	0.100
776.200	-26.517	0.100
776.300	-26.532	0.100
776.400	-23.315	0.100
776.500	-27.532	0.100
776.600	-21.862	0.100
776.700	-29.239	0.100
776.800	-19.473	0.100
776.900	-24.930	0.100
777.000	-27.575	0.100
777.100	-18.986	0.100
777.200	-11.583	0.100
777.300	-15.350	0.100
777.400	-19.533	0.100
777.500	-24.820	0.100
777.600	-28.803	0.100
777.700	-16.325	0.100
777.800	-16.455	0.100
777.900	-21.562	0.100
778.000	-21.259	0.100
778.100	-29.535	0.100
778.200	-26.700	0.100
778.300	-18.427	0.100
778.400	-30.395	0.100
778.500	-25.879	0.100
778.600	-20.274	0.100
778.700	-21.803	0.100
778.800	-27.554	0.100
778.900	-19.872	0.100
779.000	-13.827	0.100
779.100	-14.733	0.100
779.200	-28.237	0.100
779.300	-24.215	0.100
779.400	-18.124	0.100
779.500	-22.404	0.100
779.600	-25.554	0.100
779.700	-24.385	0.100
779.800	-32.779	0.100
779.900	-28.206	0.100
780.000	-26.781	0.100
780.100	-27.512	0.100
780.200	-29.085	0.100
780.300	-17.111	0.100
780.400	-20.329	0.100
780.500	-16.846	0.100
780.600	-9.602	0.100
780.700	-15.116	0.100
780.800	-6.888	0.100
780.900	2.764	0.100
781.000	10.703	0.100
781.100	19.492	0.100
781.200	24.313	0.100
781.300	36.465	0.100
781.400	26.434	0.100
781.500	30.735	0.100
781.600	36.747	0.100
781.700	29.596	0.100
781.800	42.751	0.100
781.900	46.694	0.101
782.000	40.303	0.100
782.100	37.454	0.100
782.200	33.107	0.101
782.300	37.289	0.101
782.400	48.765	0.101
782.500	38.498	0.101
782.600	41.098	0.101
782.700	50.181	0.101
782.800	37.955	0.101
782.900	37.553	0.101
783.000	45.706	0.101
783.100	35.371	0.101
783.200	32.437	0.101
783.300	29.354	0.101
783.400	41.710	0.101
783.500	44.073	0.101
783.600	40.022	0.101
783.700	35.735	0.101
783.800	42.091	0.101
783.900	47.833	0.101
784.000	40.476	0.101
784.100	32.283	0.101
784.200	52.127	0.101
784.300	44.908	0.101
784.400	41.775	0.101
784.500	43.070	0.101
784.600	37.301	0.101
784.700	39.387	0.101
784.800	40.714	0.101
784.900	45.254	0.101
785.000	44.132	0.101
785.100	52.356	0.101
785.200	43.326	0.101
785.300	42.726	0.101
785.400	44.569	0.101
785.500	34.403	0.101
785.600	36.627	0.101
785.700	41.375	0.101
785.800	31.547	0.101
785.900	42.420	0.101
786.000	47.191	0.101
786.100	42.971	0.101
786.200	42.413	0.101
786.300	39.487	0.101
786.400	43.927	0.101
786.500	32.971	0.101
786.600	41.484	0.101
786.700	35.322	0.101
786.800	42.611	0.101
786.900	30.513	0.101
787.000	42.528	0.101
787.100	39.094	0.101
787.200	33.258	0.101
787.300	34.033	0.101
787.400	31.677	0.101
787.500	43.924	0.101
787.600	39.026	0.101
787.700	29.549	0.101
787.800	41.616	0.101
787.900	36.724	0.101
788.000	32.292	0.101
788.100	33.940	0.101
788.200	40.168	0.101
788.300	35.717	0.101
788.400	28.086	0.101
788.500	41.980	0.101
788.600	33.568	0.101
788.700	33.975	0.101
788.800	40.033	0.101
788.900	40.276	0.101
789.000	45.195	0.101
789.100	38.947	0.101
789.200	41.099	0.101
789.300	37.371	0.101
789.400	29.478	0.101
789.500	39.113	0.101
789.600	43.002	0.101
789.700	35.352	0.101
789.800	27.338	0.101
789.900	29.995	0.101
790.000	37.504	0.101
790.100	42.961	0.101
790.200	42.202	0.101
790.300	46.057	0.101
790.400	34.953	0.101
790.500	42.972	0.101
790.600	32.465	0.101
790.700	38.014	0.101
790.800	45.435	0.101
790.900	39.946	0.101
791.000	35.660	0.101
791.100	41.970	0.101
791.200	24.734	0.101
791.300	36.076	0.101
791.400	36.744	0.101
791.500	44.423	0.101
791.600	27.153	0.101
791.700	40.464	0.101
791.800	41.830	0.101
791.900	40.921	0.101
792.000	36.601	0.101
792.100	47.108	0.101
792.200	57.131	0.101
792.300	41.592	0.101
792.400	44.556	0.101
792.500	29.734	0.101
792.600	48.699	0.101
792.700	33.795	0.101
792.800	32.966	0.101
792.900	49.322	0.101
793.000	50.350	0.101
793.100	38.781	0.101
793.200	45.545	0.101
793.300	55.005	0.101
793.400	50.973	0.101
793.500	33.477	0.101
793.600	48.463	0.101
793.700	34.059	0.101
793.800	38.906	0.101
793.900	33.387	0.101
794.000	45.105	0.101
794.100	38.483	0.101
794.200	50.780	0.101
794.300	44.425	0.101
794.400	41.923	0.101
794.500	45.586	0.101
794.600	41.890	0.101
794.700	52.446	0.101
794.800	42.967	0.101
794.900	49.733	0.101
795.000	42.333	0.101
795.100	50.902	0.101
795.200	40.155	0.101
795.300	49.199	0.101
795.400	44.197	0.101
795.500	51.458	0.101
795.600	46.542	0.101
795.700	54.496	0.101
795.800	50.594	0.101
795.900	52.137	0.101
796.000	44.954	0.101
796.100	53.624	0.101
796.200	46.394	0.101
796.300	43.480	0.101
796.400	46.022	0.101
796.500	49.191	0.101
796.600	51.319	0.101
796.700	54.592	0.101
796.800	50.056	0.101
796.900	53.469	0.101
797.000	50.908	0.101
797.100	45.840	0.101
797.200	47.494	0.101
797.300	49.856	0.101
797.400	51.601	0.101
797.500	53.951	0.101
797.600	64.179	0.101
797.700	56.863	0.101
797.800	52.462	0.101
797.900	55.403	0.101
798.000	54.577	0.101
798.100	65.725	0.101
798.200	51.400	0.101
798.300	64.951	0.101
798.400	51.383	0.101
798.500	55.630	0.101
798.600	55.812	0.101
798.700	64.622	0.101
798.800	56.066	0.101
798.900	65.658	0.101
799.000	66.929	0.101
799.100	62.912	0.101
799.200	64.430	0.101
799.300	76.204	0.101
799.400	56.319	0.100
799.500	60.482	0.101
799.600	66.804	0.101
799.700	63.130	0.101
799.800	53.454	0.101
799.900	65.492	0.101
800.000	71.965	0.100
