time /s	I /nA	E /V
0.100	-24.114	0.100
0.200	-32.297	0.100
0.300	-26.415	0.100
0.400	-28.911	0.100
0.500	-23.796	0.100
0.600	-19.990	0.100
0.700	-37.824	0.100
0.800	-25.862	0.100
0.900	-32.722	0.100
1.000	-28.628	0.100
1.100	-25.434	0.100
1.200	-30.664	0.100
1.300	-33.585	0.100
1.400	-25.379	0.100
1.500	-20.419	0.100
1.600	-26.288	0.100
1.700	-34.020	0.100
1.800	-21.592	0.100
1.900	-31.137	0.100
2.000	-22.289	0.100
2.100	-28.567	0.100
2.200	-28.842	0.100
2.300	-28.390	0.100
2.400	-29.149	0.100
2.500	-32.551	0.100
2.600	-27.270	0.100
2.700	-25.521	0.100
2.800	-30.224	0.100
2.900	-24.364	0.100
3.000	-29.680	0.100
3.100	-31.506	0.100
3.200	-26.449	0.100
3.300	-32.075	0.100
3.400	-27.090	0.100
3.500	-39.256	0.100
3.600	-12.447	0.100
3.700	-19.537	0.100
3.800	-35.462	0.100
3.900	-18.156	0.100
4.000	-21.063	0.100
4.100	-41.936	0.100
4.200	-29.787	0.100
4.300	-23.770	0.100
4.400	-28.798	0.100
4.500	-37.947	0.100
4.600	-27.514	0.100
4.700	-26.785	0.100
4.800	-41.399	0.100
4.900	-28.871	0.100
5.000	-31.636	0.100
5.100	-25.591	0.100
5.200	-26.423	0.100
5.300	-30.791	0.100
5.400	-30.138	0.100
5.500	-29.361	0.100
5.600	-26.127	0.100
5.700	-39.462	0.100
5.800	-28.797	0.100
5.900	-27.442	0.100
6.000	-33.492	0.100
6.100	-31.825	0.100
6.200	-18.722	0.100
6.300	-27.774	0.100
6.400	-24.854	0.100
6.500	-34.191	0.100
6.600	-35.403	0.100
6.700	-16.658	0.100
6.800	-24.996	0.100
6.900	-17.651	0.100
7.000	-29.852	0.100
7.100	-29.258	0.100
7.200	-17.908	0.100
7.300	-21.337	0.100
7.400	-22.552	0.100
7.500	-22.554	0.100
7.600	-37.518	0.100
7.700	-34.228	0.100
7.800	-26.329	0.100
7.900	-23.872	0.100
8.000	-29.786	0.100
8.100	-30.705	0.100
8.200	-30.296	0.100
8.300	-22.920	0.100
8.400	-30.903	0.100
8.500	-29.820	0.100
8.600	-34.934	0.100
8.700	-26.115	0.100
8.800	-16.927	0.100
8.900	-31.585	0.100
9.000	-28.660	0.100
9.100	-18.660	0.100
9.200	-30.082	0.100
9.300	-30.849	0.100
9.400	-32.046	0.100
9.500	-26.271	0.100
9.600	-29.766	0.100
9.700	-13.347	0.100
9.800	-23.781	0.100
9.900	-25.418	0.100
10.000	-27.448	0.100
10.100	-11.956	0.100
10.200	-16.593	0.100
10.300	-20.119	0.100
10.400	-41.670	0.100
10.500	-17.928	0.100
10.600	-30.494	0.100
10.700	-26.310	0.100
10.800	-38.332	0.100
10.900	-28.518	0.100
11.000	-16.847	0.100
11.100	-24.403	0.100
11.200	-28.389	0.100
11.300	-31.235	0.100
11.400	-29.739	0.100
11.500	-25.753	0.100
11.600	-18.055	0.100
11.700	-35.561	0.100
11.800	-29.809	0.100
11.900	-23.735	0.100
12.000	-23.394	0.100
12.100	-31.501	0.100
12.200	-26.737	0.100
12.300	-26.954	0.100
12.400	-36.412	0.100
12.500	-29.950	0.100
12.600	-34.875	0.100
12.700	-26.668	0.100
12.800	-17.475	0.100
12.900	-33.322	0.100
13.000	-15.039	0.100
13.100	-19.462	0.100
13.200	-33.154	0.100
13.300	-20.005	0.100
13.400	-33.796	0.100
13.500	-31.002	0.100
13.600	-22.615	0.100
13.700	-22.137	0.100
13.800	-17.648	0.100
13.900	-36.241	0.100
14.000	-28.019	0.100
14.100	-26.056	0.100
14.200	-15.674	0.100
14.300	-24.207	0.100
14.400	-24.974	0.100
14.500	-31.557	0.100
14.600	-28.772	0.100
14.700	-28.550	0.100
14.800	-36.652	0.100
14.900	-23.338	0.100
15.000	-23.793	0.100
15.100	-33.447	0.100
15.200	-25.492	0.100
15.300	-22.772	0.100
15.400	-23.915	0.100
15.500	-19.603	0.100
15.600	-33.651	0.100
15.700	-23.637	0.100
15.800	-29.876	0.100
15.900	-32.200	0.100
16.000	-24.165	0.100
16.100	-19.575	0.100
16.200	-29.983	0.100
16.300	-11.330	0.100
16.400	-24.782	0.100
16.500	-15.203	0.100
16.600	-31.782	0.100
16.700	-36.420	0.100
16.800	-30.259	0.100
16.900	-25.893	0.100
17.000	-25.310	0.100
17.100	-34.408	0.100
17.200	-27.460	0.100
17.300	-25.611	0.100
17.400	-13.671	0.100
17.500	-24.638	0.100
17.600	-24.641	0.100
17.700	-28.341	0.100
17.800	-26.161	0.100
17.900	-28.674	0.100
18.000	-26.506	0.100
18.100	-20.509	0.100
18.200	-31.064	0.100
18.300	-24.053	0.100
18.400	-22.043	0.100
18.500	-27.513	0.100
18.600	-23.776	0.100
18.700	-25.522	0.100
18.800	-18.981	0.100
18.900	-34.904	0.100
19.000	-24.550	0.100
19.100	-18.634	0.100
19.200	-16.092	0.100
19.300	-21.238	0.100
19.400	-25.283	0.100
19.500	-26.897	0.100
19.600	-18.619	0.100
19.700	-30.915	0.100
19.800	-21.552	0.100
19.900	-35.017	0.100
20.000	-21.936	0.100
20.100	-31.657	0.100
20.200	-18.708	0.100
20.300	-31.546	0.100
20.400	-34.265	0.100
20.500	-26.338	0.100
20.600	-35.825	0.100
20.700	-32.817	0.100
20.800	-21.160	0.100
20.900	-25.026	0.100
21.000	-28.424	0.100
21.100	-20.294	0.100
21.200	-15.857	0.100
21.300	-29.789	0.100
21.400	-15.804	0.100
21.500	-17.624	0.100
21.600	-32.816	0.100
21.700	-17.904	0.100
21.800	-24.150	0.100
21.900	-21.075	0.100
22.000	-17.647	0.100
22.100	-29.102	0.100
22.200	-34.068	0.100
22.300	-35.933	0.100
22.400	-26.157	0.100
22.500	-16.833	0.100
22.600	-20.345	0.100
22.700	-34.158	0.100
22.800	-27.733	0.100
22.900	-21.116	0.100
23.000	-28.737	0.100
23.100	-27.859	0.100
23.200	-31.119	0.100
23.300	-24.627	0.100
23.400	-32.670	0.100
23.500	-27.057	0.100
23.600	-24.840	0.100
23.700	-27.058	0.100
23.800	-18.774	0.100
23.900	-14.849	0.100
24.000	-24.402	0.100
24.100	-18.959	0.100
24.200	-31.669	0.100
24.300	-36.051	0.100
24.400	-30.287	0.100
24.500	-23.564	0.100
24.600	-16.419	0.100
24.700	-21.076	0.100
24.800	-21.952	0.100
24.900	-32.797	0.100
25.000	-31.414	0.100
25.100	-20.229	0.100
25.200	-20.364	0.100
25.300	-28.448	0.100
25.400	-24.147	0.100
25.500	-20.240	0.100
25.600	-18.878	0.100
25.700	-28.258	0.100
25.800	-34.656	0.100
25.900	-22.461	0.100
26.000	-21.898	0.100
26.100	-24.087	0.100
26.200	-25.984	0.100
26.300	-31.780	0.100
26.400	-26.958	0.100
26.500	-39.599	0.100
26.600	-23.912	0.100
26.700	-23.303	0.100
26.800	-32.166	0.100
26.900	-27.998	0.100
27.000	-29.595	0.100
27.100	-20.541	0.100
27.200	-18.727	0.100
27.300	-21.662	0.100
27.400	-17.517	0.100
27.500	-20.971	0.100
27.600	-16.683	0.100
27.700	-29.526	0.100
27.800	-39.694	0.100
27.900	-21.396	0.100
28.000	-20.162	0.100
28.100	-28.042	0.100
28.200	-23.200	0.100
28.300	-25.138	0.100
28.400	-33.860	0.100
28.500	-20.120	0.100
28.600	-16.275	0.100
28.700	-27.163	0.100
28.800	-34.724	0.100
28.900	-16.410	0.100
29.000	-25.847	0.100
29.100	-12.210	0.100
29.200	-15.779	0.100
29.300	-14.432	0.100
29.400	-20.721	0.100
29.500	-17.874	0.100
29.600	-19.213	0.100
29.700	-24.406	0.100
29.800	-32.060	0.100
29.900	-22.566	0.100
30.000	-30.505	0.100
30.100	-18.400	0.100
30.200	-26.173	0.100
30.300	-21.182	0.100
30.400	-11.488	0.100
30.500	-13.907	0.100
30.600	-13.953	0.100
30.700	-15.259	0.100
30.800	-15.158	0.100
30.900	-6.710	0.100
31.000	-11.869	0.100
31.100	1.361	0.100
31.200	-8.936	0.100
31.300	-9.344	0.100
31.400	2.751	0.100
31.500	0.587	0.100
31.600	-4.429	0.100
31.700	4.770	0.100
31.800	19.112	0.100
31.900	9.312	0.100
32.000	4.885	0.100
32.100	11.519	0.100
32.200	1.182	0.100
32.300	15.580	0.100
32.400	8.382	0.100
32.500	6.358	0.100
32.600	4.170	0.100
32.700	5.894	0.100
32.800	15.981	0.100
32.900	18.954	0.100
33.000	18.789	0.100
33.100	2.977	0.100
33.200	9.867	0.100
33.300	9.865	0.100
33.400	12.150	0.100
33.500	17.762	0.100
33.600	14.146	0.100
33.700	14.837	0.100
33.800	21.036	0.100
33.900	19.610	0.100
34.000	22.357	0.100
34.100	16.751	0.100
34.200	21.459	0.100
34.300	17.485	0.100
34.400	21.575	0.100
34.500	17.302	0.100
34.600	6.016	0.100
34.700	14.749	0.100
34.800	4.715	0.100
34.900	6.451	0.100
35.000	5.070	0.100
35.100	9.833	0.100
35.200	17.674	0.100
35.300	17.689	0.100
35.400	12.964	0.100
35.500	7.935	0.100
35.600	11.927	0.100
35.700	4.723	0.100
35.800	18.978	0.100
35.900	5.207	0.100
36.000	-4.719	0.100
36.100	11.639	0.100
36.200	-2.250	0.100
36.300	14.607	0.100
36.400	12.719	0.100
36.500	14.972	0.100
36.600	16.147	0.100
36.700	4.790	0.100
36.800	8.831	0.100
36.900	16.536	0.100
37.000	15.070	0.100
37.100	10.219	0.100
37.200	20.768	0.100
37.300	4.683	0.100
37.400	0.956	0.100
37.500	6.436	0.100
37.600	16.398	0.100
37.700	9.692	0.100
37.800	6.970	0.100
37.900	13.554	0.100
38.000	4.390	0.100
38.100	2.271	0.100
38.200	7.831	0.100
38.300	16.776	0.100
38.400	21.828	0.100
38.500	7.459	0.100
38.600	10.174	0.100
38.700	11.215	0.100
38.800	1.230	0.100
38.900	-0.669	0.100
39.000	7.276	0.100
39.100	14.252	0.100
39.200	2.897	0.100
39.300	2.177	0.100
39.400	7.640	0.100
39.500	18.667	0.100
39.600	17.742	0.100
39.700	7.698	0.100
39.800	4.905	0.100
39.900	11.501	0.100
40.000	6.705	0.100
40.100	1.549	0.100
40.200	13.577	0.100
40.300	19.467	0.100
40.400	16.240	0.100
40.500	6.213	0.100
40.600	7.192	0.100
40.700	18.030	0.100
40.800	16.666	0.100
40.900	8.155	0.100
41.000	10.540	0.100
41.100	7.236	0.100
41.200	10.834	0.100
41.300	10.437	0.100
41.400	16.158	0.100
41.500	7.614	0.100
41.600	1.779	0.100
41.700	6.718	0.100
41.800	10.912	0.100
41.900	8.205	0.100
42.000	6.341	0.100
42.100	12.834	0.100
42.200	6.270	0.100
42.300	13.535	0.100
42.400	20.087	0.100
42.500	12.270	0.100
42.600	23.210	0.100
42.700	20.892	0.100
42.800	10.812	0.100
42.900	6.859	0.100
43.000	11.083	0.100
43.100	4.662	0.100
43.200	15.493	0.100
43.300	16.041	0.100
43.400	10.412	0.100
43.500	14.853	0.100
43.600	10.543	0.100
43.700	10.389	0.100
43.800	13.507	0.100
43.900	5.476	0.100
44.000	17.487	0.100
44.100	13.761	0.100
44.200	8.285	0.100
44.300	1.880	0.100
44.400	16.793	0.100
44.500	22.000	0.100
44.600	9.908	0.100
44.700	21.793	0.100
44.800	7.505	0.100
44.900	19.430	0.100
45.000	12.784	0.100
45.100	11.783	0.100
45.200	13.000	0.100
45.300	15.273	0.100
45.400	13.996	0.100
45.500	17.102	0.100
45.600	17.994	0.100
45.700	15.980	0.100
45.800	12.489	0.100
45.900	23.341	0.100
46.000	10.105	0.100
46.100	11.847	0.100
46.200	15.549	0.100
46.300	25.186	0.100
46.400	25.257	0.100
46.500	7.594	0.100
46.600	14.480	0.100
46.700	7.873	0.100
46.800	25.339	0.100
46.900	12.166	0.100
47.000	11.713	0.100
47.100	16.627	0.100
47.200	10.126	0.100
47.300	10.053	0.100
47.400	16.895	0.100
47.500	8.944	0.100
47.600	22.627	0.100
47.700	11.542	0.100
47.800	3.752	0.100
47.900	25.670	0.100
48.000	18.180	0.100
48.100	23.758	0.100
48.200	24.239	0.100
48.300	14.733	0.100
48.400	16.434	0.100
48.500	16.770	0.100
48.600	4.855	0.100
48.700	23.149	0.100
48.800	27.372	0.100
48.900	16.098	0.100
49.000	24.636	0.100
49.100	23.345	0.100
49.200	15.033	0.100
49.300	19.089	0.100
49.400	17.185	0.100
49.500	22.284	0.100
49.600	19.421	0.100
49.700	22.679	0.100
49.800	17.304	0.100
49.900	12.873	0.100
50.000	16.472	0.100
50.100	12.101	0.100
50.200	19.186	0.100
50.300	30.227	0.100
50.400	25.474	0.100
50.500	19.135	0.100
50.600	22.591	0.100
50.700	10.714	0.100
50.800	22.313	0.100
50.900	29.760	0.100
51.000	16.549	0.100
51.100	13.620	0.100
51.200	18.175	0.100
51.300	21.631	0.100
51.400	21.625	0.100
51.500	21.012	0.100
51.600	22.738	0.100
51.700	12.588	0.100
51.800	22.498	0.100
51.900	19.595	0.100
52.000	24.450	0.100
52.100	25.234	0.100
52.200	24.496	0.100
52.300	16.006	0.100
52.400	17.181	0.100
52.500	14.893	0.100
52.600	31.006	0.100
52.700	22.428	0.100
52.800	15.682	0.100
52.900	23.742	0.100
53.000	25.072	0.100
53.100	32.575	0.100
53.200	21.408	0.100
53.300	18.579	0.100
53.400	26.395	0.100
53.500	30.357	0.100
53.600	25.685	0.100
53.700	37.103	0.100
53.800	18.137	0.100
53.900	24.264	0.100
54.000	13.317	0.100
54.100	31.772	0.100
54.200	16.224	0.100
54.300	18.085	0.100
54.400	20.533	0.100
54.500	17.858	0.100
54.600	28.018	0.100
54.700	26.641	0.100
54.800	17.695	0.100
54.900	15.972	0.100
55.000	18.176	0.100
55.100	26.618	0.100
55.200	15.540	0.100
55.300	30.470	0.100
55.400	27.088	0.100
55.500	15.973	0.100
55.600	23.195	0.100
55.700	22.383	0.100
55.800	25.792	0.100
55.900	25.434	0.100
56.000	20.151	0.100
56.100	28.263	0.100
56.200	29.338	0.100
56.300	34.208	0.100
56.400	30.930	0.100
56.500	35.823	0.100
56.600	27.053	0.100
56.700	22.926	0.100
56.800	25.120	0.100
56.900	26.398	0.100
57.000	21.477	0.100
57.100	17.350	0.100
57.200	28.833	0.100
57.300	31.820	0.100
57.400	24.766	0.100
57.500	25.855	0.100
57.600	23.481	0.100
57.700	24.082	0.100
57.800	31.842	0.100
57.900	30.171	0.100
58.000	29.556	0.100
58.100	21.277	0.100
58.200	27.454	0.100
58.300	32.915	0.100
58.400	13.868	0.100
58.500	20.897	0.100
58.600	27.743	0.100
58.700	28.677	0.100
58.800	25.209	0.100
58.900	35.507	0.100
59.000	23.176	0.100
59.100	21.514	0.100
59.200	22.776	0.100
59.300	38.269	0.100
59.400	35.195	0.100
59.500	27.797	0.100
59.600	28.556	0.100
59.700	22.344	0.100
59.800	15.471	0.100
59.900	28.668	0.100
60.000	30.709	0.100
60.100	31.661	0.100
60.200	26.199	0.100
60.300	25.240	0.100
60.400	24.391	0.100
60.500	24.827	0.100
60.600	31.942	0.100
60.700	32.638	0.100
60.800	41.239	0.100
60.900	17.728	0.100
61.000	23.229	0.100
61.100	26.409	0.100
61.200	35.536	0.100
61.300	26.725	0.100
61.400	30.428	0.100
61.500	27.975	0.100
61.600	24.491	0.100
61.700	35.859	0.100
61.800	31.232	0.100
61.900	34.970	0.100
62.000	23.737	0.100
62.100	31.530	0.100
62.200	29.874	0.100
62.300	32.968	0.100
62.400	24.382	0.100
62.500	25.178	0.100
62.600	28.165	0.100
62.700	33.903	0.100
62.800	29.867	0.100
62.900	16.825	0.100
63.000	27.000	0.100
63.100	44.583	0.100
63.200	34.340	0.100
63.300	37.421	0.100
63.400	22.588	0.100
63.500	37.359	0.100
63.600	20.413	0.100
63.700	26.135	0.100
63.800	26.391	0.100
63.900	32.933	0.100
64.000	23.776	0.100
64.100	34.459	0.100
64.200	29.874	0.100
64.300	22.968	0.100
64.400	30.139	0.100
64.500	41.918	0.100
64.600	29.278	0.100
64.700	24.783	0.100
64.800	20.605	0.100
64.900	16.455	0.100
65.000	29.414	0.100
65.100	25.656	0.100
65.200	32.445	0.100
65.300	25.308	0.100
65.400	35.455	0.100
65.500	36.130	0.100
65.600	35.803	0.100
65.700	32.357	0.100
65.800	32.404	0.100
65.900	25.189	0.100
66.000	26.318	0.100
66.100	30.786	0.100
66.200	21.296	0.100
66.300	30.636	0.100
66.400	19.604	0.100
66.500	23.383	0.100
66.600	34.524	0.100
66.700	20.482	0.100
66.800	24.118	0.100
66.900	27.389	0.100
67.000	27.576	0.100
67.100	34.086	0.100
67.200	28.445	0.100
67.300	14.565	0.100
67.400	23.647	0.100
67.500	21.167	0.100
67.600	33.974	0.100
67.700	33.552	0.100
67.800	28.663	0.100
67.900	21.038	0.100
68.000	24.858	0.100
68.100	37.491	0.100
68.200	25.971	0.100
68.300	15.910	0.100
68.400	15.982	0.100
68.500	29.881	0.100
68.600	35.160	0.100
68.700	43.633	0.100
68.800	26.849	0.100
68.900	25.568	0.100
69.000	23.500	0.100
69.100	22.659	0.100
69.200	29.096	0.100
69.300	26.086	0.100
69.400	30.839	0.100
69.500	28.994	0.100
69.600	24.662	0.100
69.700	26.865	0.100
69.800	28.587	0.100
69.900	26.661	0.100
70.000	30.370	0.100
70.100	40.846	0.100
70.200	35.340	0.100
70.300	39.389	0.100
70.400	23.779	0.100
70.500	19.439	0.100
70.600	22.098	0.100
70.700	28.522	0.100
70.800	22.133	0.100
70.900	26.656	0.100
71.000	29.551	0.100
71.100	29.411	0.100
71.200	19.950	0.100
71.300	26.999	0.100
71.400	31.889	0.100
71.500	32.323	0.100
71.600	21.425	0.100
71.700	31.376	0.100
71.800	12.566	0.100
71.900	10.936	0.100
72.000	23.070	0.100
72.100	19.648	0.100
72.200	32.253	0.100
72.300	31.651	0.100
72.400	20.911	0.100
72.500	19.570	0.100
72.600	33.090	0.100
72.700	37.299	0.100
72.800	18.426	0.100
72.900	19.800	0.100
73.000	26.177	0.100
73.100	29.842	0.100
73.200	28.464	0.100
73.300	16.915	0.100
73.400	27.020	0.100
73.500	27.674	0.100
73.600	22.551	0.100
73.700	29.948	0.100
73.800	24.723	0.100
73.900	16.732	0.100
74.000	29.209	0.100
74.100	16.642	0.100
74.200	31.851	0.100
74.300	25.773	0.100
74.400	25.039	0.100
74.500	22.308	0.100
74.600	14.735	0.100
74.700	26.300	0.100
74.800	32.547	0.100
74.900	26.580	0.100
75.000	35.754	0.100
75.100	29.002	0.100
75.200	12.280	0.100
75.300	33.538	0.100
75.400	21.267	0.100
75.500	36.389	0.100
75.600	33.115	0.100
75.700	31.434	0.100
75.800	23.329	0.100
75.900	22.382	0.100
76.000	26.048	0.100
76.100	30.823	0.100
76.200	26.240	0.100
76.300	17.561	0.100
76.400	4.979	0.100
76.500	10.937	0.100
76.600	27.611	0.100
76.700	41.142	0.100
76.800	32.462	0.100
76.900	32.434	0.100
77.000	28.220	0.100
77.100	16.530	0.100
77.200	11.070	0.100
77.300	22.370	0.100
77.400	20.400	0.100
77.500	27.569	0.100
77.600	24.648	0.100
77.700	26.599	0.100
77.800	34.767	0.100
77.900	6.733	0.100
78.000	20.148	0.100
78.100	34.820	0.100
78.200	18.369	0.100
78.300	37.716	0.100
78.400	22.093	0.100
78.500	34.765	0.100
78.600	28.403	0.100
78.700	29.268	0.100
78.800	22.435	0.100
78.900	31.359	0.100
79.000	28.378	0.100
79.100	15.038	0.100
79.200	6.337	0.100
79.300	22.727	0.100
79.400	22.677	0.100
79.500	28.895	0.100
79.600	23.458	0.100
79.700	27.098	0.100
79.800	22.238	0.100
79.900	25.520	0.100
80.000	35.867	0.100
80.100	19.034	0.100
80.200	33.635	0.100
80.300	29.115	0.100
80.400	17.377	0.100
80.500	21.046	0.100
80.600	11.563	0.100
80.700	15.353	0.100
80.800	28.252	0.100
80.900	23.313	0.100
81.000	29.514	0.100
81.100	8.444	0.100
81.200	22.278	0.100
81.300	30.539	0.100
81.400	19.751	0.100
81.500	17.585	0.100
81.600	21.780	0.100
81.700	21.727	0.100
81.800	16.434	0.100
81.900	22.703	0.100
82.000	21.190	0.100
82.100	16.846	0.100
82.200	32.042	0.100
82.300	26.104	0.100
82.400	16.685	0.100
82.500	31.223	0.100
82.600	36.575	0.100
82.700	20.866	0.100
82.800	20.440	0.100
82.900	23.426	0.100
83.000	30.737	0.100
83.100	21.880	0.100
83.200	22.848	0.100
83.300	21.398	0.100
83.400	19.251	0.100
83.500	22.726	0.100
83.600	24.859	0.100
83.700	24.840	0.100
83.800	21.158	0.100
83.900	21.485	0.100
84.000	27.061	0.100
84.100	17.835	0.100
84.200	20.534	0.100
84.300	20.426	0.100
84.400	33.159	0.100
84.500	25.100	0.100
84.600	18.772	0.100
84.700	22.549	0.100
84.800	24.767	0.100
84.900	21.303	0.100
85.000	24.232	0.100
85.100	18.075	0.100
85.200	14.960	0.100
85.300	24.042	0.100
85.400	14.562	0.100
85.500	28.398	0.100
85.600	21.947	0.100
85.700	19.436	0.100
85.800	24.730	0.100
85.900	23.605	0.100
86.000	12.618	0.100
86.100	17.746	0.100
86.200	31.626	0.100
86.300	22.702	0.100
86.400	23.468	0.100
86.500	27.178	0.100
86.600	23.997	0.100
86.700	17.859	0.100
86.800	17.412	0.100
86.900	29.873	0.100
87.000	21.872	0.100
87.100	30.447	0.100
87.200	19.453	0.100
87.300	19.083	0.100
87.400	21.035	0.100
87.500	19.981	0.100
87.600	29.912	0.100
87.700	31.327	0.100
87.800	28.428	0.100
87.900	8.679	0.100
88.000	33.571	0.100
88.100	12.185	0.100
88.200	19.612	0.100
88.300	29.216	0.100
88.400	26.593	0.100
88.500	19.970	0.100
88.600	25.313	0.100
88.700	19.660	0.100
88.800	16.825	0.100
88.900	14.917	0.100
89.000	22.526	0.100
89.100	27.851	0.100
89.200	18.494	0.100
89.300	26.145	0.100
89.400	23.626	0.100
89.500	17.148	0.100
89.600	23.130	0.100
89.700	18.083	0.100
89.800	22.676	0.100
89.900	21.485	0.100
90.000	24.786	0.100
90.100	24.954	0.100
90.200	16.333	0.100
90.300	14.098	0.100
90.400	14.825	0.100
90.500	4.751	0.100
90.600	0.818	0.100
90.700	15.197	0.100
90.800	13.009	0.100
90.900	10.664	0.100
91.000	12.369	0.100
91.100	3.137	0.100
91.200	6.960	0.100
91.300	8.537	0.100
91.400	-4.468	0.100
91.500	-5.248	0.100
91.600	4.119	0.100
91.700	4.929	0.100
91.800	5.119	0.100
91.900	-0.758	0.100
92.000	-7.149	0.100
92.100	-0.036	0.100
92.200	1.061	0.100
92.300	6.450	0.100
92.400	-7.271	0.100
92.500	3.259	0.100
92.600	-8.499	0.100
92.700	-3.229	0.100
92.800	1.903	0.100
92.900	-3.369	0.100
93.000	-0.846	0.100
93.100	-0.466	0.100
93.200	6.959	0.100
93.300	-8.725	0.100
93.400	-12.505	0.100
93.500	-14.936	0.100
93.600	-3.639	0.100
93.700	4.114	0.100
93.800	-15.323	0.100
93.900	-2.802	0.100
94.000	-12.497	0.100
94.100	-3.442	0.100
94.200	-5.189	0.100
94.300	0.309	0.100
94.400	-2.544	0.100
94.500	5.872	0.100
94.600	-9.242	0.100
94.700	-4.265	0.100
94.800	-11.051	0.100
94.900	-6.194	0.100
95.000	-10.514	0.100
95.100	-6.053	0.100
95.200	-1.062	0.100
95.300	-10.894	0.100
95.400	-4.439	0.100
95.500	-10.341	0.100
95.600	-5.889	0.100
95.700	-15.346	0.100
95.800	-12.773	0.100
95.900	-9.148	0.100
96.000	-0.534	0.100
96.100	-7.667	0.100
96.200	-17.754	0.100
96.300	-0.078	0.100
96.400	-3.029	0.100
96.500	-12.487	0.100
96.600	-2.488	0.100
96.700	-14.434	0.100
96.800	-13.320	0.100
96.900	-14.649	0.100
97.000	-7.760	0.100
97.100	-6.443	0.100
97.200	1.911	0.100
97.300	1.375	0.100
97.400	3.726	0.100
97.500	-11.024	0.100
97.600	-3.024	0.100
97.700	-16.238	0.100
97.800	-4.279	0.100
97.900	1.451	0.100
98.000	-8.412	0.100
98.100	-5.722	0.100
98.200	-12.655	0.100
98.300	-24.251	0.100
98.400	-19.417	0.100
98.500	-15.374	0.100
98.600	-15.763	0.100
98.700	-1.994	0.100
98.800	-7.841	0.100
98.900	-8.036	0.100
99.000	-13.480	0.100
99.100	-11.248	0.100
99.200	-14.938	0.100
99.300	-15.580	0.100
99.400	-12.234	0.100
99.500	-10.081	0.100
99.600	-11.096	0.100
99.700	-13.528	0.100
99.800	2.123	0.100
99.900	-14.465	0.100
100.000	-6.061	0.100
100.100	-17.820	0.100
100.200	-5.801	0.100
100.300	2.514	0.100
100.400	-15.715	0.100
100.500	-11.981	0.100
100.600	-17.324	0.100
100.700	-10.451	0.100
100.800	-1.700	0.100
100.900	-3.715	0.100
101.000	-15.506	0.100
101.100	-14.369	0.100
101.200	-12.296	0.100
101.300	-2.911	0.100
101.400	-1.520	0.100
101.500	-6.873	0.100
101.600	-9.586	0.100
101.700	-11.596	0.100
101.800	-11.310	0.100
101.900	-19.826	0.100
102.000	0.267	0.100
102.100	-20.052	0.100
102.200	-12.963	0.100
102.300	-14.901	0.100
102.400	-1.230	0.100
102.500	-21.925	0.100
102.600	-11.759	0.100
102.700	-6.464	0.100
102.800	-4.701	0.100
102.900	-17.922	0.100
103.000	-14.479	0.100
103.100	-18.455	0.100
103.200	-12.449	0.100
103.300	-13.124	0.100
103.400	-5.286	0.100
103.500	-10.259	0.100
103.600	-10.982	0.100
103.700	-11.777	0.100
103.800	-22.561	0.100
103.900	-4.020	0.100
104.000	-15.287	0.100
104.100	-16.815	0.100
104.200	-10.244	0.100
104.300	-3.901	0.100
104.400	-12.756	0.100
104.500	-27.064	0.100
104.600	-15.764	0.100
104.700	-8.229	0.100
104.800	-16.899	0.100
104.900	-17.405	0.100
105.000	-21.427	0.100
105.100	-14.945	0.100
105.200	-18.905	0.100
105.300	-19.808	0.100
105.400	-16.666	0.100
105.500	-13.115	0.100
105.600	-16.446	0.100
105.700	-12.909	0.100
105.800	-26.672	0.100
105.900	-21.892	0.100
106.000	-2.947	0.100
106.100	-21.662	0.100
106.200	-11.118	0.100
106.300	-22.967	0.100
106.400	-25.432	0.100
106.500	-23.104	0.100
106.600	-22.502	0.100
106.700	-22.381	0.100
106.800	-5.306	0.100
106.900	-6.749	0.100
107.000	-5.818	0.100
107.100	-21.016	0.100
107.200	-13.891	0.100
107.300	-5.289	0.100
107.400	-12.996	0.100
107.500	-12.559	0.100
107.600	-25.791	0.100
107.700	-20.555	0.100
107.800	-16.846	0.100
107.900	-13.374	0.100
108.000	-15.727	0.100
108.100	-21.331	0.100
108.200	-22.644	0.100
108.300	-23.009	0.100
108.400	-12.781	0.100
108.500	-21.601	0.100
108.600	-16.446	0.100
108.700	-17.451	0.100
108.800	-21.591	0.100
108.900	-21.739	0.100
109.000	-27.600	0.100
109.100	-19.646	0.100
109.200	-19.511	0.100
109.300	-6.205	0.100
109.400	-25.565	0.100
109.500	-34.096	0.100
109.600	-6.139	0.100
109.700	-30.428	0.100
109.800	-22.214	0.100
109.900	-20.777	0.100
110.000	-27.572	0.100
110.100	-21.500	0.100
110.200	-16.817	0.100
110.300	-19.276	0.100
110.400	-30.303	0.100
110.500	-13.030	0.100
110.600	-14.746	0.100
110.700	-14.677	0.100
110.800	-35.133	0.100
110.900	-19.706	0.100
111.000	-26.367	0.100
111.100	-25.947	0.100
111.200	-33.108	0.100
111.300	-20.264	0.100
111.400	-20.870	0.100
111.500	-17.287	0.100
111.600	-13.127	0.100
111.700	-25.072	0.100
111.800	-26.547	0.100
111.900	-19.694	0.100
112.000	-29.703	0.100
112.100	-20.833	0.100
112.200	-19.298	0.100
112.300	-31.035	0.100
112.400	-24.897	0.100
112.500	-16.746	0.100
112.600	-28.366	0.100
112.700	-27.303	0.100
112.800	-22.227	0.100
112.900	-20.829	0.100
113.000	-32.732	0.100
113.100	-16.026	0.100
113.200	-29.458	0.100
113.300	-22.322	0.100
113.400	-18.835	0.100
113.500	-25.846	0.100
113.600	-19.172	0.100
113.700	-20.957	0.100
113.800	-24.298	0.100
113.900	-23.080	0.100
114.000	-42.097	0.100
114.100	-16.950	0.100
114.200	-30.500	0.100
114.300	-28.391	0.100
114.400	-24.359	0.100
114.500	-12.119	0.100
114.600	-17.786	0.100
114.700	-21.152	0.100
114.800	-27.942	0.100
114.900	-25.649	0.100
115.000	-21.697	0.100
115.100	-23.232	0.100
115.200	-34.865	0.100
115.300	-20.319	0.100
115.400	-29.696	0.100
115.500	-15.467	0.100
115.600	-25.896	0.100
115.700	-24.785	0.100
115.800	-22.686	0.100
115.900	-17.691	0.100
116.000	-26.409	0.100
116.100	-24.232	0.100
116.200	-18.450	0.100
116.300	-19.566	0.100
116.400	-29.776	0.100
116.500	-26.993	0.100
116.600	-28.103	0.100
116.700	-16.942	0.100
116.800	-28.241	0.100
116.900	-41.120	0.100
117.000	-25.365	0.100
117.100	-24.766	0.100
117.200	-27.380	0.100
117.300	-27.929	0.100
117.400	-25.273	0.100
117.500	-19.241	0.100
117.600	-34.418	0.100
117.700	-21.436	0.100
117.800	-31.542	0.100
117.900	-29.408	0.100
118.000	-30.111	0.100
118.100	-23.259	0.100
118.200	-31.390	0.100
118.300	-27.280	0.100
118.400	-30.944	0.100
118.500	-24.041	0.100
118.600	-30.401	0.100
118.700	-23.979	0.100
118.800	-32.802	0.100
118.900	-28.587	0.100
119.000	-9.298	0.100
119.100	-28.970	0.100
119.200	-27.082	0.100
119.300	-26.264	0.100
119.400	-24.661	0.100
119.500	-31.013	0.100
119.600	-23.844	0.100
119.700	-24.092	0.100
119.800	-33.052	0.100
119.900	-34.670	0.100
120.000	-28.736	0.100
120.100	-31.676	0.100
120.200	-24.036	0.100
120.300	-22.663	0.100
120.400	-18.181	0.100
120.500	-25.337	0.100
120.600	-23.458	0.100
120.700	-33.735	0.100
120.800	-34.308	0.100
120.900	-40.281	0.100
121.000	-23.484	0.100
121.100	-30.246	0.100
121.200	-30.625	0.100
121.300	-27.263	0.100
121.400	-32.571	0.100
121.500	-28.754	0.100
121.600	-35.566	0.100
121.700	-27.510	0.100
121.800	-34.006	0.100
121.900	-28.122	0.100
122.000	-18.460	0.100
122.100	-27.667	0.100
122.200	-33.644	0.100
122.300	-29.572	0.100
122.400	-25.058	0.100
122.500	-25.586	0.100
122.600	-32.461	0.100
122.700	-27.551	0.100
122.800	-28.721	0.100
122.900	-40.017	0.100
123.000	-26.810	0.100
123.100	-11.098	0.100
123.200	-32.664	0.100
123.300	-39.020	0.100
123.400	-43.958	0.100
123.500	-30.363	0.100
123.600	-25.578	0.100
123.700	-24.062	0.100
123.800	-28.008	0.100
123.900	-18.428	0.100
124.000	-23.010	0.100
124.100	-25.468	0.100
124.200	-23.580	0.100
124.300	-33.788	0.100
124.400	-29.439	0.100
124.500	-29.018	0.100
124.600	-26.644	0.100
124.700	-30.118	0.100
124.800	-24.034	0.100
124.900	-30.397	0.100
125.000	-26.830	0.100
125.100	-33.420	0.100
125.200	-32.526	0.100
125.300	-27.625	0.100
125.400	-34.904	0.100
125.500	-36.987	0.100
125.600	-33.694	0.100
125.700	-35.308	0.100
125.800	-22.078	0.100
125.900	-27.909	0.100
126.000	-21.676	0.100
126.100	-18.853	0.100
126.200	-19.396	0.100
126.300	-22.710	0.100
126.400	-23.873	0.100
126.500	-29.152	0.100
126.600	-34.962	0.100
126.700	-32.347	0.100
126.800	-30.554	0.100
126.900	-27.681	0.100
127.000	-27.248	0.100
127.100	-30.804	0.100
127.200	-31.118	0.100
127.300	-37.249	0.100
127.400	-29.991	0.100
127.500	-28.216	0.100
127.600	-32.377	0.100
127.700	-28.752	0.100
127.800	-27.135	0.100
127.900	-33.905	0.100
128.000	-24.889	0.100
128.100	-28.530	0.100
128.200	-28.371	0.100
128.300	-27.375	0.100
128.400	-30.484	0.100
128.500	-35.746	0.100
128.600	-26.246	0.100
128.700	-29.464	0.100
128.800	-34.371	0.100
128.900	-30.207	0.100
129.000	-24.982	0.100
129.100	-23.700	0.100
129.200	-34.262	0.100
129.300	-36.198	0.100
129.400	-27.643	0.100
129.500	-21.666	0.100
129.600	-35.399	0.100
129.700	-29.066	0.100
129.800	-30.401	0.100
129.900	-20.588	0.100
130.000	-17.958	0.100
130.100	-34.383	0.100
130.200	-27.403	0.100
130.300	-18.971	0.100
130.400	-27.909	0.100
130.500	-39.181	0.100
130.600	-36.977	0.100
130.700	-23.820	0.100
130.800	-27.409	0.100
130.900	-23.312	0.100
131.000	-32.285	0.100
131.100	-40.469	0.100
131.200	-37.002	0.100
131.300	-25.852	0.100
131.400	-30.015	0.100
131.500	-26.708	0.100
131.600	-28.103	0.100
131.700	-31.028	0.100
131.800	-27.912	0.100
131.900	-30.059	0.100
132.000	-22.629	0.100
132.100	-28.762	0.100
132.200	-31.293	0.100
132.300	-26.666	0.100
132.400	-27.798	0.100
132.500	-20.191	0.100
132.600	-32.333	0.100
132.700	-31.472	0.100
132.800	-26.253	0.100
132.900	-24.414	0.100
133.000	-32.668	0.100
133.100	-23.898	0.100
133.200	-36.770	0.100
133.300	-25.985	0.100
133.400	-29.907	0.100
133.500	-30.536	0.100
133.600	-28.802	0.100
133.700	-26.313	0.100
133.800	-32.225	0.100
133.900	-28.958	0.100
134.000	-30.169	0.100
134.100	-20.604	0.100
134.200	-32.879	0.100
134.300	-39.309	0.100
134.400	-33.076	0.100
134.500	-24.363	0.100
134.600	-30.231	0.100
134.700	-29.497	0.100
134.800	-25.009	0.100
134.900	-22.889	0.100
135.000	-19.091	0.100
135.100	-25.500	0.100
135.200	-28.009	0.100
135.300	-24.120	0.100
135.400	-29.393	0.100
135.500	-30.239	0.100
135.600	-38.990	0.100
135.700	-30.647	0.100
135.800	-33.291	0.100
135.900	-35.393	0.100
136.000	-33.726	0.100
136.100	-25.581	0.100
136.200	-27.232	0.100
136.300	-30.149	0.100
136.400	-25.597	0.100
136.500	-28.850	0.100
136.600	-32.637	0.100
136.700	-31.659	0.100
136.800	-18.945	0.100
136.900	-21.353	0.100
137.000	-29.850	0.100
137.100	-31.446	0.100
137.200	-22.317	0.100
137.300	-33.092	0.100
137.400	-33.498	0.100
137.500	-31.846	0.100
137.600	-36.475	0.100
137.700	-32.296	0.100
137.800	-27.964	0.100
137.900	-21.469	0.100
138.000	-28.615	0.100
138.100	-30.745	0.100
138.200	-24.550	0.100
138.300	-32.977	0.100
138.400	-29.266	0.100
138.500	-26.557	0.100
138.600	-29.030	0.100
138.700	-38.557	0.100
138.800	-28.264	0.100
138.900	-33.278	0.100
139.000	-14.347	0.100
139.100	-28.437	0.100
139.200	-25.738	0.100
139.300	-35.389	0.100
139.400	-31.445	0.100
139.500	-40.579	0.100
139.600	-28.850	0.100
139.700	-33.498	0.100
139.800	-28.858	0.100
139.900	-21.484	0.100
140.000	-22.585	0.100
140.100	-27.247	0.100
140.200	-22.571	0.100
140.300	-26.797	0.100
140.400	-33.116	0.100
140.500	-29.877	0.100
140.600	-27.296	0.100
140.700	-36.133	0.100
140.800	-17.136	0.100
140.900	-30.513	0.100
141.000	-32.329	0.100
141.100	-37.653	0.100
141.200	-28.537	0.100
141.300	-30.688	0.100
141.400	-24.800	0.100
141.500	-19.057	0.100
141.600	-26.860	0.100
141.700	-34.265	0.100
141.800	-12.036	0.100
141.900	-34.931	0.100
142.000	-27.990	0.100
142.100	-29.481	0.100
142.200	-30.723	0.100
142.300	-19.348	0.100
142.400	-24.632	0.100
142.500	-26.608	0.100
142.600	-12.310	0.100
142.700	-20.803	0.100
142.800	-21.938	0.100
142.900	-30.643	0.100
143.000	-30.450	0.100
143.100	-23.545	0.100
143.200	-22.139	0.100
143.300	-29.667	0.100
143.400	-21.392	0.100
143.500	-23.377	0.100
143.600	-24.957	0.100
143.700	-29.453	0.100
143.800	-32.222	0.100
143.900	-25.764	0.100
144.000	-34.693	0.100
144.100	-26.667	0.100
144.200	-30.855	0.100
144.300	-31.802	0.100
144.400	-30.686	0.100
144.500	-27.198	0.100
144.600	-30.013	0.100
144.700	-32.385	0.100
144.800	-28.124	0.100
144.900	-22.863	0.100
145.000	-22.789	0.100
145.100	-28.012	0.100
145.200	-26.349	0.100
145.300	-23.652	0.100
145.400	-21.803	0.100
145.500	-31.455	0.100
145.600	-19.713	0.100
145.700	-26.968	0.100
145.800	-26.208	0.100
145.900	-32.307	0.100
146.000	-17.152	0.100
146.100	-20.413	0.100
146.200	-31.414	0.100
146.300	-18.416	0.100
146.400	-33.217	0.100
146.500	-36.766	0.100
146.600	-30.059	0.100
146.700	-18.611	0.100
146.800	-26.258	0.100
146.900	-33.025	0.100
147.000	-36.965	0.100
147.100	-25.037	0.100
147.200	-27.954	0.100
147.300	-26.798	0.100
147.400	-31.101	0.100
147.500	-29.128	0.100
147.600	-27.241	0.100
147.700	-25.103	0.100
147.800	-24.446	0.100
147.900	-20.285	0.100
148.000	-18.896	0.100
148.100	-32.374	0.100
148.200	-23.518	0.100
148.300	-31.390	0.100
148.400	-21.043	0.100
148.500	-19.934	0.100
148.600	-35.292	0.100
148.700	-28.817	0.100
148.800	-19.489	0.100
148.900	-21.699	0.100
149.000	-29.032	0.100
149.100	-29.157	0.100
149.200	-32.181	0.100
149.300	-36.986	0.100
149.400	-25.490	0.100
149.500	-18.687	0.100
149.600	-18.547	0.100
149.700	-20.672	0.100
149.800	-25.158	0.100
149.900	-17.606	0.100
150.000	-26.491	0.100
150.100	-24.038	0.100
150.200	-25.043	0.100
150.300	-25.158	0.100
150.400	-28.026	0.100
150.500	-23.223	0.100
150.600	-27.451	0.100
150.700	-14.851	0.100
150.800	-30.610	0.100
150.900	-30.740	0.100
151.000	-21.026	0.100
151.100	-32.230	0.100
151.200	-22.170	0.100
151.300	-25.753	0.100
151.400	-22.129	0.100
151.500	-17.923	0.100
151.600	-25.776	0.100
151.700	-24.218	0.100
151.800	-21.186	0.100
151.900	-19.203	0.100
152.000	-18.349	0.100
152.100	-28.407	0.100
152.200	-22.698	0.100
152.300	-25.745	0.100
152.400	-30.719	0.100
152.500	-29.900	0.100
152.600	-30.294	0.100
152.700	-32.363	0.100
152.800	-24.484	0.100
152.900	-26.359	0.100
153.000	-29.655	0.100
153.100	-19.996	0.100
153.200	-21.573	0.100
153.300	-25.664	0.100
153.400	-27.179	0.100
153.500	-25.308	0.100
153.600	-23.841	0.100
153.700	-31.166	0.100
153.800	-33.926	0.100
153.900	-13.511	0.100
154.000	-20.208	0.100
154.100	-27.743	0.100
154.200	-30.043	0.100
154.300	-32.336	0.100
154.400	-25.802	0.100
154.500	-19.272	0.100
154.600	-14.652	0.100
154.700	-29.717	0.100
154.800	-30.363	0.100
154.900	-24.842	0.100
155.000	-29.446	0.100
155.100	-17.531	0.100
155.200	-24.789	0.100
155.300	-21.782	0.100
155.400	-15.506	0.100
155.500	-29.168	0.100
155.600	-15.584	0.100
155.700	-21.614	0.100
155.800	-24.311	0.100
155.900	-16.120	0.100
156.000	-37.523	0.100
156.100	-28.544	0.100
156.200	-29.306	0.100
156.300	-31.905	0.100
156.400	-23.519	0.100
156.500	-21.120	0.100
156.600	-25.244	0.100
156.700	-16.264	0.100
156.800	-35.015	0.100
156.900	-31.708	0.100
157.000	-33.138	0.100
157.100	-23.392	0.100
157.200	-18.834	0.100
157.300	-31.190	0.100
157.400	-33.199	0.100
157.500	-22.078	0.100
157.600	-18.249	0.100
157.700	-19.471	0.100
157.800	-27.640	0.100
157.900	-38.173	0.100
158.000	-29.519	0.100
158.100	-23.103	0.100
158.200	-27.635	0.100
158.300	-31.408	0.100
158.400	-24.692	0.100
158.500	-3.702	0.100
158.600	-13.767	0.100
158.700	-19.254	0.100
158.800	-21.625	0.100
158.900	-30.118	0.100
159.000	-31.350	0.100
159.100	-15.039	0.100
159.200	-19.445	0.100
159.300	-20.657	0.100
159.400	-14.744	0.100
159.500	-26.959	0.100
159.600	-20.421	0.100
159.700	-25.258	0.100
159.800	-17.854	0.100
159.900	-29.811	0.100
160.000	-21.302	0.100
160.100	-24.878	0.100
160.200	-20.678	0.100
160.300	-22.604	0.100
160.400	-30.283	0.100
160.500	-22.998	0.100
160.600	-19.259	0.100
160.700	-14.995	0.100
160.800	-22.218	0.100
160.900	-26.718	0.100
161.000	-27.630	0.100
161.100	-26.778	0.100
161.200	-25.289	0.100
161.300	-24.920	0.100
161.400	-9.242	0.100
161.500	-27.977	0.100
161.600	-18.623	0.100
161.700	-11.463	0.100
161.800	-28.226	0.100
161.900	-16.072	0.100
162.000	-24.302	0.100
162.100	-13.312	0.100
162.200	-25.335	0.100
162.300	-33.674	0.100
162.400	-31.517	0.100
162.500	-23.320	0.100
162.600	-18.473	0.100
162.700	-30.377	0.100
162.800	-17.390	0.100
162.900	-22.923	0.100
163.000	-20.283	0.100
163.100	-16.693	0.100
163.200	-27.295	0.100
163.300	-21.933	0.100
163.400	-17.664	0.100
163.500	-30.877	0.100
163.600	-21.108	0.100
163.700	-28.304	0.100
163.800	-18.152	0.100
163.900	-15.022	0.100
164.000	-20.355	0.100
164.100	-27.919	0.100
164.200	-23.972	0.100
164.300	-30.256	0.100
164.400	-28.918	0.100
164.500	-16.600	0.100
164.600	-18.716	0.100
164.700	-26.088	0.100
164.800	-22.964	0.100
164.900	-20.806	0.100
165.000	-29.140	0.100
165.100	-32.378	0.100
165.200	-18.659	0.100
165.300	-16.707	0.100
165.400	-35.332	0.100
165.500	-22.592	0.100
165.600	-22.061	0.100
165.700	-19.469	0.100
165.800	-30.575	0.100
165.900	-8.434	0.100
166.000	-18.386	0.100
166.100	-18.917	0.100
166.200	-31.764	0.100
166.300	-16.240	0.100
166.400	-21.455	0.100
166.500	-38.112	0.100
166.600	-31.860	0.100
166.700	-28.079	0.100
166.800	-15.511	0.100
166.900	-10.018	0.100
167.000	-23.689	0.100
167.100	-24.564	0.100
167.200	-30.757	0.100
167.300	-26.416	0.100
167.400	-24.885	0.100
167.500	-6.868	0.100
167.600	-13.866	0.100
167.700	-21.952	0.100
167.800	-21.524	0.100
167.900	-16.691	0.100
168.000	-30.776	0.100
168.100	-16.011	0.100
168.200	-20.261	0.100
168.300	-25.375	0.100
168.400	-26.424	0.100
168.500	-24.476	0.100
168.600	-30.466	0.100
168.700	-19.589	0.100
168.800	-7.954	0.100
168.900	-19.338	0.100
169.000	-25.374	0.100
169.100	-23.449	0.100
169.200	-9.727	0.100
169.300	-25.416	0.100
169.400	-18.614	0.100
169.500	-24.319	0.100
169.600	-15.314	0.100
169.700	-20.596	0.100
169.800	-32.198	0.100
169.900	-22.936	0.100
170.000	-22.057	0.100
170.100	-22.923	0.100
170.200	-23.338	0.100
170.300	-25.094	0.100
170.400	-20.380	0.100
170.500	-18.288	0.100
170.600	-30.270	0.100
170.700	-19.830	0.100
170.800	-18.754	0.100
170.900	-16.278	0.100
171.000	-15.853	0.100
171.100	-21.815	0.100
171.200	-11.817	0.100
171.300	-26.888	0.100
171.400	-14.036	0.100
171.500	-34.152	0.100
171.600	-19.799	0.100
171.700	-19.144	0.100
171.800	-22.183	0.100
171.900	-26.262	0.100
172.000	-30.794	0.100
172.100	-16.506	0.100
172.200	-15.694	0.100
172.300	-24.074	0.100
172.400	-18.471	0.100
172.500	-19.880	0.100
172.600	-28.998	0.100
172.700	-17.126	0.100
172.800	-17.008	0.100
172.900	-18.245	0.100
173.000	-18.968	0.100
173.100	-17.812	0.100
173.200	-31.910	0.100
173.300	-12.183	0.100
173.400	-21.454	0.100
173.500	-18.965	0.100
173.600	-19.659	0.100
173.700	-22.947	0.100
173.800	-6.383	0.100
173.900	-19.356	0.100
174.000	-16.845	0.100
174.100	-30.408	0.100
174.200	-18.734	0.100
174.300	-9.420	0.100
174.400	-20.227	0.100
174.500	-21.219	0.100
174.600	-17.756	0.100
174.700	-27.417	0.100
174.800	-12.401	0.100
174.900	-8.727	0.100
175.000	-16.436	0.100
175.100	-25.502	0.100
175.200	-23.920	0.100
175.300	-27.451	0.100
175.400	-22.864	0.100
175.500	-14.794	0.100
175.600	-16.825	0.100
175.700	-19.231	0.100
175.800	-16.798	0.100
175.900	-17.612	0.100
176.000	-23.585	0.100
176.100	-19.034	0.100
176.200	-12.793	0.100
176.300	-4.788	0.100
176.400	-17.824	0.100
176.500	-26.354	0.100
176.600	-20.726	0.100
176.700	-16.252	0.100
176.800	-32.053	0.100
176.900	-15.002	0.100
177.000	-25.220	0.100
177.100	-18.715	0.100
177.200	-13.952	0.100
177.300	-25.216	0.100
177.400	-23.689	0.100
177.500	-21.661	0.100
177.600	-14.967	0.100
177.700	-16.876	0.100
177.800	-24.752	0.100
177.900	-18.994	0.100
178.000	-17.458	0.100
178.100	-26.250	0.100
178.200	-23.572	0.100
178.300	-18.627	0.100
178.400	-28.598	0.100
178.500	-17.058	0.100
178.600	-21.065	0.100
178.700	-16.085	0.100
178.800	-19.961	0.100
178.900	-26.187	0.100
179.000	-26.998	0.100
179.100	-25.040	0.100
179.200	-23.888	0.100
179.300	-22.667	0.100
179.400	-12.916	0.100
179.500	-32.496	0.100
179.600	-20.758	0.100
179.700	-20.001	0.100
179.800	-24.713	0.100
179.900	-1.694	0.100
180.000	-24.530	0.100
180.100	-15.209	0.100
180.200	-6.606	0.100
180.300	-14.024	0.100
180.400	-19.071	0.100
180.500	-6.626	0.100
180.600	-8.479	0.100
180.700	3.427	0.100
180.800	-14.998	0.100
180.900	-8.065	0.100
181.000	-11.145	0.100
181.100	-2.101	0.100
181.200	12.275	0.100
181.300	2.161	0.100
181.400	4.719	0.100
181.500	9.453	0.100
181.600	15.341	0.100
181.700	16.301	0.100
181.800	17.362	0.100
181.900	14.311	0.100
182.000	18.533	0.100
182.100	9.592	0.100
182.200	13.641	0.100
182.300	19.506	0.100
182.400	19.844	0.100
182.500	12.205	0.100
182.600	23.982	0.100
182.700	19.619	0.100
182.800	30.880	0.100
182.900	16.972	0.100
183.000	20.013	0.100
183.100	24.967	0.100
183.200	29.423	0.100
183.300	26.026	0.100
183.400	9.980	0.100
183.500	20.936	0.100
183.600	21.357	0.100
183.700	22.839	0.100
183.800	30.850	0.100
183.900	14.414	0.100
184.000	15.128	0.100
184.100	24.952	0.100
184.200	36.078	0.100
184.300	33.130	0.100
184.400	27.020	0.100
184.500	19.288	0.100
184.600	14.835	0.100
184.700	25.907	0.100
184.800	27.284	0.100
184.900	23.452	0.100
185.000	20.093	0.100
185.100	20.616	0.100
185.200	22.192	0.100
185.300	21.965	0.100
185.400	26.229	0.100
185.500	11.888	0.100
185.600	16.077	0.100
185.700	14.514	0.100
185.800	2.242	0.100
185.900	0.931	0.100
186.000	20.989	0.100
186.100	28.774	0.100
186.200	20.928	0.100
186.300	29.475	0.100
186.400	27.112	0.100
186.500	26.872	0.100
186.600	23.478	0.100
186.700	18.129	0.100
186.800	6.559	0.100
186.900	26.812	0.100
187.000	19.732	0.100
187.100	17.324	0.100
187.200	19.226	0.100
187.300	21.874	0.100
187.400	24.615	0.100
187.500	18.243	0.100
187.600	24.031	0.100
187.700	14.149	0.100
187.800	16.380	0.100
187.900	18.317	0.100
188.000	5.832	0.100
188.100	13.973	0.100
188.200	17.843	0.100
188.300	24.929	0.100
188.400	21.320	0.100
188.500	9.055	0.100
188.600	17.768	0.100
188.700	6.522	0.100
188.800	18.702	0.100
188.900	26.604	0.100
189.000	23.289	0.100
189.100	5.245	0.100
189.200	16.287	0.100
189.300	26.508	0.100
189.400	19.143	0.100
189.500	24.704	0.100
189.600	22.470	0.100
189.700	19.711	0.100
189.800	11.196	0.100
189.900	21.136	0.100
190.000	16.768	0.100
190.100	22.161	0.100
190.200	13.433	0.100
190.300	10.560	0.100
190.400	18.753	0.100
190.500	3.798	0.100
190.600	7.397	0.100
190.700	19.655	0.100
190.800	8.780	0.100
190.900	27.119	0.100
191.000	28.800	0.100
191.100	24.784	0.100
191.200	4.558	0.100
191.300	11.179	0.100
191.400	22.820	0.100
191.500	13.644	0.100
191.600	22.709	0.100
191.700	21.259	0.100
191.800	23.549	0.100
191.900	10.884	0.100
192.000	10.499	0.100
192.100	14.867	0.100
192.200	17.610	0.100
192.300	17.214	0.100
192.400	14.322	0.100
192.500	12.865	0.100
192.600	25.989	0.100
192.700	22.081	0.100
192.800	13.198	0.100
192.900	23.996	0.100
193.000	25.800	0.100
193.100	20.383	0.100
193.200	21.552	0.100
193.300	24.095	0.100
193.400	7.597	0.100
193.500	13.440	0.100
193.600	30.030	0.100
193.700	17.060	0.100
193.800	12.716	0.100
193.900	10.604	0.100
194.000	12.978	0.100
194.100	22.694	0.100
194.200	35.781	0.100
194.300	12.007	0.100
194.400	24.055	0.100
194.500	21.647	0.100
194.600	9.668	0.100
194.700	14.578	0.100
194.800	18.683	0.100
194.900	18.045	0.100
195.000	23.070	0.100
195.100	27.503	0.100
195.200	16.717	0.100
195.300	17.324	0.100
195.400	26.290	0.100
195.500	23.977	0.100
195.600	23.548	0.100
195.700	19.414	0.100
195.800	24.975	0.100
195.900	19.348	0.100
196.000	13.039	0.100
196.100	30.410	0.100
196.200	16.098	0.100
196.300	24.204	0.100
196.400	17.914	0.100
196.500	23.717	0.100
196.600	22.900	0.100
196.700	31.231	0.100
196.800	15.031	0.100
196.900	34.794	0.100
197.000	26.942	0.100
197.100	15.920	0.100
197.200	15.471	0.100
197.300	24.885	0.100
197.400	13.533	0.100
197.500	21.816	0.100
197.600	26.298	0.100
197.700	20.490	0.100
197.800	16.458	0.100
197.900	32.990	0.100
198.000	26.018	0.100
198.100	21.691	0.100
198.200	18.781	0.100
198.300	29.972	0.100
198.400	26.110	0.100
198.500	19.094	0.100
198.600	27.467	0.100
198.700	39.700	0.100
198.800	25.590	0.100
198.900	11.551	0.100
199.000	14.191	0.100
199.100	32.251	0.100
199.200	36.395	0.100
199.300	35.879	0.100
199.400	16.981	0.100
199.500	36.308	0.100
199.600	35.473	0.100
199.700	22.714	0.100
199.800	28.578	0.100
199.900	29.489	0.100
200.000	17.002	0.100
200.100	30.735	0.100
200.200	19.766	0.100
200.300	22.100	0.100
200.400	27.131	0.100
200.500	27.557	0.100
200.600	25.608	0.100
200.700	29.811	0.100
200.800	23.824	0.100
200.900	29.297	0.100
201.000	20.340	0.100
201.100	20.988	0.100
201.200	35.468	0.100
201.300	12.663	0.100
201.400	23.775	0.100
201.500	22.559	0.100
201.600	20.540	0.100
201.700	38.174	0.100
201.800	23.773	0.100
201.900	20.174	0.100
202.000	25.790	0.100
202.100	35.220	0.100
202.200	28.785	0.100
202.300	40.174	0.100
202.400	31.177	0.100
202.500	27.186	0.100
202.600	27.181	0.100
202.700	24.086	0.100
202.800	26.098	0.100
202.900	32.436	0.100
203.000	26.490	0.100
203.100	27.757	0.100
203.200	26.388	0.100
203.300	33.028	0.100
203.400	37.791	0.100
203.500	32.072	0.100
203.600	43.879	0.100
203.700	22.297	0.100
203.800	32.795	0.100
203.900	26.698	0.100
204.000	25.614	0.100
204.100	28.035	0.100
204.200	29.846	0.100
204.300	38.286	0.100
204.400	39.915	0.100
204.500	31.609	0.100
204.600	30.735	0.100
204.700	35.796	0.100
204.800	33.515	0.100
204.900	35.203	0.100
205.000	31.056	0.100
205.100	40.033	0.100
205.200	21.703	0.100
205.300	26.770	0.100
205.400	33.267	0.100
205.500	21.179	0.100
205.600	27.436	0.100
205.700	19.856	0.100
205.800	29.669	0.100
205.900	34.750	0.100
206.000	36.416	0.100
206.100	34.506	0.100
206.200	35.461	0.100
206.300	39.825	0.100
206.400	29.165	0.100
206.500	32.381	0.100
206.600	32.444	0.100
206.700	31.171	0.100
206.800	36.085	0.100
206.900	37.422	0.100
207.000	27.501	0.100
207.100	26.213	0.100
207.200	41.901	0.100
207.300	34.731	0.100
207.400	30.874	0.100
207.500	33.443	0.100
207.600	29.777	0.100
207.700	35.034	0.100
207.800	35.101	0.100
207.900	30.572	0.100
208.000	30.096	0.100
208.100	28.014	0.100
208.200	37.454	0.100
208.300	28.164	0.100
208.400	29.806	0.100
208.500	42.338	0.100
208.600	48.380	0.100
208.700	29.156	0.100
208.800	26.083	0.100
208.900	32.579	0.100
209.000	32.408	0.100
209.100	32.190	0.100
209.200	34.991	0.100
209.300	32.488	0.100
209.400	38.658	0.100
209.500	33.875	0.100
209.600	35.435	0.100
209.700	36.319	0.100
209.800	37.501	0.100
209.900	37.870	0.100
210.000	30.402	0.100
210.100	35.736	0.100
210.200	35.680	0.100
210.300	40.044	0.100
210.400	40.443	0.100
210.500	38.043	0.100
210.600	35.354	0.100
210.700	32.896	0.100
210.800	39.811	0.100
210.900	31.833	0.100
211.000	37.263	0.100
211.100	44.664	0.100
211.200	39.438	0.100
211.300	29.173	0.100
211.400	29.695	0.100
211.500	35.035	0.100
211.600	38.988	0.100
211.700	41.092	0.100
211.800	35.979	0.100
211.900	29.005	0.100
212.000	36.899	0.100
212.100	15.848	0.100
212.200	31.013	0.100
212.300	35.971	0.100
212.400	42.582	0.100
212.500	38.871	0.100
212.600	29.582	0.100
212.700	40.842	0.100
212.800	39.844	0.100
212.900	34.056	0.100
213.000	36.351	0.100
213.100	33.939	0.100
213.200	34.859	0.100
213.300	34.829	0.100
213.400	23.270	0.100
213.500	34.771	0.100
213.600	26.518	0.100
213.700	43.324	0.100
213.800	34.250	0.100
213.900	27.053	0.100
214.000	39.270	0.100
214.100	36.083	0.100
214.200	35.474	0.100
214.300	30.128	0.100
214.400	40.471	0.100
214.500	32.652	0.100
214.600	32.573	0.100
214.700	32.719	0.100
214.800	36.233	0.100
214.900	36.927	0.100
215.000	38.432	0.100
215.100	30.711	0.100
215.200	40.599	0.100
215.300	44.795	0.100
215.400	41.716	0.100
215.500	28.213	0.100
215.600	34.981	0.100
215.700	43.180	0.100
215.800	32.512	0.100
215.900	49.392	0.100
216.000	38.698	0.100
216.100	47.079	0.100
216.200	43.355	0.100
216.300	21.237	0.100
216.400	25.480	0.100
216.500	30.688	0.100
216.600	34.266	0.100
216.700	37.002	0.100
216.800	25.147	0.100
216.900	35.551	0.100
217.000	24.269	0.100
217.100	25.752	0.100
217.200	31.877	0.100
217.300	29.642	0.100
217.400	36.839	0.100
217.500	38.963	0.100
217.600	35.979	0.100
217.700	34.757	0.100
217.800	45.292	0.100
217.900	35.363	0.100
218.000	33.628	0.100
218.100	46.728	0.100
218.200	38.236	0.100
218.300	28.404	0.100
218.400	27.961	0.100
218.500	37.232	0.100
218.600	21.994	0.100
218.700	39.734	0.100
218.800	45.809	0.100
218.900	33.077	0.100
219.000	26.119	0.100
219.100	32.963	0.100
219.200	30.221	0.100
219.300	27.008	0.100
219.400	34.479	0.100
219.500	52.322	0.100
219.600	35.779	0.100
219.700	31.924	0.100
219.800	27.264	0.100
219.900	28.511	0.100
220.000	39.352	0.100
220.100	29.162	0.100
220.200	40.978	0.100
220.300	37.941	0.100
220.400	45.473	0.100
220.500	33.905	0.100
220.600	28.215	0.100
220.700	28.467	0.100
220.800	34.519	0.100
220.900	39.718	0.100
221.000	38.915	0.100
221.100	32.923	0.100
221.200	35.369	0.100
221.300	34.909	0.100
221.400	35.294	0.100
221.500	38.660	0.100
221.600	34.850	0.100
221.700	36.712	0.100
221.800	41.845	0.100
221.900	36.059	0.100
222.000	25.492	0.100
222.100	38.971	0.100
222.200	35.560	0.100
222.300	39.676	0.100
222.400	21.543	0.100
222.500	23.943	0.100
222.600	36.913	0.100
222.700	37.209	0.100
222.800	37.062	0.100
222.900	25.452	0.100
223.000	30.540	0.100
223.100	32.906	0.100
223.200	33.804	0.100
223.300	31.091	0.100
223.400	33.719	0.100
223.500	43.821	0.100
223.600	34.519	0.100
223.700	24.671	0.100
223.800	25.917	0.100
223.900	34.537	0.100
224.000	34.642	0.100
224.100	32.076	0.100
224.200	40.221	0.100
224.300	35.276	0.100
224.400	34.482	0.100
224.500	30.150	0.100
224.600	37.993	0.100
224.700	38.655	0.100
224.800	40.902	0.100
224.900	40.359	0.100
225.000	23.525	0.100
225.100	40.474	0.100
225.200	38.630	0.100
225.300	34.629	0.100
225.400	30.210	0.100
225.500	37.588	0.100
225.600	33.102	0.100
225.700	33.710	0.100
225.800	39.569	0.100
225.900	29.144	0.100
226.000	39.776	0.100
226.100	30.967	0.100
226.200	34.394	0.100
226.300	27.411	0.100
226.400	39.153	0.100
226.500	37.780	0.100
226.600	30.746	0.100
226.700	41.608	0.100
226.800	34.924	0.100
226.900	30.610	0.100
227.000	40.825	0.100
227.100	39.715	0.100
227.200	31.263	0.100
227.300	28.486	0.100
227.400	38.628	0.100
227.500	41.871	0.100
227.600	30.763	0.100
227.700	32.840	0.100
227.800	35.819	0.100
227.900	27.614	0.100
228.000	39.566	0.100
228.100	30.762	0.100
228.200	35.535	0.100
228.300	37.791	0.100
228.400	35.679	0.100
228.500	25.142	0.100
228.600	29.706	0.100
228.700	30.489	0.100
228.800	45.390	0.100
228.900	28.905	0.100
229.000	47.360	0.100
229.100	36.791	0.100
229.200	14.294	0.100
229.300	16.231	0.100
229.400	29.792	0.100
229.500	30.966	0.100
229.600	32.503	0.100
229.700	39.798	0.100
229.800	38.561	0.100
229.900	31.187	0.100
230.000	42.133	0.100
230.100	29.664	0.100
230.200	23.949	0.100
230.300	40.532	0.100
230.400	37.104	0.100
230.500	32.748	0.100
230.600	38.221	0.100
230.700	32.156	0.100
230.800	39.327	0.100
230.900	31.356	0.100
231.000	22.069	0.100
231.100	24.944	0.100
231.200	32.484	0.100
231.300	32.194	0.100
231.400	40.580	0.100
231.500	38.449	0.100
231.600	28.983	0.100
231.700	29.023	0.100
231.800	33.422	0.100
231.900	36.734	0.100
232.000	26.183	0.100
232.100	35.193	0.100
232.200	32.874	0.100
232.300	32.063	0.100
232.400	40.776	0.100
232.500	31.034	0.100
232.600	33.596	0.100
232.700	24.708	0.100
232.800	37.347	0.100
232.900	45.133	0.100
233.000	37.466	0.100
233.100	36.661	0.100
233.200	23.723	0.100
233.300	32.277	0.100
233.400	42.878	0.100
233.500	45.140	0.100
233.600	43.880	0.100
233.700	28.016	0.100
233.800	30.096	0.100
233.900	29.248	0.100
234.000	38.069	0.100
234.100	27.897	0.100
234.200	33.249	0.100
234.300	38.032	0.100
234.400	36.725	0.100
234.500	37.144	0.100
234.600	40.153	0.100
234.700	30.768	0.100
234.800	37.824	0.100
234.900	31.939	0.100
235.000	36.644	0.100
235.100	27.183	0.100
235.200	24.750	0.100
235.300	49.396	0.100
235.400	35.222	0.100
235.500	35.314	0.100
235.600	33.747	0.100
235.700	25.425	0.100
235.800	36.842	0.100
235.900	34.414	0.100
236.000	43.611	0.100
236.100	30.647	0.100
236.200	33.357	0.100
236.300	27.984	0.100
236.400	27.644	0.100
236.500	35.389	0.100
236.600	37.610	0.100
236.700	28.960	0.100
236.800	25.158	0.100
236.900	35.025	0.100
237.000	22.541	0.100
237.100	34.744	0.100
237.200	30.392	0.100
237.300	40.573	0.100
237.400	31.294	0.100
237.500	31.178	0.100
237.600	23.203	0.100
237.700	27.941	0.100
237.800	28.896	0.100
237.900	31.218	0.100
238.000	38.733	0.100
238.100	19.611	0.100
238.200	27.200	0.100
238.300	36.582	0.100
238.400	32.716	0.100
238.500	42.836	0.100
238.600	41.238	0.100
238.700	31.839	0.100
238.800	40.430	0.100
238.900	27.725	0.100
239.000	24.429	0.100
239.100	27.512	0.100
239.200	35.025	0.100
239.300	28.846	0.100
239.400	37.260	0.100
239.500	42.059	0.100
239.600	37.728	0.100
239.700	40.113	0.100
239.800	23.515	0.100
239.900	21.634	0.100
240.000	38.803	0.100
240.100	38.586	0.100
240.200	28.993	0.100
240.300	23.541	0.100
240.400	30.586	0.100
240.500	19.337	0.100
240.600	23.282	0.100
240.700	13.577	0.100
240.800	23.443	0.100
240.900	19.778	0.100
241.000	17.655	0.100
241.100	18.739	0.100
241.200	15.842	0.100
241.300	9.977	0.100
241.400	14.090	0.100
241.500	15.398	0.100
241.600	7.227	0.100
241.700	12.406	0.100
241.800	13.353	0.100
241.900	0.987	0.100
242.000	13.585	0.100
242.100	7.084	0.100
242.200	5.855	0.100
242.300	5.913	0.100
242.400	0.979	0.100
242.500	-0.283	0.100
242.600	1.026	0.100
242.700	6.525	0.100
242.800	-0.208	0.100
242.900	-11.724	0.100
243.000	-6.682	0.100
243.100	2.815	0.100
243.200	0.156	0.100
243.300	5.112	0.100
243.400	11.947	0.100
243.500	4.902	0.100
243.600	-0.928	0.100
243.700	-5.494	0.100
243.800	7.887	0.100
243.900	5.410	0.100
244.000	4.661	0.100
244.100	2.097	0.100
244.200	-1.172	0.100
244.300	7.043	0.100
244.400	0.426	0.100
244.500	5.730	0.100
244.600	-0.619	0.100
244.700	-1.418	0.100
244.800	-14.546	0.100
244.900	-9.429	0.100
245.000	-5.457	0.100
245.100	7.913	0.100
245.200	3.057	0.100
245.300	3.443	0.100
245.400	2.322	0.100
245.500	1.975	0.100
245.600	3.810	0.100
245.700	-8.301	0.100
245.800	6.691	0.100
245.900	-12.014	0.100
246.000	2.008	0.100
246.100	-4.849	0.100
246.200	-4.069	0.100
246.300	-5.105	0.100
246.400	-5.557	0.100
246.500	-5.532	0.100
246.600	6.290	0.100
246.700	-1.712	0.100
246.800	-4.019	0.100
246.900	4.117	0.100
247.000	-1.426	0.100
247.100	-3.829	0.100
247.200	-9.519	0.100
247.300	-14.162	0.100
247.400	-2.038	0.100
247.500	5.575	0.100
247.600	-4.728	0.100
247.700	-3.540	0.100
247.800	-3.718	0.100
247.900	-13.241	0.100
248.000	3.937	0.100
248.100	1.948	0.100
248.200	-2.960	0.100
248.300	-6.718	0.100
248.400	-4.827	0.100
248.500	-10.693	0.100
248.600	-2.670	0.100
248.700	8.276	0.100
248.800	-5.889	0.100
248.900	4.276	0.100
249.000	-0.532	0.100
249.100	-3.698	0.100
249.200	1.889	0.100
249.300	-5.320	0.100
249.400	-11.734	0.100
249.500	-3.197	0.100
249.600	-8.292	0.100
249.700	-6.370	0.100
249.800	-6.923	0.100
249.900	-11.120	0.100
250.000	-15.183	0.100
250.100	-1.360	0.100
250.200	-1.426	0.100
250.300	-5.198	0.100
250.400	-6.213	0.100
250.500	-6.042	0.100
250.600	-6.841	0.100
250.700	-15.623	0.100
250.800	8.471	0.100
250.900	-0.890	0.100
251.000	-1.163	0.100
251.100	-3.026	0.100
251.200	-2.029	0.100
251.300	-9.786	0.100
251.400	-14.454	0.100
251.500	-2.970	0.100
251.600	-4.340	0.100
251.700	-20.710	0.100
251.800	4.738	0.100
251.900	-4.297	0.100
252.000	-11.070	0.100
252.100	-1.244	0.100
252.200	-3.976	0.100
252.300	-18.700	0.100
252.400	-9.072	0.100
252.500	-15.318	0.100
252.600	1.319	0.100
252.700	-8.140	0.100
252.800	-15.454	0.100
252.900	-11.022	0.100
253.000	-18.629	0.100
253.100	-8.520	0.100
253.200	2.071	0.100
253.300	-12.188	0.100
253.400	-7.449	0.100
253.500	-12.519	0.100
253.600	-6.846	0.100
253.700	-13.152	0.100
253.800	-4.683	0.100
253.900	-1.998	0.100
254.000	-2.217	0.100
254.100	-16.314	0.100
254.200	-3.025	0.100
254.300	-6.657	0.100
254.400	-2.565	0.100
254.500	-1.990	0.100
254.600	-3.844	0.100
254.700	-5.222	0.100
254.800	-11.663	0.100
254.900	-6.838	0.100
255.000	-3.328	0.100
255.100	-19.293	0.100
255.200	-10.338	0.100
255.300	-6.524	0.100
255.400	-7.457	0.100
255.500	-14.261	0.100
255.600	-11.172	0.100
255.700	-15.636	0.100
255.800	-17.686	0.100
255.900	-10.365	0.100
256.000	-10.618	0.100
256.100	-10.094	0.100
256.200	-4.353	0.100
256.300	-11.130	0.100
256.400	-10.559	0.100
256.500	-13.717	0.100
256.600	-16.099	0.100
256.700	-22.037	0.100
256.800	-5.643	0.100
256.900	-13.954	0.100
257.000	-9.063	0.100
257.100	-8.677	0.100
257.200	-3.028	0.100
257.300	-7.949	0.100
257.400	-13.129	0.100
257.500	-20.382	0.100
257.600	-10.832	0.100
257.700	-5.533	0.100
257.800	-20.801	0.100
257.900	-9.325	0.100
258.000	-11.460	0.100
258.100	-11.607	0.100
258.200	-12.854	0.100
258.300	-21.911	0.100
258.400	-17.967	0.100
258.500	-10.904	0.100
258.600	-15.800	0.100
258.700	-3.243	0.100
258.800	-17.958	0.100
258.900	-13.778	0.100
259.000	-23.957	0.100
259.100	-11.529	0.100
259.200	-10.674	0.100
259.300	-15.567	0.100
259.400	-17.859	0.100
259.500	-24.835	0.100
259.600	-11.080	0.100
259.700	-7.754	0.100
259.800	-29.515	0.100
259.900	-10.284	0.100
260.000	-8.590	0.100
260.100	-19.275	0.100
260.200	-20.223	0.100
260.300	-8.627	0.100
260.400	-25.731	0.100
260.500	-25.703	0.100
260.600	-4.353	0.100
260.700	-21.846	0.100
260.800	-9.776	0.100
260.900	-10.149	0.100
261.000	-23.116	0.100
261.100	-21.483	0.100
261.200	-20.584	0.100
261.300	-9.451	0.100
261.400	-16.193	0.100
261.500	-13.855	0.100
261.600	-24.646	0.100
261.700	-17.064	0.100
261.800	-15.500	0.100
261.900	-20.327	0.100
262.000	-21.993	0.100
262.100	-18.017	0.100
262.200	-13.151	0.100
262.300	-3.746	0.100
262.400	-25.295	0.100
262.500	-28.748	0.100
262.600	-14.347	0.100
262.700	-17.983	0.100
262.800	-28.834	0.100
262.900	-13.014	0.100
263.000	-18.358	0.100
263.100	-22.852	0.100
263.200	-22.372	0.100
263.300	-15.758	0.100
263.400	-21.316	0.100
263.500	-19.201	0.100
263.600	-22.434	0.100
263.700	-24.735	0.100
263.800	-25.451	0.100
263.900	-19.820	0.100
264.000	-24.029	0.100
264.100	-21.058	0.100
264.200	-22.015	0.100
264.300	-25.324	0.100
264.400	-11.205	0.100
264.500	-7.165	0.100
264.600	-12.558	0.100
264.700	-27.889	0.100
264.800	-13.819	0.100
264.900	-15.858	0.100
265.000	-20.144	0.100
265.100	-25.880	0.100
265.200	-33.505	0.100
265.300	-24.506	0.100
265.400	-26.568	0.100
265.500	-27.840	0.100
265.600	-22.788	0.100
265.700	-15.594	0.100
265.800	-22.785	0.100
265.900	-14.033	0.100
266.000	-19.335	0.100
266.100	-21.699	0.100
266.200	-19.755	0.100
266.300	-18.498	0.100
266.400	-15.584	0.100
266.500	-17.943	0.100
266.600	-24.467	0.100
266.700	-25.131	0.100
266.800	-21.689	0.100
266.900	-21.957	0.100
267.000	-24.744	0.100
267.100	-17.778	0.100
267.200	-21.001	0.100
267.300	-24.249	0.100
267.400	-21.150	0.100
267.500	-23.989	0.100
267.600	-28.661	0.100
267.700	-27.301	0.100
267.800	-10.214	0.100
267.900	-28.079	0.100
268.000	-21.626	0.100
268.100	-30.629	0.100
268.200	-21.041	0.100
268.300	-29.675	0.100
268.400	-14.199	0.100
268.500	-21.741	0.100
268.600	-30.366	0.100
268.700	-26.770	0.100
268.800	-37.024	0.100
268.900	-24.117	0.100
269.000	-18.083	0.100
269.100	-21.708	0.100
269.200	-33.470	0.100
269.300	-22.936	0.100
269.400	-17.888	0.100
269.500	-22.920	0.100
269.600	-35.515	0.100
269.700	-33.553	0.100
269.800	-16.232	0.100
269.900	-24.721	0.100
270.000	-23.929	0.100
270.100	-29.314	0.100
270.200	-30.141	0.100
270.300	-25.369	0.100
270.400	-31.384	0.100
270.500	-27.235	0.100
270.600	-28.461	0.100
270.700	-35.267	0.100
270.800	-22.733	0.100
270.900	-26.367	0.100
271.000	-28.551	0.100
271.100	-22.319	0.100
271.200	-13.304	0.100
271.300	-28.031	0.100
271.400	-30.139	0.100
271.500	-15.751	0.100
271.600	-36.154	0.100
271.700	-30.201	0.100
271.800	-37.620	0.100
271.900	-20.817	0.100
272.000	-25.438	0.100
272.100	-23.802	0.100
272.200	-40.440	0.100
272.300	-38.186	0.100
272.400	-32.913	0.100
272.500	-26.834	0.100
272.600	-26.978	0.100
272.700	-13.447	0.100
272.800	-26.552	0.100
272.900	-37.621	0.100
273.000	-29.533	0.100
273.100	-28.152	0.100
273.200	-26.916	0.100
273.300	-17.424	0.100
273.400	-17.379	0.100
273.500	-31.317	0.100
273.600	-33.815	0.100
273.700	-25.928	0.100
273.800	-28.902	0.100
273.900	-37.517	0.100
274.000	-26.994	0.100
274.100	-25.657	0.100
274.200	-24.300	0.100
274.300	-26.129	0.100
274.400	-41.363	0.100
274.500	-36.028	0.100
274.600	-27.680	0.100
274.700	-26.300	0.100
274.800	-30.695	0.100
274.900	-19.269	0.100
275.000	-16.815	0.100
275.100	-34.347	0.100
275.200	-37.040	0.100
275.300	-28.062	0.100
275.400	-28.970	0.100
275.500	-27.451	0.100
275.600	-22.806	0.100
275.700	-21.662	0.100
275.800	-24.237	0.100
275.900	-36.150	0.100
276.000	-39.365	0.100
276.100	-19.411	0.100
276.200	-29.588	0.100
276.300	-26.355	0.100
276.400	-40.639	0.100
276.500	-33.348	0.100
276.600	-18.671	0.100
276.700	-23.909	0.100
276.800	-32.486	0.100
276.900	-30.583	0.100
277.000	-25.868	0.100
277.100	-37.189	0.100
277.200	-24.687	0.100
277.300	-26.616	0.100
277.400	-26.523	0.100
277.500	-26.102	0.100
277.600	-27.336	0.100
277.700	-40.911	0.100
277.800	-24.610	0.100
277.900	-31.411	0.100
278.000	-29.075	0.100
278.100	-21.763	0.100
278.200	-22.614	0.100
278.300	-30.755	0.100
278.400	-39.107	0.100
278.500	-29.117	0.100
278.600	-38.672	0.100
278.700	-34.765	0.100
278.800	-34.681	0.100
278.900	-32.028	0.100
279.000	-32.409	0.100
279.100	-31.074	0.100
279.200	-26.335	0.100
279.300	-26.284	0.100
279.400	-20.246	0.100
279.500	-37.255	0.100
279.600	-25.413	0.100
279.700	-21.048	0.100
279.800	-35.810	0.100
279.900	-40.340	0.100
280.000	-24.311	0.100
280.100	-22.288	0.100
280.200	-35.872	0.100
280.300	-22.492	0.100
280.400	-19.770	0.100
280.500	-29.423	0.100
280.600	-31.320	0.100
280.700	-27.102	0.100
280.800	-27.903	0.100
280.900	-24.532	0.100
281.000	-28.631	0.100
281.100	-38.832	0.100
281.200	-28.748	0.100
281.300	-28.262	0.100
281.400	-28.743	0.100
281.500	-24.704	0.100
281.600	-22.604	0.100
281.700	-27.342	0.100
281.800	-31.453	0.100
281.900	-25.380	0.100
282.000	-39.626	0.100
282.100	-21.887	0.100
282.200	-25.770	0.100
282.300	-22.730	0.100
282.400	-26.380	0.100
282.500	-25.291	0.100
282.600	-27.494	0.100
282.700	-32.082	0.100
282.800	-23.242	0.100
282.900	-29.948	0.100
283.000	-32.315	0.100
283.100	-25.313	0.100
283.200	-31.898	0.100
283.300	-28.004	0.100
283.400	-31.057	0.100
283.500	-25.717	0.100
283.600	-18.088	0.100
283.700	-27.972	0.100
283.800	-22.738	0.100
283.900	-36.188	0.100
284.000	-28.977	0.100
284.100	-27.892	0.100
284.200	-22.013	0.100
284.300	-32.801	0.100
284.400	-36.193	0.100
284.500	-35.264	0.100
284.600	-34.197	0.100
284.700	-27.805	0.100
284.800	-25.411	0.100
284.900	-30.550	0.100
285.000	-24.663	0.100
285.100	-35.187	0.100
285.200	-40.428	0.100
285.300	-35.736	0.100
285.400	-31.006	0.100
285.500	-19.668	0.100
285.600	-29.200	0.100
285.700	-33.974	0.100
285.800	-39.414	0.100
285.900	-32.131	0.100
286.000	-29.424	0.100
286.100	-33.375	0.100
286.200	-13.147	0.100
286.300	-40.431	0.100
286.400	-17.654	0.100
286.500	-24.235	0.100
286.600	-28.275	0.100
286.700	-38.844	0.100
286.800	-26.307	0.100
286.900	-32.128	0.100
287.000	-29.286	0.100
287.100	-19.218	0.100
287.200	-32.830	0.100
287.300	-34.112	0.100
287.400	-23.632	0.100
287.500	-25.302	0.100
287.600	-33.535	0.100
287.700	-30.640	0.100
287.800	-18.054	0.100
287.900	-32.100	0.100
288.000	-28.709	0.100
288.100	-37.123	0.100
288.200	-26.556	0.100
288.300	-25.254	0.100
288.400	-37.298	0.100
288.500	-16.746	0.100
288.600	-31.042	0.100
288.700	-24.352	0.100
288.800	-35.054	0.100
288.900	-23.951	0.100
289.000	-30.358	0.100
289.100	-33.573	0.100
289.200	-26.240	0.100
289.300	-31.321	0.100
289.400	-19.986	0.100
289.500	-30.441	0.100
289.600	-27.414	0.100
289.700	-36.151	0.100
289.800	-34.811	0.100
289.900	-24.942	0.100
290.000	-28.286	0.100
290.100	-16.293	0.100
290.200	-27.971	0.100
290.300	-29.195	0.100
290.400	-25.462	0.100
290.500	-32.494	0.100
290.600	-13.273	0.100
290.700	-25.074	0.100
290.800	-28.959	0.100
290.900	-32.879	0.100
291.000	-24.931	0.100
291.100	-23.883	0.100
291.200	-34.485	0.100
291.300	-20.416	0.100
291.400	-14.926	0.100
291.500	-22.068	0.100
291.600	-28.091	0.100
291.700	-34.014	0.100
291.800	-40.402	0.100
291.900	-23.306	0.100
292.000	-35.342	0.100
292.100	-31.724	0.100
292.200	-28.918	0.100
292.300	-22.567	0.100
292.400	-14.395	0.100
292.500	-25.113	0.100
292.600	-24.959	0.100
292.700	-31.581	0.100
292.800	-29.051	0.100
292.900	-24.658	0.100
293.000	-23.069	0.100
293.100	-18.773	0.100
293.200	-29.917	0.100
293.300	-25.374	0.100
293.400	-30.382	0.100
293.500	-29.137	0.100
293.600	-20.100	0.100
293.700	-20.550	0.100
293.800	-21.117	0.100
293.900	-31.853	0.100
294.000	-16.650	0.100
294.100	-32.847	0.100
294.200	-19.004	0.100
294.300	-23.239	0.100
294.400	-26.498	0.100
294.500	-24.364	0.100
294.600	-43.643	0.100
294.700	-35.908	0.100
294.800	-16.557	0.100
294.900	-12.182	0.100
295.000	-22.563	0.100
295.100	-21.225	0.100
295.200	-32.415	0.100
295.300	-31.896	0.100
295.400	-30.446	0.100
295.500	-24.486	0.100
295.600	-20.568	0.100
295.700	-11.890	0.100
295.800	-21.556	0.100
295.900	-29.148	0.100
296.000	-32.971	0.100
296.100	-24.783	0.100
296.200	-21.818	0.100
296.300	-27.389	0.100
296.400	-26.399	0.100
296.500	-16.649	0.100
296.600	-29.714	0.100
296.700	-31.977	0.100
296.800	-29.557	0.100
296.900	-21.575	0.100
297.000	-24.739	0.100
297.100	-25.936	0.100
297.200	-26.525	0.100
297.300	-19.076	0.100
297.400	-28.920	0.100
297.500	-34.053	0.100
297.600	-16.606	0.100
297.700	-28.721	0.100
297.800	-29.586	0.100
297.900	-34.738	0.100
298.000	-23.294	0.100
298.100	-29.646	0.100
298.200	-20.150	0.100
298.300	-12.331	0.100
298.400	-25.930	0.100
298.500	-34.791	0.100
298.600	-26.214	0.100
298.700	-16.048	0.100
298.800	-24.698	0.100
298.900	-21.165	0.100
299.000	-21.604	0.100
299.100	-21.604	0.100
299.200	-35.133	0.100
299.300	-24.665	0.100
299.400	-34.155	0.100
299.500	-21.223	0.100
299.600	-22.692	0.100
299.700	-30.607	0.100
299.800	-21.755	0.100
299.900	-12.496	0.100
300.000	-17.004	0.100
300.100	-15.651	0.100
300.200	-28.455	0.100
300.300	-30.358	0.100
300.400	-40.084	0.100
300.500	-33.076	0.100
300.600	-22.556	0.100
300.700	-20.481	0.100
300.800	-14.524	0.100
300.900	-27.959	0.100
301.000	-25.829	0.100
301.100	-19.189	0.100
301.200	-21.147	0.100
301.300	-24.125	0.100
301.400	-28.085	0.100
301.500	-18.008	0.100
301.600	-21.558	0.100
301.700	-24.301	0.100
301.800	-30.263	0.100
301.900	-21.763	0.100
302.000	-22.715	0.100
302.100	-22.833	0.100
302.200	-20.655	0.100
302.300	-17.241	0.100
302.400	-14.836	0.100
302.500	-23.455	0.100
302.600	-18.457	0.100
302.700	-15.668	0.100
302.800	-27.365	0.100
302.900	-22.649	0.100
303.000	-28.009	0.100
303.100	-20.836	0.100
303.200	-31.057	0.100
303.300	-18.472	0.100
303.400	-16.535	0.100
303.500	-27.098	0.100
303.600	-17.182	0.100
303.700	-34.839	0.100
303.800	-18.149	0.100
303.900	-26.565	0.100
304.000	-23.422	0.100
304.100	-24.727	0.100
304.200	-21.513	0.100
304.300	-25.386	0.100
304.400	-24.832	0.100
304.500	-17.545	0.100
304.600	-12.876	0.100
304.700	-16.269	0.100
304.800	-33.125	0.100
304.900	-27.034	0.100
305.000	-27.618	0.100
305.100	-13.847	0.100
305.200	-32.537	0.100
305.300	-25.284	0.100
305.400	-17.658	0.100
305.500	-23.562	0.100
305.600	-17.750	0.100
305.700	-23.838	0.100
305.800	-11.295	0.100
305.900	-30.314	0.100
306.000	-23.183	0.100
306.100	-22.156	0.100
306.200	-17.233	0.100
306.300	-19.269	0.100
306.400	-13.777	0.100
306.500	-25.670	0.100
306.600	-31.062	0.100
306.700	-21.151	0.100
306.800	-22.643	0.100
306.900	-15.803	0.100
307.000	-24.613	0.100
307.100	-25.531	0.100
307.200	-21.935	0.100
307.300	-18.664	0.100
307.400	-27.396	0.100
307.500	-18.193	0.100
307.600	-21.904	0.100
307.700	-27.159	0.100
307.800	-18.444	0.100
307.900	-19.294	0.100
308.000	-16.226	0.100
308.100	-21.491	0.100
308.200	-16.378	0.100
308.300	-18.496	0.100
308.400	-25.768	0.100
308.500	-25.947	0.100
308.600	-22.629	0.100
308.700	-19.562	0.100
308.800	-19.026	0.100
308.900	-16.037	0.100
309.000	-23.335	0.100
309.100	-16.425	0.100
309.200	-25.552	0.100
309.300	-17.980	0.100
309.400	-20.161	0.100
309.500	-32.405	0.100
309.600	-16.240	0.100
309.700	-30.101	0.100
309.800	-20.173	0.100
309.900	-17.465	0.100
310.000	-21.119	0.100
310.100	-19.535	0.100
310.200	-23.577	0.100
310.300	-19.471	0.100
310.400	-22.396	0.100
310.500	-30.479	0.100
310.600	-21.296	0.100
310.700	-19.382	0.100
310.800	-20.367	0.100
310.900	-22.646	0.100
311.000	-21.975	0.100
311.100	-12.365	0.100
311.200	-11.838	0.100
311.300	-29.098	0.100
311.400	-19.790	0.100
311.500	-23.989	0.100
311.600	-27.364	0.100
311.700	-21.745	0.100
311.800	-16.462	0.100
311.900	-22.101	0.100
312.000	-20.551	0.100
312.100	-14.998	0.100
312.200	-17.856	0.100
312.300	-16.922	0.100
312.400	-32.269	0.100
312.500	-16.767	0.100
312.600	-24.278	0.100
312.700	-27.881	0.100
312.800	-20.639	0.100
312.900	2.057	0.100
313.000	-16.193	0.100
313.100	-19.734	0.100
313.200	-27.950	0.100
313.300	-26.410	0.100
313.400	-26.769	0.100
313.500	-27.560	0.100
313.600	-2.666	0.100
313.700	-17.885	0.100
313.800	-18.301	0.100
313.900	-17.396	0.100
314.000	-22.149	0.100
314.100	-14.005	0.100
314.200	-28.707	0.100
314.300	-17.607	0.100
314.400	-19.195	0.100
314.500	-17.156	0.100
314.600	-14.093	0.100
314.700	-14.950	0.100
314.800	-14.911	0.100
314.900	-13.686	0.100
315.000	-17.769	0.100
315.100	-20.549	0.100
315.200	-32.948	0.100
315.300	-24.695	0.100
315.400	-20.931	0.100
315.500	-33.491	0.100
315.600	-26.619	0.100
315.700	-28.063	0.100
315.800	-21.890	0.100
315.900	-21.987	0.100
316.000	-19.039	0.100
316.100	-23.185	0.100
316.200	-27.717	0.100
316.300	-14.011	0.100
316.400	-14.372	0.100
316.500	-14.943	0.100
316.600	-24.093	0.100
316.700	-24.375	0.100
316.800	-15.356	0.100
316.900	-18.998	0.100
317.000	-24.880	0.100
317.100	-14.963	0.100
317.200	-19.015	0.100
317.300	-24.457	0.100
317.400	-15.161	0.100
317.500	3.972	0.100
317.600	-22.818	0.100
317.700	-29.229	0.100
317.800	-26.618	0.100
317.900	-18.318	0.100
318.000	-24.058	0.100
318.100	-15.165	0.100
318.200	-21.001	0.100
318.300	-15.185	0.100
318.400	-19.874	0.100
318.500	-19.509	0.100
318.600	-18.394	0.100
318.700	-14.280	0.100
318.800	-24.959	0.100
318.900	-12.825	0.100
319.000	-23.891	0.100
319.100	-21.001	0.100
319.200	-22.883	0.100
319.300	-17.011	0.100
319.400	-21.467	0.100
319.500	-21.475	0.100
319.600	-16.280	0.100
319.700	-19.262	0.100
319.800	-7.960	0.100
319.900	-18.415	0.100
320.000	-25.272	0.100
320.100	-17.880	0.100
320.200	-14.898	0.100
320.300	-21.575	0.100
320.400	-14.395	0.100
320.500	-26.564	0.100
320.600	-21.189	0.100
320.700	-13.741	0.100
320.800	-18.275	0.100
320.900	-16.834	0.100
321.000	-15.550	0.100
321.100	-16.066	0.100
321.200	-28.538	0.100
321.300	-16.017	0.100
321.400	-16.773	0.100
321.500	-13.493	0.100
321.600	-24.443	0.100
321.700	-19.897	0.100
321.800	-12.826	0.100
321.900	-11.315	0.100
322.000	-18.381	0.100
322.100	-22.398	0.100
322.200	-20.028	0.100
322.300	-17.372	0.100
322.400	-24.451	0.100
322.500	-15.696	0.100
322.600	-9.525	0.100
322.700	-16.441	0.100
322.800	-22.242	0.100
322.900	-11.623	0.100
323.000	-22.145	0.100
323.100	-24.878	0.100
323.200	-27.853	0.100
323.300	-29.306	0.100
323.400	-24.974	0.100
323.500	-4.653	0.100
323.600	-11.656	0.100
323.700	-12.677	0.100
323.800	-27.264	0.100
323.900	-24.694	0.100
324.000	-21.877	0.100
324.100	-24.149	0.100
324.200	-19.480	0.100
324.300	-16.010	0.100
324.400	-14.861	0.100
324.500	-8.397	0.100
324.600	-11.745	0.100
324.700	-16.276	0.100
324.800	-25.643	0.100
324.900	-23.828	0.100
325.000	-18.370	0.100
325.100	-26.485	0.100
325.200	-19.309	0.100
325.300	-4.380	0.100
325.400	-18.773	0.100
325.500	-18.973	0.100
325.600	-30.487	0.100
325.700	-18.612	0.100
325.800	-11.133	0.100
325.900	-14.575	0.100
326.000	-10.444	0.100
326.100	-12.434	0.100
326.200	-23.401	0.100
326.300	-32.746	0.100
326.400	-22.585	0.100
326.500	-15.400	0.100
326.600	-12.302	0.100
326.700	-15.055	0.100
326.800	-6.472	0.100
326.900	-15.640	0.100
327.000	-26.470	0.100
327.100	-24.105	0.100
327.200	-15.524	0.100
327.300	-22.141	0.100
327.400	-3.548	0.100
327.500	-21.124	0.100
327.600	-17.131	0.100
327.700	-24.070	0.100
327.800	-9.207	0.100
327.900	-20.463	0.100
328.000	-19.347	0.100
328.100	-19.821	0.100
328.200	-22.103	0.100
328.300	-19.761	0.100
328.400	-19.044	0.100
328.500	-19.090	0.100
328.600	-25.274	0.100
328.700	-13.641	0.100
328.800	-13.136	0.100
328.900	-17.633	0.100
329.000	-18.360	0.100
329.100	-33.988	0.100
329.200	-14.040	0.100
329.300	-14.652	0.100
329.400	-15.032	0.100
329.500	-17.250	0.100
329.600	-14.091	0.100
329.700	-16.968	0.100
329.800	-15.867	0.100
329.900	-9.826	0.100
330.000	-20.845	0.100
330.100	-22.664	0.100
330.200	-22.064	0.100
330.300	-14.928	0.100
330.400	-8.224	0.100
330.500	-9.985	0.100
330.600	-2.228	0.100
330.700	-7.229	0.100
330.800	-6.623	0.100
330.900	3.117	0.100
331.000	-3.565	0.100
331.100	4.072	0.100
331.200	8.202	0.100
331.300	-4.028	0.100
331.400	4.672	0.100
331.500	5.714	0.100
331.600	13.750	0.100
331.700	18.749	0.100
331.800	21.664	0.100
331.900	13.814	0.100
332.000	22.608	0.100
332.100	23.066	0.100
332.200	18.077	0.100
332.300	9.413	0.100
332.400	22.156	0.100
332.500	28.924	0.100
332.600	20.763	0.100
332.700	24.808	0.100
332.800	34.539	0.100
332.900	35.722	0.100
333.000	34.065	0.100
333.100	19.585	0.100
333.200	34.639	0.100
333.300	13.895	0.100
333.400	25.955	0.100
333.500	22.702	0.100
333.600	23.083	0.100
333.700	25.045	0.100
333.800	34.742	0.100
333.900	11.434	0.100
334.000	25.194	0.100
334.100	20.030	0.100
334.200	13.707	0.100
334.300	30.723	0.100
334.400	18.965	0.100
334.500	21.044	0.100
334.600	31.170	0.100
334.700	11.542	0.100
334.800	20.490	0.100
334.900	24.888	0.100
335.000	27.038	0.100
335.100	22.589	0.100
335.200	32.726	0.100
335.300	22.783	0.100
335.400	14.563	0.100
335.500	23.036	0.100
335.600	24.454	0.100
335.700	21.699	0.100
335.800	17.186	0.100
335.900	10.237	0.100
336.000	19.683	0.100
336.100	10.481	0.100
336.200	17.292	0.100
336.300	28.244	0.100
336.400	24.485	0.100
336.500	25.778	0.100
336.600	20.880	0.100
336.700	26.113	0.100
336.800	14.668	0.100
336.900	13.505	0.100
337.000	2.293	0.100
337.100	15.863	0.100
337.200	21.411	0.100
337.300	17.424	0.100
337.400	29.454	0.100
337.500	16.964	0.100
337.600	22.536	0.100
337.700	19.489	0.100
337.800	7.293	0.100
337.900	17.983	0.100
338.000	14.423	0.100
338.100	20.718	0.100
338.200	14.187	0.100
338.300	24.564	0.100
338.400	11.845	0.100
338.500	19.399	0.100
338.600	12.917	0.100
338.700	19.841	0.100
338.800	17.200	0.100
338.900	8.097	0.100
339.000	16.667	0.100
339.100	26.375	0.100
339.200	29.530	0.100
339.300	26.156	0.100
339.400	13.802	0.100
339.500	28.012	0.100
339.600	17.272	0.100
339.700	19.378	0.100
339.800	15.526	0.100
339.900	28.085	0.100
340.000	4.686	0.100
340.100	22.782	0.100
340.200	17.505	0.100
340.300	7.099	0.100
340.400	17.588	0.100
340.500	19.696	0.100
340.600	15.186	0.100
340.700	24.852	0.100
340.800	12.577	0.100
340.900	28.266	0.100
341.000	23.944	0.100
341.100	20.832	0.100
341.200	16.822	0.100
341.300	21.948	0.100
341.400	22.815	0.100
341.500	17.834	0.100
341.600	19.471	0.100
341.700	22.465	0.100
341.800	16.212	0.100
341.900	15.496	0.100
342.000	11.401	0.100
342.100	20.797	0.100
342.200	24.799	0.100
342.300	21.253	0.100
342.400	9.262	0.100
342.500	2.263	0.100
342.600	10.903	0.100
342.700	26.303	0.100
342.800	20.657	0.100
342.900	28.710	0.100
343.000	21.356	0.100
343.100	16.747	0.100
343.200	25.071	0.100
343.300	12.089	0.100
343.400	12.842	0.100
343.500	27.094	0.100
343.600	12.498	0.100
343.700	14.923	0.100
343.800	24.658	0.100
343.900	8.986	0.100
344.000	13.677	0.100
344.100	24.321	0.100
344.200	36.579	0.100
344.300	25.987	0.100
344.400	12.733	0.100
344.500	21.036	0.100
344.600	13.854	0.100
344.700	28.865	0.100
344.800	22.175	0.100
344.900	16.529	0.100
345.000	6.889	0.100
345.100	16.731	0.100
345.200	29.597	0.100
345.300	21.245	0.100
345.400	24.485	0.100
345.500	15.390	0.100
345.600	13.060	0.100
345.700	26.356	0.100
345.800	21.878	0.100
345.900	16.937	0.100
346.000	28.286	0.100
346.100	21.925	0.100
346.200	28.277	0.100
346.300	18.009	0.100
346.400	36.777	0.100
346.500	23.878	0.100
346.600	24.125	0.100
346.700	14.247	0.100
346.800	29.081	0.100
346.900	26.651	0.100
347.000	21.147	0.100
347.100	21.946	0.100
347.200	33.459	0.100
347.300	25.040	0.100
347.400	22.277	0.100
347.500	24.951	0.100
347.600	17.532	0.100
347.700	30.170	0.101
347.800	24.942	0.101
347.900	29.780	0.101
348.000	21.841	0.101
348.100	19.108	0.101
348.200	23.233	0.101
348.300	24.941	0.101
348.400	17.596	0.101
348.500	25.914	0.101
348.600	31.454	0.101
348.700	12.846	0.101
348.800	29.202	0.101
348.900	26.255	0.101
349.000	32.622	0.101
349.100	19.463	0.101
349.200	29.297	0.101
349.300	24.158	0.101
349.400	23.244	0.101
349.500	27.117	0.101
349.600	20.613	0.101
349.700	36.242	0.101
349.800	23.047	0.101
349.900	24.088	0.101
350.000	24.030	0.101
350.100	33.043	0.101
350.200	30.788	0.101
350.300	34.084	0.101
350.400	31.272	0.101
350.500	29.374	0.101
350.600	26.564	0.101
350.700	28.187	0.101
350.800	26.723	0.101
350.900	25.156	0.101
351.000	30.574	0.101
351.100	34.910	0.101
351.200	20.517	0.101
351.300	23.046	0.101
351.400	27.863	0.101
351.500	30.636	0.101
351.600	29.719	0.101
351.700	32.825	0.101
351.800	20.789	0.101
351.900	36.959	0.101
352.000	33.388	0.101
352.100	39.211	0.101
352.200	29.549	0.101
352.300	28.926	0.101
352.400	30.261	0.101
352.500	31.435	0.101
352.600	30.386	0.101
352.700	27.763	0.101
352.800	46.852	0.101
352.900	28.654	0.101
353.000	41.113	0.101
353.100	43.622	0.101
353.200	24.522	0.101
353.300	34.377	0.101
353.400	39.214	0.101
353.500	33.555	0.101
353.600	46.039	0.101
353.700	36.445	0.101
353.800	29.808	0.101
353.900	32.734	0.101
354.000	37.910	0.101
354.100	37.162	0.101
354.200	25.331	0.101
354.300	42.797	0.101
354.400	27.314	0.101
354.500	27.240	0.101
354.600	38.026	0.101
354.700	32.685	0.101
354.800	31.460	0.101
354.900	41.636	0.101
355.000	31.119	0.101
355.100	34.361	0.101
355.200	49.741	0.101
355.300	38.832	0.101
355.400	47.563	0.101
355.500	32.043	0.101
355.600	37.454	0.101
355.700	29.764	0.101
355.800	32.808	0.101
355.900	42.390	0.101
356.000	42.378	0.101
356.100	30.538	0.101
356.200	30.385	0.101
356.300	32.751	0.101
356.400	35.115	0.101
356.500	32.533	0.101
356.600	40.186	0.101
356.700	44.680	0.101
356.800	37.591	0.101
356.900	27.854	0.101
357.000	43.544	0.101
357.100	40.396	0.101
357.200	34.113	0.101
357.300	42.899	0.101
357.400	39.894	0.101
357.500	30.801	0.101
357.600	44.272	0.101
357.700	40.062	0.101
357.800	32.583	0.101
357.900	30.992	0.101
358.000	41.689	0.101
358.100	33.034	0.101
358.200	40.111	0.101
358.300	38.015	0.101
358.400	45.877	0.101
358.500	37.700	0.101
358.600	46.251	0.101
358.700	38.344	0.101
358.800	50.380	0.101
358.900	44.795	0.101
359.000	31.684	0.101
359.100	36.191	0.101
359.200	47.035	0.101
359.300	38.457	0.101
359.400	37.626	0.101
359.500	45.798	0.101
359.600	33.697	0.101
359.700	38.071	0.101
359.800	45.103	0.101
359.900	42.879	0.101
360.000	45.827	0.101
360.100	36.717	0.101
360.200	39.161	0.101
360.300	37.614	0.101
360.400	24.108	0.101
360.500	54.788	0.101
360.600	38.913	0.101
360.700	43.848	0.101
360.800	33.059	0.101
360.900	45.848	0.101
361.000	37.631	0.101
361.100	41.944	0.101
361.200	52.756	0.101
361.300	36.185	0.101
361.400	44.389	0.101
361.500	48.023	0.101
361.600	52.416	0.101
361.700	43.397	0.101
361.800	33.012	0.101
361.900	39.671	0.101
362.000	47.663	0.101
362.100	36.081	0.101
362.200	41.072	0.101
362.300	31.696	0.101
362.400	37.284	0.101
362.500	47.047	0.101
362.600	53.080	0.101
362.700	37.938	0.101
362.800	39.224	0.101
362.900	57.133	0.101
363.000	51.870	0.101
363.100	39.158	0.101
363.200	41.239	0.101
363.300	30.452	0.101
363.400	41.060	0.101
363.500	50.369	0.101
363.600	37.459	0.101
363.700	42.746	0.101
363.800	29.777	0.101
363.900	53.127	0.101
364.000	40.313	0.101
364.100	34.302	0.101
364.200	31.580	0.101
364.300	46.949	0.101
364.400	43.976	0.101
364.500	35.947	0.101
364.600	40.020	0.101
364.700	38.736	0.101
364.800	48.110	0.100
364.900	41.397	0.100
365.000	40.863	0.100
365.100	31.678	0.101
365.200	35.542	0.100
365.300	42.585	0.100
365.400	53.226	0.100
365.500	44.680	0.100
365.600	45.854	0.101
365.700	33.487	0.100
365.800	30.607	0.100
365.900	43.475	0.100
366.000	52.165	0.100
366.100	42.277	0.100
366.200	35.288	0.100
366.300	46.845	0.100
366.400	46.655	0.100
366.500	38.488	0.100
366.600	34.946	0.100
366.700	38.570	0.100
366.800	37.411	0.100
366.900	42.979	0.100
367.000	44.348	0.100
367.100	39.764	0.100
367.200	39.066	0.100
367.300	32.720	0.100
367.400	39.525	0.100
367.500	42.950	0.100
367.600	36.836	0.100
367.700	38.120	0.100
367.800	33.546	0.100
367.900	35.952	0.100
368.000	47.599	0.100
368.100	48.315	0.100
368.200	39.875	0.100
368.300	29.424	0.100
368.400	52.982	0.100
368.500	26.535	0.100
368.600	41.533	0.100
368.700	33.569	0.100
368.800	40.496	0.100
368.900	45.199	0.100
369.000	45.880	0.100
369.100	44.676	0.100
369.200	43.338	0.100
369.300	44.780	0.100
369.400	47.159	0.100
369.500	34.748	0.100
369.600	40.517	0.100
369.700	51.885	0.100
369.800	37.798	0.100
369.900	34.135	0.100
370.000	41.485	0.100
370.100	47.482	0.100
370.200	44.129	0.100
370.300	42.128	0.100
370.400	40.870	0.100
370.500	40.661	0.100
370.600	36.757	0.100
370.700	42.860	0.100
370.800	36.001	0.100
370.900	38.483	0.100
371.000	45.522	0.100
371.100	33.289	0.100
371.200	44.366	0.100
371.300	38.128	0.100
371.400	48.249	0.100
371.500	26.233	0.100
371.600	30.267	0.100
371.700	46.597	0.100
371.800	40.167	0.100
371.900	23.656	0.100
372.000	42.745	0.100
372.100	44.777	0.100
372.200	47.269	0.100
372.300	43.886	0.100
372.400	44.809	0.100
372.500	30.846	0.100
372.600	42.974	0.100
372.700	35.816	0.100
372.800	29.806	0.100
372.900	41.248	0.100
373.000	45.389	0.100
373.100	35.773	0.100
373.200	26.869	0.100
373.300	34.208	0.100
373.400	44.155	0.100
373.500	36.618	0.100
373.600	35.819	0.100
373.700	45.627	0.100
373.800	41.482	0.100
373.900	36.604	0.100
374.000	44.368	0.100
374.100	35.863	0.100
374.200	39.854	0.100
374.300	43.926	0.100
374.400	39.597	0.100
374.500	39.134	0.100
374.600	42.235	0.100
374.700	45.137	0.100
374.800	36.833	0.100
374.900	39.496	0.100
375.000	50.113	0.100
375.100	43.475	0.100
375.200	45.878	0.100
375.300	48.194	0.100
375.400	34.369	0.100
375.500	38.873	0.100
375.600	40.763	0.100
375.700	32.530	0.100
375.800	39.930	0.100
375.900	39.826	0.100
376.000	33.066	0.100
376.100	36.151	0.100
376.200	43.935	0.100
376.300	47.194	0.100
376.400	46.622	0.100
376.500	34.793	0.100
376.600	45.801	0.100
376.700	40.845	0.100
376.800	41.499	0.100
376.900	35.640	0.100
377.000	38.265	0.100
377.100	29.766	0.100
377.200	27.796	0.100
377.300	41.134	0.100
377.400	32.977	0.100
377.500	38.092	0.100
377.600	44.619	0.100
377.700	42.014	0.100
377.800	44.038	0.100
377.900	42.314	0.100
378.000	45.423	0.100
378.100	42.443	0.100
378.200	29.091	0.100
378.300	34.408	0.100
378.400	39.857	0.100
378.500	37.125	0.100
378.600	43.383	0.100
378.700	30.624	0.100
378.800	37.281	0.100
378.900	24.765	0.100
379.000	41.922	0.100
379.100	30.105	0.100
379.200	35.501	0.100
379.300	42.139	0.100
379.400	33.235	0.100
379.500	42.104	0.100
379.600	41.244	0.100
379.700	31.766	0.100
379.800	36.273	0.100
379.900	35.132	0.100
380.000	48.465	0.100
380.100	51.130	0.100
380.200	37.170	0.100
380.300	35.001	0.100
380.400	33.660	0.100
380.500	42.110	0.100
380.600	42.336	0.100
380.700	44.999	0.100
380.800	39.352	0.100
380.900	28.155	0.100
381.000	29.614	0.100
381.100	45.850	0.100
381.200	48.843	0.100
381.300	40.304	0.100
381.400	44.028	0.100
381.500	23.519	0.100
381.600	32.174	0.100
381.700	40.901	0.100
381.800	31.137	0.100
381.900	38.067	0.100
382.000	36.918	0.100
382.100	44.971	0.100
382.200	35.134	0.100
382.300	34.679	0.100
382.400	30.419	0.100
382.500	32.772	0.100
382.600	38.269	0.100
382.700	32.197	0.100
382.800	30.731	0.100
382.900	35.470	0.100
383.000	44.783	0.100
383.100	43.175	0.100
383.200	48.338	0.100
383.300	46.657	0.100
383.400	45.089	0.100
383.500	36.829	0.100
383.600	26.613	0.100
383.700	38.680	0.100
383.800	31.588	0.100
383.900	41.273	0.100
384.000	42.696	0.100
384.100	29.337	0.100
384.200	38.089	0.100
384.300	39.181	0.100
384.400	42.544	0.100
384.500	41.465	0.100
384.600	38.155	0.100
384.700	35.438	0.100
384.800	33.024	0.100
384.900	32.217	0.100
385.000	40.468	0.100
385.100	41.048	0.100
385.200	37.450	0.100
385.300	40.224	0.100
385.400	32.570	0.100
385.500	27.123	0.100
385.600	44.955	0.100
385.700	42.527	0.100
385.800	36.585	0.100
385.900	24.822	0.100
386.000	34.305	0.100
386.100	41.438	0.100
386.200	32.891	0.100
386.300	46.468	0.100
386.400	33.379	0.100
386.500	41.502	0.100
386.600	32.209	0.100
386.700	34.796	0.100
386.800	46.115	0.100
386.900	30.389	0.100
387.000	31.710	0.100
387.100	38.823	0.100
387.200	36.081	0.100
387.300	37.664	0.100
387.400	31.975	0.100
387.500	36.717	0.100
387.600	51.308	0.100
387.700	26.843	0.100
387.800	37.621	0.100
387.900	37.417	0.100
388.000	25.474	0.100
388.100	30.965	0.100
388.200	28.755	0.100
388.300	32.510	0.100
388.400	33.473	0.100
388.500	34.279	0.100
388.600	39.165	0.100
388.700	41.238	0.100
388.800	38.375	0.100
388.900	41.224	0.100
389.000	36.395	0.100
389.100	34.971	0.100
389.200	40.391	0.100
389.300	42.225	0.100
389.400	38.406	0.100
389.500	34.032	0.100
389.600	36.258	0.100
389.700	27.087	0.100
389.800	28.024	0.100
389.900	32.266	0.100
390.000	40.627	0.100
390.100	33.953	0.100
390.200	26.915	0.100
390.300	36.737	0.100
390.400	34.752	0.100
390.500	29.398	0.100
390.600	24.885	0.100
390.700	20.241	0.100
390.800	23.585	0.100
390.900	21.378	0.100
391.000	24.347	0.100
391.100	15.323	0.100
391.200	23.180	0.100
391.300	20.676	0.100
391.400	11.447	0.100
391.500	19.829	0.100
391.600	17.494	0.100
391.700	23.511	0.100
391.800	16.932	0.100
391.900	5.652	0.100
392.000	4.521	0.100
392.100	6.388	0.100
392.200	3.601	0.100
392.300	12.547	0.100
392.400	9.266	0.100
392.500	2.434	0.100
392.600	7.653	0.100
392.700	17.084	0.100
392.800	0.442	0.100
392.900	1.275	0.100
393.000	20.726	0.100
393.100	13.316	0.100
393.200	9.808	0.100
393.300	-3.148	0.100
393.400	1.168	0.100
393.500	-1.100	0.100
393.600	6.816	0.100
393.700	1.377	0.100
393.800	-4.524	0.100
393.900	5.340	0.100
394.000	4.550	0.100
394.100	-4.998	0.100
394.200	4.724	0.100
394.300	13.803	0.100
394.400	-2.451	0.100
394.500	12.830	0.100
394.600	6.609	0.100
394.700	3.256	0.100
394.800	4.745	0.100
394.900	-4.576	0.100
395.000	3.262	0.100
395.100	9.912	0.100
395.200	-7.264	0.100
395.300	2.998	0.100
395.400	5.325	0.100
395.500	4.850	0.100
395.600	5.638	0.100
395.700	1.006	0.100
395.800	9.512	0.100
395.900	0.840	0.100
396.000	0.944	0.100
396.100	5.781	0.100
396.200	4.919	0.100
396.300	-5.769	0.100
396.400	6.487	0.100
396.500	-1.400	0.100
396.600	9.279	0.100
396.700	-3.911	0.100
396.800	0.741	0.100
396.900	0.557	0.100
397.000	3.087	0.100
397.100	1.279	0.100
397.200	9.654	0.100
397.300	-4.526	0.100
397.400	-7.817	0.100
397.500	-9.671	0.100
397.600	6.214	0.100
397.700	1.743	0.100
397.800	-2.370	0.100
397.900	0.192	0.100
398.000	-5.264	0.100
398.100	7.638	0.100
398.200	6.544	0.100
398.300	-7.658	0.100
398.400	-8.957	0.100
398.500	4.627	0.100
398.600	13.539	0.100
398.700	0.224	0.100
398.800	3.508	0.100
398.900	-4.247	0.100
399.000	1.360	0.100
399.100	7.727	0.100
399.200	-12.089	0.100
399.300	-1.558	0.100
399.400	-15.964	0.100
399.500	-1.811	0.100
399.600	-5.149	0.100
399.700	5.064	0.100
399.800	-5.822	0.100
399.900	5.451	0.100
400.000	0.601	0.100
400.100	6.875	0.100
400.200	-5.794	0.100
400.300	-8.747	0.100
400.400	10.858	0.100
400.500	-6.459	0.100
400.600	-6.412	0.100
400.700	-4.002	0.100
400.800	0.384	0.100
400.900	0.478	0.100
401.000	-14.437	0.100
401.100	-4.416	0.100
401.200	0.724	0.100
401.300	5.260	0.100
401.400	-1.750	0.100
401.500	-6.962	0.100
401.600	-10.055	0.100
401.700	-13.929	0.100
401.800	-6.331	0.100
401.900	-14.955	0.100
402.000	-11.124	0.100
402.100	0.299	0.100
402.200	-1.452	0.100
402.300	5.227	0.100
402.400	3.869	0.100
402.500	-11.331	0.100
402.600	-10.522	0.100
402.700	-3.384	0.100
402.800	-1.145	0.100
402.900	-7.417	0.100
403.000	-13.009	0.100
403.100	-8.859	0.100
403.200	-7.573	0.100
403.300	-0.271	0.100
403.400	10.199	0.100
403.500	-14.648	0.100
403.600	-6.010	0.100
403.700	-11.091	0.100
403.800	-6.599	0.100
403.900	-1.594	0.100
404.000	0.399	0.100
404.100	-3.991	0.100
404.200	-11.056	0.100
404.300	-10.147	0.100
404.400	-9.414	0.100
404.500	-21.858	0.100
404.600	-9.160	0.100
404.700	-3.060	0.100
404.800	-14.289	0.100
404.900	-8.912	0.100
405.000	-5.115	0.100
405.100	-3.868	0.100
405.200	-6.119	0.100
405.300	-8.990	0.100
405.400	-5.158	0.100
405.500	-16.579	0.100
405.600	-5.934	0.100
405.700	-12.740	0.100
405.800	-9.453	0.100
405.900	-0.570	0.100
406.000	-8.249	0.100
406.100	-7.264	0.100
406.200	-20.730	0.100
406.300	-5.142	0.100
406.400	-10.019	0.100
406.500	-9.072	0.100
406.600	-17.613	0.100
406.700	-15.260	0.100
406.800	-23.618	0.100
406.900	-6.901	0.100
407.000	-8.751	0.100
407.100	-8.231	0.100
407.200	-10.164	0.100
407.300	-14.511	0.100
407.400	-7.125	0.100
407.500	-13.408	0.100
407.600	-8.326	0.100
407.700	-7.615	0.100
407.800	-8.070	0.100
407.900	-18.208	0.100
408.000	-7.770	0.100
408.100	-3.220	0.100
408.200	-10.983	0.100
408.300	-9.814	0.100
408.400	-22.702	0.100
408.500	-28.105	0.100
408.600	-10.296	0.100
408.700	-14.443	0.100
408.800	-17.158	0.100
408.900	-17.088	0.100
409.000	-12.585	0.100
409.100	-17.706	0.100
409.200	-18.649	0.100
409.300	-14.273	0.100
409.400	-4.240	0.100
409.500	-19.848	0.100
409.600	-16.492	0.100
409.700	-10.984	0.100
409.800	-4.168	0.100
409.900	-12.215	0.100
410.000	-19.178	0.100
410.100	-5.671	0.100
410.200	-9.146	0.100
410.300	-14.837	0.100
410.400	-15.129	0.100
410.500	-15.749	0.100
410.600	-25.730	0.100
410.700	-18.283	0.100
410.800	-6.986	0.100
410.900	-15.036	0.100
411.000	-22.183	0.100
411.100	-9.481	0.100
411.200	-26.063	0.100
411.300	-6.877	0.100
411.400	-14.778	0.100
411.500	-20.736	0.100
411.600	-25.765	0.100
411.700	-24.327	0.100
411.800	-19.222	0.100
411.900	-12.845	0.100
412.000	-13.480	0.100
412.100	-33.659	0.100
412.200	-15.087	0.100
412.300	-13.675	0.100
412.400	-19.759	0.100
412.500	-2.868	0.100
412.600	-10.971	0.100
412.700	-16.719	0.100
412.800	-24.763	0.100
412.900	-16.879	0.100
413.000	-13.697	0.100
413.100	-14.912	0.100
413.200	-24.072	0.100
413.300	-16.904	0.100
413.400	-23.296	0.100
413.500	-20.931	0.100
413.600	-14.364	0.100
413.700	-25.818	0.100
413.800	-26.949	0.100
413.900	-19.068	0.100
414.000	-18.382	0.100
414.100	-17.178	0.100
414.200	-13.814	0.100
414.300	-23.677	0.100
414.400	-20.839	0.100
414.500	-13.354	0.100
414.600	-18.249	0.100
414.700	-22.111	0.100
414.800	-15.068	0.100
414.900	-17.108	0.100
415.000	-24.749	0.100
415.100	-21.237	0.100
415.200	-17.953	0.100
415.300	-18.684	0.100
415.400	-24.581	0.100
415.500	-11.734	0.100
415.600	-15.073	0.100
415.700	-26.282	0.100
415.800	-23.174	0.100
415.900	-24.263	0.100
416.000	-17.233	0.100
416.100	-23.899	0.100
416.200	-31.072	0.100
416.300	-13.857	0.100
416.400	-21.414	0.100
416.500	-10.242	0.100
416.600	-20.734	0.100
416.700	-11.712	0.100
416.800	-20.906	0.100
416.900	-34.644	0.100
417.000	-22.705	0.100
417.100	-26.722	0.100
417.200	-28.999	0.100
417.300	-32.864	0.100
417.400	-25.682	0.100
417.500	-32.397	0.100
417.600	-31.321	0.100
417.700	-21.055	0.100
417.800	-18.808	0.100
417.900	-23.122	0.100
418.000	-20.628	0.100
418.100	-16.160	0.100
418.200	-20.390	0.100
418.300	-33.340	0.100
418.400	-23.000	0.100
418.500	-16.897	0.100
418.600	-27.643	0.100
418.700	-15.732	0.100
418.800	-21.392	0.100
418.900	-23.904	0.100
419.000	-33.232	0.100
419.100	-27.428	0.100
419.200	-19.611	0.100
419.300	-26.615	0.100
419.400	-19.512	0.100
419.500	-20.893	0.100
419.600	-29.771	0.100
419.700	-28.123	0.100
419.800	-20.557	0.100
419.900	-21.426	0.100
420.000	-25.279	0.100
420.100	-17.896	0.100
420.200	-26.255	0.100
420.300	-27.476	0.100
420.400	-27.860	0.100
420.500	-34.093	0.100
420.600	-33.143	0.100
420.700	-24.753	0.100
420.800	-25.485	0.100
420.900	-29.082	0.100
421.000	-32.396	0.100
421.100	-22.663	0.100
421.200	-16.879	0.100
421.300	-28.083	0.100
421.400	-25.879	0.100
421.500	-34.946	0.100
421.600	-24.896	0.100
421.700	-23.141	0.100
421.800	-20.784	0.100
421.900	-30.510	0.100
422.000	-28.111	0.100
422.100	-34.209	0.100
422.200	-21.864	0.100
422.300	-19.743	0.100
422.400	-31.470	0.100
422.500	-31.320	0.100
422.600	-31.421	0.100
422.700	-30.814	0.100
422.800	-26.115	0.100
422.900	-33.579	0.100
423.000	-18.993	0.100
423.100	-32.966	0.100
423.200	-37.103	0.100
423.300	-27.093	0.100
423.400	-21.862	0.100
423.500	-33.612	0.100
423.600	-34.658	0.100
423.700	-21.249	0.100
423.800	-31.020	0.100
423.900	-22.071	0.100
424.000	-33.457	0.100
424.100	-28.793	0.100
424.200	-21.595	0.100
424.300	-25.118	0.100
424.400	-32.485	0.100
424.500	-29.200	0.100
424.600	-22.964	0.100
424.700	-30.624	0.100
424.800	-32.759	0.100
424.900	-35.307	0.100
425.000	-31.733	0.100
425.100	-28.912	0.100
425.200	-35.976	0.100
425.300	-25.313	0.100
425.400	-29.616	0.100
425.500	-20.560	0.100
425.600	-25.381	0.100
425.700	-23.882	0.100
425.800	-41.433	0.100
425.900	-28.162	0.100
426.000	-31.834	0.100
426.100	-27.323	0.100
426.200	-37.687	0.100
426.300	-29.479	0.100
426.400	-26.288	0.100
426.500	-29.646	0.100
426.600	-22.204	0.100
426.700	-25.677	0.100
426.800	-35.188	0.100
426.900	-28.430	0.100
427.000	-28.037	0.100
427.100	-35.174	0.100
427.200	-27.313	0.100
427.300	-29.508	0.100
427.400	-38.355	0.100
427.500	-23.405	0.100
427.600	-36.016	0.100
427.700	-26.487	0.100
427.800	-26.169	0.100
427.900	-25.646	0.100
428.000	-16.906	0.100
428.100	-25.587	0.100
428.200	-27.127	0.100
428.300	-25.346	0.100
428.400	-29.035	0.100
428.500	-31.921	0.100
428.600	-24.037	0.100
428.700	-29.918	0.100
428.800	-31.012	0.100
428.900	-35.584	0.100
429.000	-32.222	0.100
429.100	-27.366	0.100
429.200	-29.612	0.100
429.300	-35.793	0.100
429.400	-33.138	0.100
429.500	-33.571	0.100
429.600	-31.337	0.100
429.700	-16.019	0.100
429.800	-32.221	0.100
429.900	-21.973	0.100
430.000	-34.294	0.100
430.100	-26.287	0.100
430.200	-25.393	0.100
430.300	-27.512	0.100
430.400	-22.227	0.100
430.500	-33.856	0.100
430.600	-32.352	0.100
430.700	-21.972	0.100
430.800	-27.316	0.100
430.900	-33.588	0.100
431.000	-45.321	0.100
431.100	-33.033	0.100
431.200	-35.292	0.100
431.300	-41.784	0.100
431.400	-17.025	0.100
431.500	-28.989	0.100
431.600	-26.589	0.100
431.700	-31.835	0.100
431.800	-36.676	0.100
431.900	-23.547	0.100
432.000	-39.380	0.100
432.100	-30.412	0.100
432.200	-22.606	0.100
432.300	-29.052	0.100
432.400	-26.604	0.100
432.500	-29.136	0.100
432.600	-24.816	0.100
432.700	-30.911	0.100
432.800	-35.102	0.100
432.900	-28.555	0.100
433.000	-29.829	0.100
433.100	-29.765	0.100
433.200	-25.989	0.100
433.300	-28.232	0.100
433.400	-30.936	0.100
433.500	-29.686	0.100
433.600	-30.619	0.100
433.700	-39.582	0.100
433.800	-33.617	0.100
433.900	-36.223	0.100
434.000	-32.882	0.100
434.100	-34.314	0.100
434.200	-23.594	0.100
434.300	-28.993	0.100
434.400	-37.342	0.100
434.500	-26.353	0.100
434.600	-31.425	0.100
434.700	-27.567	0.100
434.800	-23.743	0.100
434.900	-34.512	0.100
435.000	-24.094	0.100
435.100	-24.274	0.100
435.200	-31.195	0.100
435.300	-33.087	0.100
435.400	-25.757	0.100
435.500	-31.123	0.100
435.600	-22.459	0.100
435.700	-29.274	0.100
435.800	-37.010	0.100
435.900	-38.688	0.100
436.000	-21.380	0.100
436.100	-25.011	0.100
436.200	-25.683	0.100
436.300	-28.292	0.100
436.400	-40.759	0.100
436.500	-33.487	0.100
436.600	-42.972	0.100
436.700	-31.582	0.100
436.800	-28.274	0.100
436.900	-33.367	0.100
437.000	-33.572	0.100
437.100	-23.067	0.100
437.200	-21.279	0.100
437.300	-28.505	0.100
437.400	-26.186	0.100
437.500	-34.482	0.100
437.600	-32.222	0.100
437.700	-27.163	0.100
437.800	-28.625	0.100
437.900	-32.658	0.100
438.000	-26.118	0.100
438.100	-26.777	0.100
438.200	-35.900	0.100
438.300	-26.002	0.100
438.400	-17.236	0.100
438.500	-19.990	0.100
438.600	-28.659	0.100
438.700	-18.722	0.100
438.800	-30.167	0.100
438.900	-39.493	0.100
439.000	-29.676	0.100
439.100	-21.814	0.100
439.200	-25.351	0.100
439.300	-29.519	0.100
439.400	-16.598	0.100
439.500	-31.988	0.100
439.600	-17.978	0.100
439.700	-27.648	0.100
439.800	-24.517	0.100
439.900	-33.519	0.100
440.000	-26.920	0.100
440.100	-35.133	0.100
440.200	-29.640	0.100
440.300	-29.965	0.100
440.400	-18.799	0.100
440.500	-21.183	0.100
440.600	-31.890	0.100
440.700	-34.449	0.100
440.800	-23.921	0.100
440.900	-16.355	0.100
441.000	-24.545	0.100
441.100	-28.894	0.100
441.200	-38.201	0.100
441.300	-24.073	0.100
441.400	-25.960	0.100
441.500	-27.054	0.100
441.600	-36.561	0.100
441.700	-31.062	0.100
441.800	-31.575	0.100
441.900	-23.635	0.100
442.000	-27.898	0.100
442.100	-37.185	0.100
442.200	-29.633	0.100
442.300	-23.224	0.100
442.400	-30.569	0.100
442.500	-21.929	0.100
442.600	-21.263	0.100
442.700	-33.084	0.100
442.800	-27.808	0.100
442.900	-26.900	0.100
443.000	-29.221	0.100
443.100	-33.806	0.100
443.200	-24.231	0.100
443.300	-31.490	0.100
443.400	-22.609	0.100
443.500	-21.356	0.100
443.600	-35.155	0.100
443.700	-24.307	0.100
443.800	-23.500	0.100
443.900	-19.106	0.100
444.000	-21.778	0.100
444.100	-13.360	0.100
444.200	-31.507	0.100
444.300	-27.984	0.100
444.400	-25.181	0.100
444.500	-22.428	0.100
444.600	-36.583	0.100
444.700	-35.090	0.100
444.800	-29.598	0.100
444.900	-22.772	0.100
445.000	-24.170	0.100
445.100	-27.919	0.100
445.200	-21.558	0.100
445.300	-21.849	0.100
445.400	-30.043	0.100
445.500	-39.094	0.100
445.600	-25.403	0.100
445.700	-28.372	0.100
445.800	-30.192	0.100
445.900	-8.698	0.100
446.000	-24.088	0.100
446.100	-18.958	0.100
446.200	-40.555	0.100
446.300	-35.004	0.100
446.400	-23.141	0.100
446.500	-20.388	0.100
446.600	-31.249	0.100
446.700	-22.295	0.100
446.800	-24.036	0.100
446.900	-27.581	0.100
447.000	-18.834	0.100
447.100	-32.674	0.100
447.200	-18.547	0.100
447.300	-34.893	0.100
447.400	-21.245	0.100
447.500	-27.984	0.100
447.600	-20.780	0.100
447.700	-17.459	0.100
447.800	-30.953	0.100
447.900	-23.995	0.100
448.000	-25.862	0.100
448.100	-28.651	0.100
448.200	-33.515	0.100
448.300	-13.829	0.100
448.400	-20.649	0.100
448.500	-16.279	0.100
448.600	-34.067	0.100
448.700	-20.904	0.100
448.800	-28.178	0.100
448.900	-29.471	0.100
449.000	-17.599	0.100
449.100	-23.776	0.100
449.200	-24.694	0.100
449.300	-26.312	0.100
449.400	-18.451	0.100
449.500	-18.738	0.100
449.600	-22.568	0.100
449.700	-30.557	0.100
449.800	-22.458	0.100
449.900	-35.579	0.100
450.000	-37.185	0.100
450.100	-27.824	0.100
450.200	-12.296	0.100
450.300	-26.797	0.100
450.400	-27.593	0.100
450.500	-27.201	0.100
450.600	-25.707	0.100
450.700	-21.944	0.100
450.800	-21.868	0.100
450.900	-27.402	0.100
451.000	-27.804	0.100
451.100	-18.732	0.100
451.200	-34.727	0.100
451.300	-14.433	0.100
451.400	-22.676	0.100
451.500	-23.462	0.100
451.600	-25.544	0.100
451.700	-24.934	0.100
451.800	-19.667	0.100
451.900	-23.817	0.100
452.000	-12.463	0.100
452.100	-19.512	0.100
452.200	-32.581	0.100
452.300	-20.823	0.100
452.400	-24.014	0.100
452.500	-26.250	0.100
452.600	-25.142	0.100
452.700	-32.271	0.100
452.800	-22.787	0.100
452.900	-25.231	0.100
453.000	-10.911	0.100
453.100	-14.542	0.100
453.200	-31.796	0.100
453.300	-30.079	0.100
453.400	-17.537	0.100
453.500	-19.050	0.100
453.600	-6.638	0.100
453.700	-23.503	0.100
453.800	-27.425	0.100
453.900	-16.043	0.100
454.000	-24.230	0.100
454.100	-22.954	0.100
454.200	-24.024	0.100
454.300	-25.969	0.100
454.400	-24.057	0.100
454.500	-21.379	0.100
454.600	-21.665	0.100
454.700	-25.389	0.100
454.800	-20.598	0.100
454.900	-23.524	0.100
455.000	-29.648	0.100
455.100	-29.005	0.100
455.200	-10.761	0.100
455.300	-23.248	0.100
455.400	-13.567	0.100
455.500	-14.954	0.100
455.600	-19.094	0.100
455.700	-5.527	0.100
455.800	-28.376	0.100
455.900	-13.031	0.100
456.000	-19.108	0.100
456.100	-13.957	0.100
456.200	-17.686	0.100
456.300	-23.817	0.100
456.400	-29.210	0.100
456.500	-17.207	0.100
456.600	-20.507	0.100
456.700	-23.647	0.100
456.800	-26.506	0.100
456.900	-26.171	0.100
457.000	-32.289	0.100
457.100	-31.009	0.100
457.200	-16.912	0.100
457.300	-24.374	0.100
457.400	-22.548	0.100
457.500	-23.122	0.100
457.600	-12.545	0.100
457.700	-20.197	0.100
457.800	-33.646	0.100
457.900	-23.980	0.100
458.000	-19.507	0.100
458.100	-31.008	0.100
458.200	-23.101	0.100
458.300	-15.235	0.100
458.400	-20.586	0.100
458.500	-22.608	0.100
458.600	-17.089	0.100
458.700	-29.543	0.100
458.800	-30.462	0.100
458.900	-17.649	0.100
459.000	-22.797	0.100
459.100	-20.727	0.100
459.200	-16.656	0.100
459.300	-20.678	0.100
459.400	-28.199	0.100
459.500	-23.893	0.100
459.600	-10.450	0.100
459.700	-22.999	0.100
459.800	-21.350	0.100
459.900	-28.072	0.100
460.000	-24.523	0.100
460.100	-17.427	0.100
460.200	-23.784	0.100
460.300	-20.966	0.100
460.400	-13.892	0.100
460.500	-23.948	0.100
460.600	-21.234	0.100
460.700	-14.412	0.100
460.800	-12.693	0.100
460.900	-20.999	0.100
461.000	-34.167	0.100
461.100	-18.780	0.100
461.200	-21.034	0.100
461.300	-15.887	0.100
461.400	-20.822	0.100
461.500	-19.343	0.100
461.600	-22.328	0.100
461.700	-22.746	0.100
461.800	-16.977	0.100
461.900	-19.806	0.100
462.000	-18.081	0.100
462.100	-9.542	0.100
462.200	-29.490	0.100
462.300	-19.457	0.100
462.400	-21.806	0.100
462.500	-18.156	0.100
462.600	-18.693	0.100
462.700	-17.032	0.100
462.800	-16.759	0.100
462.900	-23.849	0.100
463.000	-24.566	0.100
463.100	-22.699	0.100
463.200	-18.080	0.100
463.300	-13.004	0.100
463.400	-16.332	0.100
463.500	-19.409	0.100
463.600	-7.850	0.100
463.700	-14.818	0.100
463.800	-17.553	0.100
463.900	-29.684	0.100
464.000	-30.186	0.100
464.100	-25.025	0.100
464.200	-16.480	0.100
464.300	-21.077	0.100
464.400	-15.875	0.100
464.500	-17.389	0.100
464.600	-17.631	0.100
464.700	-13.642	0.100
464.800	-12.608	0.100
464.900	-17.856	0.100
465.000	-24.349	0.100
465.100	-15.777	0.100
465.200	-18.937	0.100
465.300	-20.452	0.100
465.400	-14.571	0.100
465.500	-25.712	0.100
465.600	-20.335	0.100
465.700	-20.499	0.100
465.800	-23.929	0.100
465.900	-23.250	0.100
466.000	-18.954	0.100
466.100	-22.265	0.100
466.200	-18.843	0.100
466.300	-18.760	0.100
466.400	-16.687	0.100
466.500	-23.728	0.100
466.600	-24.375	0.100
466.700	-13.753	0.100
466.800	-10.693	0.100
466.900	-6.757	0.100
467.000	-25.715	0.100
467.100	-25.050	0.100
467.200	-14.897	0.100
467.300	-19.447	0.100
467.400	-12.033	0.100
467.500	-27.138	0.100
467.600	-26.784	0.100
467.700	-16.884	0.100
467.800	-14.748	0.100
467.900	-14.219	0.100
468.000	-27.235	0.100
468.100	-20.829	0.100
468.200	-18.314	0.100
468.300	-24.524	0.100
468.400	-14.062	0.100
468.500	-13.305	0.100
468.600	-23.177	0.100
468.700	-28.513	0.100
468.800	-15.395	0.100
468.900	-22.561	0.100
469.000	-17.623	0.100
469.100	-22.097	0.100
469.200	-8.555	0.100
469.300	-11.780	0.100
469.400	-17.251	0.100
469.500	-21.848	0.100
469.600	-9.681	0.100
469.700	-23.033	0.100
469.800	-24.883	0.100
469.900	-16.917	0.100
470.000	-13.359	0.100
470.100	-19.981	0.100
470.200	-18.250	0.100
470.300	-17.824	0.100
470.400	-23.638	0.100
470.500	-26.427	0.100
470.600	-24.037	0.100
470.700	-9.205	0.100
470.800	-20.285	0.100
470.900	-27.292	0.100
471.000	-21.755	0.100
471.100	-21.742	0.100
471.200	-13.668	0.100
471.300	-5.651	0.100
471.400	-10.672	0.100
471.500	-9.345	0.100
471.600	-22.141	0.100
471.700	-10.346	0.100
471.800	-15.298	0.100
471.900	-18.432	0.100
472.000	-13.227	0.100
472.100	-15.535	0.100
472.200	-10.416	0.100
472.300	-24.692	0.100
472.400	-12.202	0.100
472.500	-14.378	0.100
472.600	-16.284	0.100
472.700	-14.645	0.100
472.800	-28.003	0.100
472.900	-21.817	0.100
473.000	-20.920	0.100
473.100	-10.387	0.100
473.200	-7.902	0.100
473.300	-8.661	0.100
473.400	-11.775	0.100
473.500	-16.610	0.100
473.600	-18.951	0.100
473.700	-30.284	0.100
473.800	-18.864	0.100
473.900	-20.730	0.100
474.000	-24.792	0.100
474.100	-12.812	0.100
474.200	-10.309	0.100
474.300	-14.293	0.100
474.400	-32.905	0.100
474.500	-19.110	0.100
474.600	-20.811	0.100
474.700	-21.966	0.100
474.800	-27.356	0.100
474.900	-18.717	0.100
475.000	-0.356	0.100
475.100	-14.614	0.100
475.200	-15.958	0.100
475.300	-24.113	0.100
475.400	-24.447	0.100
475.500	-9.543	0.100
475.600	-19.184	0.100
475.700	-23.774	0.100
475.800	-24.057	0.100
475.900	-18.746	0.100
476.000	-8.754	0.100
476.100	-15.326	0.100
476.200	-9.814	0.100
476.300	-15.209	0.100
476.400	-19.335	0.100
476.500	-20.104	0.100
476.600	-25.954	0.100
476.700	-25.858	0.100
476.800	-15.900	0.100
476.900	-14.354	0.100
477.000	-9.024	0.100
477.100	-13.502	0.100
477.200	-15.880	0.100
477.300	-2.925	0.100
477.400	-12.914	0.100
477.500	-7.736	0.100
477.600	-15.580	0.100
477.700	-13.185	0.100
477.800	-15.765	0.100
477.900	-26.914	0.100
478.000	-22.495	0.100
478.100	-13.245	0.100
478.200	-9.240	0.100
478.300	-19.618	0.100
478.400	-8.499	0.100
478.500	-24.505	0.100
478.600	-12.375	0.100
478.700	-17.101	0.100
478.800	-23.475	0.100
478.900	-20.402	0.100
479.000	-16.000	0.100
479.100	-4.786	0.100
479.200	-14.803	0.100
479.300	-16.678	0.100
479.400	-21.214	0.100
479.500	-11.687	0.100
479.600	-20.834	0.100
479.700	-12.661	0.100
479.800	-17.339	0.100
479.900	-16.293	0.100
480.000	-14.160	0.100
480.100	-8.111	0.100
480.200	-18.817	0.100
480.300	-13.776	0.100
480.400	-17.265	0.100
480.500	-12.222	0.100
480.600	-9.569	0.100
480.700	-10.568	0.100
480.800	-8.896	0.100
480.900	-7.787	0.100
481.000	5.216	0.100
481.100	-3.657	0.100
481.200	12.852	0.100
481.300	15.987	0.100
481.400	2.867	0.100
481.500	2.142	0.100
481.600	17.469	0.100
481.700	20.994	0.100
481.800	17.136	0.100
481.900	11.393	0.100
482.000	16.194	0.100
482.100	20.470	0.100
482.200	17.963	0.100
482.300	33.830	0.100
482.400	21.263	0.100
482.500	28.194	0.100
482.600	16.550	0.100
482.700	22.287	0.100
482.800	35.497	0.100
482.900	34.584	0.100
483.000	34.175	0.100
483.100	28.566	0.100
483.200	23.447	0.100
483.300	17.468	0.100
483.400	22.380	0.100
483.500	20.659	0.100
483.600	43.493	0.100
483.700	30.580	0.100
483.800	30.986	0.100
483.900	24.527	0.100
484.000	36.412	0.100
484.100	25.196	0.100
484.200	19.656	0.100
484.300	26.546	0.100
484.400	21.881	0.100
484.500	17.740	0.100
484.600	29.436	0.100
484.700	21.200	0.100
484.800	25.609	0.100
484.900	22.732	0.100
485.000	17.113	0.100
485.100	26.745	0.100
485.200	29.537	0.100
485.300	20.496	0.100
485.400	20.273	0.100
485.500	22.577	0.100
485.600	33.293	0.100
485.700	15.496	0.100
485.800	21.980	0.100
485.900	22.343	0.100
486.000	10.932	0.100
486.100	15.622	0.100
486.200	17.693	0.100
486.300	25.837	0.100
486.400	22.333	0.100
486.500	23.472	0.100
486.600	9.829	0.100
486.700	18.089	0.100
486.800	20.857	0.100
486.900	21.740	0.100
487.000	20.053	0.100
487.100	10.824	0.100
487.200	27.237	0.100
487.300	25.155	0.100
487.400	28.295	0.100
487.500	16.732	0.100
487.600	8.850	0.100
487.700	9.913	0.100
487.800	6.635	0.100
487.900	21.300	0.100
488.000	15.397	0.100
488.100	21.995	0.100
488.200	19.161	0.100
488.300	20.098	0.100
488.400	24.249	0.100
488.500	17.203	0.100
488.600	21.197	0.100
488.700	15.011	0.100
488.800	11.071	0.100
488.900	11.098	0.100
489.000	4.223	0.100
489.100	22.887	0.100
489.200	29.887	0.100
489.300	7.137	0.100
489.400	25.146	0.100
489.500	22.833	0.100
489.600	24.625	0.100
489.700	23.624	0.100
489.800	23.096	0.100
489.900	13.039	0.100
490.000	21.329	0.100
490.100	24.205	0.100
490.200	22.711	0.100
490.300	13.006	0.100
490.400	19.675	0.100
490.500	20.493	0.100
490.600	21.533	0.100
490.700	19.270	0.100
490.800	25.619	0.100
490.900	25.109	0.100
491.000	20.936	0.100
491.100	15.079	0.100
491.200	25.063	0.100
491.300	17.146	0.100
491.400	5.465	0.100
491.500	27.266	0.100
491.600	18.526	0.100
491.700	14.194	0.100
491.800	18.780	0.100
491.900	15.509	0.100
492.000	22.233	0.100
492.100	24.380	0.100
492.200	22.563	0.100
492.300	18.359	0.100
492.400	21.828	0.100
492.500	16.146	0.100
492.600	19.494	0.100
492.700	16.484	0.100
492.800	16.713	0.100
492.900	7.604	0.100
493.000	21.772	0.100
493.100	19.479	0.100
493.200	19.787	0.100
493.300	11.424	0.100
493.400	24.191	0.100
493.500	15.025	0.100
493.600	26.322	0.100
493.700	24.415	0.100
493.800	31.886	0.100
493.900	16.627	0.100
494.000	22.991	0.100
494.100	18.423	0.100
494.200	15.632	0.100
494.300	27.663	0.100
494.400	23.875	0.100
494.500	23.255	0.100
494.600	10.478	0.100
494.700	19.289	0.100
494.800	24.683	0.100
494.900	15.163	0.100
495.000	22.466	0.100
495.100	25.069	0.100
495.200	24.575	0.100
495.300	23.076	0.100
495.400	20.909	0.100
495.500	34.138	0.100
495.600	34.220	0.100
495.700	16.279	0.100
495.800	30.502	0.100
495.900	28.564	0.100
496.000	21.390	0.100
496.100	19.771	0.100
496.200	21.050	0.100
496.300	20.508	0.100
496.400	28.153	0.100
496.500	27.100	0.100
496.600	13.399	0.100
496.700	21.157	0.100
496.800	10.633	0.100
496.900	22.718	0.100
497.000	26.495	0.100
497.100	28.762	0.100
497.200	15.876	0.100
497.300	13.767	0.100
497.400	15.993	0.100
497.500	15.267	0.100
497.600	31.877	0.100
497.700	32.954	0.100
497.800	23.530	0.100
497.900	22.913	0.100
498.000	25.561	0.100
498.100	24.701	0.100
498.200	29.174	0.100
498.300	32.209	0.100
498.400	16.370	0.100
498.500	28.142	0.100
498.600	28.176	0.100
498.700	22.920	0.100
498.800	17.590	0.100
498.900	32.269	0.100
499.000	30.229	0.100
499.100	31.164	0.100
499.200	22.655	0.100
499.300	32.467	0.100
499.400	30.088	0.100
499.500	23.662	0.100
499.600	25.941	0.100
499.700	24.029	0.100
499.800	24.994	0.100
499.900	26.060	0.100
500.000	44.068	0.100
500.100	29.619	0.100
500.200	21.770	0.100
500.300	24.451	0.100
500.400	47.273	0.100
500.500	22.124	0.100
500.600	32.745	0.100
500.700	14.232	0.100
500.800	29.868	0.100
500.900	25.792	0.100
501.000	34.963	0.100
501.100	41.905	0.100
501.200	24.873	0.100
501.300	31.651	0.100
501.400	36.010	0.100
501.500	32.134	0.100
501.600	18.402	0.100
501.700	35.294	0.100
501.800	28.525	0.100
501.900	36.534	0.100
502.000	36.571	0.100
502.100	38.737	0.100
502.200	27.480	0.100
502.300	30.565	0.100
502.400	29.942	0.100
502.500	40.212	0.100
502.600	40.827	0.100
502.700	37.312	0.100
502.800	30.020	0.100
502.900	32.608	0.100
503.000	31.246	0.100
503.100	31.180	0.100
503.200	35.220	0.100
503.300	40.642	0.100
503.400	18.591	0.100
503.500	33.835	0.100
503.600	32.684	0.100
503.700	43.517	0.100
503.800	34.298	0.100
503.900	37.217	0.100
504.000	35.084	0.100
504.100	33.188	0.100
504.200	28.835	0.100
504.300	24.550	0.100
504.400	29.056	0.100
504.500	29.678	0.100
504.600	36.355	0.100
504.700	32.557	0.100
504.800	37.292	0.100
504.900	47.471	0.100
505.000	45.729	0.100
505.100	43.765	0.100
505.200	39.396	0.100
505.300	45.464	0.100
505.400	36.097	0.100
505.500	41.235	0.100
505.600	44.433	0.100
505.700	39.656	0.100
505.800	32.693	0.100
505.900	34.157	0.100
506.000	29.137	0.100
506.100	41.833	0.100
506.200	42.159	0.100
506.300	47.265	0.100
506.400	37.825	0.100
506.500	36.969	0.100
506.600	41.744	0.100
506.700	31.118	0.100
506.800	53.018	0.100
506.900	35.813	0.100
507.000	29.921	0.100
507.100	37.983	0.100
507.200	42.282	0.100
507.300	35.655	0.100
507.400	46.350	0.100
507.500	46.972	0.100
507.600	43.107	0.100
507.700	37.148	0.100
507.800	30.213	0.100
507.900	40.766	0.100
508.000	41.390	0.100
508.100	35.574	0.100
508.200	35.503	0.100
508.300	55.152	0.100
508.400	39.679	0.100
508.500	38.625	0.100
508.600	38.598	0.100
508.700	49.940	0.100
508.800	49.396	0.100
508.900	45.094	0.100
509.000	26.843	0.100
509.100	42.565	0.100
509.200	36.883	0.100
509.300	42.013	0.100
509.400	43.039	0.100
509.500	36.184	0.100
509.600	43.523	0.100
509.700	51.327	0.100
509.800	50.530	0.100
509.900	45.504	0.100
510.000	35.574	0.100
510.100	37.182	0.100
510.200	42.370	0.100
510.300	44.529	0.100
510.400	42.032	0.100
510.500	53.537	0.100
510.600	44.981	0.100
510.700	42.439	0.100
510.800	42.899	0.100
510.900	44.601	0.100
511.000	40.429	0.100
511.100	34.819	0.100
511.200	47.571	0.100
511.300	40.121	0.100
511.400	30.010	0.100
511.500	39.978	0.100
511.600	42.774	0.100
511.700	53.039	0.100
511.800	52.953	0.100
511.900	48.302	0.100
512.000	38.178	0.100
512.100	38.791	0.100
512.200	36.046	0.100
512.300	40.047	0.100
512.400	50.457	0.100
512.500	35.286	0.100
512.600	37.824	0.100
512.700	39.838	0.100
512.800	38.256	0.100
512.900	39.384	0.100
513.000	43.359	0.100
513.100	45.393	0.100
513.200	42.720	0.100
513.300	39.798	0.100
513.400	31.133	0.100
513.500	52.145	0.100
513.600	52.079	0.100
513.700	42.283	0.100
513.800	44.935	0.100
513.900	56.533	0.100
514.000	40.089	0.100
514.100	47.498	0.100
514.200	52.088	0.100
514.300	37.558	0.100
514.400	51.030	0.100
514.500	52.520	0.100
514.600	40.213	0.100
514.700	41.276	0.100
514.800	38.573	0.100
514.900	47.605	0.100
515.000	42.896	0.100
515.100	37.110	0.100
515.200	38.990	0.100
515.300	51.095	0.100
515.400	48.422	0.100
515.500	37.181	0.100
515.600	44.149	0.100
515.700	50.820	0.100
515.800	40.385	0.100
515.900	45.489	0.100
516.000	47.345	0.100
516.100	50.756	0.100
516.200	43.105	0.100
516.300	38.596	0.100
516.400	44.820	0.100
516.500	51.184	0.100
516.600	38.103	0.100
516.700	42.393	0.100
516.800	45.513	0.100
516.900	47.632	0.100
517.000	50.580	0.100
517.100	48.287	0.100
517.200	42.530	0.100
517.300	28.474	0.100
517.400	41.682	0.100
517.500	44.682	0.100
517.600	38.498	0.100
517.700	46.131	0.100
517.800	45.505	0.100
517.900	43.241	0.100
518.000	42.211	0.100
518.100	45.828	0.100
518.200	46.266	0.100
518.300	38.709	0.100
518.400	43.049	0.100
518.500	41.156	0.100
518.600	38.442	0.100
518.700	45.900	0.100
518.800	36.536	0.100
518.900	39.578	0.100
519.000	44.735	0.100
519.100	38.917	0.100
519.200	45.066	0.100
519.300	41.676	0.100
519.400	46.277	0.100
519.500	46.227	0.100
519.600	43.076	0.100
519.700	47.056	0.100
519.800	47.931	0.100
519.900	44.742	0.100
520.000	32.874	0.100
520.100	51.550	0.100
520.200	41.721	0.100
520.300	36.040	0.100
520.400	44.294	0.100
520.500	44.808	0.100
520.600	40.063	0.100
520.700	56.634	0.100
520.800	42.157	0.100
520.900	49.769	0.100
521.000	44.650	0.100
521.100	45.979	0.100
521.200	45.957	0.100
521.300	46.629	0.100
521.400	44.854	0.100
521.500	30.102	0.100
521.600	42.216	0.100
521.700	46.641	0.100
521.800	44.436	0.100
521.900	47.280	0.100
522.000	37.592	0.100
522.100	44.883	0.100
522.200	50.957	0.100
522.300	38.889	0.100
522.400	37.827	0.100
522.500	47.443	0.100
522.600	41.809	0.100
522.700	45.167	0.100
522.800	42.902	0.100
522.900	35.148	0.100
523.000	44.659	0.100
523.100	47.961	0.100
523.200	48.684	0.100
523.300	38.760	0.100
523.400	41.025	0.100
523.500	35.569	0.100
523.600	39.850	0.100
523.700	47.505	0.100
523.800	47.808	0.100
523.900	41.408	0.100
524.000	29.581	0.100
524.100	50.469	0.100
524.200	42.962	0.100
524.300	49.598	0.100
524.400	38.789	0.100
524.500	36.864	0.100
524.600	45.624	0.100
524.700	47.888	0.100
524.800	38.668	0.100
524.900	47.325	0.100
525.000	47.249	0.100
525.100	39.686	0.100
525.200	42.330	0.100
525.300	38.216	0.100
525.400	56.379	0.100
525.500	53.304	0.100
525.600	43.493	0.100
525.700	41.362	0.100
525.800	36.266	0.100
525.900	31.558	0.100
526.000	43.065	0.100
526.100	42.223	0.100
526.200	32.587	0.100
526.300	38.971	0.100
526.400	39.403	0.100
526.500	42.785	0.100
526.600	48.651	0.100
526.700	39.754	0.100
526.800	48.220	0.100
526.900	39.316	0.100
527.000	30.874	0.100
527.100	47.913	0.100
527.200	47.120	0.100
527.300	36.135	0.100
527.400	42.701	0.100
527.500	40.898	0.100
527.600	43.698	0.100
527.700	39.164	0.100
527.800	41.567	0.100
527.900	39.359	0.100
528.000	52.548	0.100
528.100	36.298	0.100
528.200	41.255	0.100
528.300	36.455	0.100
528.400	37.249	0.100
528.500	45.797	0.100
528.600	38.001	0.100
528.700	47.174	0.100
528.800	51.169	0.100
528.900	42.038	0.100
529.000	42.585	0.100
529.100	24.390	0.100
529.200	28.085	0.100
529.300	41.901	0.100
529.400	54.867	0.100
529.500	46.334	0.100
529.600	58.332	0.100
529.700	55.983	0.100
529.800	43.654	0.100
529.900	34.275	0.100
530.000	42.601	0.100
530.100	29.544	0.100
530.200	49.793	0.100
530.300	45.480	0.100
530.400	40.184	0.100
530.500	34.068	0.100
530.600	36.603	0.100
530.700	48.773	0.100
530.800	40.121	0.100
530.900	44.604	0.100
531.000	38.105	0.100
531.100	35.381	0.100
531.200	42.084	0.100
531.300	35.689	0.100
531.400	32.059	0.100
531.500	43.233	0.100
531.600	42.257	0.100
531.700	41.210	0.100
531.800	43.340	0.100
531.900	41.725	0.100
532.000	42.184	0.100
532.100	43.195	0.100
532.200	50.056	0.100
532.300	35.169	0.100
532.400	45.152	0.100
532.500	37.497	0.100
532.600	37.685	0.100
532.700	32.731	0.100
532.800	46.629	0.100
532.900	47.051	0.100
533.000	43.478	0.100
533.100	36.089	0.100
533.200	50.829	0.100
533.300	41.307	0.100
533.400	40.940	0.100
533.500	48.796	0.100
533.600	40.131	0.100
533.700	38.774	0.100
533.800	45.723	0.100
533.900	49.338	0.100
534.000	46.414	0.100
534.100	40.436	0.100
534.200	33.546	0.100
534.300	35.649	0.100
534.400	30.168	0.100
534.500	36.418	0.100
534.600	35.154	0.100
534.700	30.170	0.100
534.800	40.916	0.100
534.900	44.969	0.100
535.000	49.052	0.100
535.100	37.147	0.100
535.200	33.393	0.100
535.300	49.959	0.100
535.400	41.585	0.100
535.500	43.300	0.100
535.600	41.200	0.100
535.700	31.168	0.100
535.800	31.035	0.100
535.900	37.388	0.100
536.000	45.250	0.100
536.100	44.151	0.100
536.200	42.344	0.100
536.300	42.684	0.100
536.400	39.165	0.100
536.500	39.589	0.100
536.600	43.160	0.100
536.700	33.493	0.100
536.800	46.021	0.100
536.900	45.221	0.100
537.000	35.377	0.100
537.100	29.334	0.100
537.200	34.451	0.100
537.300	35.098	0.100
537.400	37.906	0.100
537.500	47.470	0.100
537.600	45.878	0.100
537.700	35.499	0.100
537.800	33.320	0.100
537.900	29.503	0.100
538.000	35.018	0.100
538.100	42.007	0.100
538.200	36.300	0.100
538.300	36.165	0.100
538.400	44.973	0.100
538.500	40.121	0.100
538.600	36.591	0.100
538.700	32.368	0.100
538.800	42.352	0.100
538.900	36.006	0.100
539.000	35.013	0.100
539.100	44.527	0.100
539.200	46.534	0.100
539.300	24.332	0.100
539.400	36.876	0.100
539.500	33.732	0.100
539.600	36.124	0.100
539.700	41.313	0.100
539.800	31.079	0.100
539.900	41.151	0.100
540.000	44.379	0.100
540.100	41.356	0.100
540.200	34.907	0.100
540.300	31.821	0.100
540.400	42.766	0.100
540.500	45.546	0.100
540.600	32.361	0.100
540.700	40.528	0.100
540.800	30.254	0.100
540.900	29.850	0.100
541.000	21.717	0.100
541.100	19.916	0.100
541.200	23.677	0.100
541.300	19.166	0.100
541.400	18.678	0.100
541.500	12.286	0.100
541.600	18.459	0.100
541.700	12.384	0.100
541.800	14.635	0.100
541.900	5.104	0.100
542.000	14.104	0.100
542.100	1.618	0.100
542.200	13.310	0.100
542.300	13.540	0.100
542.400	6.285	0.100
542.500	13.598	0.100
542.600	16.334	0.100
542.700	4.828	0.100
542.800	4.687	0.100
542.900	-3.796	0.100
543.000	0.441	0.100
543.100	3.372	0.100
543.200	12.733	0.100
543.300	7.098	0.100
543.400	8.020	0.100
543.500	-0.987	0.100
543.600	-1.064	0.100
543.700	3.173	0.100
543.800	-0.642	0.100
543.900	6.191	0.100
544.000	1.287	0.100
544.100	-0.131	0.100
544.200	11.095	0.100
544.300	-3.397	0.100
544.400	8.060	0.100
544.500	4.261	0.100
544.600	4.005	0.100
544.700	6.481	0.100
544.800	2.666	0.100
544.900	1.181	0.100
545.000	-0.927	0.100
545.100	7.053	0.100
545.200	4.241	0.100
545.300	-4.413	0.100
545.400	5.056	0.100
545.500	6.490	0.100
545.600	3.222	0.100
545.700	16.495	0.100
545.800	-8.647	0.100
545.900	6.147	0.100
546.000	-5.758	0.100
546.100	12.458	0.100
546.200	1.446	0.100
546.300	2.135	0.100
546.400	6.125	0.100
546.500	2.354	0.100
546.600	-3.911	0.100
546.700	-0.587	0.100
546.800	5.961	0.100
546.900	11.515	0.100
547.000	-3.545	0.100
547.100	-8.195	0.100
547.200	6.990	0.100
547.300	5.762	0.100
547.400	5.655	0.100
547.500	1.247	0.100
547.600	-4.193	0.100
547.700	-4.204	0.100
547.800	14.601	0.100
547.900	6.271	0.100
548.000	1.585	0.100
548.100	2.910	0.100
548.200	2.457	0.100
548.300	-2.240	0.100
548.400	1.483	0.100
548.500	10.237	0.100
548.600	2.685	0.100
548.700	-1.891	0.100
548.800	4.768	0.100
548.900	4.702	0.100
549.000	2.192	0.100
549.100	-2.222	0.100
549.200	-7.745	0.100
549.300	-4.959	0.100
549.400	1.412	0.100
549.500	-4.654	0.100
549.600	-0.623	0.100
549.700	-1.989	0.100
549.800	9.595	0.100
549.900	1.362	0.100
550.000	-5.211	0.100
550.100	2.521	0.100
550.200	-8.031	0.100
550.300	-6.640	0.100
550.400	-11.409	0.100
550.500	0.546	0.100
550.600	-11.812	0.100
550.700	-5.539	0.100
550.800	2.475	0.100
550.900	12.159	0.100
551.000	-0.340	0.100
551.100	2.248	0.100
551.200	-4.330	0.100
551.300	1.657	0.100
551.400	-6.363	0.100
551.500	-8.656	0.100
551.600	-3.873	0.100
551.700	-1.824	0.100
551.800	-2.022	0.100
551.900	-6.847	0.100
552.000	-1.231	0.100
552.100	0.203	0.100
552.200	-1.158	0.100
552.300	-0.218	0.100
552.400	-6.185	0.100
552.500	-14.191	0.100
552.600	0.996	0.100
552.700	-0.330	0.100
552.800	0.519	0.100
552.900	-7.899	0.100
553.000	1.837	0.100
553.100	-2.096	0.100
553.200	-6.538	0.100
553.300	-5.805	0.100
553.400	1.144	0.100
553.500	-2.034	0.100
553.600	1.771	0.100
553.700	-8.517	0.100
553.800	-8.764	0.100
553.900	-5.990	0.100
554.000	-10.070	0.100
554.100	-2.366	0.100
554.200	-12.400	0.100
554.300	-5.645	0.100
554.400	-3.346	0.100
554.500	-8.826	0.100
554.600	-7.913	0.100
554.700	-14.515	0.100
554.800	-2.313	0.100
554.900	-3.614	0.100
555.000	-13.755	0.100
555.100	-11.502	0.100
555.200	-14.534	0.100
555.300	3.613	0.100
555.400	-10.859	0.100
555.500	-10.784	0.100
555.600	-1.755	0.100
555.700	-10.715	0.100
555.800	-6.070	0.100
555.900	-20.733	0.100
556.000	1.903	0.100
556.100	-10.021	0.100
556.200	-5.244	0.100
556.300	-4.893	0.100
556.400	-18.981	0.100
556.500	-8.002	0.100
556.600	-8.298	0.100
556.700	-11.743	0.100
556.800	-10.332	0.100
556.900	-18.106	0.100
557.000	-9.374	0.100
557.100	-7.007	0.100
557.200	-2.249	0.100
557.300	2.837	0.100
557.400	-7.501	0.100
557.500	-18.812	0.100
557.600	-26.963	0.100
557.700	-13.352	0.100
557.800	-15.701	0.100
557.900	-15.460	0.100
558.000	-7.144	0.100
558.100	-21.171	0.100
558.200	-8.587	0.100
558.300	-8.763	0.100
558.400	-11.663	0.100
558.500	-10.329	0.100
558.600	-11.964	0.100
558.700	-17.248	0.100
558.800	-12.417	0.100
558.900	-13.576	0.100
559.000	-17.867	0.100
559.100	-12.116	0.100
559.200	-13.304	0.100
559.300	-11.218	0.100
559.400	-17.793	0.100
559.500	-12.026	0.100
559.600	-19.452	0.100
559.700	-14.128	0.100
559.800	-14.173	0.100
559.900	-9.993	0.100
560.000	-14.769	0.100
560.100	-20.394	0.100
560.200	-1.599	0.100
560.300	-9.458	0.100
560.400	-22.174	0.100
560.500	-19.497	0.100
560.600	-15.391	0.100
560.700	-3.442	0.100
560.800	-24.429	0.100
560.900	-8.658	0.100
561.000	-13.596	0.100
561.100	-13.103	0.100
561.200	-17.585	0.100
561.300	-11.836	0.100
561.400	-16.804	0.100
561.500	-15.713	0.100
561.600	-15.763	0.100
561.700	-21.645	0.100
561.800	-11.986	0.100
561.900	-20.229	0.100
562.000	-12.658	0.100
562.100	-15.758	0.100
562.200	-14.522	0.100
562.300	-14.325	0.100
562.400	-16.946	0.100
562.500	-9.873	0.100
562.600	-15.878	0.100
562.700	-20.093	0.100
562.800	-17.584	0.100
562.900	-21.793	0.100
563.000	-18.809	0.100
563.100	-10.861	0.100
563.200	-15.527	0.100
563.300	-19.984	0.100
563.400	-18.896	0.100
563.500	-12.917	0.100
563.600	-14.094	0.100
563.700	-14.840	0.100
563.800	-7.196	0.100
563.900	-21.384	0.100
564.000	-19.180	0.100
564.100	-7.470	0.100
564.200	-27.415	0.100
564.300	-19.741	0.100
564.400	-17.487	0.100
564.500	-24.164	0.100
564.600	-19.425	0.100
564.700	-18.966	0.100
564.800	-25.511	0.100
564.900	-19.732	0.100
565.000	-18.669	0.100
565.100	-23.310	0.100
565.200	-10.154	0.100
565.300	-26.506	0.100
565.400	-19.544	0.100
565.500	-26.727	0.100
565.600	-24.619	0.100
565.700	-16.111	0.100
565.800	-13.067	0.100
565.900	-30.746	0.100
566.000	-27.847	0.100
566.100	-22.858	0.100
566.200	-23.917	0.100
566.300	-25.006	0.100
566.400	-18.837	0.100
566.500	-18.605	0.100
566.600	-19.807	0.100
566.700	-22.431	0.100
566.800	-17.152	0.100
566.900	-15.751	0.100
567.000	-22.878	0.100
567.100	-21.356	0.100
567.200	-16.174	0.100
567.300	-20.936	0.100
567.400	-22.265	0.100
567.500	-17.845	0.100
567.600	-15.325	0.100
567.700	-23.039	0.100
567.800	-26.852	0.100
567.900	-24.183	0.100
568.000	-17.154	0.100
568.100	-28.592	0.100
568.200	-16.561	0.100
568.300	-27.110	0.100
568.400	-22.256	0.100
568.500	-22.511	0.100
568.600	-18.422	0.100
568.700	-26.336	0.100
568.800	-19.688	0.100
568.900	-22.642	0.100
569.000	-26.207	0.100
569.100	-25.645	0.100
569.200	-27.129	0.100
569.300	-25.382	0.100
569.400	-26.534	0.100
569.500	-26.569	0.100
569.600	-27.048	0.100
569.700	-26.416	0.100
569.800	-25.903	0.100
569.900	-37.071	0.100
570.000	-26.448	0.100
570.100	-18.753	0.100
570.200	-27.081	0.100
570.300	-25.187	0.100
570.400	-20.705	0.100
570.500	-30.248	0.100
570.600	-16.686	0.100
570.700	-13.149	0.100
570.800	-32.889	0.100
570.900	-24.679	0.100
571.000	-28.000	0.100
571.100	-20.552	0.100
571.200	-23.649	0.100
571.300	-37.208	0.100
571.400	-27.955	0.100
571.500	-34.273	0.100
571.600	-22.545	0.100
571.700	-29.712	0.100
571.800	-31.659	0.100
571.900	-31.016	0.100
572.000	-19.710	0.100
572.100	-20.385	0.100
572.200	-31.970	0.100
572.300	-28.527	0.100
572.400	-26.059	0.100
572.500	-34.161	0.100
572.600	-27.991	0.100
572.700	-21.710	0.100
572.800	-26.740	0.100
572.900	-36.274	0.100
573.000	-29.943	0.100
573.100	-26.783	0.100
573.200	-29.622	0.100
573.300	-27.796	0.100
573.400	-22.680	0.100
573.500	-32.935	0.100
573.600	-28.634	0.100
573.700	-27.879	0.100
573.800	-41.867	0.100
573.900	-28.383	0.100
574.000	-23.445	0.100
574.100	-16.983	0.100
574.200	-32.341	0.100
574.300	-25.383	0.100
574.400	-34.520	0.100
574.500	-37.663	0.100
574.600	-31.955	0.100
574.700	-28.173	0.100
574.800	-31.560	0.100
574.900	-23.187	0.100
575.000	-23.796	0.100
575.100	-28.512	0.100
575.200	-22.962	0.100
575.300	-28.458	0.100
575.400	-24.869	0.100
575.500	-31.751	0.100
575.600	-30.127	0.100
575.700	-16.818	0.100
575.800	-26.184	0.100
575.900	-32.237	0.100
576.000	-32.783	0.100
576.100	-31.727	0.100
576.200	-31.873	0.100
576.300	-22.694	0.100
576.400	-33.086	0.100
576.500	-25.407	0.100
576.600	-31.276	0.100
576.700	-24.374	0.100
576.800	-25.286	0.100
576.900	-32.073	0.100
577.000	-38.422	0.100
577.100	-16.798	0.100
577.200	-28.237	0.100
577.300	-36.746	0.100
577.400	-36.444	0.100
577.500	-32.121	0.100
577.600	-30.174	0.100
577.700	-29.953	0.100
577.800	-33.353	0.100
577.900	-36.300	0.100
578.000	-31.934	0.100
578.100	-30.217	0.100
578.200	-34.579	0.100
578.300	-23.208	0.100
578.400	-31.021	0.100
578.500	-21.928	0.100
578.600	-27.640	0.100
578.700	-28.883	0.100
578.800	-33.352	0.100
578.900	-28.042	0.100
579.000	-30.492	0.100
579.100	-25.242	0.100
579.200	-27.967	0.100
579.300	-26.377	0.100
579.400	-28.592	0.100
579.500	-25.135	0.100
579.600	-33.418	0.100
579.700	-29.992	0.100
579.800	-34.687	0.100
579.900	-32.749	0.100
580.000	-27.991	0.100
580.100	-25.446	0.100
580.200	-34.814	0.100
580.300	-24.633	0.100
580.400	-30.224	0.100
580.500	-31.727	0.100
580.600	-34.624	0.100
580.700	-32.431	0.100
580.800	-32.213	0.100
580.900	-26.265	0.100
581.000	-25.785	0.100
581.100	-23.930	0.100
581.200	-21.780	0.100
581.300	-34.289	0.100
581.400	-41.525	0.100
581.500	-37.684	0.100
581.600	-38.947	0.100
581.700	-33.438	0.100
581.800	-25.538	0.100
581.900	-24.497	0.100
582.000	-31.394	0.100
582.100	-32.413	0.100
582.200	-20.742	0.100
582.300	-27.194	0.100
582.400	-27.143	0.100
582.500	-27.972	0.100
582.600	-24.846	0.100
582.700	-27.562	0.100
582.800	-32.402	0.100
582.900	-44.106	0.100
583.000	-31.773	0.100
583.100	-34.560	0.100
583.200	-14.267	0.100
583.300	-29.275	0.100
583.400	-43.201	0.100
583.500	-34.597	0.100
583.600	-34.643	0.100
583.700	-35.420	0.100
583.800	-31.039	0.100
583.900	-16.774	0.100
584.000	-25.564	0.100
584.100	-32.551	0.100
584.200	-25.020	0.100
584.300	-10.249	0.100
584.400	-22.289	0.100
584.500	-28.027	0.100
584.600	-28.925	0.100
584.700	-32.726	0.100
584.800	-30.702	0.100
584.900	-28.029	0.100
585.000	-31.256	0.100
585.100	-31.618	0.100
585.200	-30.312	0.100
585.300	-31.653	0.100
585.400	-46.597	0.100
585.500	-45.870	0.100
585.600	-36.628	0.100
585.700	-27.618	0.100
585.800	-29.776	0.100
585.900	-31.727	0.100
586.000	-19.821	0.100
586.100	-31.011	0.100
586.200	-31.931	0.100
586.300	-32.594	0.100
586.400	-26.622	0.100
586.500	-34.639	0.100
586.600	-28.604	0.100
586.700	-22.128	0.100
586.800	-27.815	0.100
586.900	-37.106	0.100
587.000	-28.674	0.100
587.100	-33.787	0.100
587.200	-40.740	0.100
587.300	-33.966	0.100
587.400	-38.181	0.100
587.500	-32.595	0.100
587.600	-24.942	0.100
587.700	-31.988	0.100
587.800	-24.478	0.100
587.900	-29.879	0.100
588.000	-30.933	0.100
588.100	-31.749	0.100
588.200	-20.108	0.100
588.300	-21.064	0.100
588.400	-28.316	0.100
588.500	-28.565	0.100
588.600	-27.517	0.100
588.700	-22.831	0.100
588.800	-30.031	0.100
588.900	-31.559	0.100
589.000	-31.801	0.100
589.100	-27.534	0.100
589.200	-31.942	0.100
589.300	-39.332	0.100
589.400	-29.920	0.100
589.500	-26.818	0.100
589.600	-32.359	0.100
589.700	-33.057	0.100
589.800	-22.171	0.100
589.900	-17.197	0.100
590.000	-22.240	0.100
590.100	-25.016	0.100
590.200	-30.578	0.100
590.300	-36.559	0.100
590.400	-43.764	0.100
590.500	-26.752	0.100
590.600	-29.454	0.100
590.700	-31.916	0.100
590.800	-20.132	0.100
590.900	-12.299	0.100
591.000	-30.971	0.100
591.100	-32.581	0.100
591.200	-36.563	0.100
591.300	-17.205	0.100
591.400	-27.668	0.100
591.500	-21.099	0.100
591.600	-26.664	0.100
591.700	-30.379	0.100
591.800	-32.540	0.100
591.900	-16.211	0.100
592.000	-32.097	0.100
592.100	-38.270	0.100
592.200	-40.608	0.100
592.300	-29.002	0.100
592.400	-28.674	0.100
592.500	-22.803	0.100
592.600	-18.771	0.100
592.700	-23.034	0.100
592.800	-31.829	0.100
592.900	-25.676	0.100
593.000	-29.686	0.100
593.100	-27.064	0.100
593.200	-27.997	0.100
593.300	-29.404	0.100
593.400	-27.110	0.100
593.500	-29.726	0.100
593.600	-20.540	0.100
593.700	-36.104	0.100
593.800	-28.172	0.100
593.900	-30.733	0.100
594.000	-20.684	0.100
594.100	-26.215	0.100
594.200	-21.484	0.100
594.300	-27.047	0.100
594.400	-11.931	0.100
594.500	-25.293	0.100
594.600	-17.634	0.100
594.700	-30.860	0.100
594.800	-26.060	0.100
594.900	-25.340	0.100
595.000	-20.506	0.100
595.100	-25.715	0.100
595.200	-26.872	0.100
595.300	-23.187	0.100
595.400	-30.487	0.100
595.500	-14.153	0.100
595.600	-26.253	0.100
595.700	-18.048	0.100
595.800	-24.008	0.100
595.900	-28.152	0.100
596.000	-30.484	0.100
596.100	-22.423	0.100
596.200	-25.043	0.100
596.300	-12.810	0.100
596.400	-32.450	0.100
596.500	-34.005	0.100
596.600	-28.575	0.100
596.700	-27.894	0.100
596.800	-22.239	0.100
596.900	-22.648	0.100
597.000	-19.851	0.100
597.100	-35.017	0.100
597.200	-43.525	0.100
597.300	-29.962	0.100
597.400	-31.687	0.100
597.500	-26.387	0.100
597.600	-17.373	0.100
597.700	-20.915	0.100
597.800	-26.670	0.100
597.900	-20.133	0.100
598.000	-19.990	0.100
598.100	-20.720	0.100
598.200	-22.548	0.100
598.300	-26.171	0.100
598.400	-24.224	0.100
598.500	-24.955	0.100
598.600	-21.814	0.100
598.700	-18.822	0.100
598.800	-26.378	0.100
598.900	-22.829	0.100
599.000	-22.361	0.100
599.100	-15.439	0.100
599.200	-15.126	0.100
599.300	-28.770	0.100
599.400	-21.465	0.100
599.500	-22.806	0.100
599.600	-20.325	0.100
599.700	-29.697	0.100
599.800	-26.860	0.100
599.900	-21.518	0.100
600.000	-24.313	0.100
600.100	-13.741	0.100
600.200	-25.149	0.100
600.300	-27.918	0.100
600.400	-26.071	0.100
600.500	-33.676	0.100
600.600	-28.660	0.100
600.700	-22.354	0.100
600.800	-15.829	0.100
600.900	-29.952	0.100
601.000	-16.116	0.100
601.100	-19.774	0.100
601.200	-22.134	0.100
601.300	-11.924	0.100
601.400	-23.219	0.100
601.500	-18.591	0.100
601.600	-30.340	0.100
601.700	-17.923	0.100
601.800	-13.534	0.100
601.900	-20.549	0.100
602.000	-23.141	0.100
602.100	-20.799	0.100
602.200	-22.311	0.100
602.300	-23.759	0.100
602.400	-27.799	0.100
602.500	-40.573	0.100
602.600	-21.957	0.100
602.700	-22.978	0.100
602.800	-22.027	0.100
602.900	-27.118	0.100
603.000	-7.983	0.100
603.100	-14.738	0.100
603.200	-15.878	0.100
603.300	-21.769	0.100
603.400	-17.829	0.100
603.500	-18.309	0.100
603.600	-31.443	0.100
603.700	-13.079	0.100
603.800	-25.736	0.100
603.900	-22.591	0.100
604.000	-21.713	0.100
604.100	-13.656	0.100
604.200	-14.545	0.100
604.300	-21.129	0.100
604.400	-22.363	0.100
604.500	-19.257	0.100
604.600	-24.100	0.100
604.700	-25.879	0.100
604.800	-23.513	0.100
604.900	-23.241	0.100
605.000	-28.582	0.100
605.100	-24.277	0.100
605.200	-31.008	0.100
605.300	-33.912	0.100
605.400	-19.453	0.100
605.500	-21.693	0.100
605.600	-11.546	0.100
605.700	-20.151	0.100
605.800	-14.001	0.100
605.900	-25.577	0.100
606.000	-29.864	0.100
606.100	-17.339	0.100
606.200	-14.420	0.100
606.300	-31.773	0.100
606.400	-31.066	0.100
606.500	-23.564	0.100
606.600	-20.023	0.100
606.700	-16.672	0.100
606.800	-27.998	0.100
606.900	-17.109	0.100
607.000	-18.810	0.100
607.100	-18.652	0.100
607.200	-22.769	0.100
607.300	-27.793	0.100
607.400	-20.822	0.100
607.500	-16.104	0.100
607.600	-19.761	0.100
607.700	-29.060	0.100
607.800	-14.950	0.100
607.900	-15.854	0.100
608.000	-9.390	0.100
608.100	-16.033	0.100
608.200	-17.101	0.100
608.300	-16.681	0.100
608.400	-25.280	0.100
608.500	-27.113	0.100
608.600	-28.110	0.100
608.700	-25.270	0.100
608.800	-25.504	0.100
608.900	-14.026	0.100
609.000	-23.740	0.100
609.100	-19.532	0.100
609.200	-21.127	0.100
609.300	-21.239	0.100
609.400	-36.233	0.100
609.500	-8.250	0.100
609.600	-11.830	0.100
609.700	-16.527	0.100
609.800	-19.884	0.100
609.900	-30.516	0.100
610.000	-21.750	0.100
610.100	-19.376	0.100
610.200	-2.910	0.100
610.300	-22.711	0.100
610.400	-25.663	0.100
610.500	-21.048	0.100
610.600	-22.547	0.100
610.700	-17.382	0.100
610.800	-29.372	0.100
610.900	-19.379	0.100
611.000	-19.513	0.100
611.100	-14.671	0.100
611.200	-15.349	0.100
611.300	-20.954	0.100
611.400	-29.366	0.100
611.500	-34.656	0.100
611.600	-20.972	0.100
611.700	-16.942	0.100
611.800	-15.561	0.100
611.900	-17.002	0.100
612.000	-23.555	0.100
612.100	-21.748	0.100
612.200	-20.683	0.100
612.300	-21.290	0.100
612.400	-17.464	0.100
612.500	-12.931	0.100
612.600	-13.801	0.100
612.700	-32.095	0.100
612.800	-21.183	0.100
612.900	-16.172	0.100
613.000	-17.512	0.100
613.100	-21.711	0.100
613.200	-13.849	0.100
613.300	-32.232	0.100
613.400	-13.354	0.100
613.500	-20.281	0.100
613.600	-19.415	0.100
613.700	-24.216	0.100
613.800	-20.049	0.100
613.900	-24.286	0.100
614.000	-4.672	0.100
614.100	-15.544	0.100
614.200	-33.609	0.100
614.300	-20.846	0.100
614.400	-15.949	0.100
614.500	-22.282	0.100
614.600	-19.706	0.100
614.700	-17.320	0.100
614.800	-10.148	0.100
614.900	-19.066	0.100
615.000	-19.109	0.100
615.100	-17.909	0.100
615.200	-15.432	0.100
615.300	-14.892	0.100
615.400	-13.352	0.100
615.500	-21.932	0.100
615.600	-27.289	0.100
615.700	-17.258	0.100
615.800	-7.037	0.100
615.900	-17.188	0.100
616.000	-18.424	0.100
616.100	-18.111	0.100
616.200	-25.359	0.100
616.300	-23.265	0.100
616.400	-18.925	0.100
616.500	-25.813	0.100
616.600	-6.864	0.100
616.700	-16.007	0.100
616.800	-16.311	0.100
616.900	-13.971	0.100
617.000	-25.766	0.100
617.100	-20.981	0.100
617.200	-24.270	0.100
617.300	-23.545	0.100
617.400	-20.554	0.100
617.500	-19.889	0.100
617.600	-11.837	0.100
617.700	-26.633	0.100
617.800	-13.131	0.100
617.900	-5.657	0.100
618.000	-11.440	0.100
618.100	-17.540	0.100
618.200	-6.129	0.100
618.300	-24.832	0.100
618.400	-18.965	0.100
618.500	-17.978	0.100
618.600	-15.501	0.100
618.700	-18.063	0.100
618.800	-22.104	0.100
618.900	-19.977	0.100
619.000	-23.891	0.100
619.100	-14.478	0.100
619.200	-11.571	0.100
619.300	-14.356	0.100
619.400	-27.779	0.100
619.500	-27.473	0.100
619.600	-22.607	0.100
619.700	-19.892	0.100
619.800	-26.511	0.100
619.900	-22.525	0.100
620.000	-11.916	0.100
620.100	-20.932	0.100
620.200	-14.071	0.100
620.300	-17.860	0.100
620.400	-27.546	0.100
620.500	-20.568	0.100
620.600	-13.282	0.100
620.700	-19.943	0.100
620.800	-21.750	0.100
620.900	-19.457	0.100
621.000	-21.852	0.100
621.100	-15.297	0.100
621.200	-10.284	0.100
621.300	-21.221	0.100
621.400	-14.116	0.100
621.500	-12.799	0.100
621.600	-6.017	0.100
621.700	-16.966	0.100
621.800	-22.171	0.100
621.900	-22.715	0.100
622.000	-16.305	0.100
622.100	-23.771	0.100
622.200	-24.807	0.100
622.300	-19.601	0.100
622.400	-14.117	0.100
622.500	-22.197	0.100
622.600	-15.927	0.100
622.700	-12.691	0.100
622.800	-18.380	0.100
622.900	-12.034	0.100
623.000	-22.546	0.100
623.100	-18.126	0.100
623.200	-19.459	0.100
623.300	-17.253	0.100
623.400	-27.779	0.100
623.500	-12.425	0.100
623.600	-15.797	0.100
623.700	-8.559	0.100
623.800	-14.375	0.100
623.900	-20.213	0.100
624.000	-14.529	0.100
624.100	-32.234	0.100
624.200	-26.514	0.100
624.300	-17.674	0.100
624.400	-18.848	0.100
624.500	-24.180	0.100
624.600	-11.569	0.100
624.700	-18.784	0.100
624.800	-17.752	0.100
624.900	-18.983	0.100
625.000	-12.066	0.100
625.100	-14.556	0.100
625.200	-23.528	0.100
625.300	-24.100	0.100
625.400	-22.796	0.100
625.500	-17.716	0.100
625.600	-20.647	0.100
625.700	-18.223	0.100
625.800	-23.200	0.100
625.900	-12.620	0.100
626.000	-10.476	0.100
626.100	-24.213	0.100
626.200	-18.076	0.100
626.300	-20.105	0.100
626.400	-19.430	0.100
626.500	-15.823	0.100
626.600	-22.672	0.100
626.700	-9.419	0.100
626.800	-8.812	0.100
626.900	-4.830	0.100
627.000	-21.227	0.100
627.100	-28.217	0.100
627.200	-14.641	0.100
627.300	-13.170	0.100
627.400	-21.951	0.100
627.500	-20.601	0.100
627.600	-25.758	0.100
627.700	-18.952	0.100
627.800	-3.874	0.100
627.900	-5.811	0.100
628.000	-15.248	0.100
628.100	-16.090	0.100
628.200	-20.201	0.100
628.300	-16.756	0.100
628.400	-20.723	0.100
628.500	-25.898	0.100
628.600	-18.396	0.100
628.700	-10.363	0.100
628.800	-14.691	0.100
628.900	-18.064	0.100
629.000	-16.062	0.100
629.100	-21.603	0.100
629.200	-10.023	0.100
629.300	-12.621	0.100
629.400	-9.470	0.100
629.500	-28.064	0.100
629.600	-6.495	0.100
629.700	-10.898	0.100
629.800	-20.882	0.100
629.900	-24.508	0.100
630.000	-11.324	0.100
630.100	-20.329	0.100
630.200	-20.160	0.100
630.300	-13.167	0.100
630.400	-21.377	0.100
630.500	-21.211	0.100
630.600	-4.078	0.100
630.700	-4.259	0.100
630.800	4.241	0.100
630.900	-6.218	0.100
631.000	-8.114	0.100
631.100	1.828	0.100
631.200	-9.104	0.100
631.300	16.157	0.100
631.400	13.767	0.100
631.500	14.697	0.100
631.600	20.890	0.100
631.700	23.501	0.100
631.800	15.498	0.100
631.900	13.352	0.100
632.000	23.410	0.100
632.100	21.527	0.100
632.200	16.348	0.100
632.300	24.147	0.100
632.400	17.328	0.100
632.500	29.811	0.100
632.600	27.510	0.100
632.700	19.894	0.100
632.800	32.755	0.100
632.900	20.806	0.100
633.000	31.215	0.100
633.100	21.191	0.100
633.200	26.106	0.100
633.300	41.469	0.100
633.400	13.315	0.100
633.500	33.382	0.100
633.600	29.650	0.100
633.700	23.580	0.100
633.800	26.479	0.100
633.900	31.743	0.100
634.000	29.381	0.100
634.100	30.088	0.100
634.200	30.334	0.100
634.300	28.716	0.100
634.400	21.694	0.100
634.500	21.952	0.100
634.600	34.906	0.100
634.700	24.426	0.100
634.800	31.320	0.100
634.900	29.815	0.100
635.000	30.027	0.100
635.100	28.601	0.100
635.200	17.811	0.100
635.300	32.068	0.100
635.400	30.397	0.100
635.500	27.005	0.100
635.600	25.559	0.100
635.700	28.020	0.100
635.800	24.768	0.100
635.900	16.457	0.100
636.000	18.023	0.100
636.100	23.191	0.100
636.200	13.018	0.100
636.300	30.125	0.100
636.400	24.042	0.100
636.500	18.352	0.100
636.600	21.162	0.100
636.700	21.707	0.100
636.800	11.776	0.100
636.900	14.902	0.100
637.000	26.091	0.100
637.100	33.284	0.100
637.200	19.832	0.100
637.300	19.748	0.100
637.400	14.286	0.100
637.500	15.010	0.100
637.600	14.001	0.100
637.700	21.984	0.100
637.800	15.553	0.100
637.900	12.253	0.100
638.000	21.569	0.100
638.100	23.249	0.100
638.200	23.977	0.100
638.300	17.083	0.100
638.400	27.962	0.100
638.500	33.765	0.100
638.600	19.417	0.100
638.700	17.647	0.100
638.800	25.808	0.100
638.900	14.786	0.100
639.000	19.141	0.100
639.100	22.986	0.100
639.200	19.928	0.100
639.300	14.116	0.100
639.400	12.587	0.100
639.500	18.513	0.100
639.600	26.400	0.100
639.700	22.587	0.100
639.800	23.918	0.100
639.900	15.385	0.100
640.000	6.809	0.100
640.100	20.489	0.100
640.200	31.124	0.100
640.300	26.224	0.100
640.400	22.829	0.100
640.500	15.607	0.100
640.600	23.128	0.100
640.700	15.291	0.100
640.800	15.000	0.100
640.900	15.932	0.100
641.000	26.603	0.100
641.100	28.334	0.100
641.200	31.158	0.100
641.300	18.223	0.100
641.400	19.833	0.100
641.500	19.914	0.100
641.600	15.439	0.100
641.700	14.859	0.100
641.800	21.360	0.100
641.900	18.376	0.100
642.000	23.005	0.100
642.100	14.588	0.100
642.200	21.357	0.100
642.300	18.508	0.100
642.400	19.587	0.100
642.500	26.587	0.100
642.600	28.402	0.100
642.700	23.062	0.100
642.800	22.635	0.100
642.900	27.790	0.100
643.000	21.675	0.100
643.100	22.936	0.100
643.200	21.564	0.100
643.300	18.518	0.100
643.400	21.857	0.100
643.500	28.202	0.100
643.600	18.421	0.100
643.700	32.888	0.100
643.800	23.765	0.100
643.900	27.615	0.100
644.000	21.756	0.100
644.100	14.560	0.100
644.200	26.827	0.100
644.300	22.620	0.100
644.400	22.888	0.100
644.500	17.934	0.100
644.600	24.648	0.100
644.700	16.369	0.100
644.800	30.050	0.100
644.900	19.707	0.100
645.000	13.790	0.100
645.100	24.697	0.100
645.200	27.369	0.100
645.300	26.497	0.100
645.400	20.089	0.100
645.500	22.650	0.100
645.600	25.824	0.100
645.700	30.002	0.100
645.800	24.337	0.100
645.900	30.216	0.100
646.000	29.095	0.100
646.100	27.892	0.100
646.200	38.021	0.100
646.300	24.788	0.100
646.400	19.006	0.100
646.500	33.222	0.100
646.600	24.702	0.100
646.700	27.272	0.100
646.800	34.540	0.100
646.900	26.082	0.100
647.000	23.149	0.100
647.100	28.606	0.100
647.200	27.941	0.100
647.300	19.701	0.100
647.400	33.735	0.100
647.500	25.120	0.100
647.600	29.191	0.100
647.700	30.887	0.100
647.800	24.492	0.100
647.900	26.096	0.100
648.000	26.210	0.100
648.100	38.879	0.100
648.200	41.208	0.100
648.300	31.273	0.100
648.400	20.684	0.100
648.500	23.005	0.100
648.600	21.145	0.100
648.700	21.421	0.100
648.800	30.538	0.100
648.900	26.171	0.100
649.000	35.917	0.100
649.100	26.785	0.100
649.200	20.184	0.100
649.300	35.000	0.100
649.400	30.705	0.100
649.500	31.836	0.100
649.600	36.860	0.100
649.700	36.114	0.100
649.800	38.991	0.100
649.900	35.928	0.100
650.000	22.005	0.100
650.100	31.753	0.100
650.200	34.494	0.100
650.300	43.698	0.100
650.400	35.666	0.100
650.500	26.958	0.100
650.600	34.713	0.100
650.700	33.710	0.100
650.800	32.529	0.100
650.900	51.629	0.100
651.000	30.305	0.100
651.100	36.495	0.100
651.200	29.098	0.100
651.300	26.698	0.100
651.400	31.308	0.100
651.500	36.199	0.100
651.600	30.661	0.100
651.700	31.499	0.100
651.800	35.837	0.100
651.900	41.223	0.100
652.000	40.358	0.100
652.100	38.486	0.100
652.200	33.866	0.100
652.300	44.646	0.100
652.400	40.818	0.100
652.500	42.592	0.100
652.600	33.359	0.100
652.700	31.320	0.100
652.800	36.596	0.100
652.900	38.157	0.100
653.000	33.735	0.100
653.100	39.661	0.100
653.200	40.236	0.100
653.300	32.047	0.100
653.400	46.192	0.100
653.500	31.742	0.100
653.600	28.934	0.100
653.700	39.746	0.100
653.800	32.096	0.100
653.900	49.636	0.100
654.000	44.343	0.100
654.100	37.765	0.100
654.200	35.842	0.100
654.300	39.410	0.100
654.400	44.314	0.100
654.500	39.494	0.100
654.600	41.324	0.100
654.700	29.120	0.100
654.800	45.079	0.100
654.900	42.609	0.100
655.000	50.629	0.100
655.100	46.806	0.100
655.200	45.539	0.100
655.300	43.637	0.100
655.400	33.543	0.100
655.500	32.277	0.100
655.600	34.064	0.100
655.700	32.754	0.100
655.800	41.078	0.100
655.900	52.462	0.100
656.000	56.228	0.100
656.100	42.181	0.100
656.200	45.910	0.100
656.300	49.704	0.100
656.400	39.284	0.100
656.500	40.285	0.100
656.600	48.428	0.100
656.700	45.931	0.100
656.800	34.061	0.100
656.900	43.228	0.100
657.000	46.981	0.100
657.100	40.060	0.100
657.200	50.708	0.100
657.300	48.593	0.100
657.400	43.701	0.100
657.500	44.235	0.100
657.600	47.067	0.100
657.700	52.442	0.100
657.800	46.327	0.100
657.900	46.454	0.100
658.000	40.540	0.100
658.100	33.295	0.100
658.200	43.411	0.100
658.300	50.281	0.100
658.400	47.614	0.100
658.500	38.468	0.100
658.600	39.177	0.100
658.700	43.109	0.100
658.800	40.993	0.100
658.900	53.947	0.100
659.000	49.892	0.100
659.100	42.155	0.100
659.200	51.700	0.100
659.300	35.269	0.100
659.400	49.543	0.100
659.500	40.072	0.100
659.600	45.123	0.100
659.700	41.914	0.100
659.800	44.733	0.100
659.900	46.789	0.100
660.000	41.963	0.100
660.100	50.578	0.100
660.200	45.093	0.100
660.300	46.533	0.100
660.400	42.097	0.100
660.500	51.246	0.100
660.600	44.197	0.100
660.700	48.305	0.100
660.800	39.674	0.100
660.900	48.285	0.100
661.000	42.626	0.100
661.100	39.526	0.100
661.200	42.685	0.100
661.300	40.661	0.100
661.400	46.058	0.100
661.500	44.893	0.100
661.600	46.604	0.100
661.700	50.753	0.100
661.800	45.952	0.100
661.900	51.118	0.100
662.000	53.501	0.100
662.100	41.729	0.100
662.200	57.640	0.100
662.300	43.331	0.100
662.400	51.288	0.100
662.500	35.091	0.100
662.600	54.068	0.100
662.700	55.369	0.100
662.800	58.482	0.100
662.900	42.562	0.100
663.000	46.776	0.100
663.100	47.223	0.100
663.200	49.701	0.100
663.300	45.491	0.100
663.400	49.243	0.100
663.500	59.056	0.100
663.600	39.714	0.100
663.700	46.963	0.100
663.800	55.890	0.100
663.900	47.767	0.100
664.000	58.418	0.100
664.100	55.085	0.100
664.200	41.592	0.100
664.300	52.530	0.100
664.400	37.013	0.100
664.500	36.186	0.100
664.600	40.065	0.100
664.700	51.912	0.100
664.800	58.505	0.100
664.900	44.298	0.100
665.000	39.821	0.100
665.100	47.540	0.100
665.200	42.665	0.100
665.300	51.579	0.100
665.400	48.742	0.100
665.500	49.250	0.100
665.600	37.744	0.100
665.700	49.387	0.100
665.800	39.960	0.100
665.900	53.304	0.100
666.000	44.243	0.100
666.100	57.102	0.100
666.200	48.191	0.100
666.300	44.443	0.100
666.400	51.808	0.100
666.500	39.482	0.100
666.600	43.013	0.100
666.700	51.884	0.100
666.800	44.899	0.100
666.900	41.250	0.100
667.000	48.099	0.100
667.100	43.671	0.100
667.200	51.709	0.100
667.300	44.933	0.100
667.400	50.302	0.100
667.500	40.396	0.100
667.600	39.618	0.100
667.700	39.851	0.100
667.800	46.722	0.100
667.900	42.212	0.100
668.000	50.477	0.100
668.100	55.963	0.100
668.200	53.104	0.100
668.300	39.688	0.100
668.400	48.551	0.100
668.500	37.158	0.100
668.600	37.520	0.100
668.700	50.994	0.100
668.800	43.922	0.100
668.900	54.174	0.100
669.000	36.093	0.100
669.100	51.583	0.100
669.200	41.898	0.100
669.300	44.805	0.100
669.400	42.309	0.100
669.500	49.314	0.100
669.600	42.116	0.100
669.700	47.857	0.100
669.800	48.680	0.100
669.900	42.024	0.100
670.000	46.917	0.100
670.100	48.561	0.100
670.200	40.092	0.100
670.300	42.358	0.100
670.400	51.537	0.100
670.500	43.048	0.100
670.600	42.842	0.100
670.700	39.802	0.100
670.800	51.827	0.100
670.900	44.722	0.100
671.000	39.465	0.100
671.100	49.677	0.100
671.200	36.404	0.100
671.300	46.263	0.100
671.400	35.386	0.100
671.500	50.905	0.100
671.600	51.485	0.100
671.700	48.974	0.100
671.800	40.240	0.100
671.900	43.984	0.100
672.000	45.502	0.100
672.100	44.169	0.100
672.200	36.819	0.100
672.300	51.657	0.100
672.400	42.089	0.100
672.500	50.619	0.100
672.600	39.287	0.100
672.700	33.815	0.100
672.800	40.575	0.100
672.900	49.401	0.100
673.000	52.083	0.100
673.100	44.597	0.100
673.200	41.993	0.100
673.300	44.984	0.100
673.400	49.872	0.100
673.500	41.217	0.100
673.600	33.920	0.100
673.700	51.306	0.100
673.800	43.648	0.100
673.900	48.637	0.100
674.000	45.068	0.100
674.100	54.293	0.100
674.200	52.052	0.100
674.300	45.173	0.100
674.400	41.428	0.100
674.500	40.645	0.100
674.600	40.179	0.100
674.700	45.557	0.100
674.800	31.191	0.100
674.900	38.777	0.100
675.000	39.825	0.100
675.100	46.758	0.100
675.200	38.484	0.100
675.300	36.957	0.100
675.400	42.651	0.100
675.500	48.961	0.100
675.600	42.138	0.100
675.700	51.628	0.100
675.800	45.327	0.100
675.900	27.130	0.100
676.000	52.194	0.100
676.100	48.915	0.100
676.200	43.040	0.100
676.300	36.435	0.100
676.400	46.732	0.100
676.500	39.370	0.100
676.600	39.838	0.100
676.700	41.883	0.100
676.800	44.255	0.100
676.900	41.444	0.100
677.000	37.885	0.100
677.100	35.390	0.100
677.200	40.912	0.100
677.300	45.089	0.100
677.400	48.329	0.100
677.500	39.013	0.100
677.600	53.608	0.100
677.700	42.843	0.100
677.800	42.054	0.100
677.900	48.467	0.100
678.000	51.609	0.100
678.100	45.077	0.100
678.200	45.111	0.100
678.300	38.271	0.100
678.400	37.277	0.100
678.500	43.841	0.100
678.600	45.448	0.100
678.700	32.494	0.100
678.800	28.907	0.100
678.900	49.867	0.100
679.000	41.222	0.100
679.100	38.265	0.100
679.200	37.498	0.100
679.300	54.888	0.100
679.400	42.168	0.100
679.500	36.159	0.100
679.600	48.211	0.100
679.700	42.396	0.100
679.800	49.793	0.100
679.900	49.775	0.100
680.000	41.693	0.100
680.100	45.140	0.100
680.200	49.354	0.100
680.300	54.506	0.100
680.400	45.327	0.100
680.500	44.866	0.100
680.600	30.100	0.100
680.700	48.676	0.100
680.800	48.383	0.100
680.900	45.407	0.100
681.000	38.069	0.100
681.100	30.025	0.100
681.200	43.273	0.100
681.300	40.207	0.100
681.400	42.623	0.100
681.500	41.508	0.100
681.600	33.548	0.100
681.700	36.654	0.100
681.800	37.669	0.100
681.900	45.735	0.100
682.000	46.657	0.100
682.100	36.551	0.100
682.200	37.222	0.100
682.300	54.021	0.100
682.400	47.568	0.100
682.500	37.781	0.100
682.600	38.328	0.100
682.700	29.632	0.100
682.800	43.216	0.100
682.900	36.109	0.100
683.000	42.298	0.100
683.100	35.043	0.100
683.200	42.573	0.100
683.300	42.740	0.100
683.400	42.151	0.100
683.500	52.432	0.100
683.600	47.271	0.100
683.700	47.011	0.100
683.800	47.343	0.100
683.900	43.296	0.100
684.000	36.063	0.100
684.100	50.418	0.100
684.200	47.866	0.100
684.300	46.695	0.100
684.400	36.953	0.100
684.500	45.495	0.100
684.600	53.762	0.100
684.700	46.242	0.100
684.800	34.078	0.100
684.900	30.733	0.100
685.000	31.285	0.100
685.100	36.617	0.100
685.200	35.590	0.100
685.300	43.596	0.100
685.400	44.129	0.100
685.500	39.062	0.100
685.600	39.367	0.100
685.700	45.528	0.100
685.800	44.451	0.100
685.900	45.203	0.100
686.000	45.146	0.100
686.100	50.724	0.100
686.200	33.037	0.100
686.300	39.693	0.100
686.400	42.042	0.100
686.500	37.993	0.100
686.600	40.463	0.100
686.700	44.343	0.100
686.800	42.056	0.100
686.900	43.714	0.100
687.000	31.067	0.100
687.100	37.352	0.100
687.200	41.338	0.100
687.300	36.607	0.100
687.400	38.225	0.100
687.500	44.983	0.100
687.600	57.371	0.100
687.700	38.419	0.100
687.800	29.972	0.100
687.900	36.239	0.100
688.000	46.926	0.100
688.100	31.274	0.100
688.200	32.598	0.100
688.300	33.467	0.100
688.400	42.173	0.100
688.500	43.673	0.100
688.600	42.471	0.100
688.700	37.549	0.100
688.800	47.525	0.100
688.900	42.269	0.100
689.000	47.644	0.100
689.100	43.885	0.100
689.200	29.642	0.100
689.300	37.669	0.100
689.400	38.206	0.100
689.500	40.641	0.100
689.600	37.573	0.100
689.700	28.749	0.100
689.800	38.797	0.100
689.900	33.543	0.100
690.000	43.497	0.100
690.100	52.491	0.100
690.200	44.365	0.100
690.300	44.063	0.100
690.400	32.965	0.100
690.500	36.023	0.100
690.600	34.257	0.100
690.700	22.519	0.100
690.800	30.587	0.100
690.900	42.630	0.100
691.000	21.508	0.100
691.100	15.762	0.100
691.200	25.507	0.100
691.300	26.129	0.100
691.400	19.664	0.100
691.500	22.738	0.100
691.600	18.553	0.100
691.700	14.780	0.100
691.800	21.392	0.100
691.900	8.689	0.100
692.000	16.919	0.100
692.100	4.198	0.100
692.200	18.144	0.100
692.300	11.857	0.100
692.400	-1.429	0.100
692.500	13.855	0.100
692.600	8.973	0.100
692.700	2.430	0.100
692.800	8.186	0.100
692.900	-0.103	0.100
693.000	4.134	0.100
693.100	-5.611	0.100
693.200	11.554	0.100
693.300	10.494	0.100
693.400	8.439	0.100
693.500	0.711	0.100
693.600	19.114	0.100
693.700	3.243	0.100
693.800	-7.230	0.100
693.900	-7.255	0.100
694.000	0.686	0.100
694.100	12.193	0.100
694.200	10.502	0.100
694.300	5.851	0.100
694.400	17.239	0.100
694.500	-5.242	0.100
694.600	15.625	0.100
694.700	0.139	0.100
694.800	-6.602	0.100
694.900	-3.016	0.100
695.000	5.843	0.100
695.100	13.931	0.100
695.200	6.126	0.100
695.300	-10.146	0.100
695.400	9.455	0.100
695.500	4.510	0.100
695.600	9.898	0.100
695.700	1.598	0.100
695.800	-6.153	0.100
695.900	1.749	0.100
696.000	2.253	0.100
696.100	-6.064	0.100
696.200	-3.953	0.100
696.300	-3.998	0.100
696.400	-4.135	0.100
696.500	-1.532	0.100
696.600	-0.835	0.100
696.700	8.567	0.100
696.800	12.173	0.100
696.900	4.044	0.100
697.000	3.180	0.100
697.100	4.979	0.100
697.200	2.463	0.100
697.300	1.883	0.100
697.400	9.725	0.100
697.500	1.232	0.100
697.600	2.672	0.100
697.700	10.831	0.100
697.800	7.910	0.100
697.900	1.388	0.100
698.000	-8.134	0.100
698.100	8.082	0.100
698.200	12.945	0.100
698.300	-1.627	0.100
698.400	-8.961	0.100
698.500	0.152	0.100
698.600	-3.423	0.100
698.700	-8.066	0.100
698.800	5.258	0.100
698.900	3.814	0.100
699.000	-5.305	0.100
699.100	6.788	0.100
699.200	-6.852	0.100
699.300	-2.829	0.100
699.400	-2.175	0.100
699.500	2.406	0.100
699.600	0.665	0.100
699.700	-11.146	0.100
699.800	5.616	0.100
699.900	16.638	0.100
700.000	14.539	0.100
700.100	5.801	0.100
700.200	-7.695	0.100
700.300	-0.604	0.100
700.400	-0.700	0.100
700.500	-5.335	0.100
700.600	1.274	0.100
700.700	5.278	0.100
700.800	0.155	0.100
700.900	-4.721	0.100
701.000	-14.069	0.100
701.100	-15.320	0.100
701.200	6.208	0.100
701.300	-2.930	0.100
701.400	0.225	0.100
701.500	-12.000	0.100
701.600	-0.458	0.100
701.700	-3.300	0.100
701.800	1.978	0.100
701.900	-6.545	0.100
702.000	-3.098	0.100
702.100	0.213	0.100
702.200	1.765	0.100
702.300	-4.272	0.100
702.400	2.343	0.100
702.500	-4.387	0.100
702.600	-9.542	0.100
702.700	3.752	0.100
702.800	-0.176	0.100
702.900	-6.285	0.100
703.000	-5.259	0.100
703.100	-3.268	0.100
703.200	-11.285	0.100
703.300	-6.533	0.100
703.400	-4.026	0.100
703.500	-14.846	0.100
703.600	-3.044	0.100
703.700	-3.158	0.100
703.800	-6.947	0.100
703.900	-11.872	0.100
704.000	-13.494	0.100
704.100	-6.248	0.100
704.200	-9.466	0.100
704.300	-8.912	0.100
704.400	-1.169	0.100
704.500	-8.727	0.100
704.600	-7.481	0.100
704.700	-14.736	0.100
704.800	-6.059	0.100
704.900	-14.169	0.100
705.000	-11.261	0.100
705.100	-0.502	0.100
705.200	4.156	0.100
705.300	-4.371	0.100
705.400	-7.427	0.100
705.500	-8.551	0.100
705.600	2.620	0.100
705.700	-3.676	0.100
705.800	-16.048	0.100
705.900	-10.522	0.100
706.000	-5.055	0.100
706.100	-8.598	0.100
706.200	-6.594	0.100
706.300	-13.957	0.100
706.400	-13.175	0.100
706.500	-17.201	0.100
706.600	-19.053	0.100
706.700	-12.186	0.100
706.800	-9.611	0.100
706.900	-7.180	0.100
707.000	-3.964	0.100
707.100	-14.535	0.100
707.200	-21.724	0.100
707.300	-12.483	0.100
707.400	-8.787	0.100
707.500	-13.928	0.100
707.600	-2.220	0.100
707.700	-10.063	0.100
707.800	-5.897	0.100
707.900	-8.184	0.100
708.000	-5.014	0.100
708.100	-13.721	0.100
708.200	-8.686	0.100
708.300	-8.904	0.100
708.400	-15.144	0.100
708.500	-15.839	0.100
708.600	-7.021	0.100
708.700	-11.615	0.100
708.800	-14.793	0.100
708.900	-13.694	0.100
709.000	-17.465	0.100
709.100	-19.713	0.100
709.200	-12.424	0.100
709.300	-10.721	0.100
709.400	-14.602	0.100
709.500	-14.053	0.100
709.600	-8.358	0.100
709.700	-7.950	0.100
709.800	-19.935	0.100
709.900	-16.594	0.100
710.000	-12.194	0.100
710.100	-11.574	0.100
710.200	-20.501	0.100
710.300	-17.325	0.100
710.400	-11.216	0.100
710.500	-21.556	0.100
710.600	-10.046	0.100
710.700	-17.880	0.100
710.800	-15.582	0.100
710.900	-20.009	0.100
711.000	-10.092	0.100
711.100	-12.838	0.100
711.200	-4.740	0.100
711.300	-10.148	0.100
711.400	-13.700	0.100
711.500	-14.996	0.100
711.600	-14.913	0.100
711.700	-17.220	0.100
711.800	-15.361	0.100
711.900	-19.913	0.100
712.000	-15.097	0.100
712.100	-17.693	0.100
712.200	-15.298	0.100
712.300	-14.050	0.100
712.400	-19.903	0.100
712.500	-7.372	0.100
712.600	-11.933	0.100
712.700	-21.166	0.100
712.800	-18.907	0.100
712.900	-10.858	0.100
713.000	-18.046	0.100
713.100	-12.024	0.100
713.200	-25.186	0.100
713.300	-10.676	0.100
713.400	-17.392	0.100
713.500	-6.967	0.100
713.600	-15.966	0.100
713.700	-25.564	0.100
713.800	-6.491	0.100
713.900	-12.142	0.100
714.000	-22.005	0.100
714.100	-29.205	0.100
714.200	-23.671	0.100
714.300	-13.504	0.100
714.400	-10.172	0.100
714.500	-11.720	0.100
714.600	-7.008	0.100
714.700	-26.472	0.100
714.800	-17.070	0.100
714.900	-25.535	0.100
715.000	-22.118	0.100
715.100	-16.193	0.100
715.200	-14.524	0.100
715.300	-18.606	0.100
715.400	-20.851	0.100
715.500	-9.417	0.100
715.600	-20.071	0.100
715.700	-15.232	0.100
715.800	-19.376	0.100
715.900	-19.397	0.100
716.000	-18.089	0.100
716.100	-21.412	0.100
716.200	-21.508	0.100
716.300	-22.478	0.100
716.400	-24.186	0.100
716.500	-31.185	0.100
716.600	-24.882	0.100
716.700	-16.019	0.100
716.800	-22.400	0.100
716.900	-18.015	0.100
717.000	-26.631	0.100
717.100	-13.225	0.100
717.200	-8.726	0.100
717.300	-7.973	0.100
717.400	-8.919	0.100
717.500	-15.073	0.100
717.600	-19.529	0.100
717.700	-24.592	0.100
717.800	-28.225	0.100
717.900	-27.292	0.100
718.000	-27.537	0.100
718.100	-27.001	0.100
718.200	-16.773	0.100
718.300	-28.142	0.100
718.400	-32.020	0.100
718.500	-14.662	0.100
718.600	-20.076	0.100
718.700	-22.424	0.100
718.800	-14.345	0.100
718.900	-28.337	0.100
719.000	-22.024	0.100
719.100	-28.220	0.100
719.200	-22.857	0.100
719.300	-27.353	0.100
719.400	-9.277	0.100
719.500	-15.633	0.100
719.600	-29.566	0.100
719.700	-29.689	0.100
719.800	-21.823	0.100
719.900	-29.502	0.100
720.000	-17.161	0.100
720.100	-25.222	0.100
720.200	-35.985	0.100
720.300	-14.454	0.100
720.400	-25.758	0.100
720.500	-24.276	0.100
720.600	-20.194	0.100
720.700	-22.527	0.100
720.800	-27.779	0.100
720.900	-24.551	0.100
721.000	-25.944	0.100
721.100	-20.780	0.100
721.200	-20.848	0.100
721.300	-18.930	0.100
721.400	-19.116	0.100
721.500	-28.750	0.100
721.600	-33.995	0.100
721.700	-23.117	0.100
721.800	-17.671	0.100
721.900	-18.141	0.100
722.000	-22.981	0.100
722.100	-26.397	0.100
722.200	-35.908	0.100
722.300	-15.080	0.100
722.400	-27.255	0.100
722.500	-27.443	0.100
722.600	-26.825	0.100
722.700	-32.665	0.100
722.800	-27.709	0.100
722.900	-20.101	0.100
723.000	-18.473	0.100
723.100	-29.159	0.100
723.200	-35.353	0.100
723.300	-36.144	0.100
723.400	-31.637	0.100
723.500	-31.234	0.100
723.600	-26.759	0.100
723.700	-17.970	0.100
723.800	-24.013	0.100
723.900	-29.971	0.100
724.000	-21.649	0.100
724.100	-19.548	0.100
724.200	-29.335	0.100
724.300	-26.167	0.100
724.400	-27.160	0.100
724.500	-33.540	0.100
724.600	-32.615	0.100
724.700	-36.089	0.100
724.800	-29.201	0.100
724.900	-20.023	0.100
725.000	-26.562	0.100
725.100	-21.223	0.100
725.200	-28.380	0.100
725.300	-27.265	0.100
725.400	-33.333	0.100
725.500	-24.265	0.100
725.600	-30.600	0.100
725.700	-27.359	0.100
725.800	-25.732	0.100
725.900	-34.798	0.100
726.000	-26.343	0.100
726.100	-23.995	0.100
726.200	-27.839	0.100
726.300	-33.338	0.100
726.400	-42.671	0.100
726.500	-21.368	0.100
726.600	-25.779	0.100
726.700	-27.808	0.100
726.800	-36.150	0.100
726.900	-20.645	0.100
727.000	-29.536	0.100
727.100	-30.459	0.100
727.200	-34.577	0.100
727.300	-27.190	0.100
727.400	-31.962	0.100
727.500	-30.514	0.100
727.600	-20.600	0.100
727.700	-37.231	0.100
727.800	-24.879	0.100
727.900	-27.642	0.100
728.000	-28.409	0.100
728.100	-33.926	0.100
728.200	-25.403	0.100
728.300	-24.719	0.100
728.400	-30.146	0.100
728.500	-40.876	0.100
728.600	-32.409	0.100
728.700	-23.702	0.100
728.800	-24.426	0.100
728.900	-32.666	0.100
729.000	-20.897	0.100
729.100	-24.715	0.100
729.200	-34.801	0.100
729.300	-19.937	0.100
729.400	-38.335	0.100
729.500	-30.468	0.100
729.600	-22.419	0.100
729.700	-32.427	0.100
729.800	-32.936	0.100
729.900	-24.437	0.100
730.000	-29.251	0.100
730.100	-35.970	0.100
730.200	-31.403	0.100
730.300	-12.131	0.100
730.400	-25.785	0.100
730.500	-39.919	0.100
730.600	-31.117	0.100
730.700	-33.180	0.100
730.800	-24.628	0.100
730.900	-24.214	0.100
731.000	-22.019	0.100
731.100	-24.422	0.100
731.200	-43.043	0.100
731.300	-31.773	0.100
731.400	-24.409	0.100
731.500	-37.334	0.100
731.600	-21.180	0.100
731.700	-32.321	0.100
731.800	-22.519	0.100
731.900	-31.513	0.100
732.000	-26.406	0.100
732.100	-43.332	0.100
732.200	-38.195	0.100
732.300	-23.728	0.100
732.400	-29.360	0.100
732.500	-31.792	0.100
732.600	-30.944	0.100
732.700	-32.251	0.100
732.800	-32.380	0.100
732.900	-37.103	0.100
733.000	-31.077	0.100
733.100	-35.443	0.100
733.200	-28.328	0.100
733.300	-22.078	0.100
733.400	-28.864	0.100
733.500	-23.811	0.100
733.600	-41.791	0.100
733.700	-37.389	0.100
733.800	-48.139	0.100
733.900	-29.453	0.100
734.000	-29.175	0.100
734.100	-30.287	0.100
734.200	-29.517	0.100
734.300	-33.782	0.100
734.400	-36.991	0.100
734.500	-26.978	0.100
734.600	-30.818	0.100
734.700	-30.452	0.100
734.800	-25.947	0.100
734.900	-21.738	0.100
735.000	-25.167	0.100
735.100	-26.598	0.100
735.200	-19.583	0.100
735.300	-37.247	0.100
735.400	-33.051	0.100
735.500	-29.864	0.100
735.600	-28.143	0.100
735.700	-35.762	0.100
735.800	-30.323	0.100
735.900	-31.890	0.100
736.000	-33.916	0.100
736.100	-27.099	0.100
736.200	-33.168	0.100
736.300	-26.595	0.100
736.400	-30.366	0.100
736.500	-27.736	0.100
736.600	-23.520	0.100
736.700	-22.289	0.100
736.800	-33.041	0.100
736.900	-26.759	0.100
737.000	-44.532	0.100
737.100	-37.102	0.100
737.200	-23.539	0.100
737.300	-26.978	0.100
737.400	-27.598	0.100
737.500	-27.034	0.100
737.600	-31.265	0.100
737.700	-42.087	0.100
737.800	-26.517	0.100
737.900	-37.789	0.100
738.000	-24.401	0.100
738.100	-29.511	0.100
738.200	-33.317	0.100
738.300	-28.330	0.100
738.400	-32.288	0.100
738.500	-24.585	0.100
738.600	-29.603	0.100
738.700	-28.944	0.100
738.800	-21.215	0.100
738.900	-33.596	0.100
739.000	-28.539	0.100
739.100	-33.335	0.100
739.200	-23.866	0.100
739.300	-22.427	0.100
739.400	-29.776	0.100
739.500	-29.736	0.100
739.600	-24.500	0.100
739.700	-28.780	0.100
739.800	-23.930	0.100
739.900	-31.815	0.100
740.000	-30.057	0.100
740.100	-26.529	0.100
740.200	-29.729	0.100
740.300	-26.221	0.100
740.400	-31.226	0.100
740.500	-21.853	0.100
740.600	-31.547	0.100
740.700	-29.674	0.100
740.800	-24.469	0.100
740.900	-17.894	0.100
741.000	-24.073	0.100
741.100	-31.146	0.100
741.200	-24.934	0.100
741.300	-39.530	0.100
741.400	-25.768	0.100
741.500	-24.465	0.100
741.600	-25.994	0.100
741.700	-33.578	0.100
741.800	-26.789	0.100
741.900	-26.677	0.100
742.000	-30.490	0.100
742.100	-24.106	0.100
742.200	-23.416	0.100
742.300	-23.780	0.100
742.400	-20.023	0.100
742.500	-20.615	0.100
742.600	-31.507	0.100
742.700	-34.665	0.100
742.800	-24.429	0.100
742.900	-33.025	0.100
743.000	-18.445	0.100
743.100	-18.740	0.100
743.200	-16.260	0.100
743.300	-31.923	0.100
743.400	-31.424	0.100
743.500	-21.904	0.100
743.600	-30.920	0.100
743.700	-26.417	0.100
743.800	-27.297	0.100
743.900	-37.966	0.100
744.000	-37.884	0.100
744.100	-23.380	0.100
744.200	-25.473	0.100
744.300	-33.428	0.100
744.400	-19.128	0.100
744.500	-35.729	0.100
744.600	-16.550	0.100
744.700	-23.227	0.100
744.800	-37.858	0.100
744.900	-22.139	0.100
745.000	-35.353	0.100
745.100	-31.423	0.100
745.200	-14.851	0.100
745.300	-18.246	0.100
745.400	-30.180	0.100
745.500	-31.422	0.100
745.600	-24.420	0.100
745.700	-38.741	0.100
745.800	-30.231	0.100
745.900	-31.284	0.100
746.000	-24.982	0.100
746.100	-24.622	0.100
746.200	-35.480	0.100
746.300	-27.871	0.100
746.400	-24.464	0.100
746.500	-27.041	0.100
746.600	-34.565	0.100
746.700	-28.173	0.100
746.800	-20.069	0.100
746.900	-32.512	0.100
747.000	-16.531	0.100
747.100	-22.024	0.100
747.200	-23.650	0.100
747.300	-12.921	0.100
747.400	-32.534	0.100
747.500	-25.547	0.100
747.600	-27.421	0.100
747.700	-16.050	0.100
747.800	-21.930	0.100
747.900	-20.435	0.100
748.000	-15.212	0.100
748.100	-27.859	0.100
748.200	-28.684	0.100
748.300	-23.150	0.100
748.400	-17.140	0.100
748.500	-18.980	0.100
748.600	-32.914	0.100
748.700	-38.179	0.100
748.800	-31.884	0.100
748.900	-26.138	0.100
749.000	-12.937	0.100
749.100	-18.557	0.100
749.200	-34.672	0.100
749.300	-18.487	0.100
749.400	-32.933	0.100
749.500	-24.246	0.100
749.600	-29.449	0.100
749.700	-26.191	0.100
749.800	-20.805	0.100
749.900	-19.653	0.100
750.000	-26.906	0.100
750.100	-21.659	0.100
750.200	-19.585	0.100
750.300	-14.003	0.100
750.400	-26.716	0.100
750.500	-30.841	0.100
750.600	-13.305	0.100
750.700	-26.651	0.100
750.800	-23.874	0.100
750.900	-16.414	0.100
751.000	-23.887	0.100
751.100	-21.842	0.100
751.200	-34.957	0.100
751.300	-22.151	0.100
751.400	-24.507	0.100
751.500	-15.270	0.100
751.600	-18.992	0.100
751.700	-23.689	0.100
751.800	-34.354	0.100
751.900	-25.336	0.100
752.000	-16.721	0.100
752.100	-20.938	0.100
752.200	-17.234	0.100
752.300	-27.344	0.100
752.400	-26.182	0.100
752.500	-24.781	0.100
752.600	-32.913	0.100
752.700	-31.381	0.100
752.800	-12.929	0.100
752.900	-18.576	0.100
753.000	-18.076	0.100
753.100	-23.452	0.100
753.200	-25.909	0.100
753.300	-32.544	0.100
753.400	-23.497	0.100
753.500	-22.012	0.100
753.600	-21.520	0.100
753.700	-31.523	0.100
753.800	-24.262	0.100
753.900	-25.957	0.100
754.000	-22.385	0.100
754.100	-25.298	0.100
754.200	-14.892	0.100
754.300	-20.178	0.100
754.400	-27.918	0.100
754.500	-31.459	0.100
754.600	-25.123	0.100
754.700	-14.639	0.100
754.800	-17.006	0.100
754.900	-25.383	0.100
755.000	-24.436	0.100
755.100	-12.476	0.100
755.200	-22.819	0.100
755.300	-20.515	0.100
755.400	-23.657	0.100
755.500	-23.900	0.100
755.600	-21.548	0.100
755.700	-13.695	0.100
755.800	-34.033	0.100
755.900	-23.490	0.100
756.000	-21.765	0.100
756.100	-15.773	0.100
756.200	-31.185	0.100
756.300	-21.748	0.100
756.400	-25.132	0.100
756.500	-18.863	0.100
756.600	-20.078	0.100
756.700	-23.899	0.100
756.800	-15.791	0.100
756.900	-18.423	0.100
757.000	-26.027	0.100
757.100	-11.519	0.100
757.200	-21.386	0.100
757.300	-30.701	0.100
757.400	-24.565	0.100
757.500	-23.773	0.100
757.600	-15.003	0.100
757.700	-24.091	0.100
757.800	-23.217	0.100
757.900	-20.266	0.100
758.000	-11.922	0.100
758.100	-14.559	0.100
758.200	-17.403	0.100
758.300	-20.676	0.100
758.400	-21.705	0.100
758.500	-13.327	0.100
758.600	-24.729	0.100
758.700	-21.604	0.100
758.800	-32.865	0.100
758.900	-16.359	0.100
759.000	-21.940	0.100
759.100	-20.973	0.100
759.200	-29.322	0.100
759.300	-16.012	0.100
759.400	-14.094	0.100
759.500	-29.689	0.100
759.600	-23.335	0.100
759.700	-16.007	0.100
759.800	-27.077	0.100
759.900	-12.944	0.100
760.000	-28.835	0.100
760.100	-22.049	0.100
760.200	-23.562	0.100
760.300	-17.766	0.100
760.400	-28.390	0.100
760.500	-17.806	0.100
760.600	-0.776	0.100
760.700	-19.081	0.100
760.800	-23.943	0.100
760.900	-15.895	0.100
761.000	-22.804	0.100
761.100	-28.562	0.100
761.200	-25.827	0.100
761.300	-24.589	0.100
761.400	-30.981	0.100
761.500	-8.625	0.100
761.600	-20.807	0.100
761.700	-31.847	0.100
761.800	-27.264	0.100
761.900	-26.941	0.100
762.000	-6.992	0.100
762.100	-12.644	0.100
762.200	-13.750	0.100
762.300	-37.348	0.100
762.400	-22.223	0.100
762.500	-20.898	0.100
762.600	-8.994	0.100
762.700	-27.083	0.100
762.800	-25.100	0.100
762.900	-20.221	0.100
763.000	-26.772	0.100
763.100	-23.376	0.100
763.200	-17.937	0.100
763.300	-21.382	0.100
763.400	-21.233	0.100
763.500	-19.156	0.100
763.600	-10.564	0.100
763.700	-18.048	0.100
763.800	-18.382	0.100
763.900	-20.117	0.100
764.000	-24.461	0.100
764.100	-24.294	0.100
764.200	-21.839	0.100
764.300	-22.236	0.100
764.400	-26.041	0.100
764.500	-11.998	0.100
764.600	-21.948	0.100
764.700	-14.399	0.100
764.800	-15.631	0.100
764.900	-9.191	0.100
765.000	-23.163	0.100
765.100	-21.624	0.100
765.200	-16.949	0.100
765.300	-16.389	0.100
765.400	-24.754	0.100
765.500	-15.952	0.100
765.600	-16.595	0.100
765.700	-12.285	0.100
765.800	-19.015	0.100
765.900	-21.084	0.100
766.000	-15.841	0.100
766.100	-23.883	0.100
766.200	-13.628	0.100
766.300	-19.105	0.100
766.400	-13.766	0.100
766.500	-22.076	0.100
766.600	-31.826	0.100
766.700	-21.079	0.100
766.800	-14.967	0.100
766.900	-14.653	0.100
767.000	-14.551	0.100
767.100	-9.017	0.100
767.200	-19.963	0.100
767.300	-25.478	0.100
767.400	-13.088	0.100
767.500	-24.387	0.100
767.600	-23.942	0.100
767.700	-7.280	0.100
767.800	-9.459	0.100
767.900	-23.044	0.100
768.000	-20.780	0.100
768.100	-14.795	0.100
768.200	-11.773	0.100
768.300	-17.168	0.100
768.400	-11.916	0.100
768.500	-16.689	0.100
768.600	-23.518	0.100
768.700	-25.235	0.100
768.800	-13.911	0.100
768.900	-26.124	0.100
769.000	-16.469	0.100
769.100	-19.547	0.100
769.200	-14.494	0.100
769.300	-17.172	0.100
769.400	-24.910	0.100
769.500	-16.824	0.100
769.600	-16.815	0.100
769.700	-20.517	0.100
769.800	-14.247	0.100
769.900	-20.839	0.100
770.000	-26.852	0.100
770.100	-18.791	0.100
770.200	-12.714	0.100
770.300	-29.434	0.100
770.400	-22.888	0.100
770.500	-17.803	0.100
770.600	-21.334	0.100
770.700	-11.687	0.100
770.800	-24.920	0.100
770.900	-18.978	0.100
771.000	-17.618	0.100
771.100	-15.451	0.100
771.200	-14.328	0.100
771.300	-27.766	0.100
771.400	-16.332	0.100
771.500	-20.474	0.100
771.600	-22.389	0.100
771.700	-27.531	0.100
771.800	-19.245	0.100
771.900	-17.440	0.100
772.000	-12.777	0.100
772.100	-17.339	0.100
772.200	-19.303	0.100
772.300	-19.554	0.100
772.400	-15.139	0.100
772.500	-20.158	0.100
772.600	-21.637	0.100
772.700	-16.224	0.100
772.800	-31.834	0.100
772.900	-12.822	0.100
773.000	-9.273	0.100
773.100	-12.419	0.100
773.200	-14.237	0.100
773.300	-13.424	0.100
773.400	-8.821	0.100
773.500	-22.408	0.100
773.600	-16.338	0.100
773.700	-26.294	0.100
773.800	-11.189	0.100
773.900	-5.125	0.100
774.000	-15.373	0.100
774.100	-9.454	0.100
774.200	-27.974	0.100
774.300	-27.232	0.100
774.400	-19.150	0.100
774.500	-16.933	0.100
774.600	-16.756	0.100
774.700	-15.285	0.100
774.800	-17.663	0.100
774.900	-16.068	0.100
775.000	-24.788	0.100
775.100	-17.013	0.100
775.200	-7.618	0.100
775.300	-9.269	0.100
775.400	-22.676	0.100
775.500	-19.685	0.100
775.600	-15.575	0.100
775.700	-17.159	0.100
775.800	-17.112	0.100
775.900	-20.826	0.100
776.000	-22.656	0.100
776.100	-24.521	0.100
776.200	-10.616	0.100
776.300	-17.948	0.100
776.400	-16.692	0.100
776.500	-17.723	0.100
776.600	-13.768	0.100
776.700	-12.689	0.100
776.800	-22.918	0.100
776.900	-16.045	0.100
777.000	-15.270	0.100
777.100	-11.176	0.100
777.200	-12.154	0.100
777.300	-15.509	0.100
777.400	-17.689	0.100
777.500	-27.102	0.100
777.600	-25.706	0.100
777.700	-16.665	0.100
777.800	-13.483	0.100
777.900	-14.372	0.100
778.000	-22.279	0.100
778.100	-22.212	0.100
778.200	-11.680	0.100
778.300	-16.374	0.100
778.400	-6.142	0.100
778.500	-19.522	0.100
778.600	-24.476	0.100
778.700	-21.692	0.100
778.800	-12.182	0.100
778.900	-10.728	0.100
779.000	-5.578	0.100
779.100	-21.296	0.100
779.200	-6.068	0.100
779.300	-12.716	0.100
779.400	-23.759	0.100
779.500	-18.469	0.100
779.600	-18.083	0.100
779.700	-27.351	0.100
779.800	-23.928	0.100
779.900	-16.024	0.100
780.000	-22.249	0.100
780.100	-2.942	0.100
780.200	-7.271	0.100
780.300	5.579	0.100
780.400	-12.196	0.100
780.500	-27.045	0.100
780.600	-10.838	0.100
780.700	-9.113	0.100
780.800	8.449	0.100
780.900	1.279	0.100
781.000	6.932	0.100
781.100	11.671	0.100
781.200	-3.451	0.100
781.300	11.753	0.100
781.400	3.462	0.100
781.500	11.100	0.100
781.600	21.472	0.100
781.700	11.065	0.100
781.800	18.461	0.100
781.900	24.788	0.100
782.000	23.233	0.100
782.100	35.218	0.100
782.200	25.743	0.100
782.300	28.083	0.100
782.400	30.875	0.100
782.500	21.809	0.100
782.600	20.898	0.100
782.700	32.099	0.100
782.800	38.197	0.100
782.900	30.458	0.100
783.000	27.391	0.100
783.100	34.998	0.100
783.200	25.869	0.100
783.300	34.312	0.100
783.400	20.886	0.100
783.500	33.215	0.100
783.600	30.036	0.100
783.700	29.574	0.100
783.800	39.927	0.100
783.900	42.092	0.100
784.000	38.285	0.100
784.100	23.511	0.100
784.200	22.181	0.100
784.300	30.067	0.100
784.400	25.897	0.100
784.500	30.585	0.100
784.600	27.252	0.100
784.700	24.114	0.100
784.800	39.430	0.100
784.900	40.420	0.100
785.000	34.751	0.100
785.100	30.060	0.100
785.200	29.174	0.100
785.300	25.175	0.100
785.400	21.157	0.100
785.500	23.102	0.100
785.600	26.826	0.100
785.700	31.111	0.100
785.800	30.065	0.100
785.900	16.607	0.100
786.000	17.408	0.100
786.100	23.303	0.100
786.200	20.405	0.100
786.300	17.125	0.100
786.400	26.523	0.100
786.500	33.673	0.100
786.600	21.141	0.100
786.700	25.454	0.100
786.800	19.393	0.100
786.900	25.701	0.100
787.000	17.078	0.100
787.100	9.162	0.100
787.200	16.484	0.100
787.300	18.537	0.100
787.400	21.425	0.100
787.500	33.121	0.100
787.600	26.382	0.100
787.700	16.787	0.100
787.800	12.820	0.100
787.900	14.874	0.100
788.000	24.002	0.100
788.100	30.929	0.100
788.200	10.273	0.100
788.300	20.981	0.100
788.400	24.425	0.100
788.500	33.104	0.100
788.600	12.103	0.100
788.700	20.701	0.100
788.800	22.984	0.100
788.900	31.587	0.100
789.000	31.213	0.100
789.100	23.666	0.100
789.200	24.620	0.100
789.300	20.521	0.100
789.400	26.966	0.100
789.500	25.310	0.100
789.600	17.664	0.100
789.700	22.163	0.100
789.800	28.649	0.100
789.900	23.509	0.100
790.000	20.776	0.100
790.100	26.843	0.100
790.200	23.162	0.100
790.300	24.058	0.100
790.400	9.833	0.100
790.500	13.398	0.100
790.600	24.946	0.100
790.700	15.863	0.100
790.800	17.082	0.100
790.900	18.208	0.100
791.000	24.215	0.100
791.100	14.683	0.100
791.200	19.114	0.100
791.300	25.547	0.100
791.400	27.347	0.100
791.500	15.769	0.100
791.600	25.241	0.100
791.700	21.348	0.100
791.800	29.720	0.100
791.900	25.222	0.100
792.000	31.218	0.100
792.100	24.622	0.100
792.200	24.005	0.100
792.300	34.136	0.100
792.400	26.405	0.100
792.500	16.749	0.100
792.600	24.466	0.100
792.700	15.248	0.100
792.800	17.188	0.100
792.900	30.742	0.100
793.000	24.188	0.100
793.100	16.257	0.100
793.200	23.064	0.100
793.300	21.745	0.100
793.400	21.744	0.100
793.500	23.211	0.100
793.600	22.133	0.100
793.700	29.437	0.100
793.800	30.278	0.100
793.900	18.358	0.100
794.000	22.667	0.100
794.100	29.025	0.100
794.200	20.476	0.100
794.300	25.412	0.100
794.400	28.382	0.100
794.500	22.116	0.100
794.600	33.117	0.100
794.700	34.881	0.100
794.800	37.521	0.100
794.900	25.540	0.100
795.000	16.096	0.100
795.100	24.142	0.100
795.200	21.564	0.100
795.300	35.369	0.100
795.400	30.518	0.100
795.500	24.790	0.100
795.600	33.177	0.100
795.700	23.437	0.100
795.800	26.945	0.100
795.900	36.747	0.100
796.000	22.997	0.100
796.100	22.636	0.100
796.200	18.761	0.100
796.300	20.316	0.100
796.400	25.925	0.100
796.500	11.335	0.100
796.600	29.901	0.100
796.700	37.136	0.100
796.800	35.645	0.100
796.900	34.894	0.100
797.000	39.994	0.100
797.100	32.713	0.100
797.200	22.403	0.100
797.300	21.668	0.100
797.400	25.729	0.100
797.500	28.977	0.100
797.600	22.899	0.100
797.700	33.873	0.100
797.800	39.228	0.100
797.900	17.914	0.100
798.000	31.766	0.100
798.100	27.826	0.100
798.200	39.150	0.100
798.300	29.892	0.100
798.400	31.523	0.100
798.500	40.679	0.100
798.600	35.412	0.100
798.700	32.458	0.100
798.800	27.970	0.100
798.900	38.037	0.100
799.000	37.389	0.100
799.100	30.199	0.100
799.200	37.313	0.100
799.300	34.228	0.100
799.400	36.755	0.100
799.500	37.768	0.100
799.600	37.967	0.100
799.700	35.578	0.100
799.800	35.614	0.100
799.900	26.828	0.100
800.000	31.793	0.100
