time /s	I /nA	E /V
0.100	-12.625	0.100
0.200	-17.314	0.100
0.300	-12.848	0.100
0.400	-28.246	0.100
0.500	-21.912	0.100
0.600	-21.470	0.100
0.700	-23.107	0.100
0.800	-14.265	0.100
0.900	-18.189	0.100
1.000	-14.321	0.100
1.100	-21.412	0.100
1.200	-16.888	0.100
1.300	-23.082	0.100
1.400	-28.002	0.100
1.500	-24.090	0.100
1.600	-3.759	0.100
1.700	-30.229	0.100
1.800	-15.511	0.100
1.900	-13.744	0.100
2.000	-16.672	0.100
2.100	-17.250	0.100
2.200	-19.484	0.100
2.300	-25.191	0.100
2.400	-14.544	0.100
2.500	-20.686	0.100
2.600	-11.605	0.100
2.700	-23.765	0.100
2.800	-21.920	0.100
2.900	-25.187	0.100
3.000	-19.672	0.100
3.100	-18.046	0.100
3.200	-27.961	0.100
3.300	-17.810	0.100
3.400	-15.950	0.100
3.500	-22.721	0.100
3.600	-6.937	0.100
3.700	-11.139	0.100
3.800	-25.374	0.100
3.900	-20.085	0.100
4.000	-24.638	0.100
4.100	-15.354	0.100
4.200	-21.280	0.100
4.300	-21.132	0.100
4.400	-17.213	0.100
4.500	-16.600	0.100
4.600	-20.678	0.100
4.700	-15.828	0.100
4.800	-9.007	0.100
4.900	-14.381	0.100
5.000	-16.066	0.100
5.100	-26.646	0.100
5.200	-13.547	0.100
5.300	-16.216	0.100
5.400	-20.860	0.100
5.500	-20.274	0.100
5.600	-16.103	0.100
5.700	-24.584	0.100
5.800	-20.290	0.100
5.900	-19.497	0.100
6.000	-13.400	0.100
6.100	-5.028	0.100
6.200	-12.630	0.100
6.300	-26.448	0.100
6.400	-26.018	0.100
6.500	-10.993	0.100
6.600	-10.042	0.100
6.700	-12.252	0.100
6.800	-25.350	0.100
6.900	-13.790	0.100
7.000	-17.067	0.100
7.100	-20.730	0.100
7.200	-20.052	0.100
7.300	-15.722	0.100
7.400	-28.288	0.100
7.500	-14.324	0.100
7.600	-19.335	0.100
7.700	-25.180	0.100
7.800	-13.857	0.100
7.900	-27.463	0.100
8.000	-25.973	0.100
8.100	-12.888	0.100
8.200	-7.855	0.100
8.300	-16.647	0.100
8.400	-29.003	0.100
8.500	-16.133	0.100
8.600	-17.345	0.100
8.700	-22.202	0.100
8.800	-17.958	0.100
8.900	-22.764	0.100
9.000	-13.530	0.100
9.100	-14.741	0.100
9.200	-16.294	0.100
9.300	-2.585	0.100
9.400	-22.757	0.100
9.500	-21.808	0.100
9.600	-10.205	0.100
9.700	-13.322	0.100
9.800	-10.185	0.100
9.900	-22.349	0.100
10.000	-17.332	0.100
10.100	-28.584	0.100
10.200	-20.717	0.100
10.300	-19.983	0.100
10.400	-25.943	0.100
10.500	-10.307	0.100
10.600	-17.163	0.100
10.700	-28.700	0.100
10.800	-25.019	0.100
10.900	-17.291	0.100
11.000	-18.344	0.100
11.100	-13.076	0.100
11.200	-12.943	0.100
11.300	-20.625	0.100
11.400	-25.717	0.100
11.500	-21.199	0.100
11.600	-18.901	0.100
11.700	-23.057	0.100
11.800	-8.373	0.100
11.900	-15.617	0.100
12.000	-25.169	0.100
12.100	-19.726	0.100
12.200	-30.507	0.100
12.300	-12.973	0.100
12.400	-20.902	0.100
12.500	-11.066	0.100
12.600	-9.543	0.100
12.700	-19.748	0.100
12.800	-15.828	0.100
12.900	-18.889	0.100
13.000	-19.661	0.100
13.100	-9.246	0.100
13.200	-23.840	0.100
13.300	-16.014	0.100
13.400	-9.659	0.100
13.500	-22.119	0.100
13.600	-12.181	0.100
13.700	-24.820	0.100
13.800	-19.528	0.100
13.900	-18.552	0.100
14.000	-16.116	0.100
14.100	-5.453	0.100
14.200	-19.857	0.100
14.300	-25.634	0.100
14.400	-16.981	0.100
14.500	-19.566	0.100
14.600	-18.700	0.100
14.700	-20.755	0.100
14.800	-13.083	0.100
14.900	-12.404	0.100
15.000	-23.495	0.100
15.100	-17.820	0.100
15.200	-17.326	0.100
15.300	-20.819	0.100
15.400	-13.637	0.100
15.500	-10.086	0.100
15.600	-18.863	0.100
15.700	-14.154	0.100
15.800	-23.101	0.100
15.900	-13.728	0.100
16.000	-19.825	0.100
16.100	-11.994	0.100
16.200	-28.323	0.100
16.300	-8.981	0.100
16.400	-12.457	0.100
16.500	-22.424	0.100
16.600	-19.630	0.100
16.700	-4.068	0.100
16.800	-25.305	0.100
16.900	-22.103	0.100
17.000	-25.921	0.100
17.100	-22.425	0.100
17.200	-6.113	0.100
17.300	-9.143	0.100
17.400	-20.331	0.100
17.500	-22.197	0.100
17.600	-14.342	0.100
17.700	-19.320	0.100
17.800	-20.693	0.100
17.900	-12.612	0.100
18.000	-8.917	0.100
18.100	-13.356	0.100
18.200	-12.899	0.100
18.300	-28.969	0.100
18.400	-16.245	0.100
18.500	-19.635	0.100
18.600	-14.510	0.100
18.700	-21.761	0.100
18.800	-7.358	0.100
18.900	-9.113	0.100
19.000	-21.916	0.100
19.100	-14.951	0.100
19.200	-15.171	0.100
19.300	-31.675	0.100
19.400	-19.382	0.100
19.500	-20.000	0.100
19.600	-18.980	0.100
19.700	-19.888	0.100
19.800	-9.403	0.100
19.900	-6.731	0.100
20.000	-18.089	0.100
20.100	-30.927	0.100
20.200	-18.616	0.100
20.300	-18.915	0.100
20.400	-5.684	0.100
20.500	-20.210	0.100
20.600	-30.712	0.100
20.700	-11.886	0.100
20.800	-7.525	0.100
20.900	-21.138	0.100
21.000	-23.925	0.100
21.100	-17.861	0.100
21.200	-22.883	0.100
21.300	-11.666	0.100
21.400	-10.206	0.100
21.500	-14.857	0.100
21.600	-1.840	0.100
21.700	-13.699	0.100
21.800	-16.656	0.100
21.900	-14.911	0.100
22.000	-16.035	0.100
22.100	-21.518	0.100
22.200	-23.934	0.100
22.300	-17.356	0.100
22.400	-11.496	0.100
22.500	-26.076	0.100
22.600	-12.254	0.100
22.700	-6.137	0.100
22.800	-14.125	0.100
22.900	-13.851	0.100
23.000	-16.957	0.100
23.100	-25.064	0.100
23.200	-20.138	0.100
23.300	-27.541	0.100
23.400	-18.190	0.100
23.500	-21.660	0.100
23.600	-13.393	0.100
23.700	-14.859	0.100
23.800	-15.463	0.100
23.900	-12.593	0.100
24.000	-12.699	0.100
24.100	-18.783	0.100
24.200	-26.004	0.100
24.300	-20.385	0.100
24.400	-23.150	0.100
24.500	-14.440	0.100
24.600	-27.017	0.100
24.700	-18.527	0.100
24.800	-20.020	0.100
24.900	-17.269	0.100
25.000	-10.343	0.100
25.100	-18.050	0.100
25.200	-18.959	0.100
25.300	-13.417	0.100
25.400	-10.048	0.100
25.500	-19.198	0.100
25.600	-22.334	0.100
25.700	-20.504	0.100
25.800	-13.978	0.100
25.900	-4.179	0.100
26.000	-16.431	0.100
26.100	-16.498	0.100
26.200	-22.193	0.100
26.300	-15.214	0.100
26.400	-19.998	0.100
26.500	-12.677	0.100
26.600	-20.078	0.100
26.700	-17.575	0.100
26.800	-26.820	0.100
26.900	-8.566	0.100
27.000	-18.111	0.100
27.100	0.829	0.100
27.200	-7.531	0.100
27.300	-21.246	0.100
27.400	-23.112	0.100
27.500	-24.912	0.100
27.600	-12.732	0.100
27.700	-18.171	0.100
27.800	-15.223	0.100
27.900	-3.855	0.100
28.000	-19.708	0.100
28.100	-15.533	0.100
28.200	-15.007	0.100
28.300	-19.865	0.100
28.400	-18.815	0.100
28.500	-12.878	0.100
28.600	-9.567	0.100
28.700	-18.362	0.100
28.800	-17.150	0.100
28.900	-6.548	0.100
29.000	-8.218	0.100
29.100	-21.033	0.100
29.200	-11.773	0.100
29.300	-29.384	0.100
29.400	-16.056	0.100
29.500	-7.157	0.100
29.600	-17.822	0.100
29.700	-8.721	0.100
29.800	-14.557	0.100
29.900	-19.919	0.100
30.000	-5.764	0.100
30.100	0.425	0.100
30.200	-9.124	0.100
30.300	6.045	0.100
30.400	8.287	0.100
30.500	16.726	0.100
30.600	1.004	0.100
30.700	8.739	0.100
30.800	14.973	0.100
30.900	25.528	0.100
31.000	24.690	0.100
31.100	15.966	0.100
31.200	25.538	0.100
31.300	13.779	0.100
31.400	25.115	0.100
31.500	22.115	0.100
31.600	35.775	0.100
31.700	36.117	0.100
31.800	34.603	0.100
31.900	33.907	0.100
32.000	23.911	0.100
32.100	34.598	0.100
32.200	30.752	0.100
32.300	22.787	0.100
32.400	40.879	0.100
32.500	27.673	0.100
32.600	35.089	0.100
32.700	38.277	0.100
32.800	38.358	0.100
32.900	34.882	0.100
33.000	24.265	0.100
33.100	26.163	0.100
33.200	31.482	0.100
33.300	30.734	0.100
33.400	25.687	0.100
33.500	33.327	0.100
33.600	38.742	0.100
33.700	14.009	0.100
33.800	34.105	0.100
33.900	30.679	0.100
34.000	27.274	0.100
34.100	26.132	0.100
34.200	52.269	0.100
34.300	19.305	0.100
34.400	10.245	0.100
34.500	14.824	0.100
34.600	23.019	0.100
34.700	26.841	0.100
34.800	32.069	0.100
34.900	32.665	0.100
35.000	21.930	0.100
35.100	19.793	0.100
35.200	18.908	0.100
35.300	30.018	0.100
35.400	24.397	0.100
35.500	28.826	0.100
35.600	23.561	0.100
35.700	19.131	0.100
35.800	27.898	0.100
35.900	25.319	0.100
36.000	38.531	0.100
36.100	26.035	0.100
36.200	23.029	0.100
36.300	34.870	0.100
36.400	26.673	0.100
36.500	35.968	0.100
36.600	23.095	0.100
36.700	29.051	0.100
36.800	20.422	0.100
36.900	20.526	0.100
37.000	22.259	0.100
37.100	39.613	0.100
37.200	25.240	0.100
37.300	25.040	0.100
37.400	23.081	0.100
37.500	32.532	0.100
37.600	48.199	0.100
37.700	34.188	0.100
37.800	28.118	0.100
37.900	26.199	0.100
38.000	31.064	0.100
38.100	36.915	0.100
38.200	44.951	0.100
38.300	30.265	0.100
38.400	24.398	0.100
38.500	42.271	0.100
38.600	29.878	0.100
38.700	32.365	0.100
38.800	29.752	0.100
38.900	46.770	0.100
39.000	45.647	0.100
39.100	23.466	0.100
39.200	35.224	0.100
39.300	32.501	0.100
39.400	29.704	0.100
39.500	36.404	0.100
39.600	46.286	0.100
39.700	57.875	0.100
39.800	49.234	0.100
39.900	36.029	0.100
40.000	30.954	0.100
40.100	36.580	0.100
40.200	43.297	0.100
40.300	35.415	0.100
40.400	43.028	0.100
40.500	40.040	0.100
40.600	46.648	0.100
40.700	44.812	0.100
40.800	43.114	0.100
40.900	41.861	0.100
41.000	52.174	0.100
41.100	37.315	0.100
41.200	40.972	0.100
41.300	40.548	0.100
41.400	49.380	0.100
41.500	42.185	0.100
41.600	53.374	0.100
41.700	50.557	0.100
41.800	60.370	0.100
41.900	50.175	0.100
42.000	52.872	0.100
42.100	57.290	0.100
42.200	54.098	0.100
42.300	55.277	0.100
42.400	60.860	0.100
42.500	38.345	0.100
42.600	62.079	0.100
42.700	51.825	0.100
42.800	46.492	0.100
42.900	56.859	0.100
43.000	50.640	0.100
43.100	54.145	0.100
43.200	47.696	0.100
43.300	55.288	0.100
43.400	60.762	0.100
43.500	69.654	0.100
43.600	56.488	0.100
43.700	65.612	0.100
43.800	57.890	0.100
43.900	58.298	0.100
44.000	50.833	0.100
44.100	60.429	0.100
44.200	57.524	0.100
44.300	70.458	0.100
44.400	70.765	0.100
44.500	61.899	0.100
44.600	62.515	0.100
44.700	60.989	0.100
44.800	60.609	0.100
44.900	63.485	0.100
45.000	60.759	0.100
45.100	62.242	0.100
45.200	57.371	0.100
45.300	55.559	0.100
45.400	61.303	0.100
45.500	75.469	0.100
45.600	65.723	0.100
45.700	63.858	0.100
45.800	66.053	0.100
45.900	61.423	0.100
46.000	61.764	0.100
46.100	78.366	0.100
46.200	64.257	0.100
46.300	62.086	0.100
46.400	66.362	0.100
46.500	74.015	0.100
46.600	70.124	0.100
46.700	59.246	0.100
46.800	74.127	0.100
46.900	68.238	0.100
47.000	71.706	0.100
47.100	54.028	0.100
47.200	75.853	0.100
47.300	75.824	0.100
47.400	66.518	0.100
47.500	66.608	0.100
47.600	67.892	0.100
47.700	75.288	0.100
47.800	66.896	0.100
47.900	71.879	0.100
48.000	61.744	0.100
48.100	71.345	0.100
48.200	71.080	0.100
48.300	74.884	0.100
48.400	69.366	0.100
48.500	74.119	0.100
48.600	73.783	0.100
48.700	78.589	0.100
48.800	91.861	0.100
48.900	71.688	0.100
49.000	69.012	0.100
49.100	68.493	0.100
49.200	68.592	0.100
49.300	79.281	0.100
49.400	73.857	0.100
49.500	65.510	0.100
49.600	75.627	0.100
49.700	64.261	0.100
49.800	74.747	0.100
49.900	88.296	0.100
50.000	64.929	0.100
50.100	82.040	0.100
50.200	79.154	0.100
50.300	80.958	0.100
50.400	71.062	0.100
50.500	71.527	0.100
50.600	72.385	0.100
50.700	75.720	0.100
50.800	78.211	0.100
50.900	67.515	0.100
51.000	73.224	0.100
51.100	83.394	0.100
51.200	79.836	0.100
51.300	74.516	0.100
51.400	85.727	0.100
51.500	75.704	0.100
51.600	78.851	0.100
51.700	76.967	0.100
51.800	73.418	0.100
51.900	83.971	0.100
52.000	76.037	0.100
52.100	77.720	0.100
52.200	83.387	0.100
52.300	81.792	0.100
52.400	78.935	0.100
52.500	74.253	0.100
52.600	79.090	0.100
52.700	68.677	0.100
52.800	73.333	0.100
52.900	80.233	0.100
53.000	82.675	0.100
53.100	72.653	0.100
53.200	86.424	0.100
53.300	74.293	0.100
53.400	89.209	0.100
53.500	89.419	0.100
53.600	75.879	0.100
53.700	78.289	0.100
53.800	61.274	0.100
53.900	79.441	0.100
54.000	83.922	0.100
54.100	76.718	0.100
54.200	77.430	0.100
54.300	87.257	0.100
54.400	78.525	0.100
54.500	79.090	0.100
54.600	79.463	0.100
54.700	80.245	0.100
54.800	78.282	0.100
54.900	82.648	0.100
55.000	85.719	0.100
55.100	76.814	0.100
55.200	78.900	0.100
55.300	72.235	0.100
55.400	79.036	0.100
55.500	79.688	0.100
55.600	72.898	0.100
55.700	88.552	0.100
55.800	70.450	0.100
55.900	76.345	0.100
56.000	81.668	0.100
56.100	81.262	0.100
56.200	67.806	0.100
56.300	68.792	0.100
56.400	88.479	0.100
56.500	81.389	0.100
56.600	81.953	0.100
56.700	69.119	0.100
56.800	64.491	0.100
56.900	85.021	0.100
57.000	81.007	0.100
57.100	63.193	0.100
57.200	71.768	0.100
57.300	74.938	0.100
57.400	82.048	0.100
57.500	80.398	0.100
57.600	74.796	0.100
57.700	77.235	0.100
57.800	63.053	0.100
57.900	80.725	0.100
58.000	75.223	0.100
58.100	82.490	0.100
58.200	71.504	0.100
58.300	71.760	0.100
58.400	81.048	0.100
58.500	78.234	0.100
58.600	64.449	0.100
58.700	64.415	0.100
58.800	71.095	0.100
58.900	65.200	0.100
59.000	76.179	0.100
59.100	64.714	0.100
59.200	75.412	0.100
59.300	80.994	0.100
59.400	77.892	0.100
59.500	73.616	0.100
59.600	65.195	0.100
59.700	74.226	0.100
59.800	72.024	0.100
59.900	66.538	0.100
60.000	72.422	0.100
60.100	65.208	0.100
60.200	77.642	0.100
60.300	68.521	0.100
60.400	68.094	0.100
60.500	63.179	0.100
60.600	74.803	0.100
60.700	72.015	0.100
60.800	77.175	0.100
60.900	70.430	0.100
61.000	68.235	0.100
61.100	69.840	0.100
61.200	63.354	0.100
61.300	65.104	0.100
61.400	81.779	0.100
61.500	83.614	0.100
61.600	63.722	0.100
61.700	72.257	0.100
61.800	65.364	0.100
61.900	69.167	0.100
62.000	76.690	0.100
62.100	71.577	0.100
62.200	58.442	0.100
62.300	69.829	0.100
62.400	67.512	0.100
62.500	68.018	0.100
62.600	75.240	0.100
62.700	70.740	0.100
62.800	67.099	0.100
62.900	64.742	0.100
63.000	67.334	0.100
63.100	72.430	0.100
63.200	69.904	0.100
63.300	73.041	0.100
63.400	62.912	0.100
63.500	79.456	0.100
63.600	73.324	0.100
63.700	67.031	0.100
63.800	46.424	0.100
63.900	62.003	0.100
64.000	65.053	0.100
64.100	63.250	0.100
64.200	63.432	0.100
64.300	67.246	0.100
64.400	78.429	0.100
64.500	58.789	0.100
64.600	61.398	0.100
64.700	61.028	0.100
64.800	57.055	0.100
64.900	60.517	0.100
65.000	68.890	0.100
65.100	72.808	0.100
65.200	69.660	0.100
65.300	53.660	0.100
65.400	71.153	0.100
65.500	70.397	0.100
65.600	66.926	0.100
65.700	71.475	0.100
65.800	73.798	0.100
65.900	72.280	0.100
66.000	63.171	0.100
66.100	64.866	0.100
66.200	62.022	0.100
66.300	63.224	0.100
66.400	60.975	0.100
66.500	77.960	0.100
66.600	61.689	0.100
66.700	66.430	0.100
66.800	67.100	0.100
66.900	73.088	0.100
67.000	63.379	0.100
67.100	71.890	0.100
67.200	67.900	0.100
67.300	62.415	0.100
67.400	57.143	0.100
67.500	54.651	0.100
67.600	65.087	0.100
67.700	66.593	0.100
67.800	61.665	0.100
67.900	64.927	0.100
68.000	67.965	0.100
68.100	64.173	0.100
68.200	75.695	0.100
68.300	66.226	0.100
68.400	55.939	0.100
68.500	65.749	0.100
68.600	64.693	0.100
68.700	57.664	0.100
68.800	61.386	0.100
68.900	72.518	0.100
69.000	59.590	0.100
69.100	67.836	0.100
69.200	61.444	0.100
69.300	51.906	0.100
69.400	61.943	0.100
69.500	58.161	0.100
69.600	62.141	0.100
69.700	62.700	0.100
69.800	75.058	0.100
69.900	75.010	0.100
70.000	64.570	0.100
70.100	64.468	0.100
70.200	63.684	0.100
70.300	70.424	0.100
70.400	64.718	0.100
70.500	61.603	0.100
70.600	72.311	0.100
70.700	77.081	0.100
70.800	63.699	0.100
70.900	56.086	0.100
71.000	65.944	0.100
71.100	75.643	0.100
71.200	62.473	0.100
71.300	67.922	0.100
71.400	56.672	0.100
71.500	61.226	0.100
71.600	59.610	0.100
71.700	61.504	0.100
71.800	66.525	0.100
71.900	71.642	0.100
72.000	72.989	0.100
72.100	68.739	0.100
72.200	71.165	0.100
72.300	56.141	0.100
72.400	55.589	0.100
72.500	60.689	0.100
72.600	64.097	0.100
72.700	63.555	0.100
72.800	63.650	0.100
72.900	59.574	0.100
73.000	62.048	0.100
73.100	64.454	0.100
73.200	62.813	0.100
73.300	65.627	0.100
73.400	73.883	0.100
73.500	69.231	0.100
73.600	56.431	0.100
73.700	61.676	0.100
73.800	52.864	0.100
73.900	63.677	0.100
74.000	50.282	0.100
74.100	64.172	0.100
74.200	56.826	0.100
74.300	62.350	0.100
74.400	57.061	0.100
74.500	65.000	0.100
74.600	58.122	0.100
74.700	60.172	0.100
74.800	66.948	0.100
74.900	66.513	0.100
75.000	59.456	0.100
75.100	63.833	0.100
75.200	59.495	0.100
75.300	67.011	0.100
75.400	56.915	0.100
75.500	51.716	0.100
75.600	71.498	0.100
75.700	63.134	0.100
75.800	62.282	0.100
75.900	56.284	0.100
76.000	55.512	0.100
76.100	53.637	0.100
76.200	66.260	0.100
76.300	70.972	0.100
76.400	74.845	0.100
76.500	68.578	0.100
76.600	53.960	0.100
76.700	71.804	0.100
76.800	60.438	0.100
76.900	65.181	0.100
77.000	68.277	0.100
77.100	61.486	0.100
77.200	57.645	0.100
77.300	63.957	0.100
77.400	57.414	0.100
77.500	65.565	0.100
77.600	76.486	0.100
77.700	57.021	0.100
77.800	63.651	0.100
77.900	61.257	0.100
78.000	62.795	0.100
78.100	62.064	0.100
78.200	62.361	0.100
78.300	63.997	0.100
78.400	67.389	0.100
78.500	58.966	0.100
78.600	57.117	0.100
78.700	57.990	0.100
78.800	69.818	0.100
78.900	63.689	0.100
79.000	61.340	0.100
79.100	60.928	0.100
79.200	61.035	0.100
79.300	47.896	0.100
79.400	55.305	0.100
79.500	63.917	0.100
79.600	51.058	0.100
79.700	53.401	0.100
79.800	66.370	0.100
79.900	64.888	0.100
80.000	63.001	0.100
80.100	59.396	0.100
80.200	54.979	0.100
80.300	61.161	0.100
80.400	66.883	0.100
80.500	66.357	0.100
80.600	52.903	0.100
80.700	60.605	0.100
80.800	65.430	0.100
80.900	63.712	0.100
81.000	57.608	0.100
81.100	62.941	0.100
81.200	69.646	0.100
81.300	71.978	0.100
81.400	58.743	0.100
81.500	52.424	0.100
81.600	58.492	0.100
81.700	55.543	0.100
81.800	65.382	0.100
81.900	56.613	0.100
82.000	59.554	0.100
82.100	61.464	0.100
82.200	55.792	0.100
82.300	63.350	0.100
82.400	70.652	0.100
82.500	64.194	0.100
82.600	66.578	0.100
82.700	47.267	0.100
82.800	47.145	0.100
82.900	58.232	0.100
83.000	53.489	0.100
83.100	68.845	0.100
83.200	59.554	0.100
83.300	61.402	0.100
83.400	61.566	0.100
83.500	63.668	0.100
83.600	53.362	0.100
83.700	53.852	0.100
83.800	68.447	0.100
83.900	62.380	0.100
84.000	76.321	0.100
84.100	52.005	0.100
84.200	64.409	0.100
84.300	60.200	0.100
84.400	64.272	0.100
84.500	68.415	0.100
84.600	66.073	0.100
84.700	46.736	0.100
84.800	56.805	0.100
84.900	61.962	0.100
85.000	63.285	0.100
85.100	70.364	0.100
85.200	58.614	0.100
85.300	50.113	0.100
85.400	64.824	0.100
85.500	60.482	0.100
85.600	62.130	0.100
85.700	58.193	0.100
85.800	65.733	0.100
85.900	69.984	0.100
86.000	50.643	0.100
86.100	57.570	0.100
86.200	58.240	0.100
86.300	50.211	0.100
86.400	64.070	0.100
86.500	49.075	0.100
86.600	56.573	0.100
86.700	73.769	0.100
86.800	68.712	0.100
86.900	67.744	0.100
87.000	53.404	0.100
87.100	52.014	0.100
87.200	67.241	0.100
87.300	67.946	0.100
87.400	73.970	0.100
87.500	54.788	0.100
87.600	62.364	0.100
87.700	67.359	0.100
87.800	52.570	0.100
87.900	71.563	0.100
88.000	59.330	0.100
88.100	71.810	0.100
88.200	68.558	0.100
88.300	54.844	0.100
88.400	66.787	0.100
88.500	57.020	0.100
88.600	60.325	0.100
88.700	59.057	0.100
88.800	59.146	0.100
88.900	61.730	0.100
89.000	50.460	0.100
89.100	64.598	0.100
89.200	58.039	0.100
89.300	46.620	0.100
89.400	63.173	0.100
89.500	58.326	0.100
89.600	56.203	0.100
89.700	58.881	0.100
89.800	50.021	0.100
89.900	49.718	0.100
90.000	43.772	0.100
90.100	41.947	0.100
90.200	36.728	0.100
90.300	39.878	0.100
90.400	22.761	0.100
90.500	27.830	0.100
90.600	24.100	0.100
90.700	22.650	0.100
90.800	15.953	0.100
90.900	19.929	0.100
91.000	24.797	0.100
91.100	14.589	0.100
91.200	19.073	0.100
91.300	10.838	0.100
91.400	2.673	0.100
91.500	12.628	0.100
91.600	3.738	0.100
91.700	9.055	0.100
91.800	-12.843	0.100
91.900	-5.209	0.100
92.000	-15.939	0.100
92.100	-6.378	0.100
92.200	0.669	0.100
92.300	4.042	0.100
92.400	-6.587	0.100
92.500	3.289	0.100
92.600	-19.137	0.100
92.700	-16.457	0.100
92.800	-11.820	0.100
92.900	-19.695	0.100
93.000	-5.673	0.100
93.100	-16.610	0.100
93.200	-30.544	0.100
93.300	-5.096	0.100
93.400	-10.202	0.100
93.500	-15.415	0.100
93.600	-13.424	0.100
93.700	-4.939	0.100
93.800	-21.888	0.100
93.900	-29.699	0.100
94.000	-18.191	0.100
94.100	-23.955	0.100
94.200	-24.305	0.100
94.300	-20.057	0.100
94.400	-25.077	0.100
94.500	-26.633	0.100
94.600	-18.452	0.100
94.700	-26.159	0.100
94.800	-21.769	0.100
94.900	-12.689	0.100
95.000	-21.236	0.100
95.100	-33.080	0.100
95.200	-27.823	0.100
95.300	-28.950	0.100
95.400	-21.975	0.100
95.500	-15.661	0.100
95.600	-17.024	0.100
95.700	-17.762	0.100
95.800	-24.445	0.100
95.900	-28.308	0.100
96.000	-34.851	0.100
96.100	-8.895	0.100
96.200	-16.722	0.100
96.300	-23.777	0.100
96.400	-28.805	0.100
96.500	-26.669	0.100
96.600	-26.839	0.100
96.700	-33.659	0.100
96.800	-9.525	0.100
96.900	-27.423	0.100
97.000	-18.076	0.100
97.100	-13.588	0.100
97.200	-20.928	0.100
97.300	-30.295	0.100
97.400	-12.420	0.100
97.500	-16.103	0.100
97.600	-13.432	0.100
97.700	-22.205	0.100
97.800	-25.470	0.100
97.900	-20.534	0.100
98.000	-23.115	0.100
98.100	-24.627	0.100
98.200	-17.846	0.100
98.300	-13.883	0.100
98.400	-20.844	0.100
98.500	-18.825	0.100
98.600	-18.644	0.100
98.700	-18.737	0.100
98.800	-26.413	0.100
98.900	-4.822	0.100
99.000	-15.897	0.100
99.100	-16.752	0.100
99.200	-17.783	0.100
99.300	-17.497	0.100
99.400	-12.252	0.100
99.500	-14.539	0.100
99.600	-5.652	0.100
99.700	-22.604	0.100
99.800	-14.397	0.100
99.900	-21.872	0.100
100.000	-27.607	0.100
100.100	-20.142	0.100
100.200	-26.360	0.100
100.300	-16.137	0.100
100.400	-17.732	0.100
100.500	-19.214	0.100
100.600	-25.945	0.100
100.700	-24.241	0.100
100.800	-15.986	0.100
100.900	-22.920	0.100
101.000	-21.758	0.100
101.100	-11.910	0.100
101.200	-23.855	0.100
101.300	-20.784	0.100
101.400	-21.508	0.100
101.500	-21.634	0.100
101.600	-7.828	0.100
101.700	-12.293	0.100
101.800	-22.875	0.100
101.900	-19.266	0.100
102.000	-24.170	0.100
102.100	-9.273	0.100
102.200	-16.785	0.100
102.300	-20.966	0.100
102.400	-16.442	0.100
102.500	-19.501	0.100
102.600	-24.229	0.100
102.700	-14.798	0.100
102.800	-23.359	0.100
102.900	-18.242	0.100
103.000	-19.486	0.100
103.100	-7.704	0.100
103.200	-15.969	0.100
103.300	-27.231	0.100
103.400	-17.361	0.100
103.500	-18.702	0.100
103.600	-14.139	0.100
103.700	-17.292	0.100
103.800	-17.554	0.100
103.900	-23.679	0.100
104.000	-13.670	0.100
104.100	-17.622	0.100
104.200	-18.443	0.100
104.300	-17.756	0.100
104.400	-41.191	0.100
104.500	-33.630	0.100
104.600	-18.929	0.100
104.700	-8.912	0.100
104.800	-9.814	0.100
104.900	-18.523	0.100
105.000	-25.538	0.100
105.100	-17.599	0.100
105.200	-28.459	0.100
105.300	-9.467	0.100
105.400	-18.924	0.100
105.500	-10.725	0.100
105.600	-22.606	0.100
105.700	-10.798	0.100
105.800	-22.366	0.100
105.900	-20.657	0.100
106.000	-22.845	0.100
106.100	-11.433	0.100
106.200	-19.545	0.100
106.300	-8.687	0.100
106.400	-23.911	0.100
106.500	-16.832	0.100
106.600	-29.643	0.100
106.700	-16.150	0.100
106.800	-32.579	0.100
106.900	-20.866	0.100
107.000	-24.199	0.100
107.100	-25.641	0.100
107.200	-25.109	0.100
107.300	-9.378	0.100
107.400	-7.010	0.100
107.500	-28.585	0.100
107.600	-30.622	0.100
107.700	-22.924	0.100
107.800	-26.377	0.100
107.900	-29.331	0.100
108.000	-21.215	0.100
108.100	-22.730	0.100
108.200	-17.881	0.100
108.300	-25.441	0.100
108.400	-27.699	0.100
108.500	-33.960	0.100
108.600	-21.507	0.100
108.700	-20.191	0.100
108.800	-21.039	0.100
108.900	-24.959	0.100
109.000	-26.436	0.100
109.100	-20.023	0.100
109.200	-33.252	0.100
109.300	-22.404	0.100
109.400	-21.289	0.100
109.500	-14.143	0.100
109.600	-25.174	0.100
109.700	-24.658	0.100
109.800	-36.183	0.100
109.900	-31.869	0.100
110.000	-30.204	0.100
110.100	-30.508	0.100
110.200	-28.022	0.100
110.300	-23.758	0.100
110.400	-13.186	0.100
110.500	-21.179	0.100
110.600	-26.770	0.100
110.700	-22.872	0.100
110.800	-32.467	0.100
110.900	-16.255	0.100
111.000	-28.491	0.100
111.100	-31.357	0.100
111.200	-18.817	0.100
111.300	-20.464	0.100
111.400	-20.745	0.100
111.500	-22.494	0.100
111.600	-24.182	0.100
111.700	-19.501	0.100
111.800	-26.502	0.100
111.900	-29.612	0.100
112.000	-26.291	0.100
112.100	-25.131	0.100
112.200	-22.819	0.100
112.300	-32.521	0.100
112.400	-26.188	0.100
112.500	-23.044	0.100
112.600	-31.558	0.100
112.700	-30.365	0.100
112.800	-35.039	0.100
112.900	-29.257	0.100
113.000	-36.107	0.100
113.100	-16.847	0.100
113.200	-23.120	0.100
113.300	-33.413	0.100
113.400	-32.606	0.100
113.500	-27.793	0.100
113.600	-20.016	0.100
113.700	-32.185	0.100
113.800	-36.563	0.100
113.900	-37.893	0.100
114.000	-26.502	0.100
114.100	-39.390	0.100
114.200	-23.383	0.100
114.300	-15.844	0.100
114.400	-17.244	0.100
114.500	-34.378	0.100
114.600	-31.062	0.100
114.700	-32.484	0.100
114.800	-27.195	0.100
114.900	-29.006	0.100
115.000	-37.687	0.100
115.100	-30.748	0.100
115.200	-28.999	0.100
115.300	-29.549	0.100
115.400	-23.399	0.100
115.500	-33.332	0.100
115.600	-40.429	0.100
115.700	-38.454	0.100
115.800	-35.434	0.100
115.900	-28.673	0.100
116.000	-29.151	0.100
116.100	-26.829	0.100
116.200	-32.332	0.100
116.300	-31.870	0.100
116.400	-30.856	0.100
116.500	-32.760	0.100
116.600	-31.539	0.100
116.700	-32.555	0.100
116.800	-29.505	0.100
116.900	-30.350	0.100
117.000	-26.742	0.100
117.100	-38.156	0.100
117.200	-42.365	0.100
117.300	-19.079	0.100
117.400	-27.865	0.100
117.500	-29.833	0.100
117.600	-33.462	0.100
117.700	-23.230	0.100
117.800	-28.366	0.100
117.900	-27.876	0.100
118.000	-37.328	0.100
118.100	-31.674	0.100
118.200	-38.022	0.100
118.300	-35.575	0.100
118.400	-27.154	0.100
118.500	-19.440	0.100
118.600	-27.528	0.100
118.700	-19.731	0.100
118.800	-36.362	0.100
118.900	-31.009	0.100
119.000	-33.816	0.100
119.100	-37.381	0.100
119.200	-33.673	0.100
119.300	-48.603	0.100
119.400	-36.595	0.100
119.500	-26.839	0.100
119.600	-35.531	0.100
119.700	-24.531	0.100
119.800	-33.799	0.100
119.900	-38.271	0.100
120.000	-26.581	0.100
120.100	-41.255	0.100
120.200	-28.824	0.100
120.300	-26.757	0.100
120.400	-39.370	0.100
120.500	-31.607	0.100
120.600	-40.487	0.100
120.700	-17.761	0.100
120.800	-36.910	0.100
120.900	-34.759	0.100
121.000	-45.346	0.100
121.100	-33.035	0.100
121.200	-29.423	0.100
121.300	-33.063	0.100
121.400	-34.194	0.100
121.500	-31.893	0.100
121.600	-28.505	0.100
121.700	-22.558	0.100
121.800	-28.693	0.100
121.900	-25.231	0.100
122.000	-35.458	0.100
122.100	-39.215	0.100
122.200	-35.206	0.100
122.300	-35.766	0.100
122.400	-31.505	0.100
122.500	-37.100	0.100
122.600	-25.531	0.100
122.700	-29.421	0.100
122.800	-39.054	0.100
122.900	-41.922	0.100
123.000	-24.561	0.100
123.100	-31.144	0.100
123.200	-38.324	0.100
123.300	-37.484	0.100
123.400	-28.321	0.100
123.500	-32.684	0.100
123.600	-33.904	0.100
123.700	-37.462	0.100
123.800	-37.455	0.100
123.900	-30.348	0.100
124.000	-39.863	0.100
124.100	-40.724	0.100
124.200	-24.650	0.100
124.300	-29.694	0.100
124.400	-37.749	0.100
124.500	-40.993	0.100
124.600	-35.195	0.100
124.700	-27.859	0.100
124.800	-33.582	0.100
124.900	-31.275	0.100
125.000	-35.026	0.100
125.100	-47.447	0.100
125.200	-31.804	0.100
125.300	-37.386	0.100
125.400	-29.989	0.100
125.500	-38.714	0.100
125.600	-35.177	0.100
125.700	-34.568	0.100
125.800	-42.124	0.100
125.900	-45.158	0.100
126.000	-29.425	0.100
126.100	-41.302	0.100
126.200	-34.193	0.100
126.300	-31.942	0.100
126.400	-28.639	0.100
126.500	-46.092	0.100
126.600	-26.542	0.100
126.700	-30.066	0.100
126.800	-42.890	0.100
126.900	-32.246	0.100
127.000	-39.489	0.100
127.100	-31.575	0.100
127.200	-28.435	0.100
127.300	-33.507	0.100
127.400	-42.115	0.100
127.500	-30.836	0.100
127.600	-40.300	0.100
127.700	-34.600	0.100
127.800	-37.670	0.100
127.900	-34.725	0.100
128.000	-41.088	0.100
128.100	-42.722	0.100
128.200	-33.165	0.100
128.300	-38.915	0.100
128.400	-42.837	0.100
128.500	-37.241	0.100
128.600	-39.208	0.100
128.700	-40.229	0.100
128.800	-26.421	0.100
128.900	-39.332	0.100
129.000	-34.140	0.100
129.100	-37.055	0.100
129.200	-31.539	0.100
129.300	-38.710	0.100
129.400	-36.529	0.100
129.500	-30.275	0.100
129.600	-38.220	0.100
129.700	-50.798	0.100
129.800	-45.436	0.100
129.900	-26.231	0.100
130.000	-35.832	0.100
130.100	-34.501	0.100
130.200	-34.274	0.100
130.300	-43.331	0.100
130.400	-38.973	0.100
130.500	-35.193	0.100
130.600	-32.616	0.100
130.700	-37.150	0.100
130.800	-35.138	0.100
130.900	-25.445	0.100
131.000	-25.922	0.100
131.100	-38.214	0.100
131.200	-29.368	0.100
131.300	-45.139	0.100
131.400	-36.519	0.100
131.500	-41.917	0.100
131.600	-44.600	0.100
131.700	-40.357	0.100
131.800	-46.252	0.100
131.900	-37.015	0.100
132.000	-24.562	0.100
132.100	-33.250	0.100
132.200	-30.275	0.100
132.300	-27.354	0.100
132.400	-31.823	0.100
132.500	-41.284	0.100
132.600	-28.178	0.100
132.700	-33.308	0.100
132.800	-31.508	0.100
132.900	-28.157	0.100
133.000	-34.675	0.100
133.100	-35.049	0.100
133.200	-38.039	0.100
133.300	-32.145	0.100
133.400	-40.123	0.100
133.500	-41.295	0.100
133.600	-37.478	0.100
133.700	-42.293	0.100
133.800	-26.701	0.100
133.900	-34.011	0.100
134.000	-44.023	0.100
134.100	-33.446	0.100
134.200	-34.511	0.100
134.300	-35.097	0.100
134.400	-25.985	0.100
134.500	-42.706	0.100
134.600	-31.122	0.100
134.700	-32.260	0.100
134.800	-29.594	0.100
134.900	-41.398	0.100
135.000	-46.462	0.100
135.100	-36.412	0.100
135.200	-37.938	0.100
135.300	-31.917	0.100
135.400	-34.303	0.100
135.500	-41.701	0.100
135.600	-26.305	0.100
135.700	-35.639	0.100
135.800	-29.441	0.100
135.900	-32.008	0.100
136.000	-34.765	0.100
136.100	-38.021	0.100
136.200	-34.968	0.100
136.300	-26.728	0.100
136.400	-33.922	0.100
136.500	-39.845	0.100
136.600	-40.634	0.100
136.700	-25.423	0.100
136.800	-30.563	0.100
136.900	-39.680	0.100
137.000	-28.972	0.100
137.100	-33.293	0.100
137.200	-34.063	0.100
137.300	-35.202	0.100
137.400	-43.808	0.100
137.500	-32.557	0.100
137.600	-31.182	0.100
137.700	-32.615	0.100
137.800	-32.469	0.100
137.900	-33.851	0.100
138.000	-29.871	0.100
138.100	-37.227	0.100
138.200	-26.477	0.100
138.300	-30.644	0.100
138.400	-31.115	0.100
138.500	-34.362	0.100
138.600	-36.853	0.100
138.700	-40.415	0.100
138.800	-29.783	0.100
138.900	-29.325	0.100
139.000	-36.568	0.100
139.100	-36.498	0.100
139.200	-29.729	0.100
139.300	-28.487	0.100
139.400	-40.077	0.100
139.500	-24.684	0.100
139.600	-31.546	0.100
139.700	-28.425	0.100
139.800	-35.652	0.100
139.900	-24.430	0.100
140.000	-41.079	0.100
140.100	-38.247	0.100
140.200	-32.635	0.100
140.300	-31.920	0.100
140.400	-34.864	0.100
140.500	-36.155	0.100
140.600	-33.353	0.100
140.700	-25.976	0.100
140.800	-26.292	0.100
140.900	-27.840	0.100
141.000	-40.388	0.100
141.100	-35.398	0.100
141.200	-30.545	0.100
141.300	-27.675	0.100
141.400	-34.247	0.100
141.500	-29.999	0.100
141.600	-25.538	0.100
141.700	-36.458	0.100
141.800	-34.789	0.100
141.900	-32.308	0.100
142.000	-31.724	0.100
142.100	-34.165	0.100
142.200	-36.660	0.100
142.300	-30.010	0.100
142.400	-18.546	0.100
142.500	-33.885	0.100
142.600	-25.407	0.100
142.700	-24.704	0.100
142.800	-21.271	0.100
142.900	-21.885	0.100
143.000	-31.831	0.100
143.100	-36.576	0.100
143.200	-28.992	0.100
143.300	-33.159	0.100
143.400	-23.230	0.100
143.500	-33.098	0.100
143.600	-38.253	0.100
143.700	-35.960	0.100
143.800	-35.727	0.100
143.900	-36.188	0.100
144.000	-24.728	0.100
144.100	-25.776	0.100
144.200	-36.950	0.100
144.300	-39.310	0.100
144.400	-41.011	0.100
144.500	-42.547	0.100
144.600	-32.698	0.100
144.700	-27.565	0.100
144.800	-21.226	0.100
144.900	-45.441	0.100
145.000	-32.006	0.100
145.100	-24.229	0.100
145.200	-22.440	0.100
145.300	-24.173	0.100
145.400	-30.439	0.100
145.500	-38.987	0.100
145.600	-44.737	0.100
145.700	-30.752	0.100
145.800	-22.072	0.100
145.900	-24.984	0.100
146.000	-27.496	0.100
146.100	-25.550	0.100
146.200	-37.616	0.100
146.300	-30.467	0.100
146.400	-36.285	0.100
146.500	-26.295	0.100
146.600	-42.894	0.100
146.700	-46.744	0.100
146.800	-29.789	0.100
146.900	-24.136	0.100
147.000	-20.249	0.100
147.100	-26.384	0.100
147.200	-35.035	0.100
147.300	-38.216	0.100
147.400	-29.607	0.100
147.500	-26.929	0.100
147.600	-33.719	0.100
147.700	-23.890	0.100
147.800	-27.985	0.100
147.900	-30.010	0.100
148.000	-26.246	0.100
148.100	-26.772	0.100
148.200	-26.967	0.100
148.300	-37.951	0.100
148.400	-22.846	0.100
148.500	-32.725	0.100
148.600	-32.713	0.100
148.700	-25.791	0.100
148.800	-36.731	0.100
148.900	-25.894	0.100
149.000	-36.552	0.100
149.100	-25.787	0.100
149.200	-31.131	0.100
149.300	-33.455	0.100
149.400	-36.370	0.100
149.500	-22.848	0.100
149.600	-30.723	0.100
149.700	-31.537	0.100
149.800	-27.532	0.100
149.900	-31.951	0.100
150.000	-44.878	0.100
150.100	-26.471	0.100
150.200	-19.501	0.100
150.300	-21.332	0.100
150.400	-25.706	0.100
150.500	-34.576	0.100
150.600	-22.891	0.100
150.700	-40.481	0.100
150.800	-30.806	0.100
150.900	-22.593	0.100
151.000	-19.495	0.100
151.100	-35.394	0.100
151.200	-38.415	0.100
151.300	-30.271	0.100
151.400	-21.947	0.100
151.500	-31.121	0.100
151.600	-20.219	0.100
151.700	-37.830	0.100
151.800	-28.697	0.100
151.900	-29.976	0.100
152.000	-22.499	0.100
152.100	-37.189	0.100
152.200	-30.784	0.100
152.300	-22.938	0.100
152.400	-19.243	0.100
152.500	-43.167	0.100
152.600	-23.360	0.100
152.700	-34.113	0.100
152.800	-29.220	0.100
152.900	-27.845	0.100
153.000	-29.810	0.100
153.100	-20.895	0.100
153.200	-26.213	0.100
153.300	-37.568	0.100
153.400	-24.462	0.100
153.500	-30.109	0.100
153.600	-36.955	0.100
153.700	-31.197	0.100
153.800	-19.028	0.100
153.900	-31.520	0.100
154.000	-24.940	0.100
154.100	-28.531	0.100
154.200	-39.402	0.100
154.300	-33.651	0.100
154.400	-22.867	0.100
154.500	-22.844	0.100
154.600	-10.396	0.100
154.700	-24.733	0.100
154.800	-28.140	0.100
154.900	-27.568	0.100
155.000	-37.841	0.100
155.100	-23.550	0.100
155.200	-24.737	0.100
155.300	-26.518	0.100
155.400	-28.569	0.100
155.500	-33.896	0.100
155.600	-29.134	0.100
155.700	-20.843	0.100
155.800	-31.635	0.100
155.900	-23.160	0.100
156.000	-29.700	0.100
156.100	-21.615	0.100
156.200	-24.066	0.100
156.300	-28.403	0.100
156.400	-16.569	0.100
156.500	-24.113	0.100
156.600	-22.596	0.100
156.700	-40.109	0.100
156.800	-24.273	0.100
156.900	-17.524	0.100
157.000	-21.954	0.100
157.100	-32.222	0.100
157.200	-27.293	0.100
157.300	-21.675	0.100
157.400	-27.053	0.100
157.500	-30.236	0.100
157.600	-33.402	0.100
157.700	-38.324	0.100
157.800	-27.154	0.100
157.900	-32.853	0.100
158.000	-33.020	0.100
158.100	-16.745	0.100
158.200	-25.672	0.100
158.300	-28.881	0.100
158.400	-32.377	0.100
158.500	-23.479	0.100
158.600	-18.117	0.100
158.700	-23.994	0.100
158.800	-30.008	0.100
158.900	-21.830	0.100
159.000	-28.460	0.100
159.100	-32.771	0.100
159.200	-25.722	0.100
159.300	-27.281	0.100
159.400	-24.220	0.100
159.500	-15.434	0.100
159.600	-14.713	0.100
159.700	-29.611	0.100
159.800	-23.458	0.100
159.900	-31.476	0.100
160.000	-40.462	0.100
160.100	-27.259	0.100
160.200	-19.905	0.100
160.300	-27.528	0.100
160.400	-28.422	0.100
160.500	-27.066	0.100
160.600	-28.329	0.100
160.700	-18.707	0.100
160.800	-22.347	0.100
160.900	-29.071	0.100
161.000	-24.779	0.100
161.100	-27.081	0.100
161.200	-16.744	0.100
161.300	-34.143	0.100
161.400	-23.513	0.100
161.500	-21.319	0.100
161.600	-20.578	0.100
161.700	-22.634	0.100
161.800	-21.605	0.100
161.900	-36.505	0.100
162.000	-26.711	0.100
162.100	-15.232	0.100
162.200	-23.571	0.100
162.300	-19.955	0.100
162.400	-38.452	0.100
162.500	-25.211	0.100
162.600	-18.607	0.100
162.700	-23.155	0.100
162.800	-26.795	0.100
162.900	-26.726	0.100
163.000	-21.872	0.100
163.100	-29.059	0.100
163.200	-33.349	0.100
163.300	-13.445	0.100
163.400	-26.250	0.100
163.500	-26.666	0.100
163.600	-10.806	0.100
163.700	-23.424	0.100
163.800	-27.820	0.100
163.900	-27.894	0.100
164.000	-23.124	0.100
164.100	-26.232	0.100
164.200	-36.558	0.100
164.300	-16.442	0.100
164.400	-28.172	0.100
164.500	-25.624	0.100
164.600	-16.906	0.100
164.700	-24.539	0.100
164.800	-27.730	0.100
164.900	-20.312	0.100
165.000	-16.506	0.100
165.100	-17.725	0.100
165.200	-36.205	0.100
165.300	-34.135	0.100
165.400	-31.671	0.100
165.500	-27.562	0.100
165.600	-21.710	0.100
165.700	-28.945	0.100
165.800	-22.757	0.100
165.900	-14.482	0.100
166.000	-22.746	0.100
166.100	-22.224	0.100
166.200	-24.505	0.100
166.300	-17.179	0.100
166.400	-18.192	0.100
166.500	-39.450	0.100
166.600	-15.505	0.100
166.700	-28.356	0.100
166.800	-24.740	0.100
166.900	-17.193	0.100
167.000	-26.187	0.100
167.100	-23.753	0.100
167.200	-27.988	0.100
167.300	-9.495	0.100
167.400	-20.824	0.100
167.500	-26.812	0.100
167.600	-15.716	0.100
167.700	-18.338	0.100
167.800	-28.821	0.100
167.900	-29.992	0.100
168.000	-25.585	0.100
168.100	-13.814	0.100
168.200	-26.106	0.100
168.300	-26.140	0.100
168.400	-31.368	0.100
168.500	-18.430	0.100
168.600	-26.179	0.100
168.700	-20.802	0.100
168.800	-20.837	0.100
168.900	-22.605	0.100
169.000	-24.667	0.100
169.100	-23.241	0.100
169.200	-23.268	0.100
169.300	-30.623	0.100
169.400	-24.482	0.100
169.500	-25.839	0.100
169.600	-23.621	0.100
169.700	-21.381	0.100
169.800	-12.054	0.100
169.900	-14.638	0.100
170.000	-20.546	0.100
170.100	-19.915	0.100
170.200	-28.420	0.100
170.300	-23.225	0.100
170.400	-19.150	0.100
170.500	-20.392	0.100
170.600	-23.380	0.100
170.700	-7.756	0.100
170.800	-29.412	0.100
170.900	-26.776	0.100
171.000	-33.827	0.100
171.100	-25.970	0.100
171.200	-12.822	0.100
171.300	-22.409	0.100
171.400	-23.143	0.100
171.500	-20.888	0.100
171.600	-25.293	0.100
171.700	-15.293	0.100
171.800	-27.031	0.100
171.900	-27.895	0.100
172.000	-19.951	0.100
172.100	-11.129	0.100
172.200	-20.339	0.100
172.300	-28.526	0.100
172.400	-29.945	0.100
172.500	-16.897	0.100
172.600	-21.256	0.100
172.700	-30.218	0.100
172.800	-28.136	0.100
172.900	-18.908	0.100
173.000	-7.217	0.100
173.100	-11.776	0.100
173.200	-23.393	0.100
173.300	-21.660	0.100
173.400	-23.432	0.100
173.500	-23.964	0.100
173.600	-22.800	0.100
173.700	-24.301	0.100
173.800	-11.665	0.100
173.900	-26.754	0.100
174.000	-15.618	0.100
174.100	-18.680	0.100
174.200	-19.158	0.100
174.300	-29.264	0.100
174.400	-19.440	0.100
174.500	-18.358	0.100
174.600	-26.744	0.100
174.700	-22.901	0.100
174.800	-25.383	0.100
174.900	-19.152	0.100
175.000	-12.667	0.100
175.100	-27.851	0.100
175.200	-20.990	0.100
175.300	-17.843	0.100
175.400	-19.695	0.100
175.500	-37.875	0.100
175.600	-31.607	0.100
175.700	-27.794	0.100
175.800	-15.441	0.100
175.900	-15.897	0.100
176.000	-10.918	0.100
176.100	-18.364	0.100
176.200	-16.857	0.100
176.300	-27.265	0.100
176.400	-22.796	0.100
176.500	-29.117	0.100
176.600	-20.857	0.100
176.700	-16.072	0.100
176.800	-25.828	0.100
176.900	-11.869	0.100
177.000	-17.955	0.100
177.100	-18.937	0.100
177.200	-27.057	0.100
177.300	-15.985	0.100
177.400	-10.931	0.100
177.500	-30.401	0.100
177.600	-21.197	0.100
177.700	-20.065	0.100
177.800	-23.156	0.100
177.900	-23.292	0.100
178.000	-16.159	0.100
178.100	-6.543	0.100
178.200	-18.629	0.100
178.300	-14.818	0.100
178.400	-15.375	0.100
178.500	-13.848	0.100
178.600	-23.905	0.100
178.700	-10.178	0.100
178.800	-28.733	0.100
178.900	-36.601	0.100
179.000	-29.338	0.100
179.100	-20.120	0.100
179.200	-23.286	0.100
179.300	-22.040	0.100
179.400	-23.072	0.100
179.500	-15.717	0.100
179.600	-8.499	0.100
179.700	-17.067	0.100
179.800	-14.715	0.100
179.900	-23.001	0.100
180.000	-0.956	0.100
180.100	-10.883	0.100
180.200	-3.528	0.100
180.300	0.885	0.100
180.400	7.348	0.100
180.500	16.636	0.100
180.600	10.503	0.100
180.700	6.534	0.100
180.800	21.946	0.100
180.900	20.394	0.100
181.000	13.910	0.100
181.100	18.777	0.100
181.200	30.314	0.100
181.300	41.710	0.100
181.400	33.077	0.100
181.500	38.708	0.100
181.600	33.184	0.100
181.700	25.398	0.100
181.800	36.198	0.100
181.900	27.283	0.100
182.000	27.455	0.100
182.100	28.200	0.100
182.200	36.263	0.100
182.300	46.929	0.100
182.400	41.714	0.100
182.500	26.039	0.100
182.600	31.200	0.100
182.700	24.028	0.100
182.800	34.045	0.100
182.900	35.031	0.100
183.000	37.637	0.100
183.100	43.091	0.100
183.200	42.418	0.100
183.300	29.123	0.100
183.400	28.052	0.100
183.500	44.853	0.100
183.600	39.551	0.100
183.700	34.761	0.100
183.800	53.250	0.100
183.900	44.664	0.100
184.000	40.168	0.100
184.100	36.008	0.100
184.200	34.757	0.100
184.300	33.671	0.100
184.400	28.615	0.100
184.500	33.838	0.100
184.600	39.973	0.100
184.700	24.434	0.100
184.800	38.732	0.100
184.900	32.210	0.100
185.000	32.394	0.100
185.100	27.910	0.100
185.200	32.917	0.100
185.300	28.297	0.100
185.400	40.773	0.100
185.500	29.698	0.100
185.600	38.476	0.100
185.700	32.667	0.100
185.800	36.141	0.100
185.900	44.090	0.100
186.000	34.310	0.100
186.100	34.402	0.100
186.200	37.312	0.100
186.300	30.322	0.100
186.400	33.533	0.100
186.500	40.736	0.100
186.600	45.665	0.100
186.700	36.738	0.100
186.800	44.609	0.100
186.900	48.881	0.100
187.000	49.415	0.100
187.100	36.485	0.100
187.200	45.447	0.100
187.300	38.245	0.100
187.400	59.247	0.100
187.500	45.674	0.100
187.600	51.629	0.100
187.700	48.442	0.100
187.800	50.756	0.100
187.900	47.739	0.100
188.000	44.050	0.100
188.100	53.538	0.100
188.200	53.062	0.100
188.300	35.092	0.100
188.400	42.284	0.100
188.500	47.379	0.100
188.600	56.727	0.100
188.700	46.117	0.100
188.800	54.696	0.100
188.900	54.172	0.100
189.000	36.858	0.100
189.100	51.656	0.100
189.200	43.799	0.100
189.300	58.060	0.100
189.400	59.602	0.100
189.500	56.681	0.100
189.600	63.472	0.100
189.700	53.926	0.100
189.800	60.587	0.100
189.900	58.237	0.100
190.000	58.034	0.100
190.100	60.549	0.100
190.200	57.345	0.100
190.300	55.520	0.100
190.400	69.436	0.100
190.500	60.017	0.100
190.600	62.399	0.100
190.700	57.788	0.100
190.800	61.047	0.100
190.900	67.550	0.100
191.000	63.406	0.100
191.100	61.113	0.100
191.200	56.194	0.100
191.300	61.442	0.100
191.400	58.614	0.100
191.500	62.696	0.100
191.600	60.499	0.100
191.700	68.925	0.100
191.800	72.468	0.100
191.900	69.005	0.100
192.000	52.797	0.100
192.100	66.302	0.100
192.200	78.347	0.100
192.300	58.351	0.100
192.400	71.243	0.100
192.500	76.428	0.100
192.600	64.644	0.100
192.700	81.126	0.100
192.800	67.017	0.100
192.900	77.392	0.100
193.000	61.690	0.100
193.100	58.310	0.100
193.200	66.815	0.100
193.300	73.025	0.100
193.400	83.695	0.100
193.500	63.552	0.100
193.600	67.032	0.100
193.700	80.798	0.100
193.800	70.981	0.100
193.900	80.244	0.100
194.000	77.909	0.100
194.100	83.434	0.100
194.200	86.639	0.100
194.300	85.752	0.100
194.400	70.704	0.100
194.500	66.179	0.100
194.600	79.008	0.100
194.700	80.677	0.100
194.800	90.092	0.100
194.900	80.123	0.100
195.000	81.912	0.100
195.100	86.126	0.100
195.200	81.574	0.100
195.300	69.489	0.100
195.400	84.525	0.100
195.500	83.408	0.100
195.600	86.013	0.100
195.700	91.138	0.100
195.800	73.945	0.100
195.900	81.966	0.100
196.000	77.173	0.100
196.100	79.115	0.100
196.200	87.239	0.100
196.300	74.973	0.100
196.400	84.597	0.100
196.500	90.654	0.100
196.600	94.469	0.100
196.700	80.905	0.100
196.800	91.732	0.100
196.900	77.551	0.100
197.000	84.702	0.100
197.100	85.597	0.100
197.200	81.457	0.100
197.300	88.006	0.100
197.400	93.085	0.100
197.500	70.464	0.100
197.600	80.434	0.100
197.700	81.056	0.100
197.800	83.488	0.100
197.900	82.965	0.100
198.000	85.877	0.100
198.100	77.143	0.100
198.200	91.403	0.100
198.300	79.890	0.100
198.400	84.055	0.100
198.500	73.561	0.100
198.600	84.045	0.100
198.700	85.970	0.100
198.800	94.691	0.100
198.900	75.828	0.100
199.000	77.160	0.100
199.100	80.790	0.100
199.200	87.874	0.100
199.300	99.127	0.100
199.400	75.947	0.100
199.500	81.754	0.100
199.600	94.689	0.100
199.700	85.204	0.100
199.800	86.515	0.100
199.900	89.462	0.100
200.000	94.178	0.100
200.100	78.796	0.100
200.200	71.966	0.100
200.300	86.035	0.100
200.400	96.039	0.100
200.500	87.473	0.100
200.600	90.249	0.100
200.700	77.031	0.100
200.800	84.880	0.100
200.900	79.715	0.100
201.000	71.452	0.100
201.100	80.669	0.100
201.200	79.537	0.100
201.300	77.326	0.100
201.400	92.057	0.100
201.500	86.698	0.100
201.600	82.266	0.100
201.700	74.577	0.100
201.800	82.295	0.100
201.900	62.374	0.100
202.000	81.614	0.100
202.100	80.209	0.100
202.200	88.318	0.100
202.300	91.429	0.100
202.400	83.305	0.100
202.500	87.967	0.100
202.600	77.994	0.100
202.700	85.358	0.100
202.800	85.126	0.100
202.900	70.076	0.100
203.000	88.107	0.100
203.100	85.249	0.100
203.200	82.017	0.100
203.300	74.685	0.100
203.400	77.559	0.100
203.500	79.478	0.100
203.600	77.719	0.100
203.700	72.320	0.100
203.800	89.945	0.100
203.900	93.158	0.100
204.000	77.179	0.100
204.100	90.995	0.100
204.200	85.348	0.100
204.300	77.444	0.100
204.400	78.907	0.100
204.500	83.864	0.100
204.600	80.631	0.100
204.700	77.677	0.100
204.800	79.812	0.100
204.900	82.811	0.100
205.000	80.741	0.100
205.100	89.002	0.100
205.200	83.223	0.100
205.300	77.401	0.100
205.400	80.580	0.100
205.500	72.146	0.100
205.600	79.984	0.100
205.700	72.825	0.100
205.800	76.618	0.100
205.900	90.154	0.100
206.000	91.728	0.100
206.100	83.560	0.100
206.200	72.639	0.100
206.300	80.453	0.100
206.400	71.950	0.100
206.500	78.814	0.100
206.600	81.381	0.100
206.700	88.903	0.100
206.800	84.135	0.100
206.900	83.811	0.100
207.000	69.997	0.100
207.100	56.877	0.100
207.200	75.791	0.100
207.300	59.768	0.100
207.400	78.786	0.100
207.500	66.527	0.100
207.600	81.199	0.100
207.700	81.121	0.100
207.800	77.951	0.100
207.900	74.037	0.100
208.000	92.516	0.100
208.100	70.325	0.100
208.200	81.215	0.100
208.300	74.931	0.100
208.400	77.143	0.100
208.500	74.950	0.100
208.600	71.503	0.100
208.700	72.242	0.100
208.800	85.170	0.100
208.900	81.462	0.100
209.000	69.525	0.100
209.100	79.498	0.100
209.200	75.620	0.100
209.300	83.722	0.100
209.400	78.623	0.100
209.500	79.392	0.100
209.600	61.775	0.100
209.700	61.439	0.100
209.800	79.621	0.100
209.900	87.576	0.100
210.000	77.772	0.100
210.100	72.998	0.100
210.200	73.994	0.100
210.300	73.637	0.100
210.400	76.785	0.100
210.500	74.113	0.100
210.600	72.286	0.100
210.700	68.678	0.100
210.800	67.357	0.100
210.900	78.150	0.100
211.000	81.715	0.100
211.100	64.198	0.100
211.200	76.276	0.100
211.300	77.112	0.100
211.400	79.022	0.100
211.500	68.409	0.100
211.600	66.381	0.100
211.700	72.866	0.100
211.800	79.609	0.100
211.900	85.989	0.100
212.000	86.466	0.100
212.100	78.116	0.100
212.200	69.502	0.100
212.300	67.280	0.100
212.400	69.642	0.100
212.500	75.593	0.100
212.600	71.084	0.100
212.700	62.113	0.100
212.800	80.291	0.100
212.900	76.173	0.100
213.000	70.715	0.100
213.100	57.701	0.100
213.200	67.094	0.100
213.300	76.093	0.100
213.400	75.060	0.100
213.500	65.443	0.100
213.600	66.020	0.100
213.700	77.600	0.100
213.800	71.996	0.100
213.900	74.965	0.100
214.000	62.739	0.100
214.100	65.827	0.100
214.200	87.606	0.100
214.300	81.128	0.100
214.400	71.545	0.100
214.500	75.130	0.100
214.600	72.594	0.100
214.700	70.707	0.100
214.800	62.482	0.100
214.900	73.874	0.100
215.000	76.226	0.100
215.100	75.834	0.100
215.200	77.060	0.100
215.300	78.414	0.100
215.400	81.371	0.100
215.500	76.952	0.100
215.600	70.858	0.100
215.700	64.618	0.100
215.800	66.360	0.100
215.900	63.976	0.100
216.000	76.974	0.100
216.100	72.627	0.100
216.200	66.621	0.100
216.300	70.274	0.100
216.400	80.733	0.100
216.500	80.026	0.100
216.600	69.534	0.100
216.700	84.062	0.100
216.800	71.519	0.100
216.900	62.487	0.100
217.000	71.368	0.100
217.100	72.382	0.100
217.200	71.142	0.100
217.300	80.729	0.100
217.400	64.988	0.100
217.500	74.601	0.100
217.600	68.132	0.100
217.700	64.537	0.100
217.800	57.339	0.100
217.900	70.416	0.100
218.000	67.677	0.100
218.100	76.625	0.100
218.200	78.336	0.100
218.300	70.641	0.100
218.400	67.118	0.100
218.500	63.714	0.100
218.600	73.306	0.100
218.700	73.037	0.100
218.800	56.465	0.100
218.900	58.369	0.100
219.000	69.762	0.100
219.100	69.857	0.100
219.200	75.987	0.100
219.300	65.523	0.100
219.400	66.190	0.100
219.500	63.134	0.100
219.600	69.879	0.100
219.700	67.776	0.100
219.800	86.557	0.100
219.900	74.644	0.100
220.000	56.594	0.100
220.100	70.415	0.100
220.200	61.775	0.100
220.300	68.450	0.100
220.400	51.321	0.100
220.500	60.150	0.100
220.600	83.948	0.100
220.700	78.766	0.100
220.800	59.562	0.100
220.900	78.894	0.100
221.000	71.424	0.100
221.100	77.685	0.100
221.200	68.935	0.100
221.300	68.951	0.100
221.400	69.180	0.100
221.500	61.192	0.100
221.600	71.270	0.100
221.700	65.829	0.100
221.800	72.716	0.100
221.900	75.183	0.100
222.000	64.875	0.100
222.100	70.692	0.100
222.200	63.450	0.100
222.300	77.421	0.100
222.400	74.689	0.100
222.500	66.032	0.100
222.600	60.884	0.100
222.700	77.324	0.100
222.800	73.998	0.100
222.900	66.364	0.100
223.000	63.605	0.100
223.100	60.742	0.100
223.200	75.009	0.100
223.300	68.476	0.100
223.400	65.587	0.100
223.500	87.229	0.100
223.600	78.223	0.100
223.700	63.526	0.100
223.800	80.786	0.100
223.900	62.369	0.100
224.000	73.738	0.100
224.100	72.240	0.100
224.200	67.344	0.100
224.300	68.639	0.100
224.400	62.014	0.100
224.500	74.277	0.100
224.600	59.927	0.100
224.700	73.326	0.100
224.800	64.492	0.100
224.900	55.406	0.100
225.000	67.317	0.100
225.100	73.300	0.100
225.200	65.281	0.100
225.300	73.980	0.100
225.400	57.517	0.100
225.500	60.831	0.100
225.600	68.684	0.100
225.700	59.204	0.100
225.800	67.274	0.100
225.900	64.474	0.100
226.000	72.830	0.100
226.100	66.236	0.100
226.200	70.768	0.100
226.300	70.892	0.100
226.400	69.523	0.100
226.500	56.811	0.100
226.600	60.809	0.100
226.700	68.649	0.100
226.800	64.523	0.100
226.900	62.909	0.100
227.000	70.125	0.100
227.100	63.496	0.100
227.200	72.086	0.100
227.300	56.305	0.100
227.400	63.830	0.100
227.500	68.759	0.100
227.600	80.853	0.100
227.700	61.668	0.100
227.800	61.745	0.100
227.900	57.862	0.100
228.000	63.418	0.100
228.100	69.667	0.100
228.200	67.796	0.100
228.300	63.078	0.100
228.400	68.952	0.100
228.500	60.711	0.100
228.600	81.548	0.100
228.700	55.707	0.100
228.800	62.418	0.100
228.900	63.399	0.100
229.000	79.541	0.100
229.100	68.898	0.100
229.200	58.770	0.100
229.300	65.492	0.100
229.400	69.275	0.100
229.500	69.749	0.100
229.600	76.612	0.100
229.700	67.599	0.100
229.800	62.740	0.100
229.900	62.566	0.100
230.000	66.460	0.100
230.100	58.908	0.100
230.200	63.797	0.100
230.300	63.376	0.100
230.400	72.227	0.100
230.500	73.975	0.100
230.600	60.277	0.100
230.700	69.820	0.100
230.800	65.096	0.100
230.900	59.603	0.100
231.000	71.424	0.100
231.100	60.590	0.100
231.200	63.795	0.100
231.300	61.663	0.100
231.400	75.503	0.100
231.500	62.355	0.100
231.600	76.890	0.100
231.700	61.084	0.100
231.800	56.459	0.100
231.900	68.086	0.100
232.000	68.798	0.100
232.100	65.111	0.100
232.200	69.761	0.100
232.300	67.530	0.100
232.400	57.949	0.100
232.500	66.701	0.100
232.600	73.544	0.100
232.700	56.208	0.100
232.800	69.205	0.100
232.900	63.573	0.100
233.000	63.008	0.100
233.100	62.696	0.100
233.200	65.953	0.100
233.300	66.575	0.100
233.400	68.864	0.100
233.500	80.806	0.100
233.600	76.948	0.100
233.700	60.218	0.100
233.800	63.426	0.100
233.900	70.852	0.100
234.000	63.847	0.100
234.100	55.838	0.100
234.200	56.037	0.100
234.300	70.460	0.100
234.400	63.113	0.100
234.500	64.445	0.100
234.600	60.719	0.100
234.700	62.474	0.100
234.800	59.314	0.100
234.900	65.460	0.100
235.000	62.014	0.100
235.100	56.859	0.100
235.200	58.650	0.100
235.300	70.717	0.100
235.400	70.253	0.100
235.500	70.895	0.100
235.600	64.906	0.100
235.700	58.797	0.100
235.800	52.104	0.100
235.900	69.406	0.100
236.000	62.106	0.100
236.100	82.214	0.100
236.200	69.595	0.100
236.300	63.823	0.100
236.400	58.910	0.100
236.500	67.692	0.100
236.600	68.769	0.100
236.700	69.242	0.100
236.800	62.667	0.100
236.900	49.072	0.100
237.000	62.493	0.100
237.100	70.304	0.100
237.200	75.571	0.100
237.300	59.838	0.100
237.400	66.072	0.100
237.500	66.637	0.100
237.600	73.553	0.100
237.700	61.656	0.100
237.800	64.812	0.100
237.900	70.250	0.100
238.000	78.466	0.100
238.100	60.731	0.100
238.200	57.371	0.100
238.300	73.370	0.100
238.400	76.651	0.100
238.500	72.288	0.100
238.600	54.156	0.100
238.700	62.555	0.100
238.800	71.142	0.100
238.900	66.945	0.100
239.000	62.031	0.100
239.100	66.133	0.100
239.200	64.022	0.100
239.300	64.843	0.100
239.400	58.227	0.100
239.500	70.517	0.100
239.600	57.127	0.100
239.700	64.007	0.100
239.800	60.359	0.100
239.900	51.594	0.100
240.000	41.074	0.100
240.100	50.972	0.100
240.200	42.269	0.100
240.300	25.704	0.100
240.400	21.255	0.100
240.500	25.310	0.100
240.600	28.647	0.100
240.700	27.041	0.100
240.800	18.940	0.100
240.900	16.851	0.100
241.000	13.450	0.100
241.100	4.924	0.100
241.200	14.392	0.100
241.300	2.515	0.100
241.400	1.340	0.100
241.500	1.174	0.100
241.600	-2.107	0.100
241.700	2.430	0.100
241.800	1.003	0.100
241.900	-2.825	0.100
242.000	-9.616	0.100
242.100	-10.473	0.100
242.200	-10.186	0.100
242.300	-11.725	0.100
242.400	-12.822	0.100
242.500	-12.524	0.100
242.600	-9.871	0.100
242.700	-16.539	0.100
242.800	-17.696	0.100
242.900	-10.850	0.100
243.000	-18.358	0.100
243.100	-19.158	0.100
243.200	-20.550	0.100
243.300	-19.407	0.100
243.400	-28.282	0.100
243.500	-25.110	0.100
243.600	-21.727	0.100
243.700	-30.206	0.100
243.800	-24.661	0.100
243.900	-27.639	0.100
244.000	-14.068	0.100
244.100	-19.874	0.100
244.200	-33.922	0.100
244.300	-28.384	0.100
244.400	-26.485	0.100
244.500	-25.559	0.100
244.600	-27.517	0.100
244.700	-29.226	0.100
244.800	-33.207	0.100
244.900	-30.161	0.100
245.000	-26.770	0.100
245.100	-17.356	0.100
245.200	-27.435	0.100
245.300	-17.880	0.100
245.400	-17.007	0.100
245.500	-36.046	0.100
245.600	-37.356	0.100
245.700	-31.874	0.100
245.800	-33.505	0.100
245.900	-29.689	0.100
246.000	-25.308	0.100
246.100	-19.426	0.100
246.200	-25.245	0.100
246.300	-31.179	0.100
246.400	-15.936	0.100
246.500	-21.749	0.100
246.600	-31.752	0.100
246.700	-22.417	0.100
246.800	-26.844	0.100
246.900	-18.510	0.100
247.000	-26.411	0.100
247.100	-16.812	0.100
247.200	-31.621	0.100
247.300	-25.645	0.100
247.400	-31.695	0.100
247.500	-18.303	0.100
247.600	-31.734	0.100
247.700	-38.204	0.100
247.800	-20.087	0.100
247.900	-27.914	0.100
248.000	-22.538	0.100
248.100	-32.334	0.100
248.200	-28.528	0.100
248.300	-26.828	0.100
248.400	-15.294	0.100
248.500	-22.622	0.100
248.600	-28.087	0.100
248.700	-21.572	0.100
248.800	-14.598	0.100
248.900	-25.237	0.100
249.000	-40.948	0.100
249.100	-30.876	0.100
249.200	-23.093	0.100
249.300	-21.155	0.100
249.400	-26.408	0.100
249.500	-27.389	0.100
249.600	-18.796	0.100
249.700	-17.530	0.100
249.800	-26.407	0.100
249.900	-22.412	0.100
250.000	-12.588	0.100
250.100	-26.280	0.100
250.200	-23.872	0.100
250.300	-26.049	0.100
250.400	-25.375	0.100
250.500	-25.904	0.100
250.600	-26.390	0.100
250.700	-20.777	0.100
250.800	-24.491	0.100
250.900	-18.507	0.100
251.000	-23.599	0.100
251.100	-13.834	0.100
251.200	-19.908	0.100
251.300	-28.066	0.100
251.400	-28.931	0.100
251.500	-22.387	0.100
251.600	-17.502	0.100
251.700	-20.601	0.100
251.800	-24.714	0.100
251.900	-28.419	0.100
252.000	-26.072	0.100
252.100	-35.549	0.100
252.200	-25.354	0.100
252.300	-21.214	0.100
252.400	-25.003	0.100
252.500	-10.095	0.100
252.600	-27.379	0.100
252.700	-25.624	0.100
252.800	-10.463	0.100
252.900	-22.586	0.100
253.000	-23.044	0.100
253.100	-33.914	0.100
253.200	-21.289	0.100
253.300	-32.195	0.100
253.400	-33.636	0.100
253.500	-21.080	0.100
253.600	-35.558	0.100
253.700	-31.872	0.100
253.800	-21.547	0.100
253.900	-29.018	0.100
254.000	-14.338	0.100
254.100	-33.943	0.100
254.200	-24.157	0.100
254.300	-29.899	0.100
254.400	-36.013	0.100
254.500	-19.157	0.100
254.600	-18.926	0.100
254.700	-28.836	0.100
254.800	-21.518	0.100
254.900	-18.364	0.100
255.000	-19.955	0.100
255.100	-33.522	0.100
255.200	-35.019	0.100
255.300	-41.090	0.100
255.400	-27.458	0.100
255.500	-29.065	0.100
255.600	-29.203	0.100
255.700	-35.544	0.100
255.800	-13.418	0.100
255.900	-24.984	0.100
256.000	-38.967	0.100
256.100	-26.797	0.100
256.200	-29.972	0.100
256.300	-20.294	0.100
256.400	-30.166	0.100
256.500	-26.396	0.100
256.600	-18.548	0.100
256.700	-25.016	0.100
256.800	-30.401	0.100
256.900	-24.177	0.100
257.000	-26.969	0.100
257.100	-25.132	0.100
257.200	-27.435	0.100
257.300	-20.158	0.100
257.400	-20.345	0.100
257.500	-18.939	0.100
257.600	-33.684	0.100
257.700	-32.081	0.100
257.800	-21.984	0.100
257.900	-33.400	0.100
258.000	-35.363	0.100
258.100	-18.879	0.100
258.200	-20.326	0.100
258.300	-35.334	0.100
258.400	-24.839	0.100
258.500	-34.421	0.100
258.600	-28.939	0.100
258.700	-35.592	0.100
258.800	-22.867	0.100
258.900	-23.608	0.100
259.000	-22.900	0.100
259.100	-38.240	0.100
259.200	-24.417	0.100
259.300	-28.675	0.100
259.400	-30.418	0.100
259.500	-29.417	0.100
259.600	-34.367	0.100
259.700	-34.142	0.100
259.800	-31.219	0.100
259.900	-29.333	0.100
260.000	-25.647	0.100
260.100	-26.836	0.100
260.200	-38.291	0.100
260.300	-27.034	0.100
260.400	-33.376	0.100
260.500	-30.055	0.100
260.600	-34.274	0.100
260.700	-32.049	0.100
260.800	-23.376	0.100
260.900	-33.915	0.100
261.000	-39.171	0.100
261.100	-24.894	0.100
261.200	-30.844	0.100
261.300	-31.893	0.100
261.400	-32.081	0.100
261.500	-25.926	0.100
261.600	-32.962	0.100
261.700	-41.290	0.100
261.800	-42.266	0.100
261.900	-33.045	0.100
262.000	-27.533	0.100
262.100	-37.649	0.100
262.200	-34.015	0.100
262.300	-40.162	0.100
262.400	-35.214	0.100
262.500	-49.758	0.100
262.600	-20.012	0.100
262.700	-36.485	0.100
262.800	-23.420	0.100
262.900	-32.386	0.100
263.000	-36.240	0.100
263.100	-35.412	0.100
263.200	-30.913	0.100
263.300	-28.444	0.100
263.400	-32.494	0.100
263.500	-29.876	0.100
263.600	-41.631	0.100
263.700	-35.584	0.100
263.800	-30.522	0.100
263.900	-37.074	0.100
264.000	-31.716	0.100
264.100	-14.679	0.100
264.200	-46.019	0.100
264.300	-29.100	0.100
264.400	-39.156	0.100
264.500	-20.687	0.100
264.600	-44.572	0.100
264.700	-30.293	0.100
264.800	-37.117	0.100
264.900	-33.077	0.100
265.000	-43.407	0.100
265.100	-46.599	0.100
265.200	-29.742	0.100
265.300	-29.525	0.100
265.400	-34.852	0.100
265.500	-45.995	0.100
265.600	-45.186	0.100
265.700	-26.902	0.100
265.800	-29.769	0.100
265.900	-21.332	0.100
266.000	-36.885	0.100
266.100	-39.283	0.100
266.200	-52.955	0.100
266.300	-40.393	0.100
266.400	-32.712	0.100
266.500	-31.801	0.100
266.600	-40.923	0.100
266.700	-26.345	0.100
266.800	-30.557	0.100
266.900	-40.282	0.100
267.000	-34.529	0.100
267.100	-50.632	0.100
267.200	-47.838	0.100
267.300	-48.364	0.100
267.400	-44.725	0.100
267.500	-38.050	0.100
267.600	-20.212	0.100
267.700	-29.106	0.100
267.800	-33.719	0.100
267.900	-40.019	0.100
268.000	-44.114	0.100
268.100	-43.194	0.100
268.200	-38.997	0.100
268.300	-41.029	0.100
268.400	-44.146	0.100
268.500	-39.410	0.100
268.600	-40.370	0.100
268.700	-33.067	0.100
268.800	-43.644	0.100
268.900	-32.913	0.100
269.000	-45.420	0.100
269.100	-46.282	0.100
269.200	-33.603	0.100
269.300	-49.788	0.100
269.400	-46.291	0.100
269.500	-33.177	0.100
269.600	-37.773	0.100
269.700	-36.379	0.100
269.800	-36.437	0.100
269.900	-38.138	0.100
270.000	-32.659	0.100
270.100	-40.380	0.100
270.200	-37.179	0.100
270.300	-43.415	0.100
270.400	-46.369	0.100
270.500	-37.429	0.100
270.600	-51.230	0.100
270.700	-38.801	0.100
270.800	-40.055	0.100
270.900	-40.782	0.100
271.000	-34.743	0.100
271.100	-33.054	0.100
271.200	-44.870	0.100
271.300	-45.570	0.100
271.400	-36.633	0.100
271.500	-34.089	0.100
271.600	-41.305	0.100
271.700	-33.476	0.100
271.800	-30.698	0.100
271.900	-42.742	0.100
272.000	-46.418	0.100
272.100	-41.697	0.100
272.200	-44.614	0.100
272.300	-32.210	0.100
272.400	-39.294	0.100
272.500	-33.254	0.100
272.600	-42.360	0.100
272.700	-49.320	0.100
272.800	-53.831	0.100
272.900	-35.759	0.100
273.000	-28.846	0.100
273.100	-43.587	0.100
273.200	-36.811	0.100
273.300	-47.594	0.100
273.400	-36.132	0.100
273.500	-54.435	0.100
273.600	-34.838	0.100
273.700	-31.657	0.100
273.800	-35.916	0.100
273.900	-57.057	0.100
274.000	-39.515	0.100
274.100	-31.015	0.100
274.200	-35.450	0.100
274.300	-39.859	0.100
274.400	-33.805	0.100
274.500	-38.635	0.100
274.600	-36.606	0.100
274.700	-34.554	0.100
274.800	-40.772	0.100
274.900	-39.255	0.100
275.000	-37.691	0.100
275.100	-40.687	0.100
275.200	-43.790	0.100
275.300	-39.253	0.100
275.400	-38.386	0.100
275.500	-40.140	0.100
275.600	-48.928	0.100
275.700	-50.022	0.100
275.800	-40.034	0.100
275.900	-33.456	0.100
276.000	-50.569	0.100
276.100	-49.632	0.100
276.200	-38.902	0.100
276.300	-44.338	0.100
276.400	-46.226	0.100
276.500	-45.674	0.100
276.600	-40.532	0.100
276.700	-41.533	0.100
276.800	-41.466	0.100
276.900	-39.370	0.101
277.000	-42.441	0.101
277.100	-24.684	0.101
277.200	-34.203	0.101
277.300	-46.382	0.101
277.400	-35.621	0.101
277.500	-40.634	0.101
277.600	-30.310	0.101
277.700	-38.263	0.101
277.800	-43.816	0.101
277.900	-37.105	0.101
278.000	-52.528	0.101
278.100	-49.717	0.101
278.200	-36.667	0.101
278.300	-38.604	0.101
278.400	-46.132	0.101
278.500	-51.733	0.101
278.600	-42.435	0.101
278.700	-31.165	0.101
278.800	-32.545	0.101
278.900	-23.226	0.101
279.000	-35.763	0.101
279.100	-44.283	0.101
279.200	-31.500	0.101
279.300	-32.617	0.101
279.400	-44.982	0.101
279.500	-43.362	0.101
279.600	-36.160	0.101
279.700	-36.474	0.101
279.800	-38.469	0.101
279.900	-34.184	0.101
280.000	-38.569	0.101
280.100	-43.648	0.101
280.200	-37.294	0.101
280.300	-47.061	0.101
280.400	-42.920	0.101
280.500	-41.625	0.101
280.600	-38.758	0.101
280.700	-43.369	0.101
280.800	-45.226	0.101
280.900	-39.041	0.101
281.000	-39.927	0.101
281.100	-29.588	0.101
281.200	-36.794	0.101
281.300	-35.424	0.101
281.400	-41.518	0.101
281.500	-31.011	0.101
281.600	-38.516	0.101
281.700	-37.320	0.101
281.800	-37.552	0.101
281.900	-27.588	0.101
282.000	-35.391	0.101
282.100	-30.763	0.101
282.200	-30.123	0.101
282.300	-27.751	0.101
282.400	-43.146	0.101
282.500	-43.585	0.101
282.600	-31.702	0.101
282.700	-38.805	0.101
282.800	-36.236	0.101
282.900	-35.379	0.101
283.000	-32.492	0.101
283.100	-47.698	0.101
283.200	-33.656	0.101
283.300	-37.106	0.101
283.400	-43.374	0.101
283.500	-38.264	0.101
283.600	-40.064	0.101
283.700	-40.447	0.101
283.800	-34.225	0.101
283.900	-34.403	0.101
284.000	-32.077	0.101
284.100	-41.141	0.101
284.200	-40.073	0.101
284.300	-31.237	0.101
284.400	-44.122	0.101
284.500	-43.320	0.101
284.600	-27.626	0.101
284.700	-27.542	0.101
284.800	-38.314	0.101
284.900	-44.627	0.101
285.000	-46.941	0.101
285.100	-24.267	0.101
285.200	-32.163	0.101
285.300	-41.977	0.101
285.400	-33.452	0.101
285.500	-31.205	0.101
285.600	-37.583	0.101
285.700	-45.375	0.101
285.800	-28.032	0.101
285.900	-38.482	0.101
286.000	-37.497	0.101
286.100	-52.995	0.101
286.200	-42.014	0.101
286.300	-37.009	0.101
286.400	-36.382	0.101
286.500	-29.079	0.101
286.600	-30.772	0.101
286.700	-32.300	0.101
286.800	-31.995	0.101
286.900	-28.228	0.101
287.000	-47.069	0.101
287.100	-41.864	0.101
287.200	-30.461	0.101
287.300	-38.654	0.101
287.400	-30.792	0.101
287.500	-32.739	0.101
287.600	-36.759	0.101
287.700	-35.227	0.101
287.800	-45.861	0.101
287.900	-37.134	0.101
288.000	-36.714	0.101
288.100	-27.649	0.101
288.200	-32.763	0.101
288.300	-25.455	0.101
288.400	-46.283	0.101
288.500	-36.061	0.101
288.600	-29.411	0.101
288.700	-25.760	0.101
288.800	-29.825	0.101
288.900	-21.665	0.101
289.000	-42.586	0.101
289.100	-28.934	0.101
289.200	-29.604	0.101
289.300	-33.589	0.101
289.400	-29.366	0.101
289.500	-42.285	0.101
289.600	-35.593	0.101
289.700	-32.170	0.101
289.800	-27.138	0.101
289.900	-40.358	0.101
290.000	-26.910	0.101
290.100	-27.316	0.101
290.200	-37.478	0.101
290.300	-43.524	0.101
290.400	-43.086	0.101
290.500	-29.584	0.101
290.600	-35.421	0.101
290.700	-34.337	0.101
290.800	-35.168	0.101
290.900	-34.779	0.101
291.000	-34.118	0.101
291.100	-37.500	0.101
291.200	-34.608	0.101
291.300	-26.335	0.101
291.400	-40.303	0.101
291.500	-34.979	0.101
291.600	-39.267	0.101
291.700	-32.495	0.101
291.800	-37.990	0.101
291.900	-34.268	0.101
292.000	-41.828	0.101
292.100	-38.716	0.101
292.200	-39.990	0.101
292.300	-30.553	0.101
292.400	-31.917	0.101
292.500	-36.244	0.101
292.600	-31.369	0.101
292.700	-34.524	0.101
292.800	-32.350	0.101
292.900	-22.152	0.101
293.000	-30.936	0.101
293.100	-23.832	0.101
293.200	-34.409	0.101
293.300	-21.951	0.101
293.400	-35.130	0.101
293.500	-40.128	0.101
293.600	-34.854	0.101
293.700	-34.213	0.101
293.800	-26.432	0.101
293.900	-28.013	0.101
294.000	-25.043	0.100
294.100	-34.731	0.100
294.200	-40.072	0.100
294.300	-29.878	0.100
294.400	-30.525	0.100
294.500	-31.477	0.100
294.600	-38.033	0.100
294.700	-35.344	0.100
294.800	-28.153	0.100
294.900	-30.561	0.100
295.000	-37.752	0.100
295.100	-24.484	0.100
295.200	-28.725	0.100
295.300	-42.185	0.100
295.400	-41.998	0.100
295.500	-30.881	0.100
295.600	-39.792	0.100
295.700	-20.219	0.100
295.800	-22.950	0.100
295.900	-21.502	0.100
296.000	-46.298	0.100
296.100	-25.362	0.100
296.200	-27.695	0.100
296.300	-38.797	0.100
296.400	-31.213	0.100
296.500	-23.306	0.100
296.600	-32.163	0.100
296.700	-25.056	0.100
296.800	-40.266	0.100
296.900	-27.798	0.100
297.000	-47.760	0.100
297.100	-35.308	0.100
297.200	-35.116	0.100
297.300	-18.243	0.100
297.400	-17.238	0.100
297.500	-29.489	0.100
297.600	-34.751	0.100
297.700	-38.985	0.100
297.800	-29.884	0.100
297.900	-26.439	0.100
298.000	-34.325	0.100
298.100	-26.893	0.100
298.200	-23.841	0.100
298.300	-42.790	0.100
298.400	-40.648	0.100
298.500	-31.080	0.100
298.600	-25.881	0.100
298.700	-35.863	0.100
298.800	-28.029	0.100
298.900	-25.106	0.100
299.000	-36.254	0.100
299.100	-34.730	0.100
299.200	-29.455	0.100
299.300	-18.747	0.100
299.400	-39.315	0.100
299.500	-32.301	0.100
299.600	-27.310	0.100
299.700	-29.295	0.100
299.800	-31.071	0.100
299.900	-24.146	0.100
300.000	-29.565	0.100
300.100	-20.138	0.100
300.200	-32.946	0.100
300.300	-36.661	0.100
300.400	-29.547	0.100
300.500	-34.413	0.100
300.600	-29.417	0.100
300.700	-28.380	0.100
300.800	-30.866	0.100
300.900	-33.313	0.100
301.000	-17.957	0.100
301.100	-25.552	0.100
301.200	-24.155	0.100
301.300	-33.626	0.100
301.400	-32.407	0.100
301.500	-30.334	0.100
301.600	-21.822	0.100
301.700	-37.007	0.100
301.800	-22.933	0.100
301.900	-38.250	0.100
302.000	-29.316	0.100
302.100	-44.704	0.100
302.200	-28.106	0.100
302.300	-16.948	0.100
302.400	-32.833	0.100
302.500	-36.359	0.100
302.600	-35.020	0.100
302.700	-28.839	0.100
302.800	-28.213	0.100
302.900	-29.131	0.100
303.000	-31.439	0.100
303.100	-31.632	0.100
303.200	-29.940	0.100
303.300	-25.685	0.100
303.400	-36.904	0.100
303.500	-36.886	0.100
303.600	-31.269	0.100
303.700	-25.347	0.100
303.800	-30.259	0.100
303.900	-32.515	0.100
304.000	-33.477	0.100
304.100	-17.957	0.100
304.200	-27.173	0.100
304.300	-26.569	0.100
304.400	-41.580	0.100
304.500	-28.919	0.100
304.600	-29.341	0.100
304.700	-28.868	0.100
304.800	-27.992	0.100
304.900	-25.487	0.100
305.000	-32.702	0.100
305.100	-28.342	0.100
305.200	-41.129	0.100
305.300	-33.284	0.100
305.400	-20.616	0.100
305.500	-12.437	0.100
305.600	-24.600	0.100
305.700	-33.368	0.100
305.800	-40.103	0.100
305.900	-19.336	0.100
306.000	-16.806	0.100
306.100	-34.596	0.100
306.200	-37.960	0.100
306.300	-16.948	0.100
306.400	-31.074	0.100
306.500	-46.852	0.100
306.600	-14.663	0.100
306.700	-28.602	0.100
306.800	-30.588	0.100
306.900	-24.119	0.100
307.000	-16.900	0.100
307.100	-41.942	0.100
307.200	-30.628	0.100
307.300	-28.900	0.100
307.400	-34.698	0.100
307.500	-22.131	0.100
307.600	-18.420	0.100
307.700	-36.096	0.100
307.800	-26.543	0.100
307.900	-22.266	0.100
308.000	-25.377	0.100
308.100	-34.926	0.100
308.200	-22.349	0.100
308.300	-31.651	0.100
308.400	-33.704	0.100
308.500	-29.030	0.100
308.600	-23.456	0.100
308.700	-20.898	0.100
308.800	-19.985	0.100
308.900	-26.910	0.100
309.000	-20.670	0.100
309.100	-35.901	0.100
309.200	-32.061	0.100
309.300	-26.895	0.100
309.400	-19.555	0.100
309.500	-17.667	0.100
309.600	-30.925	0.100
309.700	-34.675	0.100
309.800	-26.126	0.100
309.900	-14.967	0.100
310.000	-19.293	0.100
310.100	-29.020	0.100
310.200	-31.085	0.100
310.300	-37.243	0.100
310.400	-27.524	0.100
310.500	-31.141	0.100
310.600	-18.481	0.100
310.700	-23.582	0.100
310.800	-33.763	0.100
310.900	-34.288	0.100
311.000	-34.530	0.100
311.100	-23.762	0.100
311.200	-23.052	0.100
311.300	-21.807	0.100
311.400	-22.946	0.100
311.500	-26.440	0.100
311.600	-24.745	0.100
311.700	-14.733	0.100
311.800	-22.062	0.100
311.900	-35.676	0.100
312.000	-28.409	0.100
312.100	-23.323	0.100
312.200	-29.263	0.100
312.300	-28.518	0.100
312.400	-32.420	0.100
312.500	-19.634	0.100
312.600	-30.033	0.100
312.700	-24.478	0.100
312.800	-29.777	0.100
312.900	-36.424	0.100
313.000	-35.546	0.100
313.100	-19.826	0.100
313.200	-36.299	0.100
313.300	-27.407	0.100
313.400	-35.866	0.100
313.500	-38.294	0.100
313.600	-11.814	0.100
313.700	-26.607	0.100
313.800	-24.923	0.100
313.900	-18.935	0.100
314.000	-23.239	0.100
314.100	-29.732	0.100
314.200	-31.822	0.100
314.300	-17.983	0.100
314.400	-36.476	0.100
314.500	-16.417	0.100
314.600	-19.055	0.100
314.700	-22.471	0.100
314.800	-23.341	0.100
314.900	-23.508	0.100
315.000	-26.519	0.100
315.100	-30.314	0.100
315.200	-31.802	0.100
315.300	-21.410	0.100
315.400	-34.599	0.100
315.500	-29.022	0.100
315.600	-31.667	0.100
315.700	-27.819	0.100
315.800	-20.195	0.100
315.900	-23.368	0.100
316.000	-23.809	0.100
316.100	-22.925	0.100
316.200	-29.252	0.100
316.300	-24.994	0.100
316.400	-18.986	0.100
316.500	-23.985	0.100
316.600	-23.337	0.100
316.700	-21.828	0.100
316.800	-24.021	0.100
316.900	-27.437	0.100
317.000	-26.098	0.100
317.100	-33.109	0.100
317.200	-32.716	0.100
317.300	-9.641	0.100
317.400	-24.469	0.100
317.500	-33.082	0.100
317.600	-31.235	0.100
317.700	-28.513	0.100
317.800	-10.245	0.100
317.900	-26.990	0.100
318.000	-28.147	0.100
318.100	-25.529	0.100
318.200	-20.115	0.100
318.300	-21.981	0.100
318.400	-33.773	0.100
318.500	-22.419	0.100
318.600	-29.645	0.100
318.700	-26.254	0.100
318.800	-22.617	0.100
318.900	-24.500	0.100
319.000	-26.967	0.100
319.100	-33.561	0.100
319.200	-27.660	0.100
319.300	-27.222	0.100
319.400	-19.557	0.100
319.500	-22.662	0.100
319.600	-17.881	0.100
319.700	-28.418	0.100
319.800	-31.819	0.100
319.900	-24.543	0.100
320.000	-26.916	0.100
320.100	-19.585	0.100
320.200	-15.697	0.100
320.300	-22.427	0.100
320.400	-37.166	0.100
320.500	-32.645	0.100
320.600	-31.118	0.100
320.700	-19.449	0.100
320.800	-26.943	0.100
320.900	-26.651	0.100
321.000	-29.119	0.100
321.100	-22.612	0.100
321.200	-24.642	0.100
321.300	-14.452	0.100
321.400	-23.974	0.100
321.500	-17.785	0.100
321.600	-22.934	0.100
321.700	-20.060	0.100
321.800	-28.560	0.100
321.900	-24.354	0.100
322.000	-28.847	0.100
322.100	-28.774	0.100
322.200	-13.332	0.100
322.300	-29.757	0.100
322.400	-19.135	0.100
322.500	-20.525	0.100
322.600	-20.537	0.100
322.700	-28.009	0.100
322.800	-33.921	0.100
322.900	-21.216	0.100
323.000	-23.762	0.100
323.100	-32.547	0.100
323.200	-20.434	0.100
323.300	-20.573	0.100
323.400	-26.863	0.100
323.500	-18.847	0.100
323.600	-14.078	0.100
323.700	-22.245	0.100
323.800	-12.889	0.100
323.900	-22.769	0.100
324.000	-22.281	0.100
324.100	-26.955	0.100
324.200	-35.589	0.100
324.300	-26.629	0.100
324.400	-23.200	0.100
324.500	-35.344	0.100
324.600	-29.291	0.100
324.700	-33.670	0.100
324.800	-12.797	0.100
324.900	-24.097	0.100
325.000	-11.733	0.100
325.100	-26.214	0.100
325.200	-22.127	0.100
325.300	-35.112	0.100
325.400	-34.128	0.100
325.500	-20.623	0.100
325.600	-20.079	0.100
325.700	-21.600	0.100
325.800	-3.719	0.100
325.900	-25.828	0.100
326.000	-17.576	0.100
326.100	-34.600	0.100
326.200	-19.006	0.100
326.300	-12.367	0.100
326.400	-24.720	0.100
326.500	-16.497	0.100
326.600	-19.315	0.100
326.700	-24.942	0.100
326.800	-28.661	0.100
326.900	-25.381	0.100
327.000	-17.562	0.100
327.100	-18.528	0.100
327.200	-15.245	0.100
327.300	-14.393	0.100
327.400	-27.477	0.100
327.500	-19.804	0.100
327.600	-25.462	0.100
327.700	-19.657	0.100
327.800	-31.598	0.100
327.900	-24.199	0.100
328.000	-21.725	0.100
328.100	-27.203	0.100
328.200	-28.744	0.100
328.300	-17.200	0.100
328.400	-17.314	0.100
328.500	-12.528	0.100
328.600	-23.808	0.100
328.700	-41.494	0.100
328.800	-23.927	0.100
328.900	-25.331	0.100
329.000	-18.693	0.100
329.100	-26.736	0.100
329.200	-18.676	0.100
329.300	-14.019	0.100
329.400	-6.135	0.100
329.500	-31.329	0.100
329.600	-25.487	0.100
329.700	-21.271	0.100
329.800	-19.994	0.100
329.900	-12.165	0.100
330.000	-16.012	0.100
330.100	-8.986	0.100
330.200	-1.024	0.100
330.300	-3.887	0.100
330.400	-4.272	0.100
330.500	5.089	0.100
330.600	-4.546	0.100
330.700	6.014	0.100
330.800	10.778	0.100
330.900	20.535	0.100
331.000	26.173	0.100
331.100	29.127	0.100
331.200	33.827	0.100
331.300	26.664	0.100
331.400	23.134	0.100
331.500	32.339	0.100
331.600	42.127	0.100
331.700	44.536	0.100
331.800	36.737	0.100
331.900	34.912	0.100
332.000	29.521	0.100
332.100	22.020	0.100
332.200	24.867	0.100
332.300	38.525	0.100
332.400	33.324	0.100
332.500	24.646	0.100
332.600	37.112	0.100
332.700	40.306	0.100
332.800	49.468	0.100
332.900	30.761	0.100
333.000	40.765	0.100
333.100	36.972	0.100
333.200	39.198	0.100
333.300	30.082	0.100
333.400	34.303	0.100
333.500	34.341	0.100
333.600	43.424	0.100
333.700	22.247	0.100
333.800	25.824	0.100
333.900	28.967	0.100
334.000	44.147	0.100
334.100	48.725	0.100
334.200	51.415	0.100
334.300	29.773	0.100
334.400	37.928	0.100
334.500	40.384	0.100
334.600	32.357	0.100
334.700	23.473	0.100
334.800	31.980	0.100
334.900	32.513	0.100
335.000	32.954	0.100
335.100	26.754	0.100
335.200	38.359	0.100
335.300	39.829	0.100
335.400	29.493	0.100
335.500	32.465	0.100
335.600	35.105	0.100
335.700	26.907	0.100
335.800	27.124	0.100
335.900	25.522	0.100
336.000	24.637	0.100
336.100	42.855	0.100
336.200	40.761	0.100
336.300	40.311	0.100
336.400	26.743	0.100
336.500	33.932	0.100
336.600	44.089	0.100
336.700	38.304	0.100
336.800	38.125	0.100
336.900	37.371	0.100
337.000	47.528	0.100
337.100	40.383	0.100
337.200	39.849	0.100
337.300	35.152	0.100
337.400	28.398	0.100
337.500	37.323	0.100
337.600	46.094	0.100
337.700	46.610	0.100
337.800	44.763	0.100
337.900	33.517	0.100
338.000	42.414	0.100
338.100	40.804	0.100
338.200	45.182	0.100
338.300	39.536	0.100
338.400	35.756	0.100
338.500	42.657	0.100
338.600	39.822	0.100
338.700	41.840	0.100
338.800	40.246	0.100
338.900	32.158	0.100
339.000	39.555	0.100
339.100	31.005	0.100
339.200	43.125	0.100
339.300	32.209	0.100
339.400	46.355	0.100
339.500	43.313	0.100
339.600	56.568	0.100
339.700	52.555	0.100
339.800	49.027	0.100
339.900	38.262	0.100
340.000	42.673	0.100
340.100	44.977	0.100
340.200	54.579	0.100
340.300	40.411	0.100
340.400	57.227	0.100
340.500	53.575	0.100
340.600	49.064	0.100
340.700	29.037	0.100
340.800	44.115	0.100
340.900	52.865	0.100
341.000	56.611	0.100
341.100	63.174	0.100
341.200	49.420	0.100
341.300	56.152	0.100
341.400	55.401	0.100
341.500	46.986	0.100
341.600	50.845	0.100
341.700	63.744	0.100
341.800	42.451	0.100
341.900	52.226	0.100
342.000	51.824	0.100
342.100	56.447	0.100
342.200	51.623	0.100
342.300	52.004	0.100
342.400	61.744	0.100
342.500	67.703	0.100
342.600	46.707	0.100
342.700	63.683	0.100
342.800	66.163	0.100
342.900	57.509	0.100
343.000	44.843	0.100
343.100	65.554	0.100
343.200	70.555	0.100
343.300	58.759	0.100
343.400	61.212	0.100
343.500	54.545	0.100
343.600	62.133	0.100
343.700	55.019	0.100
343.800	60.769	0.100
343.900	62.010	0.100
344.000	66.814	0.100
344.100	70.144	0.100
344.200	76.371	0.100
344.300	62.599	0.100
344.400	52.068	0.100
344.500	70.300	0.100
344.600	79.798	0.100
344.700	69.658	0.100
344.800	69.061	0.100
344.900	71.393	0.100
345.000	72.742	0.100
345.100	70.998	0.100
345.200	71.932	0.100
345.300	76.351	0.100
345.400	83.967	0.100
345.500	58.166	0.100
345.600	65.964	0.100
345.700	66.422	0.100
345.800	69.159	0.100
345.900	77.860	0.100
346.000	73.747	0.100
346.100	79.540	0.100
346.200	74.137	0.100
346.300	68.343	0.100
346.400	75.242	0.100
346.500	67.219	0.100
346.600	83.967	0.100
346.700	79.651	0.100
346.800	82.174	0.100
346.900	74.295	0.100
347.000	86.270	0.100
347.100	87.308	0.100
347.200	70.100	0.100
347.300	78.751	0.100
347.400	82.440	0.100
347.500	80.058	0.100
347.600	70.939	0.100
347.700	80.595	0.100
347.800	72.417	0.100
347.900	73.319	0.100
348.000	85.056	0.100
348.100	78.557	0.100
348.200	73.525	0.100
348.300	71.868	0.100
348.400	78.349	0.100
348.500	81.171	0.100
348.600	89.052	0.100
348.700	81.825	0.100
348.800	70.568	0.100
348.900	75.439	0.100
349.000	79.135	0.100
349.100	82.349	0.100
349.200	80.256	0.100
349.300	97.251	0.100
349.400	90.519	0.100
349.500	84.718	0.100
349.600	76.496	0.100
349.700	78.993	0.100
349.800	87.430	0.100
349.900	95.359	0.100
350.000	92.681	0.100
350.100	83.393	0.100
350.200	79.409	0.100
350.300	85.721	0.100
350.400	84.321	0.100
350.500	77.493	0.100
350.600	84.942	0.100
350.700	79.764	0.100
350.800	73.500	0.100
350.900	87.262	0.100
351.000	78.824	0.100
351.100	100.122	0.100
351.200	77.183	0.100
351.300	75.664	0.100
351.400	77.405	0.100
351.500	84.510	0.100
351.600	90.918	0.100
351.700	79.672	0.100
351.800	89.612	0.100
351.900	87.197	0.100
352.000	84.429	0.100
352.100	83.610	0.100
352.200	75.756	0.100
352.300	86.393	0.100
352.400	81.980	0.100
352.500	74.317	0.100
352.600	84.306	0.100
352.700	89.534	0.100
352.800	76.583	0.100
352.900	75.944	0.100
353.000	85.519	0.100
353.100	84.925	0.100
353.200	75.804	0.100
353.300	75.412	0.100
353.400	83.655	0.100
353.500	81.559	0.100
353.600	85.546	0.100
353.700	84.799	0.100
353.800	76.280	0.100
353.900	82.254	0.100
354.000	87.193	0.100
354.100	85.908	0.100
354.200	88.234	0.100
354.300	76.120	0.100
354.400	83.395	0.100
354.500	75.487	0.100
354.600	92.005	0.100
354.700	77.719	0.100
354.800	67.411	0.100
354.900	79.102	0.100
355.000	79.576	0.100
355.100	81.703	0.100
355.200	97.382	0.100
355.300	77.554	0.100
355.400	83.315	0.100
355.500	74.604	0.100
355.600	76.479	0.100
355.700	77.508	0.100
355.800	75.059	0.100
355.900	77.548	0.100
356.000	77.668	0.100
356.100	76.414	0.100
356.200	71.674	0.100
356.300	76.019	0.100
356.400	83.319	0.100
356.500	80.620	0.100
356.600	80.049	0.100
356.700	67.068	0.100
356.800	78.884	0.100
356.900	94.970	0.100
357.000	73.443	0.100
357.100	73.794	0.100
357.200	71.518	0.100
357.300	78.197	0.100
357.400	71.363	0.100
357.500	69.212	0.100
357.600	71.265	0.100
357.700	78.367	0.100
357.800	75.562	0.100
357.900	82.280	0.100
358.000	84.246	0.100
358.100	76.384	0.100
358.200	75.515	0.100
358.300	71.839	0.100
358.400	79.497	0.100
358.500	68.652	0.100
358.600	73.215	0.100
358.700	85.497	0.100
358.800	76.820	0.100
358.900	85.043	0.100
359.000	73.291	0.100
359.100	69.052	0.100
359.200	76.081	0.100
359.300	81.069	0.100
359.400	64.627	0.100
359.500	66.208	0.100
359.600	81.471	0.100
359.700	70.403	0.100
359.800	70.298	0.100
359.900	73.183	0.100
360.000	71.558	0.100
360.100	65.971	0.100
360.200	77.913	0.100
360.300	82.079	0.100
360.400	70.951	0.100
360.500	78.424	0.100
360.600	71.817	0.100
360.700	83.973	0.100
360.800	79.091	0.100
360.900	75.303	0.100
361.000	77.198	0.100
361.100	72.998	0.100
361.200	59.609	0.100
361.300	82.129	0.100
361.400	84.040	0.100
361.500	75.294	0.100
361.600	87.227	0.100
361.700	80.846	0.100
361.800	61.137	0.100
361.900	72.991	0.100
362.000	67.769	0.100
362.100	78.903	0.100
362.200	68.850	0.100
362.300	68.928	0.100
362.400	64.469	0.100
362.500	69.423	0.100
362.600	73.830	0.100
362.700	84.180	0.100
362.800	78.635	0.100
362.900	69.918	0.100
363.000	76.036	0.100
363.100	70.992	0.100
363.200	63.689	0.100
363.300	63.537	0.100
363.400	61.181	0.100
363.500	73.157	0.100
363.600	71.666	0.100
363.700	65.946	0.100
363.800	79.324	0.100
363.900	65.162	0.100
364.000	75.135	0.100
364.100	70.515	0.100
364.200	76.768	0.100
364.300	58.464	0.100
364.400	73.084	0.100
364.500	68.638	0.100
364.600	64.923	0.100
364.700	73.771	0.100
364.800	81.001	0.100
364.900	74.970	0.100
365.000	69.040	0.100
365.100	62.551	0.100
365.200	77.041	0.100
365.300	66.918	0.100
365.400	60.559	0.100
365.500	61.800	0.100
365.600	75.761	0.100
365.700	67.963	0.100
365.800	67.608	0.100
365.900	76.399	0.100
366.000	70.952	0.100
366.100	63.713	0.100
366.200	75.509	0.100
366.300	64.779	0.100
366.400	62.730	0.100
366.500	74.379	0.100
366.600	73.271	0.100
366.700	86.236	0.100
366.800	73.340	0.100
366.900	57.539	0.100
367.000	73.603	0.100
367.100	82.910	0.100
367.200	63.650	0.100
367.300	64.317	0.100
367.400	70.437	0.100
367.500	73.731	0.100
367.600	78.155	0.100
367.700	67.550	0.100
367.800	69.559	0.100
367.900	77.447	0.100
368.000	67.509	0.100
368.100	62.353	0.100
368.200	67.990	0.100
368.300	65.940	0.100
368.400	77.626	0.100
368.500	79.536	0.100
368.600	68.724	0.100
368.700	76.949	0.100
368.800	64.432	0.100
368.900	81.725	0.100
369.000	63.918	0.100
369.100	74.778	0.100
369.200	77.020	0.100
369.300	67.723	0.100
369.400	61.210	0.100
369.500	72.197	0.100
369.600	77.954	0.100
369.700	70.873	0.100
369.800	77.151	0.100
369.900	65.926	0.100
370.000	64.782	0.100
370.100	77.645	0.100
370.200	71.393	0.100
370.300	67.779	0.100
370.400	73.655	0.100
370.500	73.844	0.100
370.600	78.305	0.100
370.700	79.188	0.100
370.800	64.340	0.100
370.900	62.017	0.100
371.000	67.349	0.100
371.100	69.357	0.100
371.200	72.023	0.100
371.300	54.713	0.100
371.400	78.978	0.100
371.500	64.891	0.100
371.600	70.257	0.100
371.700	60.054	0.100
371.800	69.655	0.100
371.900	62.482	0.100
372.000	73.173	0.100
372.100	69.559	0.100
372.200	62.403	0.100
372.300	68.043	0.100
372.400	65.941	0.100
372.500	65.222	0.100
372.600	74.080	0.100
372.700	59.233	0.100
372.800	69.889	0.100
372.900	67.692	0.100
373.000	75.962	0.100
373.100	60.793	0.100
373.200	71.259	0.100
373.300	69.564	0.100
373.400	80.993	0.100
373.500	72.975	0.100
373.600	67.573	0.100
373.700	66.425	0.100
373.800	67.657	0.100
373.900	74.959	0.100
374.000	62.336	0.100
374.100	76.543	0.100
374.200	74.837	0.100
374.300	67.104	0.100
374.400	57.855	0.100
374.500	64.561	0.100
374.600	67.941	0.100
374.700	62.168	0.100
374.800	59.082	0.100
374.900	55.825	0.100
375.000	63.757	0.100
375.100	71.248	0.100
375.200	56.099	0.100
375.300	69.289	0.100
375.400	83.083	0.100
375.500	57.506	0.100
375.600	65.529	0.100
375.700	68.012	0.100
375.800	69.417	0.100
375.900	82.107	0.100
376.000	60.561	0.100
376.100	69.632	0.100
376.200	59.272	0.100
376.300	66.062	0.100
376.400	59.427	0.100
376.500	76.951	0.100
376.600	73.061	0.100
376.700	63.870	0.100
376.800	60.752	0.100
376.900	74.048	0.100
377.000	68.756	0.100
377.100	59.413	0.100
377.200	66.056	0.100
377.300	81.789	0.100
377.400	60.621	0.100
377.500	68.051	0.100
377.600	71.983	0.100
377.700	61.780	0.100
377.800	67.038	0.100
377.900	72.430	0.100
378.000	57.620	0.100
378.100	76.467	0.100
378.200	73.363	0.100
378.300	72.033	0.100
378.400	65.264	0.100
378.500	70.325	0.100
378.600	78.649	0.100
378.700	48.013	0.100
378.800	65.208	0.100
378.900	75.775	0.100
379.000	66.536	0.100
379.100	64.682	0.100
379.200	59.857	0.100
379.300	70.337	0.100
379.400	62.957	0.100
379.500	65.398	0.100
379.600	67.398	0.100
379.700	81.058	0.100
379.800	64.654	0.100
379.900	82.985	0.100
380.000	59.967	0.100
380.100	66.258	0.100
380.200	70.383	0.100
380.300	64.169	0.100
380.400	68.105	0.100
380.500	69.610	0.100
380.600	74.542	0.100
380.700	74.257	0.100
380.800	77.727	0.100
380.900	64.864	0.100
381.000	65.639	0.100
381.100	68.825	0.100
381.200	66.411	0.100
381.300	68.756	0.100
381.400	66.754	0.100
381.500	66.578	0.100
381.600	59.841	0.100
381.700	68.321	0.100
381.800	72.824	0.100
381.900	68.821	0.100
382.000	71.347	0.100
382.100	71.574	0.100
382.200	57.656	0.100
382.300	62.242	0.100
382.400	70.391	0.100
382.500	60.966	0.100
382.600	67.012	0.100
382.700	74.638	0.100
382.800	75.244	0.100
382.900	73.275	0.100
383.000	62.033	0.100
383.100	59.585	0.100
383.200	74.302	0.100
383.300	69.251	0.100
383.400	73.478	0.100
383.500	60.309	0.100
383.600	67.433	0.100
383.700	70.883	0.100
383.800	67.076	0.100
383.900	64.923	0.100
384.000	65.728	0.100
384.100	67.306	0.100
384.200	69.106	0.100
384.300	68.272	0.100
384.400	54.685	0.100
384.500	71.292	0.100
384.600	75.298	0.100
384.700	64.093	0.100
384.800	68.391	0.100
384.900	68.244	0.100
385.000	62.031	0.100
385.100	71.648	0.100
385.200	53.152	0.100
385.300	63.796	0.100
385.400	70.354	0.100
385.500	65.603	0.100
385.600	64.779	0.100
385.700	64.627	0.100
385.800	66.634	0.100
385.900	74.354	0.100
386.000	65.324	0.100
386.100	64.140	0.100
386.200	72.282	0.100
386.300	63.904	0.100
386.400	59.602	0.100
386.500	68.862	0.100
386.600	70.861	0.100
386.700	49.237	0.100
386.800	58.630	0.100
386.900	64.106	0.100
387.000	57.260	0.100
387.100	54.916	0.100
387.200	73.362	0.100
387.300	74.450	0.100
387.400	59.932	0.100
387.500	66.993	0.100
387.600	67.123	0.100
387.700	64.304	0.100
387.800	69.168	0.100
387.900	58.586	0.100
388.000	74.804	0.100
388.100	81.643	0.100
388.200	49.708	0.100
388.300	49.966	0.100
388.400	58.235	0.100
388.500	78.839	0.100
388.600	73.269	0.100
388.700	66.295	0.100
388.800	71.442	0.100
388.900	70.232	0.100
389.000	59.866	0.100
389.100	57.119	0.100
389.200	65.936	0.100
389.300	63.909	0.100
389.400	71.450	0.100
389.500	72.913	0.100
389.600	57.960	0.100
389.700	48.969	0.100
389.800	55.094	0.100
389.900	73.852	0.100
390.000	51.451	0.100
390.100	44.010	0.100
390.200	39.407	0.100
390.300	35.782	0.100
390.400	27.071	0.100
390.500	32.887	0.100
390.600	23.167	0.100
390.700	30.426	0.100
390.800	27.858	0.100
390.900	21.961	0.100
391.000	18.687	0.100
391.100	-1.135	0.100
391.200	10.036	0.100
391.300	15.321	0.100
391.400	4.045	0.100
391.500	5.195	0.100
391.600	-2.090	0.100
391.700	-11.562	0.100
391.800	-7.728	0.100
391.900	-1.642	0.100
392.000	-9.222	0.100
392.100	0.800	0.100
392.200	-2.735	0.100
392.300	-19.152	0.100
392.400	-6.644	0.100
392.500	-14.584	0.100
392.600	-9.335	0.100
392.700	-14.761	0.100
392.800	-8.648	0.100
392.900	-27.140	0.100
393.000	-16.990	0.100
393.100	-12.487	0.100
393.200	-9.342	0.100
393.300	-31.944	0.100
393.400	-31.568	0.100
393.500	-12.941	0.100
393.600	-24.486	0.100
393.700	-14.149	0.100
393.800	-7.959	0.100
393.900	-22.909	0.100
394.000	-21.383	0.100
394.100	-26.703	0.100
394.200	-43.690	0.100
394.300	-24.047	0.100
394.400	-21.949	0.100
394.500	-36.666	0.100
394.600	-34.070	0.100
394.700	-21.844	0.100
394.800	-33.305	0.100
394.900	-24.580	0.100
395.000	-27.198	0.100
395.100	-19.442	0.100
395.200	-29.991	0.100
395.300	-28.380	0.100
395.400	-23.199	0.100
395.500	-31.903	0.100
395.600	-24.253	0.100
395.700	-19.602	0.100
395.800	-26.552	0.100
395.900	-26.888	0.100
396.000	-19.049	0.100
396.100	-34.196	0.100
396.200	-32.606	0.100
396.300	-26.577	0.100
396.400	-20.878	0.100
396.500	-24.427	0.100
396.600	-34.164	0.100
396.700	-16.245	0.100
396.800	-7.292	0.100
396.900	-29.818	0.100
397.000	-26.140	0.100
397.100	-20.067	0.100
397.200	-31.064	0.100
397.300	-38.409	0.100
397.400	-20.244	0.100
397.500	-27.339	0.100
397.600	-18.089	0.100
397.700	-19.847	0.100
397.800	-32.074	0.100
397.900	-25.609	0.100
398.000	-18.897	0.100
398.100	-25.138	0.100
398.200	-30.846	0.100
398.300	-27.723	0.100
398.400	-27.996	0.100
398.500	-15.380	0.100
398.600	-27.440	0.100
398.700	-29.236	0.100
398.800	-27.301	0.100
398.900	-18.562	0.100
399.000	-24.473	0.100
399.100	-21.242	0.100
399.200	-30.135	0.100
399.300	-42.165	0.100
399.400	-22.743	0.100
399.500	-19.282	0.100
399.600	-12.750	0.100
399.700	-21.221	0.100
399.800	-16.571	0.100
399.900	-32.053	0.100
400.000	-24.959	0.100
400.100	-25.095	0.100
400.200	-27.638	0.100
400.300	-20.067	0.100
400.400	-18.344	0.100
400.500	-35.476	0.100
400.600	-19.869	0.100
400.700	-24.443	0.100
400.800	-26.647	0.100
400.900	-26.227	0.100
401.000	-16.097	0.100
401.100	-25.674	0.100
401.200	-22.205	0.100
401.300	-29.086	0.100
401.400	-31.807	0.100
401.500	-25.667	0.100
401.600	-5.141	0.100
401.700	-24.101	0.100
401.800	-33.642	0.100
401.900	-15.858	0.100
402.000	-22.623	0.100
402.100	-17.616	0.100
402.200	-22.799	0.100
402.300	-17.012	0.100
402.400	-18.310	0.100
402.500	-22.341	0.100
402.600	-29.288	0.100
402.700	-35.948	0.100
402.800	-34.515	0.100
402.900	-29.321	0.100
403.000	-24.005	0.100
403.100	-22.110	0.100
403.200	-41.522	0.100
403.300	-45.429	0.100
403.400	-20.132	0.100
403.500	-29.019	0.100
403.600	-28.049	0.100
403.700	-16.027	0.100
403.800	-18.273	0.100
403.900	-22.009	0.100
404.000	-13.182	0.100
404.100	-17.595	0.100
404.200	-27.845	0.100
404.300	-29.425	0.100
404.400	-27.741	0.100
404.500	-40.852	0.100
404.600	-20.048	0.100
404.700	-29.355	0.100
404.800	-19.999	0.100
404.900	-20.238	0.100
405.000	-26.006	0.100
405.100	-28.726	0.100
405.200	-21.432	0.100
405.300	-22.683	0.100
405.400	-38.822	0.100
405.500	-16.963	0.100
405.600	-31.908	0.100
405.700	-39.054	0.100
405.800	-33.290	0.100
405.900	-23.664	0.100
406.000	-23.110	0.100
406.100	-21.522	0.100
406.200	-26.402	0.100
406.300	-24.390	0.100
406.400	-30.405	0.100
406.500	-31.756	0.100
406.600	-32.771	0.100
406.700	-30.335	0.100
406.800	-22.881	0.100
406.900	-28.980	0.100
407.000	-28.410	0.100
407.100	-34.050	0.100
407.200	-23.980	0.100
407.300	-28.304	0.100
407.400	-20.993	0.100
407.500	-17.107	0.100
407.600	-21.597	0.100
407.700	-34.501	0.100
407.800	-40.216	0.100
407.900	-29.883	0.100
408.000	-40.456	0.100
408.100	-25.675	0.100
408.200	-37.041	0.100
408.300	-23.291	0.100
408.400	-29.208	0.100
408.500	-24.061	0.100
408.600	-24.177	0.100
408.700	-29.475	0.100
408.800	-34.992	0.100
408.900	-25.366	0.100
409.000	-30.984	0.100
409.100	-52.282	0.100
409.200	-22.596	0.100
409.300	-30.104	0.100
409.400	-38.577	0.100
409.500	-36.149	0.100
409.600	-30.843	0.100
409.700	-36.244	0.100
409.800	-38.265	0.100
409.900	-20.010	0.100
410.000	-25.059	0.100
410.100	-29.369	0.100
410.200	-19.238	0.100
410.300	-30.181	0.100
410.400	-47.371	0.100
410.500	-31.214	0.100
410.600	-33.277	0.100
410.700	-33.350	0.100
410.800	-27.519	0.100
410.900	-35.861	0.100
411.000	-20.811	0.100
411.100	-25.316	0.100
411.200	-30.072	0.100
411.300	-32.994	0.100
411.400	-34.655	0.100
411.500	-22.600	0.100
411.600	-31.518	0.100
411.700	-34.808	0.100
411.800	-40.717	0.100
411.900	-31.804	0.100
412.000	-35.967	0.100
412.100	-30.894	0.100
412.200	-33.015	0.100
412.300	-22.163	0.100
412.400	-30.815	0.100
412.500	-34.264	0.100
412.600	-44.091	0.100
412.700	-40.140	0.100
412.800	-26.178	0.100
412.900	-37.607	0.100
413.000	-31.361	0.100
413.100	-34.184	0.100
413.200	-25.199	0.100
413.300	-37.060	0.100
413.400	-34.177	0.100
413.500	-22.953	0.100
413.600	-32.858	0.100
413.700	-42.371	0.100
413.800	-36.280	0.100
413.900	-25.970	0.100
414.000	-46.194	0.100
414.100	-36.915	0.100
414.200	-27.376	0.100
414.300	-51.091	0.100
414.400	-33.835	0.100
414.500	-39.245	0.100
414.600	-45.798	0.100
414.700	-47.173	0.100
414.800	-30.645	0.100
414.900	-32.213	0.100
415.000	-34.736	0.100
415.100	-30.638	0.100
415.200	-29.190	0.100
415.300	-44.474	0.100
415.400	-37.570	0.100
415.500	-25.478	0.100
415.600	-36.598	0.100
415.700	-32.414	0.100
415.800	-36.184	0.100
415.900	-35.411	0.100
416.000	-40.317	0.100
416.100	-33.118	0.100
416.200	-37.111	0.100
416.300	-44.071	0.100
416.400	-33.678	0.100
416.500	-28.748	0.100
416.600	-43.698	0.100
416.700	-37.240	0.100
416.800	-36.878	0.100
416.900	-32.616	0.100
417.000	-33.045	0.100
417.100	-39.289	0.100
417.200	-39.547	0.100
417.300	-36.864	0.100
417.400	-36.862	0.100
417.500	-43.324	0.100
417.600	-31.792	0.100
417.700	-37.703	0.100
417.800	-41.997	0.100
417.900	-43.251	0.100
418.000	-34.791	0.100
418.100	-30.147	0.100
418.200	-40.062	0.100
418.300	-35.010	0.100
418.400	-30.825	0.100
418.500	-39.734	0.100
418.600	-30.741	0.100
418.700	-35.105	0.100
418.800	-30.447	0.100
418.900	-44.250	0.100
419.000	-37.015	0.100
419.100	-42.138	0.100
419.200	-49.719	0.100
419.300	-45.183	0.100
419.400	-45.307	0.100
419.500	-47.120	0.100
419.600	-43.361	0.100
419.700	-42.968	0.100
419.800	-30.614	0.100
419.900	-35.518	0.100
420.000	-45.456	0.100
420.100	-38.764	0.100
420.200	-39.131	0.100
420.300	-45.502	0.100
420.400	-44.103	0.100
420.500	-45.513	0.100
420.600	-40.936	0.100
420.700	-31.342	0.100
420.800	-37.723	0.100
420.900	-33.873	0.100
421.000	-39.452	0.100
421.100	-36.860	0.100
421.200	-33.794	0.100
421.300	-40.972	0.100
421.400	-42.406	0.100
421.500	-47.109	0.100
421.600	-50.699	0.100
421.700	-43.244	0.100
421.800	-34.900	0.100
421.900	-33.218	0.100
422.000	-44.358	0.100
422.100	-42.142	0.100
422.200	-31.973	0.100
422.300	-40.705	0.100
422.400	-45.857	0.100
422.500	-26.542	0.100
422.600	-45.795	0.100
422.700	-41.258	0.100
422.800	-37.417	0.100
422.900	-32.576	0.100
423.000	-47.686	0.100
423.100	-39.134	0.100
423.200	-30.662	0.100
423.300	-48.536	0.100
423.400	-37.850	0.100
423.500	-30.252	0.100
423.600	-29.223	0.100
423.700	-32.678	0.100
423.800	-40.455	0.100
423.900	-40.920	0.100
424.000	-48.655	0.100
424.100	-31.860	0.100
424.200	-44.622	0.100
424.300	-25.124	0.100
424.400	-25.401	0.100
424.500	-28.764	0.100
424.600	-30.486	0.100
424.700	-46.604	0.100
424.800	-42.015	0.100
424.900	-44.647	0.100
425.000	-35.354	0.100
425.100	-40.814	0.100
425.200	-33.434	0.100
425.300	-39.205	0.100
425.400	-39.442	0.100
425.500	-49.977	0.100
425.600	-39.553	0.100
425.700	-38.985	0.100
425.800	-47.368	0.100
425.900	-36.489	0.100
426.000	-46.091	0.100
426.100	-44.891	0.100
426.200	-48.864	0.100
426.300	-29.657	0.100
426.400	-36.096	0.100
426.500	-47.496	0.100
426.600	-47.810	0.100
426.700	-34.634	0.100
426.800	-35.472	0.100
426.900	-45.597	0.100
427.000	-41.635	0.100
427.100	-42.373	0.100
427.200	-32.915	0.100
427.300	-41.157	0.100
427.400	-38.925	0.100
427.500	-44.650	0.100
427.600	-41.025	0.100
427.700	-37.519	0.100
427.800	-38.271	0.100
427.900	-42.505	0.100
428.000	-39.944	0.100
428.100	-41.352	0.100
428.200	-40.587	0.100
428.300	-42.947	0.100
428.400	-42.582	0.100
428.500	-52.105	0.100
428.600	-47.861	0.100
428.700	-45.187	0.100
428.800	-32.648	0.100
428.900	-48.211	0.100
429.000	-40.086	0.100
429.100	-37.623	0.100
429.200	-43.327	0.100
429.300	-39.887	0.100
429.400	-36.685	0.100
429.500	-36.362	0.100
429.600	-40.615	0.100
429.700	-41.662	0.100
429.800	-49.352	0.100
429.900	-24.455	0.100
430.000	-39.568	0.100
430.100	-51.748	0.100
430.200	-31.589	0.100
430.300	-35.348	0.100
430.400	-48.525	0.100
430.500	-44.113	0.100
430.600	-41.650	0.100
430.700	-27.482	0.100
430.800	-42.682	0.100
430.900	-43.327	0.100
431.000	-32.355	0.100
431.100	-35.303	0.100
431.200	-37.755	0.100
431.300	-33.163	0.100
431.400	-47.690	0.100
431.500	-45.706	0.100
431.600	-57.357	0.100
431.700	-41.314	0.100
431.800	-40.347	0.100
431.900	-44.942	0.100
432.000	-36.944	0.100
432.100	-45.875	0.100
432.200	-42.335	0.100
432.300	-38.071	0.100
432.400	-39.052	0.100
432.500	-39.014	0.100
432.600	-42.296	0.100
432.700	-33.054	0.100
432.800	-35.462	0.100
432.900	-34.158	0.100
433.000	-37.782	0.100
433.100	-39.213	0.100
433.200	-44.038	0.100
433.300	-39.321	0.100
433.400	-34.373	0.100
433.500	-40.776	0.100
433.600	-40.562	0.100
433.700	-34.278	0.100
433.800	-39.312	0.100
433.900	-36.030	0.100
434.000	-53.938	0.100
434.100	-41.733	0.100
434.200	-36.380	0.100
434.300	-33.848	0.100
434.400	-41.603	0.100
434.500	-43.080	0.100
434.600	-39.497	0.100
434.700	-38.469	0.100
434.800	-28.111	0.100
434.900	-25.729	0.100
435.000	-38.347	0.100
435.100	-34.911	0.100
435.200	-31.199	0.100
435.300	-44.042	0.100
435.400	-45.303	0.100
435.500	-52.088	0.100
435.600	-30.004	0.100
435.700	-38.921	0.100
435.800	-39.459	0.100
435.900	-47.484	0.100
436.000	-37.453	0.100
436.100	-28.981	0.100
436.200	-20.943	0.100
436.300	-37.557	0.100
436.400	-28.773	0.100
436.500	-44.077	0.100
436.600	-37.881	0.100
436.700	-41.899	0.100
436.800	-41.750	0.100
436.900	-33.600	0.100
437.000	-48.693	0.100
437.100	-32.520	0.100
437.200	-39.491	0.100
437.300	-34.559	0.100
437.400	-39.384	0.100
437.500	-27.691	0.100
437.600	-34.758	0.100
437.700	-41.713	0.100
437.800	-37.301	0.100
437.900	-42.383	0.100
438.000	-45.874	0.100
438.100	-29.744	0.100
438.200	-33.703	0.100
438.300	-31.944	0.100
438.400	-25.067	0.100
438.500	-44.932	0.100
438.600	-20.653	0.100
438.700	-30.054	0.100
438.800	-27.593	0.100
438.900	-37.185	0.100
439.000	-41.696	0.100
439.100	-33.441	0.100
439.200	-38.045	0.100
439.300	-30.358	0.100
439.400	-33.692	0.100
439.500	-33.370	0.100
439.600	-38.375	0.100
439.700	-30.993	0.100
439.800	-27.792	0.100
439.900	-29.883	0.100
440.000	-58.317	0.100
440.100	-41.910	0.100
440.200	-35.455	0.100
440.300	-47.747	0.100
440.400	-33.362	0.100
440.500	-27.260	0.100
440.600	-27.882	0.100
440.700	-41.794	0.100
440.800	-30.720	0.100
440.900	-27.159	0.100
441.000	-34.460	0.100
441.100	-25.067	0.100
441.200	-32.330	0.100
441.300	-32.426	0.100
441.400	-36.086	0.100
441.500	-32.058	0.100
441.600	-34.900	0.100
441.700	-41.512	0.100
441.800	-24.661	0.100
441.900	-28.920	0.100
442.000	-33.607	0.100
442.100	-37.911	0.100
442.200	-40.589	0.100
442.300	-36.468	0.100
442.400	-29.718	0.100
442.500	-28.362	0.100
442.600	-38.303	0.100
442.700	-34.493	0.100
442.800	-23.744	0.100
442.900	-43.242	0.100
443.000	-42.094	0.100
443.100	-33.975	0.100
443.200	-33.181	0.100
443.300	-39.925	0.100
443.400	-35.614	0.100
443.500	-41.098	0.100
443.600	-36.220	0.100
443.700	-42.938	0.100
443.800	-29.871	0.100
443.900	-44.019	0.100
444.000	-25.688	0.100
444.100	-34.423	0.100
444.200	-31.768	0.100
444.300	-47.885	0.100
444.400	-34.815	0.100
444.500	-32.824	0.100
444.600	-27.772	0.100
444.700	-30.617	0.100
444.800	-34.118	0.100
444.900	-53.638	0.100
445.000	-40.894	0.100
445.100	-19.330	0.100
445.200	-41.367	0.100
445.300	-32.260	0.100
445.400	-35.829	0.100
445.500	-32.241	0.100
445.600	-29.116	0.100
445.700	-28.186	0.100
445.800	-33.930	0.100
445.900	-19.594	0.100
446.000	-37.229	0.100
446.100	-31.265	0.100
446.200	-31.207	0.100
446.300	-48.029	0.100
446.400	-35.146	0.100
446.500	-26.853	0.100
446.600	-34.416	0.100
446.700	-29.365	0.100
446.800	-33.467	0.100
446.900	-28.432	0.100
447.000	-36.365	0.100
447.100	-37.782	0.100
447.200	-41.444	0.100
447.300	-35.869	0.100
447.400	-22.989	0.100
447.500	-32.612	0.100
447.600	-44.866	0.100
447.700	-34.671	0.100
447.800	-29.768	0.100
447.900	-33.777	0.100
448.000	-27.224	0.100
448.100	-39.543	0.100
448.200	-40.419	0.100
448.300	-28.964	0.100
448.400	-28.959	0.100
448.500	-34.660	0.100
448.600	-32.708	0.100
448.700	-32.246	0.100
448.800	-32.334	0.100
448.900	-34.454	0.100
449.000	-24.813	0.100
449.100	-27.148	0.100
449.200	-28.821	0.100
449.300	-31.022	0.100
449.400	-29.940	0.100
449.500	-39.438	0.100
449.600	-28.013	0.100
449.700	-35.580	0.100
449.800	-41.484	0.100
449.900	-27.928	0.100
450.000	-29.487	0.100
450.100	-31.687	0.100
450.200	-31.963	0.100
450.300	-29.247	0.100
450.400	-20.055	0.100
450.500	-37.356	0.100
450.600	-29.145	0.100
450.700	-47.055	0.100
450.800	-37.152	0.100
450.900	-34.919	0.100
451.000	-21.082	0.100
451.100	-31.282	0.100
451.200	-31.338	0.100
451.300	-35.828	0.100
451.400	-23.032	0.100
451.500	-21.459	0.100
451.600	-42.826	0.100
451.700	-33.814	0.100
451.800	-39.965	0.100
451.900	-33.809	0.100
452.000	-37.733	0.100
452.100	-28.383	0.100
452.200	-24.873	0.100
452.300	-40.641	0.100
452.400	-28.933	0.100
452.500	-41.944	0.100
452.600	-40.131	0.100
452.700	-21.446	0.100
452.800	-23.348	0.100
452.900	-30.772	0.100
453.000	-26.595	0.100
453.100	-25.387	0.100
453.200	-38.514	0.100
453.300	-34.890	0.100
453.400	-34.430	0.100
453.500	-37.468	0.100
453.600	-23.081	0.100
453.700	-30.369	0.100
453.800	-37.196	0.100
453.900	-32.930	0.100
454.000	-27.679	0.100
454.100	-25.882	0.100
454.200	-32.620	0.100
454.300	-20.403	0.100
454.400	-33.598	0.100
454.500	-36.446	0.100
454.600	-28.509	0.100
454.700	-23.620	0.100
454.800	-32.811	0.100
454.900	-36.122	0.100
455.000	-34.537	0.100
455.100	-34.633	0.100
455.200	-24.722	0.100
455.300	-35.665	0.100
455.400	-25.051	0.100
455.500	-27.971	0.100
455.600	-30.007	0.100
455.700	-31.996	0.100
455.800	-31.224	0.100
455.900	-32.275	0.100
456.000	-23.376	0.100
456.100	-26.633	0.100
456.200	-30.706	0.100
456.300	-26.380	0.100
456.400	-29.739	0.100
456.500	-27.713	0.100
456.600	-30.975	0.100
456.700	-39.600	0.100
456.800	-22.120	0.100
456.900	-26.126	0.100
457.000	-39.696	0.100
457.100	-11.589	0.100
457.200	-31.194	0.100
457.300	-31.382	0.100
457.400	-34.613	0.100
457.500	-31.864	0.100
457.600	-27.812	0.100
457.700	-32.749	0.100
457.800	-24.915	0.100
457.900	-27.825	0.100
458.000	-29.081	0.100
458.100	-50.354	0.100
458.200	-32.227	0.100
458.300	-19.425	0.100
458.400	-32.407	0.100
458.500	-31.213	0.100
458.600	-34.006	0.100
458.700	-19.538	0.100
458.800	-21.648	0.100
458.900	-28.330	0.100
459.000	-35.720	0.100
459.100	-37.020	0.100
459.200	-16.890	0.100
459.300	-23.194	0.100
459.400	-28.285	0.100
459.500	-33.339	0.100
459.600	-33.478	0.100
459.700	-32.920	0.100
459.800	-29.408	0.100
459.900	-30.866	0.100
460.000	-35.410	0.100
460.100	-26.234	0.100
460.200	-30.324	0.100
460.300	-35.891	0.100
460.400	-30.377	0.100
460.500	-37.045	0.100
460.600	-34.424	0.100
460.700	-19.698	0.100
460.800	-23.458	0.100
460.900	-40.960	0.100
461.000	-29.658	0.100
461.100	-28.185	0.100
461.200	-28.070	0.100
461.300	-27.279	0.100
461.400	-28.621	0.100
461.500	-28.111	0.100
461.600	-38.261	0.100
461.700	-17.282	0.100
461.800	-23.763	0.100
461.900	-24.153	0.100
462.000	-22.307	0.100
462.100	-23.251	0.100
462.200	-19.757	0.100
462.300	-24.206	0.100
462.400	-33.353	0.100
462.500	-26.748	0.100
462.600	-31.895	0.100
462.700	-13.302	0.100
462.800	-23.643	0.100
462.900	-33.862	0.100
463.000	-32.970	0.100
463.100	-31.433	0.100
463.200	-29.923	0.100
463.300	-23.040	0.100
463.400	-33.347	0.100
463.500	-30.616	0.100
463.600	-36.668	0.100
463.700	-25.129	0.100
463.800	-24.683	0.100
463.900	-14.461	0.100
464.000	-16.062	0.100
464.100	-26.301	0.100
464.200	-30.850	0.100
464.300	-20.944	0.100
464.400	-34.911	0.100
464.500	-29.462	0.100
464.600	-30.112	0.100
464.700	-39.852	0.100
464.800	-21.705	0.100
464.900	-37.051	0.100
465.000	-35.664	0.100
465.100	-29.917	0.100
465.200	-21.855	0.100
465.300	-23.449	0.100
465.400	-34.559	0.100
465.500	-16.993	0.100
465.600	-29.253	0.100
465.700	-30.007	0.100
465.800	-25.769	0.100
465.900	-23.953	0.100
466.000	-30.013	0.100
466.100	-24.219	0.100
466.200	-19.611	0.100
466.300	-38.356	0.100
466.400	-27.654	0.100
466.500	-27.568	0.100
466.600	-34.105	0.100
466.700	-26.668	0.100
466.800	-27.303	0.100
466.900	-26.040	0.100
467.000	-17.034	0.100
467.100	-7.218	0.100
467.200	-25.633	0.100
467.300	-23.319	0.100
467.400	-36.993	0.100
467.500	-30.118	0.100
467.600	-29.635	0.100
467.700	-22.627	0.100
467.800	-25.873	0.100
467.900	-28.517	0.100
468.000	-27.726	0.100
468.100	-23.819	0.100
468.200	-27.493	0.100
468.300	-29.632	0.100
468.400	-17.205	0.100
468.500	-26.503	0.100
468.600	-31.956	0.100
468.700	-22.988	0.100
468.800	-25.776	0.100
468.900	-16.149	0.100
469.000	-31.502	0.100
469.100	-37.994	0.100
469.200	-26.035	0.100
469.300	-16.297	0.100
469.400	-24.825	0.100
469.500	-26.093	0.100
469.600	-25.755	0.100
469.700	-21.693	0.100
469.800	-33.754	0.100
469.900	-31.013	0.100
470.000	-23.178	0.100
470.100	-32.683	0.100
470.200	-26.210	0.100
470.300	-22.129	0.100
470.400	-28.010	0.100
470.500	-23.884	0.100
470.600	-28.323	0.100
470.700	-24.956	0.100
470.800	-34.968	0.100
470.900	-29.315	0.100
471.000	-21.412	0.100
471.100	-26.172	0.100
471.200	-17.329	0.100
471.300	-18.778	0.100
471.400	-25.045	0.100
471.500	-26.778	0.100
471.600	-19.879	0.100
471.700	-25.936	0.100
471.800	-23.142	0.100
471.900	-27.233	0.100
472.000	-32.097	0.100
472.100	-31.908	0.100
472.200	-25.060	0.100
472.300	-10.321	0.100
472.400	-19.260	0.100
472.500	-29.333	0.100
472.600	-25.583	0.100
472.700	-15.590	0.100
472.800	-36.562	0.100
472.900	-23.365	0.100
473.000	-19.747	0.100
473.100	-26.392	0.100
473.200	-25.774	0.100
473.300	-22.202	0.100
473.400	-34.777	0.100
473.500	-23.023	0.100
473.600	-29.049	0.100
473.700	-19.200	0.100
473.800	-27.074	0.100
473.900	-17.402	0.100
474.000	-28.709	0.100
474.100	-28.744	0.100
474.200	-34.263	0.100
474.300	-24.218	0.100
474.400	-24.876	0.100
474.500	-26.040	0.100
474.600	-17.728	0.100
474.700	-17.949	0.100
474.800	-20.496	0.100
474.900	-15.688	0.100
475.000	-21.199	0.100
475.100	-16.730	0.100
475.200	-28.629	0.100
475.300	-20.596	0.100
475.400	-24.074	0.100
475.500	-21.903	0.100
475.600	-25.770	0.100
475.700	-18.802	0.100
475.800	-25.251	0.100
475.900	-33.334	0.100
476.000	-22.028	0.100
476.100	-25.187	0.100
476.200	-26.640	0.100
476.300	-26.094	0.100
476.400	-24.405	0.100
476.500	-25.407	0.100
476.600	-22.439	0.100
476.700	-32.064	0.100
476.800	-34.107	0.100
476.900	-23.757	0.100
477.000	-17.886	0.100
477.100	-22.896	0.100
477.200	-18.454	0.100
477.300	-25.097	0.100
477.400	-24.557	0.100
477.500	-33.065	0.100
477.600	-25.485	0.100
477.700	-20.662	0.100
477.800	-26.529	0.100
477.900	-18.820	0.100
478.000	-29.237	0.100
478.100	-23.189	0.100
478.200	-22.437	0.100
478.300	-17.168	0.100
478.400	-20.467	0.100
478.500	-34.049	0.100
478.600	-31.809	0.100
478.700	-31.786	0.100
478.800	-29.526	0.100
478.900	-19.941	0.100
479.000	-18.679	0.100
479.100	-27.136	0.100
479.200	-37.769	0.100
479.300	-21.635	0.100
479.400	-22.478	0.100
479.500	-15.383	0.100
479.600	-22.351	0.100
479.700	-31.408	0.100
479.800	-21.166	0.100
479.900	-15.213	0.100
480.000	-17.436	0.100
480.100	-10.555	0.100
480.200	-4.731	0.100
480.300	-2.242	0.100
480.400	-5.077	0.100
480.500	8.265	0.100
480.600	5.644	0.100
480.700	16.486	0.100
480.800	12.920	0.100
480.900	19.418	0.100
481.000	15.309	0.100
481.100	17.325	0.100
481.200	26.370	0.100
481.300	31.425	0.100
481.400	29.209	0.100
481.500	27.063	0.100
481.600	30.667	0.100
481.700	21.659	0.100
481.800	38.767	0.100
481.900	17.491	0.100
482.000	24.145	0.100
482.100	40.049	0.100
482.200	29.840	0.100
482.300	35.609	0.100
482.400	45.303	0.100
482.500	23.228	0.100
482.600	21.121	0.100
482.700	35.836	0.100
482.800	31.504	0.100
482.900	27.280	0.100
483.000	36.620	0.100
483.100	36.059	0.100
483.200	26.265	0.100
483.300	27.778	0.100
483.400	42.886	0.100
483.500	40.256	0.100
483.600	33.072	0.100
483.700	31.466	0.100
483.800	32.126	0.100
483.900	32.259	0.100
484.000	43.584	0.100
484.100	29.781	0.100
484.200	26.345	0.100
484.300	36.269	0.100
484.400	30.694	0.100
484.500	33.817	0.100
484.600	48.619	0.100
484.700	26.659	0.100
484.800	35.187	0.100
484.900	36.198	0.100
485.000	29.334	0.100
485.100	35.514	0.100
485.200	31.972	0.100
485.300	24.560	0.100
485.400	24.086	0.100
485.500	20.754	0.100
485.600	29.638	0.100
485.700	34.554	0.100
485.800	40.154	0.100
485.900	26.205	0.100
486.000	31.878	0.100
486.100	36.379	0.100
486.200	23.845	0.100
486.300	26.272	0.100
486.400	30.879	0.100
486.500	39.074	0.100
486.600	35.129	0.100
486.700	22.719	0.100
486.800	34.319	0.100
486.900	37.769	0.100
487.000	28.231	0.100
487.100	23.759	0.100
487.200	27.255	0.100
487.300	44.464	0.100
487.400	33.702	0.100
487.500	33.455	0.100
487.600	45.189	0.100
487.700	28.922	0.100
487.800	38.669	0.100
487.900	39.947	0.100
488.000	35.771	0.100
488.100	42.180	0.100
488.200	33.795	0.100
488.300	37.198	0.100
488.400	26.274	0.100
488.500	34.364	0.100
488.600	38.721	0.100
488.700	42.460	0.100
488.800	38.170	0.100
488.900	41.999	0.100
489.000	30.775	0.100
489.100	35.625	0.100
489.200	34.728	0.100
489.300	47.902	0.100
489.400	43.139	0.100
489.500	39.375	0.100
489.600	35.398	0.100
489.700	28.272	0.100
489.800	46.845	0.100
489.900	43.684	0.100
490.000	50.375	0.100
490.100	45.905	0.100
490.200	44.517	0.100
490.300	46.224	0.100
490.400	52.145	0.100
490.500	41.874	0.100
490.600	46.768	0.100
490.700	33.176	0.100
490.800	41.574	0.100
490.900	48.454	0.100
491.000	40.755	0.100
491.100	41.036	0.100
491.200	51.439	0.100
491.300	41.476	0.100
491.400	41.959	0.100
491.500	40.029	0.100
491.600	40.270	0.100
491.700	53.602	0.100
491.800	48.434	0.100
491.900	48.367	0.100
492.000	48.409	0.100
492.100	56.694	0.100
492.200	51.820	0.100
492.300	57.046	0.100
492.400	33.874	0.100
492.500	51.962	0.100
492.600	55.907	0.100
492.700	52.425	0.100
492.800	60.718	0.100
492.900	35.462	0.100
493.000	44.496	0.100
493.100	51.498	0.100
493.200	67.870	0.100
493.300	57.205	0.100
493.400	53.812	0.100
493.500	48.163	0.100
493.600	54.917	0.100
493.700	54.839	0.100
493.800	61.062	0.100
493.900	67.199	0.100
494.000	68.864	0.100
494.100	50.365	0.100
494.200	48.120	0.100
494.300	62.991	0.100
494.400	51.736	0.100
494.500	70.973	0.100
494.600	74.636	0.100
494.700	73.123	0.100
494.800	65.011	0.100
494.900	67.769	0.100
495.000	57.925	0.100
495.100	64.390	0.100
495.200	77.474	0.100
495.300	60.690	0.100
495.400	72.995	0.100
495.500	71.643	0.100
495.600	63.276	0.100
495.700	72.948	0.100
495.800	69.648	0.100
495.900	76.213	0.100
496.000	70.538	0.100
496.100	62.899	0.100
496.200	68.852	0.100
496.300	68.152	0.100
496.400	57.829	0.100
496.500	75.608	0.100
496.600	80.551	0.100
496.700	87.114	0.100
496.800	79.605	0.100
496.900	72.628	0.100
497.000	77.747	0.100
497.100	70.110	0.100
497.200	77.223	0.100
497.300	83.013	0.100
497.400	69.669	0.100
497.500	68.864	0.100
497.600	79.262	0.100
497.700	72.670	0.100
497.800	69.086	0.100
497.900	79.601	0.100
498.000	77.575	0.100
498.100	72.063	0.100
498.200	86.811	0.100
498.300	77.882	0.100
498.400	60.644	0.100
498.500	74.379	0.100
498.600	75.123	0.100
498.700	83.006	0.100
498.800	82.310	0.100
498.900	69.543	0.100
499.000	69.714	0.100
499.100	75.464	0.100
499.200	73.575	0.100
499.300	77.631	0.100
499.400	82.193	0.100
499.500	85.179	0.100
499.600	83.472	0.100
499.700	75.687	0.100
499.800	70.266	0.100
499.900	77.033	0.100
500.000	82.081	0.100
500.100	73.019	0.100
500.200	74.148	0.100
500.300	84.224	0.100
500.400	93.808	0.100
500.500	77.697	0.100
500.600	73.154	0.100
500.700	67.446	0.100
500.800	80.825	0.100
500.900	67.268	0.100
501.000	78.883	0.100
501.100	71.859	0.100
501.200	88.913	0.100
501.300	89.491	0.100
501.400	91.688	0.100
501.500	79.825	0.100
501.600	77.634	0.100
501.700	79.518	0.100
501.800	63.751	0.100
501.900	77.257	0.100
502.000	69.672	0.100
502.100	75.037	0.100
502.200	67.065	0.100
502.300	73.388	0.100
502.400	84.481	0.100
502.500	99.773	0.100
502.600	82.586	0.100
502.700	81.163	0.100
502.800	80.433	0.100
502.900	83.967	0.100
503.000	76.934	0.100
503.100	83.925	0.100
503.200	89.185	0.100
503.300	82.984	0.100
503.400	79.564	0.100
503.500	74.211	0.100
503.600	79.323	0.100
503.700	68.791	0.100
503.800	73.638	0.100
503.900	73.437	0.100
504.000	70.981	0.100
504.100	81.273	0.100
504.200	76.107	0.100
504.300	76.951	0.100
504.400	79.035	0.100
504.500	76.361	0.100
504.600	79.315	0.100
504.700	74.100	0.100
504.800	68.167	0.100
504.900	73.652	0.100
505.000	78.618	0.100
505.100	82.042	0.100
505.200	82.627	0.100
505.300	76.396	0.100
505.400	77.589	0.100
505.500	74.340	0.100
505.600	68.120	0.100
505.700	75.664	0.100
505.800	80.416	0.100
505.900	68.911	0.100
506.000	76.712	0.100
506.100	82.594	0.100
506.200	79.193	0.100
506.300	79.178	0.100
506.400	74.802	0.100
506.500	75.973	0.100
506.600	75.266	0.100
506.700	74.512	0.100
506.800	79.157	0.100
506.900	69.318	0.100
507.000	80.904	0.100
507.100	76.720	0.100
507.200	71.506	0.100
507.300	77.348	0.100
507.400	73.595	0.100
507.500	83.449	0.100
507.600	77.893	0.100
507.700	70.074	0.100
507.800	76.029	0.100
507.900	83.221	0.100
508.000	65.891	0.100
508.100	74.387	0.100
508.200	79.507	0.100
508.300	72.217	0.100
508.400	84.058	0.100
508.500	87.689	0.100
508.600	74.558	0.100
508.700	63.429	0.100
508.800	66.051	0.100
508.900	75.401	0.100
509.000	77.203	0.100
509.100	79.483	0.100
509.200	83.754	0.100
509.300	78.249	0.100
509.400	73.818	0.100
509.500	72.840	0.100
509.600	80.395	0.100
509.700	62.567	0.100
509.800	65.406	0.100
509.900	71.989	0.100
510.000	70.182	0.100
510.100	67.898	0.100
510.200	59.003	0.100
510.300	78.702	0.100
510.400	79.742	0.100
510.500	60.321	0.100
510.600	74.930	0.100
510.700	74.018	0.100
510.800	66.601	0.100
510.900	69.059	0.100
511.000	78.748	0.100
511.100	68.002	0.100
511.200	69.876	0.100
511.300	67.140	0.100
511.400	73.239	0.100
511.500	62.145	0.100
511.600	66.870	0.100
511.700	78.193	0.100
511.800	70.313	0.100
511.900	60.466	0.100
512.000	61.769	0.100
512.100	71.633	0.100
512.200	74.829	0.100
512.300	82.530	0.100
512.400	55.500	0.100
512.500	73.661	0.100
512.600	72.737	0.100
512.700	71.355	0.100
512.800	73.479	0.100
512.900	64.299	0.100
513.000	75.172	0.100
513.100	82.828	0.100
513.200	52.321	0.100
513.300	72.860	0.100
513.400	76.608	0.100
513.500	72.328	0.100
513.600	76.399	0.100
513.700	85.054	0.100
513.800	62.886	0.100
513.900	75.965	0.100
514.000	81.141	0.100
514.100	66.385	0.100
514.200	67.616	0.100
514.300	65.775	0.100
514.400	73.301	0.100
514.500	69.872	0.100
514.600	66.380	0.100
514.700	67.557	0.100
514.800	80.756	0.100
514.900	72.704	0.100
515.000	60.465	0.100
515.100	67.999	0.100
515.200	71.952	0.100
515.300	71.826	0.100
515.400	69.498	0.100
515.500	71.605	0.100
515.600	71.175	0.100
515.700	60.131	0.100
515.800	68.450	0.100
515.900	74.912	0.100
516.000	63.851	0.100
516.100	67.123	0.100
516.200	65.849	0.100
516.300	63.779	0.100
516.400	62.877	0.100
516.500	68.676	0.100
516.600	63.223	0.100
516.700	67.393	0.100
516.800	71.902	0.100
516.900	72.339	0.100
517.000	73.197	0.100
517.100	68.181	0.100
517.200	56.021	0.100
517.300	73.072	0.100
517.400	72.446	0.100
517.500	73.580	0.100
517.600	74.607	0.100
517.700	70.610	0.100
517.800	65.980	0.100
517.900	66.488	0.100
518.000	55.767	0.100
518.100	72.575	0.100
518.200	78.075	0.100
518.300	50.398	0.100
518.400	68.198	0.100
518.500	51.924	0.100
518.600	62.288	0.100
518.700	75.245	0.100
518.800	73.066	0.100
518.900	72.049	0.100
519.000	62.550	0.100
519.100	73.818	0.100
519.200	69.405	0.100
519.300	69.387	0.100
519.400	74.014	0.100
519.500	70.883	0.100
519.600	61.174	0.100
519.700	66.799	0.100
519.800	63.012	0.100
519.900	55.662	0.100
520.000	71.930	0.100
520.100	70.050	0.100
520.200	58.321	0.100
520.300	66.992	0.100
520.400	64.295	0.100
520.500	75.048	0.100
520.600	67.066	0.100
520.700	65.204	0.100
520.800	53.810	0.100
520.900	56.811	0.100
521.000	57.254	0.100
521.100	73.880	0.100
521.200	74.904	0.100
521.300	68.262	0.100
521.400	74.853	0.100
521.500	65.266	0.100
521.600	64.408	0.100
521.700	75.883	0.100
521.800	63.078	0.100
521.900	65.594	0.100
522.000	57.356	0.100
522.100	70.279	0.100
522.200	70.034	0.100
522.300	70.883	0.100
522.400	69.470	0.100
522.500	57.241	0.100
522.600	67.628	0.100
522.700	68.882	0.100
522.800	65.877	0.100
522.900	72.677	0.100
523.000	68.636	0.100
523.100	67.688	0.100
523.200	71.232	0.100
523.300	73.844	0.100
523.400	58.532	0.100
523.500	74.025	0.100
523.600	61.506	0.100
523.700	76.554	0.100
523.800	68.753	0.100
523.900	59.288	0.100
524.000	64.151	0.100
524.100	73.880	0.100
524.200	59.698	0.100
524.300	65.953	0.100
524.400	65.446	0.100
524.500	61.543	0.100
524.600	60.175	0.100
524.700	75.954	0.100
524.800	66.955	0.100
524.900	69.252	0.100
525.000	66.028	0.100
525.100	76.972	0.100
525.200	62.199	0.100
525.300	56.459	0.100
525.400	68.978	0.100
525.500	57.858	0.100
525.600	58.624	0.100
525.700	58.815	0.100
525.800	65.040	0.100
525.900	61.132	0.100
526.000	68.442	0.100
526.100	75.486	0.100
526.200	64.816	0.100
526.300	60.106	0.100
526.400	64.517	0.100
526.500	60.334	0.100
526.600	64.904	0.100
526.700	62.853	0.100
526.800	66.253	0.100
526.900	52.970	0.100
527.000	64.456	0.100
527.100	59.231	0.100
527.200	67.399	0.100
527.300	63.160	0.100
527.400	64.522	0.100
527.500	72.295	0.100
527.600	69.370	0.100
527.700	73.079	0.100
527.800	66.411	0.100
527.900	56.512	0.100
528.000	65.812	0.100
528.100	59.435	0.100
528.200	63.281	0.100
528.300	68.132	0.100
528.400	72.083	0.100
528.500	58.056	0.100
528.600	61.128	0.100
528.700	62.886	0.100
528.800	61.118	0.100
528.900	59.561	0.100
529.000	49.476	0.100
529.100	63.949	0.100
529.200	87.528	0.100
529.300	79.135	0.100
529.400	63.021	0.100
529.500	67.553	0.100
529.600	60.475	0.100
529.700	61.785	0.100
529.800	48.108	0.100
529.900	66.540	0.100
530.000	57.689	0.100
530.100	67.820	0.100
530.200	63.376	0.100
530.300	65.449	0.100
530.400	79.653	0.100
530.500	74.485	0.100
530.600	61.225	0.100
530.700	61.593	0.100
530.800	56.351	0.100
530.900	62.628	0.100
531.000	71.733	0.100
531.100	70.087	0.100
531.200	70.756	0.100
531.300	58.598	0.100
531.400	61.484	0.100
531.500	69.628	0.100
531.600	59.538	0.100
531.700	52.046	0.100
531.800	56.892	0.100
531.900	69.918	0.100
532.000	67.181	0.100
532.100	61.464	0.100
532.200	54.689	0.100
532.300	64.127	0.100
532.400	66.807	0.100
532.500	65.487	0.100
532.600	67.359	0.100
532.700	61.987	0.100
532.800	57.381	0.100
532.900	61.585	0.100
533.000	59.558	0.100
533.100	57.918	0.100
533.200	58.417	0.100
533.300	65.867	0.100
533.400	59.387	0.100
533.500	66.846	0.100
533.600	63.610	0.100
533.700	56.668	0.100
533.800	63.862	0.100
533.900	68.059	0.100
534.000	68.289	0.100
534.100	78.772	0.100
534.200	66.769	0.100
534.300	55.520	0.100
534.400	63.716	0.100
534.500	60.092	0.100
534.600	56.904	0.100
534.700	50.731	0.100
534.800	53.104	0.100
534.900	59.217	0.100
535.000	68.387	0.100
535.100	65.500	0.100
535.200	69.728	0.100
535.300	57.737	0.100
535.400	65.264	0.100
535.500	64.409	0.100
535.600	66.935	0.100
535.700	60.523	0.100
535.800	63.710	0.100
535.900	62.183	0.100
536.000	59.380	0.100
536.100	64.321	0.100
536.200	71.445	0.100
536.300	51.686	0.100
536.400	52.865	0.100
536.500	63.949	0.100
536.600	61.456	0.100
536.700	76.406	0.100
536.800	62.002	0.100
536.900	66.413	0.100
537.000	60.765	0.100
537.100	50.036	0.100
537.200	65.818	0.100
537.300	75.673	0.100
537.400	48.686	0.100
537.500	58.661	0.100
537.600	49.686	0.100
537.700	73.068	0.100
537.800	71.564	0.100
537.900	73.708	0.100
538.000	69.424	0.100
538.100	68.352	0.100
538.200	61.531	0.100
538.300	61.331	0.100
538.400	58.864	0.100
538.500	74.105	0.100
538.600	60.270	0.100
538.700	53.986	0.100
538.800	63.863	0.100
538.900	61.384	0.100
539.000	63.097	0.100
539.100	75.948	0.100
539.200	60.821	0.100
539.300	56.088	0.100
539.400	65.920	0.100
539.500	74.634	0.100
539.600	47.199	0.100
539.700	53.551	0.100
539.800	67.514	0.100
539.900	57.012	0.100
540.000	37.409	0.100
540.100	47.528	0.100
540.200	38.207	0.100
540.300	41.340	0.100
540.400	25.665	0.100
540.500	19.560	0.100
540.600	23.231	0.100
540.700	12.566	0.100
540.800	25.147	0.100
540.900	16.497	0.100
541.000	3.839	0.100
541.100	8.483	0.100
541.200	11.153	0.100
541.300	2.757	0.100
541.400	7.757	0.100
541.500	6.565	0.100
541.600	2.780	0.100
541.700	8.353	0.100
541.800	-0.295	0.100
541.900	-5.310	0.100
542.000	-11.747	0.100
542.100	-3.033	0.100
542.200	-4.077	0.100
542.300	-19.741	0.100
542.400	-18.756	0.100
542.500	-18.534	0.100
542.600	-16.008	0.100
542.700	-17.370	0.100
542.800	-28.604	0.100
542.900	-14.628	0.100
543.000	-7.910	0.100
543.100	-30.997	0.100
543.200	-19.830	0.100
543.300	-33.120	0.100
543.400	-21.269	0.100
543.500	-23.752	0.100
543.600	-21.383	0.100
543.700	-28.304	0.100
543.800	-18.806	0.100
543.900	-22.086	0.100
544.000	-28.791	0.100
544.100	-24.296	0.100
544.200	-36.810	0.100
544.300	-19.296	0.100
544.400	-35.166	0.100
544.500	-30.472	0.100
544.600	-29.527	0.100
544.700	-18.973	0.100
544.800	-37.162	0.100
544.900	-20.913	0.100
545.000	-29.818	0.100
545.100	-38.566	0.100
545.200	-26.195	0.100
545.300	-34.069	0.100
545.400	-21.057	0.100
545.500	-8.168	0.100
545.600	-32.616	0.100
545.700	-43.524	0.100
545.800	-23.155	0.100
545.900	-20.032	0.100
546.000	-30.177	0.100
546.100	-31.907	0.100
546.200	-30.442	0.100
546.300	-20.727	0.100
546.400	-25.725	0.100
546.500	-27.778	0.100
546.600	-33.797	0.100
546.700	-19.841	0.100
546.800	-18.174	0.100
546.900	-31.818	0.100
547.000	-32.051	0.100
547.100	-19.276	0.100
547.200	-27.681	0.100
547.300	-32.944	0.100
547.400	-17.106	0.100
547.500	-37.916	0.100
547.600	-22.883	0.100
547.700	-15.010	0.100
547.800	-21.517	0.100
547.900	-37.586	0.100
548.000	-19.753	0.100
548.100	-29.426	0.100
548.200	-35.129	0.100
548.300	-31.652	0.100
548.400	-21.059	0.100
548.500	-28.051	0.100
548.600	-29.119	0.100
548.700	-32.512	0.100
548.800	-36.655	0.100
548.900	-23.741	0.100
549.000	-27.760	0.100
549.100	-33.220	0.100
549.200	-31.695	0.100
549.300	-33.799	0.100
549.400	-14.490	0.100
549.500	-24.063	0.100
549.600	-29.848	0.100
549.700	-13.568	0.100
549.800	-17.109	0.100
549.900	-19.559	0.100
550.000	-26.374	0.100
550.100	-27.180	0.100
550.200	-23.362	0.100
550.300	-24.259	0.100
550.400	-25.211	0.100
550.500	-27.724	0.100
550.600	-24.071	0.100
550.700	-24.588	0.100
550.800	-31.551	0.100
550.900	-16.124	0.100
551.000	-22.147	0.100
551.100	-23.475	0.100
551.200	-29.781	0.100
551.300	-17.001	0.100
551.400	-26.291	0.100
551.500	-26.879	0.100
551.600	-14.662	0.100
551.700	-33.235	0.100
551.800	-23.276	0.100
551.900	-37.037	0.100
552.000	-30.742	0.100
552.100	-28.838	0.100
552.200	-20.984	0.100
552.300	-20.499	0.100
552.400	-25.158	0.100
552.500	-26.267	0.100
552.600	-26.897	0.100
552.700	-22.327	0.100
552.800	-21.757	0.100
552.900	-30.670	0.100
553.000	-19.351	0.100
553.100	-36.593	0.100
553.200	-33.411	0.100
553.300	-20.088	0.100
553.400	-33.213	0.100
553.500	-34.683	0.100
553.600	-20.672	0.100
553.700	-38.233	0.100
553.800	-30.170	0.100
553.900	-32.505	0.100
554.000	-35.638	0.100
554.100	-32.894	0.100
554.200	-28.487	0.100
554.300	-33.193	0.100
554.400	-27.385	0.100
554.500	-32.673	0.100
554.600	-38.791	0.100
554.700	-22.346	0.100
554.800	-27.406	0.100
554.900	-34.657	0.100
555.000	-18.541	0.100
555.100	-30.728	0.100
555.200	-21.511	0.100
555.300	-24.003	0.100
555.400	-24.051	0.100
555.500	-26.379	0.100
555.600	-25.692	0.100
555.700	-27.424	0.100
555.800	-31.905	0.100
555.900	-27.220	0.100
556.000	-27.505	0.100
556.100	-25.893	0.100
556.200	-33.602	0.100
556.300	-33.879	0.100
556.400	-24.201	0.100
556.500	-20.971	0.100
556.600	-32.552	0.100
556.700	-24.351	0.100
556.800	-38.756	0.100
556.900	-31.280	0.100
557.000	-32.922	0.100
557.100	-28.288	0.100
557.200	-23.717	0.100
557.300	-24.689	0.100
557.400	-20.686	0.100
557.500	-39.213	0.100
557.600	-30.054	0.100
557.700	-14.557	0.100
557.800	-37.904	0.100
557.900	-29.955	0.100
558.000	-35.173	0.100
558.100	-22.381	0.100
558.200	-24.691	0.100
558.300	-24.013	0.100
558.400	-28.261	0.100
558.500	-35.525	0.100
558.600	-35.510	0.100
558.700	-33.740	0.100
558.800	-34.186	0.100
558.900	-24.248	0.100
559.000	-30.814	0.100
559.100	-33.427	0.100
559.200	-34.448	0.100
559.300	-18.050	0.100
559.400	-43.823	0.100
559.500	-40.653	0.100
559.600	-27.297	0.100
559.700	-34.459	0.100
559.800	-37.023	0.100
559.900	-24.188	0.100
560.000	-41.578	0.100
560.100	-32.191	0.100
560.200	-26.088	0.100
560.300	-43.273	0.100
560.400	-20.526	0.100
560.500	-35.368	0.100
560.600	-32.897	0.100
560.700	-41.750	0.100
560.800	-33.208	0.100
560.900	-36.542	0.100
561.000	-19.078	0.100
561.100	-28.496	0.100
561.200	-28.414	0.100
561.300	-39.860	0.100
561.400	-30.704	0.100
561.500	-34.252	0.100
561.600	-47.567	0.100
561.700	-42.369	0.100
561.800	-33.324	0.100
561.900	-21.013	0.100
562.000	-30.329	0.100
562.100	-34.821	0.100
562.200	-45.426	0.100
562.300	-37.821	0.100
562.400	-30.100	0.100
562.500	-39.411	0.100
562.600	-33.259	0.100
562.700	-34.785	0.100
562.800	-26.816	0.100
562.900	-29.920	0.100
563.000	-33.647	0.100
563.100	-36.727	0.100
563.200	-39.052	0.100
563.300	-36.894	0.100
563.400	-46.795	0.100
563.500	-28.877	0.100
563.600	-30.377	0.100
563.700	-28.935	0.100
563.800	-31.815	0.100
563.900	-30.540	0.100
564.000	-31.348	0.100
564.100	-35.188	0.100
564.200	-23.156	0.100
564.300	-37.260	0.100
564.400	-29.134	0.100
564.500	-35.646	0.100
564.600	-34.591	0.100
564.700	-36.071	0.100
564.800	-42.997	0.100
564.900	-33.786	0.100
565.000	-43.982	0.100
565.100	-35.548	0.100
565.200	-37.119	0.100
565.300	-29.404	0.100
565.400	-35.415	0.100
565.500	-40.519	0.100
565.600	-46.996	0.100
565.700	-38.180	0.100
565.800	-40.626	0.100
565.900	-44.947	0.100
566.000	-41.916	0.100
566.100	-46.899	0.100
566.200	-35.770	0.100
566.300	-45.236	0.100
566.400	-39.699	0.100
566.500	-43.651	0.100
566.600	-35.300	0.100
566.700	-41.277	0.100
566.800	-28.407	0.100
566.900	-39.987	0.100
567.000	-50.876	0.100
567.100	-46.676	0.100
567.200	-36.207	0.100
567.300	-21.627	0.100
567.400	-23.365	0.100
567.500	-35.838	0.100
567.600	-51.839	0.100
567.700	-40.438	0.100
567.800	-44.425	0.100
567.900	-41.238	0.100
568.000	-34.012	0.100
568.100	-44.831	0.100
568.200	-40.889	0.100
568.300	-35.682	0.100
568.400	-36.290	0.100
568.500	-31.546	0.100
568.600	-36.780	0.100
568.700	-32.929	0.100
568.800	-37.565	0.100
568.900	-38.134	0.100
569.000	-44.104	0.100
569.100	-43.585	0.100
569.200	-40.557	0.100
569.300	-28.101	0.100
569.400	-45.203	0.100
569.500	-46.553	0.100
569.600	-37.263	0.100
569.700	-46.154	0.100
569.800	-29.460	0.100
569.900	-44.070	0.100
570.000	-42.897	0.100
570.100	-46.426	0.100
570.200	-31.922	0.100
570.300	-45.530	0.100
570.400	-35.499	0.100
570.500	-39.798	0.100
570.600	-46.867	0.100
570.700	-50.983	0.100
570.800	-38.109	0.100
570.900	-35.533	0.100
571.000	-33.366	0.100
571.100	-45.730	0.100
571.200	-38.956	0.100
571.300	-49.605	0.100
571.400	-49.662	0.100
571.500	-36.764	0.100
571.600	-35.630	0.100
571.700	-39.840	0.100
571.800	-47.244	0.100
571.900	-44.658	0.100
572.000	-43.786	0.100
572.100	-44.448	0.100
572.200	-52.560	0.100
572.300	-38.997	0.100
572.400	-46.627	0.100
572.500	-39.808	0.100
572.600	-39.295	0.100
572.700	-45.885	0.100
572.800	-37.366	0.100
572.900	-42.602	0.100
573.000	-38.721	0.100
573.100	-44.864	0.100
573.200	-44.058	0.100
573.300	-43.373	0.100
573.400	-58.623	0.100
573.500	-36.469	0.100
573.600	-57.952	0.100
573.700	-50.413	0.100
573.800	-42.551	0.100
573.900	-44.419	0.100
574.000	-32.632	0.100
574.100	-34.359	0.100
574.200	-44.346	0.100
574.300	-39.758	0.100
574.400	-48.227	0.100
574.500	-43.636	0.100
574.600	-31.398	0.100
574.700	-44.545	0.100
574.800	-49.093	0.100
574.900	-42.486	0.100
575.000	-27.818	0.100
575.100	-46.877	0.100
575.200	-45.288	0.100
575.300	-37.325	0.100
575.400	-35.005	0.100
575.500	-45.382	0.100
575.600	-46.701	0.100
575.700	-47.686	0.100
575.800	-45.189	0.100
575.900	-33.758	0.100
576.000	-29.475	0.100
576.100	-39.594	0.100
576.200	-44.256	0.100
576.300	-33.318	0.100
576.400	-58.416	0.100
576.500	-41.339	0.100
576.600	-50.514	0.100
576.700	-55.022	0.100
576.800	-49.944	0.100
576.900	-41.487	0.100
577.000	-34.443	0.100
577.100	-39.287	0.100
577.200	-43.377	0.100
577.300	-32.177	0.100
577.400	-44.963	0.100
577.500	-43.447	0.100
577.600	-43.265	0.100
577.700	-59.824	0.100
577.800	-50.978	0.100
577.900	-38.215	0.100
578.000	-37.615	0.100
578.100	-43.269	0.100
578.200	-45.766	0.100
578.300	-36.351	0.100
578.400	-50.783	0.100
578.500	-43.027	0.100
578.600	-40.081	0.100
578.700	-54.257	0.100
578.800	-44.535	0.100
578.900	-37.321	0.100
579.000	-39.096	0.100
579.100	-36.559	0.100
579.200	-39.891	0.100
579.300	-48.154	0.100
579.400	-45.342	0.100
579.500	-46.936	0.100
579.600	-34.759	0.100
579.700	-40.193	0.100
579.800	-47.181	0.100
579.900	-47.747	0.100
580.000	-48.545	0.100
580.100	-56.189	0.100
580.200	-29.179	0.100
580.300	-47.066	0.100
580.400	-34.774	0.100
580.500	-52.420	0.100
580.600	-36.399	0.100
580.700	-37.924	0.100
580.800	-40.824	0.100
580.900	-36.246	0.100
581.000	-39.762	0.100
581.100	-48.679	0.100
581.200	-48.844	0.100
581.300	-46.360	0.100
581.400	-41.639	0.100
581.500	-38.085	0.100
581.600	-37.960	0.100
581.700	-47.136	0.100
581.800	-47.820	0.100
581.900	-47.209	0.100
582.000	-37.823	0.100
582.100	-52.859	0.100
582.200	-43.452	0.100
582.300	-36.288	0.100
582.400	-46.132	0.100
582.500	-42.517	0.100
582.600	-43.333	0.100
582.700	-25.614	0.100
582.800	-45.577	0.100
582.900	-41.493	0.100
583.000	-51.454	0.100
583.100	-41.827	0.100
583.200	-40.995	0.100
583.300	-30.248	0.100
583.400	-49.509	0.100
583.500	-50.371	0.100
583.600	-39.012	0.100
583.700	-35.408	0.100
583.800	-37.366	0.100
583.900	-45.755	0.100
584.000	-40.013	0.100
584.100	-38.283	0.100
584.200	-37.005	0.100
584.300	-47.892	0.100
584.400	-36.036	0.100
584.500	-29.381	0.100
584.600	-38.849	0.100
584.700	-37.082	0.100
584.800	-44.843	0.100
584.900	-47.859	0.100
585.000	-36.662	0.100
585.100	-24.971	0.100
585.200	-26.171	0.100
585.300	-40.897	0.100
585.400	-35.811	0.100
585.500	-45.578	0.100
585.600	-45.767	0.100
585.700	-51.610	0.100
585.800	-41.977	0.100
585.900	-45.763	0.100
586.000	-37.567	0.100
586.100	-41.580	0.100
586.200	-39.030	0.100
586.300	-39.756	0.100
586.400	-30.720	0.100
586.500	-24.393	0.100
586.600	-28.385	0.100
586.700	-49.793	0.100
586.800	-45.870	0.100
586.900	-42.743	0.100
587.000	-31.797	0.100
587.100	-31.363	0.100
587.200	-41.208	0.100
587.300	-46.573	0.100
587.400	-41.151	0.100
587.500	-45.914	0.100
587.600	-36.532	0.100
587.700	-48.265	0.100
587.800	-50.080	0.100
587.900	-45.010	0.100
588.000	-48.362	0.100
588.100	-40.104	0.100
588.200	-47.129	0.100
588.300	-34.645	0.100
588.400	-33.566	0.100
588.500	-33.723	0.100
588.600	-46.855	0.100
588.700	-43.633	0.100
588.800	-36.561	0.100
588.900	-39.934	0.100
589.000	-32.305	0.100
589.100	-45.043	0.100
589.200	-34.498	0.100
589.300	-40.345	0.100
589.400	-25.079	0.100
589.500	-35.417	0.100
589.600	-37.350	0.100
589.700	-35.886	0.100
589.800	-33.533	0.100
589.900	-29.456	0.100
590.000	-34.905	0.100
590.100	-42.713	0.100
590.200	-43.538	0.100
590.300	-47.297	0.100
590.400	-37.145	0.100
590.500	-34.667	0.100
590.600	-35.530	0.100
590.700	-36.376	0.100
590.800	-46.073	0.100
590.900	-39.867	0.100
591.000	-48.031	0.100
591.100	-36.163	0.100
591.200	-36.594	0.100
591.300	-35.557	0.100
591.400	-37.848	0.100
591.500	-42.940	0.100
591.600	-30.766	0.100
591.700	-52.701	0.100
591.800	-40.219	0.100
591.900	-40.504	0.100
592.000	-36.110	0.100
592.100	-32.300	0.100
592.200	-37.631	0.100
592.300	-42.663	0.100
592.400	-36.814	0.100
592.500	-36.440	0.100
592.600	-34.933	0.100
592.700	-23.787	0.100
592.800	-31.268	0.100
592.900	-41.176	0.100
593.000	-30.256	0.100
593.100	-33.611	0.100
593.200	-39.531	0.100
593.300	-33.875	0.100
593.400	-44.251	0.100
593.500	-39.783	0.100
593.600	-44.518	0.100
593.700	-36.436	0.100
593.800	-48.315	0.100
593.900	-44.020	0.100
594.000	-32.546	0.100
594.100	-37.419	0.100
594.200	-35.642	0.100
594.300	-26.205	0.100
594.400	-34.545	0.100
594.500	-38.042	0.100
594.600	-28.816	0.100
594.700	-31.209	0.100
594.800	-40.011	0.100
594.900	-40.712	0.100
595.000	-39.500	0.100
595.100	-33.860	0.100
595.200	-35.522	0.100
595.300	-38.361	0.100
595.400	-29.565	0.100
595.500	-31.168	0.100
595.600	-37.669	0.100
595.700	-27.551	0.100
595.800	-32.670	0.100
595.900	-34.983	0.100
596.000	-45.733	0.100
596.100	-38.502	0.100
596.200	-32.372	0.100
596.300	-30.555	0.100
596.400	-32.234	0.100
596.500	-33.775	0.100
596.600	-47.952	0.100
596.700	-28.418	0.100
596.800	-31.050	0.100
596.900	-33.140	0.100
597.000	-28.113	0.100
597.100	-35.202	0.100
597.200	-49.947	0.100
597.300	-35.579	0.100
597.400	-41.485	0.100
597.500	-39.586	0.100
597.600	-35.504	0.100
597.700	-32.335	0.100
597.800	-43.684	0.100
597.900	-37.701	0.100
598.000	-37.840	0.100
598.100	-33.356	0.100
598.200	-37.315	0.100
598.300	-29.107	0.100
598.400	-38.048	0.100
598.500	-49.963	0.100
598.600	-45.392	0.100
598.700	-42.536	0.100
598.800	-31.057	0.100
598.900	-27.763	0.100
599.000	-20.061	0.100
599.100	-36.707	0.100
599.200	-37.713	0.100
599.300	-46.085	0.100
599.400	-35.118	0.100
599.500	-35.876	0.100
599.600	-33.690	0.100
599.700	-29.439	0.100
599.800	-34.164	0.100
599.900	-27.961	0.100
600.000	-23.135	0.100
600.100	-23.783	0.100
600.200	-29.057	0.100
600.300	-29.888	0.100
600.400	-43.490	0.100
600.500	-32.258	0.100
600.600	-37.128	0.100
600.700	-25.934	0.100
600.800	-40.332	0.100
600.900	-44.664	0.100
601.000	-23.154	0.100
601.100	-29.697	0.100
601.200	-32.334	0.100
601.300	-34.756	0.100
601.400	-39.969	0.100
601.500	-28.259	0.100
601.600	-36.661	0.100
601.700	-44.386	0.100
601.800	-31.625	0.100
601.900	-37.762	0.100
602.000	-33.345	0.100
602.100	-34.500	0.100
602.200	-34.099	0.100
602.300	-42.510	0.100
602.400	-22.698	0.100
602.500	-36.200	0.100
602.600	-28.070	0.100
602.700	-36.802	0.100
602.800	-37.596	0.100
602.900	-45.392	0.100
603.000	-26.584	0.100
603.100	-29.750	0.100
603.200	-45.915	0.100
603.300	-26.502	0.100
603.400	-40.834	0.100
603.500	-29.419	0.100
603.600	-33.334	0.100
603.700	-35.063	0.100
603.800	-37.128	0.100
603.900	-27.043	0.100
604.000	-32.061	0.100
604.100	-20.275	0.100
604.200	-41.812	0.100
604.300	-33.650	0.100
604.400	-31.780	0.100
604.500	-28.125	0.100
604.600	-43.411	0.100
604.700	-38.035	0.100
604.800	-23.061	0.100
604.900	-30.969	0.100
605.000	-25.886	0.100
605.100	-28.615	0.100
605.200	-31.100	0.100
605.300	-25.564	0.100
605.400	-38.010	0.100
605.500	-21.042	0.100
605.600	-30.386	0.100
605.700	-41.118	0.100
605.800	-21.421	0.100
605.900	-27.663	0.100
606.000	-26.729	0.100
606.100	-34.692	0.100
606.200	-31.038	0.100
606.300	-27.702	0.100
606.400	-18.765	0.100
606.500	-35.518	0.100
606.600	-25.846	0.100
606.700	-31.840	0.100
606.800	-41.233	0.100
606.900	-37.771	0.100
607.000	-25.322	0.100
607.100	-33.632	0.100
607.200	-24.292	0.100
607.300	-27.825	0.100
607.400	-27.946	0.100
607.500	-25.647	0.100
607.600	-35.399	0.100
607.700	-30.597	0.100
607.800	-42.747	0.100
607.900	-31.631	0.100
608.000	-14.947	0.100
608.100	-24.553	0.100
608.200	-27.412	0.100
608.300	-34.201	0.100
608.400	-27.661	0.100
608.500	-18.861	0.100
608.600	-32.784	0.100
608.700	-37.015	0.100
608.800	-34.891	0.100
608.900	-21.353	0.100
609.000	-23.784	0.100
609.100	-24.966	0.100
609.200	-38.297	0.100
609.300	-28.543	0.100
609.400	-26.341	0.100
609.500	-34.213	0.100
609.600	-29.323	0.100
609.700	-40.112	0.100
609.800	-20.863	0.100
609.900	-22.584	0.100
610.000	-25.581	0.100
610.100	-35.179	0.100
610.200	-26.409	0.100
610.300	-33.481	0.100
610.400	-33.434	0.100
610.500	-34.146	0.100
610.600	-40.909	0.100
610.700	-35.027	0.100
610.800	-34.791	0.100
610.900	-28.524	0.100
611.000	-28.353	0.100
611.100	-29.868	0.100
611.200	-35.741	0.100
611.300	-35.723	0.100
611.400	-26.327	0.100
611.500	-25.677	0.100
611.600	-23.776	0.100
611.700	-24.359	0.100
611.800	-41.461	0.100
611.900	-35.598	0.100
612.000	-24.125	0.100
612.100	-29.104	0.100
612.200	-28.907	0.100
612.300	-24.558	0.100
612.400	-28.518	0.100
612.500	-31.947	0.100
612.600	-26.510	0.100
612.700	-32.961	0.100
612.800	-25.386	0.100
612.900	-27.532	0.100
613.000	-28.086	0.100
613.100	-33.681	0.100
613.200	-28.890	0.100
613.300	-36.224	0.100
613.400	-28.842	0.100
613.500	-29.515	0.100
613.600	-18.948	0.100
613.700	-33.727	0.100
613.800	-31.009	0.100
613.900	-23.550	0.100
614.000	-26.089	0.100
614.100	-26.953	0.100
614.200	-22.181	0.100
614.300	-31.327	0.100
614.400	-31.989	0.100
614.500	-19.805	0.100
614.600	-13.556	0.100
614.700	-33.533	0.100
614.800	-31.930	0.100
614.900	-28.442	0.100
615.000	-27.928	0.100
615.100	-22.210	0.100
615.200	-34.037	0.100
615.300	-27.971	0.100
615.400	-28.515	0.100
615.500	-45.284	0.100
615.600	-33.138	0.100
615.700	-34.317	0.100
615.800	-32.585	0.100
615.900	-25.824	0.100
616.000	-27.820	0.100
616.100	-18.846	0.100
616.200	-24.692	0.100
616.300	-39.121	0.100
616.400	-19.578	0.100
616.500	-31.958	0.100
616.600	-34.891	0.100
616.700	-26.400	0.100
616.800	-27.408	0.100
616.900	-27.658	0.100
617.000	-34.847	0.100
617.100	-22.577	0.100
617.200	-17.891	0.100
617.300	-35.188	0.100
617.400	-39.914	0.100
617.500	-23.569	0.100
617.600	-29.262	0.100
617.700	-26.852	0.100
617.800	-28.895	0.100
617.900	-22.055	0.100
618.000	-24.678	0.100
618.100	-23.072	0.100
618.200	-23.921	0.100
618.300	-29.793	0.100
618.400	-28.509	0.100
618.500	-42.687	0.100
618.600	-33.528	0.100
618.700	-26.447	0.100
618.800	-26.191	0.100
618.900	-27.107	0.100
619.000	-29.902	0.100
619.100	-15.972	0.100
619.200	-21.241	0.100
619.300	-29.896	0.100
619.400	-40.206	0.100
619.500	-35.991	0.100
619.600	-21.652	0.100
619.700	-21.444	0.100
619.800	-28.663	0.100
619.900	-39.253	0.100
620.000	-28.590	0.100
620.100	-26.231	0.100
620.200	-34.345	0.100
620.300	-12.786	0.100
620.400	-33.073	0.100
620.500	-33.510	0.100
620.600	-34.640	0.100
620.700	-22.671	0.100
620.800	-21.378	0.100
620.900	-28.704	0.100
621.000	-30.340	0.100
621.100	-44.968	0.100
621.200	-24.044	0.100
621.300	-28.672	0.100
621.400	-30.020	0.100
621.500	-28.516	0.100
621.600	-21.975	0.100
621.700	-29.640	0.100
621.800	-24.305	0.100
621.900	-38.448	0.100
622.000	-24.664	0.100
622.100	-23.860	0.100
622.200	-22.290	0.100
622.300	-28.392	0.100
622.400	-27.330	0.100
622.500	-26.597	0.100
622.600	-35.124	0.100
622.700	-19.940	0.100
622.800	-28.746	0.100
622.900	-22.489	0.100
623.000	-26.751	0.100
623.100	-32.721	0.100
623.200	-27.296	0.100
623.300	-21.739	0.100
623.400	-24.839	0.100
623.500	-21.758	0.100
623.600	-28.596	0.100
623.700	-28.513	0.100
623.800	-34.565	0.100
623.900	-23.569	0.100
624.000	-26.472	0.100
624.100	-12.144	0.100
624.200	-25.143	0.100
624.300	-16.664	0.100
624.400	-24.841	0.100
624.500	-28.848	0.100
624.600	-30.014	0.100
624.700	-30.523	0.100
624.800	-30.336	0.100
624.900	-2.874	0.100
625.000	-25.971	0.100
625.100	-39.994	0.100
625.200	-30.447	0.100
625.300	-23.692	0.100
625.400	-22.385	0.100
625.500	-21.592	0.100
625.600	-14.732	0.100
625.700	-15.639	0.100
625.800	-19.146	0.100
625.900	-30.898	0.100
626.000	-31.829	0.100
626.100	-26.262	0.100
626.200	-37.024	0.100
626.300	-22.344	0.100
626.400	-37.195	0.100
626.500	-28.045	0.100
626.600	-25.203	0.100
626.700	-27.075	0.100
626.800	-24.465	0.100
626.900	-28.482	0.100
627.000	-27.326	0.100
627.100	-29.423	0.100
627.200	-23.392	0.100
627.300	-23.665	0.100
627.400	-29.444	0.100
627.500	-18.643	0.100
627.600	-21.283	0.100
627.700	-18.694	0.100
627.800	-28.485	0.100
627.900	-22.679	0.100
628.000	-19.828	0.100
628.100	-23.551	0.100
628.200	-33.491	0.100
628.300	-30.710	0.100
628.400	-31.339	0.100
628.500	-28.132	0.100
628.600	-29.273	0.100
628.700	-22.875	0.100
628.800	-18.277	0.100
628.900	-20.959	0.100
629.000	-22.297	0.100
629.100	-23.127	0.100
629.200	-33.640	0.100
629.300	-29.101	0.100
629.400	-18.687	0.100
629.500	-27.606	0.100
629.600	-15.621	0.100
629.700	-16.286	0.100
629.800	-15.686	0.100
629.900	-26.798	0.100
630.000	-21.132	0.100
630.100	-13.104	0.100
630.200	1.880	0.100
630.300	-3.654	0.100
630.400	-5.369	0.100
630.500	1.675	0.100
630.600	5.002	0.100
630.700	13.258	0.100
630.800	4.880	0.100
630.900	27.983	0.100
631.000	16.323	0.100
631.100	16.853	0.100
631.200	28.515	0.100
631.300	11.048	0.100
631.400	26.002	0.100
631.500	20.483	0.100
631.600	22.994	0.100
631.700	38.105	0.100
631.800	25.370	0.100
631.900	37.479	0.100
632.000	16.449	0.100
632.100	30.268	0.100
632.200	32.336	0.100
632.300	36.664	0.100
632.400	25.801	0.100
632.500	22.992	0.100
632.600	26.415	0.100
632.700	31.704	0.100
632.800	36.049	0.100
632.900	31.518	0.100
633.000	33.497	0.100
633.100	43.654	0.100
633.200	30.644	0.100
633.300	20.285	0.100
633.400	25.708	0.100
633.500	29.877	0.100
633.600	48.048	0.100
633.700	50.850	0.100
633.800	22.180	0.100
633.900	30.139	0.100
634.000	22.416	0.100
634.100	32.894	0.100
634.200	38.083	0.100
634.300	42.709	0.100
634.400	44.942	0.100
634.500	35.186	0.100
634.600	27.286	0.100
634.700	36.053	0.100
634.800	31.624	0.100
634.900	22.026	0.100
635.000	33.574	0.100
635.100	24.636	0.100
635.200	33.514	0.100
635.300	30.164	0.100
635.400	24.715	0.100
635.500	46.186	0.100
635.600	26.898	0.100
635.700	34.540	0.100
635.800	29.736	0.100
635.900	21.711	0.100
636.000	28.052	0.100
636.100	29.713	0.100
636.200	35.225	0.100
636.300	19.950	0.100
636.400	21.929	0.100
636.500	24.178	0.100
636.600	43.725	0.100
636.700	32.574	0.100
636.800	13.963	0.100
636.900	43.015	0.100
637.000	37.780	0.100
637.100	26.678	0.100
637.200	39.640	0.100
637.300	37.225	0.100
637.400	40.693	0.100
637.500	41.275	0.100
637.600	28.132	0.100
637.700	29.604	0.100
637.800	23.794	0.100
637.900	29.994	0.100
638.000	36.189	0.100
638.100	32.840	0.100
638.200	29.670	0.100
638.300	38.863	0.100
638.400	30.014	0.100
638.500	45.220	0.100
638.600	34.529	0.100
638.700	29.260	0.100
638.800	29.957	0.100
638.900	44.179	0.100
639.000	38.708	0.100
639.100	34.616	0.100
639.200	24.603	0.100
639.300	39.299	0.100
639.400	36.244	0.100
639.500	45.600	0.100
639.600	39.165	0.100
639.700	35.989	0.100
639.800	39.926	0.100
639.900	29.832	0.100
640.000	36.613	0.100
640.100	37.852	0.100
640.200	41.863	0.100
640.300	39.886	0.100
640.400	40.242	0.100
640.500	39.577	0.100
640.600	29.825	0.100
640.700	35.791	0.100
640.800	48.271	0.100
640.900	29.278	0.100
641.000	41.576	0.100
641.100	37.523	0.100
641.200	51.327	0.100
641.300	34.248	0.100
641.400	37.432	0.100
641.500	47.050	0.100
641.600	30.655	0.100
641.700	51.047	0.100
641.800	46.249	0.100
641.900	42.071	0.100
642.000	38.476	0.100
642.100	41.813	0.100
642.200	45.013	0.100
642.300	51.210	0.100
642.400	59.002	0.100
642.500	53.018	0.100
642.600	44.708	0.100
642.700	46.516	0.100
642.800	47.954	0.100
642.900	51.460	0.100
643.000	45.276	0.100
643.100	45.400	0.100
643.200	44.078	0.100
643.300	47.563	0.100
643.400	46.500	0.100
643.500	48.832	0.100
643.600	56.040	0.100
643.700	59.025	0.100
643.800	59.796	0.100
643.900	53.434	0.100
644.000	52.014	0.100
644.100	56.307	0.100
644.200	64.966	0.100
644.300	47.214	0.100
644.400	55.020	0.100
644.500	49.743	0.100
644.600	69.165	0.100
644.700	60.861	0.100
644.800	68.306	0.100
644.900	76.208	0.100
645.000	58.180	0.100
645.100	54.791	0.100
645.200	58.821	0.100
645.300	56.738	0.100
645.400	60.197	0.100
645.500	72.899	0.100
645.600	59.965	0.100
645.700	68.845	0.100
645.800	73.417	0.100
645.900	65.551	0.100
646.000	64.313	0.100
646.100	75.863	0.100
646.200	66.923	0.100
646.300	63.353	0.100
646.400	63.117	0.100
646.500	55.631	0.100
646.600	65.833	0.100
646.700	69.025	0.100
646.800	64.072	0.100
646.900	72.704	0.100
647.000	58.808	0.100
647.100	67.319	0.100
647.200	65.660	0.100
647.300	77.606	0.100
647.400	70.285	0.100
647.500	71.188	0.100
647.600	59.216	0.100
647.700	74.748	0.100
647.800	61.988	0.100
647.900	72.554	0.100
648.000	59.740	0.100
648.100	58.640	0.100
648.200	71.890	0.100
648.300	70.115	0.100
648.400	84.201	0.100
648.500	72.991	0.100
648.600	63.939	0.100
648.700	87.260	0.100
648.800	63.532	0.100
648.900	70.122	0.100
649.000	73.175	0.100
649.100	77.740	0.100
649.200	71.310	0.100
649.300	74.473	0.100
649.400	74.098	0.100
649.500	76.015	0.100
649.600	81.404	0.100
649.700	71.615	0.100
649.800	77.341	0.100
649.900	72.369	0.100
650.000	72.656	0.100
650.100	81.967	0.100
650.200	68.079	0.100
650.300	71.045	0.100
650.400	74.493	0.100
650.500	74.490	0.100
650.600	66.991	0.100
650.700	78.493	0.100
650.800	77.021	0.100
650.900	80.343	0.100
651.000	82.036	0.100
651.100	71.912	0.100
651.200	79.881	0.100
651.300	83.810	0.100
651.400	82.343	0.100
651.500	95.314	0.100
651.600	80.338	0.100
651.700	81.551	0.100
651.800	75.677	0.100
651.900	66.139	0.100
652.000	81.863	0.100
652.100	79.233	0.100
652.200	89.140	0.100
652.300	75.351	0.100
652.400	77.212	0.100
652.500	72.021	0.100
652.600	77.685	0.100
652.700	83.895	0.100
652.800	83.914	0.100
652.900	79.735	0.100
653.000	73.232	0.100
653.100	75.396	0.100
653.200	79.894	0.100
653.300	74.978	0.100
653.400	79.400	0.100
653.500	73.146	0.100
653.600	74.430	0.100
653.700	78.869	0.100
653.800	89.025	0.100
653.900	85.124	0.100
654.000	60.406	0.100
654.100	67.707	0.100
654.200	80.901	0.100
654.300	81.857	0.100
654.400	81.124	0.100
654.500	67.613	0.100
654.600	70.750	0.100
654.700	74.293	0.100
654.800	66.143	0.100
654.900	77.750	0.100
655.000	79.447	0.100
655.100	66.268	0.100
655.200	76.567	0.100
655.300	69.458	0.100
655.400	84.800	0.100
655.500	83.554	0.100
655.600	80.869	0.100
655.700	71.152	0.100
655.800	73.958	0.100
655.900	73.661	0.100
656.000	74.386	0.100
656.100	77.993	0.100
656.200	80.756	0.100
656.300	67.550	0.100
656.400	80.354	0.100
656.500	72.384	0.100
656.600	72.122	0.100
656.700	63.720	0.100
656.800	76.372	0.100
656.900	83.261	0.100
657.000	76.205	0.100
657.100	75.688	0.100
657.200	84.912	0.100
657.300	72.605	0.100
657.400	68.273	0.100
657.500	75.053	0.100
657.600	87.066	0.100
657.700	69.705	0.100
657.800	72.066	0.100
657.900	76.145	0.100
658.000	82.234	0.100
658.100	54.260	0.100
658.200	70.203	0.100
658.300	66.961	0.100
658.400	77.102	0.100
658.500	71.664	0.100
658.600	69.765	0.100
658.700	72.414	0.100
658.800	71.495	0.100
658.900	67.980	0.100
659.000	75.413	0.100
659.100	69.802	0.100
659.200	81.422	0.100
659.300	83.699	0.100
659.400	64.539	0.100
659.500	61.481	0.100
659.600	69.301	0.100
659.700	63.653	0.100
659.800	67.006	0.100
659.900	70.556	0.100
660.000	69.922	0.100
660.100	79.794	0.100
660.200	67.266	0.100
660.300	76.038	0.100
660.400	60.130	0.100
660.500	77.397	0.100
660.600	78.064	0.100
660.700	62.004	0.100
660.800	68.785	0.100
660.900	72.578	0.100
661.000	68.875	0.100
661.100	70.472	0.100
661.200	62.882	0.100
661.300	62.460	0.100
661.400	69.220	0.100
661.500	81.100	0.100
661.600	79.278	0.100
661.700	62.694	0.100
661.800	57.246	0.100
661.900	66.015	0.100
662.000	65.822	0.100
662.100	62.451	0.100
662.200	68.520	0.100
662.300	63.470	0.100
662.400	74.777	0.100
662.500	61.815	0.100
662.600	74.232	0.100
662.700	66.979	0.100
662.800	76.984	0.100
662.900	68.389	0.100
663.000	77.884	0.100
663.100	62.661	0.100
663.200	65.605	0.100
663.300	54.419	0.100
663.400	74.492	0.100
663.500	67.917	0.100
663.600	57.537	0.100
663.700	57.169	0.100
663.800	68.612	0.100
663.900	68.727	0.100
664.000	70.218	0.100
664.100	65.763	0.100
664.200	74.038	0.100
664.300	70.948	0.100
664.400	66.892	0.100
664.500	62.796	0.100
664.600	58.894	0.100
664.700	72.488	0.100
664.800	71.156	0.100
664.900	66.010	0.100
665.000	77.885	0.100
665.100	74.541	0.100
665.200	77.473	0.100
665.300	64.601	0.100
665.400	67.524	0.100
665.500	55.924	0.100
665.600	59.815	0.100
665.700	78.740	0.100
665.800	73.594	0.100
665.900	80.394	0.100
666.000	58.764	0.100
666.100	53.469	0.100
666.200	59.468	0.100
666.300	77.738	0.100
666.400	50.926	0.100
666.500	58.634	0.100
666.600	72.597	0.100
666.700	63.688	0.100
666.800	58.376	0.100
666.900	80.210	0.100
667.000	61.105	0.100
667.100	60.491	0.100
667.200	72.027	0.100
667.300	79.446	0.100
667.400	69.529	0.100
667.500	69.185	0.100
667.600	64.334	0.100
667.700	53.577	0.100
667.800	69.639	0.100
667.900	61.412	0.100
668.000	65.740	0.100
668.100	69.365	0.100
668.200	77.981	0.100
668.300	65.822	0.100
668.400	70.364	0.100
668.500	62.122	0.100
668.600	67.942	0.100
668.700	68.287	0.100
668.800	67.360	0.100
668.900	56.635	0.100
669.000	68.230	0.100
669.100	77.841	0.100
669.200	77.974	0.100
669.300	64.827	0.100
669.400	61.240	0.100
669.500	60.211	0.100
669.600	62.752	0.100
669.700	74.234	0.100
669.800	59.011	0.100
669.900	67.536	0.100
670.000	58.829	0.100
670.100	74.970	0.100
670.200	63.877	0.100
670.300	60.256	0.100
670.400	67.264	0.100
670.500	73.886	0.100
670.600	62.705	0.100
670.700	66.722	0.100
670.800	71.792	0.100
670.900	78.367	0.100
671.000	77.187	0.100
671.100	62.156	0.100
671.200	56.421	0.100
671.300	60.213	0.100
671.400	54.107	0.100
671.500	56.110	0.100
671.600	71.464	0.100
671.700	66.046	0.100
671.800	62.733	0.100
671.900	74.318	0.100
672.000	61.931	0.100
672.100	53.082	0.100
672.200	64.961	0.100
672.300	70.677	0.100
672.400	65.727	0.100
672.500	57.121	0.100
672.600	63.135	0.100
672.700	65.827	0.100
672.800	57.985	0.100
672.900	64.980	0.100
673.000	64.407	0.100
673.100	67.008	0.100
673.200	67.070	0.100
673.300	76.675	0.100
673.400	61.353	0.100
673.500	52.710	0.100
673.600	67.135	0.100
673.700	67.616	0.100
673.800	52.385	0.100
673.900	70.590	0.100
674.000	67.046	0.100
674.100	64.516	0.100
674.200	66.404	0.100
674.300	59.577	0.100
674.400	69.401	0.100
674.500	68.108	0.100
674.600	66.404	0.100
674.700	62.561	0.100
674.800	63.403	0.100
674.900	57.170	0.100
675.000	59.917	0.100
675.100	65.357	0.100
675.200	66.257	0.100
675.300	61.852	0.100
675.400	68.590	0.100
675.500	68.619	0.100
675.600	70.132	0.100
675.700	54.095	0.100
675.800	73.171	0.100
675.900	56.288	0.100
676.000	75.139	0.100
676.100	53.240	0.100
676.200	68.131	0.100
676.300	57.374	0.100
676.400	73.360	0.100
676.500	65.026	0.100
676.600	57.893	0.100
676.700	63.295	0.100
676.800	61.921	0.100
676.900	56.463	0.100
677.000	58.914	0.100
677.100	56.511	0.100
677.200	65.169	0.100
677.300	68.594	0.100
677.400	67.270	0.100
677.500	59.439	0.100
677.600	73.387	0.100
677.700	61.442	0.100
677.800	59.447	0.100
677.900	68.196	0.100
678.000	63.982	0.100
678.100	63.310	0.100
678.200	62.011	0.100
678.300	62.490	0.100
678.400	60.645	0.100
678.500	58.994	0.100
678.600	54.796	0.100
678.700	49.034	0.100
678.800	58.716	0.100
678.900	61.926	0.100
679.000	71.403	0.100
679.100	59.577	0.100
679.200	62.727	0.100
679.300	73.613	0.100
679.400	71.334	0.100
679.500	61.326	0.100
679.600	61.991	0.100
679.700	73.583	0.100
679.800	48.158	0.100
679.900	61.830	0.100
680.000	67.075	0.100
680.100	60.613	0.100
680.200	54.653	0.100
680.300	60.607	0.100
680.400	64.203	0.100
680.500	46.548	0.100
680.600	63.349	0.100
680.700	61.224	0.100
680.800	74.231	0.100
680.900	66.429	0.100
681.000	52.991	0.100
681.100	51.491	0.100
681.200	56.933	0.100
681.300	57.708	0.100
681.400	82.593	0.100
681.500	61.800	0.100
681.600	70.149	0.100
681.700	66.755	0.100
681.800	60.642	0.100
681.900	65.942	0.100
682.000	65.272	0.100
682.100	60.830	0.100
682.200	74.331	0.100
682.300	53.427	0.100
682.400	56.940	0.100
682.500	47.304	0.100
682.600	52.513	0.100
682.700	63.979	0.100
682.800	74.987	0.100
682.900	70.241	0.100
683.000	71.436	0.100
683.100	57.302	0.100
683.200	68.214	0.100
683.300	68.131	0.100
683.400	60.712	0.100
683.500	79.051	0.100
683.600	71.724	0.100
683.700	51.604	0.100
683.800	57.794	0.100
683.900	66.324	0.100
684.000	55.556	0.100
684.100	51.569	0.100
684.200	54.477	0.100
684.300	55.831	0.100
684.400	52.741	0.100
684.500	63.703	0.100
684.600	47.333	0.100
684.700	64.230	0.100
684.800	56.179	0.100
684.900	69.027	0.100
685.000	66.555	0.100
685.100	58.088	0.100
685.200	60.288	0.100
685.300	58.205	0.100
685.400	56.147	0.100
685.500	61.014	0.100
685.600	54.106	0.100
685.700	58.573	0.100
685.800	51.160	0.100
685.900	63.220	0.100
686.000	57.461	0.100
686.100	47.701	0.100
686.200	62.958	0.100
686.300	65.354	0.100
686.400	60.316	0.100
686.500	64.626	0.100
686.600	61.639	0.100
686.700	51.701	0.100
686.800	63.439	0.100
686.900	67.965	0.100
687.000	57.973	0.100
687.100	69.704	0.100
687.200	63.277	0.100
687.300	61.230	0.100
687.400	53.892	0.100
687.500	62.783	0.100
687.600	51.065	0.100
687.700	58.255	0.100
687.800	59.133	0.100
687.900	61.762	0.100
688.000	58.887	0.100
688.100	67.472	0.100
688.200	58.274	0.100
688.300	62.754	0.100
688.400	54.093	0.100
688.500	64.304	0.100
688.600	51.519	0.100
688.700	58.235	0.100
688.800	66.422	0.100
688.900	64.636	0.100
689.000	56.202	0.100
689.100	64.708	0.100
689.200	60.440	0.100
689.300	55.319	0.100
689.400	65.186	0.100
689.500	47.966	0.100
689.600	58.226	0.100
689.700	60.310	0.100
689.800	60.861	0.100
689.900	40.225	0.100
690.000	54.558	0.100
690.100	40.342	0.100
690.200	34.684	0.100
690.300	40.611	0.100
690.400	34.730	0.100
690.500	23.109	0.100
690.600	34.025	0.100
690.700	24.815	0.100
690.800	13.355	0.100
690.900	7.953	0.100
691.000	14.327	0.100
691.100	2.792	0.100
691.200	10.845	0.100
691.300	10.077	0.100
691.400	5.152	0.100
691.500	2.706	0.100
691.600	-1.070	0.100
691.700	-1.038	0.100
691.800	-7.991	0.100
691.900	1.668	0.100
692.000	-20.002	0.100
692.100	-12.043	0.100
692.200	-9.758	0.100
692.300	-13.333	0.100
692.400	-9.284	0.100
692.500	-4.851	0.100
692.600	-6.990	0.100
692.700	-8.584	0.100
692.800	-12.413	0.100
692.900	-14.529	0.100
693.000	-23.854	0.100
693.100	-20.640	0.100
693.200	-14.020	0.100
693.300	-10.431	0.100
693.400	-32.517	0.100
693.500	-11.485	0.100
693.600	-35.670	0.100
693.700	-35.662	0.100
693.800	-22.912	0.100
693.900	-37.286	0.100
694.000	-32.661	0.100
694.100	-35.758	0.100
694.200	-27.754	0.100
694.300	-30.680	0.100
694.400	-31.123	0.100
694.500	-24.466	0.100
694.600	-30.208	0.100
694.700	-21.282	0.100
694.800	-24.647	0.100
694.900	-32.184	0.100
695.000	-34.937	0.100
695.100	-34.853	0.100
695.200	-29.094	0.100
695.300	-21.733	0.100
695.400	-39.399	0.100
695.500	-29.767	0.100
695.600	-24.886	0.100
695.700	-26.625	0.100
695.800	-31.994	0.100
695.900	-30.616	0.100
696.000	-29.458	0.100
696.100	-37.400	0.100
696.200	-41.579	0.100
696.300	-24.175	0.100
696.400	-36.697	0.100
696.500	-26.444	0.100
696.600	-23.860	0.100
696.700	-25.012	0.100
696.800	-21.767	0.100
696.900	-24.387	0.100
697.000	-20.863	0.100
697.100	-27.606	0.100
697.200	-38.528	0.100
697.300	-35.355	0.100
697.400	-25.803	0.100
697.500	-30.189	0.100
697.600	-21.346	0.100
697.700	-22.659	0.100
697.800	-27.507	0.100
697.900	-35.772	0.100
698.000	-33.451	0.100
698.100	-20.967	0.100
698.200	-27.135	0.100
698.300	-28.940	0.100
698.400	-26.858	0.100
698.500	-25.765	0.100
698.600	-25.523	0.100
698.700	-33.546	0.100
698.800	-28.715	0.100
698.900	-24.626	0.100
699.000	-21.095	0.100
699.100	-21.222	0.100
699.200	-29.355	0.100
699.300	-19.039	0.100
699.400	-27.355	0.100
699.500	-23.949	0.100
699.600	-19.743	0.100
699.700	-28.218	0.100
699.800	-30.766	0.100
699.900	-39.873	0.100
700.000	-31.085	0.100
700.100	-29.309	0.100
700.200	-36.136	0.100
700.300	-11.418	0.100
700.400	-21.134	0.100
700.500	-27.296	0.100
700.600	-27.327	0.100
700.700	-25.455	0.100
700.800	-28.944	0.100
700.900	-27.977	0.100
701.000	-21.308	0.100
701.100	-32.304	0.100
701.200	-29.850	0.100
701.300	-24.568	0.100
701.400	-27.153	0.100
701.500	-31.278	0.100
701.600	-30.093	0.100
701.700	-19.993	0.100
701.800	-21.265	0.100
701.900	-31.043	0.100
702.000	-24.024	0.100
702.100	-29.510	0.100
702.200	-23.332	0.100
702.300	-34.557	0.100
702.400	-30.289	0.100
702.500	-19.826	0.100
702.600	-21.350	0.100
702.700	-23.950	0.100
702.800	-34.119	0.100
702.900	-27.038	0.100
703.000	-29.711	0.100
703.100	-28.071	0.100
703.200	-26.641	0.100
703.300	-32.972	0.100
703.400	-35.652	0.100
703.500	-36.348	0.100
703.600	-28.783	0.100
703.700	-31.355	0.100
703.800	-19.570	0.100
703.900	-31.127	0.100
704.000	-24.017	0.100
704.100	-24.570	0.100
704.200	-24.036	0.100
704.300	-36.250	0.100
704.400	-26.472	0.100
704.500	-33.953	0.100
704.600	-39.378	0.100
704.700	-27.168	0.100
704.800	-26.499	0.100
704.900	-38.953	0.100
705.000	-30.710	0.100
705.100	-36.094	0.100
705.200	-29.546	0.100
705.300	-38.518	0.100
705.400	-38.540	0.100
705.500	-38.610	0.100
705.600	-25.454	0.100
705.700	-17.310	0.100
705.800	-25.302	0.100
705.900	-32.235	0.100
706.000	-29.175	0.100
706.100	-30.281	0.100
706.200	-25.734	0.100
706.300	-35.759	0.100
706.400	-28.123	0.100
706.500	-29.187	0.100
706.600	-33.711	0.100
706.700	-23.849	0.100
706.800	-41.434	0.100
706.900	-26.429	0.100
707.000	-31.058	0.100
707.100	-21.404	0.100
707.200	-36.991	0.100
707.300	-34.410	0.100
707.400	-31.934	0.100
707.500	-28.161	0.100
707.600	-32.648	0.100
707.700	-33.800	0.100
707.800	-29.600	0.100
707.900	-39.734	0.100
708.000	-33.273	0.100
708.100	-37.183	0.100
708.200	-37.917	0.100
708.300	-27.504	0.100
708.400	-38.436	0.100
708.500	-39.908	0.100
708.600	-34.339	0.100
708.700	-27.873	0.100
708.800	-18.224	0.100
708.900	-32.600	0.100
709.000	-35.416	0.100
709.100	-41.396	0.100
709.200	-31.221	0.100
709.300	-38.251	0.100
709.400	-40.542	0.100
709.500	-31.712	0.100
709.600	-33.211	0.100
709.700	-26.519	0.100
709.800	-34.784	0.100
709.900	-33.138	0.100
710.000	-35.576	0.100
710.100	-27.617	0.100
710.200	-30.429	0.100
710.300	-34.564	0.100
710.400	-31.293	0.100
710.500	-41.327	0.100
710.600	-42.674	0.100
710.700	-33.741	0.100
710.800	-35.899	0.100
710.900	-33.023	0.100
711.000	-32.693	0.100
711.100	-38.771	0.100
711.200	-29.384	0.100
711.300	-46.026	0.100
711.400	-34.938	0.100
711.500	-34.320	0.100
711.600	-41.123	0.100
711.700	-38.334	0.100
711.800	-34.080	0.100
711.900	-36.863	0.100
712.000	-34.616	0.100
712.100	-25.187	0.100
712.200	-36.111	0.100
712.300	-41.202	0.100
712.400	-39.961	0.100
712.500	-38.390	0.100
712.600	-34.554	0.100
712.700	-35.330	0.100
712.800	-25.304	0.100
712.900	-42.076	0.100
713.000	-39.037	0.100
713.100	-37.232	0.100
713.200	-43.247	0.100
713.300	-34.253	0.100
713.400	-31.144	0.100
713.500	-37.515	0.100
713.600	-43.631	0.100
713.700	-33.668	0.100
713.800	-37.515	0.100
713.900	-35.611	0.100
714.000	-33.798	0.100
714.100	-43.824	0.100
714.200	-40.808	0.100
714.300	-47.312	0.100
714.400	-38.193	0.100
714.500	-35.911	0.100
714.600	-35.714	0.100
714.700	-24.401	0.100
714.800	-39.350	0.100
714.900	-32.879	0.100
715.000	-29.749	0.100
715.100	-41.616	0.100
715.200	-43.206	0.100
715.300	-46.122	0.100
715.400	-39.690	0.100
715.500	-29.856	0.100
715.600	-42.340	0.100
715.700	-38.152	0.100
715.800	-33.752	0.100
715.900	-51.976	0.100
716.000	-34.506	0.100
716.100	-28.425	0.100
716.200	-30.730	0.100
716.300	-46.346	0.100
716.400	-39.197	0.100
716.500	-48.286	0.100
716.600	-37.459	0.100
716.700	-39.256	0.100
716.800	-33.840	0.100
716.900	-42.819	0.100
717.000	-41.461	0.100
717.100	-34.444	0.100
717.200	-34.859	0.100
717.300	-42.293	0.100
717.400	-45.511	0.100
717.500	-36.491	0.100
717.600	-43.660	0.100
717.700	-36.221	0.100
717.800	-44.337	0.100
717.900	-33.031	0.100
718.000	-40.557	0.100
718.100	-45.712	0.100
718.200	-38.360	0.100
718.300	-33.756	0.100
718.400	-48.688	0.100
718.500	-50.755	0.100
718.600	-40.743	0.100
718.700	-42.233	0.100
718.800	-34.601	0.100
718.900	-45.805	0.100
719.000	-38.333	0.100
719.100	-40.206	0.100
719.200	-32.252	0.100
719.300	-29.784	0.100
719.400	-34.047	0.100
719.500	-54.237	0.100
719.600	-46.948	0.100
719.700	-51.519	0.100
719.800	-40.300	0.100
719.900	-49.352	0.100
720.000	-43.707	0.100
720.100	-38.389	0.100
720.200	-42.313	0.100
720.300	-53.823	0.100
720.400	-44.168	0.100
720.500	-39.353	0.100
720.600	-35.190	0.100
720.700	-45.854	0.100
720.800	-51.729	0.100
720.900	-42.553	0.100
721.000	-45.335	0.100
721.100	-50.205	0.100
721.200	-45.260	0.100
721.300	-37.464	0.100
721.400	-41.086	0.100
721.500	-41.500	0.100
721.600	-53.076	0.100
721.700	-52.087	0.100
721.800	-38.205	0.100
721.900	-42.849	0.100
722.000	-36.405	0.100
722.100	-47.484	0.100
722.200	-49.861	0.100
722.300	-42.321	0.100
722.400	-41.251	0.100
722.500	-41.056	0.100
722.600	-49.090	0.100
722.700	-52.478	0.100
722.800	-43.765	0.100
722.900	-44.330	0.100
723.000	-47.513	0.100
723.100	-41.099	0.100
723.200	-44.915	0.100
723.300	-49.162	0.100
723.400	-47.849	0.100
723.500	-46.336	0.100
723.600	-60.707	0.100
723.700	-47.075	0.100
723.800	-48.274	0.100
723.900	-53.173	0.100
724.000	-42.363	0.100
724.100	-47.822	0.100
724.200	-43.341	0.100
724.300	-44.345	0.100
724.400	-51.585	0.100
724.500	-44.436	0.100
724.600	-39.276	0.100
724.700	-44.751	0.100
724.800	-50.939	0.100
724.900	-48.393	0.100
725.000	-44.156	0.100
725.100	-35.557	0.100
725.200	-46.346	0.100
725.300	-38.668	0.100
725.400	-45.604	0.100
725.500	-41.817	0.100
725.600	-36.657	0.100
725.700	-47.280	0.100
725.800	-49.180	0.100
725.900	-57.005	0.100
726.000	-45.112	0.100
726.100	-49.932	0.100
726.200	-36.912	0.100
726.300	-34.771	0.100
726.400	-47.840	0.100
726.500	-52.797	0.100
726.600	-40.015	0.100
726.700	-42.883	0.100
726.800	-37.755	0.100
726.900	-38.638	0.100
727.000	-50.542	0.100
727.100	-38.836	0.100
727.200	-47.114	0.100
727.300	-43.882	0.100
727.400	-38.853	0.100
727.500	-44.732	0.100
727.600	-53.758	0.100
727.700	-44.292	0.100
727.800	-47.476	0.100
727.900	-52.421	0.100
728.000	-43.397	0.100
728.100	-43.264	0.100
728.200	-46.537	0.100
728.300	-45.341	0.100
728.400	-51.792	0.100
728.500	-34.582	0.100
728.600	-39.917	0.100
728.700	-47.691	0.100
728.800	-29.139	0.100
728.900	-44.335	0.100
729.000	-40.885	0.100
729.100	-46.701	0.100
729.200	-50.737	0.100
729.300	-54.782	0.100
729.400	-52.685	0.100
729.500	-40.134	0.100
729.600	-42.997	0.100
729.700	-35.677	0.100
729.800	-35.799	0.100
729.900	-44.455	0.100
730.000	-48.448	0.100
730.100	-49.442	0.100
730.200	-40.479	0.100
730.300	-50.905	0.100
730.400	-53.219	0.100
730.500	-37.105	0.100
730.600	-32.014	0.100
730.700	-47.121	0.100
730.800	-48.126	0.100
730.900	-34.895	0.100
731.000	-38.439	0.100
731.100	-49.290	0.100
731.200	-44.825	0.100
731.300	-47.825	0.100
731.400	-37.829	0.100
731.500	-47.316	0.100
731.600	-41.214	0.100
731.700	-45.896	0.100
731.800	-53.344	0.100
731.900	-43.557	0.100
732.000	-46.945	0.100
732.100	-22.394	0.100
732.200	-37.845	0.100
732.300	-46.614	0.100
732.400	-41.295	0.100
732.500	-50.221	0.100
732.600	-40.193	0.100
732.700	-50.946	0.100
732.800	-50.063	0.100
732.900	-46.083	0.100
733.000	-45.622	0.100
733.100	-34.203	0.100
733.200	-37.138	0.100
733.300	-45.573	0.100
733.400	-49.326	0.100
733.500	-41.284	0.100
733.600	-50.286	0.100
733.700	-50.114	0.100
733.800	-45.979	0.100
733.900	-53.240	0.100
734.000	-33.949	0.100
734.100	-40.364	0.100
734.200	-41.303	0.100
734.300	-40.807	0.100
734.400	-51.347	0.100
734.500	-40.212	0.100
734.600	-51.088	0.100
734.700	-44.438	0.100
734.800	-57.334	0.100
734.900	-51.103	0.100
735.000	-27.255	0.100
735.100	-41.791	0.100
735.200	-51.765	0.100
735.300	-36.144	0.100
735.400	-45.272	0.100
735.500	-41.656	0.100
735.600	-43.188	0.100
735.700	-46.134	0.100
735.800	-51.009	0.100
735.900	-48.827	0.100
736.000	-37.125	0.100
736.100	-43.264	0.100
736.200	-43.854	0.100
736.300	-22.263	0.100
736.400	-48.129	0.100
736.500	-41.551	0.100
736.600	-47.661	0.100
736.700	-42.161	0.100
736.800	-48.352	0.100
736.900	-43.548	0.100
737.000	-40.715	0.100
737.100	-56.811	0.100
737.200	-49.706	0.100
737.300	-42.095	0.100
737.400	-52.961	0.100
737.500	-36.081	0.100
737.600	-40.178	0.100
737.700	-39.462	0.100
737.800	-39.845	0.100
737.900	-33.933	0.100
738.000	-41.555	0.100
738.100	-39.065	0.100
738.200	-32.210	0.100
738.300	-38.845	0.100
738.400	-40.597	0.100
738.500	-34.159	0.100
738.600	-49.863	0.100
738.700	-37.279	0.100
738.800	-45.612	0.100
738.900	-45.100	0.100
739.000	-30.081	0.100
739.100	-43.220	0.100
739.200	-52.593	0.100
739.300	-42.659	0.100
739.400	-41.105	0.100
739.500	-37.112	0.100
739.600	-45.133	0.100
739.700	-37.514	0.100
739.800	-45.304	0.100
739.900	-36.917	0.100
740.000	-35.110	0.100
740.100	-36.424	0.100
740.200	-40.436	0.100
740.300	-39.216	0.100
740.400	-49.317	0.100
740.500	-35.159	0.100
740.600	-33.593	0.100
740.700	-52.031	0.100
740.800	-44.676	0.100
740.900	-42.057	0.100
741.000	-33.886	0.100
741.100	-33.231	0.100
741.200	-48.935	0.100
741.300	-48.611	0.100
741.400	-34.688	0.100
741.500	-31.541	0.100
741.600	-52.768	0.100
741.700	-30.848	0.100
741.800	-41.636	0.100
741.900	-42.158	0.100
742.000	-51.976	0.100
742.100	-44.432	0.100
742.200	-51.021	0.100
742.300	-45.552	0.100
742.400	-36.119	0.100
742.500	-42.334	0.100
742.600	-38.440	0.100
742.700	-37.815	0.100
742.800	-30.475	0.100
742.900	-29.944	0.100
743.000	-38.762	0.100
743.100	-43.323	0.100
743.200	-33.275	0.100
743.300	-33.608	0.100
743.400	-44.466	0.100
743.500	-50.245	0.100
743.600	-31.583	0.100
743.700	-37.913	0.100
743.800	-41.752	0.100
743.900	-43.537	0.100
744.000	-35.718	0.100
744.100	-43.337	0.100
744.200	-35.078	0.100
744.300	-50.022	0.100
744.400	-42.560	0.100
744.500	-47.550	0.100
744.600	-38.202	0.100
744.700	-48.612	0.100
744.800	-35.438	0.100
744.900	-38.268	0.100
745.000	-35.414	0.100
745.100	-28.373	0.100
745.200	-37.833	0.100
745.300	-39.610	0.100
745.400	-32.897	0.100
745.500	-50.247	0.100
745.600	-39.019	0.100
745.700	-44.792	0.100
745.800	-36.788	0.100
745.900	-30.610	0.100
746.000	-29.500	0.100
746.100	-37.511	0.100
746.200	-39.282	0.100
746.300	-41.254	0.100
746.400	-41.979	0.100
746.500	-26.999	0.100
746.600	-34.146	0.100
746.700	-30.601	0.100
746.800	-45.901	0.100
746.900	-45.127	0.100
747.000	-34.603	0.100
747.100	-37.062	0.100
747.200	-37.880	0.100
747.300	-29.731	0.100
747.400	-40.135	0.100
747.500	-33.407	0.100
747.600	-37.569	0.100
747.700	-44.095	0.100
747.800	-42.717	0.100
747.900	-33.255	0.100
748.000	-44.528	0.100
748.100	-46.912	0.100
748.200	-42.000	0.100
748.300	-40.929	0.100
748.400	-38.446	0.100
748.500	-34.652	0.100
748.600	-39.436	0.100
748.700	-32.760	0.100
748.800	-28.492	0.100
748.900	-45.487	0.100
749.000	-45.119	0.100
749.100	-34.221	0.100
749.200	-30.781	0.100
749.300	-24.808	0.100
749.400	-44.010	0.100
749.500	-45.227	0.100
749.600	-48.788	0.100
749.700	-37.984	0.100
749.800	-37.342	0.100
749.900	-36.549	0.100
750.000	-38.651	0.100
750.100	-36.809	0.100
750.200	-28.515	0.100
750.300	-33.435	0.100
750.400	-38.479	0.100
750.500	-39.782	0.100
750.600	-20.560	0.100
750.700	-31.065	0.100
750.800	-43.582	0.100
750.900	-41.005	0.100
751.000	-36.840	0.100
751.100	-39.103	0.100
751.200	-43.698	0.100
751.300	-49.681	0.100
751.400	-37.081	0.100
751.500	-36.231	0.100
751.600	-32.018	0.100
751.700	-29.024	0.100
751.800	-39.572	0.100
751.900	-35.674	0.100
752.000	-37.117	0.100
752.100	-36.910	0.100
752.200	-37.063	0.100
752.300	-21.805	0.100
752.400	-48.359	0.100
752.500	-31.865	0.100
752.600	-44.059	0.100
752.700	-33.370	0.100
752.800	-32.333	0.100
752.900	-38.781	0.100
753.000	-28.702	0.100
753.100	-37.547	0.100
753.200	-48.729	0.100
753.300	-28.961	0.100
753.400	-39.080	0.100
753.500	-25.534	0.100
753.600	-47.237	0.100
753.700	-50.558	0.100
753.800	-35.205	0.100
753.900	-46.420	0.100
754.000	-27.408	0.100
754.100	-18.737	0.100
754.200	-25.526	0.100
754.300	-30.314	0.100
754.400	-43.657	0.100
754.500	-36.441	0.100
754.600	-38.916	0.100
754.700	-42.319	0.100
754.800	-36.524	0.100
754.900	-20.338	0.100
755.000	-37.668	0.100
755.100	-40.567	0.100
755.200	-44.259	0.100
755.300	-41.987	0.100
755.400	-40.214	0.100
755.500	-33.870	0.100
755.600	-38.715	0.100
755.700	-36.381	0.100
755.800	-23.706	0.100
755.900	-34.457	0.100
756.000	-44.513	0.100
756.100	-30.903	0.100
756.200	-33.080	0.100
756.300	-29.596	0.100
756.400	-28.047	0.100
756.500	-36.597	0.100
756.600	-43.363	0.100
756.700	-35.697	0.100
756.800	-30.562	0.100
756.900	-34.302	0.100
757.000	-42.611	0.100
757.100	-39.596	0.100
757.200	-35.905	0.100
757.300	-33.666	0.100
757.400	-21.816	0.100
757.500	-40.436	0.100
757.600	-24.463	0.100
757.700	-31.695	0.100
757.800	-41.726	0.100
757.900	-38.229	0.100
758.000	-37.409	0.100
758.100	-27.722	0.100
758.200	-33.491	0.100
758.300	-36.934	0.100
758.400	-43.247	0.100
758.500	-32.944	0.100
758.600	-27.258	0.100
758.700	-43.235	0.100
758.800	-33.382	0.100
758.900	-39.606	0.100
759.000	-36.051	0.100
759.100	-37.709	0.100
759.200	-25.332	0.100
759.300	-48.058	0.100
759.400	-28.811	0.100
759.500	-38.684	0.100
759.600	-31.487	0.100
759.700	-35.772	0.100
759.800	-28.554	0.100
759.900	-34.625	0.100
760.000	-28.495	0.100
760.100	-33.736	0.100
760.200	-48.950	0.100
760.300	-32.981	0.100
760.400	-40.943	0.100
760.500	-31.394	0.100
760.600	-32.296	0.100
760.700	-30.888	0.100
760.800	-36.489	0.100
760.900	-33.315	0.100
761.000	-25.965	0.100
761.100	-21.419	0.100
761.200	-38.048	0.100
761.300	-31.707	0.100
761.400	-33.844	0.100
761.500	-30.609	0.100
761.600	-26.898	0.100
761.700	-34.065	0.100
761.800	-37.865	0.100
761.900	-29.900	0.100
762.000	-25.791	0.100
762.100	-34.917	0.100
762.200	-38.466	0.100
762.300	-34.123	0.100
762.400	-34.007	0.100
762.500	-32.678	0.100
762.600	-24.016	0.100
762.700	-35.568	0.100
762.800	-29.300	0.100
762.900	-45.634	0.100
763.000	-31.700	0.100
763.100	-37.949	0.100
763.200	-31.153	0.100
763.300	-28.376	0.100
763.400	-24.350	0.100
763.500	-28.430	0.100
763.600	-37.367	0.100
763.700	-27.476	0.100
763.800	-31.380	0.100
763.900	-38.606	0.100
764.000	-28.929	0.100
764.100	-30.055	0.100
764.200	-33.556	0.100
764.300	-43.027	0.100
764.400	-31.413	0.100
764.500	-32.917	0.100
764.600	-31.531	0.100
764.700	-40.509	0.100
764.800	-32.405	0.100
764.900	-36.725	0.100
765.000	-32.002	0.100
765.100	-32.607	0.100
765.200	-26.991	0.100
765.300	-41.976	0.100
765.400	-31.558	0.100
765.500	-34.154	0.100
765.600	-32.470	0.100
765.700	-26.020	0.100
765.800	-36.703	0.100
765.900	-23.930	0.100
766.000	-34.728	0.100
766.100	-20.608	0.100
766.200	-27.352	0.100
766.300	-33.727	0.100
766.400	-38.394	0.100
766.500	-25.175	0.100
766.600	-26.455	0.100
766.700	-25.306	0.100
766.800	-23.110	0.100
766.900	-40.529	0.100
767.000	-37.652	0.100
767.100	-43.520	0.100
767.200	-27.234	0.100
767.300	-24.621	0.100
767.400	-22.563	0.100
767.500	-38.832	0.100
767.600	-33.374	0.100
767.700	-35.371	0.100
767.800	-37.869	0.100
767.900	-31.611	0.100
768.000	-30.873	0.100
768.100	-33.685	0.100
768.200	-33.662	0.100
768.300	-26.461	0.100
768.400	-32.659	0.100
768.500	-35.676	0.100
768.600	-27.120	0.100
768.700	-34.070	0.100
768.800	-32.817	0.100
768.900	-29.898	0.100
769.000	-33.588	0.100
769.100	-39.074	0.100
769.200	-20.560	0.100
769.300	-22.140	0.100
769.400	-24.358	0.100
769.500	-33.695	0.100
769.600	-36.746	0.100
769.700	-31.726	0.100
769.800	-30.286	0.100
769.900	-43.863	0.100
770.000	-33.513	0.100
770.100	-24.731	0.100
770.200	-27.445	0.100
770.300	-33.175	0.100
770.400	-28.140	0.100
770.500	-43.435	0.100
770.600	-30.564	0.100
770.700	-24.162	0.100
770.800	-20.393	0.100
770.900	-30.816	0.100
771.000	-42.328	0.100
771.100	-42.391	0.100
771.200	-28.792	0.100
771.300	-29.027	0.100
771.400	-26.170	0.100
771.500	-41.192	0.100
771.600	-33.168	0.100
771.700	-24.899	0.100
771.800	-41.199	0.100
771.900	-44.166	0.100
772.000	-29.661	0.100
772.100	-25.337	0.100
772.200	-35.331	0.100
772.300	-22.590	0.100
772.400	-27.440	0.100
772.500	-26.196	0.100
772.600	-29.715	0.100
772.700	-25.699	0.100
772.800	-27.817	0.100
772.900	-43.263	0.100
773.000	-35.053	0.100
773.100	-27.641	0.100
773.200	-26.290	0.100
773.300	-39.663	0.100
773.400	-33.270	0.100
773.500	-29.020	0.100
773.600	-34.807	0.100
773.700	-27.010	0.100
773.800	-29.072	0.100
773.900	-31.087	0.100
774.000	-38.644	0.100
774.100	-36.050	0.100
774.200	-23.995	0.100
774.300	-22.747	0.100
774.400	-35.526	0.100
774.500	-29.107	0.100
774.600	-32.251	0.100
774.700	-21.910	0.100
774.800	-31.022	0.100
774.900	-27.680	0.100
775.000	-24.420	0.100
775.100	-21.335	0.100
775.200	-38.182	0.100
775.300	-22.779	0.100
775.400	-26.411	0.100
775.500	-31.597	0.100
775.600	-27.999	0.100
775.700	-25.815	0.100
775.800	-30.024	0.100
775.900	-28.863	0.100
776.000	-38.885	0.100
776.100	-34.941	0.100
776.200	-31.654	0.100
776.300	-31.782	0.100
776.400	-20.338	0.100
776.500	-20.323	0.100
776.600	-23.269	0.100
776.700	-31.815	0.100
776.800	-40.341	0.100
776.900	-29.264	0.100
777.000	-24.314	0.100
777.100	-30.932	0.100
777.200	-34.155	0.100
777.300	-27.015	0.100
777.400	-31.398	0.100
777.500	-33.385	0.100
777.600	-39.744	0.100
777.700	-15.281	0.100
777.800	-13.055	0.100
777.900	-24.655	0.100
778.000	-35.257	0.100
778.100	-22.454	0.100
778.200	-32.638	0.100
778.300	-25.256	0.100
778.400	-30.182	0.100
778.500	-22.423	0.100
778.600	-21.788	0.100
778.700	-33.508	0.100
778.800	-35.109	0.100
778.900	-26.074	0.100
779.000	-31.246	0.100
779.100	-36.788	0.100
779.200	-38.691	0.100
779.300	-20.643	0.100
779.400	-31.243	0.100
779.500	-22.768	0.100
779.600	-27.068	0.100
779.700	-28.219	0.100
779.800	-35.732	0.100
779.900	-38.420	0.100
780.000	-35.512	0.100
780.100	-21.574	0.100
780.200	-12.016	0.100
780.300	-4.150	0.100
780.400	0.327	0.100
780.500	-19.160	0.100
780.600	-3.764	0.100
780.700	3.354	0.100
780.800	4.713	0.100
780.900	20.870	0.100
781.000	11.610	0.100
781.100	23.088	0.100
781.200	26.717	0.100
781.300	14.788	0.100
781.400	21.980	0.100
781.500	19.765	0.100
781.600	14.122	0.100
781.700	16.097	0.100
781.800	14.963	0.100
781.900	28.273	0.100
782.000	28.439	0.100
782.100	38.779	0.100
782.200	31.817	0.100
782.300	29.986	0.100
782.400	25.704	0.100
782.500	26.552	0.100
782.600	42.981	0.100
782.700	29.162	0.100
782.800	42.818	0.100
782.900	23.683	0.100
783.000	37.144	0.100
783.100	23.361	0.100
783.200	26.207	0.100
783.300	24.639	0.100
783.400	32.749	0.100
783.500	34.983	0.100
783.600	29.406	0.100
783.700	25.641	0.100
783.800	13.815	0.100
783.900	41.496	0.100
784.000	31.991	0.100
784.100	24.028	0.100
784.200	30.296	0.100
784.300	37.202	0.100
784.400	26.562	0.100
784.500	31.542	0.100
784.600	33.683	0.100
784.700	32.248	0.100
784.800	29.818	0.100
784.900	29.523	0.100
785.000	34.512	0.100
785.100	20.937	0.100
785.200	22.080	0.100
785.300	39.338	0.100
785.400	26.975	0.100
785.500	23.832	0.100
785.600	33.813	0.100
785.700	25.282	0.100
785.800	20.144	0.100
785.900	22.584	0.100
786.000	37.262	0.100
786.100	22.142	0.100
786.200	24.348	0.100
786.300	28.827	0.100
786.400	22.897	0.100
786.500	35.721	0.100
786.600	28.819	0.100
786.700	21.283	0.100
786.800	29.124	0.100
786.900	30.729	0.100
787.000	25.691	0.100
787.100	19.533	0.100
787.200	15.088	0.100
787.300	18.124	0.100
787.400	38.270	0.100
787.500	25.193	0.100
787.600	35.922	0.100
787.700	32.589	0.100
787.800	41.744	0.100
787.900	33.397	0.100
788.000	35.373	0.100
788.100	37.906	0.100
788.200	25.928	0.100
788.300	28.484	0.100
788.400	34.797	0.100
788.500	36.314	0.100
788.600	40.681	0.100
788.700	21.191	0.100
788.800	32.885	0.100
788.900	30.548	0.100
789.000	36.383	0.100
789.100	34.402	0.100
789.200	30.101	0.100
789.300	23.321	0.100
789.400	33.005	0.100
789.500	29.353	0.100
789.600	43.040	0.100
789.700	25.415	0.100
789.800	24.198	0.100
789.900	44.020	0.100
790.000	31.933	0.100
790.100	33.971	0.100
790.200	23.076	0.100
790.300	30.058	0.100
790.400	29.045	0.100
790.500	38.174	0.100
790.600	36.317	0.100
790.700	27.662	0.100
790.800	35.546	0.100
790.900	30.188	0.100
791.000	33.887	0.100
791.100	33.388	0.100
791.200	38.650	0.100
791.300	39.748	0.100
791.400	40.614	0.100
791.500	40.405	0.100
791.600	37.296	0.100
791.700	46.642	0.100
791.800	39.002	0.100
791.900	26.146	0.100
792.000	35.243	0.100
792.100	41.110	0.100
792.200	36.849	0.100
792.300	28.196	0.100
792.400	34.209	0.100
792.500	45.710	0.100
792.600	52.306	0.100
792.700	39.686	0.100
792.800	30.324	0.100
792.900	46.557	0.100
793.000	30.228	0.100
793.100	49.896	0.100
793.200	41.872	0.100
793.300	38.811	0.100
793.400	36.198	0.100
793.500	41.291	0.100
793.600	48.511	0.100
793.700	46.723	0.100
793.800	49.776	0.100
793.900	45.620	0.100
794.000	48.601	0.100
794.100	52.729	0.100
794.200	53.774	0.100
794.300	49.844	0.100
794.400	48.548	0.100
794.500	46.185	0.100
794.600	44.618	0.100
794.700	49.104	0.100
794.800	58.731	0.100
794.900	55.804	0.100
795.000	40.827	0.100
795.100	57.447	0.100
795.200	51.689	0.100
795.300	64.061	0.100
795.400	61.917	0.100
795.500	59.465	0.100
795.600	57.149	0.100
795.700	52.923	0.100
795.800	45.947	0.100
795.900	55.561	0.100
796.000	58.992	0.100
796.100	62.620	0.100
796.200	55.892	0.100
796.300	53.701	0.100
796.400	50.904	0.100
796.500	50.742	0.100
796.600	51.481	0.100
796.700	55.850	0.100
796.800	63.218	0.100
796.900	59.708	0.100
797.000	65.494	0.100
797.100	57.160	0.100
797.200	60.554	0.100
797.300	79.777	0.100
797.400	69.324	0.100
797.500	70.059	0.100
797.600	66.561	0.100
797.700	69.710	0.100
797.800	64.825	0.100
797.900	56.552	0.100
798.000	78.695	0.100
798.100	54.312	0.100
798.200	55.367	0.100
798.300	65.334	0.100
798.400	68.980	0.100
798.500	59.589	0.100
798.600	60.624	0.100
798.700	70.333	0.100
798.800	63.472	0.100
798.900	65.194	0.100
799.000	66.190	0.100
799.100	65.989	0.100
799.200	66.159	0.100
799.300	53.494	0.100
799.400	66.370	0.100
799.500	67.685	0.100
799.600	67.353	0.100
799.700	78.277	0.100
799.800	73.186	0.100
799.900	64.408	0.100
800.000	62.102	0.100
