time /s	I /nA	E /V
0.100	-19.896	0.100
0.200	-14.526	0.100
0.300	-29.409	0.100
0.400	-26.221	0.100
0.500	-9.507	0.100
0.600	-26.024	0.100
0.700	-23.888	0.100
0.800	-26.778	0.100
0.900	-24.136	0.100
1.000	-20.060	0.100
1.100	-19.504	0.100
1.200	-23.975	0.100
1.300	-19.770	0.100
1.400	-22.981	0.100
1.500	-18.330	0.100
1.600	-24.432	0.100
1.700	-29.025	0.100
1.800	-28.585	0.100
1.900	-24.289	0.100
2.000	-27.593	0.100
2.100	-25.875	0.100
2.200	-15.177	0.100
2.300	-19.082	0.100
2.400	-21.649	0.100
2.500	-24.148	0.100
2.600	-21.482	0.100
2.700	-20.235	0.100
2.800	-22.783	0.100
2.900	-26.807	0.100
3.000	-27.799	0.100
3.100	-27.996	0.100
3.200	-21.949	0.100
3.300	-15.625	0.100
3.400	-28.689	0.100
3.500	-27.038	0.100
3.600	-20.765	0.100
3.700	-24.352	0.100
3.800	-24.705	0.100
3.900	-28.577	0.100
4.000	-23.178	0.100
4.100	-21.366	0.100
4.200	-22.443	0.100
4.300	-15.448	0.100
4.400	-22.912	0.100
4.500	-17.972	0.100
4.600	-25.834	0.100
4.700	-23.822	0.100
4.800	-23.920	0.100
4.900	-28.254	0.100
5.000	-27.120	0.100
5.100	-22.817	0.100
5.200	-23.587	0.100
5.300	-22.471	0.100
5.400	-22.337	0.100
5.500	-18.586	0.100
5.600	-21.661	0.100
5.700	-24.920	0.100
5.800	-26.478	0.100
5.900	-26.609	0.100
6.000	-21.209	0.100
6.100	-18.044	0.100
6.200	-26.701	0.100
6.300	-11.512	0.100
6.400	-9.239	0.100
6.500	-16.647	0.100
6.600	-22.093	0.100
6.700	-27.562	0.100
6.800	-19.861	0.100
6.900	-23.493	0.100
7.000	-19.752	0.100
7.100	-22.110	0.100
7.200	-23.975	0.100
7.300	-15.284	0.100
7.400	-21.564	0.100
7.500	-23.253	0.100
7.600	-23.327	0.100
7.700	-28.845	0.100
7.800	-22.353	0.100
7.900	-24.868	0.100
8.000	-23.645	0.100
8.100	-21.320	0.100
8.200	-18.732	0.100
8.300	-15.280	0.100
8.400	-20.646	0.100
8.500	-23.521	0.100
8.600	-24.640	0.100
8.700	-16.549	0.100
8.800	-18.060	0.100
8.900	-24.973	0.100
9.000	-31.793	0.100
9.100	-27.929	0.100
9.200	-24.062	0.100
9.300	-17.297	0.100
9.400	-23.493	0.100
9.500	-15.662	0.100
9.600	-16.043	0.100
9.700	-20.116	0.100
9.800	-24.473	0.100
9.900	-17.430	0.100
10.000	-22.240	0.100
10.100	-17.914	0.100
10.200	-24.020	0.100
10.300	-28.616	0.100
10.400	-25.636	0.100
10.500	-17.295	0.100
10.600	-18.104	0.100
10.700	-20.167	0.100
10.800	-21.891	0.100
10.900	-25.891	0.100
11.000	-24.565	0.100
11.100	-19.369	0.100
11.200	-16.802	0.100
11.300	-27.929	0.100
11.400	-21.264	0.100
11.500	-21.902	0.100
11.600	-22.607	0.100
11.700	-20.529	0.100
11.800	-20.874	0.100
11.900	-16.501	0.100
12.000	-20.989	0.100
12.100	-26.423	0.100
12.200	-24.006	0.100
12.300	-20.033	0.100
12.400	-28.937	0.100
12.500	-30.107	0.100
12.600	-18.393	0.100
12.700	-16.087	0.100
12.800	-4.308	0.100
12.900	-15.330	0.100
13.000	-24.735	0.100
13.100	-24.493	0.100
13.200	-23.137	0.100
13.300	-14.435	0.100
13.400	-24.376	0.100
13.500	-17.603	0.100
13.600	-26.086	0.100
13.700	-24.481	0.100
13.800	-16.002	0.100
13.900	-19.167	0.100
14.000	-25.067	0.100
14.100	-16.203	0.100
14.200	-12.540	0.100
14.300	-18.365	0.100
14.400	-29.520	0.100
14.500	-14.420	0.100
14.600	-18.797	0.100
14.700	-21.781	0.100
14.800	-29.350	0.100
14.900	-21.461	0.100
15.000	-21.721	0.100
15.100	-17.350	0.100
15.200	-17.386	0.100
15.300	-22.636	0.100
15.400	-21.135	0.100
15.500	-21.284	0.100
15.600	-18.700	0.100
15.700	-16.001	0.100
15.800	-19.876	0.100
15.900	-25.046	0.100
16.000	-20.296	0.100
16.100	-17.262	0.100
16.200	-22.875	0.100
16.300	-20.255	0.100
16.400	-24.412	0.100
16.500	-11.145	0.100
16.600	-23.786	0.100
16.700	-23.368	0.100
16.800	-27.327	0.100
16.900	-19.056	0.100
17.000	-23.850	0.100
17.100	-17.105	0.100
17.200	-23.601	0.100
17.300	-21.119	0.100
17.400	-15.849	0.100
17.500	-28.472	0.100
17.600	-26.298	0.100
17.700	-19.951	0.100
17.800	-22.510	0.100
17.900	-26.192	0.100
18.000	-25.709	0.100
18.100	-18.967	0.100
18.200	-11.997	0.100
18.300	-24.280	0.100
18.400	-20.702	0.100
18.500	-22.265	0.100
18.600	-20.115	0.100
18.700	-18.390	0.100
18.800	-23.569	0.100
18.900	-28.912	0.100
19.000	-20.497	0.100
19.100	-14.898	0.100
19.200	-11.536	0.100
19.300	-20.975	0.100
19.400	-18.718	0.100
19.500	-19.747	0.100
19.600	-20.784	0.100
19.700	-20.325	0.100
19.800	-14.457	0.100
19.900	-22.219	0.100
20.000	-19.113	0.100
20.100	-17.611	0.100
20.200	-23.122	0.100
20.300	-22.777	0.100
20.400	-11.163	0.100
20.500	-20.255	0.100
20.600	-25.394	0.100
20.700	-20.598	0.100
20.800	-28.838	0.100
20.900	-28.452	0.100
21.000	-16.084	0.100
21.100	-16.376	0.100
21.200	-23.947	0.100
21.300	-23.293	0.100
21.400	-21.584	0.100
21.500	-18.136	0.100
21.600	-17.808	0.100
21.700	-11.905	0.100
21.800	-19.564	0.100
21.900	-31.540	0.100
22.000	-21.659	0.100
22.100	-23.445	0.100
22.200	-13.990	0.100
22.300	-13.948	0.100
22.400	-22.937	0.100
22.500	-19.897	0.100
22.600	-20.737	0.100
22.700	-20.704	0.100
22.800	-19.605	0.100
22.900	-21.667	0.100
23.000	-20.422	0.100
23.100	-16.492	0.100
23.200	-15.239	0.100
23.300	-9.037	0.100
23.400	-18.490	0.100
23.500	-16.923	0.100
23.600	-27.360	0.100
23.700	-28.920	0.100
23.800	-22.912	0.100
23.900	-17.182	0.100
24.000	-17.027	0.100
24.100	-15.170	0.100
24.200	-13.167	0.100
24.300	-14.571	0.100
24.400	-17.821	0.100
24.500	-6.619	0.100
24.600	-21.138	0.100
24.700	-26.541	0.100
24.800	-26.869	0.100
24.900	-19.449	0.100
25.000	-23.044	0.100
25.100	-27.482	0.100
25.200	-15.826	0.100
25.300	-14.595	0.100
25.400	-16.245	0.100
25.500	-18.903	0.100
25.600	-26.119	0.100
25.700	-23.995	0.100
25.800	-16.130	0.100
25.900	-9.389	0.100
26.000	-9.210	0.100
26.100	-21.248	0.100
26.200	-12.631	0.100
26.300	-22.323	0.100
26.400	-27.632	0.100
26.500	-21.147	0.100
26.600	-11.614	0.100
26.700	-20.896	0.100
26.800	-23.462	0.100
26.900	-16.701	0.100
27.000	-16.921	0.100
27.100	-14.183	0.100
27.200	-23.131	0.100
27.300	-25.143	0.100
27.400	-15.934	0.100
27.500	-23.249	0.100
27.600	-22.846	0.100
27.700	-19.287	0.100
27.800	-19.462	0.100
27.900	-18.930	0.100
28.000	-24.725	0.100
28.100	-22.431	0.100
28.200	-26.468	0.100
28.300	-22.047	0.100
28.400	-15.994	0.100
28.500	-10.317	0.100
28.600	-17.923	0.100
28.700	-13.672	0.100
28.800	-13.147	0.100
28.900	-31.316	0.100
29.000	-22.395	0.100
29.100	-25.914	0.100
29.200	-23.621	0.100
29.300	-18.493	0.100
29.400	-17.950	0.100
29.500	-19.204	0.100
29.600	-16.303	0.100
29.700	-21.789	0.100
29.800	-20.779	0.100
29.900	-17.434	0.100
30.000	-22.215	0.100
30.100	-12.353	0.100
30.200	-6.156	0.100
30.300	-9.043	0.100
30.400	-24.266	0.100
30.500	-19.798	0.100
30.600	-15.037	0.100
30.700	-5.605	0.100
30.800	-6.841	0.100
30.900	-5.334	0.100
31.000	-11.001	0.100
31.100	3.480	0.100
31.200	18.361	0.100
31.300	11.687	0.100
31.400	10.669	0.100
31.500	12.276	0.100
31.600	16.181	0.100
31.700	10.546	0.100
31.800	15.286	0.100
31.900	14.231	0.100
32.000	20.059	0.100
32.100	23.252	0.100
32.200	25.217	0.100
32.300	21.368	0.100
32.400	21.380	0.100
32.500	21.653	0.100
32.600	28.350	0.100
32.700	23.924	0.100
32.800	21.877	0.100
32.900	19.419	0.100
33.000	37.235	0.100
33.100	28.799	0.100
33.200	34.939	0.100
33.300	28.816	0.100
33.400	29.417	0.100
33.500	22.067	0.100
33.600	26.319	0.100
33.700	12.676	0.100
33.800	25.369	0.100
33.900	31.089	0.100
34.000	26.704	0.100
34.100	29.339	0.100
34.200	32.027	0.100
34.300	29.743	0.100
34.400	32.735	0.100
34.500	25.954	0.100
34.600	20.941	0.100
34.700	20.979	0.100
34.800	22.428	0.100
34.900	26.685	0.100
35.000	25.093	0.100
35.100	24.974	0.100
35.200	20.920	0.100
35.300	28.279	0.100
35.400	18.597	0.100
35.500	21.366	0.100
35.600	18.151	0.100
35.700	18.380	0.100
35.800	23.365	0.100
35.900	23.453	0.100
36.000	18.401	0.100
36.100	13.610	0.100
36.200	13.975	0.100
36.300	25.501	0.100
36.400	26.004	0.100
36.500	18.038	0.100
36.600	19.867	0.100
36.700	21.100	0.100
36.800	19.439	0.100
36.900	24.228	0.100
37.000	22.553	0.100
37.100	19.145	0.100
37.200	18.651	0.100
37.300	14.923	0.100
37.400	17.064	0.100
37.500	17.201	0.100
37.600	17.846	0.100
37.700	15.960	0.100
37.800	15.065	0.100
37.900	21.445	0.100
38.000	22.365	0.100
38.100	22.734	0.100
38.200	11.919	0.100
38.300	13.332	0.100
38.400	18.173	0.100
38.500	14.670	0.100
38.600	24.713	0.100
38.700	19.814	0.100
38.800	20.648	0.100
38.900	21.359	0.100
39.000	24.731	0.100
39.100	20.397	0.100
39.200	17.133	0.100
39.300	23.228	0.100
39.400	9.556	0.100
39.500	15.752	0.100
39.600	19.684	0.100
39.700	23.315	0.100
39.800	18.039	0.100
39.900	14.572	0.100
40.000	14.528	0.100
40.100	20.490	0.100
40.200	11.928	0.100
40.300	21.550	0.100
40.400	29.901	0.100
40.500	20.535	0.100
40.600	20.315	0.100
40.700	33.500	0.100
40.800	16.764	0.100
40.900	17.892	0.100
41.000	17.826	0.100
41.100	17.551	0.100
41.200	21.641	0.100
41.300	12.910	0.100
41.400	28.193	0.100
41.500	13.035	0.100
41.600	18.647	0.100
41.700	22.682	0.100
41.800	29.993	0.100
41.900	16.422	0.100
42.000	27.071	0.100
42.100	26.492	0.100
42.200	19.632	0.100
42.300	18.574	0.100
42.400	25.140	0.100
42.500	18.397	0.100
42.600	20.575	0.100
42.700	29.363	0.100
42.800	25.436	0.100
42.900	19.328	0.100
43.000	22.587	0.100
43.100	22.182	0.100
43.200	28.999	0.100
43.300	24.129	0.100
43.400	22.629	0.100
43.500	19.006	0.100
43.600	17.210	0.100
43.700	18.221	0.100
43.800	24.942	0.100
43.900	23.920	0.100
44.000	28.169	0.100
44.100	15.399	0.100
44.200	26.738	0.100
44.300	26.259	0.100
44.400	41.596	0.100
44.500	21.555	0.100
44.600	22.173	0.100
44.700	28.521	0.100
44.800	31.618	0.100
44.900	25.444	0.100
45.000	27.151	0.100
45.100	31.013	0.100
45.200	25.107	0.100
45.300	29.729	0.100
45.400	25.489	0.100
45.500	34.432	0.100
45.600	29.449	0.100
45.700	20.776	0.100
45.800	30.983	0.100
45.900	24.629	0.100
46.000	27.038	0.100
46.100	29.380	0.100
46.200	33.807	0.100
46.300	26.950	0.100
46.400	33.497	0.100
46.500	25.377	0.100
46.600	22.016	0.100
46.700	31.824	0.100
46.800	33.753	0.100
46.900	25.750	0.100
47.000	30.214	0.100
47.100	26.269	0.100
47.200	34.248	0.100
47.300	25.500	0.100
47.400	34.349	0.100
47.500	23.557	0.100
47.600	33.745	0.100
47.700	36.180	0.100
47.800	33.332	0.100
47.900	33.737	0.100
48.000	29.183	0.100
48.100	35.127	0.100
48.200	32.101	0.100
48.300	38.299	0.100
48.400	35.993	0.100
48.500	36.794	0.100
48.600	41.029	0.100
48.700	32.077	0.100
48.800	28.863	0.100
48.900	31.574	0.100
49.000	43.837	0.100
49.100	37.102	0.100
49.200	38.799	0.100
49.300	33.019	0.100
49.400	36.233	0.100
49.500	40.085	0.100
49.600	30.619	0.100
49.700	29.231	0.100
49.800	40.514	0.100
49.900	38.781	0.100
50.000	39.060	0.100
50.100	42.962	0.100
50.200	39.068	0.100
50.300	39.357	0.100
50.400	30.261	0.100
50.500	36.144	0.100
50.600	44.202	0.100
50.700	31.012	0.100
50.800	38.360	0.100
50.900	39.109	0.100
51.000	42.007	0.100
51.100	39.876	0.100
51.200	33.376	0.100
51.300	38.575	0.100
51.400	32.714	0.100
51.500	44.714	0.100
51.600	44.199	0.100
51.700	42.553	0.100
51.800	45.445	0.100
51.900	41.955	0.100
52.000	42.842	0.100
52.100	46.091	0.100
52.200	33.732	0.100
52.300	37.066	0.100
52.400	30.431	0.100
52.500	50.460	0.100
52.600	37.314	0.100
52.700	44.309	0.100
52.800	41.255	0.100
52.900	38.799	0.100
53.000	48.952	0.100
53.100	41.880	0.100
53.200	37.571	0.100
53.300	43.224	0.100
53.400	40.266	0.100
53.500	41.138	0.100
53.600	49.332	0.100
53.700	53.869	0.100
53.800	44.103	0.100
53.900	45.671	0.100
54.000	46.931	0.100
54.100	45.031	0.100
54.200	50.679	0.100
54.300	46.917	0.100
54.400	53.613	0.100
54.500	42.048	0.100
54.600	43.189	0.100
54.700	47.840	0.100
54.800	38.527	0.100
54.900	41.374	0.100
55.000	43.291	0.100
55.100	53.631	0.100
55.200	50.967	0.100
55.300	55.159	0.100
55.400	49.197	0.100
55.500	41.952	0.100
55.600	46.307	0.100
55.700	47.973	0.100
55.800	40.935	0.100
55.900	59.288	0.100
56.000	50.503	0.100
56.100	42.667	0.100
56.200	52.150	0.100
56.300	48.947	0.100
56.400	47.261	0.100
56.500	57.059	0.100
56.600	46.548	0.100
56.700	47.308	0.100
56.800	47.081	0.100
56.900	48.543	0.100
57.000	50.533	0.100
57.100	51.216	0.100
57.200	52.264	0.100
57.300	42.959	0.100
57.400	42.547	0.100
57.500	50.617	0.100
57.600	53.713	0.100
57.700	50.760	0.100
57.800	49.776	0.100
57.900	54.457	0.100
58.000	53.440	0.100
58.100	51.126	0.100
58.200	62.609	0.100
58.300	51.877	0.100
58.400	52.279	0.100
58.500	48.166	0.100
58.600	48.539	0.100
58.700	52.124	0.100
58.800	58.567	0.100
58.900	53.578	0.100
59.000	61.524	0.100
59.100	52.282	0.100
59.200	47.331	0.100
59.300	55.885	0.100
59.400	54.578	0.100
59.500	63.374	0.100
59.600	54.433	0.100
59.700	57.446	0.100
59.800	54.180	0.100
59.900	58.819	0.100
60.000	58.570	0.100
60.100	52.639	0.100
60.200	52.672	0.100
60.300	54.170	0.100
60.400	66.775	0.100
60.500	54.034	0.100
60.600	48.804	0.100
60.700	57.415	0.100
60.800	64.363	0.100
60.900	67.359	0.100
61.000	57.046	0.100
61.100	53.538	0.100
61.200	55.433	0.100
61.300	68.433	0.100
61.400	56.695	0.100
61.500	65.253	0.100
61.600	52.844	0.100
61.700	56.363	0.100
61.800	66.602	0.100
61.900	57.060	0.100
62.000	56.702	0.100
62.100	68.180	0.100
62.200	67.230	0.100
62.300	62.100	0.100
62.400	75.051	0.100
62.500	69.225	0.100
62.600	60.036	0.100
62.700	62.893	0.100
62.800	54.015	0.100
62.900	58.780	0.100
63.000	64.549	0.100
63.100	67.376	0.100
63.200	69.789	0.100
63.300	62.738	0.100
63.400	59.175	0.100
63.500	62.055	0.100
63.600	65.872	0.100
63.700	64.612	0.100
63.800	71.480	0.100
63.900	64.102	0.100
64.000	61.603	0.100
64.100	64.255	0.100
64.200	58.000	0.100
64.300	61.874	0.100
64.400	57.306	0.100
64.500	71.168	0.100
64.600	56.228	0.100
64.700	66.710	0.100
64.800	68.510	0.100
64.900	58.478	0.100
65.000	73.624	0.100
65.100	72.285	0.100
65.200	64.847	0.100
65.300	67.824	0.100
65.400	62.379	0.100
65.500	66.443	0.100
65.600	66.747	0.100
65.700	70.506	0.100
65.800	72.654	0.100
65.900	66.712	0.100
66.000	68.596	0.100
66.100	65.717	0.100
66.200	66.869	0.100
66.300	61.514	0.100
66.400	66.040	0.100
66.500	65.276	0.100
66.600	66.397	0.100
66.700	67.946	0.100
66.800	63.581	0.100
66.900	68.661	0.100
67.000	65.134	0.100
67.100	67.308	0.100
67.200	72.066	0.100
67.300	63.588	0.100
67.400	69.968	0.100
67.500	65.015	0.100
67.600	64.172	0.100
67.700	67.178	0.100
67.800	71.015	0.100
67.900	76.582	0.100
68.000	68.353	0.100
68.100	57.830	0.100
68.200	75.722	0.100
68.300	72.928	0.100
68.400	68.867	0.100
68.500	68.808	0.100
68.600	73.404	0.100
68.700	69.561	0.100
68.800	67.344	0.100
68.900	58.476	0.100
69.000	56.512	0.100
69.100	61.249	0.100
69.200	64.251	0.100
69.300	72.045	0.100
69.400	62.159	0.100
69.500	66.441	0.100
69.600	59.468	0.100
69.700	72.041	0.100
69.800	82.103	0.100
69.900	61.282	0.100
70.000	69.548	0.100
70.100	66.276	0.100
70.200	63.906	0.100
70.300	67.076	0.100
70.400	64.533	0.100
70.500	62.537	0.100
70.600	61.464	0.100
70.700	68.802	0.100
70.800	61.378	0.100
70.900	70.736	0.100
71.000	60.833	0.100
71.100	67.887	0.100
71.200	63.447	0.100
71.300	67.748	0.100
71.400	57.603	0.100
71.500	64.594	0.100
71.600	71.260	0.100
71.700	61.427	0.100
71.800	63.715	0.100
71.900	69.425	0.100
72.000	69.165	0.100
72.100	65.483	0.100
72.200	58.092	0.100
72.300	61.324	0.100
72.400	60.483	0.100
72.500	66.517	0.100
72.600	65.286	0.100
72.700	71.692	0.100
72.800	63.047	0.100
72.900	71.979	0.100
73.000	62.278	0.100
73.100	62.029	0.100
73.200	65.090	0.100
73.300	64.184	0.100
73.400	66.078	0.100
73.500	79.731	0.100
73.600	64.883	0.100
73.700	67.366	0.100
73.800	66.229	0.100
73.900	60.274	0.100
74.000	60.162	0.100
74.100	63.114	0.100
74.200	75.747	0.100
74.300	66.688	0.100
74.400	64.002	0.100
74.500	57.176	0.100
74.600	60.970	0.100
74.700	64.860	0.100
74.800	66.622	0.100
74.900	64.936	0.100
75.000	70.499	0.100
75.100	58.748	0.100
75.200	54.491	0.100
75.300	59.587	0.100
75.400	63.966	0.100
75.500	62.057	0.100
75.600	64.786	0.100
75.700	61.517	0.100
75.800	66.298	0.100
75.900	62.852	0.100
76.000	62.395	0.100
76.100	67.569	0.100
76.200	67.984	0.100
76.300	71.332	0.100
76.400	53.044	0.100
76.500	64.495	0.100
76.600	66.944	0.100
76.700	71.841	0.100
76.800	58.485	0.100
76.900	68.063	0.100
77.000	57.059	0.100
77.100	57.795	0.100
77.200	56.616	0.100
77.300	61.356	0.100
77.400	67.503	0.100
77.500	60.242	0.100
77.600	65.484	0.100
77.700	71.081	0.100
77.800	60.385	0.100
77.900	69.259	0.100
78.000	63.685	0.100
78.100	58.557	0.100
78.200	61.240	0.100
78.300	55.917	0.100
78.400	60.106	0.100
78.500	63.985	0.100
78.600	61.975	0.100
78.700	67.147	0.100
78.800	56.823	0.100
78.900	69.112	0.100
79.000	58.929	0.100
79.100	54.773	0.100
79.200	66.664	0.100
79.300	69.893	0.100
79.400	63.926	0.100
79.500	62.834	0.100
79.600	65.687	0.100
79.700	67.079	0.100
79.800	70.277	0.100
79.900	56.280	0.100
80.000	60.634	0.100
80.100	66.741	0.100
80.200	62.882	0.100
80.300	67.097	0.100
80.400	55.237	0.100
80.500	56.041	0.100
80.600	62.613	0.100
80.700	58.093	0.100
80.800	54.230	0.100
80.900	59.700	0.100
81.000	61.732	0.100
81.100	69.203	0.100
81.200	59.505	0.100
81.300	54.490	0.100
81.400	63.758	0.100
81.500	64.443	0.100
81.600	62.371	0.100
81.700	54.850	0.100
81.800	64.483	0.100
81.900	62.943	0.100
82.000	57.132	0.100
82.100	58.954	0.100
82.200	59.851	0.100
82.300	61.227	0.100
82.400	64.587	0.100
82.500	60.681	0.100
82.600	73.505	0.100
82.700	62.510	0.100
82.800	65.243	0.100
82.900	60.211	0.100
83.000	56.551	0.100
83.100	65.201	0.100
83.200	66.444	0.100
83.300	65.102	0.100
83.400	73.692	0.100
83.500	58.182	0.100
83.600	54.931	0.100
83.700	55.955	0.100
83.800	58.026	0.100
83.900	55.312	0.100
84.000	68.977	0.100
84.100	58.638	0.100
84.200	55.934	0.100
84.300	56.334	0.100
84.400	61.134	0.100
84.500	62.859	0.100
84.600	72.698	0.100
84.700	61.883	0.100
84.800	68.090	0.100
84.900	59.617	0.100
85.000	56.043	0.100
85.100	57.861	0.100
85.200	74.074	0.100
85.300	70.827	0.100
85.400	68.568	0.100
85.500	64.431	0.100
85.600	59.013	0.100
85.700	63.184	0.100
85.800	63.834	0.100
85.900	65.737	0.100
86.000	56.460	0.100
86.100	65.670	0.100
86.200	58.930	0.100
86.300	64.081	0.100
86.400	63.020	0.100
86.500	67.819	0.100
86.600	69.580	0.100
86.700	64.625	0.100
86.800	63.861	0.100
86.900	70.450	0.100
87.000	58.354	0.100
87.100	63.015	0.100
87.200	66.656	0.100
87.300	58.359	0.100
87.400	61.590	0.100
87.500	61.143	0.100
87.600	63.979	0.100
87.700	70.713	0.100
87.800	60.857	0.100
87.900	59.751	0.100
88.000	61.617	0.100
88.100	65.870	0.100
88.200	57.792	0.100
88.300	63.596	0.100
88.400	59.666	0.100
88.500	54.685	0.100
88.600	69.049	0.100
88.700	63.352	0.100
88.800	67.840	0.100
88.900	59.398	0.100
89.000	64.173	0.100
89.100	61.857	0.100
89.200	66.097	0.100
89.300	65.384	0.100
89.400	67.643	0.100
89.500	55.410	0.100
89.600	60.723	0.100
89.700	57.724	0.100
89.800	60.855	0.100
89.900	58.677	0.100
90.000	58.524	0.100
90.100	57.667	0.100
90.200	57.760	0.100
90.300	62.730	0.100
90.400	68.107	0.100
90.500	57.573	0.100
90.600	62.117	0.100
90.700	52.086	0.100
90.800	50.728	0.100
90.900	48.073	0.100
91.000	45.907	0.100
91.100	48.203	0.100
91.200	41.766	0.100
91.300	32.148	0.100
91.400	43.659	0.100
91.500	27.719	0.100
91.600	38.483	0.100
91.700	38.328	0.100
91.800	28.211	0.100
91.900	16.973	0.100
92.000	17.177	0.100
92.100	22.104	0.100
92.200	19.504	0.100
92.300	15.675	0.100
92.400	20.685	0.100
92.500	4.657	0.100
92.600	4.822	0.100
92.700	13.755	0.100
92.800	8.453	0.100
92.900	7.966	0.100
93.000	9.433	0.100
93.100	12.790	0.100
93.200	20.017	0.100
93.300	10.443	0.100
93.400	10.104	0.100
93.500	8.663	0.100
93.600	4.671	0.100
93.700	5.789	0.100
93.800	-4.721	0.100
93.900	3.697	0.100
94.000	-1.931	0.100
94.100	3.556	0.100
94.200	-3.949	0.100
94.300	4.956	0.100
94.400	0.818	0.100
94.500	-7.149	0.100
94.600	-0.088	0.100
94.700	-9.984	0.100
94.800	-1.264	0.100
94.900	-5.160	0.100
95.000	6.299	0.100
95.100	-0.882	0.100
95.200	-5.807	0.100
95.300	1.559	0.100
95.400	-2.720	0.100
95.500	-1.644	0.100
95.600	-7.875	0.100
95.700	-5.662	0.100
95.800	-6.923	0.100
95.900	-10.252	0.100
96.000	3.543	0.100
96.100	-5.535	0.100
96.200	-0.140	0.100
96.300	-4.565	0.100
96.400	-10.302	0.100
96.500	-14.020	0.100
96.600	-1.380	0.100
96.700	1.173	0.100
96.800	-5.742	0.100
96.900	0.280	0.100
97.000	-1.665	0.100
97.100	-3.107	0.100
97.200	-5.090	0.100
97.300	-1.202	0.100
97.400	-6.715	0.100
97.500	-2.725	0.100
97.600	-7.760	0.100
97.700	-3.053	0.100
97.800	-2.319	0.100
97.900	-7.012	0.100
98.000	0.879	0.100
98.100	-0.378	0.100
98.200	-4.388	0.100
98.300	-9.195	0.100
98.400	-2.402	0.100
98.500	-2.738	0.100
98.600	-5.090	0.100
98.700	-13.183	0.100
98.800	-2.726	0.100
98.900	-2.043	0.100
99.000	-1.402	0.100
99.100	-2.641	0.100
99.200	4.343	0.100
99.300	-8.087	0.100
99.400	-1.194	0.100
99.500	-7.531	0.100
99.600	-11.418	0.100
99.700	-5.918	0.100
99.800	0.592	0.100
99.900	-3.258	0.100
100.000	-5.130	0.100
100.100	-7.192	0.100
100.200	1.682	0.100
100.300	-4.622	0.100
100.400	-8.176	0.100
100.500	-5.524	0.100
100.600	-7.021	0.100
100.700	-7.728	0.100
100.800	-4.926	0.100
100.900	-8.967	0.100
101.000	-1.700	0.100
101.100	-8.872	0.100
101.200	-14.435	0.100
101.300	-1.627	0.100
101.400	-7.656	0.100
101.500	-0.805	0.100
101.600	-3.006	0.100
101.700	-8.993	0.100
101.800	-5.231	0.100
101.900	-10.402	0.100
102.000	-2.855	0.100
102.100	-6.829	0.100
102.200	-3.947	0.100
102.300	-2.512	0.100
102.400	-6.236	0.100
102.500	-7.084	0.100
102.600	-11.589	0.100
102.700	-4.507	0.100
102.800	-3.224	0.100
102.900	-9.611	0.100
103.000	-9.972	0.100
103.100	-7.701	0.100
103.200	-6.799	0.100
103.300	-12.287	0.100
103.400	-10.167	0.100
103.500	-9.839	0.100
103.600	-8.071	0.100
103.700	-3.901	0.100
103.800	-4.440	0.100
103.900	-6.167	0.100
104.000	-5.349	0.100
104.100	-21.336	0.100
104.200	-6.423	0.100
104.300	-15.699	0.100
104.400	-7.825	0.100
104.500	-13.163	0.100
104.600	-7.389	0.100
104.700	-2.684	0.100
104.800	-5.440	0.100
104.900	-12.453	0.100
105.000	-12.497	0.100
105.100	-21.614	0.100
105.200	-9.140	0.100
105.300	-7.979	0.100
105.400	-9.322	0.100
105.500	0.584	0.100
105.600	-17.159	0.100
105.700	-10.549	0.100
105.800	-10.677	0.100
105.900	-14.186	0.100
106.000	-19.480	0.100
106.100	-16.196	0.100
106.200	-12.899	0.100
106.300	-18.817	0.100
106.400	-8.674	0.100
106.500	-10.413	0.100
106.600	-14.606	0.100
106.700	-6.946	0.100
106.800	-10.509	0.100
106.900	-11.397	0.100
107.000	-12.733	0.100
107.100	-7.220	0.100
107.200	-10.738	0.100
107.300	-13.484	0.100
107.400	-13.215	0.100
107.500	-24.642	0.100
107.600	-6.532	0.100
107.700	-16.691	0.100
107.800	-13.566	0.100
107.900	-5.964	0.100
108.000	-13.453	0.100
108.100	-25.525	0.100
108.200	-13.771	0.100
108.300	-17.643	0.100
108.400	-5.322	0.100
108.500	-2.180	0.100
108.600	-16.463	0.100
108.700	-19.973	0.100
108.800	-16.695	0.100
108.900	-18.336	0.100
109.000	-10.300	0.100
109.100	-12.676	0.100
109.200	-10.799	0.100
109.300	-18.355	0.100
109.400	-19.108	0.100
109.500	-13.509	0.100
109.600	-18.191	0.100
109.700	-14.870	0.100
109.800	-14.245	0.100
109.900	-8.305	0.100
110.000	-23.451	0.100
110.100	-16.615	0.100
110.200	-12.193	0.100
110.300	-14.943	0.100
110.400	-19.352	0.100
110.500	-21.775	0.100
110.600	-18.200	0.100
110.700	-15.036	0.100
110.800	-5.598	0.100
110.900	-16.131	0.100
111.000	-18.073	0.100
111.100	-19.404	0.100
111.200	-19.929	0.100
111.300	-10.738	0.100
111.400	-9.977	0.100
111.500	-13.360	0.100
111.600	-20.998	0.100
111.700	-17.026	0.100
111.800	-19.779	0.100
111.900	-13.717	0.100
112.000	-24.685	0.100
112.100	-12.819	0.100
112.200	-13.983	0.100
112.300	-14.498	0.100
112.400	-18.608	0.100
112.500	-13.063	0.100
112.600	-19.403	0.100
112.700	-19.959	0.100
112.800	-20.108	0.100
112.900	-14.653	0.100
113.000	-20.452	0.100
113.100	-8.330	0.100
113.200	-17.871	0.100
113.300	-21.450	0.100
113.400	-19.447	0.100
113.500	-9.581	0.100
113.600	-12.642	0.100
113.700	-17.856	0.100
113.800	-20.975	0.100
113.900	-24.219	0.100
114.000	-17.841	0.100
114.100	-15.533	0.100
114.200	-21.244	0.100
114.300	-16.458	0.100
114.400	-21.710	0.100
114.500	-24.300	0.100
114.600	-14.791	0.100
114.700	-13.639	0.100
114.800	-12.949	0.100
114.900	-20.420	0.100
115.000	-15.757	0.100
115.100	-22.439	0.100
115.200	-18.229	0.100
115.300	-15.095	0.100
115.400	-23.386	0.100
115.500	-24.935	0.100
115.600	-23.622	0.100
115.700	-13.108	0.100
115.800	-16.383	0.100
115.900	-25.689	0.100
116.000	-20.047	0.100
116.100	-15.724	0.100
116.200	-28.211	0.100
116.300	-23.990	0.100
116.400	-12.801	0.100
116.500	-16.464	0.100
116.600	-15.959	0.100
116.700	-19.634	0.100
116.800	-20.069	0.100
116.900	-15.780	0.100
117.000	-21.717	0.100
117.100	-19.943	0.100
117.200	-15.363	0.100
117.300	-28.499	0.100
117.400	-16.561	0.100
117.500	-25.492	0.100
117.600	-33.306	0.100
117.700	-22.158	0.100
117.800	-29.563	0.100
117.900	-18.288	0.100
118.000	-18.964	0.100
118.100	-12.469	0.100
118.200	-13.610	0.100
118.300	-15.864	0.100
118.400	-24.511	0.100
118.500	-27.660	0.100
118.600	-27.060	0.100
118.700	-22.559	0.100
118.800	-18.126	0.100
118.900	-17.104	0.100
119.000	-19.318	0.100
119.100	-17.919	0.100
119.200	-21.922	0.100
119.300	-17.383	0.100
119.400	-27.493	0.100
119.500	-19.840	0.100
119.600	-16.191	0.100
119.700	-21.236	0.100
119.800	-24.748	0.100
119.900	-20.834	0.100
120.000	-16.582	0.100
120.100	-28.679	0.100
120.200	-30.255	0.100
120.300	-24.405	0.100
120.400	-26.740	0.100
120.500	-20.419	0.100
120.600	-27.882	0.100
120.700	-20.011	0.100
120.800	-19.177	0.100
120.900	-33.649	0.100
121.000	-27.068	0.100
121.100	-17.041	0.100
121.200	-22.190	0.100
121.300	-21.906	0.100
121.400	-17.058	0.100
121.500	-20.664	0.100
121.600	-23.427	0.100
121.700	-21.902	0.100
121.800	-28.881	0.100
121.900	-32.499	0.100
122.000	-24.990	0.100
122.100	-27.452	0.100
122.200	-27.966	0.100
122.300	-20.190	0.100
122.400	-17.064	0.100
122.500	-18.424	0.100
122.600	-22.052	0.100
122.700	-34.461	0.100
122.800	-26.745	0.100
122.900	-16.446	0.100
123.000	-25.997	0.100
123.100	-18.027	0.100
123.200	-25.180	0.100
123.300	-29.914	0.100
123.400	-26.392	0.100
123.500	-27.718	0.100
123.600	-27.069	0.100
123.700	-26.432	0.100
123.800	-25.806	0.100
123.900	-30.364	0.100
124.000	-29.036	0.100
124.100	-17.476	0.100
124.200	-26.334	0.100
124.300	-26.368	0.100
124.400	-25.809	0.100
124.500	-24.706	0.100
124.600	-24.114	0.100
124.700	-21.222	0.100
124.800	-26.248	0.100
124.900	-27.598	0.100
125.000	-24.617	0.100
125.100	-36.217	0.100
125.200	-25.596	0.100
125.300	-20.625	0.100
125.400	-24.356	0.100
125.500	-29.669	0.100
125.600	-47.119	0.100
125.700	-32.665	0.100
125.800	-31.317	0.100
125.900	-27.275	0.100
126.000	-17.737	0.100
126.100	-25.571	0.100
126.200	-21.999	0.100
126.300	-27.910	0.100
126.400	-39.256	0.100
126.500	-24.328	0.100
126.600	-23.935	0.100
126.700	-30.677	0.100
126.800	-34.330	0.100
126.900	-27.763	0.100
127.000	-25.385	0.100
127.100	-23.470	0.100
127.200	-32.923	0.100
127.300	-28.046	0.100
127.400	-33.668	0.100
127.500	-34.427	0.100
127.600	-28.489	0.100
127.700	-26.027	0.100
127.800	-24.781	0.100
127.900	-27.794	0.100
128.000	-30.329	0.100
128.100	-36.297	0.100
128.200	-28.784	0.100
128.300	-23.588	0.100
128.400	-27.875	0.100
128.500	-31.115	0.100
128.600	-26.189	0.100
128.700	-28.904	0.100
128.800	-32.893	0.100
128.900	-34.871	0.100
129.000	-26.632	0.100
129.100	-31.934	0.100
129.200	-22.204	0.100
129.300	-27.493	0.100
129.400	-31.267	0.100
129.500	-25.715	0.100
129.600	-27.171	0.100
129.700	-27.300	0.100
129.800	-42.893	0.100
129.900	-41.034	0.100
130.000	-36.999	0.100
130.100	-30.252	0.100
130.200	-24.133	0.100
130.300	-27.736	0.100
130.400	-32.534	0.100
130.500	-26.116	0.100
130.600	-33.008	0.100
130.700	-36.315	0.100
130.800	-32.950	0.100
130.900	-42.324	0.100
131.000	-25.615	0.100
131.100	-29.967	0.100
131.200	-37.511	0.100
131.300	-40.974	0.100
131.400	-23.578	0.100
131.500	-28.894	0.100
131.600	-26.790	0.100
131.700	-33.904	0.100
131.800	-29.595	0.100
131.900	-27.231	0.100
132.000	-30.016	0.100
132.100	-24.127	0.100
132.200	-30.297	0.100
132.300	-30.175	0.100
132.400	-40.199	0.100
132.500	-41.676	0.100
132.600	-22.696	0.100
132.700	-22.217	0.100
132.800	-33.392	0.100
132.900	-36.473	0.100
133.000	-33.972	0.100
133.100	-42.875	0.100
133.200	-39.500	0.100
133.300	-30.728	0.100
133.400	-35.258	0.100
133.500	-24.365	0.100
133.600	-37.364	0.100
133.700	-41.323	0.100
133.800	-27.430	0.100
133.900	-24.916	0.100
134.000	-30.533	0.100
134.100	-35.502	0.100
134.200	-33.105	0.100
134.300	-28.626	0.100
134.400	-30.967	0.100
134.500	-36.858	0.100
134.600	-33.456	0.100
134.700	-35.724	0.100
134.800	-32.680	0.100
134.900	-38.188	0.100
135.000	-28.046	0.100
135.100	-24.930	0.100
135.200	-34.662	0.100
135.300	-28.108	0.100
135.400	-37.192	0.100
135.500	-28.105	0.100
135.600	-36.247	0.100
135.700	-33.247	0.100
135.800	-28.403	0.100
135.900	-26.494	0.100
136.000	-26.656	0.100
136.100	-38.228	0.100
136.200	-29.105	0.100
136.300	-31.021	0.100
136.400	-26.768	0.100
136.500	-27.897	0.100
136.600	-40.752	0.100
136.700	-37.881	0.100
136.800	-28.730	0.100
136.900	-26.978	0.100
137.000	-41.226	0.100
137.100	-25.078	0.100
137.200	-25.412	0.100
137.300	-30.891	0.100
137.400	-25.294	0.100
137.500	-34.412	0.100
137.600	-30.308	0.100
137.700	-32.517	0.100
137.800	-41.516	0.100
137.900	-39.723	0.100
138.000	-31.911	0.100
138.100	-24.598	0.100
138.200	-35.585	0.100
138.300	-30.030	0.100
138.400	-22.201	0.100
138.500	-17.606	0.100
138.600	-30.926	0.101
138.700	-35.041	0.101
138.800	-31.909	0.100
138.900	-37.892	0.100
139.000	-30.491	0.100
139.100	-29.410	0.101
139.200	-29.309	0.100
139.300	-25.501	0.101
139.400	-26.470	0.101
139.500	-43.980	0.100
139.600	-33.984	0.100
139.700	-30.185	0.101
139.800	-25.328	0.101
139.900	-33.507	0.101
140.000	-29.162	0.101
140.100	-31.470	0.101
140.200	-27.622	0.101
140.300	-34.741	0.101
140.400	-30.835	0.101
140.500	-26.005	0.101
140.600	-36.620	0.101
140.700	-36.058	0.101
140.800	-28.452	0.101
140.900	-28.381	0.101
141.000	-22.985	0.101
141.100	-35.741	0.101
141.200	-28.437	0.101
141.300	-30.583	0.101
141.400	-27.102	0.101
141.500	-29.672	0.101
141.600	-35.660	0.101
141.700	-31.279	0.101
141.800	-23.429	0.101
141.900	-29.095	0.101
142.000	-36.904	0.101
142.100	-26.139	0.101
142.200	-34.635	0.101
142.300	-34.044	0.101
142.400	-28.712	0.101
142.500	-24.605	0.101
142.600	-28.761	0.101
142.700	-22.908	0.101
142.800	-26.724	0.101
142.900	-24.828	0.101
143.000	-27.575	0.101
143.100	-36.494	0.101
143.200	-36.971	0.101
143.300	-26.932	0.101
143.400	-28.402	0.101
143.500	-37.289	0.101
143.600	-30.488	0.101
143.700	-38.086	0.101
143.800	-25.795	0.101
143.900	-33.473	0.101
144.000	-23.000	0.101
144.100	-32.039	0.101
144.200	-29.390	0.101
144.300	-30.588	0.101
144.400	-23.620	0.101
144.500	-31.864	0.101
144.600	-39.627	0.101
144.700	-28.957	0.101
144.800	-28.362	0.101
144.900	-22.510	0.101
145.000	-33.360	0.101
145.100	-26.430	0.101
145.200	-24.730	0.101
145.300	-36.036	0.101
145.400	-26.758	0.101
145.500	-19.871	0.101
145.600	-30.031	0.101
145.700	-37.599	0.101
145.800	-35.532	0.101
145.900	-28.129	0.101
146.000	-31.298	0.101
146.100	-28.740	0.101
146.200	-28.398	0.101
146.300	-24.825	0.101
146.400	-23.520	0.101
146.500	-24.044	0.101
146.600	-27.048	0.101
146.700	-23.836	0.101
146.800	-32.862	0.101
146.900	-25.942	0.101
147.000	-22.683	0.101
147.100	-32.781	0.101
147.200	-23.354	0.101
147.300	-36.004	0.101
147.400	-38.199	0.101
147.500	-24.870	0.101
147.600	-19.375	0.101
147.700	-31.478	0.101
147.800	-27.505	0.101
147.900	-31.461	0.101
148.000	-18.123	0.101
148.100	-30.356	0.101
148.200	-37.587	0.101
148.300	-28.680	0.101
148.400	-34.271	0.101
148.500	-25.814	0.101
148.600	-27.579	0.101
148.700	-32.442	0.101
148.800	-29.259	0.101
148.900	-34.183	0.101
149.000	-30.887	0.101
149.100	-24.670	0.101
149.200	-34.346	0.101
149.300	-25.428	0.101
149.400	-19.690	0.101
149.500	-23.679	0.101
149.600	-26.800	0.101
149.700	-28.306	0.101
149.800	-35.929	0.101
149.900	-26.759	0.101
150.000	-36.898	0.101
150.100	-26.881	0.101
150.200	-26.923	0.101
150.300	-22.744	0.101
150.400	-32.096	0.101
150.500	-27.426	0.101
150.600	-23.892	0.101
150.700	-29.816	0.101
150.800	-27.824	0.101
150.900	-32.129	0.101
151.000	-25.669	0.101
151.100	-28.151	0.101
151.200	-21.135	0.101
151.300	-29.126	0.101
151.400	-25.932	0.101
151.500	-27.160	0.101
151.600	-32.453	0.101
151.700	-19.770	0.101
151.800	-29.175	0.101
151.900	-21.500	0.101
152.000	-34.852	0.101
152.100	-18.010	0.101
152.200	-29.320	0.101
152.300	-24.054	0.101
152.400	-31.794	0.101
152.500	-19.462	0.101
152.600	-25.910	0.101
152.700	-35.612	0.101
152.800	-24.038	0.101
152.900	-24.796	0.101
153.000	-25.962	0.101
153.100	-27.958	0.101
153.200	-24.608	0.101
153.300	-26.060	0.101
153.400	-31.270	0.101
153.500	-26.365	0.101
153.600	-27.597	0.101
153.700	-22.498	0.101
153.800	-23.265	0.101
153.900	-23.923	0.101
154.000	-22.223	0.101
154.100	-27.871	0.101
154.200	-25.142	0.101
154.300	-26.084	0.101
154.400	-27.001	0.101
154.500	-28.130	0.101
154.600	-22.677	0.101
154.700	-35.531	0.101
154.800	-26.597	0.101
154.900	-32.189	0.101
155.000	-27.022	0.101
155.100	-16.725	0.101
155.200	-19.640	0.101
155.300	-26.312	0.101
155.400	-30.750	0.101
155.500	-30.613	0.101
155.600	-20.973	0.101
155.700	-33.262	0.101
155.800	-25.077	0.101
155.900	-24.797	0.101
156.000	-29.712	0.101
156.100	-27.728	0.101
156.200	-36.195	0.101
156.300	-22.996	0.101
156.400	-24.417	0.101
156.500	-22.696	0.101
156.600	-31.338	0.101
156.700	-32.960	0.101
156.800	-25.167	0.101
156.900	-32.538	0.101
157.000	-32.102	0.101
157.100	-30.270	0.101
157.200	-20.280	0.101
157.300	-26.759	0.101
157.400	-30.447	0.101
157.500	-15.661	0.101
157.600	-21.554	0.101
157.700	-28.883	0.101
157.800	-25.924	0.101
157.900	-30.966	0.101
158.000	-31.363	0.101
158.100	-20.016	0.101
158.200	-21.439	0.101
158.300	-23.185	0.101
158.400	-24.459	0.101
158.500	-17.758	0.101
158.600	-29.284	0.101
158.700	-30.656	0.101
158.800	-25.675	0.101
158.900	-32.166	0.101
159.000	-33.033	0.101
159.100	-23.705	0.101
159.200	-26.942	0.101
159.300	-22.785	0.101
159.400	-21.738	0.101
159.500	-23.642	0.101
159.600	-17.797	0.101
159.700	-35.721	0.101
159.800	-30.021	0.101
159.900	-28.851	0.101
160.000	-38.210	0.101
160.100	-21.687	0.101
160.200	-24.038	0.101
160.300	-22.540	0.101
160.400	-25.652	0.101
160.500	-28.131	0.101
160.600	-26.971	0.101
160.700	-31.674	0.101
160.800	-18.565	0.100
160.900	-33.653	0.100
161.000	-29.123	0.100
161.100	-24.995	0.100
161.200	-22.773	0.100
161.300	-18.804	0.100
161.400	-26.348	0.100
161.500	-25.756	0.100
161.600	-31.111	0.100
161.700	-32.799	0.100
161.800	-25.059	0.100
161.900	-29.642	0.100
162.000	-25.781	0.100
162.100	-25.195	0.100
162.200	-27.076	0.100
162.300	-20.733	0.100
162.400	-29.137	0.100
162.500	-30.640	0.100
162.600	-22.243	0.100
162.700	-21.729	0.100
162.800	-29.852	0.100
162.900	-28.738	0.100
163.000	-19.188	0.100
163.100	-25.954	0.100
163.200	-35.472	0.100
163.300	-20.833	0.100
163.400	-21.012	0.100
163.500	-22.866	0.100
163.600	-30.699	0.100
163.700	-18.196	0.100
163.800	-24.562	0.100
163.900	-31.620	0.100
164.000	-32.203	0.100
164.100	-22.418	0.100
164.200	-22.941	0.100
164.300	-17.389	0.100
164.400	-25.630	0.100
164.500	-26.148	0.100
164.600	-24.727	0.100
164.700	-28.143	0.100
164.800	-24.121	0.100
164.900	-20.174	0.100
165.000	-17.917	0.100
165.100	-31.264	0.100
165.200	-29.222	0.100
165.300	-21.769	0.100
165.400	-23.629	0.100
165.500	-24.716	0.100
165.600	-29.313	0.100
165.700	-26.284	0.100
165.800	-20.443	0.100
165.900	-17.412	0.100
166.000	-29.055	0.100
166.100	-34.874	0.100
166.200	-21.246	0.100
166.300	-20.250	0.100
166.400	-22.786	0.100
166.500	-26.585	0.100
166.600	-25.436	0.100
166.700	-20.699	0.100
166.800	-27.500	0.100
166.900	-32.688	0.100
167.000	-17.431	0.100
167.100	-23.185	0.100
167.200	-25.801	0.100
167.300	-22.522	0.100
167.400	-26.683	0.100
167.500	-25.009	0.100
167.600	-29.536	0.100
167.700	-19.937	0.100
167.800	-25.177	0.100
167.900	-21.926	0.100
168.000	-27.448	0.100
168.100	-29.152	0.100
168.200	-29.564	0.100
168.300	-26.514	0.100
168.400	-19.272	0.100
168.500	-29.100	0.100
168.600	-26.337	0.100
168.700	-23.434	0.100
168.800	-31.941	0.100
168.900	-24.399	0.100
169.000	-22.612	0.100
169.100	-30.071	0.100
169.200	-22.369	0.100
169.300	-26.342	0.100
169.400	-21.008	0.100
169.500	-24.567	0.100
169.600	-27.912	0.100
169.700	-26.184	0.100
169.800	-29.135	0.100
169.900	-24.370	0.100
170.000	-15.206	0.100
170.100	-30.141	0.100
170.200	-21.842	0.100
170.300	-16.734	0.100
170.400	-34.613	0.100
170.500	-25.687	0.100
170.600	-25.179	0.100
170.700	-16.469	0.100
170.800	-20.072	0.100
170.900	-31.074	0.100
171.000	-23.273	0.100
171.100	-19.592	0.100
171.200	-27.195	0.100
171.300	-30.301	0.100
171.400	-13.645	0.100
171.500	-24.712	0.100
171.600	-28.542	0.100
171.700	-25.870	0.100
171.800	-20.906	0.100
171.900	-28.093	0.100
172.000	-25.872	0.100
172.100	-30.169	0.100
172.200	-30.170	0.100
172.300	-20.122	0.100
172.400	-32.098	0.100
172.500	-22.809	0.100
172.600	-16.964	0.100
172.700	-25.528	0.100
172.800	-32.891	0.100
172.900	-16.178	0.100
173.000	-15.202	0.100
173.100	-18.488	0.100
173.200	-26.668	0.100
173.300	-27.595	0.100
173.400	-21.910	0.100
173.500	-24.699	0.100
173.600	-21.735	0.100
173.700	-23.360	0.100
173.800	-21.538	0.100
173.900	-29.773	0.100
174.000	-22.974	0.100
174.100	-22.961	0.100
174.200	-17.749	0.100
174.300	-21.698	0.100
174.400	-24.579	0.100
174.500	-24.334	0.100
174.600	-22.962	0.100
174.700	-26.556	0.100
174.800	-21.243	0.100
174.900	-18.573	0.100
175.000	-19.922	0.100
175.100	-22.229	0.100
175.200	-23.167	0.100
175.300	-14.979	0.100
175.400	-23.897	0.100
175.500	-19.925	0.100
175.600	-29.714	0.100
175.700	-20.762	0.100
175.800	-22.656	0.100
175.900	-23.413	0.100
176.000	-20.362	0.100
176.100	-20.979	0.100
176.200	-32.163	0.100
176.300	-19.171	0.100
176.400	-17.805	0.100
176.500	-23.652	0.100
176.600	-17.151	0.100
176.700	-24.745	0.100
176.800	-23.796	0.100
176.900	-20.222	0.100
177.000	-20.022	0.100
177.100	-27.769	0.100
177.200	-23.559	0.100
177.300	-27.521	0.100
177.400	-29.050	0.100
177.500	-21.362	0.100
177.600	-14.114	0.100
177.700	-26.867	0.100
177.800	-21.984	0.100
177.900	-23.216	0.100
178.000	-11.599	0.100
178.100	-21.386	0.100
178.200	-16.596	0.100
178.300	-22.592	0.100
178.400	-18.667	0.100
178.500	-27.562	0.100
178.600	-21.239	0.100
178.700	-19.428	0.100
178.800	-29.355	0.100
178.900	-19.402	0.100
179.000	-17.381	0.100
179.100	-18.262	0.100
179.200	-21.089	0.100
179.300	-24.197	0.100
179.400	-27.712	0.100
179.500	-26.621	0.100
179.600	-26.820	0.100
179.700	-27.411	0.100
179.800	-24.849	0.100
179.900	-26.392	0.100
180.000	-17.407	0.100
180.100	-20.686	0.100
180.200	-13.632	0.100
180.300	-19.222	0.100
180.400	-25.468	0.100
180.500	-18.272	0.100
180.600	-18.214	0.100
180.700	-9.880	0.100
180.800	-6.205	0.100
180.900	-11.894	0.100
181.000	-6.663	0.100
181.100	3.744	0.100
181.200	14.129	0.100
181.300	5.651	0.100
181.400	5.845	0.100
181.500	12.917	0.100
181.600	10.105	0.100
181.700	19.805	0.100
181.800	18.370	0.100
181.900	16.760	0.100
182.000	23.660	0.100
182.100	18.714	0.100
182.200	30.128	0.100
182.300	31.034	0.100
182.400	25.538	0.100
182.500	24.642	0.100
182.600	24.169	0.100
182.700	23.756	0.100
182.800	17.866	0.100
182.900	22.125	0.100
183.000	29.829	0.100
183.100	22.976	0.100
183.200	33.055	0.100
183.300	24.577	0.100
183.400	38.210	0.100
183.500	20.781	0.100
183.600	24.844	0.100
183.700	22.308	0.100
183.800	24.608	0.100
183.900	26.271	0.100
184.000	28.936	0.100
184.100	25.990	0.100
184.200	37.339	0.100
184.300	32.802	0.100
184.400	23.239	0.100
184.500	29.897	0.100
184.600	29.215	0.100
184.700	36.256	0.100
184.800	26.798	0.100
184.900	26.457	0.100
185.000	29.237	0.100
185.100	33.151	0.100
185.200	33.014	0.100
185.300	32.076	0.100
185.400	27.546	0.100
185.500	32.028	0.100
185.600	29.648	0.100
185.700	33.438	0.100
185.800	23.442	0.100
185.900	21.734	0.100
186.000	22.846	0.100
186.100	22.837	0.100
186.200	28.668	0.100
186.300	28.857	0.100
186.400	25.716	0.100
186.500	31.172	0.100
186.600	22.339	0.100
186.700	20.627	0.100
186.800	26.686	0.100
186.900	26.664	0.100
187.000	29.757	0.100
187.100	27.454	0.100
187.200	20.375	0.100
187.300	23.154	0.100
187.400	27.620	0.100
187.500	27.410	0.100
187.600	28.356	0.100
187.700	32.747	0.100
187.800	26.768	0.100
187.900	27.932	0.100
188.000	25.057	0.100
188.100	28.995	0.100
188.200	24.617	0.100
188.300	24.185	0.100
188.400	23.395	0.100
188.500	20.868	0.100
188.600	28.774	0.100
188.700	26.936	0.100
188.800	31.430	0.100
188.900	24.928	0.100
189.000	16.741	0.100
189.100	29.408	0.100
189.200	40.527	0.100
189.300	23.584	0.100
189.400	25.610	0.100
189.500	43.204	0.100
189.600	30.012	0.100
189.700	34.029	0.100
189.800	34.529	0.100
189.900	23.532	0.100
190.000	22.454	0.100
190.100	27.650	0.100
190.200	29.958	0.100
190.300	27.129	0.100
190.400	20.018	0.100
190.500	40.033	0.100
190.600	30.964	0.100
190.700	37.715	0.100
190.800	40.291	0.100
190.900	33.361	0.100
191.000	31.220	0.100
191.100	24.412	0.100
191.200	29.565	0.100
191.300	31.579	0.100
191.400	35.505	0.100
191.500	29.887	0.100
191.600	28.102	0.100
191.700	32.536	0.100
191.800	40.667	0.100
191.900	26.174	0.100
192.000	30.643	0.100
192.100	34.282	0.100
192.200	28.044	0.100
192.300	40.655	0.100
192.400	35.762	0.100
192.500	30.063	0.100
192.600	30.542	0.100
192.700	32.730	0.100
192.800	40.910	0.100
192.900	29.575	0.100
193.000	32.997	0.100
193.100	30.716	0.100
193.200	25.860	0.100
193.300	32.586	0.100
193.400	24.678	0.100
193.500	33.128	0.100
193.600	29.895	0.100
193.700	40.484	0.100
193.800	34.317	0.100
193.900	37.421	0.100
194.000	29.476	0.100
194.100	32.744	0.100
194.200	40.672	0.100
194.300	40.975	0.100
194.400	32.108	0.100
194.500	43.409	0.100
194.600	36.637	0.100
194.700	42.966	0.100
194.800	26.236	0.100
194.900	35.379	0.100
195.000	39.150	0.100
195.100	38.197	0.100
195.200	43.332	0.100
195.300	39.884	0.100
195.400	39.489	0.100
195.500	34.812	0.100
195.600	21.162	0.100
195.700	25.530	0.100
195.800	51.474	0.100
195.900	30.170	0.100
196.000	41.635	0.100
196.100	40.256	0.100
196.200	35.376	0.100
196.300	30.534	0.100
196.400	34.861	0.100
196.500	37.977	0.100
196.600	45.000	0.100
196.700	44.651	0.100
196.800	45.594	0.100
196.900	37.817	0.100
197.000	35.395	0.100
197.100	25.461	0.100
197.200	38.932	0.100
197.300	43.655	0.100
197.400	45.562	0.100
197.500	44.052	0.100
197.600	43.658	0.100
197.700	46.859	0.100
197.800	46.795	0.100
197.900	40.177	0.100
198.000	44.085	0.100
198.100	44.014	0.100
198.200	39.867	0.100
198.300	39.756	0.100
198.400	42.400	0.100
198.500	50.916	0.100
198.600	52.393	0.100
198.700	46.795	0.100
198.800	43.738	0.100
198.900	46.086	0.100
199.000	43.490	0.100
199.100	40.958	0.100
199.200	48.342	0.100
199.300	50.659	0.100
199.400	38.891	0.100
199.500	47.844	0.100
199.600	40.030	0.100
199.700	46.889	0.100
199.800	47.253	0.100
199.900	54.047	0.100
200.000	53.267	0.100
200.100	53.687	0.100
200.200	53.275	0.100
200.300	49.462	0.100
200.400	46.433	0.100
200.500	47.047	0.100
200.600	53.400	0.100
200.700	47.097	0.100
200.800	49.512	0.100
200.900	61.153	0.100
201.000	56.725	0.100
201.100	39.930	0.100
201.200	54.058	0.100
201.300	49.627	0.100
201.400	51.714	0.100
201.500	57.848	0.100
201.600	55.562	0.100
201.700	56.355	0.100
201.800	61.012	0.100
201.900	62.949	0.100
202.000	63.993	0.100
202.100	61.255	0.100
202.200	59.510	0.100
202.300	47.725	0.100
202.400	53.151	0.100
202.500	60.037	0.100
202.600	60.175	0.100
202.700	62.544	0.100
202.800	50.119	0.100
202.900	58.500	0.100
203.000	57.084	0.100
203.100	47.795	0.100
203.200	59.875	0.100
203.300	60.541	0.100
203.400	61.904	0.100
203.500	59.236	0.100
203.600	64.748	0.100
203.700	60.395	0.100
203.800	62.292	0.100
203.900	66.378	0.100
204.000	66.670	0.100
204.100	53.900	0.100
204.200	63.810	0.100
204.300	58.276	0.100
204.400	55.743	0.100
204.500	60.163	0.100
204.600	58.097	0.100
204.700	60.674	0.100
204.800	67.108	0.100
204.900	58.916	0.100
205.000	61.660	0.100
205.100	65.288	0.100
205.200	59.032	0.100
205.300	60.279	0.100
205.400	72.919	0.100
205.500	62.577	0.100
205.600	60.619	0.100
205.700	71.475	0.100
205.800	73.555	0.100
205.900	67.958	0.100
206.000	61.885	0.100
206.100	59.127	0.100
206.200	69.266	0.100
206.300	72.915	0.100
206.400	70.396	0.100
206.500	65.865	0.100
206.600	66.922	0.100
206.700	67.631	0.100
206.800	63.641	0.100
206.900	66.520	0.100
207.000	70.658	0.100
207.100	67.465	0.100
207.200	72.535	0.100
207.300	67.883	0.100
207.400	73.958	0.100
207.500	73.537	0.100
207.600	63.848	0.100
207.700	70.726	0.100
207.800	68.422	0.100
207.900	63.263	0.100
208.000	67.417	0.100
208.100	73.109	0.100
208.200	73.148	0.100
208.300	70.801	0.100
208.400	78.684	0.100
208.500	74.560	0.100
208.600	65.974	0.100
208.700	68.447	0.100
208.800	69.300	0.100
208.900	67.110	0.100
209.000	73.656	0.100
209.100	71.623	0.100
209.200	67.123	0.100
209.300	67.341	0.100
209.400	67.755	0.100
209.500	74.375	0.100
209.600	83.062	0.100
209.700	78.331	0.100
209.800	65.788	0.100
209.900	60.968	0.100
210.000	77.779	0.100
210.100	81.535	0.100
210.200	73.714	0.100
210.300	67.874	0.100
210.400	72.997	0.100
210.500	71.709	0.100
210.600	79.952	0.100
210.700	63.363	0.100
210.800	68.789	0.100
210.900	75.660	0.100
211.000	71.589	0.100
211.100	73.691	0.100
211.200	72.936	0.100
211.300	69.788	0.100
211.400	68.670	0.100
211.500	73.731	0.100
211.600	79.192	0.100
211.700	70.424	0.100
211.800	70.454	0.100
211.900	70.155	0.100
212.000	71.857	0.100
212.100	77.167	0.100
212.200	78.705	0.100
212.300	73.072	0.100
212.400	65.518	0.100
212.500	72.550	0.100
212.600	64.259	0.100
212.700	67.841	0.100
212.800	77.915	0.100
212.900	71.007	0.100
213.000	72.518	0.100
213.100	76.315	0.100
213.200	76.795	0.100
213.300	69.358	0.100
213.400	68.438	0.100
213.500	75.666	0.100
213.600	71.311	0.100
213.700	70.774	0.100
213.800	70.871	0.100
213.900	77.556	0.100
214.000	81.307	0.100
214.100	73.044	0.100
214.200	66.237	0.100
214.300	74.511	0.100
214.400	66.870	0.100
214.500	69.028	0.100
214.600	79.217	0.100
214.700	77.199	0.100
214.800	77.736	0.100
214.900	54.740	0.100
215.000	66.070	0.100
215.100	72.642	0.100
215.200	62.516	0.100
215.300	73.840	0.100
215.400	72.754	0.100
215.500	74.035	0.100
215.600	67.280	0.100
215.700	68.797	0.100
215.800	70.121	0.100
215.900	68.462	0.100
216.000	70.545	0.100
216.100	67.700	0.100
216.200	77.666	0.100
216.300	69.353	0.100
216.400	74.182	0.100
216.500	68.480	0.100
216.600	62.802	0.100
216.700	64.771	0.100
216.800	64.376	0.100
216.900	72.124	0.100
217.000	77.873	0.100
217.100	73.632	0.100
217.200	71.033	0.100
217.300	66.110	0.100
217.400	68.008	0.100
217.500	60.009	0.100
217.600	67.076	0.100
217.700	67.333	0.100
217.800	65.256	0.100
217.900	71.044	0.100
218.000	73.476	0.100
218.100	69.777	0.100
218.200	67.847	0.100
218.300	67.253	0.100
218.400	65.157	0.100
218.500	70.559	0.100
218.600	63.848	0.100
218.700	71.023	0.100
218.800	74.490	0.100
218.900	70.491	0.100
219.000	77.729	0.100
219.100	71.310	0.100
219.200	66.827	0.100
219.300	64.719	0.100
219.400	69.870	0.100
219.500	66.960	0.100
219.600	69.426	0.100
219.700	60.457	0.100
219.800	71.486	0.100
219.900	69.473	0.100
220.000	69.933	0.100
220.100	67.808	0.100
220.200	69.925	0.100
220.300	68.294	0.100
220.400	70.723	0.100
220.500	64.521	0.100
220.600	75.560	0.100
220.700	68.114	0.100
220.800	71.420	0.100
220.900	67.020	0.100
221.000	68.416	0.100
221.100	71.869	0.100
221.200	66.584	0.100
221.300	69.867	0.100
221.400	69.501	0.100
221.500	60.925	0.100
221.600	64.663	0.100
221.700	70.502	0.100
221.800	76.758	0.100
221.900	67.049	0.100
222.000	73.445	0.100
222.100	60.668	0.100
222.200	70.002	0.100
222.300	69.972	0.100
222.400	61.580	0.100
222.500	72.803	0.100
222.600	60.813	0.100
222.700	71.029	0.100
222.800	66.548	0.100
222.900	69.498	0.100
223.000	70.964	0.100
223.100	65.223	0.100
223.200	64.373	0.100
223.300	61.492	0.100
223.400	60.072	0.100
223.500	66.468	0.100
223.600	71.172	0.100
223.700	62.658	0.100
223.800	63.656	0.100
223.900	71.178	0.100
224.000	71.474	0.100
224.100	67.375	0.100
224.200	77.650	0.100
224.300	74.342	0.100
224.400	67.303	0.100
224.500	63.957	0.100
224.600	68.475	0.100
224.700	75.181	0.100
224.800	72.197	0.100
224.900	68.663	0.100
225.000	62.254	0.100
225.100	69.309	0.100
225.200	69.146	0.100
225.300	62.793	0.100
225.400	68.231	0.100
225.500	64.318	0.100
225.600	69.360	0.100
225.700	73.100	0.100
225.800	64.681	0.100
225.900	68.080	0.100
226.000	67.151	0.100
226.100	64.312	0.100
226.200	60.460	0.100
226.300	62.214	0.100
226.400	69.610	0.100
226.500	65.673	0.100
226.600	69.748	0.100
226.700	70.328	0.100
226.800	61.202	0.100
226.900	64.054	0.100
227.000	62.545	0.100
227.100	72.389	0.100
227.200	73.947	0.100
227.300	71.505	0.100
227.400	59.933	0.100
227.500	63.476	0.100
227.600	63.138	0.100
227.700	67.110	0.100
227.800	64.575	0.100
227.900	69.802	0.100
228.000	60.820	0.100
228.100	56.742	0.100
228.200	60.946	0.100
228.300	70.473	0.100
228.400	72.418	0.100
228.500	70.040	0.100
228.600	59.614	0.100
228.700	64.134	0.100
228.800	69.528	0.100
228.900	67.197	0.100
229.000	65.374	0.100
229.100	70.619	0.100
229.200	67.764	0.100
229.300	64.629	0.100
229.400	69.447	0.100
229.500	70.980	0.100
229.600	73.463	0.100
229.700	66.933	0.100
229.800	61.624	0.100
229.900	60.234	0.100
230.000	69.586	0.100
230.100	66.785	0.100
230.200	70.210	0.100
230.300	62.765	0.100
230.400	73.221	0.100
230.500	60.486	0.100
230.600	67.789	0.100
230.700	66.414	0.100
230.800	70.778	0.100
230.900	69.567	0.100
231.000	57.809	0.100
231.100	72.000	0.100
231.200	68.142	0.100
231.300	58.417	0.100
231.400	72.080	0.100
231.500	68.890	0.100
231.600	64.429	0.100
231.700	55.133	0.100
231.800	64.695	0.100
231.900	68.335	0.100
232.000	66.342	0.100
232.100	75.599	0.100
232.200	66.983	0.100
232.300	61.261	0.100
232.400	65.808	0.100
232.500	67.870	0.100
232.600	67.378	0.100
232.700	66.505	0.100
232.800	71.980	0.100
232.900	66.039	0.100
233.000	59.663	0.100
233.100	62.741	0.100
233.200	66.734	0.100
233.300	62.553	0.100
233.400	71.057	0.100
233.500	64.197	0.100
233.600	69.895	0.100
233.700	62.032	0.100
233.800	67.304	0.100
233.900	62.036	0.100
234.000	68.498	0.100
234.100	67.746	0.100
234.200	69.586	0.100
234.300	65.571	0.100
234.400	60.233	0.100
234.500	64.270	0.100
234.600	60.152	0.100
234.700	72.850	0.100
234.800	74.069	0.100
234.900	61.479	0.100
235.000	61.850	0.100
235.100	57.938	0.100
235.200	63.163	0.100
235.300	66.671	0.100
235.400	66.095	0.100
235.500	73.362	0.100
235.600	67.332	0.100
235.700	61.109	0.100
235.800	67.816	0.100
235.900	69.296	0.100
236.000	71.301	0.100
236.100	69.367	0.100
236.200	63.305	0.100
236.300	58.285	0.100
236.400	61.501	0.100
236.500	65.056	0.100
236.600	65.777	0.100
236.700	68.712	0.100
236.800	64.560	0.100
236.900	48.899	0.100
237.000	65.842	0.100
237.100	69.249	0.100
237.200	65.499	0.100
237.300	65.441	0.100
237.400	63.466	0.100
237.500	69.434	0.100
237.600	69.909	0.100
237.700	67.024	0.100
237.800	66.685	0.100
237.900	62.536	0.100
238.000	62.986	0.100
238.100	68.312	0.100
238.200	63.927	0.100
238.300	59.754	0.100
238.400	71.763	0.100
238.500	69.509	0.100
238.600	67.763	0.100
238.700	56.892	0.100
238.800	69.814	0.100
238.900	60.683	0.100
239.000	64.053	0.100
239.100	70.807	0.100
239.200	64.339	0.100
239.300	71.021	0.100
239.400	68.319	0.100
239.500	60.857	0.100
239.600	67.962	0.100
239.700	58.472	0.100
239.800	55.834	0.100
239.900	62.054	0.100
240.000	65.154	0.100
240.100	66.913	0.100
240.200	72.054	0.100
240.300	62.308	0.100
240.400	67.435	0.100
240.500	67.906	0.100
240.600	52.584	0.100
240.700	45.975	0.100
240.800	45.359	0.100
240.900	46.718	0.100
241.000	49.691	0.100
241.100	50.416	0.100
241.200	39.652	0.100
241.300	33.596	0.100
241.400	40.535	0.100
241.500	30.873	0.100
241.600	28.086	0.100
241.700	23.646	0.100
241.800	17.374	0.100
241.900	20.300	0.100
242.000	14.554	0.100
242.100	25.807	0.100
242.200	12.491	0.100
242.300	9.015	0.100
242.400	8.083	0.100
242.500	13.859	0.100
242.600	17.003	0.100
242.700	9.731	0.100
242.800	1.424	0.100
242.900	8.909	0.100
243.000	-0.567	0.100
243.100	-1.718	0.100
243.200	6.900	0.100
243.300	10.727	0.100
243.400	7.690	0.100
243.500	1.871	0.100
243.600	-1.753	0.100
243.700	-0.583	0.100
243.800	3.969	0.100
243.900	1.485	0.100
244.000	0.477	0.100
244.100	3.365	0.100
244.200	-3.665	0.100
244.300	-0.124	0.100
244.400	-1.115	0.100
244.500	-5.159	0.100
244.600	7.325	0.100
244.700	-2.962	0.100
244.800	-9.991	0.100
244.900	-9.578	0.100
245.000	-13.311	0.100
245.100	-9.115	0.100
245.200	-1.994	0.100
245.300	-3.565	0.100
245.400	-8.535	0.100
245.500	-6.819	0.100
245.600	-11.533	0.100
245.700	-7.899	0.100
245.800	-11.681	0.100
245.900	-3.159	0.100
246.000	-12.175	0.100
246.100	-2.827	0.100
246.200	-1.850	0.100
246.300	-9.395	0.100
246.400	-4.217	0.100
246.500	-6.016	0.100
246.600	-8.948	0.100
246.700	-9.067	0.100
246.800	-5.460	0.100
246.900	-18.254	0.100
247.000	-14.799	0.100
247.100	-12.769	0.100
247.200	-7.747	0.100
247.300	-9.383	0.100
247.400	-4.199	0.100
247.500	-13.983	0.100
247.600	-3.361	0.100
247.700	3.073	0.100
247.800	-13.779	0.100
247.900	-12.083	0.100
248.000	-9.571	0.100
248.100	-18.065	0.100
248.200	-14.540	0.100
248.300	-8.393	0.100
248.400	-4.328	0.100
248.500	-11.387	0.100
248.600	-9.617	0.100
248.700	-10.888	0.100
248.800	-2.930	0.100
248.900	-2.109	0.100
249.000	-5.534	0.100
249.100	-16.745	0.100
249.200	-9.707	0.100
249.300	-5.503	0.100
249.400	-5.810	0.100
249.500	-13.934	0.100
249.600	-8.273	0.100
249.700	-8.564	0.100
249.800	-21.818	0.100
249.900	-12.593	0.100
250.000	-10.828	0.100
250.100	-13.287	0.100
250.200	-13.684	0.100
250.300	-15.806	0.100
250.400	-10.609	0.100
250.500	-9.804	0.100
250.600	-11.832	0.100
250.700	-13.635	0.100
250.800	-3.970	0.100
250.900	4.863	0.100
251.000	-14.745	0.100
251.100	-17.546	0.100
251.200	-11.984	0.100
251.300	-16.523	0.100
251.400	-17.690	0.100
251.500	-16.697	0.100
251.600	-16.577	0.100
251.700	-7.148	0.100
251.800	-17.402	0.100
251.900	-16.285	0.100
252.000	-8.741	0.100
252.100	-12.031	0.100
252.200	-6.143	0.100
252.300	-18.059	0.100
252.400	-16.861	0.100
252.500	-21.441	0.100
252.600	-10.722	0.100
252.700	-15.703	0.100
252.800	-6.837	0.100
252.900	-21.879	0.100
253.000	-12.538	0.100
253.100	-15.181	0.100
253.200	-12.647	0.100
253.300	-23.692	0.100
253.400	-13.085	0.100
253.500	-10.048	0.100
253.600	-8.937	0.100
253.700	-9.827	0.100
253.800	-16.893	0.100
253.900	-20.743	0.100
254.000	-17.294	0.100
254.100	-12.946	0.100
254.200	-10.590	0.100
254.300	-19.827	0.100
254.400	-13.727	0.100
254.500	-9.189	0.100
254.600	-13.882	0.100
254.700	-17.088	0.100
254.800	-19.246	0.100
254.900	-10.376	0.100
255.000	-18.419	0.100
255.100	-16.378	0.100
255.200	-13.017	0.100
255.300	-9.317	0.100
255.400	-24.831	0.100
255.500	-25.404	0.100
255.600	-21.828	0.100
255.700	-15.109	0.100
255.800	-14.991	0.100
255.900	-16.785	0.100
256.000	-19.167	0.100
256.100	-23.675	0.100
256.200	-31.654	0.100
256.300	-25.088	0.100
256.400	-12.425	0.100
256.500	-15.659	0.100
256.600	-25.298	0.100
256.700	-8.004	0.100
256.800	-22.085	0.100
256.900	-15.576	0.100
257.000	-16.544	0.100
257.100	-15.802	0.100
257.200	-19.567	0.100
257.300	-19.177	0.100
257.400	-18.013	0.100
257.500	-18.703	0.100
257.600	-24.285	0.100
257.700	-19.024	0.100
257.800	-21.253	0.100
257.900	-17.956	0.100
258.000	-10.242	0.100
258.100	-23.819	0.100
258.200	-13.884	0.100
258.300	-24.337	0.100
258.400	-25.323	0.100
258.500	-26.308	0.100
258.600	-20.720	0.100
258.700	-17.630	0.100
258.800	-21.629	0.100
258.900	-1.389	0.100
259.000	-14.120	0.100
259.100	-17.738	0.100
259.200	-18.448	0.100
259.300	-25.297	0.100
259.400	-13.392	0.100
259.500	-18.943	0.100
259.600	-27.435	0.100
259.700	-25.165	0.100
259.800	-14.101	0.100
259.900	-10.322	0.100
260.000	-18.881	0.100
260.100	-23.011	0.100
260.200	-17.057	0.100
260.300	-21.289	0.100
260.400	-23.947	0.100
260.500	-29.638	0.100
260.600	-22.069	0.100
260.700	-14.438	0.100
260.800	-16.302	0.100
260.900	-17.530	0.100
261.000	-16.396	0.100
261.100	-24.754	0.100
261.200	-22.435	0.100
261.300	-28.736	0.100
261.400	-25.795	0.100
261.500	-27.073	0.100
261.600	-22.866	0.100
261.700	-22.960	0.100
261.800	-19.824	0.100
261.900	-18.419	0.100
262.000	-18.072	0.100
262.100	-24.212	0.100
262.200	-25.725	0.100
262.300	-20.990	0.100
262.400	-30.739	0.100
262.500	-18.103	0.100
262.600	-20.295	0.100
262.700	-24.136	0.100
262.800	-30.125	0.100
262.900	-32.772	0.100
263.000	-32.180	0.100
263.100	-23.943	0.100
263.200	-14.649	0.100
263.300	-23.458	0.100
263.400	-22.939	0.100
263.500	-19.672	0.100
263.600	-19.858	0.100
263.700	-16.416	0.100
263.800	-13.506	0.100
263.900	-31.764	0.100
264.000	-21.928	0.100
264.100	-29.895	0.100
264.200	-21.593	0.100
264.300	-29.540	0.100
264.400	-29.841	0.100
264.500	-30.960	0.100
264.600	-31.097	0.100
264.700	-24.542	0.100
264.800	-25.046	0.100
264.900	-20.563	0.100
265.000	-20.213	0.100
265.100	-21.918	0.100
265.200	-35.738	0.100
265.300	-35.886	0.100
265.400	-31.665	0.100
265.500	-25.949	0.100
265.600	-21.946	0.100
265.700	-30.306	0.100
265.800	-21.199	0.100
265.900	-19.422	0.100
266.000	-27.588	0.100
266.100	-31.184	0.100
266.200	-24.726	0.100
266.300	-25.548	0.100
266.400	-16.371	0.100
266.500	-24.774	0.100
266.600	-31.766	0.100
266.700	-36.051	0.100
266.800	-31.638	0.100
266.900	-22.568	0.100
267.000	-24.027	0.100
267.100	-34.568	0.100
267.200	-24.921	0.100
267.300	-28.298	0.100
267.400	-22.976	0.100
267.500	-25.647	0.100
267.600	-27.660	0.100
267.700	-12.467	0.100
267.800	-28.708	0.100
267.900	-28.181	0.100
268.000	-32.302	0.100
268.100	-20.551	0.100
268.200	-28.651	0.100
268.300	-29.146	0.100
268.400	-24.127	0.100
268.500	-26.344	0.100
268.600	-23.011	0.100
268.700	-23.115	0.100
268.800	-37.323	0.100
268.900	-28.236	0.100
269.000	-25.947	0.100
269.100	-27.599	0.100
269.200	-20.268	0.100
269.300	-26.015	0.100
269.400	-29.090	0.100
269.500	-26.629	0.100
269.600	-24.924	0.100
269.700	-26.705	0.100
269.800	-36.460	0.100
269.900	-35.657	0.100
270.000	-24.565	0.100
270.100	-25.463	0.100
270.200	-27.521	0.100
270.300	-41.298	0.100
270.400	-24.480	0.100
270.500	-24.807	0.100
270.600	-32.230	0.100
270.700	-33.953	0.100
270.800	-27.093	0.100
270.900	-34.784	0.100
271.000	-37.734	0.100
271.100	-31.723	0.100
271.200	-38.532	0.100
271.300	-25.900	0.100
271.400	-22.782	0.100
271.500	-34.989	0.100
271.600	-34.449	0.100
271.700	-26.281	0.100
271.800	-28.361	0.100
271.900	-28.098	0.100
272.000	-24.199	0.100
272.100	-23.473	0.100
272.200	-33.818	0.100
272.300	-31.994	0.100
272.400	-32.060	0.100
272.500	-27.606	0.100
272.600	-32.367	0.100
272.700	-31.846	0.100
272.800	-33.128	0.100
272.900	-37.705	0.100
273.000	-29.749	0.100
273.100	-40.738	0.100
273.200	-30.219	0.100
273.300	-27.734	0.100
273.400	-33.488	0.100
273.500	-35.331	0.100
273.600	-36.947	0.100
273.700	-39.754	0.100
273.800	-31.246	0.100
273.900	-31.695	0.100
274.000	-36.809	0.100
274.100	-41.932	0.100
274.200	-39.287	0.100
274.300	-28.078	0.100
274.400	-28.910	0.100
274.500	-35.939	0.100
274.600	-26.572	0.100
274.700	-38.040	0.100
274.800	-35.684	0.100
274.900	-36.180	0.100
275.000	-32.073	0.100
275.100	-21.299	0.100
275.200	-30.494	0.100
275.300	-34.499	0.100
275.400	-32.904	0.100
275.500	-35.387	0.100
275.600	-28.496	0.100
275.700	-33.350	0.100
275.800	-30.135	0.100
275.900	-35.004	0.100
276.000	-46.425	0.100
276.100	-31.727	0.100
276.200	-30.319	0.100
276.300	-36.740	0.100
276.400	-41.646	0.100
276.500	-38.096	0.100
276.600	-30.219	0.100
276.700	-39.634	0.100
276.800	-34.493	0.100
276.900	-29.770	0.100
277.000	-30.660	0.100
277.100	-38.501	0.100
277.200	-27.418	0.100
277.300	-35.845	0.100
277.400	-22.599	0.100
277.500	-32.572	0.100
277.600	-30.088	0.100
277.700	-43.061	0.100
277.800	-37.660	0.100
277.900	-33.054	0.100
278.000	-34.428	0.100
278.100	-29.907	0.100
278.200	-37.213	0.100
278.300	-32.518	0.100
278.400	-28.531	0.100
278.500	-38.580	0.100
278.600	-33.934	0.100
278.700	-38.331	0.100
278.800	-34.625	0.100
278.900	-30.506	0.100
279.000	-39.117	0.100
279.100	-34.301	0.100
279.200	-39.636	0.100
279.300	-31.436	0.100
279.400	-28.541	0.100
279.500	-38.099	0.100
279.600	-36.013	0.100
279.700	-36.586	0.100
279.800	-35.796	0.100
279.900	-40.336	0.100
280.000	-41.991	0.100
280.100	-34.667	0.100
280.200	-34.205	0.100
280.300	-35.684	0.100
280.400	-36.195	0.100
280.500	-37.702	0.100
280.600	-32.039	0.100
280.700	-29.475	0.100
280.800	-28.955	0.100
280.900	-42.066	0.100
281.000	-32.660	0.100
281.100	-32.855	0.100
281.200	-31.277	0.100
281.300	-32.500	0.100
281.400	-40.523	0.100
281.500	-38.972	0.100
281.600	-36.242	0.100
281.700	-35.820	0.100
281.800	-40.844	0.100
281.900	-37.208	0.100
282.000	-38.461	0.100
282.100	-37.737	0.100
282.200	-32.535	0.100
282.300	-43.249	0.100
282.400	-41.239	0.100
282.500	-36.037	0.100
282.600	-36.337	0.100
282.700	-33.734	0.100
282.800	-41.245	0.100
282.900	-24.669	0.100
283.000	-36.284	0.100
283.100	-34.685	0.100
283.200	-28.393	0.100
283.300	-40.561	0.100
283.400	-41.219	0.100
283.500	-38.794	0.100
283.600	-27.845	0.100
283.700	-30.864	0.100
283.800	-30.514	0.100
283.900	-33.679	0.100
284.000	-34.520	0.100
284.100	-37.737	0.100
284.200	-39.316	0.100
284.300	-34.173	0.100
284.400	-31.871	0.100
284.500	-28.150	0.100
284.600	-40.099	0.100
284.700	-43.023	0.100
284.800	-44.642	0.100
284.900	-41.310	0.100
285.000	-39.992	0.100
285.100	-31.699	0.100
285.200	-34.994	0.100
285.300	-25.434	0.100
285.400	-32.562	0.100
285.500	-35.101	0.100
285.600	-32.131	0.100
285.700	-32.266	0.100
285.800	-35.343	0.100
285.900	-39.200	0.100
286.000	-34.818	0.100
286.100	-31.886	0.100
286.200	-26.299	0.100
286.300	-37.822	0.100
286.400	-37.403	0.100
286.500	-37.771	0.100
286.600	-36.330	0.100
286.700	-35.986	0.100
286.800	-31.876	0.100
286.900	-28.393	0.100
287.000	-33.396	0.100
287.100	-33.698	0.100
287.200	-36.890	0.100
287.300	-32.948	0.100
287.400	-23.980	0.100
287.500	-44.682	0.100
287.600	-29.970	0.100
287.700	-42.962	0.100
287.800	-28.621	0.100
287.900	-44.730	0.100
288.000	-31.513	0.100
288.100	-33.064	0.100
288.200	-26.271	0.100
288.300	-31.919	0.100
288.400	-34.756	0.100
288.500	-35.121	0.100
288.600	-36.579	0.100
288.700	-36.792	0.100
288.800	-36.034	0.100
288.900	-35.312	0.100
289.000	-37.337	0.100
289.100	-35.287	0.100
289.200	-39.602	0.100
289.300	-33.459	0.100
289.400	-29.705	0.100
289.500	-38.901	0.100
289.600	-31.760	0.100
289.700	-38.617	0.100
289.800	-34.220	0.100
289.900	-38.526	0.100
290.000	-37.786	0.100
290.100	-30.549	0.100
290.200	-34.213	0.100
290.300	-36.591	0.100
290.400	-30.747	0.100
290.500	-25.751	0.100
290.600	-27.119	0.100
290.700	-30.323	0.100
290.800	-35.785	0.100
290.900	-41.922	0.100
291.000	-40.847	0.100
291.100	-37.326	0.100
291.200	-40.911	0.100
291.300	-26.627	0.100
291.400	-34.869	0.100
291.500	-27.540	0.100
291.600	-24.543	0.100
291.700	-33.831	0.100
291.800	-38.334	0.100
291.900	-40.068	0.100
292.000	-37.981	0.100
292.100	-36.878	0.100
292.200	-30.135	0.100
292.300	-28.847	0.100
292.400	-44.660	0.100
292.500	-30.325	0.100
292.600	-30.961	0.100
292.700	-28.051	0.100
292.800	-33.513	0.100
292.900	-38.654	0.100
293.000	-32.155	0.100
293.100	-24.821	0.100
293.200	-33.703	0.100
293.300	-39.240	0.100
293.400	-29.344	0.100
293.500	-31.427	0.100
293.600	-35.709	0.100
293.700	-35.262	0.100
293.800	-30.511	0.100
293.900	-36.427	0.100
294.000	-29.382	0.100
294.100	-40.262	0.100
294.200	-33.099	0.100
294.300	-36.300	0.100
294.400	-37.264	0.100
294.500	-36.395	0.100
294.600	-42.665	0.100
294.700	-45.292	0.100
294.800	-31.904	0.100
294.900	-29.926	0.100
295.000	-26.862	0.100
295.100	-28.486	0.100
295.200	-26.039	0.100
295.300	-30.085	0.100
295.400	-35.343	0.100
295.500	-39.353	0.100
295.600	-47.300	0.100
295.700	-42.634	0.100
295.800	-24.456	0.100
295.900	-21.729	0.100
296.000	-28.882	0.100
296.100	-23.226	0.100
296.200	-31.041	0.100
296.300	-32.687	0.100
296.400	-35.525	0.100
296.500	-30.158	0.100
296.600	-32.344	0.100
296.700	-34.255	0.100
296.800	-38.964	0.100
296.900	-33.985	0.100
297.000	-41.808	0.100
297.100	-27.905	0.100
297.200	-27.299	0.100
297.300	-21.809	0.100
297.400	-38.468	0.100
297.500	-28.292	0.100
297.600	-32.054	0.100
297.700	-37.595	0.100
297.800	-31.898	0.100
297.900	-19.192	0.100
298.000	-32.499	0.100
298.100	-32.337	0.100
298.200	-36.549	0.100
298.300	-30.343	0.100
298.400	-24.729	0.100
298.500	-30.489	0.100
298.600	-38.700	0.100
298.700	-31.849	0.100
298.800	-34.644	0.100
298.900	-31.512	0.100
299.000	-31.527	0.100
299.100	-36.579	0.100
299.200	-35.744	0.100
299.300	-23.800	0.100
299.400	-34.713	0.100
299.500	-33.591	0.100
299.600	-29.903	0.100
299.700	-34.048	0.100
299.800	-30.613	0.100
299.900	-32.862	0.100
300.000	-37.471	0.100
300.100	-34.519	0.100
300.200	-41.166	0.100
300.300	-26.761	0.100
300.400	-24.312	0.100
300.500	-38.093	0.100
300.600	-22.393	0.100
300.700	-40.120	0.100
300.800	-32.566	0.100
300.900	-29.643	0.100
301.000	-38.772	0.100
301.100	-24.204	0.100
301.200	-35.564	0.100
301.300	-21.944	0.100
301.400	-39.450	0.100
301.500	-28.830	0.100
301.600	-36.241	0.100
301.700	-29.227	0.100
301.800	-29.207	0.100
301.900	-27.891	0.100
302.000	-21.543	0.100
302.100	-28.424	0.100
302.200	-38.082	0.100
302.300	-32.107	0.100
302.400	-30.678	0.100
302.500	-22.914	0.100
302.600	-36.239	0.100
302.700	-30.243	0.100
302.800	-29.267	0.100
302.900	-30.738	0.100
303.000	-31.206	0.100
303.100	-37.348	0.100
303.200	-31.334	0.100
303.300	-28.782	0.100
303.400	-33.319	0.100
303.500	-26.403	0.100
303.600	-33.339	0.100
303.700	-28.746	0.100
303.800	-26.604	0.100
303.900	-30.488	0.100
304.000	-34.813	0.100
304.100	-26.192	0.100
304.200	-27.245	0.100
304.300	-34.298	0.100
304.400	-27.054	0.100
304.500	-36.415	0.100
304.600	-32.710	0.100
304.700	-27.727	0.100
304.800	-22.511	0.100
304.900	-26.145	0.100
305.000	-17.657	0.100
305.100	-39.191	0.100
305.200	-38.510	0.100
305.300	-29.968	0.100
305.400	-33.763	0.100
305.500	-36.663	0.100
305.600	-33.066	0.100
305.700	-29.314	0.100
305.800	-40.280	0.100
305.900	-30.349	0.100
306.000	-25.381	0.100
306.100	-20.667	0.100
306.200	-21.768	0.100
306.300	-25.472	0.100
306.400	-25.937	0.100
306.500	-32.323	0.100
306.600	-34.784	0.100
306.700	-26.512	0.100
306.800	-31.110	0.100
306.900	-32.182	0.100
307.000	-29.744	0.100
307.100	-29.512	0.100
307.200	-24.974	0.100
307.300	-31.278	0.100
307.400	-28.346	0.100
307.500	-29.468	0.100
307.600	-33.313	0.100
307.700	-33.050	0.100
307.800	-24.826	0.100
307.900	-27.638	0.100
308.000	-24.910	0.100
308.100	-31.898	0.100
308.200	-24.010	0.100
308.300	-38.733	0.100
308.400	-32.903	0.100
308.500	-25.452	0.100
308.600	-30.404	0.100
308.700	-36.881	0.100
308.800	-36.993	0.100
308.900	-26.491	0.100
309.000	-33.725	0.100
309.100	-33.305	0.100
309.200	-33.755	0.100
309.300	-26.996	0.100
309.400	-31.730	0.100
309.500	-25.292	0.100
309.600	-31.821	0.100
309.700	-33.938	0.100
309.800	-25.503	0.100
309.900	-30.536	0.100
310.000	-24.899	0.100
310.100	-23.200	0.100
310.200	-23.313	0.100
310.300	-28.899	0.100
310.400	-35.876	0.100
310.500	-27.892	0.100
310.600	-24.889	0.100
310.700	-35.259	0.100
310.800	-23.602	0.100
310.900	-30.665	0.100
311.000	-26.020	0.100
311.100	-29.319	0.100
311.200	-24.339	0.100
311.300	-28.822	0.100
311.400	-29.144	0.100
311.500	-26.485	0.100
311.600	-26.143	0.100
311.700	-30.767	0.100
311.800	-25.142	0.100
311.900	-33.054	0.100
312.000	-36.262	0.100
312.100	-26.416	0.100
312.200	-29.380	0.100
312.300	-29.301	0.100
312.400	-19.951	0.100
312.500	-26.731	0.100
312.600	-32.726	0.100
312.700	-31.092	0.100
312.800	-31.182	0.100
312.900	-23.327	0.100
313.000	-33.220	0.100
313.100	-38.721	0.100
313.200	-32.769	0.100
313.300	-34.886	0.100
313.400	-28.303	0.100
313.500	-20.616	0.100
313.600	-23.680	0.100
313.700	-28.166	0.100
313.800	-25.197	0.100
313.900	-32.967	0.100
314.000	-26.518	0.100
314.100	-23.555	0.100
314.200	-33.544	0.100
314.300	-24.593	0.100
314.400	-16.693	0.100
314.500	-27.620	0.100
314.600	-18.242	0.100
314.700	-26.952	0.100
314.800	-31.550	0.100
314.900	-29.810	0.100
315.000	-29.541	0.100
315.100	-27.902	0.100
315.200	-36.097	0.100
315.300	-32.636	0.100
315.400	-22.258	0.100
315.500	-25.796	0.100
315.600	-27.030	0.100
315.700	-25.903	0.100
315.800	-29.269	0.100
315.900	-29.392	0.100
316.000	-19.665	0.100
316.100	-29.376	0.100
316.200	-29.509	0.100
316.300	-31.310	0.100
316.400	-29.410	0.100
316.500	-28.258	0.100
316.600	-21.259	0.100
316.700	-26.476	0.100
316.800	-31.428	0.100
316.900	-27.680	0.100
317.000	-27.261	0.100
317.100	-30.403	0.100
317.200	-23.390	0.100
317.300	-20.378	0.100
317.400	-20.545	0.100
317.500	-26.516	0.100
317.600	-25.209	0.100
317.700	-26.678	0.100
317.800	-31.528	0.100
317.900	-24.989	0.100
318.000	-24.654	0.100
318.100	-28.992	0.100
318.200	-33.840	0.100
318.300	-28.832	0.100
318.400	-30.973	0.100
318.500	-30.894	0.100
318.600	-35.692	0.100
318.700	-22.386	0.100
318.800	-23.632	0.100
318.900	-19.768	0.100
319.000	-29.782	0.100
319.100	-28.760	0.100
319.200	-31.287	0.100
319.300	-20.975	0.100
319.400	-14.053	0.100
319.500	-20.106	0.100
319.600	-26.136	0.100
319.700	-25.420	0.100
319.800	-16.906	0.100
319.900	-32.394	0.100
320.000	-32.956	0.100
320.100	-31.859	0.100
320.200	-22.868	0.100
320.300	-25.673	0.100
320.400	-25.788	0.100
320.500	-27.290	0.100
320.600	-17.952	0.100
320.700	-26.376	0.100
320.800	-24.031	0.100
320.900	-25.809	0.100
321.000	-19.641	0.100
321.100	-27.396	0.100
321.200	-23.203	0.100
321.300	-31.584	0.100
321.400	-37.194	0.100
321.500	-18.331	0.100
321.600	-30.683	0.100
321.700	-24.012	0.100
321.800	-17.612	0.100
321.900	-25.476	0.100
322.000	-29.646	0.100
322.100	-25.279	0.100
322.200	-24.746	0.100
322.300	-17.084	0.100
322.400	-37.337	0.100
322.500	-29.936	0.100
322.600	-31.858	0.100
322.700	-35.866	0.100
322.800	-27.286	0.100
322.900	-25.594	0.100
323.000	-25.026	0.100
323.100	-23.357	0.100
323.200	-22.290	0.100
323.300	-20.963	0.100
323.400	-24.999	0.100
323.500	-20.051	0.100
323.600	-15.815	0.100
323.700	-21.249	0.100
323.800	-27.177	0.100
323.900	-35.438	0.100
324.000	-26.903	0.100
324.100	-24.826	0.100
324.200	-24.325	0.100
324.300	-15.194	0.100
324.400	-38.593	0.100
324.500	-21.223	0.100
324.600	-39.440	0.100
324.700	-26.601	0.100
324.800	-33.949	0.100
324.900	-24.947	0.100
325.000	-24.592	0.100
325.100	-21.686	0.100
325.200	-26.751	0.100
325.300	-26.925	0.100
325.400	-28.174	0.100
325.500	-29.640	0.100
325.600	-20.151	0.100
325.700	-21.269	0.100
325.800	-24.994	0.100
325.900	-22.154	0.100
326.000	-18.169	0.100
326.100	-32.375	0.100
326.200	-24.328	0.100
326.300	-33.055	0.100
326.400	-23.157	0.100
326.500	-15.809	0.100
326.600	-26.479	0.100
326.700	-37.450	0.100
326.800	-28.837	0.100
326.900	-34.260	0.100
327.000	-18.190	0.100
327.100	-20.184	0.100
327.200	-16.852	0.100
327.300	-28.299	0.100
327.400	-29.960	0.100
327.500	-34.088	0.100
327.600	-26.932	0.100
327.700	-13.239	0.100
327.800	-29.383	0.100
327.900	-24.219	0.100
328.000	-16.361	0.100
328.100	-34.181	0.100
328.200	-30.444	0.100
328.300	-28.058	0.100
328.400	-26.704	0.100
328.500	-26.793	0.100
328.600	-21.664	0.100
328.700	-17.798	0.100
328.800	-11.834	0.100
328.900	-22.398	0.100
329.000	-18.684	0.100
329.100	-31.348	0.100
329.200	-31.713	0.100
329.300	-28.496	0.100
329.400	-27.137	0.100
329.500	-30.861	0.100
329.600	-25.672	0.100
329.700	-20.133	0.100
329.800	-19.039	0.100
329.900	-21.223	0.100
330.000	-19.563	0.100
330.100	-26.276	0.100
330.200	-22.738	0.100
330.300	-22.776	0.100
330.400	-26.882	0.100
330.500	-25.002	0.100
330.600	-13.486	0.100
330.700	-18.946	0.100
330.800	-10.658	0.100
330.900	-9.342	0.100
331.000	-2.064	0.100
331.100	-2.254	0.100
331.200	1.302	0.100
331.300	5.701	0.100
331.400	14.416	0.100
331.500	12.008	0.100
331.600	17.128	0.100
331.700	20.812	0.100
331.800	20.716	0.100
331.900	27.114	0.100
332.000	19.732	0.100
332.100	23.041	0.100
332.200	18.808	0.100
332.300	20.675	0.100
332.400	22.696	0.100
332.500	29.246	0.100
332.600	28.497	0.100
332.700	19.933	0.100
332.800	22.512	0.100
332.900	38.490	0.100
333.000	21.193	0.100
333.100	33.114	0.100
333.200	23.961	0.100
333.300	18.551	0.100
333.400	30.866	0.100
333.500	36.657	0.100
333.600	28.241	0.100
333.700	25.921	0.100
333.800	19.063	0.100
333.900	21.015	0.100
334.000	37.981	0.100
334.100	34.875	0.100
334.200	30.199	0.100
334.300	26.122	0.100
334.400	29.102	0.100
334.500	34.216	0.100
334.600	33.149	0.100
334.700	31.809	0.100
334.800	33.818	0.100
334.900	23.547	0.100
335.000	32.496	0.100
335.100	22.269	0.100
335.200	31.468	0.100
335.300	29.589	0.100
335.400	29.053	0.100
335.500	24.546	0.100
335.600	24.295	0.100
335.700	25.429	0.100
335.800	31.619	0.100
335.900	27.177	0.100
336.000	31.363	0.100
336.100	35.534	0.100
336.200	27.648	0.100
336.300	23.909	0.100
336.400	28.962	0.100
336.500	20.427	0.100
336.600	23.797	0.100
336.700	19.933	0.100
336.800	30.828	0.100
336.900	22.939	0.100
337.000	27.004	0.100
337.100	26.475	0.100
337.200	19.296	0.100
337.300	20.137	0.100
337.400	23.712	0.100
337.500	27.169	0.100
337.600	25.821	0.100
337.700	29.818	0.100
337.800	33.014	0.100
337.900	28.796	0.100
338.000	21.230	0.100
338.100	28.252	0.100
338.200	22.964	0.100
338.300	25.447	0.100
338.400	28.205	0.100
338.500	20.131	0.100
338.600	26.273	0.100
338.700	24.241	0.100
338.800	23.802	0.100
338.900	26.988	0.100
339.000	23.650	0.100
339.100	24.223	0.100
339.200	33.832	0.100
339.300	17.678	0.100
339.400	20.022	0.100
339.500	28.713	0.100
339.600	32.739	0.100
339.700	31.022	0.100
339.800	22.270	0.100
339.900	32.004	0.100
340.000	21.904	0.100
340.100	35.387	0.100
340.200	36.651	0.100
340.300	28.446	0.100
340.400	23.094	0.100
340.500	26.141	0.100
340.600	19.937	0.100
340.700	24.698	0.100
340.800	29.686	0.100
340.900	31.724	0.100
341.000	32.984	0.100
341.100	31.213	0.100
341.200	25.321	0.100
341.300	25.491	0.100
341.400	31.852	0.100
341.500	33.189	0.100
341.600	28.922	0.100
341.700	31.770	0.100
341.800	23.601	0.100
341.900	22.932	0.100
342.000	27.483	0.100
342.100	26.963	0.100
342.200	33.427	0.100
342.300	35.555	0.100
342.400	34.794	0.100
342.500	33.581	0.100
342.600	29.053	0.100
342.700	21.179	0.100
342.800	34.245	0.100
342.900	26.695	0.100
343.000	28.302	0.100
343.100	27.151	0.100
343.200	29.509	0.100
343.300	33.198	0.100
343.400	28.894	0.100
343.500	32.091	0.100
343.600	18.702	0.100
343.700	30.519	0.100
343.800	27.003	0.100
343.900	29.642	0.100
344.000	21.085	0.100
344.100	39.597	0.100
344.200	28.823	0.100
344.300	34.930	0.100
344.400	25.970	0.100
344.500	36.749	0.100
344.600	36.049	0.100
344.700	30.532	0.100
344.800	34.622	0.100
344.900	27.416	0.100
345.000	36.287	0.100
345.100	38.915	0.100
345.200	27.317	0.100
345.300	33.461	0.100
345.400	35.554	0.100
345.500	33.035	0.100
345.600	42.894	0.100
345.700	41.777	0.100
345.800	27.470	0.100
345.900	36.095	0.100
346.000	34.299	0.100
346.100	33.419	0.100
346.200	36.629	0.100
346.300	42.511	0.100
346.400	32.449	0.100
346.500	37.070	0.100
346.600	35.945	0.100
346.700	33.728	0.100
346.800	28.990	0.100
346.900	35.401	0.100
347.000	37.783	0.100
347.100	43.118	0.100
347.200	30.828	0.100
347.300	49.702	0.100
347.400	42.327	0.100
347.500	37.707	0.100
347.600	47.258	0.100
347.700	43.019	0.100
347.800	39.994	0.100
347.900	50.785	0.100
348.000	35.335	0.100
348.100	35.658	0.100
348.200	35.200	0.100
348.300	44.041	0.100
348.400	35.017	0.100
348.500	50.966	0.100
348.600	49.902	0.100
348.700	48.363	0.100
348.800	34.206	0.100
348.900	47.481	0.100
349.000	48.137	0.100
349.100	46.138	0.100
349.200	44.388	0.100
349.300	46.820	0.100
349.400	43.590	0.100
349.500	50.736	0.100
349.600	50.200	0.100
349.700	47.302	0.100
349.800	47.187	0.100
349.900	53.745	0.100
350.000	40.108	0.100
350.100	43.914	0.100
350.200	53.430	0.100
350.300	57.175	0.100
350.400	41.627	0.100
350.500	49.289	0.100
350.600	48.488	0.100
350.700	51.410	0.100
350.800	51.391	0.100
350.900	53.640	0.100
351.000	56.892	0.100
351.100	52.971	0.100
351.200	47.233	0.100
351.300	58.863	0.100
351.400	55.901	0.100
351.500	57.915	0.100
351.600	56.613	0.100
351.700	50.482	0.100
351.800	48.490	0.100
351.900	54.754	0.100
352.000	55.999	0.100
352.100	67.425	0.100
352.200	54.439	0.100
352.300	64.520	0.100
352.400	60.099	0.100
352.500	54.529	0.100
352.600	48.709	0.100
352.700	58.588	0.100
352.800	61.182	0.100
352.900	61.683	0.100
353.000	51.247	0.100
353.100	61.411	0.100
353.200	66.968	0.100
353.300	58.431	0.100
353.400	64.104	0.100
353.500	59.018	0.100
353.600	61.915	0.100
353.700	60.503	0.100
353.800	66.850	0.100
353.900	67.807	0.100
354.000	62.985	0.100
354.100	64.590	0.100
354.200	63.687	0.100
354.300	62.709	0.100
354.400	66.511	0.100
354.500	69.001	0.100
354.600	60.839	0.100
354.700	65.075	0.100
354.800	62.750	0.100
354.900	71.212	0.100
355.000	65.123	0.100
355.100	60.291	0.100
355.200	57.972	0.100
355.300	62.888	0.100
355.400	65.937	0.100
355.500	67.820	0.100
355.600	72.834	0.100
355.700	71.015	0.100
355.800	65.892	0.100
355.900	80.649	0.100
356.000	75.733	0.100
356.100	67.578	0.100
356.200	73.423	0.100
356.300	68.223	0.100
356.400	80.404	0.100
356.500	72.830	0.100
356.600	75.350	0.100
356.700	69.442	0.100
356.800	66.275	0.100
356.900	71.678	0.100
357.000	62.304	0.100
357.100	80.930	0.100
357.200	70.037	0.100
357.300	68.973	0.100
357.400	69.618	0.100
357.500	74.114	0.100
357.600	73.261	0.100
357.700	70.846	0.100
357.800	73.485	0.100
357.900	75.894	0.100
358.000	71.577	0.100
358.100	75.510	0.100
358.200	72.176	0.100
358.300	78.095	0.100
358.400	79.118	0.100
358.500	74.227	0.100
358.600	70.024	0.100
358.700	71.829	0.100
358.800	89.788	0.100
358.900	72.518	0.100
359.000	72.536	0.100
359.100	61.984	0.100
359.200	78.283	0.100
359.300	73.793	0.100
359.400	78.476	0.100
359.500	74.863	0.100
359.600	74.314	0.100
359.700	70.853	0.100
359.800	73.032	0.100
359.900	74.675	0.100
360.000	76.113	0.100
360.100	84.519	0.100
360.200	73.407	0.100
360.300	72.437	0.100
360.400	66.928	0.100
360.500	75.549	0.100
360.600	74.827	0.100
360.700	73.846	0.100
360.800	74.328	0.100
360.900	82.657	0.100
361.000	73.631	0.100
361.100	73.648	0.100
361.200	74.858	0.100
361.300	73.167	0.100
361.400	70.759	0.100
361.500	72.210	0.100
361.600	77.052	0.100
361.700	64.990	0.100
361.800	66.478	0.100
361.900	74.461	0.100
362.000	83.082	0.100
362.100	81.335	0.100
362.200	76.481	0.100
362.300	75.360	0.100
362.400	69.654	0.100
362.500	67.753	0.100
362.600	78.211	0.100
362.700	73.085	0.100
362.800	70.097	0.100
362.900	77.143	0.100
363.000	72.581	0.100
363.100	77.383	0.100
363.200	81.708	0.100
363.300	72.451	0.100
363.400	74.102	0.100
363.500	72.658	0.100
363.600	67.617	0.100
363.700	68.619	0.100
363.800	71.278	0.100
363.900	78.834	0.100
364.000	78.039	0.100
364.100	75.506	0.100
364.200	77.118	0.100
364.300	70.750	0.100
364.400	81.902	0.100
364.500	68.189	0.100
364.600	72.326	0.100
364.700	69.970	0.100
364.800	73.604	0.100
364.900	77.977	0.100
365.000	79.794	0.100
365.100	62.808	0.100
365.200	77.433	0.100
365.300	76.067	0.100
365.400	73.389	0.100
365.500	65.875	0.100
365.600	72.038	0.100
365.700	71.284	0.100
365.800	71.155	0.100
365.900	74.610	0.100
366.000	66.598	0.100
366.100	71.682	0.100
366.200	66.969	0.100
366.300	66.852	0.100
366.400	74.602	0.100
366.500	67.528	0.100
366.600	68.802	0.100
366.700	72.167	0.100
366.800	70.389	0.100
366.900	73.367	0.100
367.000	68.648	0.100
367.100	70.360	0.100
367.200	74.856	0.100
367.300	70.050	0.100
367.400	69.983	0.100
367.500	71.806	0.100
367.600	69.772	0.100
367.700	79.770	0.100
367.800	73.774	0.100
367.900	73.220	0.100
368.000	66.916	0.100
368.100	68.250	0.100
368.200	73.211	0.100
368.300	74.929	0.100
368.400	73.863	0.100
368.500	66.625	0.100
368.600	66.612	0.100
368.700	66.792	0.100
368.800	62.289	0.100
368.900	68.615	0.100
369.000	73.899	0.100
369.100	67.090	0.100
369.200	67.805	0.100
369.300	68.392	0.100
369.400	68.089	0.100
369.500	62.006	0.100
369.600	70.394	0.100
369.700	69.494	0.100
369.800	67.454	0.100
369.900	74.505	0.100
370.000	68.184	0.100
370.100	78.690	0.100
370.200	70.162	0.100
370.300	63.539	0.100
370.400	71.827	0.100
370.500	66.276	0.100
370.600	67.336	0.100
370.700	79.648	0.100
370.800	68.828	0.100
370.900	59.260	0.100
371.000	71.545	0.100
371.100	65.296	0.100
371.200	69.138	0.100
371.300	71.006	0.100
371.400	71.796	0.100
371.500	71.101	0.100
371.600	80.634	0.100
371.700	79.697	0.100
371.800	61.632	0.100
371.900	59.988	0.100
372.000	65.164	0.100
372.100	71.373	0.100
372.200	65.579	0.100
372.300	62.864	0.100
372.400	60.340	0.100
372.500	66.864	0.100
372.600	70.636	0.100
372.700	68.495	0.100
372.800	68.765	0.100
372.900	68.375	0.100
373.000	68.507	0.100
373.100	67.963	0.100
373.200	74.013	0.100
373.300	70.958	0.100
373.400	71.171	0.100
373.500	65.619	0.100
373.600	66.681	0.100
373.700	69.444	0.100
373.800	64.562	0.100
373.900	66.932	0.100
374.000	72.330	0.100
374.100	74.668	0.100
374.200	65.661	0.100
374.300	67.111	0.100
374.400	67.655	0.100
374.500	65.026	0.100
374.600	67.233	0.100
374.700	69.431	0.100
374.800	73.015	0.100
374.900	64.877	0.100
375.000	63.762	0.100
375.100	63.957	0.100
375.200	71.559	0.100
375.300	71.839	0.100
375.400	71.056	0.100
375.500	61.878	0.100
375.600	67.653	0.100
375.700	67.488	0.100
375.800	68.566	0.100
375.900	65.456	0.100
376.000	67.971	0.100
376.100	67.425	0.100
376.200	72.735	0.100
376.300	75.181	0.100
376.400	61.027	0.100
376.500	62.220	0.100
376.600	71.744	0.100
376.700	71.474	0.100
376.800	56.908	0.100
376.900	71.051	0.100
377.000	69.282	0.100
377.100	69.969	0.100
377.200	62.934	0.100
377.300	69.240	0.100
377.400	71.051	0.100
377.500	68.784	0.100
377.600	65.708	0.100
377.700	72.452	0.100
377.800	68.650	0.100
377.900	65.673	0.100
378.000	74.256	0.100
378.100	69.070	0.100
378.200	67.011	0.100
378.300	69.728	0.100
378.400	67.361	0.100
378.500	64.791	0.100
378.600	67.468	0.100
378.700	78.851	0.100
378.800	67.491	0.100
378.900	75.834	0.100
379.000	62.197	0.100
379.100	63.334	0.100
379.200	61.733	0.100
379.300	82.163	0.100
379.400	65.364	0.100
379.500	64.801	0.100
379.600	70.087	0.100
379.700	72.388	0.100
379.800	63.869	0.100
379.900	66.688	0.100
380.000	61.322	0.100
380.100	70.327	0.100
380.200	62.292	0.100
380.300	61.385	0.100
380.400	61.425	0.100
380.500	69.539	0.100
380.600	66.065	0.100
380.700	61.293	0.100
380.800	64.153	0.100
380.900	67.000	0.100
381.000	61.004	0.100
381.100	68.310	0.100
381.200	66.244	0.100
381.300	67.712	0.100
381.400	62.691	0.100
381.500	69.416	0.100
381.600	68.732	0.100
381.700	64.611	0.100
381.800	76.186	0.100
381.900	82.610	0.100
382.000	61.520	0.100
382.100	59.994	0.100
382.200	60.805	0.100
382.300	70.327	0.100
382.400	70.056	0.100
382.500	57.897	0.100
382.600	63.644	0.100
382.700	64.503	0.100
382.800	71.107	0.100
382.900	65.086	0.100
383.000	62.634	0.100
383.100	61.851	0.100
383.200	61.644	0.100
383.300	77.856	0.100
383.400	60.313	0.100
383.500	68.388	0.100
383.600	62.339	0.100
383.700	62.241	0.100
383.800	66.527	0.100
383.900	82.285	0.100
384.000	71.627	0.100
384.100	55.848	0.100
384.200	61.121	0.100
384.300	64.309	0.100
384.400	70.410	0.100
384.500	75.333	0.100
384.600	71.319	0.100
384.700	56.728	0.100
384.800	65.288	0.100
384.900	60.201	0.100
385.000	72.349	0.100
385.100	70.474	0.100
385.200	57.701	0.100
385.300	63.729	0.100
385.400	67.456	0.100
385.500	60.908	0.100
385.600	69.588	0.100
385.700	67.972	0.100
385.800	67.924	0.100
385.900	60.978	0.100
386.000	65.612	0.100
386.100	66.698	0.100
386.200	52.657	0.100
386.300	62.879	0.100
386.400	62.806	0.100
386.500	60.329	0.100
386.600	69.207	0.100
386.700	70.663	0.100
386.800	68.751	0.100
386.900	67.979	0.100
387.000	63.702	0.100
387.100	66.012	0.100
387.200	64.425	0.100
387.300	66.839	0.100
387.400	69.122	0.100
387.500	64.703	0.100
387.600	63.271	0.100
387.700	64.094	0.100
387.800	67.950	0.100
387.900	68.423	0.100
388.000	63.316	0.100
388.100	66.409	0.100
388.200	66.579	0.100
388.300	59.385	0.100
388.400	58.863	0.100
388.500	72.009	0.100
388.600	65.902	0.100
388.700	62.826	0.100
388.800	72.043	0.100
388.900	63.506	0.100
389.000	66.340	0.100
389.100	63.129	0.100
389.200	74.601	0.100
389.300	64.983	0.100
389.400	62.671	0.100
389.500	63.119	0.100
389.600	69.606	0.100
389.700	72.217	0.100
389.800	67.613	0.100
389.900	67.441	0.100
390.000	63.137	0.100
390.100	68.408	0.100
390.200	61.400	0.100
390.300	52.630	0.100
390.400	58.152	0.100
390.500	64.495	0.100
390.600	67.303	0.100
390.700	51.460	0.100
390.800	54.986	0.100
390.900	56.368	0.100
391.000	42.728	0.100
391.100	39.842	0.100
391.200	43.467	0.100
391.300	32.313	0.100
391.400	28.074	0.100
391.500	27.393	0.100
391.600	14.766	0.100
391.700	17.703	0.100
391.800	25.488	0.100
391.900	23.707	0.100
392.000	15.857	0.100
392.100	17.190	0.100
392.200	17.506	0.100
392.300	16.107	0.100
392.400	8.866	0.100
392.500	5.401	0.100
392.600	5.446	0.100
392.700	6.583	0.100
392.800	2.348	0.100
392.900	-3.221	0.100
393.000	7.276	0.100
393.100	7.698	0.100
393.200	-3.818	0.100
393.300	4.527	0.100
393.400	0.683	0.100
393.500	-6.386	0.100
393.600	-7.789	0.100
393.700	2.839	0.100
393.800	-9.378	0.100
393.900	-7.984	0.100
394.000	1.782	0.100
394.100	-5.153	0.100
394.200	2.548	0.100
394.300	-2.666	0.100
394.400	-3.391	0.100
394.500	-15.179	0.100
394.600	-4.059	0.100
394.700	-13.154	0.100
394.800	-5.405	0.100
394.900	-11.318	0.100
395.000	-15.167	0.100
395.100	-4.441	0.100
395.200	-6.152	0.100
395.300	-10.492	0.100
395.400	-11.227	0.100
395.500	-5.892	0.100
395.600	-7.502	0.100
395.700	-9.092	0.100
395.800	-13.968	0.100
395.900	-16.533	0.100
396.000	-10.976	0.100
396.100	-12.957	0.100
396.200	-11.531	0.100
396.300	-6.003	0.100
396.400	-16.389	0.100
396.500	-19.178	0.100
396.600	-15.853	0.100
396.700	-14.773	0.100
396.800	-7.200	0.100
396.900	-6.254	0.100
397.000	-18.435	0.100
397.100	-17.165	0.100
397.200	-10.152	0.100
397.300	-10.441	0.100
397.400	-10.166	0.100
397.500	-5.567	0.100
397.600	-13.465	0.100
397.700	-17.845	0.100
397.800	-16.470	0.100
397.900	-12.366	0.100
398.000	-16.040	0.100
398.100	-3.166	0.100
398.200	-9.138	0.100
398.300	-10.724	0.100
398.400	-18.569	0.100
398.500	-23.186	0.100
398.600	-10.390	0.100
398.700	-15.789	0.100
398.800	-11.330	0.100
398.900	-28.688	0.100
399.000	-15.892	0.100
399.100	-16.435	0.100
399.200	-12.753	0.100
399.300	-8.006	0.100
399.400	-16.528	0.100
399.500	-18.472	0.100
399.600	-10.768	0.100
399.700	-15.115	0.100
399.800	-14.990	0.100
399.900	-7.816	0.100
400.000	-11.698	0.100
400.100	-13.526	0.100
400.200	-21.205	0.100
400.300	-10.912	0.100
400.400	-8.532	0.100
400.500	-15.930	0.100
400.600	-13.957	0.100
400.700	-22.977	0.100
400.800	-10.323	0.100
400.900	-12.456	0.100
401.000	-5.591	0.100
401.100	-15.544	0.100
401.200	-22.451	0.100
401.300	-16.445	0.100
401.400	-7.344	0.100
401.500	-14.435	0.100
401.600	-11.900	0.100
401.700	-23.781	0.100
401.800	-21.790	0.100
401.900	-10.625	0.100
402.000	-14.592	0.100
402.100	-13.967	0.100
402.200	-13.183	0.100
402.300	-14.054	0.100
402.400	-18.633	0.100
402.500	-14.634	0.100
402.600	-21.984	0.100
402.700	-19.067	0.100
402.800	-18.469	0.100
402.900	-13.464	0.100
403.000	-15.806	0.100
403.100	-21.101	0.100
403.200	-14.443	0.100
403.300	-16.157	0.100
403.400	-13.683	0.100
403.500	-15.479	0.100
403.600	-26.085	0.100
403.700	-13.416	0.100
403.800	-16.711	0.100
403.900	-20.019	0.100
404.000	-22.458	0.100
404.100	-16.901	0.100
404.200	-19.164	0.100
404.300	-15.559	0.100
404.400	-14.320	0.100
404.500	-23.639	0.100
404.600	-16.275	0.100
404.700	-10.927	0.100
404.800	-10.921	0.100
404.900	-11.200	0.100
405.000	-21.211	0.100
405.100	-18.669	0.100
405.200	-21.510	0.100
405.300	-20.085	0.100
405.400	-20.088	0.100
405.500	-18.970	0.100
405.600	-24.372	0.100
405.700	-29.173	0.100
405.800	-23.257	0.100
405.900	-15.996	0.100
406.000	-12.127	0.100
406.100	-18.448	0.100
406.200	-13.461	0.100
406.300	-25.439	0.100
406.400	-24.936	0.100
406.500	-20.996	0.100
406.600	-15.786	0.100
406.700	-18.648	0.100
406.800	-23.450	0.100
406.900	-20.699	0.100
407.000	-14.360	0.100
407.100	-17.554	0.100
407.200	-24.066	0.100
407.300	-19.883	0.100
407.400	-23.236	0.100
407.500	-28.146	0.100
407.600	-22.288	0.100
407.700	-26.416	0.100
407.800	-24.422	0.100
407.900	-12.537	0.100
408.000	-18.406	0.100
408.100	-14.392	0.100
408.200	-18.717	0.100
408.300	-20.403	0.100
408.400	-31.999	0.100
408.500	-33.800	0.100
408.600	-12.407	0.100
408.700	-16.059	0.100
408.800	-22.507	0.100
408.900	-27.297	0.100
409.000	-23.344	0.100
409.100	-21.921	0.100
409.200	-24.771	0.100
409.300	-16.083	0.100
409.400	-20.030	0.100
409.500	-19.985	0.100
409.600	-26.171	0.100
409.700	-33.626	0.100
409.800	-31.088	0.100
409.900	-21.768	0.100
410.000	-21.628	0.100
410.100	-27.384	0.100
410.200	-19.510	0.100
410.300	-20.146	0.100
410.400	-18.538	0.100
410.500	-24.869	0.100
410.600	-27.550	0.100
410.700	-21.429	0.100
410.800	-23.258	0.100
410.900	-24.903	0.100
411.000	-27.313	0.100
411.100	-15.807	0.100
411.200	-23.805	0.100
411.300	-26.947	0.100
411.400	-25.436	0.100
411.500	-30.997	0.100
411.600	-32.122	0.100
411.700	-29.118	0.100
411.800	-29.836	0.100
411.900	-30.225	0.100
412.000	-30.121	0.100
412.100	-20.389	0.100
412.200	-24.667	0.100
412.300	-24.337	0.100
412.400	-28.381	0.100
412.500	-29.956	0.100
412.600	-26.294	0.100
412.700	-25.608	0.100
412.800	-34.078	0.100
412.900	-30.382	0.100
413.000	-23.891	0.100
413.100	-19.889	0.100
413.200	-24.242	0.100
413.300	-21.224	0.100
413.400	-23.057	0.100
413.500	-26.445	0.100
413.600	-23.428	0.100
413.700	-26.859	0.100
413.800	-28.112	0.100
413.900	-30.461	0.100
414.000	-38.080	0.100
414.100	-30.924	0.100
414.200	-19.405	0.100
414.300	-16.614	0.100
414.400	-17.177	0.100
414.500	-24.820	0.100
414.600	-31.463	0.100
414.700	-22.665	0.100
414.800	-31.087	0.100
414.900	-27.425	0.100
415.000	-31.215	0.100
415.100	-27.169	0.100
415.200	-35.485	0.100
415.300	-29.122	0.100
415.400	-27.771	0.100
415.500	-21.490	0.100
415.600	-32.767	0.100
415.700	-24.764	0.100
415.800	-24.905	0.100
415.900	-20.677	0.100
416.000	-22.710	0.100
416.100	-25.162	0.100
416.200	-31.341	0.100
416.300	-42.290	0.100
416.400	-29.174	0.100
416.500	-15.750	0.100
416.600	-20.499	0.100
416.700	-24.880	0.100
416.800	-41.705	0.100
416.900	-40.748	0.100
417.000	-30.005	0.100
417.100	-29.686	0.100
417.200	-34.179	0.100
417.300	-28.694	0.100
417.400	-26.675	0.100
417.500	-20.702	0.100
417.600	-28.949	0.100
417.700	-26.446	0.100
417.800	-28.933	0.100
417.900	-21.327	0.100
418.000	-24.519	0.100
418.100	-30.267	0.100
418.200	-20.971	0.100
418.300	-31.039	0.100
418.400	-26.237	0.100
418.500	-35.434	0.100
418.600	-33.757	0.100
418.700	-28.606	0.100
418.800	-27.055	0.100
418.900	-24.805	0.100
419.000	-38.370	0.100
419.100	-27.158	0.100
419.200	-37.309	0.100
419.300	-35.273	0.100
419.400	-31.473	0.100
419.500	-41.862	0.100
419.600	-20.883	0.100
419.700	-25.787	0.100
419.800	-37.001	0.100
419.900	-25.463	0.100
420.000	-26.891	0.100
420.100	-28.792	0.100
420.200	-33.349	0.100
420.300	-34.428	0.100
420.400	-32.729	0.100
420.500	-30.325	0.100
420.600	-33.556	0.100
420.700	-39.968	0.100
420.800	-44.520	0.100
420.900	-37.423	0.100
421.000	-35.645	0.100
421.100	-32.088	0.100
421.200	-32.159	0.100
421.300	-34.972	0.100
421.400	-34.574	0.100
421.500	-26.261	0.100
421.600	-28.387	0.100
421.700	-21.333	0.100
421.800	-42.246	0.100
421.900	-34.262	0.100
422.000	-37.238	0.100
422.100	-27.381	0.100
422.200	-26.376	0.100
422.300	-36.331	0.100
422.400	-36.321	0.100
422.500	-41.394	0.100
422.600	-31.000	0.100
422.700	-29.873	0.100
422.800	-28.657	0.100
422.900	-32.369	0.100
423.000	-35.274	0.100
423.100	-28.701	0.100
423.200	-35.094	0.100
423.300	-41.061	0.100
423.400	-41.066	0.100
423.500	-34.200	0.100
423.600	-32.871	0.100
423.700	-34.147	0.100
423.800	-27.676	0.100
423.900	-40.554	0.100
424.000	-40.097	0.100
424.100	-34.791	0.100
424.200	-36.742	0.100
424.300	-33.409	0.100
424.400	-42.707	0.100
424.500	-37.887	0.100
424.600	-29.705	0.100
424.700	-28.630	0.100
424.800	-40.703	0.100
424.900	-40.480	0.100
425.000	-34.809	0.100
425.100	-42.051	0.100
425.200	-32.013	0.100
425.300	-31.933	0.100
425.400	-34.885	0.100
425.500	-37.521	0.100
425.600	-41.171	0.100
425.700	-31.971	0.100
425.800	-36.566	0.100
425.900	-27.729	0.100
426.000	-34.712	0.100
426.100	-29.856	0.100
426.200	-45.454	0.100
426.300	-44.347	0.100
426.400	-36.538	0.100
426.500	-40.546	0.100
426.600	-36.225	0.100
426.700	-34.120	0.100
426.800	-32.270	0.100
426.900	-38.910	0.100
427.000	-31.927	0.100
427.100	-36.350	0.100
427.200	-42.259	0.100
427.300	-43.940	0.100
427.400	-42.567	0.100
427.500	-32.271	0.100
427.600	-31.590	0.100
427.700	-30.597	0.100
427.800	-48.063	0.100
427.900	-34.115	0.100
428.000	-30.395	0.100
428.100	-34.474	0.100
428.200	-40.918	0.100
428.300	-37.685	0.100
428.400	-43.955	0.100
428.500	-44.013	0.100
428.600	-25.723	0.100
428.700	-36.075	0.100
428.800	-25.128	0.100
428.900	-37.554	0.100
429.000	-29.514	0.100
429.100	-39.416	0.100
429.200	-37.169	0.100
429.300	-31.964	0.100
429.400	-38.838	0.100
429.500	-35.989	0.100
429.600	-42.530	0.100
429.700	-38.918	0.100
429.800	-35.047	0.100
429.900	-34.557	0.100
430.000	-39.520	0.100
430.100	-34.832	0.100
430.200	-40.929	0.100
430.300	-43.713	0.100
430.400	-37.363	0.100
430.500	-36.058	0.100
430.600	-38.165	0.100
430.700	-38.333	0.100
430.800	-33.626	0.100
430.900	-36.755	0.100
431.000	-26.775	0.100
431.100	-30.967	0.100
431.200	-34.438	0.100
431.300	-37.256	0.100
431.400	-32.668	0.100
431.500	-32.654	0.100
431.600	-37.659	0.100
431.700	-37.062	0.100
431.800	-33.765	0.100
431.900	-32.663	0.100
432.000	-37.007	0.100
432.100	-36.636	0.100
432.200	-39.329	0.100
432.300	-38.444	0.100
432.400	-40.092	0.100
432.500	-39.370	0.100
432.600	-34.515	0.100
432.700	-38.670	0.100
432.800	-26.497	0.100
432.900	-39.013	0.100
433.000	-39.964	0.100
433.100	-43.890	0.100
433.200	-36.274	0.100
433.300	-37.608	0.100
433.400	-43.975	0.100
433.500	-35.065	0.100
433.600	-39.859	0.100
433.700	-38.497	0.100
433.800	-35.804	0.100
433.900	-41.995	0.100
434.000	-42.633	0.100
434.100	-34.308	0.100
434.200	-37.605	0.100
434.300	-34.942	0.100
434.400	-36.388	0.100
434.500	-43.153	0.100
434.600	-38.218	0.100
434.700	-37.962	0.100
434.800	-33.506	0.100
434.900	-43.327	0.100
435.000	-41.801	0.100
435.100	-35.980	0.100
435.200	-40.559	0.100
435.300	-40.448	0.100
435.400	-43.614	0.100
435.500	-39.829	0.100
435.600	-40.847	0.100
435.700	-43.210	0.100
435.800	-39.219	0.100
435.900	-39.212	0.100
436.000	-33.743	0.100
436.100	-41.081	0.100
436.200	-33.700	0.100
436.300	-37.272	0.100
436.400	-39.893	0.100
436.500	-42.693	0.100
436.600	-36.261	0.100
436.700	-45.051	0.100
436.800	-41.422	0.100
436.900	-37.296	0.100
437.000	-35.933	0.100
437.100	-34.748	0.100
437.200	-36.588	0.100
437.300	-39.148	0.100
437.400	-38.652	0.100
437.500	-33.995	0.100
437.600	-36.668	0.100
437.700	-34.045	0.100
437.800	-30.277	0.100
437.900	-37.853	0.100
438.000	-38.065	0.100
438.100	-44.758	0.100
438.200	-48.320	0.100
438.300	-38.360	0.100
438.400	-27.051	0.100
438.500	-24.453	0.100
438.600	-32.740	0.100
438.700	-44.499	0.100
438.800	-35.816	0.100
438.900	-45.372	0.100
439.000	-37.190	0.100
439.100	-36.581	0.100
439.200	-34.846	0.100
439.300	-36.412	0.100
439.400	-35.319	0.100
439.500	-32.278	0.100
439.600	-33.588	0.100
439.700	-46.516	0.100
439.800	-40.314	0.100
439.900	-37.183	0.100
440.000	-33.754	0.100
440.100	-33.336	0.100
440.200	-26.365	0.100
440.300	-39.899	0.100
440.400	-43.973	0.100
440.500	-48.488	0.100
440.600	-46.811	0.100
440.700	-30.529	0.100
440.800	-33.409	0.100
440.900	-46.712	0.100
441.000	-39.799	0.100
441.100	-36.136	0.100
441.200	-37.063	0.100
441.300	-36.670	0.100
441.400	-37.693	0.100
441.500	-32.199	0.100
441.600	-44.392	0.100
441.700	-34.304	0.100
441.800	-33.341	0.100
441.900	-30.380	0.100
442.000	-30.884	0.100
442.100	-42.766	0.100
442.200	-37.279	0.100
442.300	-33.038	0.100
442.400	-33.144	0.100
442.500	-35.650	0.100
442.600	-40.700	0.100
442.700	-29.602	0.100
442.800	-29.494	0.100
442.900	-40.870	0.100
443.000	-31.656	0.100
443.100	-30.306	0.100
443.200	-39.071	0.100
443.300	-27.849	0.100
443.400	-33.516	0.100
443.500	-37.949	0.100
443.600	-29.985	0.100
443.700	-39.368	0.100
443.800	-37.282	0.100
443.900	-35.497	0.100
444.000	-28.748	0.100
444.100	-45.164	0.100
444.200	-33.994	0.100
444.300	-35.456	0.100
444.400	-38.711	0.100
444.500	-38.311	0.100
444.600	-26.438	0.100
444.700	-20.479	0.100
444.800	-26.164	0.100
444.900	-33.706	0.100
445.000	-40.407	0.100
445.100	-36.194	0.100
445.200	-40.120	0.100
445.300	-34.483	0.100
445.400	-43.965	0.100
445.500	-39.188	0.100
445.600	-33.591	0.100
445.700	-31.058	0.100
445.800	-35.712	0.100
445.900	-30.944	0.100
446.000	-27.417	0.100
446.100	-39.796	0.100
446.200	-38.207	0.100
446.300	-28.856	0.100
446.400	-29.951	0.100
446.500	-30.768	0.100
446.600	-26.948	0.100
446.700	-36.370	0.100
446.800	-37.036	0.100
446.900	-29.791	0.100
447.000	-33.912	0.100
447.100	-35.204	0.100
447.200	-35.704	0.100
447.300	-29.385	0.100
447.400	-37.193	0.100
447.500	-28.923	0.100
447.600	-35.513	0.100
447.700	-36.653	0.100
447.800	-46.298	0.100
447.900	-32.739	0.100
448.000	-26.850	0.100
448.100	-26.681	0.100
448.200	-37.712	0.100
448.300	-36.587	0.100
448.400	-35.188	0.100
448.500	-33.994	0.100
448.600	-29.396	0.100
448.700	-36.303	0.100
448.800	-34.675	0.100
448.900	-41.051	0.100
449.000	-39.521	0.100
449.100	-34.945	0.100
449.200	-37.567	0.100
449.300	-33.363	0.100
449.400	-32.384	0.100
449.500	-38.216	0.100
449.600	-37.389	0.100
449.700	-31.227	0.100
449.800	-35.803	0.100
449.900	-35.434	0.100
450.000	-40.414	0.100
450.100	-39.769	0.100
450.200	-32.667	0.100
450.300	-28.241	0.100
450.400	-27.194	0.100
450.500	-27.527	0.100
450.600	-32.845	0.100
450.700	-32.206	0.100
450.800	-33.538	0.100
450.900	-36.519	0.100
451.000	-32.650	0.100
451.100	-33.764	0.100
451.200	-31.287	0.100
451.300	-30.285	0.100
451.400	-30.826	0.100
451.500	-33.863	0.100
451.600	-36.484	0.100
451.700	-32.404	0.100
451.800	-28.842	0.100
451.900	-34.163	0.100
452.000	-26.758	0.100
452.100	-36.703	0.100
452.200	-33.044	0.100
452.300	-29.984	0.100
452.400	-36.034	0.100
452.500	-30.558	0.100
452.600	-29.983	0.100
452.700	-25.095	0.100
452.800	-41.392	0.100
452.900	-41.032	0.100
453.000	-29.595	0.100
453.100	-34.710	0.100
453.200	-34.848	0.100
453.300	-36.925	0.100
453.400	-24.118	0.100
453.500	-35.203	0.100
453.600	-36.517	0.100
453.700	-29.908	0.100
453.800	-35.339	0.100
453.900	-34.076	0.100
454.000	-32.104	0.100
454.100	-40.912	0.100
454.200	-32.651	0.100
454.300	-33.422	0.100
454.400	-32.337	0.100
454.500	-38.091	0.100
454.600	-33.897	0.100
454.700	-32.753	0.100
454.800	-28.594	0.100
454.900	-28.577	0.100
455.000	-32.605	0.100
455.100	-37.255	0.100
455.200	-34.554	0.100
455.300	-30.561	0.100
455.400	-27.441	0.100
455.500	-37.195	0.100
455.600	-33.767	0.100
455.700	-30.818	0.100
455.800	-32.769	0.100
455.900	-21.074	0.100
456.000	-30.964	0.100
456.100	-25.132	0.100
456.200	-38.643	0.100
456.300	-32.760	0.100
456.400	-37.788	0.100
456.500	-42.541	0.100
456.600	-39.742	0.100
456.700	-33.370	0.100
456.800	-29.380	0.100
456.900	-27.270	0.100
457.000	-31.185	0.100
457.100	-24.264	0.100
457.200	-24.101	0.100
457.300	-26.204	0.100
457.400	-38.884	0.100
457.500	-33.118	0.100
457.600	-22.022	0.100
457.700	-25.236	0.100
457.800	-31.404	0.100
457.900	-28.930	0.100
458.000	-36.035	0.100
458.100	-43.034	0.100
458.200	-33.118	0.100
458.300	-35.362	0.100
458.400	-16.469	0.100
458.500	-31.320	0.100
458.600	-33.782	0.100
458.700	-28.773	0.100
458.800	-32.646	0.100
458.900	-36.818	0.100
459.000	-48.429	0.100
459.100	-27.503	0.100
459.200	-25.200	0.100
459.300	-24.338	0.100
459.400	-25.941	0.100
459.500	-28.726	0.100
459.600	-36.818	0.100
459.700	-31.770	0.100
459.800	-26.898	0.100
459.900	-31.915	0.100
460.000	-27.905	0.100
460.100	-26.582	0.100
460.200	-31.113	0.100
460.300	-28.843	0.100
460.400	-38.301	0.100
460.500	-32.553	0.100
460.600	-31.105	0.100
460.700	-25.383	0.100
460.800	-24.367	0.100
460.900	-23.207	0.100
461.000	-30.607	0.100
461.100	-29.875	0.100
461.200	-29.538	0.100
461.300	-28.933	0.100
461.400	-28.961	0.100
461.500	-32.527	0.100
461.600	-38.838	0.100
461.700	-32.653	0.100
461.800	-19.801	0.100
461.900	-33.358	0.100
462.000	-25.457	0.100
462.100	-23.318	0.100
462.200	-34.615	0.100
462.300	-38.148	0.100
462.400	-27.755	0.100
462.500	-30.656	0.100
462.600	-23.216	0.100
462.700	-28.310	0.100
462.800	-25.772	0.100
462.900	-28.891	0.100
463.000	-33.233	0.100
463.100	-35.759	0.100
463.200	-30.992	0.100
463.300	-38.327	0.100
463.400	-27.305	0.100
463.500	-32.618	0.100
463.600	-28.061	0.100
463.700	-23.858	0.100
463.800	-24.591	0.100
463.900	-33.331	0.100
464.000	-28.369	0.100
464.100	-36.415	0.100
464.200	-35.442	0.100
464.300	-27.369	0.100
464.400	-26.065	0.100
464.500	-30.677	0.100
464.600	-21.725	0.100
464.700	-24.634	0.100
464.800	-35.769	0.100
464.900	-31.758	0.100
465.000	-36.368	0.100
465.100	-20.878	0.100
465.200	-30.584	0.100
465.300	-29.316	0.100
465.400	-27.983	0.100
465.500	-19.646	0.100
465.600	-36.884	0.100
465.700	-30.334	0.100
465.800	-19.507	0.100
465.900	-34.217	0.100
466.000	-30.500	0.100
466.100	-28.446	0.100
466.200	-26.281	0.100
466.300	-35.308	0.100
466.400	-20.057	0.100
466.500	-25.011	0.100
466.600	-36.349	0.100
466.700	-23.803	0.100
466.800	-21.765	0.100
466.900	-25.550	0.100
467.000	-26.251	0.100
467.100	-24.499	0.100
467.200	-29.560	0.100
467.300	-35.363	0.100
467.400	-24.837	0.100
467.500	-22.433	0.100
467.600	-24.291	0.100
467.700	-26.391	0.100
467.800	-27.413	0.100
467.900	-31.799	0.100
468.000	-35.276	0.100
468.100	-25.261	0.100
468.200	-22.049	0.100
468.300	-32.762	0.100
468.400	-25.445	0.100
468.500	-29.350	0.100
468.600	-30.710	0.100
468.700	-32.987	0.100
468.800	-34.879	0.100
468.900	-27.251	0.100
469.000	-30.294	0.100
469.100	-26.295	0.100
469.200	-26.378	0.100
469.300	-31.546	0.100
469.400	-24.949	0.100
469.500	-16.466	0.100
469.600	-26.582	0.100
469.700	-20.024	0.100
469.800	-31.316	0.100
469.900	-29.885	0.100
470.000	-28.697	0.100
470.100	-29.772	0.100
470.200	-30.228	0.100
470.300	-34.048	0.100
470.400	-28.787	0.100
470.500	-16.133	0.100
470.600	-28.496	0.100
470.700	-30.231	0.100
470.800	-37.374	0.100
470.900	-20.349	0.100
471.000	-32.537	0.100
471.100	-27.346	0.100
471.200	-27.140	0.100
471.300	-29.272	0.100
471.400	-27.387	0.100
471.500	-21.507	0.100
471.600	-31.081	0.100
471.700	-27.032	0.100
471.800	-31.950	0.100
471.900	-24.778	0.100
472.000	-27.319	0.100
472.100	-34.718	0.100
472.200	-26.929	0.100
472.300	-24.847	0.100
472.400	-31.485	0.100
472.500	-31.062	0.100
472.600	-22.817	0.100
472.700	-22.945	0.100
472.800	-16.189	0.100
472.900	-23.940	0.100
473.000	-28.397	0.100
473.100	-25.763	0.100
473.200	-31.325	0.100
473.300	-30.133	0.100
473.400	-33.003	0.100
473.500	-25.897	0.100
473.600	-32.826	0.100
473.700	-25.495	0.100
473.800	-23.037	0.100
473.900	-25.700	0.100
474.000	-27.241	0.100
474.100	-24.754	0.100
474.200	-29.388	0.100
474.300	-28.158	0.100
474.400	-24.109	0.100
474.500	-28.029	0.100
474.600	-20.366	0.100
474.700	-20.875	0.100
474.800	-27.385	0.100
474.900	-35.499	0.100
475.000	-29.202	0.100
475.100	-26.752	0.100
475.200	-21.921	0.100
475.300	-29.871	0.100
475.400	-30.041	0.100
475.500	-25.150	0.100
475.600	-30.945	0.100
475.700	-15.927	0.100
475.800	-30.798	0.100
475.900	-26.233	0.100
476.000	-33.586	0.100
476.100	-25.173	0.100
476.200	-24.027	0.100
476.300	-26.535	0.100
476.400	-31.990	0.100
476.500	-31.189	0.100
476.600	-33.508	0.100
476.700	-27.287	0.100
476.800	-21.118	0.100
476.900	-22.375	0.100
477.000	-27.648	0.100
477.100	-20.091	0.100
477.200	-26.545	0.100
477.300	-24.678	0.100
477.400	-24.771	0.100
477.500	-22.311	0.100
477.600	-17.975	0.100
477.700	-21.658	0.100
477.800	-20.448	0.100
477.900	-29.056	0.100
478.000	-25.712	0.100
478.100	-31.089	0.100
478.200	-29.424	0.100
478.300	-18.239	0.100
478.400	-23.607	0.100
478.500	-25.060	0.100
478.600	-25.657	0.100
478.700	-25.283	0.100
478.800	-25.017	0.100
478.900	-26.553	0.100
479.000	-27.409	0.100
479.100	-35.905	0.100
479.200	-28.123	0.100
479.300	-23.405	0.100
479.400	-21.519	0.100
479.500	-28.743	0.100
479.600	-18.469	0.100
479.700	-26.428	0.100
479.800	-25.844	0.100
479.900	-21.743	0.100
480.000	-25.993	0.100
480.100	-27.476	0.100
480.200	-23.650	0.100
480.300	-28.600	0.100
480.400	-26.973	0.100
480.500	-32.937	0.100
480.600	-23.793	0.100
480.700	-24.685	0.100
480.800	-17.299	0.100
480.900	-17.143	0.100
481.000	-10.135	0.100
481.100	-7.778	0.100
481.200	0.656	0.100
481.300	5.306	0.100
481.400	-1.146	0.100
481.500	18.782	0.100
481.600	15.952	0.100
481.700	31.412	0.100
481.800	19.863	0.100
481.900	10.589	0.100
482.000	16.872	0.100
482.100	22.793	0.100
482.200	19.695	0.100
482.300	31.008	0.100
482.400	28.124	0.100
482.500	28.948	0.100
482.600	27.717	0.100
482.700	22.046	0.100
482.800	23.836	0.100
482.900	28.507	0.100
483.000	25.074	0.100
483.100	36.084	0.100
483.200	31.869	0.100
483.300	20.775	0.100
483.400	22.339	0.100
483.500	21.667	0.100
483.600	31.897	0.100
483.700	31.476	0.100
483.800	38.220	0.100
483.900	37.199	0.100
484.000	32.964	0.100
484.100	25.733	0.100
484.200	33.332	0.100
484.300	26.792	0.100
484.400	35.297	0.100
484.500	30.813	0.100
484.600	28.612	0.100
484.700	31.550	0.100
484.800	26.079	0.100
484.900	21.747	0.100
485.000	29.064	0.100
485.100	29.658	0.100
485.200	29.342	0.100
485.300	30.554	0.100
485.400	25.264	0.100
485.500	31.006	0.100
485.600	27.793	0.100
485.700	24.126	0.100
485.800	34.376	0.100
485.900	21.845	0.100
486.000	21.181	0.100
486.100	27.240	0.100
486.200	28.263	0.100
486.300	26.168	0.100
486.400	24.865	0.100
486.500	22.006	0.100
486.600	19.481	0.100
486.700	22.094	0.100
486.800	25.095	0.100
486.900	26.148	0.100
487.000	25.517	0.100
487.100	26.660	0.100
487.200	25.837	0.100
487.300	31.706	0.100
487.400	30.056	0.100
487.500	18.349	0.100
487.600	21.374	0.100
487.700	25.203	0.100
487.800	27.232	0.100
487.900	22.174	0.100
488.000	24.160	0.100
488.100	23.142	0.100
488.200	31.462	0.100
488.300	28.460	0.100
488.400	24.869	0.100
488.500	26.905	0.100
488.600	22.355	0.100
488.700	31.948	0.100
488.800	25.286	0.100
488.900	27.650	0.100
489.000	29.445	0.100
489.100	31.208	0.100
489.200	29.883	0.100
489.300	18.080	0.100
489.400	18.633	0.100
489.500	28.924	0.100
489.600	36.180	0.100
489.700	26.635	0.100
489.800	26.121	0.100
489.900	36.531	0.100
490.000	12.829	0.100
490.100	30.640	0.100
490.200	23.163	0.100
490.300	25.934	0.100
490.400	27.350	0.100
490.500	30.836	0.100
490.600	30.120	0.100
490.700	27.295	0.100
490.800	20.052	0.100
490.900	18.119	0.100
491.000	18.401	0.100
491.100	28.257	0.100
491.200	31.141	0.100
491.300	24.019	0.100
491.400	35.711	0.100
491.500	36.589	0.100
491.600	31.625	0.100
491.700	18.733	0.100
491.800	31.038	0.100
491.900	38.561	0.100
492.000	31.616	0.100
492.100	33.326	0.100
492.200	32.607	0.100
492.300	27.476	0.100
492.400	32.843	0.100
492.500	30.141	0.100
492.600	27.822	0.100
492.700	25.174	0.100
492.800	28.369	0.100
492.900	27.122	0.100
493.000	26.371	0.100
493.100	23.169	0.100
493.200	28.580	0.100
493.300	34.147	0.100
493.400	31.062	0.100
493.500	21.172	0.100
493.600	28.943	0.100
493.700	44.003	0.100
493.800	33.718	0.100
493.900	27.119	0.100
494.000	37.138	0.100
494.100	32.513	0.100
494.200	28.503	0.100
494.300	31.391	0.100
494.400	45.704	0.100
494.500	34.569	0.100
494.600	34.428	0.100
494.700	31.780	0.100
494.800	23.350	0.100
494.900	25.727	0.100
495.000	31.314	0.100
495.100	38.337	0.100
495.200	33.573	0.100
495.300	31.283	0.100
495.400	32.803	0.100
495.500	31.939	0.100
495.600	38.149	0.100
495.700	33.077	0.100
495.800	41.127	0.100
495.900	33.529	0.100
496.000	32.029	0.100
496.100	36.237	0.100
496.200	35.127	0.100
496.300	37.730	0.100
496.400	30.782	0.100
496.500	31.510	0.100
496.600	41.063	0.100
496.700	30.330	0.100
496.800	32.411	0.100
496.900	29.199	0.100
497.000	27.845	0.100
497.100	39.661	0.100
497.200	42.337	0.100
497.300	41.725	0.100
497.400	46.845	0.100
497.500	41.016	0.100
497.600	35.271	0.100
497.700	35.695	0.100
497.800	42.258	0.100
497.900	36.174	0.100
498.000	43.314	0.100
498.100	36.880	0.100
498.200	35.786	0.100
498.300	52.013	0.100
498.400	42.991	0.100
498.500	43.053	0.100
498.600	43.372	0.100
498.700	49.109	0.100
498.800	43.975	0.100
498.900	43.694	0.100
499.000	41.144	0.100
499.100	47.947	0.100
499.200	40.656	0.100
499.300	47.487	0.100
499.400	52.808	0.100
499.500	41.989	0.100
499.600	48.402	0.100
499.700	53.329	0.100
499.800	52.957	0.100
499.900	42.990	0.100
500.000	42.080	0.100
500.100	54.174	0.100
500.200	49.609	0.100
500.300	48.341	0.100
500.400	53.589	0.100
500.500	53.798	0.100
500.600	54.967	0.100
500.700	61.169	0.100
500.800	48.375	0.100
500.900	58.052	0.100
501.000	48.926	0.100
501.100	54.094	0.100
501.200	52.443	0.100
501.300	61.581	0.100
501.400	57.033	0.100
501.500	56.931	0.100
501.600	60.894	0.100
501.700	52.262	0.100
501.800	55.660	0.100
501.900	56.041	0.100
502.000	57.716	0.100
502.100	58.075	0.100
502.200	54.017	0.100
502.300	54.419	0.100
502.400	62.419	0.100
502.500	58.478	0.100
502.600	75.218	0.100
502.700	59.751	0.100
502.800	58.624	0.100
502.900	66.627	0.100
503.000	57.628	0.100
503.100	68.338	0.100
503.200	64.236	0.100
503.300	60.444	0.100
503.400	67.471	0.100
503.500	62.720	0.100
503.600	71.855	0.100
503.700	69.700	0.100
503.800	64.452	0.100
503.900	65.912	0.100
504.000	65.632	0.100
504.100	58.585	0.100
504.200	69.944	0.100
504.300	61.545	0.100
504.400	71.695	0.100
504.500	59.620	0.100
504.600	72.333	0.100
504.700	67.023	0.100
504.800	64.469	0.100
504.900	66.473	0.100
505.000	62.078	0.100
505.100	76.477	0.100
505.200	70.408	0.100
505.300	69.905	0.100
505.400	68.788	0.100
505.500	63.346	0.100
505.600	72.498	0.100
505.700	78.887	0.100
505.800	77.863	0.100
505.900	76.957	0.100
506.000	64.303	0.100
506.100	68.655	0.100
506.200	77.585	0.100
506.300	65.504	0.100
506.400	71.901	0.100
506.500	73.607	0.100
506.600	62.190	0.100
506.700	80.600	0.100
506.800	72.846	0.100
506.900	76.047	0.100
507.000	71.294	0.100
507.100	73.229	0.100
507.200	73.024	0.100
507.300	75.780	0.100
507.400	75.053	0.100
507.500	78.492	0.100
507.600	73.634	0.100
507.700	70.750	0.100
507.800	75.775	0.100
507.900	63.193	0.100
508.000	72.046	0.100
508.100	73.738	0.100
508.200	75.688	0.100
508.300	74.106	0.100
508.400	74.418	0.100
508.500	74.887	0.100
508.600	74.570	0.100
508.700	74.707	0.100
508.800	76.515	0.100
508.900	75.437	0.100
509.000	74.869	0.100
509.100	78.461	0.100
509.200	81.336	0.100
509.300	75.819	0.100
509.400	74.712	0.100
509.500	69.732	0.100
509.600	71.032	0.100
509.700	80.610	0.100
509.800	82.450	0.100
509.900	75.574	0.100
510.000	75.038	0.100
510.100	78.737	0.100
510.200	68.930	0.100
510.300	82.461	0.100
510.400	73.679	0.100
510.500	81.317	0.100
510.600	76.037	0.100
510.700	80.401	0.100
510.800	71.328	0.100
510.900	67.090	0.100
511.000	74.794	0.100
511.100	75.158	0.100
511.200	82.633	0.100
511.300	77.143	0.100
511.400	77.306	0.100
511.500	73.734	0.100
511.600	67.563	0.100
511.700	72.433	0.100
511.800	74.021	0.100
511.900	76.332	0.100
512.000	75.377	0.100
512.100	71.358	0.100
512.200	74.528	0.100
512.300	68.600	0.100
512.400	68.559	0.100
512.500	75.556	0.100
512.600	77.166	0.100
512.700	72.012	0.100
512.800	77.301	0.100
512.900	70.562	0.100
513.000	77.020	0.100
513.100	79.202	0.100
513.200	72.314	0.100
513.300	73.615	0.100
513.400	64.351	0.100
513.500	70.612	0.100
513.600	74.618	0.100
513.700	81.829	0.100
513.800	75.759	0.100
513.900	68.949	0.100
514.000	75.476	0.100
514.100	76.823	0.100
514.200	73.453	0.100
514.300	77.022	0.100
514.400	76.514	0.100
514.500	72.415	0.100
514.600	76.673	0.100
514.700	75.308	0.100
514.800	71.206	0.100
514.900	71.178	0.100
515.000	73.110	0.100
515.100	72.522	0.100
515.200	70.820	0.100
515.300	71.979	0.100
515.400	77.949	0.100
515.500	75.097	0.100
515.600	69.624	0.100
515.700	68.277	0.100
515.800	68.304	0.100
515.900	75.218	0.100
516.000	75.934	0.100
516.100	69.305	0.100
516.200	73.219	0.100
516.300	73.400	0.100
516.400	70.951	0.100
516.500	66.941	0.100
516.600	65.962	0.100
516.700	67.463	0.100
516.800	68.925	0.100
516.900	71.043	0.100
517.000	68.953	0.100
517.100	71.971	0.100
517.200	73.010	0.100
517.300	80.802	0.100
517.400	72.441	0.100
517.500	73.470	0.100
517.600	71.380	0.100
517.700	66.184	0.100
517.800	69.772	0.100
517.900	75.136	0.100
518.000	79.519	0.100
518.100	73.608	0.100
518.200	70.780	0.100
518.300	69.880	0.100
518.400	60.093	0.100
518.500	64.839	0.100
518.600	67.083	0.100
518.700	72.997	0.100
518.800	68.328	0.100
518.900	65.719	0.100
519.000	73.706	0.100
519.100	62.108	0.100
519.200	72.929	0.100
519.300	65.012	0.100
519.400	72.730	0.100
519.500	65.167	0.100
519.600	61.011	0.100
519.700	60.297	0.100
519.800	77.869	0.100
519.900	71.911	0.100
520.000	61.240	0.100
520.100	64.054	0.100
520.200	71.807	0.100
520.300	61.184	0.100
520.400	76.023	0.100
520.500	65.551	0.100
520.600	70.098	0.100
520.700	71.423	0.100
520.800	71.969	0.100
520.900	72.931	0.100
521.000	70.326	0.100
521.100	63.901	0.100
521.200	67.170	0.100
521.300	73.805	0.100
521.400	67.009	0.100
521.500	68.188	0.100
521.600	63.697	0.100
521.700	76.224	0.100
521.800	61.960	0.100
521.900	64.559	0.100
522.000	71.717	0.100
522.100	62.578	0.100
522.200	68.168	0.100
522.300	84.300	0.100
522.400	66.595	0.100
522.500	66.277	0.100
522.600	72.585	0.100
522.700	71.644	0.100
522.800	56.932	0.100
522.900	76.265	0.100
523.000	73.830	0.100
523.100	66.459	0.100
523.200	76.689	0.100
523.300	69.519	0.100
523.400	70.001	0.100
523.500	71.618	0.100
523.600	71.249	0.100
523.700	71.685	0.100
523.800	57.666	0.100
523.900	64.799	0.100
524.000	77.258	0.100
524.100	62.591	0.100
524.200	67.238	0.100
524.300	70.060	0.100
524.400	70.666	0.100
524.500	71.168	0.100
524.600	65.493	0.100
524.700	71.996	0.100
524.800	66.977	0.100
524.900	74.395	0.100
525.000	72.442	0.100
525.100	67.538	0.100
525.200	61.661	0.100
525.300	65.869	0.100
525.400	72.883	0.100
525.500	65.839	0.100
525.600	73.150	0.100
525.700	63.465	0.100
525.800	62.305	0.100
525.900	72.094	0.100
526.000	71.772	0.100
526.100	69.063	0.100
526.200	66.926	0.100
526.300	64.132	0.100
526.400	75.263	0.100
526.500	71.122	0.100
526.600	60.762	0.100
526.700	70.330	0.100
526.800	73.342	0.100
526.900	68.041	0.100
527.000	67.739	0.100
527.100	64.880	0.100
527.200	64.311	0.100
527.300	77.564	0.100
527.400	63.986	0.100
527.500	62.211	0.100
527.600	67.460	0.100
527.700	75.427	0.100
527.800	66.786	0.100
527.900	73.638	0.100
528.000	77.370	0.100
528.100	66.791	0.100
528.200	57.100	0.100
528.300	64.149	0.100
528.400	66.634	0.100
528.500	76.817	0.100
528.600	71.564	0.100
528.700	72.864	0.100
528.800	65.931	0.100
528.900	63.962	0.100
529.000	59.965	0.100
529.100	64.184	0.100
529.200	66.758	0.100
529.300	74.367	0.100
529.400	62.620	0.100
529.500	66.663	0.100
529.600	63.338	0.100
529.700	73.302	0.100
529.800	63.036	0.100
529.900	64.588	0.100
530.000	61.705	0.100
530.100	62.289	0.100
530.200	71.941	0.100
530.300	63.216	0.100
530.400	76.162	0.100
530.500	61.005	0.100
530.600	64.536	0.100
530.700	66.732	0.100
530.800	68.486	0.100
530.900	66.914	0.100
531.000	67.005	0.100
531.100	71.432	0.100
531.200	65.115	0.100
531.300	65.149	0.100
531.400	68.857	0.100
531.500	65.704	0.100
531.600	64.152	0.100
531.700	66.445	0.100
531.800	72.280	0.100
531.900	57.532	0.100
532.000	66.906	0.100
532.100	67.162	0.100
532.200	72.254	0.100
532.300	62.259	0.100
532.400	69.592	0.100
532.500	60.599	0.100
532.600	61.962	0.100
532.700	66.168	0.100
532.800	59.658	0.100
532.900	72.276	0.100
533.000	64.475	0.100
533.100	67.609	0.100
533.200	65.490	0.100
533.300	63.779	0.100
533.400	65.067	0.100
533.500	62.578	0.100
533.600	62.014	0.100
533.700	67.549	0.100
533.800	73.307	0.100
533.900	68.002	0.100
534.000	72.485	0.100
534.100	69.041	0.100
534.200	63.019	0.100
534.300	68.443	0.100
534.400	67.850	0.100
534.500	63.359	0.100
534.600	55.848	0.100
534.700	67.160	0.100
534.800	68.390	0.100
534.900	72.103	0.100
535.000	57.941	0.100
535.100	53.039	0.100
535.200	55.368	0.100
535.300	76.880	0.100
535.400	66.013	0.100
535.500	59.284	0.100
535.600	66.504	0.100
535.700	57.179	0.100
535.800	58.499	0.100
535.900	71.298	0.100
536.000	68.501	0.100
536.100	62.732	0.100
536.200	63.944	0.100
536.300	71.068	0.100
536.400	69.555	0.100
536.500	65.790	0.100
536.600	62.491	0.100
536.700	72.807	0.100
536.800	67.247	0.100
536.900	54.780	0.100
537.000	61.619	0.100
537.100	54.566	0.100
537.200	65.720	0.100
537.300	67.236	0.100
537.400	68.777	0.100
537.500	65.052	0.100
537.600	68.398	0.100
537.700	61.142	0.100
537.800	67.673	0.100
537.900	67.586	0.100
538.000	61.570	0.100
538.100	55.737	0.100
538.200	65.409	0.100
538.300	64.564	0.100
538.400	62.027	0.100
538.500	63.508	0.100
538.600	64.390	0.100
538.700	75.073	0.100
538.800	62.852	0.100
538.900	68.066	0.100
539.000	69.417	0.100
539.100	68.408	0.100
539.200	59.963	0.100
539.300	64.932	0.100
539.400	66.133	0.100
539.500	65.694	0.100
539.600	60.081	0.100
539.700	72.379	0.100
539.800	62.424	0.100
539.900	67.395	0.100
540.000	74.187	0.100
540.100	62.019	0.100
540.200	62.514	0.100
540.300	59.092	0.100
540.400	61.267	0.100
540.500	57.006	0.100
540.600	61.126	0.100
540.700	61.702	0.100
540.800	45.077	0.100
540.900	53.237	0.100
541.000	39.224	0.100
541.100	37.703	0.100
541.200	40.372	0.100
541.300	37.757	0.100
541.400	32.737	0.100
541.500	21.043	0.100
541.600	28.197	0.100
541.700	20.724	0.100
541.800	22.195	0.100
541.900	20.300	0.100
542.000	17.091	0.100
542.100	21.086	0.100
542.200	10.748	0.100
542.300	-1.928	0.100
542.400	5.739	0.100
542.500	9.007	0.100
542.600	2.938	0.100
542.700	1.781	0.100
542.800	0.420	0.100
542.900	9.861	0.100
543.000	9.420	0.100
543.100	-2.039	0.100
543.200	-9.013	0.100
543.300	-1.186	0.100
543.400	4.749	0.100
543.500	-4.892	0.100
543.600	-11.868	0.100
543.700	-15.452	0.100
543.800	-9.218	0.100
543.900	-11.426	0.100
544.000	-3.063	0.100
544.100	-9.214	0.100
544.200	-7.509	0.100
544.300	-17.096	0.100
544.400	-1.348	0.100
544.500	-12.591	0.100
544.600	-7.386	0.100
544.700	-5.902	0.100
544.800	-17.906	0.100
544.900	-16.906	0.100
545.000	-10.371	0.100
545.100	-7.700	0.100
545.200	-10.129	0.100
545.300	-6.213	0.100
545.400	-12.676	0.100
545.500	-13.535	0.100
545.600	-14.147	0.100
545.700	-11.083	0.100
545.800	-10.697	0.100
545.900	-13.150	0.100
546.000	-12.771	0.100
546.100	-16.780	0.100
546.200	-19.897	0.100
546.300	-15.930	0.100
546.400	-21.239	0.100
546.500	-12.986	0.100
546.600	-15.281	0.100
546.700	-8.340	0.100
546.800	-19.537	0.100
546.900	-13.526	0.100
547.000	-29.619	0.100
547.100	-17.129	0.100
547.200	-13.630	0.100
547.300	-13.879	0.100
547.400	-17.638	0.100
547.500	-16.913	0.100
547.600	-23.681	0.100
547.700	-20.912	0.100
547.800	-13.502	0.100
547.900	-14.627	0.100
548.000	-23.813	0.100
548.100	-16.641	0.100
548.200	-19.533	0.100
548.300	-20.033	0.100
548.400	-13.848	0.100
548.500	-16.135	0.100
548.600	-12.497	0.100
548.700	-17.142	0.100
548.800	-15.517	0.100
548.900	-12.190	0.100
549.000	-12.980	0.100
549.100	-20.511	0.100
549.200	-17.471	0.100
549.300	-15.096	0.100
549.400	-8.316	0.100
549.500	-13.905	0.100
549.600	-6.200	0.100
549.700	-6.828	0.100
549.800	-20.518	0.100
549.900	-21.003	0.100
550.000	-14.372	0.100
550.100	-23.570	0.100
550.200	-10.721	0.100
550.300	-21.748	0.100
550.400	-23.875	0.100
550.500	-12.679	0.100
550.600	-16.201	0.100
550.700	-19.451	0.100
550.800	-21.904	0.100
550.900	-7.265	0.100
551.000	-15.570	0.100
551.100	-19.852	0.100
551.200	-12.333	0.100
551.300	-18.439	0.100
551.400	-17.100	0.100
551.500	-14.457	0.100
551.600	-20.468	0.100
551.700	-17.518	0.100
551.800	-19.130	0.100
551.900	-15.028	0.100
552.000	-12.800	0.100
552.100	-10.621	0.100
552.200	-17.149	0.100
552.300	-23.115	0.100
552.400	-12.480	0.100
552.500	-24.184	0.100
552.600	-16.174	0.100
552.700	-20.989	0.100
552.800	-21.759	0.100
552.900	-17.988	0.100
553.000	-11.667	0.100
553.100	-13.176	0.100
553.200	-27.465	0.100
553.300	-21.454	0.100
553.400	-11.165	0.100
553.500	-17.528	0.100
553.600	-22.687	0.100
553.700	-26.456	0.100
553.800	-21.734	0.100
553.900	-21.276	0.100
554.000	-20.958	0.100
554.100	-23.948	0.100
554.200	-15.912	0.100
554.300	-8.318	0.100
554.400	-27.693	0.100
554.500	-18.559	0.100
554.600	-21.006	0.100
554.700	-19.388	0.100
554.800	-41.202	0.100
554.900	-24.186	0.100
555.000	-28.729	0.100
555.100	-15.564	0.100
555.200	-15.331	0.100
555.300	-18.644	0.100
555.400	-25.815	0.100
555.500	-21.830	0.100
555.600	-25.924	0.100
555.700	-15.449	0.100
555.800	-28.548	0.100
555.900	-32.098	0.100
556.000	-23.313	0.100
556.100	-21.338	0.100
556.200	-30.825	0.100
556.300	-15.848	0.100
556.400	-15.938	0.100
556.500	-28.268	0.100
556.600	-26.222	0.100
556.700	-18.162	0.100
556.800	-24.276	0.100
556.900	-22.835	0.100
557.000	-20.465	0.100
557.100	-21.634	0.100
557.200	-25.918	0.100
557.300	-25.584	0.100
557.400	-19.014	0.100
557.500	-18.837	0.100
557.600	-19.674	0.100
557.700	-20.079	0.100
557.800	-25.912	0.100
557.900	-18.823	0.100
558.000	-19.587	0.100
558.100	-28.811	0.100
558.200	-20.737	0.100
558.300	-25.487	0.100
558.400	-29.599	0.100
558.500	-15.545	0.100
558.600	-25.651	0.100
558.700	-28.363	0.100
558.800	-31.610	0.100
558.900	-15.216	0.100
559.000	-25.281	0.100
559.100	-22.562	0.100
559.200	-22.138	0.100
559.300	-25.785	0.100
559.400	-23.936	0.100
559.500	-35.099	0.100
559.600	-20.728	0.100
559.700	-27.741	0.100
559.800	-25.075	0.100
559.900	-30.820	0.100
560.000	-26.107	0.100
560.100	-24.002	0.100
560.200	-11.893	0.100
560.300	-20.771	0.100
560.400	-28.809	0.100
560.500	-36.523	0.100
560.600	-26.665	0.100
560.700	-33.212	0.100
560.800	-16.323	0.100
560.900	-26.821	0.100
561.000	-25.665	0.100
561.100	-29.240	0.100
561.200	-25.752	0.100
561.300	-26.831	0.100
561.400	-23.206	0.100
561.500	-24.359	0.100
561.600	-21.377	0.100
561.700	-20.670	0.100
561.800	-24.963	0.100
561.900	-30.816	0.100
562.000	-25.180	0.100
562.100	-29.559	0.100
562.200	-21.376	0.100
562.300	-25.721	0.100
562.400	-30.552	0.100
562.500	-20.540	0.100
562.600	-23.371	0.100
562.700	-27.999	0.100
562.800	-27.310	0.100
562.900	-21.444	0.100
563.000	-28.867	0.100
563.100	-30.492	0.100
563.200	-31.291	0.100
563.300	-28.211	0.100
563.400	-23.263	0.100
563.500	-28.803	0.100
563.600	-30.830	0.100
563.700	-36.718	0.100
563.800	-29.033	0.100
563.900	-19.484	0.100
564.000	-34.728	0.100
564.100	-36.497	0.100
564.200	-25.115	0.100
564.300	-33.026	0.100
564.400	-28.975	0.100
564.500	-31.990	0.100
564.600	-31.464	0.100
564.700	-38.459	0.100
564.800	-29.511	0.100
564.900	-35.034	0.100
565.000	-31.150	0.100
565.100	-30.426	0.100
565.200	-26.742	0.100
565.300	-31.486	0.100
565.400	-30.536	0.100
565.500	-22.173	0.100
565.600	-31.715	0.100
565.700	-34.187	0.100
565.800	-25.934	0.100
565.900	-24.248	0.100
566.000	-30.542	0.100
566.100	-28.373	0.100
566.200	-29.949	0.100
566.300	-23.025	0.100
566.400	-33.539	0.100
566.500	-34.279	0.100
566.600	-29.980	0.100
566.700	-24.455	0.100
566.800	-32.274	0.100
566.900	-40.188	0.100
567.000	-35.521	0.100
567.100	-35.044	0.100
567.200	-31.203	0.100
567.300	-29.707	0.100
567.400	-31.340	0.100
567.500	-31.630	0.100
567.600	-29.733	0.100
567.700	-37.361	0.100
567.800	-38.757	0.100
567.900	-32.540	0.100
568.000	-27.013	0.100
568.100	-32.118	0.100
568.200	-32.704	0.100
568.300	-28.084	0.100
568.400	-33.505	0.100
568.500	-35.209	0.100
568.600	-37.991	0.100
568.700	-30.819	0.100
568.800	-29.208	0.100
568.900	-35.646	0.100
569.000	-33.425	0.100
569.100	-31.599	0.100
569.200	-38.249	0.100
569.300	-39.375	0.100
569.400	-31.249	0.100
569.500	-29.742	0.100
569.600	-40.257	0.100
569.700	-44.420	0.100
569.800	-25.556	0.100
569.900	-28.178	0.100
570.000	-26.310	0.100
570.100	-33.478	0.100
570.200	-39.169	0.100
570.300	-35.899	0.100
570.400	-32.561	0.100
570.500	-34.868	0.100
570.600	-34.926	0.100
570.700	-33.201	0.100
570.800	-36.422	0.100
570.900	-42.192	0.100
571.000	-33.149	0.100
571.100	-35.350	0.100
571.200	-31.317	0.100
571.300	-25.498	0.100
571.400	-40.421	0.100
571.500	-37.350	0.100
571.600	-38.089	0.100
571.700	-28.725	0.100
571.800	-35.568	0.100
571.900	-30.747	0.100
572.000	-30.868	0.100
572.100	-29.409	0.100
572.200	-43.908	0.100
572.300	-36.701	0.100
572.400	-32.191	0.100
572.500	-37.650	0.100
572.600	-33.864	0.100
572.700	-32.649	0.100
572.800	-37.501	0.100
572.900	-36.287	0.100
573.000	-37.432	0.100
573.100	-32.960	0.100
573.200	-30.788	0.100
573.300	-39.543	0.100
573.400	-42.409	0.100
573.500	-38.915	0.100
573.600	-37.717	0.100
573.700	-33.345	0.100
573.800	-36.747	0.100
573.900	-35.509	0.100
574.000	-29.999	0.100
574.100	-36.311	0.100
574.200	-40.538	0.101
574.300	-48.498	0.100
574.400	-39.256	0.100
574.500	-35.722	0.100
574.600	-42.851	0.100
574.700	-35.961	0.100
574.800	-38.807	0.100
574.900	-44.219	0.100
575.000	-39.918	0.100
575.100	-36.186	0.100
575.200	-49.943	0.100
575.300	-33.283	0.100
575.400	-37.596	0.100
575.500	-39.190	0.100
575.600	-30.828	0.100
575.700	-30.531	0.100
575.800	-42.308	0.100
575.900	-33.571	0.100
576.000	-30.488	0.100
576.100	-39.527	0.100
576.200	-33.891	0.100
576.300	-41.055	0.101
576.400	-43.206	0.100
576.500	-41.723	0.100
576.600	-29.177	0.100
576.700	-43.550	0.100
576.800	-41.612	0.101
576.900	-34.415	0.100
577.000	-36.342	0.100
577.100	-33.201	0.100
577.200	-44.316	0.100
577.300	-46.935	0.100
577.400	-41.937	0.100
577.500	-44.730	0.100
577.600	-37.115	0.100
577.700	-37.562	0.100
577.800	-44.904	0.101
577.900	-41.173	0.100
578.000	-46.217	0.101
578.100	-47.361	0.101
578.200	-34.501	0.100
578.300	-37.428	0.101
578.400	-29.936	0.101
578.500	-35.398	0.100
578.600	-42.039	0.101
578.700	-37.824	0.101
578.800	-33.011	0.101
578.900	-39.079	0.101
579.000	-35.021	0.101
579.100	-31.832	0.101
579.200	-40.132	0.101
579.300	-41.288	0.101
579.400	-47.546	0.101
579.500	-44.990	0.100
579.600	-38.435	0.101
579.700	-39.386	0.101
579.800	-36.017	0.101
579.900	-39.988	0.101
580.000	-39.943	0.101
580.100	-27.989	0.101
580.200	-36.011	0.101
580.300	-51.080	0.101
580.400	-35.830	0.101
580.500	-37.314	0.100
580.600	-41.484	0.101
580.700	-37.498	0.101
580.800	-38.956	0.101
580.900	-37.064	0.101
581.000	-32.884	0.101
581.100	-46.629	0.100
581.200	-35.542	0.100
581.300	-37.729	0.100
581.400	-42.440	0.101
581.500	-35.667	0.101
581.600	-38.779	0.101
581.700	-39.495	0.101
581.800	-29.916	0.101
581.900	-34.545	0.101
582.000	-45.988	0.101
582.100	-45.802	0.101
582.200	-46.380	0.101
582.300	-36.933	0.101
582.400	-42.343	0.101
582.500	-35.675	0.101
582.600	-41.323	0.101
582.700	-37.574	0.101
582.800	-47.470	0.101
582.900	-41.899	0.101
583.000	-49.119	0.101
583.100	-39.342	0.100
583.200	-38.783	0.101
583.300	-33.690	0.101
583.400	-39.059	0.101
583.500	-46.363	0.101
583.600	-39.517	0.100
583.700	-39.887	0.100
583.800	-34.048	0.101
583.900	-39.146	0.101
584.000	-32.156	0.101
584.100	-42.091	0.101
584.200	-41.222	0.101
584.300	-39.151	0.101
584.400	-39.019	0.101
584.500	-44.698	0.101
584.600	-37.221	0.101
584.700	-41.351	0.101
584.800	-30.196	0.101
584.900	-28.555	0.101
585.000	-39.748	0.101
585.100	-40.436	0.101
585.200	-46.036	0.101
585.300	-38.315	0.101
585.400	-39.662	0.101
585.500	-42.507	0.101
585.600	-32.808	0.101
585.700	-37.547	0.101
585.800	-30.948	0.101
585.900	-37.157	0.101
586.000	-32.312	0.101
586.100	-45.835	0.101
586.200	-34.668	0.101
586.300	-39.244	0.101
586.400	-44.107	0.101
586.500	-42.537	0.101
586.600	-39.042	0.101
586.700	-39.332	0.101
586.800	-37.146	0.101
586.900	-45.786	0.101
587.000	-32.921	0.101
587.100	-28.315	0.101
587.200	-33.365	0.101
587.300	-32.107	0.101
587.400	-43.292	0.101
587.500	-47.291	0.101
587.600	-29.231	0.101
587.700	-37.879	0.101
587.800	-40.833	0.101
587.900	-40.006	0.101
588.000	-35.545	0.101
588.100	-36.886	0.101
588.200	-42.512	0.101
588.300	-35.003	0.101
588.400	-34.303	0.101
588.500	-32.961	0.101
588.600	-42.294	0.101
588.700	-42.403	0.101
588.800	-31.417	0.101
588.900	-37.155	0.101
589.000	-38.487	0.101
589.100	-42.894	0.101
589.200	-45.336	0.101
589.300	-33.759	0.101
589.400	-29.548	0.101
589.500	-43.913	0.101
589.600	-43.363	0.101
589.700	-37.970	0.101
589.800	-29.907	0.101
589.900	-37.701	0.101
590.000	-30.621	0.101
590.100	-38.100	0.101
590.200	-41.692	0.101
590.300	-38.273	0.101
590.400	-39.074	0.101
590.500	-34.397	0.101
590.600	-33.701	0.101
590.700	-46.481	0.101
590.800	-41.504	0.101
590.900	-33.363	0.101
591.000	-36.461	0.101
591.100	-45.406	0.101
591.200	-37.587	0.101
591.300	-51.184	0.101
591.400	-37.980	0.101
591.500	-36.481	0.101
591.600	-35.298	0.101
591.700	-34.177	0.101
591.800	-33.885	0.101
591.900	-38.752	0.101
592.000	-42.598	0.101
592.100	-41.809	0.101
592.200	-36.499	0.101
592.300	-39.430	0.101
592.400	-38.567	0.101
592.500	-42.135	0.101
592.600	-31.788	0.101
592.700	-37.056	0.101
592.800	-39.645	0.101
592.900	-40.632	0.101
593.000	-33.562	0.101
593.100	-37.817	0.101
593.200	-45.902	0.101
593.300	-40.607	0.101
593.400	-32.857	0.101
593.500	-33.379	0.101
593.600	-31.914	0.101
593.700	-28.796	0.101
593.800	-34.802	0.101
593.900	-36.268	0.101
594.000	-40.133	0.101
594.100	-39.968	0.101
594.200	-29.351	0.101
594.300	-34.363	0.101
594.400	-29.182	0.101
594.500	-45.077	0.101
594.600	-28.893	0.101
594.700	-36.661	0.101
594.800	-31.061	0.101
594.900	-32.696	0.101
595.000	-32.612	0.101
595.100	-41.142	0.101
595.200	-35.314	0.101
595.300	-37.637	0.101
595.400	-35.553	0.101
595.500	-38.253	0.101
595.600	-35.468	0.101
595.700	-35.889	0.101
595.800	-33.913	0.101
595.900	-37.865	0.101
596.000	-33.545	0.101
596.100	-35.947	0.101
596.200	-39.986	0.101
596.300	-35.027	0.101
596.400	-37.129	0.101
596.500	-38.156	0.101
596.600	-30.019	0.101
596.700	-44.039	0.101
596.800	-42.879	0.101
596.900	-38.879	0.101
597.000	-44.284	0.101
597.100	-43.205	0.101
597.200	-43.403	0.101
597.300	-31.802	0.101
597.400	-30.689	0.101
597.500	-30.670	0.101
597.600	-38.268	0.101
597.700	-26.597	0.101
597.800	-32.529	0.101
597.900	-39.018	0.101
598.000	-27.383	0.101
598.100	-37.216	0.101
598.200	-36.055	0.101
598.300	-41.288	0.101
598.400	-35.038	0.101
598.500	-30.461	0.101
598.600	-39.561	0.101
598.700	-32.782	0.101
598.800	-39.108	0.101
598.900	-36.799	0.101
599.000	-41.088	0.101
599.100	-31.279	0.101
599.200	-34.052	0.101
599.300	-23.244	0.101
599.400	-42.359	0.101
599.500	-42.314	0.101
599.600	-36.417	0.101
599.700	-42.619	0.101
599.800	-31.882	0.101
599.900	-30.850	0.101
600.000	-34.348	0.101
600.100	-31.509	0.101
600.200	-36.601	0.101
600.300	-33.810	0.101
600.400	-32.061	0.101
600.500	-29.393	0.101
600.600	-25.188	0.101
600.700	-30.363	0.101
600.800	-36.389	0.101
600.900	-42.362	0.101
601.000	-30.001	0.101
601.100	-37.327	0.101
601.200	-31.659	0.101
601.300	-25.052	0.101
601.400	-41.526	0.101
601.500	-46.430	0.101
601.600	-37.032	0.101
601.700	-34.421	0.101
601.800	-40.596	0.101
601.900	-31.711	0.101
602.000	-33.947	0.101
602.100	-34.022	0.101
602.200	-41.139	0.101
602.300	-40.894	0.101
602.400	-31.859	0.101
602.500	-35.179	0.101
602.600	-35.809	0.101
602.700	-30.087	0.101
602.800	-33.446	0.101
602.900	-33.880	0.101
603.000	-38.946	0.101
603.100	-32.982	0.101
603.200	-35.723	0.101
603.300	-24.958	0.101
603.400	-34.544	0.101
603.500	-32.740	0.101
603.600	-32.134	0.101
603.700	-31.606	0.101
603.800	-33.111	0.101
603.900	-32.964	0.101
604.000	-34.605	0.101
604.100	-32.249	0.101
604.200	-34.227	0.101
604.300	-34.713	0.101
604.400	-42.469	0.101
604.500	-34.275	0.101
604.600	-33.253	0.101
604.700	-32.450	0.101
604.800	-37.828	0.101
604.900	-30.107	0.101
605.000	-30.814	0.101
605.100	-33.133	0.101
605.200	-32.019	0.101
605.300	-35.499	0.101
605.400	-30.411	0.101
605.500	-27.480	0.101
605.600	-34.927	0.101
605.700	-32.246	0.101
605.800	-33.271	0.101
605.900	-35.727	0.101
606.000	-34.523	0.101
606.100	-29.749	0.101
606.200	-30.284	0.101
606.300	-31.538	0.101
606.400	-36.866	0.101
606.500	-41.453	0.101
606.600	-27.026	0.101
606.700	-36.214	0.101
606.800	-25.401	0.101
606.900	-29.763	0.101
607.000	-36.136	0.101
607.100	-31.776	0.101
607.200	-30.997	0.101
607.300	-29.932	0.101
607.400	-31.171	0.101
607.500	-30.165	0.101
607.600	-30.874	0.101
607.700	-51.302	0.101
607.800	-46.690	0.101
607.900	-37.064	0.101
608.000	-34.578	0.101
608.100	-31.745	0.101
608.200	-31.200	0.101
608.300	-28.999	0.101
608.400	-38.613	0.101
608.500	-28.454	0.101
608.600	-29.327	0.101
608.700	-38.189	0.101
608.800	-29.743	0.101
608.900	-40.577	0.101
609.000	-34.121	0.101
609.100	-26.582	0.101
609.200	-30.951	0.101
609.300	-37.340	0.101
609.400	-31.405	0.101
609.500	-34.371	0.101
609.600	-32.055	0.101
609.700	-34.857	0.101
609.800	-38.233	0.101
609.900	-27.790	0.101
610.000	-36.228	0.101
610.100	-30.443	0.101
610.200	-25.137	0.101
610.300	-27.201	0.101
610.400	-29.105	0.101
610.500	-21.557	0.101
610.600	-28.477	0.101
610.700	-30.759	0.101
610.800	-38.446	0.101
610.900	-32.565	0.101
611.000	-34.845	0.101
611.100	-32.738	0.101
611.200	-26.703	0.101
611.300	-25.132	0.101
611.400	-31.773	0.101
611.500	-24.543	0.101
611.600	-29.272	0.101
611.700	-28.864	0.101
611.800	-31.060	0.101
611.900	-30.239	0.101
612.000	-38.574	0.101
612.100	-37.288	0.101
612.200	-21.135	0.101
612.300	-32.757	0.101
612.400	-15.393	0.101
612.500	-27.914	0.101
612.600	-38.043	0.101
612.700	-27.412	0.101
612.800	-33.376	0.101
612.900	-38.263	0.101
613.000	-37.104	0.101
613.100	-22.188	0.101
613.200	-29.425	0.101
613.300	-21.832	0.101
613.400	-38.967	0.101
613.500	-36.633	0.101
613.600	-31.226	0.101
613.700	-29.497	0.101
613.800	-31.365	0.101
613.900	-31.137	0.101
614.000	-25.190	0.101
614.100	-26.240	0.101
614.200	-28.773	0.101
614.300	-30.592	0.101
614.400	-32.463	0.101
614.500	-25.524	0.101
614.600	-28.126	0.101
614.700	-35.319	0.101
614.800	-33.834	0.101
614.900	-25.753	0.101
615.000	-21.583	0.101
615.100	-25.873	0.101
615.200	-30.435	0.101
615.300	-32.366	0.101
615.400	-34.390	0.101
615.500	-32.083	0.101
615.600	-30.902	0.101
615.700	-30.904	0.101
615.800	-28.867	0.101
615.900	-36.886	0.101
616.000	-39.129	0.101
616.100	-32.883	0.101
616.200	-32.889	0.101
616.300	-27.260	0.101
616.400	-31.694	0.101
616.500	-34.335	0.101
616.600	-25.865	0.101
616.700	-24.895	0.101
616.800	-28.593	0.101
616.900	-34.607	0.101
617.000	-32.670	0.101
617.100	-27.834	0.101
617.200	-34.237	0.101
617.300	-32.812	0.101
617.400	-26.810	0.101
617.500	-28.786	0.101
617.600	-31.052	0.101
617.700	-16.895	0.101
617.800	-30.856	0.101
617.900	-34.052	0.101
618.000	-27.937	0.101
618.100	-31.526	0.101
618.200	-22.842	0.101
618.300	-22.927	0.101
618.400	-25.346	0.101
618.500	-23.590	0.101
618.600	-28.776	0.101
618.700	-30.320	0.101
618.800	-24.925	0.101
618.900	-30.697	0.101
619.000	-31.904	0.101
619.100	-36.540	0.101
619.200	-32.028	0.101
619.300	-32.450	0.101
619.400	-27.059	0.101
619.500	-27.568	0.101
619.600	-30.364	0.101
619.700	-37.958	0.101
619.800	-32.039	0.101
619.900	-21.641	0.101
620.000	-24.689	0.101
620.100	-28.146	0.101
620.200	-32.766	0.101
620.300	-23.765	0.101
620.400	-34.520	0.101
620.500	-27.771	0.101
620.600	-29.458	0.101
620.700	-23.049	0.101
620.800	-29.585	0.101
620.900	-23.339	0.101
621.000	-24.102	0.101
621.100	-29.119	0.101
621.200	-28.176	0.101
621.300	-20.853	0.101
621.400	-22.258	0.101
621.500	-29.898	0.101
621.600	-35.199	0.101
621.700	-34.305	0.101
621.800	-26.580	0.101
621.900	-27.784	0.101
622.000	-28.608	0.101
622.100	-23.600	0.101
622.200	-30.887	0.101
622.300	-19.606	0.101
622.400	-24.116	0.101
622.500	-23.740	0.101
622.600	-36.123	0.101
622.700	-24.240	0.101
622.800	-31.402	0.101
622.900	-28.332	0.101
623.000	-36.030	0.101
623.100	-29.783	0.101
623.200	-28.185	0.101
623.300	-24.246	0.101
623.400	-30.360	0.101
623.500	-24.328	0.101
623.600	-37.966	0.101
623.700	-22.453	0.101
623.800	-36.527	0.101
623.900	-19.933	0.101
624.000	-34.942	0.101
624.100	-34.563	0.101
624.200	-30.254	0.101
624.300	-24.133	0.101
624.400	-26.109	0.101
624.500	-31.000	0.101
624.600	-29.802	0.101
624.700	-26.417	0.101
624.800	-26.896	0.101
624.900	-38.790	0.101
625.000	-26.564	0.101
625.100	-28.768	0.101
625.200	-35.465	0.101
625.300	-29.902	0.101
625.400	-24.076	0.101
625.500	-32.294	0.101
625.600	-18.075	0.101
625.700	-27.813	0.101
625.800	-29.669	0.101
625.900	-25.698	0.101
626.000	-26.560	0.101
626.100	-24.800	0.101
626.200	-28.283	0.101
626.300	-35.058	0.101
626.400	-32.261	0.101
626.500	-29.813	0.101
626.600	-24.591	0.101
626.700	-17.043	0.101
626.800	-25.603	0.101
626.900	-28.863	0.101
627.000	-32.013	0.101
627.100	-31.209	0.101
627.200	-22.520	0.101
627.300	-22.900	0.101
627.400	-24.812	0.101
627.500	-31.026	0.101
627.600	-35.119	0.101
627.700	-33.043	0.101
627.800	-28.005	0.101
627.900	-33.857	0.101
628.000	-24.688	0.101
628.100	-28.894	0.101
628.200	-25.663	0.101
628.300	-26.407	0.101
628.400	-30.013	0.101
628.500	-30.540	0.101
628.600	-25.690	0.101
628.700	-28.456	0.101
628.800	-31.842	0.101
628.900	-30.343	0.101
629.000	-25.924	0.101
629.100	-21.241	0.101
629.200	-22.021	0.101
629.300	-23.110	0.101
629.400	-21.627	0.101
629.500	-26.371	0.101
629.600	-28.336	0.101
629.700	-30.010	0.101
629.800	-18.735	0.101
629.900	-23.605	0.101
630.000	-24.801	0.101
630.100	-25.995	0.101
630.200	-32.912	0.101
630.300	-30.334	0.101
630.400	-25.654	0.101
630.500	-20.978	0.101
630.600	-22.799	0.101
630.700	-20.553	0.101
630.800	-17.211	0.101
630.900	-21.897	0.101
631.000	-11.103	0.101
631.100	-6.502	0.101
631.200	3.284	0.101
631.300	2.706	0.101
631.400	5.732	0.101
631.500	8.513	0.101
631.600	9.623	0.101
631.700	15.819	0.101
631.800	23.540	0.101
631.900	27.881	0.101
632.000	25.983	0.101
632.100	19.799	0.101
632.200	19.486	0.101
632.300	27.221	0.101
632.400	29.589	0.101
632.500	31.469	0.101
632.600	23.906	0.101
632.700	27.873	0.101
632.800	25.975	0.101
632.900	31.781	0.101
633.000	34.866	0.101
633.100	27.742	0.101
633.200	20.902	0.101
633.300	27.806	0.101
633.400	30.968	0.101
633.500	30.876	0.101
633.600	28.710	0.101
633.700	30.195	0.101
633.800	29.476	0.101
633.900	20.648	0.101
634.000	31.838	0.101
634.100	39.137	0.101
634.200	27.199	0.101
634.300	35.446	0.101
634.400	29.977	0.100
634.500	26.843	0.100
634.600	24.531	0.100
634.700	22.028	0.100
634.800	18.059	0.100
634.900	31.061	0.100
635.000	29.794	0.100
635.100	25.427	0.100
635.200	26.264	0.100
635.300	24.125	0.100
635.400	28.743	0.100
635.500	29.053	0.100
635.600	37.610	0.100
635.700	24.299	0.100
635.800	33.118	0.100
635.900	23.797	0.100
636.000	27.688	0.100
636.100	28.533	0.100
636.200	26.183	0.100
636.300	32.022	0.100
636.400	30.296	0.100
636.500	25.409	0.100
636.600	27.991	0.101
636.700	18.247	0.100
636.800	17.877	0.100
636.900	32.106	0.100
637.000	30.472	0.100
637.100	22.558	0.100
637.200	27.933	0.100
637.300	20.396	0.100
637.400	20.249	0.100
637.500	19.243	0.100
637.600	15.695	0.100
637.700	17.282	0.100
637.800	25.894	0.100
637.900	21.966	0.100
638.000	20.927	0.100
638.100	29.064	0.100
638.200	35.259	0.100
638.300	20.101	0.100
638.400	28.349	0.100
638.500	12.489	0.100
638.600	33.565	0.100
638.700	22.468	0.100
638.800	24.993	0.100
638.900	24.832	0.100
639.000	23.208	0.100
639.100	31.330	0.101
639.200	19.000	0.101
639.300	32.569	0.100
639.400	18.063	0.100
639.500	25.940	0.100
639.600	25.237	0.100
639.700	22.515	0.100
639.800	24.735	0.100
639.900	23.847	0.100
640.000	27.924	0.100
640.100	33.282	0.100
640.200	30.851	0.100
640.300	29.455	0.100
640.400	31.118	0.100
640.500	35.267	0.100
640.600	36.740	0.100
640.700	37.837	0.100
640.800	27.326	0.100
640.900	33.858	0.100
641.000	27.634	0.100
641.100	23.727	0.100
641.200	24.783	0.100
641.300	32.574	0.100
641.400	30.825	0.100
641.500	22.305	0.100
641.600	31.680	0.100
641.700	23.918	0.100
641.800	27.380	0.100
641.900	23.800	0.100
642.000	17.681	0.100
642.100	34.822	0.100
642.200	33.320	0.100
642.300	27.256	0.100
642.400	22.763	0.100
642.500	35.801	0.100
642.600	24.712	0.100
642.700	37.390	0.100
642.800	35.567	0.100
642.900	26.397	0.100
643.000	20.208	0.100
643.100	29.225	0.100
643.200	28.519	0.100
643.300	32.983	0.100
643.400	32.800	0.100
643.500	23.127	0.100
643.600	26.792	0.100
643.700	33.662	0.100
643.800	28.285	0.100
643.900	25.352	0.100
644.000	37.295	0.100
644.100	26.710	0.100
644.200	36.699	0.100
644.300	29.634	0.100
644.400	20.768	0.100
644.500	24.873	0.100
644.600	33.641	0.100
644.700	34.367	0.100
644.800	25.099	0.100
644.900	21.976	0.100
645.000	31.615	0.100
645.100	35.864	0.100
645.200	37.824	0.100
645.300	35.487	0.100
645.400	32.763	0.100
645.500	26.043	0.100
645.600	29.160	0.100
645.700	35.952	0.100
645.800	43.079	0.100
645.900	34.067	0.100
646.000	32.999	0.100
646.100	32.773	0.100
646.200	40.019	0.100
646.300	42.775	0.100
646.400	39.419	0.100
646.500	25.400	0.100
646.600	29.666	0.100
646.700	37.317	0.100
646.800	42.411	0.100
646.900	38.111	0.100
647.000	37.984	0.100
647.100	38.560	0.100
647.200	38.728	0.100
647.300	40.140	0.100
647.400	32.116	0.100
647.500	46.930	0.100
647.600	38.848	0.100
647.700	33.026	0.100
647.800	39.880	0.100
647.900	38.966	0.100
648.000	38.905	0.100
648.100	45.551	0.100
648.200	48.864	0.100
648.300	37.608	0.100
648.400	42.778	0.100
648.500	40.352	0.100
648.600	45.903	0.100
648.700	37.594	0.100
648.800	38.768	0.100
648.900	50.049	0.100
649.000	49.060	0.100
649.100	44.590	0.100
649.200	45.227	0.100
649.300	51.946	0.100
649.400	40.989	0.100
649.500	42.149	0.100
649.600	48.877	0.100
649.700	51.302	0.100
649.800	51.246	0.100
649.900	48.735	0.100
650.000	44.390	0.100
650.100	56.310	0.100
650.200	54.652	0.100
650.300	47.065	0.100
650.400	52.939	0.100
650.500	47.797	0.100
650.600	46.877	0.100
650.700	49.296	0.100
650.800	60.799	0.100
650.900	59.056	0.100
651.000	47.601	0.100
651.100	47.788	0.100
651.200	52.207	0.100
651.300	56.385	0.100
651.400	52.862	0.100
651.500	58.406	0.100
651.600	64.349	0.100
651.700	60.900	0.100
651.800	52.476	0.100
651.900	50.264	0.100
652.000	57.117	0.100
652.100	51.937	0.100
652.200	62.925	0.100
652.300	60.878	0.100
652.400	54.646	0.100
652.500	53.432	0.100
652.600	64.861	0.100
652.700	55.097	0.100
652.800	62.616	0.100
652.900	61.182	0.100
653.000	62.280	0.100
653.100	65.216	0.100
653.200	62.924	0.100
653.300	62.600	0.100
653.400	65.738	0.100
653.500	59.053	0.100
653.600	59.141	0.100
653.700	73.028	0.100
653.800	73.194	0.100
653.900	65.348	0.100
654.000	59.567	0.100
654.100	67.288	0.100
654.200	63.835	0.100
654.300	60.043	0.100
654.400	61.967	0.100
654.500	70.813	0.100
654.600	73.557	0.100
654.700	62.565	0.100
654.800	68.140	0.100
654.900	70.494	0.100
655.000	74.931	0.100
655.100	74.023	0.100
655.200	72.428	0.100
655.300	64.416	0.100
655.400	71.361	0.100
655.500	70.093	0.100
655.600	68.789	0.100
655.700	70.275	0.100
655.800	72.624	0.100
655.900	74.507	0.100
656.000	71.397	0.100
656.100	72.151	0.100
656.200	68.432	0.100
656.300	71.580	0.100
656.400	62.196	0.100
656.500	84.127	0.100
656.600	83.990	0.100
656.700	67.935	0.100
656.800	60.057	0.100
656.900	63.224	0.100
657.000	67.880	0.100
657.100	84.330	0.100
657.200	75.048	0.100
657.300	75.681	0.100
657.400	75.162	0.100
657.500	71.231	0.100
657.600	75.872	0.100
657.700	72.488	0.100
657.800	80.200	0.100
657.900	76.938	0.100
658.000	75.939	0.100
658.100	64.070	0.100
658.200	71.212	0.100
658.300	72.668	0.100
658.400	70.759	0.100
658.500	78.637	0.100
658.600	83.907	0.100
658.700	73.599	0.100
658.800	78.290	0.100
658.900	74.347	0.100
659.000	70.223	0.100
659.100	75.683	0.100
659.200	80.094	0.100
659.300	78.894	0.100
659.400	77.176	0.100
659.500	75.770	0.100
659.600	77.755	0.100
659.700	72.266	0.100
659.800	77.420	0.100
659.900	71.770	0.100
660.000	76.846	0.100
660.100	74.951	0.100
660.200	74.079	0.100
660.300	74.920	0.100
660.400	75.409	0.100
660.500	80.826	0.100
660.600	81.234	0.100
660.700	80.568	0.100
660.800	65.944	0.100
660.900	77.740	0.100
661.000	74.857	0.100
661.100	73.528	0.100
661.200	71.258	0.100
661.300	78.169	0.100
661.400	80.539	0.100
661.500	71.704	0.100
661.600	84.796	0.100
661.700	73.880	0.100
661.800	72.913	0.100
661.900	74.438	0.100
662.000	75.943	0.100
662.100	75.452	0.100
662.200	72.377	0.100
662.300	72.898	0.100
662.400	78.725	0.100
662.500	67.812	0.100
662.600	73.127	0.100
662.700	79.853	0.100
662.800	72.028	0.100
662.900	69.204	0.100
663.000	67.924	0.100
663.100	72.314	0.100
663.200	69.678	0.100
663.300	74.922	0.100
663.400	74.617	0.100
663.500	83.056	0.100
663.600	81.486	0.100
663.700	68.855	0.100
663.800	70.435	0.100
663.900	80.811	0.100
664.000	64.209	0.100
664.100	72.763	0.100
664.200	64.633	0.100
664.300	67.303	0.100
664.400	69.798	0.100
664.500	65.667	0.100
664.600	80.015	0.100
664.700	72.312	0.100
664.800	75.570	0.100
664.900	74.255	0.100
665.000	72.425	0.100
665.100	68.040	0.100
665.200	76.392	0.100
665.300	69.303	0.100
665.400	75.210	0.100
665.500	77.334	0.100
665.600	71.250	0.100
665.700	65.233	0.100
665.800	71.674	0.100
665.900	73.404	0.100
666.000	76.000	0.100
666.100	66.315	0.100
666.200	73.069	0.100
666.300	68.450	0.100
666.400	73.480	0.100
666.500	69.266	0.100
666.600	79.443	0.100
666.700	66.871	0.100
666.800	70.195	0.100
666.900	62.555	0.100
667.000	67.155	0.100
667.100	76.485	0.100
667.200	77.982	0.100
667.300	69.915	0.100
667.400	75.217	0.100
667.500	68.362	0.100
667.600	65.304	0.100
667.700	70.607	0.100
667.800	66.205	0.100
667.900	66.416	0.100
668.000	72.930	0.100
668.100	80.915	0.100
668.200	79.160	0.100
668.300	69.431	0.100
668.400	72.094	0.100
668.500	68.542	0.100
668.600	63.650	0.100
668.700	66.322	0.100
668.800	65.536	0.100
668.900	69.851	0.100
669.000	71.107	0.100
669.100	63.992	0.100
669.200	62.588	0.100
669.300	73.959	0.100
669.400	77.130	0.100
669.500	71.482	0.100
669.600	71.720	0.100
669.700	71.753	0.100
669.800	68.427	0.100
669.900	72.507	0.100
670.000	65.818	0.100
670.100	72.944	0.100
670.200	71.847	0.100
670.300	74.046	0.100
670.400	63.490	0.100
670.500	61.121	0.100
670.600	79.274	0.100
670.700	60.917	0.100
670.800	64.816	0.100
670.900	69.347	0.100
671.000	71.524	0.100
671.100	72.979	0.100
671.200	65.541	0.100
671.300	66.819	0.100
671.400	73.441	0.100
671.500	66.300	0.100
671.600	72.393	0.100
671.700	65.443	0.100
671.800	75.506	0.100
671.900	68.690	0.100
672.000	68.748	0.100
672.100	61.210	0.100
672.200	63.918	0.100
672.300	68.860	0.100
672.400	58.857	0.100
672.500	76.799	0.100
672.600	69.993	0.100
672.700	67.581	0.100
672.800	68.017	0.100
672.900	68.451	0.100
673.000	60.886	0.100
673.100	63.746	0.100
673.200	68.199	0.100
673.300	72.691	0.100
673.400	77.179	0.100
673.500	60.497	0.100
673.600	58.321	0.100
673.700	64.643	0.100
673.800	64.469	0.100
673.900	64.611	0.100
674.000	71.586	0.100
674.100	68.261	0.100
674.200	65.786	0.100
674.300	68.716	0.100
674.400	66.230	0.100
674.500	67.093	0.100
674.600	73.459	0.100
674.700	74.813	0.100
674.800	66.777	0.100
674.900	67.805	0.100
675.000	66.878	0.100
675.100	73.131	0.100
675.200	69.197	0.100
675.300	57.098	0.100
675.400	67.908	0.100
675.500	73.151	0.100
675.600	66.273	0.100
675.700	69.332	0.100
675.800	61.166	0.100
675.900	59.068	0.100
676.000	75.267	0.100
676.100	73.020	0.100
676.200	74.843	0.100
676.300	66.956	0.100
676.400	56.244	0.100
676.500	64.568	0.100
676.600	70.240	0.100
676.700	60.227	0.100
676.800	62.952	0.100
676.900	65.888	0.100
677.000	68.232	0.100
677.100	64.141	0.100
677.200	67.845	0.100
677.300	71.941	0.100
677.400	75.918	0.100
677.500	70.304	0.100
677.600	67.535	0.100
677.700	66.735	0.100
677.800	63.261	0.100
677.900	64.833	0.100
678.000	61.411	0.100
678.100	64.938	0.100
678.200	60.530	0.100
678.300	71.799	0.100
678.400	65.013	0.100
678.500	61.482	0.100
678.600	66.491	0.100
678.700	67.519	0.100
678.800	70.268	0.100
678.900	64.511	0.100
679.000	59.269	0.100
679.100	66.938	0.100
679.200	57.337	0.100
679.300	70.611	0.100
679.400	69.977	0.100
679.500	66.661	0.100
679.600	70.200	0.100
679.700	68.198	0.100
679.800	63.343	0.100
679.900	69.666	0.100
680.000	60.073	0.100
680.100	65.061	0.100
680.200	71.737	0.100
680.300	59.926	0.100
680.400	72.418	0.100
680.500	61.983	0.100
680.600	71.717	0.100
680.700	79.359	0.100
680.800	71.403	0.100
680.900	58.410	0.100
681.000	67.110	0.100
681.100	65.688	0.100
681.200	70.448	0.100
681.300	66.596	0.100
681.400	69.057	0.100
681.500	66.503	0.100
681.600	75.943	0.100
681.700	60.180	0.100
681.800	71.391	0.100
681.900	66.979	0.100
682.000	60.372	0.100
682.100	65.805	0.100
682.200	49.826	0.100
682.300	70.606	0.100
682.400	62.860	0.100
682.500	62.734	0.100
682.600	53.854	0.100
682.700	61.613	0.100
682.800	67.314	0.100
682.900	73.382	0.100
683.000	70.452	0.100
683.100	71.443	0.100
683.200	64.583	0.100
683.300	72.639	0.100
683.400	65.979	0.100
683.500	58.638	0.100
683.600	62.028	0.100
683.700	71.502	0.100
683.800	63.245	0.100
683.900	72.444	0.100
684.000	66.447	0.100
684.100	66.584	0.100
684.200	74.018	0.100
684.300	69.587	0.100
684.400	65.797	0.100
684.500	53.882	0.100
684.600	56.456	0.100
684.700	64.910	0.100
684.800	63.446	0.100
684.900	63.104	0.100
685.000	66.436	0.100
685.100	72.889	0.100
685.200	68.194	0.100
685.300	62.835	0.100
685.400	56.341	0.100
685.500	61.514	0.100
685.600	70.028	0.100
685.700	65.180	0.100
685.800	61.968	0.100
685.900	66.001	0.100
686.000	69.288	0.100
686.100	55.212	0.100
686.200	52.998	0.100
686.300	56.915	0.100
686.400	58.133	0.100
686.500	68.538	0.100
686.600	67.002	0.100
686.700	63.648	0.100
686.800	62.987	0.100
686.900	68.300	0.100
687.000	69.173	0.100
687.100	73.674	0.100
687.200	63.715	0.100
687.300	66.312	0.100
687.400	61.500	0.100
687.500	55.765	0.100
687.600	63.724	0.100
687.700	64.427	0.100
687.800	67.223	0.100
687.900	61.324	0.100
688.000	60.460	0.100
688.100	58.215	0.100
688.200	62.810	0.100
688.300	62.652	0.100
688.400	72.139	0.100
688.500	69.631	0.100
688.600	64.944	0.100
688.700	58.615	0.100
688.800	69.879	0.100
688.900	61.165	0.100
689.000	61.504	0.100
689.100	59.250	0.100
689.200	56.267	0.100
689.300	68.565	0.100
689.400	65.774	0.100
689.500	64.712	0.100
689.600	67.978	0.100
689.700	58.734	0.100
689.800	68.978	0.100
689.900	64.932	0.100
690.000	61.929	0.100
690.100	64.362	0.100
690.200	60.218	0.100
690.300	54.326	0.100
690.400	65.347	0.100
690.500	68.545	0.100
690.600	66.386	0.100
690.700	55.678	0.100
690.800	57.954	0.100
690.900	49.005	0.100
691.000	42.014	0.100
691.100	32.535	0.100
691.200	38.146	0.100
691.300	38.009	0.100
691.400	29.855	0.100
691.500	34.964	0.100
691.600	37.476	0.100
691.700	16.742	0.100
691.800	12.146	0.100
691.900	19.423	0.100
692.000	16.451	0.100
692.100	8.792	0.100
692.200	15.119	0.100
692.300	5.783	0.100
692.400	4.842	0.100
692.500	4.169	0.100
692.600	7.075	0.100
692.700	6.372	0.100
692.800	-0.510	0.100
692.900	-5.603	0.100
693.000	0.289	0.100
693.100	-5.479	0.100
693.200	4.282	0.100
693.300	0.490	0.100
693.400	-4.649	0.100
693.500	-18.110	0.100
693.600	-20.079	0.100
693.700	-8.916	0.100
693.800	-11.327	0.100
693.900	-12.695	0.100
694.000	-7.727	0.100
694.100	-12.923	0.100
694.200	-6.131	0.100
694.300	-10.951	0.100
694.400	-12.584	0.100
694.500	-9.611	0.100
694.600	-16.838	0.100
694.700	-15.953	0.100
694.800	-13.776	0.100
694.900	-7.258	0.100
695.000	-10.846	0.100
695.100	-12.907	0.100
695.200	-28.032	0.100
695.300	-24.111	0.100
695.400	-21.163	0.100
695.500	-5.757	0.100
695.600	-14.607	0.100
695.700	-9.961	0.100
695.800	-22.674	0.100
695.900	-26.357	0.100
696.000	-9.496	0.100
696.100	-19.033	0.100
696.200	-19.317	0.100
696.300	-13.061	0.100
696.400	-10.488	0.100
696.500	-15.400	0.100
696.600	-24.577	0.100
696.700	-18.204	0.100
696.800	-24.501	0.100
696.900	-14.082	0.100
697.000	-10.944	0.100
697.100	-16.968	0.100
697.200	-26.338	0.100
697.300	-23.802	0.100
697.400	-9.321	0.100
697.500	-11.404	0.100
697.600	-14.662	0.100
697.700	-15.646	0.100
697.800	-19.429	0.100
697.900	-30.825	0.100
698.000	-19.243	0.100
698.100	-20.315	0.100
698.200	-15.145	0.100
698.300	-19.280	0.100
698.400	-14.024	0.100
698.500	-12.286	0.100
698.600	-9.336	0.100
698.700	-12.602	0.100
698.800	-18.816	0.100
698.900	-21.319	0.100
699.000	-16.428	0.100
699.100	-18.479	0.100
699.200	-18.501	0.100
699.300	-22.455	0.100
699.400	-11.519	0.100
699.500	-16.974	0.100
699.600	-15.692	0.100
699.700	-14.926	0.100
699.800	-23.232	0.100
699.900	-12.874	0.100
700.000	-18.818	0.100
700.100	-12.438	0.100
700.200	-23.195	0.100
700.300	-10.065	0.100
700.400	-33.260	0.100
700.500	-29.024	0.100
700.600	-15.563	0.100
700.700	-7.999	0.100
700.800	-23.144	0.100
700.900	-17.975	0.100
701.000	-26.346	0.100
701.100	-16.959	0.100
701.200	-22.768	0.100
701.300	-19.592	0.100
701.400	-26.087	0.100
701.500	-18.902	0.100
701.600	-26.798	0.100
701.700	-18.387	0.100
701.800	-15.492	0.100
701.900	-16.309	0.100
702.000	-16.955	0.100
702.100	-17.704	0.100
702.200	-23.675	0.100
702.300	-18.832	0.100
702.400	-25.078	0.100
702.500	-14.629	0.100
702.600	-22.107	0.100
702.700	-30.933	0.100
702.800	-29.413	0.100
702.900	-27.823	0.100
703.000	-22.473	0.100
703.100	-20.050	0.100
703.200	-24.525	0.100
703.300	-21.460	0.100
703.400	-21.016	0.100
703.500	-22.672	0.100
703.600	-23.209	0.100
703.700	-15.344	0.100
703.800	-18.939	0.100
703.900	-21.099	0.100
704.000	-24.809	0.100
704.100	-19.439	0.100
704.200	-29.067	0.100
704.300	-17.855	0.100
704.400	-29.540	0.100
704.500	-19.312	0.100
704.600	-26.434	0.100
704.700	-17.984	0.100
704.800	-25.458	0.100
704.900	-27.433	0.100
705.000	-25.075	0.100
705.100	-24.131	0.100
705.200	-31.116	0.100
705.300	-23.615	0.100
705.400	-34.271	0.100
705.500	-24.019	0.100
705.600	-23.355	0.100
705.700	-20.845	0.100
705.800	-20.418	0.100
705.900	-26.124	0.100
706.000	-29.708	0.100
706.100	-25.481	0.100
706.200	-21.689	0.100
706.300	-20.926	0.100
706.400	-23.125	0.100
706.500	-21.332	0.100
706.600	-28.756	0.100
706.700	-26.403	0.100
706.800	-31.095	0.100
706.900	-27.801	0.100
707.000	-28.689	0.100
707.100	-23.440	0.100
707.200	-28.254	0.100
707.300	-15.041	0.100
707.400	-23.566	0.100
707.500	-24.254	0.100
707.600	-19.338	0.100
707.700	-20.213	0.100
707.800	-30.268	0.100
707.900	-20.486	0.100
708.000	-23.849	0.100
708.100	-26.198	0.100
708.200	-30.046	0.100
708.300	-32.569	0.100
708.400	-39.548	0.100
708.500	-30.096	0.100
708.600	-27.472	0.100
708.700	-24.384	0.100
708.800	-28.482	0.100
708.900	-27.252	0.100
709.000	-28.231	0.100
709.100	-17.159	0.100
709.200	-27.209	0.100
709.300	-21.906	0.100
709.400	-24.714	0.100
709.500	-26.561	0.100
709.600	-29.848	0.100
709.700	-25.492	0.100
709.800	-29.829	0.100
709.900	-24.809	0.100
710.000	-26.420	0.100
710.100	-20.427	0.100
710.200	-24.699	0.100
710.300	-25.059	0.100
710.400	-33.204	0.100
710.500	-17.361	0.100
710.600	-27.141	0.100
710.700	-26.797	0.100
710.800	-36.022	0.100
710.900	-29.195	0.100
711.000	-25.651	0.100
711.100	-34.228	0.100
711.200	-29.458	0.100
711.300	-32.117	0.100
711.400	-26.194	0.100
711.500	-40.261	0.100
711.600	-32.787	0.100
711.700	-30.731	0.100
711.800	-30.725	0.100
711.900	-27.822	0.100
712.000	-38.792	0.100
712.100	-26.541	0.100
712.200	-33.926	0.100
712.300	-29.426	0.100
712.400	-22.854	0.100
712.500	-31.808	0.100
712.600	-28.521	0.100
712.700	-27.367	0.101
712.800	-35.836	0.101
712.900	-29.386	0.101
713.000	-34.452	0.101
713.100	-29.571	0.101
713.200	-31.621	0.101
713.300	-35.488	0.101
713.400	-23.943	0.101
713.500	-41.458	0.101
713.600	-34.722	0.101
713.700	-21.826	0.101
713.800	-22.053	0.101
713.900	-28.950	0.101
714.000	-31.683	0.101
714.100	-40.643	0.101
714.200	-21.567	0.101
714.300	-27.867	0.101
714.400	-38.841	0.100
714.500	-32.588	0.101
714.600	-37.968	0.100
714.700	-34.617	0.101
714.800	-29.890	0.101
714.900	-28.828	0.101
715.000	-33.918	0.101
715.100	-33.545	0.101
715.200	-32.387	0.101
715.300	-24.287	0.101
715.400	-33.192	0.101
715.500	-31.698	0.101
715.600	-43.204	0.101
715.700	-37.096	0.101
715.800	-32.644	0.101
715.900	-28.729	0.101
716.000	-37.975	0.101
716.100	-20.094	0.101
716.200	-36.618	0.100
716.300	-37.322	0.101
716.400	-28.706	0.101
716.500	-36.359	0.101
716.600	-39.448	0.101
716.700	-33.967	0.101
716.800	-36.210	0.100
716.900	-24.108	0.101
717.000	-29.564	0.101
717.100	-37.125	0.101
717.200	-37.629	0.101
717.300	-31.336	0.101
717.400	-39.809	0.101
717.500	-39.389	0.101
717.600	-32.096	0.101
717.700	-30.367	0.101
717.800	-36.903	0.100
717.900	-31.514	0.101
718.000	-29.483	0.101
718.100	-32.694	0.101
718.200	-33.071	0.101
718.300	-37.305	0.100
718.400	-34.409	0.100
718.500	-38.935	0.100
718.600	-33.714	0.100
718.700	-32.043	0.100
718.800	-28.901	0.100
718.900	-34.191	0.100
719.000	-32.376	0.100
719.100	-39.845	0.100
719.200	-34.303	0.101
719.300	-41.900	0.100
719.400	-44.648	0.101
719.500	-41.643	0.100
719.600	-40.620	0.100
719.700	-36.593	0.100
719.800	-34.694	0.100
719.900	-36.176	0.100
720.000	-37.708	0.101
720.100	-34.436	0.100
720.200	-38.729	0.101
720.300	-34.370	0.101
720.400	-38.662	0.101
720.500	-35.344	0.100
720.600	-40.569	0.100
720.700	-31.851	0.101
720.800	-37.343	0.100
720.900	-35.463	0.101
721.000	-36.018	0.101
721.100	-32.613	0.100
721.200	-36.870	0.101
721.300	-42.304	0.100
721.400	-38.107	0.101
721.500	-34.101	0.100
721.600	-37.067	0.100
721.700	-39.445	0.100
721.800	-41.870	0.100
721.900	-41.783	0.100
722.000	-45.132	0.100
722.100	-45.056	0.100
722.200	-42.135	0.100
722.300	-31.773	0.100
722.400	-35.375	0.101
722.500	-36.147	0.100
722.600	-27.575	0.100
722.700	-40.852	0.100
722.800	-32.868	0.100
722.900	-37.139	0.100
723.000	-38.535	0.101
723.100	-30.236	0.100
723.200	-35.065	0.100
723.300	-34.236	0.100
723.400	-34.871	0.100
723.500	-40.282	0.100
723.600	-45.611	0.100
723.700	-35.085	0.100
723.800	-43.363	0.100
723.900	-42.733	0.100
724.000	-32.849	0.100
724.100	-39.155	0.100
724.200	-33.698	0.100
724.300	-39.221	0.100
724.400	-34.302	0.100
724.500	-41.116	0.100
724.600	-43.038	0.100
724.700	-41.887	0.100
724.800	-38.263	0.100
724.900	-30.077	0.100
725.000	-36.405	0.100
725.100	-43.568	0.100
725.200	-40.325	0.100
725.300	-38.271	0.100
725.400	-32.170	0.100
725.500	-38.366	0.100
725.600	-46.899	0.100
725.700	-44.581	0.100
725.800	-43.980	0.100
725.900	-47.271	0.100
726.000	-49.141	0.100
726.100	-45.945	0.100
726.200	-44.574	0.100
726.300	-37.904	0.100
726.400	-33.966	0.100
726.500	-33.831	0.100
726.600	-32.579	0.100
726.700	-34.905	0.100
726.800	-40.791	0.100
726.900	-40.240	0.100
727.000	-47.038	0.100
727.100	-42.221	0.100
727.200	-30.911	0.100
727.300	-42.045	0.100
727.400	-38.533	0.100
727.500	-45.472	0.100
727.600	-42.807	0.100
727.700	-38.850	0.100
727.800	-35.809	0.100
727.900	-35.209	0.100
728.000	-46.802	0.100
728.100	-39.837	0.100
728.200	-40.127	0.100
728.300	-45.988	0.100
728.400	-47.674	0.100
728.500	-43.304	0.100
728.600	-35.792	0.100
728.700	-41.676	0.100
728.800	-41.287	0.100
728.900	-31.053	0.100
729.000	-41.219	0.100
729.100	-44.070	0.100
729.200	-38.935	0.100
729.300	-49.588	0.100
729.400	-39.974	0.100
729.500	-46.616	0.100
729.600	-39.779	0.100
729.700	-44.746	0.100
729.800	-40.899	0.100
729.900	-38.631	0.100
730.000	-39.051	0.100
730.100	-39.619	0.100
730.200	-36.778	0.100
730.300	-43.413	0.100
730.400	-42.321	0.100
730.500	-42.554	0.100
730.600	-36.512	0.100
730.700	-35.434	0.100
730.800	-42.982	0.100
730.900	-39.008	0.100
731.000	-38.950	0.100
731.100	-39.646	0.100
731.200	-39.578	0.100
731.300	-34.091	0.100
731.400	-43.179	0.100
731.500	-41.165	0.100
731.600	-41.069	0.100
731.700	-37.340	0.100
731.800	-35.852	0.100
731.900	-47.940	0.100
732.000	-45.570	0.100
732.100	-35.960	0.100
732.200	-37.145	0.100
732.300	-38.685	0.100
732.400	-32.039	0.100
732.500	-31.779	0.100
732.600	-42.572	0.100
732.700	-40.626	0.100
732.800	-38.320	0.100
732.900	-39.074	0.100
733.000	-47.486	0.100
733.100	-35.259	0.100
733.200	-39.229	0.100
733.300	-34.604	0.100
733.400	-37.591	0.100
733.500	-32.154	0.100
733.600	-47.317	0.100
733.700	-43.432	0.100
733.800	-41.186	0.100
733.900	-41.813	0.100
734.000	-37.579	0.100
734.100	-40.519	0.100
734.200	-33.782	0.100
734.300	-42.259	0.100
734.400	-43.785	0.100
734.500	-36.302	0.100
734.600	-34.312	0.100
734.700	-40.127	0.100
734.800	-34.179	0.100
734.900	-41.490	0.100
735.000	-35.467	0.100
735.100	-41.600	0.100
735.200	-42.325	0.100
735.300	-46.725	0.100
735.400	-43.318	0.100
735.500	-33.253	0.100
735.600	-25.799	0.100
735.700	-43.377	0.100
735.800	-40.409	0.100
735.900	-36.136	0.100
736.000	-39.432	0.100
736.100	-33.341	0.100
736.200	-37.322	0.100
736.300	-34.419	0.100
736.400	-38.518	0.100
736.500	-40.395	0.100
736.600	-41.641	0.100
736.700	-41.308	0.100
736.800	-42.455	0.100
736.900	-51.156	0.100
737.000	-42.955	0.100
737.100	-49.333	0.100
737.200	-37.065	0.100
737.300	-28.556	0.100
737.400	-36.006	0.100
737.500	-37.325	0.100
737.600	-32.959	0.100
737.700	-42.916	0.100
737.800	-49.660	0.100
737.900	-43.367	0.100
738.000	-37.307	0.100
738.100	-47.009	0.100
738.200	-38.165	0.100
738.300	-46.898	0.100
738.400	-51.711	0.100
738.500	-44.388	0.100
738.600	-44.986	0.100
738.700	-37.017	0.100
738.800	-34.176	0.100
738.900	-38.263	0.100
739.000	-38.075	0.100
739.100	-26.401	0.100
739.200	-37.509	0.100
739.300	-40.041	0.100
739.400	-39.363	0.100
739.500	-41.328	0.100
739.600	-33.321	0.100
739.700	-42.594	0.100
739.800	-51.480	0.100
739.900	-36.930	0.100
740.000	-44.917	0.100
740.100	-40.439	0.100
740.200	-40.871	0.100
740.300	-37.818	0.100
740.400	-37.582	0.100
740.500	-43.838	0.100
740.600	-37.466	0.100
740.700	-42.483	0.100
740.800	-53.584	0.100
740.900	-43.140	0.100
741.000	-31.084	0.100
741.100	-32.117	0.100
741.200	-31.012	0.100
741.300	-39.734	0.100
741.400	-38.704	0.100
741.500	-48.183	0.100
741.600	-33.928	0.100
741.700	-38.491	0.100
741.800	-37.918	0.100
741.900	-44.937	0.100
742.000	-46.961	0.100
742.100	-47.335	0.100
742.200	-38.238	0.100
742.300	-39.445	0.100
742.400	-29.057	0.100
742.500	-35.882	0.100
742.600	-46.266	0.100
742.700	-37.171	0.100
742.800	-39.586	0.100
742.900	-43.007	0.100
743.000	-35.834	0.100
743.100	-45.465	0.100
743.200	-42.596	0.100
743.300	-45.559	0.100
743.400	-40.904	0.100
743.500	-37.295	0.100
743.600	-36.096	0.100
743.700	-42.940	0.100
743.800	-39.803	0.100
743.900	-39.266	0.100
744.000	-35.868	0.100
744.100	-33.484	0.100
744.200	-41.654	0.100
744.300	-48.162	0.100
744.400	-30.781	0.100
744.500	-37.725	0.100
744.600	-29.153	0.100
744.700	-33.448	0.100
744.800	-46.958	0.100
744.900	-47.454	0.100
745.000	-41.229	0.100
745.100	-38.573	0.100
745.200	-35.535	0.100
745.300	-32.849	0.100
745.400	-28.495	0.100
745.500	-38.443	0.100
745.600	-49.204	0.100
745.700	-44.445	0.100
745.800	-39.588	0.100
745.900	-45.505	0.100
746.000	-37.016	0.100
746.100	-35.449	0.100
746.200	-45.301	0.100
746.300	-40.977	0.100
746.400	-40.070	0.100
746.500	-33.935	0.100
746.600	-26.573	0.100
746.700	-25.828	0.100
746.800	-46.257	0.100
746.900	-38.537	0.100
747.000	-36.414	0.100
747.100	-33.575	0.100
747.200	-43.915	0.100
747.300	-27.478	0.100
747.400	-39.624	0.100
747.500	-39.758	0.100
747.600	-47.539	0.100
747.700	-40.152	0.100
747.800	-38.105	0.100
747.900	-29.718	0.100
748.000	-38.550	0.100
748.100	-43.649	0.100
748.200	-41.463	0.100
748.300	-31.409	0.100
748.400	-38.639	0.100
748.500	-40.239	0.100
748.600	-42.578	0.100
748.700	-37.730	0.100
748.800	-48.322	0.100
748.900	-39.181	0.100
749.000	-35.521	0.100
749.100	-35.711	0.100
749.200	-48.300	0.100
749.300	-39.662	0.100
749.400	-41.860	0.100
749.500	-33.805	0.100
749.600	-33.216	0.100
749.700	-32.765	0.100
749.800	-42.298	0.100
749.900	-37.442	0.100
750.000	-32.740	0.100
750.100	-34.668	0.100
750.200	-32.315	0.100
750.300	-40.529	0.100
750.400	-33.649	0.100
750.500	-35.468	0.100
750.600	-43.450	0.100
750.700	-34.772	0.100
750.800	-37.129	0.100
750.900	-36.527	0.100
751.000	-34.478	0.100
751.100	-36.075	0.100
751.200	-37.551	0.100
751.300	-37.408	0.100
751.400	-36.152	0.100
751.500	-41.479	0.100
751.600	-37.507	0.100
751.700	-29.359	0.100
751.800	-33.767	0.100
751.900	-38.635	0.100
752.000	-33.123	0.100
752.100	-35.548	0.100
752.200	-30.320	0.100
752.300	-43.666	0.100
752.400	-26.453	0.100
752.500	-34.264	0.100
752.600	-34.211	0.100
752.700	-30.248	0.100
752.800	-36.946	0.100
752.900	-42.552	0.100
753.000	-35.719	0.100
753.100	-34.046	0.100
753.200	-35.048	0.100
753.300	-38.591	0.100
753.400	-39.750	0.100
753.500	-36.235	0.100
753.600	-35.086	0.100
753.700	-35.894	0.100
753.800	-22.810	0.100
753.900	-32.603	0.100
754.000	-31.836	0.100
754.100	-39.748	0.100
754.200	-40.885	0.100
754.300	-35.951	0.100
754.400	-33.666	0.100
754.500	-30.735	0.100
754.600	-35.598	0.100
754.700	-37.873	0.100
754.800	-39.209	0.100
754.900	-26.292	0.100
755.000	-36.943	0.100
755.100	-37.224	0.100
755.200	-29.227	0.100
755.300	-36.049	0.100
755.400	-35.312	0.100
755.500	-31.892	0.100
755.600	-31.474	0.100
755.700	-38.475	0.100
755.800	-27.540	0.100
755.900	-35.621	0.100
756.000	-34.557	0.100
756.100	-30.357	0.100
756.200	-33.938	0.100
756.300	-46.457	0.100
756.400	-45.615	0.100
756.500	-29.594	0.100
756.600	-34.358	0.100
756.700	-44.852	0.100
756.800	-36.540	0.100
756.900	-37.774	0.100
757.000	-39.831	0.100
757.100	-30.449	0.100
757.200	-30.046	0.100
757.300	-31.954	0.100
757.400	-34.666	0.100
757.500	-31.167	0.100
757.600	-37.468	0.100
757.700	-26.912	0.100
757.800	-40.981	0.100
757.900	-38.423	0.100
758.000	-42.372	0.100
758.100	-34.818	0.100
758.200	-33.068	0.100
758.300	-35.948	0.100
758.400	-35.099	0.100
758.500	-31.529	0.100
758.600	-33.018	0.100
758.700	-39.525	0.100
758.800	-41.571	0.100
758.900	-24.941	0.100
759.000	-35.196	0.100
759.100	-36.231	0.100
759.200	-36.425	0.100
759.300	-30.459	0.100
759.400	-36.370	0.100
759.500	-41.199	0.100
759.600	-39.470	0.100
759.700	-34.458	0.100
759.800	-37.284	0.100
759.900	-33.580	0.100
760.000	-32.658	0.100
760.100	-29.247	0.100
760.200	-37.248	0.100
760.300	-30.775	0.100
760.400	-38.712	0.100
760.500	-28.267	0.100
760.600	-34.525	0.100
760.700	-25.014	0.100
760.800	-31.891	0.100
760.900	-42.343	0.100
761.000	-32.783	0.100
761.100	-28.463	0.100
761.200	-29.890	0.100
761.300	-22.974	0.100
761.400	-38.065	0.100
761.500	-29.596	0.100
761.600	-37.218	0.100
761.700	-29.503	0.100
761.800	-35.154	0.100
761.900	-41.799	0.100
762.000	-37.235	0.100
762.100	-39.615	0.100
762.200	-33.310	0.100
762.300	-35.671	0.100
762.400	-36.519	0.100
762.500	-29.007	0.100
762.600	-24.591	0.100
762.700	-32.872	0.100
762.800	-30.708	0.100
762.900	-34.424	0.100
763.000	-24.600	0.100
763.100	-34.176	0.100
763.200	-23.852	0.100
763.300	-30.875	0.100
763.400	-20.209	0.100
763.500	-32.398	0.100
763.600	-38.408	0.100
763.700	-39.927	0.100
763.800	-35.031	0.100
763.900	-32.616	0.100
764.000	-35.969	0.100
764.100	-35.807	0.100
764.200	-34.620	0.100
764.300	-31.136	0.100
764.400	-34.926	0.100
764.500	-32.873	0.100
764.600	-33.794	0.100
764.700	-28.270	0.100
764.800	-32.043	0.100
764.900	-24.876	0.100
765.000	-34.557	0.100
765.100	-32.372	0.100
765.200	-35.276	0.100
765.300	-37.692	0.100
765.400	-30.819	0.100
765.500	-35.661	0.100
765.600	-25.996	0.100
765.700	-38.817	0.100
765.800	-31.348	0.100
765.900	-33.468	0.100
766.000	-39.612	0.100
766.100	-31.360	0.100
766.200	-31.791	0.100
766.300	-25.167	0.100
766.400	-29.001	0.100
766.500	-31.201	0.100
766.600	-28.429	0.100
766.700	-38.783	0.100
766.800	-34.449	0.100
766.900	-30.115	0.100
767.000	-29.838	0.100
767.100	-25.613	0.100
767.200	-36.398	0.100
767.300	-31.348	0.100
767.400	-29.381	0.100
767.500	-35.590	0.100
767.600	-32.911	0.100
767.700	-32.297	0.100
767.800	-28.040	0.100
767.900	-34.985	0.100
768.000	-41.595	0.100
768.100	-36.940	0.100
768.200	-34.491	0.100
768.300	-32.869	0.100
768.400	-31.496	0.100
768.500	-30.189	0.100
768.600	-33.062	0.100
768.700	-29.656	0.100
768.800	-30.462	0.100
768.900	-28.249	0.100
769.000	-24.982	0.100
769.100	-26.686	0.100
769.200	-36.222	0.100
769.300	-33.373	0.100
769.400	-39.136	0.100
769.500	-29.530	0.100
769.600	-28.676	0.100
769.700	-30.595	0.100
769.800	-30.314	0.100
769.900	-44.227	0.100
770.000	-34.491	0.100
770.100	-36.466	0.100
770.200	-35.246	0.100
770.300	-29.965	0.100
770.400	-36.018	0.100
770.500	-28.549	0.100
770.600	-32.305	0.100
770.700	-31.965	0.100
770.800	-25.722	0.100
770.900	-30.169	0.100
771.000	-27.658	0.100
771.100	-36.840	0.100
771.200	-33.193	0.100
771.300	-37.119	0.100
771.400	-33.069	0.100
771.500	-33.330	0.100
771.600	-32.914	0.100
771.700	-33.860	0.100
771.800	-29.034	0.100
771.900	-30.451	0.100
772.000	-23.023	0.100
772.100	-24.995	0.100
772.200	-27.122	0.100
772.300	-25.508	0.100
772.400	-28.783	0.100
772.500	-31.310	0.100
772.600	-24.552	0.100
772.700	-34.969	0.100
772.800	-33.652	0.100
772.900	-23.856	0.100
773.000	-33.039	0.100
773.100	-32.327	0.100
773.200	-32.398	0.100
773.300	-26.152	0.100
773.400	-25.361	0.100
773.500	-34.770	0.100
773.600	-23.644	0.100
773.700	-27.874	0.100
773.800	-32.227	0.100
773.900	-30.760	0.100
774.000	-32.049	0.100
774.100	-36.457	0.100
774.200	-34.814	0.100
774.300	-29.756	0.101
774.400	-29.649	0.101
774.500	-29.962	0.101
774.600	-27.444	0.101
774.700	-21.486	0.101
774.800	-14.884	0.101
774.900	-29.481	0.101
775.000	-31.673	0.101
775.100	-28.849	0.101
775.200	-28.024	0.101
775.300	-27.660	0.101
775.400	-36.940	0.101
775.500	-36.967	0.101
775.600	-36.803	0.101
775.700	-31.654	0.101
775.800	-25.125	0.101
775.900	-26.210	0.101
776.000	-32.113	0.101
776.100	-31.118	0.101
776.200	-35.693	0.101
776.300	-28.839	0.101
776.400	-22.574	0.101
776.500	-23.216	0.101
776.600	-30.000	0.101
776.700	-33.582	0.101
776.800	-36.399	0.101
776.900	-27.964	0.101
777.000	-32.527	0.101
777.100	-34.122	0.101
777.200	-32.103	0.101
777.300	-31.385	0.101
777.400	-24.268	0.101
777.500	-32.083	0.101
777.600	-25.362	0.101
777.700	-25.893	0.101
777.800	-31.836	0.101
777.900	-24.029	0.101
778.000	-24.856	0.101
778.100	-26.893	0.101
778.200	-32.343	0.101
778.300	-30.166	0.101
778.400	-25.674	0.101
778.500	-24.622	0.101
778.600	-37.384	0.101
778.700	-29.524	0.101
778.800	-31.171	0.101
778.900	-22.231	0.101
779.000	-32.632	0.101
779.100	-26.653	0.101
779.200	-30.595	0.101
779.300	-27.153	0.101
779.400	-26.189	0.101
779.500	-21.974	0.101
779.600	-19.764	0.101
779.700	-26.902	0.101
779.800	-26.345	0.101
779.900	-33.429	0.101
780.000	-29.358	0.101
780.100	-22.495	0.101
780.200	-34.486	0.101
780.300	-30.518	0.101
780.400	-30.320	0.101
780.500	-24.036	0.101
780.600	-26.458	0.101
780.700	-22.765	0.101
780.800	-26.136	0.101
780.900	-19.216	0.101
781.000	-11.325	0.101
781.100	-11.109	0.101
781.200	-2.773	0.101
781.300	0.751	0.101
781.400	-1.609	0.101
781.500	9.102	0.101
781.600	14.993	0.101
781.700	19.566	0.101
781.800	12.951	0.101
781.900	19.533	0.101
782.000	19.565	0.101
782.100	20.688	0.101
782.200	34.253	0.101
782.300	36.496	0.101
782.400	33.343	0.101
782.500	21.387	0.101
782.600	29.862	0.101
782.700	28.211	0.101
782.800	28.059	0.101
782.900	31.481	0.101
783.000	29.502	0.101
783.100	31.257	0.101
783.200	33.878	0.101
783.300	28.362	0.101
783.400	28.758	0.101
783.500	38.447	0.101
783.600	31.928	0.101
783.700	30.322	0.101
783.800	36.046	0.101
783.900	33.668	0.101
784.000	26.150	0.101
784.100	16.932	0.101
784.200	34.343	0.101
784.300	25.860	0.101
784.400	30.633	0.101
784.500	30.854	0.101
784.600	23.621	0.101
784.700	31.072	0.101
784.800	26.537	0.101
784.900	31.319	0.101
785.000	24.792	0.101
785.100	30.737	0.101
785.200	37.964	0.101
785.300	26.400	0.101
785.400	28.939	0.101
785.500	24.140	0.101
785.600	27.513	0.101
785.700	27.360	0.101
785.800	22.423	0.101
785.900	33.665	0.101
786.000	20.945	0.101
786.100	20.407	0.101
786.200	35.429	0.101
786.300	28.304	0.101
786.400	22.953	0.101
786.500	34.580	0.101
786.600	21.884	0.101
786.700	20.720	0.101
786.800	16.208	0.101
786.900	26.057	0.101
787.000	25.202	0.101
787.100	24.323	0.101
787.200	29.523	0.101
787.300	25.675	0.101
787.400	28.020	0.101
787.500	26.985	0.101
787.600	18.164	0.101
787.700	22.282	0.101
787.800	23.418	0.101
787.900	13.162	0.101
788.000	20.660	0.101
788.100	23.597	0.101
788.200	35.708	0.101
788.300	17.289	0.101
788.400	17.031	0.101
788.500	25.708	0.101
788.600	20.705	0.101
788.700	29.790	0.101
788.800	26.029	0.101
788.900	13.462	0.101
789.000	26.542	0.101
789.100	30.756	0.101
789.200	30.765	0.101
789.300	23.041	0.101
789.400	23.649	0.101
789.500	28.948	0.101
789.600	29.609	0.101
789.700	27.399	0.101
789.800	26.346	0.101
789.900	27.330	0.101
790.000	25.560	0.101
790.100	29.759	0.101
790.200	31.633	0.101
790.300	25.078	0.101
790.400	26.614	0.101
790.500	21.810	0.101
790.600	22.379	0.101
790.700	27.004	0.101
790.800	35.248	0.101
790.900	32.715	0.101
791.000	29.570	0.101
791.100	26.084	0.101
791.200	27.951	0.101
791.300	30.441	0.101
791.400	20.898	0.101
791.500	29.203	0.101
791.600	24.144	0.101
791.700	31.965	0.101
791.800	22.256	0.101
791.900	42.476	0.101
792.000	25.474	0.101
792.100	31.733	0.101
792.200	19.924	0.101
792.300	27.762	0.101
792.400	28.367	0.101
792.500	25.815	0.101
792.600	28.049	0.101
792.700	31.410	0.101
792.800	23.519	0.101
792.900	26.445	0.101
793.000	29.510	0.101
793.100	27.585	0.101
793.200	28.440	0.101
793.300	23.097	0.101
793.400	33.954	0.101
793.500	30.161	0.101
793.600	24.368	0.101
793.700	31.742	0.101
793.800	29.895	0.101
793.900	39.238	0.101
794.000	25.965	0.101
794.100	25.850	0.101
794.200	27.152	0.101
794.300	29.389	0.101
794.400	32.481	0.101
794.500	27.907	0.101
794.600	32.795	0.101
794.700	24.486	0.101
794.800	32.488	0.101
794.900	30.420	0.101
795.000	32.982	0.101
795.100	31.610	0.101
795.200	32.424	0.101
795.300	28.226	0.101
795.400	27.637	0.101
795.500	35.336	0.101
795.600	38.728	0.101
795.700	40.216	0.101
795.800	38.465	0.101
795.900	33.326	0.101
796.000	22.957	0.101
796.100	36.008	0.101
796.200	29.535	0.101
796.300	33.203	0.101
796.400	41.296	0.101
796.500	37.812	0.101
796.600	29.533	0.101
796.700	33.604	0.101
796.800	29.238	0.101
796.900	36.915	0.101
797.000	37.777	0.101
797.100	43.545	0.101
797.200	35.975	0.101
797.300	39.788	0.101
797.400	42.485	0.101
797.500	36.657	0.101
797.600	44.794	0.101
797.700	45.712	0.101
797.800	44.381	0.101
797.900	38.775	0.100
798.000	38.147	0.101
798.100	39.286	0.100
798.200	42.016	0.101
798.300	44.491	0.100
798.400	40.178	0.100
798.500	41.797	0.100
798.600	41.889	0.100
798.700	47.163	0.100
798.800	47.162	0.100
798.900	39.924	0.100
799.000	34.877	0.101
799.100	42.523	0.100
799.200	43.508	0.100
799.300	50.496	0.100
799.400	48.214	0.100
799.500	47.407	0.100
799.600	53.780	0.100
799.700	47.395	0.100
799.800	53.395	0.101
799.900	44.547	0.101
800.000	50.923	0.101
