time /s	I /nA	E /V
0.100	-27.453	0.100
0.200	-26.053	0.100
0.300	-28.367	0.100
0.400	-32.904	0.100
0.500	-24.685	0.100
0.600	-29.482	0.100
0.700	-27.286	0.100
0.800	-20.796	0.100
0.900	-18.337	0.100
1.000	-24.401	0.100
1.100	-21.569	0.100
1.200	-20.979	0.100
1.300	-28.962	0.100
1.400	-22.407	0.100
1.500	-29.112	0.100
1.600	-31.502	0.100
1.700	-22.278	0.100
1.800	-30.410	0.100
1.900	-29.146	0.100
2.000	-27.391	0.100
2.100	-22.197	0.100
2.200	-25.288	0.100
2.300	-22.737	0.100
2.400	-27.862	0.100
2.500	-36.111	0.100
2.600	-21.531	0.100
2.700	-14.075	0.100
2.800	-21.008	0.100
2.900	-20.791	0.100
3.000	-27.605	0.100
3.100	-24.353	0.100
3.200	-27.882	0.100
3.300	-31.078	0.100
3.400	-8.318	0.100
3.500	-22.274	0.100
3.600	-23.363	0.100
3.700	-27.406	0.100
3.800	-30.248	0.100
3.900	-25.865	0.100
4.000	-21.654	0.100
4.100	-23.681	0.100
4.200	-15.404	0.100
4.300	-25.101	0.100
4.400	-26.039	0.100
4.500	-28.932	0.100
4.600	-26.267	0.100
4.700	-22.056	0.100
4.800	-21.368	0.100
4.900	-16.107	0.100
5.000	-15.001	0.100
5.100	-36.066	0.100
5.200	-25.356	0.100
5.300	-28.772	0.100
5.400	-25.566	0.100
5.500	-18.188	0.100
5.600	-22.022	0.100
5.700	-22.700	0.100
5.800	-24.784	0.100
5.900	-17.144	0.100
6.000	-28.516	0.100
6.100	-17.805	0.100
6.200	-25.491	0.100
6.300	-31.608	0.100
6.400	-26.521	0.100
6.500	-26.660	0.100
6.600	-26.739	0.100
6.700	-12.459	0.100
6.800	-23.594	0.100
6.900	-27.154	0.100
7.000	-15.359	0.100
7.100	-26.093	0.100
7.200	-21.707	0.100
7.300	-25.301	0.100
7.400	-23.750	0.100
7.500	-20.950	0.100
7.600	-26.389	0.100
7.700	-27.607	0.100
7.800	-20.446	0.100
7.900	-25.047	0.100
8.000	-24.090	0.100
8.100	-22.280	0.100
8.200	-31.053	0.100
8.300	-29.799	0.100
8.400	-23.281	0.100
8.500	-24.277	0.100
8.600	-18.942	0.100
8.700	-21.661	0.100
8.800	-25.009	0.100
8.900	-26.755	0.100
9.000	-29.326	0.100
9.100	-24.468	0.100
9.200	-19.784	0.100
9.300	-24.099	0.100
9.400	-26.502	0.100
9.500	-21.037	0.100
9.600	-25.457	0.100
9.700	-26.913	0.100
9.800	-19.282	0.100
9.900	-22.180	0.100
10.000	-21.372	0.100
10.100	-26.431	0.100
10.200	-15.131	0.100
10.300	-15.596	0.100
10.400	-28.099	0.100
10.500	-37.417	0.100
10.600	-24.065	0.100
10.700	-23.940	0.100
10.800	-27.447	0.100
10.900	-21.891	0.100
11.000	-21.378	0.100
11.100	-21.474	0.100
11.200	-20.041	0.100
11.300	-21.086	0.100
11.400	-24.568	0.100
11.500	-28.604	0.100
11.600	-29.736	0.100
11.700	-18.049	0.100
11.800	-24.910	0.100
11.900	-20.663	0.100
12.000	-17.714	0.100
12.100	-25.045	0.100
12.200	-19.182	0.100
12.300	-19.690	0.100
12.400	-15.170	0.100
12.500	-27.344	0.100
12.600	-21.999	0.100
12.700	-25.517	0.100
12.800	-20.849	0.100
12.900	-16.863	0.100
13.000	-23.153	0.100
13.100	-21.812	0.100
13.200	-29.606	0.100
13.300	-28.879	0.100
13.400	-12.385	0.100
13.500	-24.184	0.100
13.600	-25.434	0.100
13.700	-21.254	0.100
13.800	-33.083	0.100
13.900	-20.337	0.100
14.000	-16.217	0.100
14.100	-22.163	0.100
14.200	-21.046	0.100
14.300	-20.057	0.100
14.400	-37.877	0.100
14.500	-15.873	0.100
14.600	-16.327	0.100
14.700	-18.282	0.100
14.800	-28.709	0.100
14.900	-23.960	0.100
15.000	-19.973	0.100
15.100	-19.930	0.100
15.200	-26.538	0.100
15.300	-22.731	0.100
15.400	-17.068	0.100
15.500	-32.102	0.100
15.600	-21.494	0.100
15.700	-16.931	0.100
15.800	-20.561	0.100
15.900	-16.019	0.100
16.000	-17.522	0.100
16.100	-23.134	0.100
16.200	-27.231	0.100
16.300	-19.116	0.100
16.400	-25.529	0.100
16.500	-21.852	0.100
16.600	-17.730	0.100
16.700	-18.983	0.100
16.800	-28.702	0.100
16.900	-34.320	0.100
17.000	-21.335	0.100
17.100	-19.116	0.100
17.200	-22.779	0.100
17.300	-22.833	0.100
17.400	-26.125	0.100
17.500	-24.682	0.100
17.600	-26.888	0.100
17.700	-15.370	0.100
17.800	-32.219	0.100
17.900	-20.998	0.100
18.000	-23.493	0.100
18.100	-27.400	0.100
18.200	-17.833	0.100
18.300	-16.892	0.100
18.400	-20.111	0.100
18.500	-26.571	0.100
18.600	-23.583	0.100
18.700	-16.879	0.100
18.800	-21.754	0.100
18.900	-13.536	0.100
19.000	-15.253	0.100
19.100	-28.203	0.100
19.200	-30.705	0.100
19.300	-22.727	0.100
19.400	-24.758	0.100
19.500	-20.118	0.100
19.600	-21.453	0.100
19.700	-24.414	0.100
19.800	-13.978	0.100
19.900	-26.810	0.100
20.000	-22.969	0.100
20.100	-15.448	0.100
20.200	-20.837	0.100
20.300	-19.936	0.100
20.400	-18.245	0.100
20.500	-12.758	0.100
20.600	-23.857	0.100
20.700	-17.440	0.100
20.800	-30.802	0.100
20.900	-21.980	0.100
21.000	-20.864	0.100
21.100	-22.593	0.100
21.200	-24.652	0.100
21.300	-13.581	0.100
21.400	-11.810	0.100
21.500	-17.515	0.100
21.600	-14.938	0.100
21.700	-21.774	0.100
21.800	-12.137	0.100
21.900	-26.131	0.100
22.000	-23.739	0.100
22.100	-26.296	0.100
22.200	-22.021	0.100
22.300	-25.092	0.100
22.400	-21.962	0.100
22.500	-19.008	0.100
22.600	-29.394	0.100
22.700	-22.230	0.100
22.800	-20.232	0.100
22.900	-29.025	0.100
23.000	-27.560	0.100
23.100	-27.351	0.100
23.200	-19.157	0.100
23.300	-18.003	0.100
23.400	-21.999	0.100
23.500	-21.777	0.100
23.600	-14.097	0.100
23.700	-29.277	0.100
23.800	-21.517	0.100
23.900	-14.687	0.100
24.000	-25.036	0.100
24.100	-21.413	0.100
24.200	-23.658	0.100
24.300	-30.362	0.100
24.400	-19.587	0.100
24.500	-18.159	0.100
24.600	-16.785	0.100
24.700	-24.129	0.100
24.800	-24.580	0.100
24.900	-24.510	0.100
25.000	-15.319	0.100
25.100	-25.279	0.100
25.200	-16.244	0.100
25.300	-16.721	0.100
25.400	-17.622	0.100
25.500	-24.207	0.100
25.600	-22.797	0.100
25.700	-19.373	0.100
25.800	-20.652	0.100
25.900	-15.879	0.100
26.000	-24.694	0.100
26.100	-22.917	0.100
26.200	-12.565	0.100
26.300	-20.157	0.100
26.400	-20.874	0.100
26.500	-24.417	0.100
26.600	-15.866	0.100
26.700	-20.477	0.100
26.800	-26.808	0.100
26.900	-25.080	0.100
27.000	-15.766	0.100
27.100	-22.776	0.100
27.200	-28.409	0.100
27.300	-21.074	0.100
27.400	-17.585	0.100
27.500	-14.995	0.100
27.600	-18.956	0.100
27.700	-21.702	0.100
27.800	-23.511	0.100
27.900	-27.089	0.100
28.000	-16.736	0.100
28.100	-18.577	0.100
28.200	-22.009	0.100
28.300	-18.464	0.100
28.400	-28.957	0.100
28.500	-17.737	0.100
28.600	-28.615	0.100
28.700	-20.811	0.100
28.800	-11.617	0.100
28.900	-14.894	0.100
29.000	-20.382	0.100
29.100	-17.375	0.100
29.200	-21.922	0.100
29.300	-20.630	0.100
29.400	-24.432	0.100
29.500	-14.679	0.100
29.600	-19.294	0.100
29.700	-23.652	0.100
29.800	-22.441	0.100
29.900	-6.068	0.100
30.000	-16.743	0.100
30.100	-6.206	0.100
30.200	9.751	0.100
30.300	-6.072	0.100
30.400	-6.958	0.100
30.500	4.061	0.100
30.600	3.527	0.100
30.700	15.770	0.100
30.800	10.930	0.100
30.900	9.132	0.100
31.000	15.559	0.100
31.100	16.949	0.100
31.200	15.552	0.100
31.300	14.155	0.100
31.400	15.890	0.100
31.500	25.463	0.100
31.600	22.355	0.100
31.700	12.480	0.100
31.800	20.086	0.100
31.900	24.877	0.100
32.000	17.827	0.100
32.100	30.060	0.100
32.200	21.422	0.100
32.300	18.115	0.100
32.400	21.751	0.100
32.500	22.437	0.100
32.600	27.097	0.100
32.700	21.397	0.100
32.800	27.874	0.100
32.900	21.919	0.100
33.000	27.809	0.100
33.100	35.070	0.100
33.200	23.660	0.100
33.300	25.923	0.100
33.400	24.331	0.100
33.500	21.448	0.100
33.600	17.336	0.100
33.700	26.149	0.100
33.800	15.916	0.100
33.900	35.118	0.100
34.000	23.025	0.100
34.100	25.841	0.100
34.200	29.509	0.100
34.300	14.432	0.100
34.400	22.819	0.100
34.500	22.818	0.100
34.600	17.960	0.100
34.700	21.321	0.100
34.800	23.931	0.100
34.900	23.716	0.100
35.000	23.316	0.100
35.100	14.725	0.100
35.200	20.355	0.100
35.300	22.058	0.100
35.400	20.729	0.100
35.500	19.942	0.100
35.600	11.113	0.100
35.700	28.256	0.100
35.800	23.742	0.100
35.900	22.451	0.100
36.000	18.645	0.100
36.100	9.571	0.100
36.200	15.088	0.100
36.300	14.286	0.100
36.400	15.961	0.100
36.500	20.655	0.100
36.600	12.966	0.100
36.700	18.297	0.100
36.800	10.061	0.100
36.900	33.015	0.100
37.000	23.200	0.100
37.100	21.193	0.100
37.200	15.242	0.100
37.300	12.878	0.100
37.400	20.440	0.100
37.500	16.480	0.100
37.600	13.493	0.100
37.700	18.660	0.100
37.800	21.934	0.100
37.900	15.062	0.100
38.000	15.877	0.100
38.100	16.829	0.100
38.200	26.853	0.100
38.300	19.044	0.100
38.400	8.627	0.100
38.500	16.861	0.100
38.600	18.164	0.100
38.700	12.653	0.100
38.800	24.546	0.100
38.900	17.742	0.100
39.000	23.813	0.100
39.100	22.241	0.100
39.200	17.679	0.100
39.300	13.360	0.100
39.400	16.760	0.100
39.500	19.358	0.100
39.600	25.104	0.100
39.700	30.075	0.100
39.800	13.086	0.100
39.900	14.600	0.100
40.000	21.326	0.100
40.100	20.032	0.100
40.200	26.200	0.100
40.300	28.712	0.100
40.400	28.218	0.100
40.500	24.682	0.100
40.600	23.715	0.100
40.700	21.091	0.100
40.800	24.306	0.100
40.900	20.565	0.100
41.000	25.670	0.100
41.100	25.808	0.100
41.200	22.446	0.100
41.300	29.721	0.100
41.400	19.141	0.100
41.500	16.040	0.100
41.600	19.259	0.100
41.700	23.705	0.100
41.800	25.008	0.100
41.900	30.501	0.100
42.000	22.708	0.100
42.100	20.009	0.100
42.200	29.977	0.100
42.300	26.123	0.100
42.400	27.213	0.100
42.500	25.854	0.100
42.600	27.662	0.100
42.700	24.365	0.100
42.800	23.422	0.100
42.900	27.868	0.100
43.000	24.753	0.100
43.100	31.150	0.100
43.200	27.285	0.100
43.300	24.999	0.100
43.400	35.610	0.100
43.500	27.960	0.100
43.600	30.484	0.100
43.700	31.772	0.100
43.800	27.882	0.100
43.900	31.226	0.100
44.000	26.937	0.100
44.100	24.857	0.100
44.200	32.401	0.100
44.300	35.676	0.100
44.400	41.430	0.100
44.500	35.885	0.100
44.600	34.468	0.100
44.700	26.938	0.100
44.800	37.490	0.100
44.900	32.441	0.100
45.000	33.280	0.100
45.100	28.927	0.100
45.200	32.100	0.100
45.300	32.080	0.100
45.400	29.535	0.100
45.500	33.695	0.100
45.600	37.889	0.100
45.700	37.158	0.100
45.800	42.819	0.100
45.900	38.028	0.100
46.000	27.432	0.100
46.100	43.378	0.100
46.200	30.947	0.100
46.300	26.105	0.100
46.400	36.305	0.100
46.500	44.780	0.100
46.600	30.716	0.100
46.700	39.436	0.100
46.800	34.552	0.100
46.900	25.267	0.100
47.000	35.547	0.100
47.100	38.109	0.100
47.200	30.455	0.100
47.300	36.855	0.100
47.400	31.180	0.100
47.500	38.705	0.100
47.600	38.283	0.100
47.700	40.444	0.100
47.800	44.545	0.100
47.900	47.790	0.100
48.000	36.343	0.100
48.100	34.675	0.100
48.200	36.245	0.100
48.300	46.323	0.100
48.400	46.742	0.100
48.500	40.817	0.100
48.600	36.574	0.100
48.700	39.770	0.100
48.800	29.685	0.100
48.900	46.921	0.100
49.000	42.600	0.100
49.100	31.581	0.100
49.200	41.351	0.100
49.300	35.616	0.100
49.400	41.292	0.100
49.500	43.794	0.100
49.600	53.710	0.100
49.700	41.308	0.100
49.800	36.249	0.100
49.900	42.695	0.100
50.000	41.345	0.100
50.100	36.408	0.100
50.200	34.495	0.100
50.300	46.762	0.100
50.400	46.854	0.100
50.500	52.651	0.100
50.600	40.598	0.100
50.700	46.670	0.100
50.800	49.563	0.100
50.900	36.015	0.100
51.000	43.114	0.100
51.100	55.252	0.100
51.200	50.211	0.100
51.300	43.891	0.100
51.400	49.178	0.100
51.500	41.227	0.100
51.600	39.114	0.100
51.700	47.430	0.100
51.800	53.965	0.100
51.900	48.344	0.100
52.000	52.996	0.100
52.100	45.891	0.100
52.200	52.037	0.100
52.300	43.751	0.100
52.400	47.785	0.100
52.500	42.244	0.100
52.600	40.977	0.100
52.700	47.755	0.100
52.800	60.455	0.100
52.900	49.997	0.100
53.000	50.253	0.100
53.100	46.198	0.100
53.200	46.456	0.100
53.300	43.070	0.100
53.400	53.803	0.100
53.500	51.592	0.100
53.600	56.149	0.100
53.700	51.476	0.100
53.800	45.070	0.100
53.900	54.519	0.100
54.000	45.534	0.100
54.100	56.433	0.100
54.200	52.194	0.100
54.300	51.241	0.100
54.400	54.694	0.100
54.500	50.829	0.100
54.600	51.397	0.100
54.700	49.382	0.100
54.800	49.942	0.100
54.900	52.431	0.100
55.000	44.888	0.100
55.100	49.087	0.100
55.200	46.797	0.100
55.300	53.016	0.100
55.400	53.379	0.100
55.500	48.959	0.100
55.600	54.467	0.100
55.700	57.930	0.100
55.800	57.954	0.100
55.900	55.030	0.100
56.000	51.394	0.100
56.100	53.470	0.100
56.200	48.417	0.100
56.300	43.978	0.100
56.400	56.082	0.100
56.500	51.056	0.100
56.600	54.566	0.100
56.700	58.323	0.100
56.800	54.962	0.100
56.900	52.959	0.100
57.000	46.680	0.100
57.100	60.095	0.100
57.200	53.668	0.100
57.300	55.768	0.100
57.400	55.564	0.100
57.500	57.546	0.100
57.600	57.407	0.100
57.700	65.220	0.100
57.800	54.370	0.100
57.900	58.978	0.100
58.000	53.996	0.100
58.100	57.104	0.100
58.200	65.162	0.100
58.300	55.768	0.100
58.400	63.029	0.100
58.500	55.290	0.100
58.600	48.357	0.100
58.700	68.102	0.100
58.800	55.556	0.100
58.900	59.304	0.100
59.000	64.102	0.100
59.100	55.582	0.100
59.200	66.429	0.100
59.300	55.227	0.100
59.400	53.208	0.100
59.500	68.761	0.100
59.600	61.557	0.100
59.700	67.928	0.100
59.800	57.666	0.100
59.900	62.064	0.100
60.000	60.539	0.100
60.100	67.428	0.100
60.200	66.921	0.100
60.300	62.369	0.100
60.400	56.419	0.100
60.500	55.997	0.100
60.600	66.975	0.100
60.700	59.579	0.100
60.800	58.229	0.100
60.900	66.430	0.100
61.000	62.694	0.100
61.100	62.230	0.100
61.200	59.155	0.100
61.300	59.763	0.100
61.400	64.563	0.100
61.500	58.812	0.100
61.600	75.144	0.100
61.700	64.009	0.100
61.800	59.958	0.100
61.900	71.208	0.100
62.000	60.799	0.100
62.100	68.759	0.100
62.200	64.925	0.100
62.300	69.265	0.100
62.400	71.494	0.100
62.500	58.560	0.100
62.600	52.516	0.100
62.700	80.824	0.100
62.800	58.729	0.100
62.900	57.862	0.100
63.000	67.614	0.100
63.100	70.850	0.100
63.200	68.981	0.100
63.300	61.865	0.100
63.400	65.913	0.100
63.500	61.159	0.100
63.600	60.892	0.100
63.700	68.835	0.100
63.800	55.837	0.100
63.900	56.863	0.100
64.000	61.555	0.100
64.100	65.624	0.100
64.200	66.177	0.100
64.300	62.636	0.100
64.400	64.883	0.100
64.500	64.243	0.100
64.600	58.413	0.100
64.700	63.760	0.100
64.800	62.722	0.100
64.900	62.515	0.100
65.000	52.222	0.100
65.100	64.863	0.100
65.200	64.558	0.100
65.300	60.466	0.100
65.400	70.889	0.100
65.500	63.754	0.100
65.600	67.717	0.100
65.700	62.570	0.100
65.800	71.926	0.100
65.900	60.871	0.100
66.000	65.738	0.100
66.100	64.366	0.100
66.200	63.569	0.100
66.300	62.346	0.100
66.400	62.618	0.100
66.500	62.611	0.100
66.600	70.745	0.100
66.700	67.442	0.100
66.800	63.546	0.100
66.900	60.640	0.100
67.000	63.408	0.100
67.100	73.388	0.101
67.200	58.871	0.100
67.300	67.810	0.100
67.400	65.104	0.100
67.500	67.340	0.101
67.600	66.135	0.101
67.700	58.889	0.101
67.800	65.367	0.101
67.900	74.089	0.101
68.000	59.881	0.100
68.100	54.059	0.100
68.200	66.559	0.101
68.300	78.835	0.101
68.400	68.793	0.101
68.500	53.285	0.101
68.600	57.484	0.101
68.700	63.623	0.101
68.800	66.155	0.101
68.900	59.969	0.101
69.000	58.424	0.101
69.100	63.698	0.101
69.200	70.129	0.101
69.300	65.760	0.101
69.400	60.849	0.101
69.500	59.890	0.101
69.600	56.509	0.101
69.700	63.404	0.101
69.800	66.416	0.101
69.900	62.546	0.101
70.000	64.934	0.101
70.100	58.568	0.101
70.200	60.230	0.101
70.300	65.775	0.101
70.400	63.350	0.101
70.500	71.579	0.101
70.600	67.617	0.101
70.700	62.635	0.101
70.800	65.844	0.101
70.900	69.288	0.101
71.000	58.064	0.101
71.100	64.434	0.101
71.200	63.043	0.101
71.300	56.221	0.101
71.400	57.637	0.101
71.500	62.174	0.101
71.600	61.526	0.101
71.700	66.181	0.101
71.800	58.551	0.101
71.900	58.225	0.101
72.000	59.700	0.101
72.100	66.719	0.101
72.200	60.545	0.101
72.300	61.811	0.101
72.400	54.695	0.101
72.500	53.380	0.101
72.600	67.571	0.101
72.700	71.636	0.101
72.800	60.202	0.101
72.900	71.747	0.101
73.000	58.118	0.101
73.100	66.975	0.101
73.200	58.315	0.101
73.300	60.345	0.101
73.400	64.603	0.101
73.500	61.232	0.101
73.600	62.685	0.101
73.700	56.003	0.101
73.800	62.739	0.101
73.900	65.365	0.101
74.000	56.250	0.101
74.100	65.763	0.101
74.200	60.002	0.101
74.300	58.759	0.101
74.400	61.086	0.101
74.500	58.586	0.101
74.600	57.634	0.101
74.700	75.598	0.101
74.800	63.785	0.101
74.900	63.968	0.101
75.000	60.986	0.101
75.100	66.671	0.101
75.200	57.908	0.101
75.300	65.092	0.101
75.400	61.907	0.101
75.500	68.867	0.101
75.600	69.246	0.101
75.700	57.701	0.101
75.800	61.734	0.101
75.900	63.845	0.101
76.000	62.546	0.101
76.100	59.036	0.101
76.200	64.856	0.101
76.300	64.994	0.101
76.400	57.658	0.101
76.500	72.874	0.101
76.600	68.163	0.101
76.700	59.937	0.101
76.800	57.489	0.101
76.900	61.114	0.101
77.000	64.800	0.101
77.100	55.806	0.101
77.200	53.395	0.101
77.300	62.433	0.101
77.400	58.028	0.101
77.500	70.176	0.101
77.600	64.656	0.101
77.700	62.581	0.101
77.800	56.463	0.101
77.900	53.575	0.101
78.000	60.885	0.101
78.100	63.223	0.101
78.200	52.944	0.101
78.300	62.700	0.101
78.400	59.120	0.101
78.500	70.243	0.101
78.600	58.829	0.101
78.700	62.559	0.101
78.800	61.724	0.101
78.900	64.713	0.101
79.000	62.057	0.101
79.100	55.216	0.101
79.200	61.641	0.101
79.300	60.873	0.101
79.400	57.101	0.101
79.500	77.995	0.101
79.600	61.376	0.101
79.700	67.610	0.101
79.800	69.273	0.101
79.900	70.831	0.101
80.000	61.252	0.101
80.100	61.005	0.101
80.200	56.719	0.101
80.300	57.001	0.101
80.400	65.727	0.101
80.500	64.172	0.101
80.600	58.901	0.101
80.700	57.308	0.101
80.800	54.653	0.101
80.900	59.670	0.101
81.000	65.926	0.101
81.100	60.798	0.101
81.200	66.846	0.101
81.300	61.906	0.101
81.400	54.587	0.101
81.500	57.133	0.101
81.600	58.110	0.101
81.700	52.525	0.101
81.800	64.080	0.101
81.900	59.975	0.101
82.000	60.846	0.101
82.100	56.595	0.101
82.200	63.916	0.101
82.300	60.863	0.101
82.400	59.764	0.101
82.500	61.228	0.101
82.600	64.049	0.101
82.700	72.398	0.101
82.800	53.660	0.101
82.900	65.260	0.101
83.000	60.258	0.101
83.100	61.918	0.101
83.200	58.528	0.101
83.300	55.889	0.101
83.400	62.770	0.101
83.500	61.162	0.101
83.600	64.044	0.101
83.700	60.409	0.101
83.800	61.592	0.101
83.900	58.367	0.101
84.000	53.961	0.101
84.100	55.386	0.101
84.200	61.566	0.101
84.300	59.487	0.101
84.400	54.123	0.101
84.500	53.930	0.101
84.600	63.470	0.101
84.700	74.423	0.101
84.800	58.077	0.101
84.900	54.586	0.101
85.000	66.904	0.101
85.100	58.020	0.101
85.200	63.482	0.101
85.300	58.968	0.101
85.400	60.572	0.101
85.500	57.271	0.101
85.600	56.419	0.101
85.700	53.419	0.101
85.800	56.142	0.101
85.900	66.801	0.101
86.000	57.000	0.101
86.100	63.543	0.101
86.200	63.988	0.101
86.300	55.194	0.101
86.400	69.227	0.101
86.500	60.258	0.101
86.600	65.719	0.101
86.700	64.757	0.101
86.800	56.680	0.101
86.900	67.927	0.101
87.000	60.117	0.101
87.100	51.955	0.101
87.200	59.923	0.101
87.300	62.256	0.101
87.400	57.547	0.101
87.500	53.386	0.101
87.600	54.201	0.101
87.700	53.087	0.101
87.800	58.913	0.101
87.900	60.147	0.101
88.000	58.314	0.101
88.100	56.884	0.101
88.200	60.454	0.101
88.300	54.569	0.101
88.400	53.503	0.101
88.500	60.713	0.101
88.600	62.321	0.101
88.700	65.923	0.100
88.800	61.231	0.100
88.900	60.966	0.100
89.000	52.824	0.100
89.100	57.596	0.100
89.200	47.820	0.101
89.300	54.702	0.100
89.400	55.426	0.100
89.500	63.246	0.100
89.600	70.991	0.100
89.700	63.012	0.100
89.800	55.337	0.100
89.900	52.158	0.100
90.000	42.316	0.100
90.100	47.267	0.100
90.200	46.203	0.100
90.300	43.743	0.100
90.400	31.333	0.100
90.500	28.195	0.100
90.600	36.437	0.100
90.700	38.883	0.100
90.800	30.610	0.100
90.900	25.975	0.100
91.000	28.664	0.100
91.100	29.888	0.100
91.200	20.648	0.100
91.300	15.466	0.100
91.400	11.762	0.100
91.500	17.839	0.100
91.600	17.136	0.100
91.700	13.501	0.100
91.800	12.723	0.100
91.900	6.585	0.100
92.000	4.764	0.100
92.100	5.379	0.100
92.200	7.006	0.100
92.300	12.811	0.100
92.400	17.786	0.100
92.500	7.987	0.100
92.600	2.246	0.100
92.700	-2.872	0.100
92.800	4.527	0.100
92.900	-8.630	0.100
93.000	-6.389	0.100
93.100	1.012	0.100
93.200	-4.448	0.100
93.300	-2.109	0.100
93.400	-6.988	0.100
93.500	1.682	0.100
93.600	-0.361	0.100
93.700	0.523	0.100
93.800	-3.392	0.100
93.900	-3.717	0.100
94.000	-4.182	0.100
94.100	1.407	0.100
94.200	2.853	0.100
94.300	-4.400	0.100
94.400	-12.543	0.100
94.500	-0.872	0.100
94.600	1.411	0.100
94.700	-5.620	0.100
94.800	-5.886	0.100
94.900	-5.391	0.100
95.000	-6.665	0.100
95.100	-12.874	0.100
95.200	-12.654	0.100
95.300	-9.621	0.100
95.400	-9.191	0.100
95.500	-4.735	0.100
95.600	-6.434	0.100
95.700	0.178	0.100
95.800	-5.426	0.100
95.900	-4.775	0.100
96.000	-15.124	0.100
96.100	-3.078	0.100
96.200	-6.547	0.100
96.300	-0.024	0.100
96.400	-9.257	0.100
96.500	-6.892	0.100
96.600	-12.783	0.100
96.700	-6.155	0.100
96.800	-14.250	0.100
96.900	-11.715	0.100
97.000	-6.125	0.100
97.100	-10.514	0.100
97.200	-2.593	0.100
97.300	-6.128	0.100
97.400	-12.100	0.100
97.500	-8.457	0.100
97.600	-7.712	0.100
97.700	-13.484	0.100
97.800	-8.537	0.100
97.900	-0.708	0.100
98.000	-1.635	0.100
98.100	-2.203	0.100
98.200	-10.384	0.100
98.300	-3.617	0.100
98.400	-4.295	0.100
98.500	-8.006	0.100
98.600	-0.113	0.100
98.700	-7.821	0.100
98.800	2.193	0.100
98.900	-1.449	0.100
99.000	-10.227	0.100
99.100	-12.068	0.100
99.200	-3.749	0.100
99.300	-3.426	0.100
99.400	-4.915	0.100
99.500	-9.394	0.100
99.600	-1.717	0.100
99.700	-9.974	0.100
99.800	-9.873	0.100
99.900	3.202	0.100
100.000	-3.342	0.100
100.100	1.332	0.100
100.200	-1.288	0.100
100.300	-7.094	0.100
100.400	-4.196	0.100
100.500	-4.657	0.100
100.600	-13.461	0.100
100.700	-7.436	0.100
100.800	-0.047	0.100
100.900	-5.927	0.100
101.000	-10.501	0.100
101.100	-10.288	0.100
101.200	-5.688	0.100
101.300	-1.845	0.100
101.400	0.239	0.100
101.500	-10.736	0.100
101.600	-10.400	0.100
101.700	-10.670	0.100
101.800	-8.235	0.100
101.900	-4.508	0.100
102.000	-2.542	0.100
102.100	-2.265	0.100
102.200	-12.533	0.100
102.300	-6.965	0.100
102.400	-12.147	0.100
102.500	-7.927	0.100
102.600	-8.586	0.100
102.700	1.781	0.100
102.800	-7.017	0.100
102.900	-11.952	0.100
103.000	-11.946	0.100
103.100	-15.781	0.100
103.200	-3.690	0.100
103.300	-10.204	0.100
103.400	-7.000	0.100
103.500	-9.935	0.100
103.600	-8.167	0.100
103.700	-2.792	0.100
103.800	-15.056	0.100
103.900	-6.170	0.100
104.000	-8.535	0.100
104.100	-11.983	0.100
104.200	-6.333	0.100
104.300	-12.711	0.100
104.400	-16.585	0.100
104.500	-12.115	0.100
104.600	-7.599	0.100
104.700	-16.741	0.100
104.800	-5.121	0.100
104.900	-11.281	0.100
105.000	-10.982	0.100
105.100	-17.541	0.100
105.200	-6.471	0.100
105.300	-7.005	0.100
105.400	-6.682	0.100
105.500	-17.600	0.100
105.600	-18.692	0.100
105.700	-13.241	0.100
105.800	-1.851	0.100
105.900	-12.727	0.100
106.000	-17.067	0.100
106.100	-20.061	0.100
106.200	-5.300	0.100
106.300	-13.281	0.100
106.400	-5.626	0.100
106.500	-19.435	0.100
106.600	-13.382	0.100
106.700	-8.782	0.100
106.800	-16.554	0.100
106.900	-19.724	0.100
107.000	-8.490	0.100
107.100	-15.053	0.100
107.200	-10.450	0.100
107.300	-5.769	0.100
107.400	-11.322	0.100
107.500	-8.447	0.100
107.600	-11.795	0.100
107.700	-25.398	0.100
107.800	-12.530	0.100
107.900	-12.055	0.100
108.000	-20.870	0.100
108.100	-11.610	0.100
108.200	-21.583	0.100
108.300	-7.318	0.100
108.400	-14.638	0.100
108.500	-12.243	0.100
108.600	-9.085	0.100
108.700	-14.495	0.100
108.800	-11.624	0.100
108.900	-10.465	0.100
109.000	-13.983	0.100
109.100	-23.294	0.100
109.200	-19.015	0.100
109.300	-19.813	0.100
109.400	-14.755	0.100
109.500	-11.184	0.100
109.600	-8.214	0.100
109.700	-12.230	0.100
109.800	-9.790	0.100
109.900	-20.431	0.100
110.000	-15.492	0.100
110.100	-15.467	0.100
110.200	-15.901	0.100
110.300	-12.435	0.100
110.400	-15.924	0.100
110.500	-15.634	0.100
110.600	-29.468	0.100
110.700	-25.663	0.100
110.800	-8.599	0.100
110.900	-16.264	0.100
111.000	-23.105	0.100
111.100	-12.136	0.100
111.200	-21.404	0.100
111.300	-20.535	0.100
111.400	-20.089	0.100
111.500	-15.655	0.100
111.600	-14.115	0.100
111.700	-6.343	0.100
111.800	-12.599	0.100
111.900	-17.825	0.100
112.000	-11.756	0.100
112.100	-21.738	0.100
112.200	-27.968	0.100
112.300	-11.301	0.100
112.400	-21.905	0.100
112.500	-22.913	0.100
112.600	-27.005	0.100
112.700	-15.161	0.100
112.800	-18.169	0.100
112.900	-14.922	0.100
113.000	-18.456	0.100
113.100	-24.177	0.100
113.200	-14.564	0.100
113.300	-16.089	0.100
113.400	-20.594	0.100
113.500	-20.946	0.100
113.600	-13.662	0.100
113.700	-17.107	0.100
113.800	-23.485	0.100
113.900	-16.635	0.100
114.000	-13.729	0.100
114.100	-27.190	0.100
114.200	-22.965	0.100
114.300	-20.786	0.100
114.400	-17.379	0.100
114.500	-13.168	0.100
114.600	-24.054	0.100
114.700	-19.976	0.100
114.800	-24.226	0.100
114.900	-25.511	0.100
115.000	-6.787	0.100
115.100	-19.692	0.100
115.200	-25.535	0.100
115.300	-13.118	0.100
115.400	-17.813	0.100
115.500	-18.511	0.100
115.600	-23.394	0.100
115.700	-17.493	0.100
115.800	-25.543	0.100
115.900	-24.825	0.100
116.000	-20.151	0.100
116.100	-19.518	0.100
116.200	-25.123	0.100
116.300	-26.793	0.100
116.400	-24.175	0.100
116.500	-21.328	0.100
116.600	-22.491	0.100
116.700	-22.387	0.100
116.800	-19.717	0.100
116.900	-22.707	0.100
117.000	-18.764	0.100
117.100	-16.865	0.100
117.200	-23.045	0.100
117.300	-14.943	0.100
117.400	-19.349	0.100
117.500	-24.962	0.100
117.600	-31.990	0.100
117.700	-29.943	0.100
117.800	-23.643	0.100
117.900	-20.401	0.100
118.000	-22.790	0.100
118.100	-17.955	0.100
118.200	-30.413	0.100
118.300	-25.723	0.100
118.400	-26.709	0.100
118.500	-21.879	0.100
118.600	-14.202	0.100
118.700	-22.132	0.100
118.800	-29.197	0.100
118.900	-21.915	0.100
119.000	-17.378	0.100
119.100	-20.182	0.100
119.200	-24.562	0.100
119.300	-27.519	0.100
119.400	-28.511	0.100
119.500	-22.078	0.100
119.600	-27.890	0.100
119.700	-22.587	0.100
119.800	-23.546	0.100
119.900	-27.517	0.100
120.000	-18.909	0.100
120.100	-21.549	0.100
120.200	-17.350	0.100
120.300	-26.190	0.100
120.400	-23.328	0.100
120.500	-28.467	0.100
120.600	-23.930	0.100
120.700	-23.733	0.100
120.800	-28.041	0.100
120.900	-16.641	0.100
121.000	-27.943	0.100
121.100	-20.024	0.100
121.200	-21.695	0.100
121.300	-24.976	0.100
121.400	-30.274	0.100
121.500	-29.881	0.100
121.600	-33.055	0.100
121.700	-26.167	0.100
121.800	-25.925	0.100
121.900	-28.459	0.100
122.000	-31.294	0.100
122.100	-17.382	0.100
122.200	-19.757	0.100
122.300	-28.111	0.100
122.400	-21.786	0.100
122.500	-29.849	0.100
122.600	-26.120	0.100
122.700	-22.758	0.100
122.800	-25.039	0.100
122.900	-26.951	0.100
123.000	-25.941	0.100
123.100	-36.510	0.100
123.200	-34.187	0.100
123.300	-22.572	0.100
123.400	-17.457	0.100
123.500	-25.661	0.100
123.600	-23.640	0.100
123.700	-29.970	0.100
123.800	-32.527	0.100
123.900	-35.171	0.100
124.000	-26.581	0.100
124.100	-22.732	0.100
124.200	-22.090	0.100
124.300	-23.143	0.100
124.400	-26.538	0.100
124.500	-19.187	0.100
124.600	-26.314	0.100
124.700	-28.193	0.100
124.800	-22.858	0.100
124.900	-26.180	0.100
125.000	-31.272	0.100
125.100	-25.853	0.100
125.200	-27.106	0.100
125.300	-24.262	0.100
125.400	-33.653	0.100
125.500	-35.544	0.100
125.600	-25.780	0.100
125.700	-31.176	0.100
125.800	-27.699	0.100
125.900	-26.233	0.100
126.000	-29.887	0.100
126.100	-32.750	0.100
126.200	-24.119	0.100
126.300	-27.682	0.100
126.400	-23.120	0.100
126.500	-28.688	0.100
126.600	-32.460	0.100
126.700	-29.843	0.100
126.800	-36.964	0.100
126.900	-39.503	0.100
127.000	-27.366	0.100
127.100	-25.748	0.100
127.200	-24.618	0.100
127.300	-27.916	0.100
127.400	-29.313	0.100
127.500	-29.371	0.100
127.600	-36.260	0.100
127.700	-35.710	0.100
127.800	-35.773	0.100
127.900	-29.145	0.100
128.000	-22.877	0.100
128.100	-29.772	0.100
128.200	-35.125	0.100
128.300	-16.472	0.100
128.400	-33.379	0.100
128.500	-28.113	0.100
128.600	-31.883	0.100
128.700	-23.487	0.100
128.800	-35.704	0.100
128.900	-30.676	0.100
129.000	-31.486	0.100
129.100	-36.218	0.100
129.200	-31.377	0.100
129.300	-31.160	0.100
129.400	-24.770	0.100
129.500	-32.615	0.100
129.600	-27.422	0.100
129.700	-35.996	0.100
129.800	-32.121	0.100
129.900	-29.339	0.100
130.000	-34.364	0.100
130.100	-18.984	0.100
130.200	-33.984	0.100
130.300	-26.657	0.100
130.400	-37.316	0.100
130.500	-32.278	0.100
130.600	-37.663	0.100
130.700	-34.582	0.100
130.800	-29.038	0.100
130.900	-32.155	0.100
131.000	-33.127	0.100
131.100	-27.342	0.100
131.200	-31.386	0.100
131.300	-27.828	0.100
131.400	-28.172	0.100
131.500	-28.993	0.100
131.600	-43.996	0.100
131.700	-37.488	0.100
131.800	-26.639	0.100
131.900	-29.555	0.100
132.000	-29.633	0.100
132.100	-29.487	0.100
132.200	-29.560	0.100
132.300	-37.121	0.100
132.400	-28.934	0.100
132.500	-27.824	0.100
132.600	-22.092	0.100
132.700	-33.295	0.100
132.800	-31.561	0.100
132.900	-32.146	0.100
133.000	-28.690	0.100
133.100	-25.829	0.100
133.200	-31.492	0.100
133.300	-33.801	0.100
133.400	-34.906	0.100
133.500	-31.308	0.100
133.600	-25.616	0.100
133.700	-26.434	0.100
133.800	-28.708	0.100
133.900	-29.522	0.100
134.000	-32.037	0.100
134.100	-31.684	0.100
134.200	-27.895	0.100
134.300	-29.071	0.100
134.400	-28.038	0.100
134.500	-21.194	0.100
134.600	-33.623	0.100
134.700	-34.143	0.100
134.800	-36.178	0.100
134.900	-23.205	0.100
135.000	-22.930	0.100
135.100	-30.867	0.100
135.200	-31.851	0.100
135.300	-38.730	0.100
135.400	-29.143	0.100
135.500	-31.630	0.100
135.600	-32.179	0.100
135.700	-30.156	0.100
135.800	-28.830	0.100
135.900	-21.423	0.100
136.000	-31.980	0.100
136.100	-28.199	0.100
136.200	-31.556	0.100
136.300	-28.387	0.100
136.400	-20.340	0.100
136.500	-35.158	0.100
136.600	-34.109	0.100
136.700	-33.444	0.100
136.800	-25.966	0.100
136.900	-36.683	0.100
137.000	-29.164	0.100
137.100	-25.774	0.100
137.200	-36.546	0.100
137.300	-37.357	0.100
137.400	-37.996	0.100
137.500	-25.949	0.100
137.600	-32.979	0.100
137.700	-25.278	0.100
137.800	-29.577	0.100
137.900	-37.916	0.100
138.000	-21.617	0.100
138.100	-23.096	0.100
138.200	-36.377	0.100
138.300	-37.844	0.100
138.400	-30.546	0.100
138.500	-35.186	0.100
138.600	-34.047	0.100
138.700	-34.536	0.100
138.800	-31.753	0.100
138.900	-32.345	0.100
139.000	-32.498	0.100
139.100	-28.057	0.100
139.200	-33.159	0.100
139.300	-23.694	0.100
139.400	-31.916	0.100
139.500	-38.543	0.100
139.600	-29.539	0.100
139.700	-20.907	0.100
139.800	-37.782	0.100
139.900	-25.802	0.100
140.000	-32.235	0.100
140.100	-31.343	0.100
140.200	-23.757	0.100
140.300	-21.966	0.100
140.400	-31.768	0.100
140.500	-24.654	0.100
140.600	-29.895	0.100
140.700	-29.835	0.100
140.800	-18.609	0.100
140.900	-28.978	0.100
141.000	-28.423	0.100
141.100	-34.397	0.100
141.200	-27.372	0.100
141.300	-25.674	0.100
141.400	-21.298	0.100
141.500	-32.640	0.100
141.600	-39.640	0.100
141.700	-42.056	0.100
141.800	-24.457	0.100
141.900	-25.506	0.100
142.000	-24.435	0.100
142.100	-30.469	0.100
142.200	-23.199	0.100
142.300	-27.781	0.100
142.400	-28.654	0.100
142.500	-37.612	0.100
142.600	-35.698	0.100
142.700	-29.377	0.100
142.800	-28.819	0.100
142.900	-33.166	0.100
143.000	-33.218	0.100
143.100	-33.119	0.100
143.200	-33.127	0.100
143.300	-24.463	0.100
143.400	-25.950	0.100
143.500	-34.565	0.100
143.600	-26.215	0.100
143.700	-31.317	0.100
143.800	-34.583	0.100
143.900	-32.387	0.100
144.000	-35.511	0.100
144.100	-34.261	0.100
144.200	-25.635	0.100
144.300	-32.187	0.100
144.400	-35.003	0.100
144.500	-31.992	0.100
144.600	-25.624	0.100
144.700	-21.785	0.100
144.800	-33.527	0.100
144.900	-34.556	0.100
145.000	-32.340	0.100
145.100	-26.517	0.100
145.200	-30.385	0.100
145.300	-34.927	0.100
145.400	-25.856	0.100
145.500	-26.070	0.100
145.600	-28.663	0.100
145.700	-18.770	0.100
145.800	-22.025	0.100
145.900	-28.335	0.100
146.000	-36.317	0.100
146.100	-37.911	0.100
146.200	-29.911	0.100
146.300	-27.487	0.100
146.400	-23.478	0.100
146.500	-31.732	0.100
146.600	-26.491	0.100
146.700	-34.357	0.100
146.800	-31.264	0.100
146.900	-26.098	0.100
147.000	-26.139	0.100
147.100	-30.312	0.100
147.200	-38.905	0.100
147.300	-36.898	0.100
147.400	-22.898	0.100
147.500	-28.892	0.100
147.600	-24.127	0.100
147.700	-32.718	0.100
147.800	-32.368	0.100
147.900	-32.349	0.100
148.000	-31.173	0.100
148.100	-25.028	0.100
148.200	-20.767	0.100
148.300	-22.270	0.100
148.400	-33.409	0.100
148.500	-26.544	0.100
148.600	-32.091	0.100
148.700	-33.007	0.100
148.800	-38.749	0.100
148.900	-21.769	0.100
149.000	-30.696	0.100
149.100	-44.679	0.100
149.200	-33.797	0.100
149.300	-33.601	0.100
149.400	-37.312	0.100
149.500	-35.096	0.100
149.600	-30.079	0.100
149.700	-31.074	0.100
149.800	-39.915	0.100
149.900	-28.951	0.100
150.000	-26.367	0.100
150.100	-30.563	0.100
150.200	-33.472	0.100
150.300	-35.378	0.100
150.400	-33.481	0.100
150.500	-38.679	0.100
150.600	-33.630	0.100
150.700	-23.294	0.100
150.800	-29.438	0.100
150.900	-37.485	0.100
151.000	-33.013	0.100
151.100	-32.050	0.100
151.200	-25.513	0.100
151.300	-28.577	0.100
151.400	-33.965	0.100
151.500	-36.865	0.100
151.600	-30.187	0.100
151.700	-35.230	0.100
151.800	-40.393	0.100
151.900	-35.281	0.100
152.000	-37.303	0.100
152.100	-30.542	0.100
152.200	-21.956	0.100
152.300	-29.297	0.100
152.400	-33.156	0.100
152.500	-30.252	0.100
152.600	-22.541	0.100
152.700	-32.805	0.100
152.800	-29.278	0.100
152.900	-33.515	0.100
153.000	-30.664	0.100
153.100	-30.894	0.100
153.200	-27.761	0.100
153.300	-35.082	0.100
153.400	-27.929	0.100
153.500	-30.515	0.100
153.600	-26.664	0.100
153.700	-21.772	0.100
153.800	-26.585	0.100
153.900	-30.844	0.100
154.000	-33.910	0.100
154.100	-34.363	0.100
154.200	-28.348	0.100
154.300	-26.545	0.100
154.400	-34.199	0.100
154.500	-29.004	0.100
154.600	-21.193	0.100
154.700	-23.149	0.100
154.800	-24.108	0.100
154.900	-31.698	0.100
155.000	-41.924	0.100
155.100	-35.562	0.100
155.200	-34.581	0.100
155.300	-33.755	0.100
155.400	-26.504	0.100
155.500	-33.220	0.100
155.600	-31.565	0.100
155.700	-31.269	0.100
155.800	-35.278	0.100
155.900	-24.364	0.100
156.000	-23.843	0.100
156.100	-25.443	0.100
156.200	-17.772	0.100
156.300	-42.455	0.100
156.400	-36.452	0.100
156.500	-28.326	0.100
156.600	-28.454	0.100
156.700	-29.941	0.100
156.800	-25.266	0.100
156.900	-26.356	0.100
157.000	-24.330	0.100
157.100	-28.965	0.100
157.200	-30.005	0.100
157.300	-29.222	0.100
157.400	-37.647	0.100
157.500	-28.742	0.100
157.600	-26.688	0.100
157.700	-25.161	0.100
157.800	-27.813	0.100
157.900	-28.432	0.100
158.000	-29.625	0.100
158.100	-25.968	0.100
158.200	-31.236	0.100
158.300	-25.675	0.100
158.400	-16.560	0.100
158.500	-37.002	0.100
158.600	-24.810	0.100
158.700	-26.463	0.100
158.800	-29.377	0.100
158.900	-24.605	0.100
159.000	-41.835	0.100
159.100	-25.499	0.100
159.200	-33.003	0.100
159.300	-21.107	0.100
159.400	-18.981	0.100
159.500	-28.707	0.100
159.600	-31.765	0.100
159.700	-34.413	0.100
159.800	-29.998	0.100
159.900	-25.030	0.100
160.000	-28.003	0.100
160.100	-32.189	0.100
160.200	-22.255	0.100
160.300	-22.928	0.100
160.400	-25.950	0.100
160.500	-29.741	0.100
160.600	-32.951	0.100
160.700	-27.101	0.100
160.800	-23.471	0.100
160.900	-26.422	0.100
161.000	-28.396	0.100
161.100	-25.396	0.100
161.200	-31.044	0.100
161.300	-32.151	0.100
161.400	-26.974	0.100
161.500	-20.408	0.100
161.600	-28.545	0.100
161.700	-35.871	0.100
161.800	-28.136	0.100
161.900	-27.863	0.100
162.000	-32.747	0.100
162.100	-31.751	0.100
162.200	-37.830	0.100
162.300	-32.910	0.100
162.400	-24.510	0.100
162.500	-24.472	0.100
162.600	-24.346	0.100
162.700	-26.618	0.100
162.800	-25.441	0.100
162.900	-23.442	0.100
163.000	-25.929	0.100
163.100	-24.786	0.100
163.200	-22.982	0.100
163.300	-28.310	0.100
163.400	-30.523	0.100
163.500	-28.214	0.100
163.600	-24.180	0.100
163.700	-20.999	0.100
163.800	-30.847	0.100
163.900	-28.039	0.100
164.000	-25.069	0.100
164.100	-35.660	0.100
164.200	-30.619	0.100
164.300	-23.880	0.100
164.400	-33.158	0.100
164.500	-24.768	0.100
164.600	-33.227	0.100
164.700	-27.151	0.100
164.800	-24.690	0.100
164.900	-22.481	0.100
165.000	-14.327	0.100
165.100	-22.141	0.100
165.200	-33.532	0.100
165.300	-29.821	0.100
165.400	-36.048	0.100
165.500	-26.082	0.100
165.600	-28.776	0.100
165.700	-22.876	0.100
165.800	-23.086	0.100
165.900	-23.229	0.100
166.000	-24.484	0.100
166.100	-27.835	0.100
166.200	-18.396	0.100
166.300	-18.202	0.100
166.400	-15.923	0.100
166.500	-27.200	0.100
166.600	-36.651	0.100
166.700	-29.951	0.100
166.800	-23.147	0.100
166.900	-14.341	0.100
167.000	-30.055	0.100
167.100	-27.295	0.100
167.200	-23.842	0.100
167.300	-26.204	0.100
167.400	-25.426	0.100
167.500	-23.742	0.100
167.600	-23.856	0.100
167.700	-25.377	0.100
167.800	-29.226	0.100
167.900	-20.475	0.100
168.000	-32.558	0.100
168.100	-32.555	0.100
168.200	-24.661	0.100
168.300	-19.362	0.100
168.400	-26.952	0.100
168.500	-21.213	0.100
168.600	-25.917	0.100
168.700	-26.734	0.100
168.800	-23.162	0.100
168.900	-19.959	0.100
169.000	-25.902	0.100
169.100	-23.542	0.100
169.200	-36.719	0.100
169.300	-28.869	0.100
169.400	-19.963	0.100
169.500	-20.060	0.100
169.600	-22.477	0.100
169.700	-33.570	0.100
169.800	-38.087	0.100
169.900	-26.997	0.100
170.000	-10.738	0.100
170.100	-22.096	0.100
170.200	-22.380	0.100
170.300	-15.045	0.100
170.400	-26.721	0.100
170.500	-14.982	0.100
170.600	-24.655	0.100
170.700	-21.788	0.100
170.800	-28.978	0.100
170.900	-32.281	0.100
171.000	-20.693	0.100
171.100	-28.703	0.100
171.200	-22.602	0.100
171.300	-25.980	0.100
171.400	-25.036	0.100
171.500	-24.604	0.100
171.600	-29.138	0.100
171.700	-32.354	0.100
171.800	-31.760	0.100
171.900	-24.221	0.100
172.000	-26.417	0.100
172.100	-21.876	0.100
172.200	-19.055	0.100
172.300	-28.411	0.100
172.400	-34.469	0.100
172.500	-22.795	0.100
172.600	-27.959	0.100
172.700	-23.697	0.100
172.800	-31.983	0.100
172.900	-19.337	0.100
173.000	-25.721	0.100
173.100	-25.910	0.100
173.200	-22.322	0.100
173.300	-27.908	0.100
173.400	-27.668	0.100
173.500	-24.554	0.100
173.600	-21.305	0.100
173.700	-26.173	0.100
173.800	-24.835	0.100
173.900	-26.138	0.100
174.000	-11.184	0.100
174.100	-23.844	0.100
174.200	-28.562	0.100
174.300	-28.982	0.100
174.400	-29.976	0.100
174.500	-29.121	0.100
174.600	-18.341	0.100
174.700	-26.549	0.100
174.800	-31.592	0.100
174.900	-25.426	0.100
175.000	-18.743	0.100
175.100	-19.594	0.100
175.200	-19.059	0.100
175.300	-24.017	0.100
175.400	-25.943	0.100
175.500	-25.891	0.100
175.600	-32.321	0.100
175.700	-20.893	0.100
175.800	-29.693	0.100
175.900	-26.799	0.100
176.000	-22.400	0.100
176.100	-20.032	0.100
176.200	-23.795	0.100
176.300	-22.439	0.100
176.400	-23.493	0.100
176.500	-25.445	0.100
176.600	-25.969	0.100
176.700	-32.732	0.100
176.800	-19.458	0.100
176.900	-22.013	0.100
177.000	-32.368	0.100
177.100	-24.365	0.100
177.200	-24.190	0.100
177.300	-21.490	0.100
177.400	-22.822	0.100
177.500	-29.914	0.100
177.600	-25.889	0.100
177.700	-20.505	0.100
177.800	-20.171	0.100
177.900	-21.406	0.100
178.000	-13.719	0.100
178.100	-24.193	0.100
178.200	-22.256	0.100
178.300	-27.301	0.100
178.400	-25.581	0.100
178.500	-25.930	0.100
178.600	-16.904	0.100
178.700	-25.607	0.100
178.800	-17.204	0.100
178.900	-27.793	0.100
179.000	-31.265	0.100
179.100	-16.475	0.100
179.200	-23.117	0.100
179.300	-18.727	0.100
179.400	-26.294	0.100
179.500	-24.895	0.100
179.600	-26.971	0.100
179.700	-20.115	0.100
179.800	-25.526	0.100
179.900	-16.600	0.100
180.000	-21.563	0.100
180.100	-8.748	0.100
180.200	-10.758	0.100
180.300	-6.294	0.100
180.400	-8.039	0.100
180.500	-2.574	0.100
180.600	6.007	0.100
180.700	13.198	0.100
180.800	11.369	0.100
180.900	9.592	0.100
181.000	12.200	0.100
181.100	14.901	0.100
181.200	15.545	0.100
181.300	21.088	0.100
181.400	15.140	0.100
181.500	6.243	0.100
181.600	14.382	0.100
181.700	13.961	0.100
181.800	16.842	0.100
181.900	30.771	0.100
182.000	22.143	0.100
182.100	19.527	0.100
182.200	17.648	0.100
182.300	20.879	0.100
182.400	14.115	0.100
182.500	26.602	0.100
182.600	33.640	0.100
182.700	10.731	0.100
182.800	19.970	0.100
182.900	22.926	0.100
183.000	18.040	0.100
183.100	26.382	0.100
183.200	26.927	0.100
183.300	22.900	0.100
183.400	26.358	0.100
183.500	32.377	0.100
183.600	23.284	0.100
183.700	25.777	0.100
183.800	28.189	0.100
183.900	24.975	0.100
184.000	18.668	0.100
184.100	21.461	0.100
184.200	27.925	0.100
184.300	28.051	0.100
184.400	16.943	0.100
184.500	22.544	0.100
184.600	29.741	0.100
184.700	22.163	0.100
184.800	18.851	0.100
184.900	22.243	0.100
185.000	19.446	0.100
185.100	32.413	0.100
185.200	22.683	0.100
185.300	22.754	0.100
185.400	19.245	0.100
185.500	27.696	0.100
185.600	18.037	0.100
185.700	26.274	0.100
185.800	31.455	0.100
185.900	25.905	0.100
186.000	23.681	0.100
186.100	23.341	0.100
186.200	24.703	0.100
186.300	14.514	0.100
186.400	18.328	0.100
186.500	27.760	0.100
186.600	25.203	0.100
186.700	18.404	0.100
186.800	26.794	0.100
186.900	25.702	0.100
187.000	19.674	0.100
187.100	27.527	0.100
187.200	24.110	0.100
187.300	13.456	0.100
187.400	34.989	0.100
187.500	27.247	0.100
187.600	22.969	0.100
187.700	19.048	0.100
187.800	30.175	0.100
187.900	26.047	0.100
188.000	32.258	0.100
188.100	33.259	0.100
188.200	26.417	0.100
188.300	18.654	0.100
188.400	23.347	0.100
188.500	25.218	0.100
188.600	26.434	0.100
188.700	28.623	0.100
188.800	19.838	0.100
188.900	16.572	0.100
189.000	31.940	0.100
189.100	40.589	0.100
189.200	26.278	0.100
189.300	30.395	0.100
189.400	28.729	0.100
189.500	27.899	0.100
189.600	21.022	0.100
189.700	25.849	0.100
189.800	32.529	0.100
189.900	24.879	0.100
190.000	37.180	0.100
190.100	24.090	0.100
190.200	29.927	0.100
190.300	23.366	0.100
190.400	24.894	0.100
190.500	29.001	0.100
190.600	29.914	0.100
190.700	31.192	0.100
190.800	29.994	0.100
190.900	20.735	0.100
191.000	28.404	0.100
191.100	29.896	0.100
191.200	31.700	0.100
191.300	38.224	0.100
191.400	36.774	0.100
191.500	32.505	0.100
191.600	31.090	0.100
191.700	28.339	0.100
191.800	33.067	0.100
191.900	27.312	0.100
192.000	31.261	0.100
192.100	38.976	0.100
192.200	26.225	0.100
192.300	35.041	0.100
192.400	39.735	0.100
192.500	26.116	0.100
192.600	24.010	0.100
192.700	30.935	0.100
192.800	34.723	0.100
192.900	23.571	0.100
193.000	42.947	0.100
193.100	31.144	0.100
193.200	28.732	0.100
193.300	35.316	0.100
193.400	31.612	0.100
193.500	33.433	0.100
193.600	44.128	0.100
193.700	37.161	0.100
193.800	41.600	0.100
193.900	39.981	0.100
194.000	33.994	0.100
194.100	29.520	0.100
194.200	33.813	0.100
194.300	40.169	0.100
194.400	39.265	0.100
194.500	31.190	0.100
194.600	31.142	0.100
194.700	47.488	0.100
194.800	49.457	0.100
194.900	38.326	0.100
195.000	48.066	0.100
195.100	42.134	0.100
195.200	39.008	0.100
195.300	32.495	0.100
195.400	39.104	0.100
195.500	34.701	0.100
195.600	41.251	0.100
195.700	41.981	0.100
195.800	37.334	0.100
195.900	44.037	0.100
196.000	42.173	0.100
196.100	49.957	0.100
196.200	45.735	0.100
196.300	35.315	0.100
196.400	46.865	0.100
196.500	44.391	0.100
196.600	39.572	0.100
196.700	46.640	0.100
196.800	44.156	0.100
196.900	53.414	0.100
197.000	55.430	0.100
197.100	48.965	0.100
197.200	45.469	0.100
197.300	38.879	0.100
197.400	50.106	0.100
197.500	45.297	0.100
197.600	50.196	0.100
197.700	50.710	0.100
197.800	45.224	0.100
197.900	43.998	0.100
198.000	52.592	0.100
198.100	54.659	0.100
198.200	49.751	0.100
198.300	63.864	0.100
198.400	53.857	0.100
198.500	53.686	0.100
198.600	44.140	0.100
198.700	44.633	0.100
198.800	44.681	0.100
198.900	43.304	0.100
199.000	60.676	0.100
199.100	56.926	0.100
199.200	48.736	0.100
199.300	57.602	0.100
199.400	54.433	0.100
199.500	51.414	0.100
199.600	51.055	0.100
199.700	60.442	0.100
199.800	62.296	0.100
199.900	59.579	0.100
200.000	60.010	0.100
200.100	51.485	0.100
200.200	50.799	0.100
200.300	52.866	0.100
200.400	46.323	0.100
200.500	64.872	0.100
200.600	62.560	0.100
200.700	60.642	0.100
200.800	64.044	0.100
200.900	56.564	0.100
201.000	61.057	0.100
201.100	56.971	0.100
201.200	59.291	0.100
201.300	60.644	0.100
201.400	65.624	0.100
201.500	68.386	0.100
201.600	61.992	0.100
201.700	63.956	0.100
201.800	52.117	0.100
201.900	54.744	0.100
202.000	57.008	0.100
202.100	50.726	0.100
202.200	64.477	0.100
202.300	55.029	0.100
202.400	60.337	0.100
202.500	67.743	0.100
202.600	56.959	0.100
202.700	67.093	0.100
202.800	57.387	0.100
202.900	59.596	0.100
203.000	71.034	0.100
203.100	64.001	0.100
203.200	66.414	0.100
203.300	63.083	0.100
203.400	71.796	0.100
203.500	69.365	0.100
203.600	63.635	0.100
203.700	67.988	0.100
203.800	70.265	0.100
203.900	65.829	0.100
204.000	62.515	0.100
204.100	66.697	0.100
204.200	63.321	0.100
204.300	61.940	0.100
204.400	69.748	0.100
204.500	61.993	0.100
204.600	58.260	0.100
204.700	67.523	0.100
204.800	65.625	0.100
204.900	77.802	0.100
205.000	65.768	0.100
205.100	67.276	0.100
205.200	70.869	0.100
205.300	75.407	0.100
205.400	67.102	0.100
205.500	70.589	0.100
205.600	67.321	0.100
205.700	64.886	0.100
205.800	65.722	0.100
205.900	62.549	0.100
206.000	68.212	0.100
206.100	76.227	0.100
206.200	69.673	0.100
206.300	68.760	0.100
206.400	66.515	0.100
206.500	71.083	0.100
206.600	66.592	0.100
206.700	64.857	0.100
206.800	65.852	0.100
206.900	63.723	0.100
207.000	71.573	0.100
207.100	75.667	0.100
207.200	73.030	0.100
207.300	78.967	0.100
207.400	65.733	0.100
207.500	59.716	0.100
207.600	69.523	0.100
207.700	66.264	0.100
207.800	65.680	0.100
207.900	69.910	0.100
208.000	64.075	0.100
208.100	67.644	0.100
208.200	67.481	0.100
208.300	66.285	0.100
208.400	72.130	0.100
208.500	60.561	0.100
208.600	72.095	0.100
208.700	65.809	0.100
208.800	66.500	0.100
208.900	60.628	0.100
209.000	71.994	0.100
209.100	68.106	0.100
209.200	69.701	0.100
209.300	66.457	0.100
209.400	69.704	0.100
209.500	65.707	0.100
209.600	72.592	0.100
209.700	77.058	0.100
209.800	68.807	0.100
209.900	55.013	0.100
210.000	70.345	0.100
210.100	77.912	0.100
210.200	61.762	0.100
210.300	66.787	0.100
210.400	74.760	0.100
210.500	68.940	0.100
210.600	62.584	0.100
210.700	70.270	0.100
210.800	64.298	0.100
210.900	65.862	0.100
211.000	74.831	0.100
211.100	69.660	0.100
211.200	68.385	0.100
211.300	77.206	0.100
211.400	61.475	0.100
211.500	58.141	0.100
211.600	61.604	0.100
211.700	71.556	0.100
211.800	57.583	0.100
211.900	62.753	0.100
212.000	75.765	0.100
212.100	70.889	0.100
212.200	75.784	0.100
212.300	71.171	0.100
212.400	70.277	0.100
212.500	63.877	0.100
212.600	72.247	0.100
212.700	65.005	0.100
212.800	68.807	0.100
212.900	72.560	0.100
213.000	67.429	0.100
213.100	61.737	0.100
213.200	71.265	0.100
213.300	61.602	0.100
213.400	62.341	0.100
213.500	63.011	0.100
213.600	61.178	0.100
213.700	64.603	0.100
213.800	71.376	0.100
213.900	67.891	0.100
214.000	67.222	0.100
214.100	71.211	0.100
214.200	68.395	0.100
214.300	59.482	0.100
214.400	63.812	0.100
214.500	62.606	0.100
214.600	64.305	0.100
214.700	71.328	0.100
214.800	62.353	0.100
214.900	59.573	0.100
215.000	62.324	0.100
215.100	63.030	0.100
215.200	65.621	0.100
215.300	70.999	0.100
215.400	74.715	0.100
215.500	63.281	0.100
215.600	68.477	0.100
215.700	61.739	0.100
215.800	71.204	0.100
215.900	65.043	0.100
216.000	70.554	0.100
216.100	76.026	0.100
216.200	67.626	0.100
216.300	62.355	0.100
216.400	58.807	0.100
216.500	59.775	0.100
216.600	62.388	0.100
216.700	64.557	0.100
216.800	69.383	0.100
216.900	64.476	0.100
217.000	71.853	0.100
217.100	67.616	0.100
217.200	58.963	0.100
217.300	65.165	0.100
217.400	66.935	0.100
217.500	69.239	0.100
217.600	57.015	0.100
217.700	60.901	0.100
217.800	61.342	0.100
217.900	65.044	0.100
218.000	61.992	0.100
218.100	68.395	0.100
218.200	66.665	0.100
218.300	72.117	0.100
218.400	68.059	0.100
218.500	65.220	0.100
218.600	66.844	0.100
218.700	56.811	0.100
218.800	64.353	0.100
218.900	69.079	0.100
219.000	65.535	0.100
219.100	61.543	0.100
219.200	68.855	0.100
219.300	58.662	0.100
219.400	69.518	0.100
219.500	57.832	0.100
219.600	68.923	0.100
219.700	64.476	0.100
219.800	72.968	0.100
219.900	70.166	0.100
220.000	61.384	0.100
220.100	61.794	0.100
220.200	61.623	0.100
220.300	66.769	0.100
220.400	64.761	0.100
220.500	59.600	0.100
220.600	71.661	0.100
220.700	67.507	0.100
220.800	58.576	0.100
220.900	73.010	0.100
221.000	68.505	0.100
221.100	62.473	0.100
221.200	62.024	0.100
221.300	53.932	0.100
221.400	68.647	0.100
221.500	71.595	0.100
221.600	67.437	0.100
221.700	63.887	0.100
221.800	60.316	0.100
221.900	59.663	0.100
222.000	61.875	0.100
222.100	59.622	0.100
222.200	65.376	0.100
222.300	66.103	0.100
222.400	71.442	0.100
222.500	61.156	0.100
222.600	69.405	0.100
222.700	71.096	0.100
222.800	59.616	0.100
222.900	57.482	0.100
223.000	64.211	0.100
223.100	57.398	0.100
223.200	63.704	0.100
223.300	66.258	0.100
223.400	61.777	0.100
223.500	57.575	0.100
223.600	65.228	0.100
223.700	63.274	0.100
223.800	61.561	0.100
223.900	68.841	0.100
224.000	62.063	0.100
224.100	61.773	0.100
224.200	60.115	0.100
224.300	59.728	0.100
224.400	70.449	0.100
224.500	62.747	0.100
224.600	65.394	0.100
224.700	66.773	0.100
224.800	67.483	0.100
224.900	61.992	0.100
225.000	65.653	0.100
225.100	63.784	0.100
225.200	61.509	0.100
225.300	60.725	0.100
225.400	62.599	0.100
225.500	68.226	0.100
225.600	69.522	0.100
225.700	61.218	0.100
225.800	68.555	0.100
225.900	69.560	0.100
226.000	56.532	0.100
226.100	61.940	0.100
226.200	59.754	0.100
226.300	61.536	0.100
226.400	73.149	0.100
226.500	68.214	0.100
226.600	53.560	0.100
226.700	60.160	0.100
226.800	53.417	0.100
226.900	63.239	0.100
227.000	67.099	0.100
227.100	64.291	0.100
227.200	67.614	0.100
227.300	65.885	0.100
227.400	54.901	0.100
227.500	52.666	0.100
227.600	60.780	0.100
227.700	60.381	0.100
227.800	59.875	0.100
227.900	62.513	0.100
228.000	64.895	0.100
228.100	61.899	0.100
228.200	64.292	0.100
228.300	65.893	0.100
228.400	64.962	0.100
228.500	55.913	0.100
228.600	61.069	0.100
228.700	66.237	0.100
228.800	65.700	0.100
228.900	60.670	0.100
229.000	56.220	0.100
229.100	70.183	0.100
229.200	61.069	0.100
229.300	73.397	0.100
229.400	59.245	0.100
229.500	69.990	0.100
229.600	68.096	0.100
229.700	54.753	0.100
229.800	63.894	0.100
229.900	65.667	0.100
230.000	58.884	0.100
230.100	59.545	0.100
230.200	55.672	0.100
230.300	64.170	0.100
230.400	64.588	0.100
230.500	63.644	0.100
230.600	67.540	0.100
230.700	67.989	0.100
230.800	66.771	0.100
230.900	60.319	0.100
231.000	60.597	0.100
231.100	64.152	0.100
231.200	56.907	0.100
231.300	74.249	0.100
231.400	62.717	0.100
231.500	65.918	0.100
231.600	64.406	0.100
231.700	53.732	0.100
231.800	68.647	0.100
231.900	67.821	0.100
232.000	56.512	0.100
232.100	63.906	0.100
232.200	60.375	0.100
232.300	59.757	0.100
232.400	61.162	0.100
232.500	69.622	0.100
232.600	60.511	0.100
232.700	53.295	0.100
232.800	61.654	0.100
232.900	54.507	0.100
233.000	70.320	0.100
233.100	66.881	0.100
233.200	67.314	0.100
233.300	60.650	0.100
233.400	62.939	0.100
233.500	58.786	0.100
233.600	54.162	0.100
233.700	61.065	0.100
233.800	64.619	0.100
233.900	60.938	0.100
234.000	62.276	0.100
234.100	76.680	0.100
234.200	67.236	0.100
234.300	67.921	0.100
234.400	64.662	0.100
234.500	57.901	0.100
234.600	67.062	0.100
234.700	54.071	0.100
234.800	65.637	0.100
234.900	64.293	0.100
235.000	57.738	0.100
235.100	58.855	0.100
235.200	60.967	0.100
235.300	60.429	0.100
235.400	60.353	0.100
235.500	62.931	0.100
235.600	60.602	0.100
235.700	61.913	0.100
235.800	62.157	0.100
235.900	58.865	0.100
236.000	69.202	0.100
236.100	65.678	0.100
236.200	65.472	0.100
236.300	62.055	0.100
236.400	60.540	0.100
236.500	59.712	0.100
236.600	56.606	0.100
236.700	62.601	0.100
236.800	57.485	0.100
236.900	59.583	0.100
237.000	59.675	0.100
237.100	58.929	0.100
237.200	67.547	0.100
237.300	48.407	0.100
237.400	61.570	0.100
237.500	63.367	0.100
237.600	54.548	0.100
237.700	70.464	0.100
237.800	62.404	0.100
237.900	63.848	0.100
238.000	62.054	0.100
238.100	54.179	0.100
238.200	66.703	0.100
238.300	67.784	0.100
238.400	62.905	0.100
238.500	56.172	0.100
238.600	64.635	0.100
238.700	54.694	0.100
238.800	58.621	0.100
238.900	55.339	0.100
239.000	67.652	0.100
239.100	66.197	0.100
239.200	62.072	0.100
239.300	59.600	0.100
239.400	60.542	0.100
239.500	64.792	0.100
239.600	68.984	0.100
239.700	59.277	0.100
239.800	61.646	0.100
239.900	57.850	0.100
240.000	50.362	0.100
240.100	46.936	0.100
240.200	40.658	0.100
240.300	36.816	0.100
240.400	38.390	0.100
240.500	36.350	0.100
240.600	35.151	0.100
240.700	27.868	0.100
240.800	30.534	0.100
240.900	26.959	0.100
241.000	29.984	0.100
241.100	23.367	0.100
241.200	13.316	0.100
241.300	12.699	0.100
241.400	14.183	0.100
241.500	16.486	0.100
241.600	6.614	0.100
241.700	8.130	0.100
241.800	15.915	0.100
241.900	1.259	0.100
242.000	6.026	0.100
242.100	13.798	0.100
242.200	8.415	0.100
242.300	-3.651	0.100
242.400	-3.469	0.100
242.500	-0.491	0.100
242.600	0.038	0.100
242.700	4.145	0.100
242.800	3.372	0.100
242.900	-1.975	0.100
243.000	1.159	0.100
243.100	1.949	0.100
243.200	1.681	0.100
243.300	-4.401	0.100
243.400	-9.315	0.100
243.500	-7.139	0.100
243.600	0.398	0.100
243.700	-0.114	0.100
243.800	-4.622	0.100
243.900	-0.434	0.100
244.000	-11.277	0.100
244.100	-9.041	0.100
244.200	-19.974	0.100
244.300	-6.544	0.100
244.400	0.101	0.100
244.500	-2.593	0.100
244.600	-6.700	0.100
244.700	-4.665	0.100
244.800	-18.652	0.100
244.900	-11.863	0.100
245.000	-19.880	0.100
245.100	-19.212	0.100
245.200	-6.349	0.100
245.300	-3.240	0.100
245.400	-8.087	0.100
245.500	-6.339	0.100
245.600	-12.444	0.100
245.700	-15.840	0.100
245.800	-5.712	0.100
245.900	-6.840	0.100
246.000	-19.620	0.100
246.100	-5.485	0.100
246.200	-3.635	0.100
246.300	-3.642	0.100
246.400	-13.925	0.100
246.500	-8.290	0.100
246.600	-4.822	0.100
246.700	-6.426	0.100
246.800	-19.779	0.100
246.900	-11.925	0.100
247.000	-4.184	0.100
247.100	-0.390	0.100
247.200	-11.790	0.100
247.300	-24.685	0.100
247.400	-6.046	0.100
247.500	-10.355	0.100
247.600	-12.121	0.100
247.700	-12.148	0.100
247.800	-3.571	0.100
247.900	-7.920	0.100
248.000	-9.398	0.100
248.100	-5.164	0.100
248.200	-8.998	0.100
248.300	-7.201	0.100
248.400	-16.973	0.100
248.500	-14.939	0.100
248.600	-1.850	0.100
248.700	-8.850	0.100
248.800	-8.366	0.100
248.900	-6.792	0.100
249.000	-16.743	0.100
249.100	-17.628	0.100
249.200	-11.616	0.100
249.300	-20.070	0.100
249.400	-9.882	0.100
249.500	-14.663	0.100
249.600	-4.825	0.100
249.700	-14.271	0.100
249.800	-14.248	0.100
249.900	-6.648	0.100
250.000	-10.588	0.100
250.100	-10.530	0.100
250.200	-8.422	0.100
250.300	-6.550	0.100
250.400	-13.814	0.100
250.500	-17.033	0.100
250.600	-2.480	0.100
250.700	-0.950	0.100
250.800	-4.982	0.100
250.900	-15.592	0.100
251.000	-14.757	0.100
251.100	-12.108	0.100
251.200	-20.738	0.100
251.300	-12.210	0.100
251.400	-21.639	0.100
251.500	-7.698	0.100
251.600	-7.900	0.100
251.700	-20.581	0.100
251.800	-15.154	0.100
251.900	-15.059	0.100
252.000	-7.684	0.100
252.100	-0.562	0.100
252.200	-13.640	0.100
252.300	-21.740	0.100
252.400	-20.514	0.100
252.500	-11.912	0.100
252.600	-8.685	0.100
252.700	-7.317	0.100
252.800	-9.546	0.100
252.900	-6.147	0.100
253.000	-22.609	0.100
253.100	-13.994	0.100
253.200	-19.414	0.100
253.300	-23.236	0.100
253.400	-12.138	0.100
253.500	-13.804	0.100
253.600	-6.354	0.100
253.700	-14.966	0.100
253.800	-21.038	0.100
253.900	-13.081	0.100
254.000	-11.417	0.100
254.100	-9.401	0.100
254.200	-17.647	0.100
254.300	-13.081	0.100
254.400	-12.571	0.100
254.500	-12.786	0.100
254.600	-21.136	0.100
254.700	-17.709	0.100
254.800	-14.979	0.100
254.900	-17.717	0.100
255.000	-10.256	0.100
255.100	-15.822	0.100
255.200	-11.176	0.100
255.300	-26.310	0.100
255.400	-21.050	0.100
255.500	-13.489	0.100
255.600	-13.896	0.100
255.700	-14.057	0.100
255.800	-9.805	0.100
255.900	-18.195	0.100
256.000	-19.007	0.100
256.100	-19.081	0.100
256.200	-13.775	0.100
256.300	-22.380	0.100
256.400	-15.683	0.100
256.500	-12.856	0.100
256.600	-18.306	0.100
256.700	-23.587	0.100
256.800	-20.981	0.100
256.900	-12.100	0.100
257.000	-15.664	0.100
257.100	-17.544	0.100
257.200	-24.587	0.100
257.300	-16.319	0.100
257.400	-24.960	0.100
257.500	-12.589	0.100
257.600	-15.569	0.100
257.700	-11.408	0.100
257.800	-20.648	0.100
257.900	-27.549	0.100
258.000	-18.753	0.100
258.100	-15.977	0.100
258.200	-21.570	0.100
258.300	-20.704	0.100
258.400	-14.440	0.100
258.500	-19.814	0.100
258.600	-21.183	0.100
258.700	-21.007	0.100
258.800	-23.565	0.100
258.900	-14.680	0.100
259.000	-23.675	0.100
259.100	-21.538	0.100
259.200	-26.945	0.100
259.300	-10.685	0.100
259.400	-18.359	0.100
259.500	-15.269	0.100
259.600	-22.298	0.100
259.700	-26.619	0.100
259.800	-21.900	0.100
259.900	-9.960	0.100
260.000	-25.122	0.100
260.100	-17.402	0.100
260.200	-28.011	0.100
260.300	-25.091	0.100
260.400	-14.950	0.100
260.500	-26.458	0.100
260.600	-24.709	0.100
260.700	-19.528	0.100
260.800	-25.696	0.100
260.900	-21.912	0.100
261.000	-15.344	0.100
261.100	-25.166	0.100
261.200	-20.947	0.100
261.300	-17.603	0.100
261.400	-24.614	0.100
261.500	-20.381	0.100
261.600	-17.317	0.100
261.700	-8.354	0.100
261.800	-22.936	0.100
261.900	-28.057	0.100
262.000	-30.295	0.100
262.100	-23.053	0.100
262.200	-28.625	0.100
262.300	-22.507	0.100
262.400	-22.420	0.100
262.500	-19.983	0.100
262.600	-26.231	0.100
262.700	-20.907	0.100
262.800	-26.086	0.100
262.900	-26.795	0.100
263.000	-18.363	0.100
263.100	-18.022	0.100
263.200	-17.466	0.100
263.300	-16.869	0.100
263.400	-21.907	0.100
263.500	-30.500	0.100
263.600	-30.215	0.100
263.700	-27.515	0.100
263.800	-11.121	0.100
263.900	-28.232	0.100
264.000	-32.310	0.100
264.100	-26.038	0.100
264.200	-30.196	0.100
264.300	-24.159	0.100
264.400	-23.353	0.100
264.500	-31.023	0.100
264.600	-25.162	0.100
264.700	-26.409	0.100
264.800	-22.822	0.100
264.900	-27.656	0.100
265.000	-23.330	0.100
265.100	-17.727	0.100
265.200	-28.306	0.100
265.300	-27.229	0.100
265.400	-32.704	0.100
265.500	-25.418	0.100
265.600	-24.818	0.100
265.700	-17.522	0.100
265.800	-30.695	0.100
265.900	-28.672	0.100
266.000	-25.479	0.100
266.100	-28.138	0.100
266.200	-24.782	0.100
266.300	-22.993	0.100
266.400	-25.536	0.100
266.500	-24.939	0.100
266.600	-28.039	0.100
266.700	-25.381	0.100
266.800	-22.754	0.100
266.900	-17.524	0.100
267.000	-19.440	0.100
267.100	-31.941	0.100
267.200	-29.723	0.100
267.300	-32.881	0.100
267.400	-27.769	0.100
267.500	-33.535	0.100
267.600	-32.689	0.100
267.700	-31.690	0.100
267.800	-22.419	0.100
267.900	-33.336	0.100
268.000	-29.819	0.100
268.100	-23.633	0.100
268.200	-31.852	0.100
268.300	-26.540	0.100
268.400	-23.149	0.100
268.500	-29.067	0.100
268.600	-29.635	0.100
268.700	-31.164	0.100
268.800	-30.336	0.100
268.900	-27.176	0.100
269.000	-36.601	0.100
269.100	-41.018	0.100
269.200	-26.741	0.100
269.300	-27.199	0.100
269.400	-32.767	0.100
269.500	-29.639	0.100
269.600	-22.278	0.100
269.700	-25.903	0.100
269.800	-30.591	0.100
269.900	-26.530	0.100
270.000	-27.982	0.100
270.100	-29.327	0.100
270.200	-28.526	0.100
270.300	-32.606	0.100
270.400	-30.206	0.100
270.500	-30.405	0.100
270.600	-26.096	0.100
270.700	-29.846	0.100
270.800	-30.013	0.100
270.900	-25.621	0.100
271.000	-35.408	0.100
271.100	-25.789	0.100
271.200	-32.896	0.100
271.300	-36.651	0.100
271.400	-31.717	0.100
271.500	-32.449	0.100
271.600	-27.750	0.100
271.700	-26.761	0.100
271.800	-25.754	0.100
271.900	-25.536	0.100
272.000	-37.165	0.100
272.100	-31.331	0.100
272.200	-38.214	0.100
272.300	-34.270	0.100
272.400	-28.441	0.100
272.500	-39.007	0.100
272.600	-39.224	0.100
272.700	-32.717	0.100
272.800	-24.759	0.100
272.900	-26.455	0.100
273.000	-23.404	0.100
273.100	-28.613	0.100
273.200	-44.154	0.100
273.300	-25.421	0.100
273.400	-32.994	0.100
273.500	-28.577	0.100
273.600	-31.114	0.100
273.700	-33.848	0.100
273.800	-41.101	0.100
273.900	-36.398	0.100
274.000	-27.809	0.100
274.100	-20.736	0.100
274.200	-31.879	0.100
274.300	-31.847	0.100
274.400	-37.432	0.100
274.500	-38.371	0.100
274.600	-34.006	0.100
274.700	-28.613	0.100
274.800	-35.819	0.100
274.900	-32.645	0.100
275.000	-34.899	0.100
275.100	-48.425	0.100
275.200	-33.951	0.100
275.300	-34.557	0.100
275.400	-38.962	0.100
275.500	-33.898	0.100
275.600	-37.470	0.100
275.700	-32.498	0.100
275.800	-41.925	0.100
275.900	-33.607	0.100
276.000	-30.055	0.100
276.100	-27.285	0.100
276.200	-32.842	0.100
276.300	-28.593	0.100
276.400	-28.923	0.100
276.500	-34.081	0.100
276.600	-38.257	0.100
276.700	-30.818	0.100
276.800	-27.524	0.100
276.900	-32.377	0.100
277.000	-35.785	0.100
277.100	-33.681	0.100
277.200	-30.198	0.100
277.300	-30.884	0.100
277.400	-35.799	0.100
277.500	-33.301	0.100
277.600	-32.291	0.100
277.700	-35.869	0.100
277.800	-34.959	0.100
277.900	-36.458	0.100
278.000	-37.877	0.100
278.100	-35.003	0.100
278.200	-36.051	0.100
278.300	-38.566	0.100
278.400	-36.094	0.100
278.500	-40.286	0.100
278.600	-29.972	0.100
278.700	-34.172	0.100
278.800	-35.444	0.100
278.900	-27.750	0.100
279.000	-35.239	0.100
279.100	-39.187	0.100
279.200	-34.518	0.100
279.300	-34.825	0.100
279.400	-27.852	0.100
279.500	-32.772	0.100
279.600	-42.091	0.100
279.700	-35.726	0.100
279.800	-29.579	0.100
279.900	-25.993	0.100
280.000	-28.180	0.100
280.100	-35.908	0.100
280.200	-42.137	0.100
280.300	-37.510	0.100
280.400	-42.285	0.100
280.500	-36.892	0.100
280.600	-33.639	0.100
280.700	-30.781	0.100
280.800	-40.348	0.100
280.900	-36.587	0.100
281.000	-29.763	0.100
281.100	-32.752	0.100
281.200	-36.008	0.100
281.300	-36.020	0.100
281.400	-42.013	0.100
281.500	-35.468	0.100
281.600	-28.602	0.100
281.700	-42.131	0.100
281.800	-28.140	0.100
281.900	-26.845	0.100
282.000	-49.960	0.100
282.100	-43.092	0.100
282.200	-34.624	0.100
282.300	-29.822	0.100
282.400	-32.632	0.100
282.500	-37.708	0.100
282.600	-45.753	0.100
282.700	-35.068	0.100
282.800	-39.257	0.100
282.900	-35.849	0.100
283.000	-35.672	0.100
283.100	-38.204	0.100
283.200	-33.972	0.100
283.300	-31.260	0.100
283.400	-36.585	0.100
283.500	-35.703	0.100
283.600	-39.984	0.100
283.700	-27.690	0.100
283.800	-32.144	0.100
283.900	-30.654	0.100
284.000	-39.623	0.100
284.100	-36.227	0.100
284.200	-37.236	0.100
284.300	-36.790	0.100
284.400	-32.317	0.100
284.500	-33.760	0.100
284.600	-40.339	0.100
284.700	-31.921	0.100
284.800	-33.431	0.100
284.900	-29.011	0.100
285.000	-34.708	0.100
285.100	-44.181	0.100
285.200	-45.025	0.100
285.300	-33.170	0.100
285.400	-31.880	0.100
285.500	-33.830	0.100
285.600	-36.529	0.100
285.700	-31.207	0.100
285.800	-33.689	0.100
285.900	-37.963	0.100
286.000	-32.915	0.100
286.100	-43.673	0.100
286.200	-31.708	0.100
286.300	-30.869	0.100
286.400	-26.660	0.100
286.500	-34.183	0.100
286.600	-37.246	0.100
286.700	-39.641	0.100
286.800	-37.326	0.100
286.900	-30.993	0.100
287.000	-38.646	0.100
287.100	-38.638	0.100
287.200	-40.653	0.100
287.300	-36.337	0.100
287.400	-23.227	0.100
287.500	-36.303	0.100
287.600	-38.582	0.100
287.700	-39.991	0.100
287.800	-43.387	0.100
287.900	-42.060	0.100
288.000	-36.471	0.100
288.100	-38.663	0.100
288.200	-34.935	0.100
288.300	-42.249	0.100
288.400	-37.562	0.100
288.500	-33.421	0.100
288.600	-35.846	0.100
288.700	-35.910	0.100
288.800	-32.109	0.100
288.900	-31.555	0.100
289.000	-34.586	0.100
289.100	-35.125	0.100
289.200	-35.535	0.100
289.300	-34.234	0.100
289.400	-33.900	0.100
289.500	-32.812	0.100
289.600	-37.947	0.100
289.700	-42.783	0.100
289.800	-36.863	0.100
289.900	-29.958	0.100
290.000	-39.127	0.100
290.100	-29.922	0.100
290.200	-35.526	0.100
290.300	-40.480	0.100
290.400	-37.354	0.100
290.500	-35.759	0.100
290.600	-35.996	0.100
290.700	-31.084	0.100
290.800	-30.669	0.100
290.900	-36.698	0.100
291.000	-43.289	0.100
291.100	-31.488	0.100
291.200	-42.753	0.100
291.300	-39.360	0.100
291.400	-40.161	0.100
291.500	-34.439	0.100
291.600	-28.784	0.100
291.700	-29.228	0.100
291.800	-33.382	0.100
291.900	-30.205	0.100
292.000	-29.672	0.100
292.100	-30.484	0.100
292.200	-39.584	0.100
292.300	-34.181	0.100
292.400	-27.818	0.100
292.500	-31.039	0.100
292.600	-30.494	0.100
292.700	-33.566	0.100
292.800	-34.446	0.100
292.900	-30.007	0.100
293.000	-40.687	0.100
293.100	-37.189	0.100
293.200	-33.358	0.100
293.300	-36.419	0.100
293.400	-28.689	0.100
293.500	-39.343	0.100
293.600	-38.396	0.100
293.700	-32.339	0.100
293.800	-34.975	0.100
293.900	-37.484	0.100
294.000	-33.915	0.100
294.100	-34.617	0.100
294.200	-35.387	0.100
294.300	-31.524	0.100
294.400	-21.533	0.100
294.500	-36.860	0.100
294.600	-28.933	0.100
294.700	-37.898	0.100
294.800	-48.561	0.100
294.900	-36.343	0.100
295.000	-22.296	0.100
295.100	-32.597	0.100
295.200	-34.753	0.100
295.300	-38.812	0.100
295.400	-29.714	0.100
295.500	-30.720	0.100
295.600	-32.263	0.100
295.700	-29.032	0.100
295.800	-40.331	0.100
295.900	-27.900	0.100
296.000	-39.334	0.100
296.100	-43.760	0.100
296.200	-33.604	0.100
296.300	-35.387	0.100
296.400	-35.517	0.100
296.500	-27.739	0.100
296.600	-28.243	0.100
296.700	-25.320	0.100
296.800	-32.493	0.100
296.900	-34.794	0.100
297.000	-32.763	0.100
297.100	-39.024	0.100
297.200	-29.962	0.100
297.300	-37.975	0.100
297.400	-34.386	0.100
297.500	-32.829	0.100
297.600	-30.928	0.100
297.700	-38.108	0.100
297.800	-32.569	0.100
297.900	-38.398	0.100
298.000	-38.605	0.100
298.100	-30.323	0.100
298.200	-38.443	0.100
298.300	-36.854	0.100
298.400	-31.814	0.100
298.500	-33.175	0.100
298.600	-26.321	0.100
298.700	-39.992	0.100
298.800	-24.012	0.100
298.900	-27.726	0.100
299.000	-42.246	0.100
299.100	-39.299	0.100
299.200	-28.123	0.100
299.300	-35.872	0.100
299.400	-36.491	0.100
299.500	-33.888	0.100
299.600	-38.055	0.100
299.700	-38.304	0.100
299.800	-25.673	0.100
299.900	-31.903	0.100
300.000	-30.786	0.100
300.100	-27.481	0.100
300.200	-36.791	0.100
300.300	-39.414	0.100
300.400	-33.374	0.100
300.500	-27.743	0.100
300.600	-27.687	0.100
300.700	-38.563	0.100
300.800	-38.439	0.100
300.900	-37.466	0.100
301.000	-32.771	0.100
301.100	-29.662	0.100
301.200	-37.883	0.100
301.300	-37.554	0.100
301.400	-36.780	0.100
301.500	-35.817	0.100
301.600	-28.995	0.100
301.700	-35.397	0.100
301.800	-28.361	0.100
301.900	-26.306	0.100
302.000	-32.901	0.100
302.100	-36.018	0.100
302.200	-35.102	0.100
302.300	-29.644	0.100
302.400	-33.490	0.100
302.500	-38.892	0.100
302.600	-31.608	0.100
302.700	-32.738	0.100
302.800	-37.012	0.100
302.900	-29.768	0.100
303.000	-35.439	0.100
303.100	-23.893	0.100
303.200	-27.663	0.100
303.300	-25.045	0.100
303.400	-34.555	0.100
303.500	-29.026	0.100
303.600	-44.358	0.100
303.700	-30.831	0.100
303.800	-31.936	0.100
303.900	-30.956	0.100
304.000	-30.481	0.100
304.100	-33.650	0.100
304.200	-34.186	0.100
304.300	-33.773	0.100
304.400	-48.598	0.100
304.500	-33.673	0.100
304.600	-26.255	0.100
304.700	-28.606	0.100
304.800	-35.918	0.100
304.900	-30.812	0.100
305.000	-36.364	0.100
305.100	-31.514	0.100
305.200	-36.971	0.100
305.300	-36.598	0.100
305.400	-33.656	0.100
305.500	-23.091	0.100
305.600	-28.586	0.100
305.700	-26.017	0.100
305.800	-43.501	0.100
305.900	-35.113	0.100
306.000	-35.825	0.100
306.100	-33.501	0.100
306.200	-33.554	0.100
306.300	-34.376	0.100
306.400	-33.322	0.100
306.500	-27.752	0.100
306.600	-25.308	0.100
306.700	-39.409	0.100
306.800	-35.951	0.100
306.900	-33.207	0.100
307.000	-32.011	0.100
307.100	-32.921	0.100
307.200	-30.149	0.100
307.300	-33.912	0.100
307.400	-34.352	0.100
307.500	-35.980	0.100
307.600	-35.861	0.100
307.700	-43.469	0.100
307.800	-19.253	0.100
307.900	-32.863	0.100
308.000	-32.945	0.100
308.100	-30.396	0.100
308.200	-28.358	0.100
308.300	-29.994	0.100
308.400	-42.585	0.100
308.500	-30.931	0.100
308.600	-31.601	0.100
308.700	-36.958	0.100
308.800	-28.786	0.100
308.900	-28.396	0.100
309.000	-36.475	0.100
309.100	-25.867	0.100
309.200	-39.686	0.100
309.300	-37.631	0.100
309.400	-38.157	0.100
309.500	-29.797	0.100
309.600	-37.876	0.100
309.700	-33.687	0.100
309.800	-26.334	0.100
309.900	-37.515	0.100
310.000	-37.485	0.100
310.100	-26.456	0.100
310.200	-24.844	0.100
310.300	-25.280	0.100
310.400	-33.816	0.100
310.500	-42.821	0.100
310.600	-27.657	0.100
310.700	-39.253	0.100
310.800	-34.522	0.100
310.900	-36.118	0.100
311.000	-34.300	0.100
311.100	-32.373	0.100
311.200	-32.028	0.100
311.300	-35.239	0.100
311.400	-24.161	0.100
311.500	-28.482	0.100
311.600	-36.302	0.100
311.700	-27.332	0.100
311.800	-28.750	0.100
311.900	-25.286	0.100
312.000	-41.127	0.100
312.100	-35.776	0.100
312.200	-30.975	0.100
312.300	-31.696	0.100
312.400	-25.707	0.100
312.500	-35.181	0.100
312.600	-33.637	0.100
312.700	-33.929	0.100
312.800	-35.789	0.100
312.900	-34.730	0.100
313.000	-33.444	0.100
313.100	-25.614	0.100
313.200	-34.001	0.100
313.300	-26.383	0.100
313.400	-20.634	0.100
313.500	-26.891	0.100
313.600	-31.860	0.100
313.700	-44.189	0.100
313.800	-36.400	0.100
313.900	-32.183	0.100
314.000	-38.357	0.100
314.100	-32.981	0.100
314.200	-25.059	0.100
314.300	-37.852	0.100
314.400	-23.937	0.100
314.500	-25.281	0.100
314.600	-36.519	0.100
314.700	-28.470	0.100
314.800	-30.639	0.100
314.900	-46.025	0.100
315.000	-33.183	0.100
315.100	-27.573	0.100
315.200	-27.400	0.100
315.300	-28.080	0.100
315.400	-29.728	0.100
315.500	-27.408	0.100
315.600	-28.674	0.100
315.700	-20.043	0.100
315.800	-39.360	0.100
315.900	-28.495	0.100
316.000	-28.031	0.100
316.100	-28.575	0.100
316.200	-27.233	0.100
316.300	-37.371	0.100
316.400	-40.542	0.100
316.500	-32.758	0.100
316.600	-21.043	0.100
316.700	-28.648	0.100
316.800	-31.111	0.100
316.900	-32.884	0.100
317.000	-24.566	0.100
317.100	-30.043	0.100
317.200	-27.750	0.100
317.300	-32.406	0.100
317.400	-27.869	0.100
317.500	-34.664	0.100
317.600	-38.762	0.100
317.700	-29.050	0.100
317.800	-27.604	0.100
317.900	-26.930	0.100
318.000	-39.380	0.100
318.100	-34.551	0.100
318.200	-42.376	0.100
318.300	-24.399	0.100
318.400	-22.618	0.100
318.500	-38.369	0.100
318.600	-24.524	0.100
318.700	-24.266	0.100
318.800	-34.135	0.100
318.900	-35.346	0.100
319.000	-29.584	0.100
319.100	-24.322	0.100
319.200	-22.607	0.100
319.300	-26.797	0.100
319.400	-27.439	0.100
319.500	-30.722	0.100
319.600	-28.050	0.100
319.700	-31.874	0.100
319.800	-35.542	0.100
319.900	-18.539	0.100
320.000	-24.703	0.100
320.100	-22.645	0.100
320.200	-27.156	0.100
320.300	-30.462	0.100
320.400	-31.456	0.100
320.500	-28.251	0.100
320.600	-25.630	0.100
320.700	-30.838	0.100
320.800	-38.971	0.100
320.900	-21.637	0.100
321.000	-34.612	0.100
321.100	-29.845	0.100
321.200	-30.049	0.100
321.300	-32.124	0.100
321.400	-27.336	0.100
321.500	-24.458	0.100
321.600	-25.434	0.100
321.700	-30.530	0.100
321.800	-29.527	0.100
321.900	-30.506	0.100
322.000	-21.503	0.100
322.100	-24.625	0.100
322.200	-24.120	0.100
322.300	-16.066	0.100
322.400	-20.658	0.100
322.500	-34.966	0.100
322.600	-34.372	0.100
322.700	-35.805	0.100
322.800	-29.316	0.100
322.900	-25.228	0.100
323.000	-29.642	0.100
323.100	-25.864	0.100
323.200	-23.308	0.100
323.300	-24.039	0.100
323.400	-32.095	0.100
323.500	-35.099	0.100
323.600	-21.343	0.100
323.700	-31.541	0.100
323.800	-28.730	0.100
323.900	-19.422	0.100
324.000	-24.925	0.100
324.100	-19.634	0.100
324.200	-26.198	0.100
324.300	-29.204	0.100
324.400	-25.077	0.100
324.500	-34.360	0.100
324.600	-30.656	0.100
324.700	-39.805	0.100
324.800	-23.578	0.100
324.900	-16.325	0.100
325.000	-33.973	0.100
325.100	-22.996	0.100
325.200	-35.579	0.100
325.300	-23.342	0.100
325.400	-23.962	0.100
325.500	-20.865	0.100
325.600	-31.336	0.100
325.700	-23.658	0.100
325.800	-28.970	0.100
325.900	-27.024	0.100
326.000	-29.092	0.100
326.100	-28.014	0.100
326.200	-27.545	0.100
326.300	-32.089	0.100
326.400	-30.989	0.100
326.500	-26.450	0.100
326.600	-26.026	0.100
326.700	-23.640	0.100
326.800	-26.318	0.100
326.900	-26.135	0.100
327.000	-15.433	0.100
327.100	-20.316	0.100
327.200	-33.116	0.100
327.300	-33.024	0.100
327.400	-32.509	0.100
327.500	-29.847	0.100
327.600	-24.298	0.100
327.700	-22.648	0.100
327.800	-24.168	0.100
327.900	-24.600	0.100
328.000	-23.283	0.100
328.100	-23.717	0.100
328.200	-26.165	0.100
328.300	-28.117	0.100
328.400	-27.393	0.100
328.500	-23.435	0.100
328.600	-27.148	0.100
328.700	-31.602	0.100
328.800	-29.374	0.100
328.900	-21.202	0.100
329.000	-20.447	0.100
329.100	-23.015	0.100
329.200	-31.060	0.100
329.300	-29.568	0.100
329.400	-27.688	0.100
329.500	-27.331	0.100
329.600	-31.092	0.100
329.700	-22.725	0.100
329.800	-30.358	0.100
329.900	-15.670	0.100
330.000	-16.793	0.100
330.100	-23.413	0.100
330.200	-11.299	0.100
330.300	-10.174	0.100
330.400	4.392	0.100
330.500	-0.492	0.100
330.600	7.327	0.100
330.700	6.863	0.100
330.800	13.181	0.100
330.900	9.997	0.100
331.000	0.942	0.100
331.100	13.659	0.100
331.200	11.421	0.100
331.300	7.524	0.100
331.400	12.103	0.100
331.500	21.320	0.100
331.600	22.906	0.100
331.700	19.918	0.100
331.800	19.669	0.100
331.900	18.222	0.100
332.000	17.208	0.100
332.100	16.198	0.100
332.200	27.149	0.100
332.300	30.281	0.100
332.400	23.746	0.100
332.500	27.721	0.100
332.600	21.477	0.100
332.700	23.428	0.100
332.800	22.746	0.100
332.900	22.345	0.100
333.000	14.452	0.100
333.100	21.824	0.100
333.200	22.298	0.100
333.300	25.031	0.100
333.400	21.587	0.100
333.500	22.063	0.100
333.600	20.598	0.100
333.700	29.532	0.100
333.800	39.461	0.100
333.900	21.518	0.100
334.000	18.281	0.100
334.100	26.761	0.100
334.200	26.479	0.100
334.300	27.109	0.100
334.400	26.244	0.100
334.500	24.209	0.100
334.600	26.417	0.100
334.700	20.365	0.100
334.800	20.749	0.100
334.900	12.622	0.100
335.000	25.197	0.100
335.100	31.613	0.100
335.200	25.639	0.100
335.300	29.760	0.100
335.400	29.522	0.100
335.500	26.567	0.100
335.600	20.040	0.100
335.700	24.724	0.100
335.800	21.047	0.100
335.900	20.594	0.100
336.000	27.359	0.100
336.100	26.301	0.100
336.200	20.998	0.100
336.300	6.652	0.100
336.400	12.696	0.100
336.500	29.801	0.100
336.600	18.632	0.100
336.700	32.757	0.100
336.800	29.905	0.100
336.900	17.832	0.100
337.000	16.576	0.100
337.100	15.512	0.100
337.200	24.629	0.100
337.300	20.746	0.100
337.400	23.334	0.100
337.500	30.214	0.100
337.600	25.364	0.100
337.700	18.543	0.100
337.800	22.609	0.100
337.900	27.841	0.100
338.000	17.630	0.100
338.100	30.750	0.100
338.200	16.192	0.100
338.300	22.908	0.100
338.400	26.181	0.100
338.500	13.473	0.100
338.600	30.586	0.100
338.700	30.479	0.100
338.800	27.548	0.100
338.900	30.128	0.100
339.000	21.949	0.100
339.100	28.887	0.100
339.200	17.816	0.100
339.300	28.228	0.100
339.400	37.457	0.100
339.500	27.261	0.100
339.600	36.468	0.100
339.700	20.209	0.100
339.800	23.097	0.100
339.900	23.882	0.100
340.000	22.906	0.100
340.100	25.348	0.100
340.200	34.144	0.100
340.300	21.314	0.100
340.400	30.739	0.100
340.500	27.712	0.100
340.600	24.465	0.100
340.700	36.929	0.100
340.800	30.556	0.100
340.900	28.866	0.100
341.000	29.422	0.100
341.100	27.185	0.100
341.200	25.145	0.100
341.300	24.205	0.100
341.400	38.813	0.100
341.500	30.462	0.100
341.600	30.215	0.100
341.700	28.200	0.100
341.800	25.402	0.100
341.900	25.058	0.100
342.000	26.316	0.100
342.100	25.868	0.100
342.200	31.377	0.100
342.300	36.967	0.100
342.400	29.625	0.100
342.500	28.223	0.100
342.600	37.047	0.100
342.700	29.359	0.100
342.800	37.355	0.100
342.900	25.857	0.100
343.000	27.752	0.100
343.100	19.138	0.100
343.200	32.407	0.100
343.300	39.928	0.100
343.400	33.859	0.100
343.500	27.121	0.100
343.600	32.456	0.100
343.700	29.709	0.100
343.800	28.202	0.100
343.900	36.847	0.100
344.000	45.274	0.100
344.100	39.978	0.100
344.200	38.436	0.100
344.300	30.371	0.100
344.400	34.067	0.100
344.500	27.167	0.100
344.600	36.087	0.100
344.700	31.300	0.100
344.800	38.494	0.100
344.900	27.514	0.100
345.000	32.455	0.100
345.100	26.627	0.100
345.200	42.370	0.100
345.300	49.367	0.100
345.400	37.601	0.100
345.500	38.851	0.100
345.600	33.417	0.100
345.700	40.751	0.100
345.800	47.350	0.100
345.900	33.685	0.100
346.000	41.014	0.100
346.100	31.189	0.100
346.200	36.784	0.100
346.300	40.251	0.100
346.400	48.063	0.100
346.500	37.216	0.100
346.600	41.182	0.100
346.700	52.539	0.100
346.800	40.777	0.100
346.900	49.029	0.100
347.000	40.941	0.100
347.100	45.276	0.100
347.200	47.178	0.100
347.300	46.364	0.100
347.400	49.011	0.100
347.500	51.107	0.100
347.600	45.601	0.100
347.700	44.281	0.100
347.800	45.621	0.100
347.900	56.259	0.100
348.000	47.904	0.100
348.100	51.962	0.100
348.200	53.310	0.100
348.300	51.421	0.100
348.400	54.809	0.100
348.500	50.735	0.100
348.600	42.057	0.100
348.700	50.932	0.100
348.800	55.267	0.100
348.900	54.138	0.100
349.000	58.418	0.100
349.100	49.663	0.100
349.200	52.386	0.100
349.300	57.684	0.100
349.400	50.252	0.100
349.500	48.347	0.100
349.600	56.821	0.100
349.700	52.066	0.100
349.800	56.928	0.100
349.900	59.150	0.100
350.000	50.424	0.100
350.100	60.161	0.100
350.200	55.249	0.100
350.300	62.096	0.100
350.400	68.167	0.100
350.500	57.875	0.100
350.600	51.673	0.100
350.700	54.776	0.100
350.800	56.207	0.100
350.900	56.730	0.100
351.000	64.350	0.100
351.100	61.587	0.100
351.200	60.256	0.100
351.300	56.007	0.100
351.400	65.842	0.100
351.500	57.795	0.100
351.600	56.839	0.100
351.700	61.140	0.100
351.800	59.674	0.100
351.900	66.974	0.100
352.000	58.623	0.100
352.100	59.434	0.100
352.200	62.730	0.100
352.300	58.613	0.100
352.400	73.000	0.100
352.500	60.171	0.100
352.600	65.228	0.100
352.700	68.478	0.100
352.800	64.525	0.100
352.900	65.051	0.100
353.000	66.257	0.100
353.100	61.262	0.100
353.200	58.172	0.100
353.300	60.935	0.100
353.400	69.579	0.100
353.500	72.866	0.100
353.600	70.141	0.100
353.700	58.139	0.100
353.800	60.268	0.100
353.900	76.581	0.100
354.000	68.265	0.100
354.100	68.931	0.100
354.200	58.941	0.100
354.300	74.363	0.100
354.400	75.064	0.100
354.500	71.912	0.100
354.600	60.776	0.100
354.700	68.911	0.100
354.800	75.429	0.100
354.900	77.458	0.100
355.000	61.184	0.100
355.100	63.191	0.100
355.200	68.690	0.100
355.300	64.742	0.100
355.400	66.676	0.100
355.500	81.427	0.100
355.600	75.540	0.100
355.700	73.063	0.100
355.800	79.401	0.100
355.900	77.447	0.100
356.000	62.950	0.100
356.100	73.825	0.100
356.200	61.297	0.100
356.300	60.043	0.100
356.400	75.772	0.100
356.500	78.394	0.100
356.600	72.292	0.100
356.700	68.007	0.100
356.800	67.170	0.100
356.900	70.158	0.100
357.000	61.024	0.100
357.100	71.197	0.100
357.200	78.074	0.100
357.300	68.151	0.100
357.400	73.103	0.100
357.500	75.082	0.100
357.600	60.364	0.100
357.700	62.729	0.100
357.800	70.038	0.100
357.900	76.028	0.100
358.000	73.563	0.100
358.100	77.365	0.100
358.200	74.321	0.100
358.300	65.729	0.100
358.400	68.644	0.100
358.500	76.433	0.100
358.600	79.953	0.100
358.700	77.074	0.100
358.800	62.427	0.100
358.900	71.991	0.100
359.000	68.656	0.100
359.100	67.569	0.100
359.200	71.638	0.100
359.300	73.888	0.100
359.400	57.473	0.100
359.500	62.016	0.100
359.600	64.183	0.100
359.700	64.843	0.100
359.800	66.987	0.100
359.900	63.374	0.100
360.000	69.997	0.100
360.100	83.770	0.100
360.200	76.091	0.100
360.300	82.792	0.100
360.400	69.142	0.100
360.500	66.881	0.100
360.600	70.291	0.100
360.700	74.178	0.100
360.800	72.558	0.100
360.900	65.501	0.100
361.000	65.374	0.100
361.100	70.043	0.100
361.200	62.809	0.100
361.300	69.049	0.100
361.400	62.562	0.100
361.500	71.851	0.100
361.600	67.895	0.100
361.700	69.117	0.100
361.800	76.849	0.100
361.900	61.289	0.100
362.000	65.215	0.100
362.100	71.997	0.100
362.200	72.778	0.100
362.300	72.295	0.100
362.400	60.736	0.100
362.500	64.774	0.100
362.600	73.537	0.100
362.700	78.379	0.100
362.800	72.770	0.100
362.900	62.527	0.100
363.000	61.902	0.100
363.100	71.902	0.100
363.200	69.319	0.100
363.300	64.868	0.100
363.400	73.386	0.100
363.500	66.848	0.100
363.600	70.324	0.100
363.700	69.485	0.100
363.800	63.801	0.100
363.900	68.733	0.100
364.000	73.895	0.100
364.100	71.985	0.100
364.200	66.803	0.100
364.300	69.303	0.100
364.400	66.498	0.100
364.500	68.100	0.100
364.600	58.457	0.100
364.700	71.841	0.100
364.800	70.279	0.100
364.900	68.335	0.100
365.000	62.124	0.100
365.100	64.609	0.100
365.200	69.235	0.100
365.300	71.077	0.100
365.400	59.308	0.100
365.500	69.499	0.100
365.600	65.804	0.100
365.700	63.454	0.100
365.800	63.871	0.100
365.900	69.727	0.100
366.000	68.946	0.100
366.100	60.474	0.100
366.200	67.747	0.100
366.300	66.787	0.100
366.400	61.858	0.100
366.500	59.748	0.100
366.600	64.647	0.100
366.700	68.444	0.100
366.800	71.129	0.100
366.900	75.083	0.100
367.000	59.122	0.100
367.100	67.988	0.100
367.200	62.389	0.100
367.300	64.071	0.100
367.400	61.623	0.100
367.500	64.906	0.100
367.600	71.394	0.100
367.700	63.391	0.100
367.800	66.407	0.100
367.900	63.348	0.100
368.000	69.195	0.100
368.100	69.618	0.100
368.200	69.227	0.100
368.300	64.878	0.100
368.400	60.001	0.100
368.500	61.888	0.100
368.600	59.124	0.100
368.700	65.704	0.100
368.800	68.982	0.100
368.900	69.617	0.100
369.000	68.773	0.100
369.100	65.715	0.100
369.200	67.493	0.100
369.300	69.680	0.100
369.400	70.420	0.100
369.500	68.702	0.100
369.600	63.250	0.100
369.700	63.928	0.100
369.800	64.568	0.100
369.900	68.887	0.100
370.000	61.723	0.100
370.100	62.150	0.100
370.200	63.294	0.100
370.300	64.124	0.100
370.400	58.396	0.100
370.500	74.719	0.100
370.600	73.366	0.100
370.700	64.629	0.100
370.800	68.072	0.100
370.900	67.849	0.100
371.000	62.189	0.100
371.100	63.018	0.100
371.200	63.390	0.100
371.300	70.640	0.100
371.400	65.041	0.100
371.500	59.390	0.100
371.600	66.536	0.100
371.700	61.662	0.100
371.800	62.295	0.100
371.900	76.151	0.100
372.000	61.751	0.100
372.100	61.913	0.100
372.200	66.198	0.100
372.300	71.631	0.100
372.400	71.831	0.100
372.500	63.911	0.100
372.600	63.341	0.100
372.700	69.242	0.100
372.800	59.117	0.100
372.900	59.661	0.100
373.000	66.670	0.100
373.100	62.883	0.100
373.200	65.229	0.100
373.300	69.860	0.100
373.400	55.996	0.100
373.500	67.180	0.100
373.600	71.223	0.100
373.700	72.073	0.100
373.800	63.716	0.100
373.900	55.772	0.100
374.000	61.039	0.100
374.100	66.681	0.100
374.200	60.937	0.100
374.300	57.497	0.100
374.400	63.207	0.100
374.500	62.886	0.100
374.600	71.475	0.100
374.700	62.183	0.100
374.800	65.047	0.100
374.900	62.147	0.100
375.000	65.634	0.100
375.100	60.440	0.100
375.200	60.185	0.100
375.300	68.582	0.100
375.400	65.805	0.100
375.500	65.374	0.100
375.600	64.031	0.100
375.700	64.380	0.100
375.800	66.759	0.100
375.900	61.052	0.100
376.000	59.519	0.100
376.100	62.519	0.100
376.200	74.413	0.100
376.300	71.377	0.100
376.400	64.048	0.100
376.500	62.233	0.100
376.600	69.374	0.100
376.700	54.970	0.100
376.800	60.258	0.100
376.900	67.762	0.100
377.000	55.862	0.100
377.100	65.459	0.100
377.200	70.206	0.100
377.300	69.390	0.100
377.400	65.168	0.100
377.500	71.484	0.100
377.600	65.623	0.100
377.700	56.412	0.100
377.800	71.888	0.100
377.900	61.169	0.100
378.000	64.993	0.100
378.100	76.526	0.100
378.200	61.747	0.100
378.300	62.902	0.100
378.400	61.230	0.100
378.500	61.471	0.100
378.600	71.825	0.100
378.700	60.387	0.100
378.800	55.372	0.100
378.900	61.302	0.100
379.000	65.032	0.100
379.100	68.079	0.100
379.200	61.345	0.100
379.300	60.882	0.100
379.400	69.389	0.100
379.500	59.223	0.100
379.600	63.122	0.100
379.700	64.601	0.100
379.800	62.397	0.100
379.900	59.965	0.100
380.000	72.916	0.100
380.100	62.395	0.100
380.200	70.246	0.100
380.300	61.979	0.100
380.400	61.393	0.100
380.500	63.526	0.100
380.600	67.606	0.100
380.700	56.117	0.100
380.800	61.150	0.100
380.900	62.422	0.100
381.000	65.897	0.100
381.100	64.037	0.100
381.200	61.551	0.100
381.300	70.820	0.100
381.400	54.725	0.100
381.500	64.687	0.100
381.600	74.316	0.100
381.700	63.296	0.100
381.800	60.417	0.100
381.900	63.531	0.100
382.000	65.221	0.100
382.100	65.173	0.100
382.200	68.528	0.100
382.300	62.325	0.100
382.400	75.005	0.100
382.500	56.639	0.100
382.600	68.235	0.100
382.700	63.282	0.100
382.800	58.160	0.100
382.900	72.096	0.100
383.000	58.314	0.100
383.100	61.669	0.100
383.200	64.899	0.100
383.300	54.259	0.100
383.400	64.985	0.100
383.500	69.801	0.100
383.600	62.841	0.100
383.700	66.021	0.100
383.800	72.310	0.100
383.900	68.736	0.100
384.000	53.487	0.100
384.100	65.231	0.100
384.200	60.206	0.100
384.300	65.687	0.100
384.400	63.766	0.100
384.500	62.784	0.100
384.600	66.062	0.100
384.700	57.827	0.100
384.800	60.130	0.100
384.900	52.719	0.100
385.000	70.342	0.100
385.100	63.075	0.100
385.200	56.066	0.100
385.300	52.786	0.100
385.400	65.375	0.100
385.500	57.659	0.100
385.600	64.738	0.100
385.700	65.275	0.100
385.800	65.745	0.100
385.900	61.248	0.100
386.000	51.874	0.100
386.100	56.191	0.100
386.200	62.853	0.100
386.300	69.601	0.100
386.400	71.484	0.100
386.500	61.382	0.100
386.600	56.191	0.100
386.700	61.602	0.100
386.800	65.644	0.100
386.900	58.517	0.100
387.000	60.227	0.100
387.100	65.675	0.100
387.200	56.585	0.100
387.300	59.999	0.100
387.400	65.690	0.100
387.500	66.368	0.100
387.600	57.010	0.100
387.700	61.744	0.100
387.800	62.990	0.100
387.900	61.002	0.100
388.000	59.452	0.100
388.100	64.523	0.100
388.200	47.810	0.100
388.300	63.562	0.100
388.400	65.603	0.100
388.500	61.024	0.100
388.600	60.839	0.100
388.700	62.413	0.100
388.800	69.810	0.100
388.900	64.373	0.100
389.000	51.519	0.100
389.100	62.799	0.100
389.200	67.110	0.100
389.300	60.699	0.100
389.400	61.098	0.100
389.500	67.335	0.100
389.600	70.700	0.100
389.700	60.445	0.100
389.800	59.223	0.100
389.900	54.356	0.100
390.000	57.210	0.100
390.100	54.128	0.100
390.200	39.703	0.100
390.300	44.623	0.100
390.400	46.144	0.100
390.500	43.645	0.100
390.600	36.641	0.100
390.700	34.508	0.100
390.800	20.375	0.100
390.900	18.835	0.100
391.000	16.314	0.100
391.100	18.061	0.100
391.200	24.034	0.100
391.300	16.414	0.100
391.400	8.537	0.100
391.500	4.914	0.100
391.600	13.470	0.100
391.700	-0.455	0.100
391.800	3.634	0.100
391.900	3.354	0.100
392.000	-1.061	0.100
392.100	5.401	0.100
392.200	2.370	0.100
392.300	-1.301	0.100
392.400	1.089	0.100
392.500	-1.459	0.100
392.600	3.462	0.100
392.700	-8.674	0.100
392.800	7.561	0.100
392.900	-1.825	0.100
393.000	-1.674	0.100
393.100	-20.790	0.100
393.200	-0.967	0.100
393.300	-12.735	0.100
393.400	-13.626	0.100
393.500	-19.575	0.100
393.600	-7.918	0.100
393.700	-2.455	0.100
393.800	1.328	0.100
393.900	-10.316	0.100
394.000	-3.903	0.100
394.100	-4.717	0.100
394.200	0.938	0.100
394.300	-6.528	0.100
394.400	-13.328	0.100
394.500	-12.709	0.100
394.600	-4.292	0.100
394.700	-3.908	0.100
394.800	-11.381	0.100
394.900	-13.898	0.100
395.000	-12.878	0.100
395.100	-13.639	0.100
395.200	-8.364	0.100
395.300	-11.817	0.100
395.400	-12.101	0.100
395.500	-11.739	0.100
395.600	-9.251	0.100
395.700	-7.305	0.100
395.800	-20.934	0.100
395.900	-7.115	0.100
396.000	-21.486	0.100
396.100	-7.748	0.100
396.200	-13.848	0.100
396.300	-6.428	0.100
396.400	-14.026	0.100
396.500	-21.398	0.100
396.600	-8.928	0.100
396.700	-6.570	0.100
396.800	-11.943	0.100
396.900	-10.835	0.100
397.000	-17.722	0.100
397.100	-12.771	0.100
397.200	-5.056	0.100
397.300	-5.913	0.100
397.400	-4.169	0.100
397.500	-7.067	0.100
397.600	-11.862	0.100
397.700	-5.293	0.100
397.800	-18.629	0.100
397.900	-12.658	0.100
398.000	-11.654	0.100
398.100	-10.013	0.100
398.200	-6.601	0.100
398.300	-11.229	0.100
398.400	-14.534	0.100
398.500	-10.684	0.100
398.600	-15.231	0.100
398.700	-23.795	0.100
398.800	-10.996	0.100
398.900	-13.898	0.100
399.000	-24.445	0.100
399.100	-15.887	0.100
399.200	-11.248	0.100
399.300	-9.923	0.100
399.400	-10.292	0.100
399.500	-9.116	0.100
399.600	-15.334	0.100
399.700	-14.504	0.100
399.800	-11.868	0.100
399.900	-14.631	0.100
400.000	-14.785	0.100
400.100	-16.713	0.100
400.200	-13.696	0.100
400.300	-7.457	0.100
400.400	-12.267	0.100
400.500	-9.440	0.100
400.600	-19.477	0.100
400.700	-23.044	0.100
400.800	-10.678	0.100
400.900	-5.966	0.100
401.000	-5.676	0.100
401.100	-17.604	0.100
401.200	-21.693	0.100
401.300	-19.464	0.100
401.400	-8.122	0.100
401.500	-15.639	0.100
401.600	-15.950	0.100
401.700	-13.828	0.100
401.800	-20.691	0.100
401.900	-18.560	0.100
402.000	-13.701	0.100
402.100	-16.571	0.100
402.200	-21.283	0.100
402.300	-12.622	0.100
402.400	-15.635	0.100
402.500	-11.376	0.100
402.600	-19.119	0.100
402.700	-22.241	0.100
402.800	-13.489	0.100
402.900	-16.211	0.100
403.000	-19.599	0.100
403.100	-22.527	0.100
403.200	-19.069	0.100
403.300	-17.190	0.100
403.400	-26.989	0.100
403.500	-13.277	0.100
403.600	-17.516	0.100
403.700	-18.163	0.100
403.800	-16.058	0.100
403.900	-7.334	0.100
404.000	-22.926	0.100
404.100	-9.046	0.100
404.200	-16.115	0.100
404.300	-16.738	0.100
404.400	-10.938	0.100
404.500	-20.242	0.100
404.600	-22.033	0.100
404.700	-27.758	0.100
404.800	-15.198	0.100
404.900	-19.753	0.100
405.000	-22.089	0.100
405.100	-7.989	0.100
405.200	-7.675	0.100
405.300	-21.134	0.100
405.400	-22.036	0.100
405.500	-25.741	0.100
405.600	-26.185	0.100
405.700	-29.436	0.100
405.800	-18.683	0.100
405.900	-12.578	0.100
406.000	-18.380	0.100
406.100	-11.600	0.100
406.200	-20.109	0.100
406.300	-17.931	0.100
406.400	-26.326	0.100
406.500	-21.608	0.100
406.600	-23.550	0.100
406.700	-20.518	0.100
406.800	-20.602	0.100
406.900	-20.902	0.100
407.000	-14.006	0.100
407.100	-27.314	0.100
407.200	-15.316	0.100
407.300	-24.231	0.100
407.400	-24.174	0.100
407.500	-26.844	0.100
407.600	-25.736	0.100
407.700	-14.680	0.100
407.800	-15.729	0.100
407.900	-11.590	0.100
408.000	-19.462	0.100
408.100	-14.907	0.100
408.200	-27.381	0.100
408.300	-21.740	0.100
408.400	-25.826	0.100
408.500	-24.891	0.100
408.600	-30.541	0.100
408.700	-19.401	0.100
408.800	-15.979	0.100
408.900	-35.674	0.100
409.000	-25.083	0.100
409.100	-29.802	0.100
409.200	-24.172	0.100
409.300	-23.409	0.100
409.400	-12.896	0.100
409.500	-16.079	0.100
409.600	-18.028	0.100
409.700	-18.373	0.100
409.800	-12.927	0.100
409.900	-24.287	0.100
410.000	-25.198	0.100
410.100	-24.970	0.100
410.200	-22.398	0.100
410.300	-27.116	0.100
410.400	-16.043	0.100
410.500	-25.363	0.100
410.600	-30.122	0.100
410.700	-25.835	0.100
410.800	-24.232	0.100
410.900	-23.451	0.100
411.000	-29.417	0.100
411.100	-19.249	0.100
411.200	-20.145	0.100
411.300	-18.649	0.100
411.400	-15.127	0.100
411.500	-27.718	0.100
411.600	-25.584	0.100
411.700	-27.540	0.100
411.800	-13.820	0.100
411.900	-23.474	0.100
412.000	-27.157	0.100
412.100	-27.902	0.100
412.200	-32.692	0.100
412.300	-16.640	0.100
412.400	-17.761	0.100
412.500	-21.246	0.100
412.600	-36.464	0.100
412.700	-25.219	0.100
412.800	-15.049	0.100
412.900	-25.103	0.100
413.000	-28.114	0.100
413.100	-28.275	0.100
413.200	-24.262	0.100
413.300	-25.374	0.100
413.400	-29.571	0.100
413.500	-21.939	0.100
413.600	-20.201	0.100
413.700	-29.959	0.100
413.800	-27.650	0.100
413.900	-19.546	0.100
414.000	-36.034	0.100
414.100	-30.668	0.100
414.200	-30.644	0.100
414.300	-19.628	0.100
414.400	-26.416	0.100
414.500	-32.781	0.100
414.600	-30.396	0.100
414.700	-27.300	0.100
414.800	-23.859	0.100
414.900	-31.837	0.100
415.000	-30.503	0.100
415.100	-28.110	0.100
415.200	-19.152	0.100
415.300	-30.718	0.100
415.400	-27.706	0.100
415.500	-19.144	0.100
415.600	-23.168	0.100
415.700	-23.865	0.100
415.800	-32.244	0.100
415.900	-33.617	0.100
416.000	-23.067	0.100
416.100	-24.434	0.100
416.200	-33.736	0.100
416.300	-23.423	0.100
416.400	-30.386	0.100
416.500	-38.424	0.100
416.600	-28.778	0.100
416.700	-25.490	0.100
416.800	-37.195	0.100
416.900	-24.966	0.100
417.000	-33.660	0.100
417.100	-26.598	0.100
417.200	-30.187	0.100
417.300	-24.495	0.100
417.400	-29.844	0.100
417.500	-19.983	0.100
417.600	-24.952	0.100
417.700	-38.849	0.100
417.800	-25.947	0.100
417.900	-27.341	0.100
418.000	-26.205	0.100
418.100	-25.927	0.100
418.200	-33.845	0.100
418.300	-26.204	0.100
418.400	-21.315	0.100
418.500	-36.079	0.100
418.600	-31.113	0.100
418.700	-24.915	0.100
418.800	-29.415	0.100
418.900	-31.219	0.100
419.000	-35.639	0.100
419.100	-32.656	0.100
419.200	-42.226	0.100
419.300	-32.208	0.100
419.400	-33.778	0.100
419.500	-34.728	0.100
419.600	-28.852	0.100
419.700	-34.542	0.100
419.800	-27.234	0.100
419.900	-35.032	0.100
420.000	-32.446	0.100
420.100	-31.202	0.100
420.200	-28.733	0.100
420.300	-38.079	0.100
420.400	-23.222	0.100
420.500	-33.088	0.100
420.600	-37.067	0.100
420.700	-28.103	0.100
420.800	-31.341	0.100
420.900	-31.270	0.100
421.000	-28.771	0.100
421.100	-41.564	0.100
421.200	-35.361	0.100
421.300	-35.841	0.100
421.400	-34.120	0.100
421.500	-20.996	0.100
421.600	-29.115	0.100
421.700	-39.278	0.100
421.800	-30.796	0.100
421.900	-29.621	0.100
422.000	-29.770	0.100
422.100	-42.568	0.100
422.200	-34.031	0.100
422.300	-37.199	0.100
422.400	-44.634	0.100
422.500	-42.150	0.100
422.600	-34.658	0.100
422.700	-26.989	0.100
422.800	-28.528	0.100
422.900	-41.980	0.100
423.000	-29.269	0.100
423.100	-34.543	0.100
423.200	-33.001	0.100
423.300	-38.613	0.100
423.400	-36.640	0.100
423.500	-31.184	0.100
423.600	-37.214	0.100
423.700	-33.293	0.100
423.800	-37.511	0.100
423.900	-34.308	0.100
424.000	-38.404	0.100
424.100	-33.088	0.100
424.200	-41.891	0.100
424.300	-33.454	0.100
424.400	-38.689	0.100
424.500	-39.827	0.100
424.600	-36.215	0.100
424.700	-35.976	0.100
424.800	-34.661	0.100
424.900	-35.275	0.100
425.000	-48.669	0.100
425.100	-36.439	0.100
425.200	-37.318	0.100
425.300	-30.855	0.100
425.400	-30.062	0.100
425.500	-38.894	0.100
425.600	-34.819	0.100
425.700	-27.949	0.100
425.800	-33.997	0.100
425.900	-30.476	0.100
426.000	-40.298	0.100
426.100	-41.337	0.100
426.200	-30.168	0.100
426.300	-33.073	0.100
426.400	-36.940	0.100
426.500	-35.768	0.100
426.600	-24.732	0.100
426.700	-32.830	0.100
426.800	-44.978	0.100
426.900	-35.539	0.100
427.000	-35.838	0.100
427.100	-35.069	0.100
427.200	-33.468	0.100
427.300	-32.469	0.100
427.400	-34.942	0.100
427.500	-31.008	0.100
427.600	-40.159	0.100
427.700	-37.983	0.100
427.800	-40.109	0.100
427.900	-42.406	0.100
428.000	-44.347	0.100
428.100	-40.979	0.100
428.200	-38.437	0.100
428.300	-33.820	0.100
428.400	-36.032	0.100
428.500	-23.073	0.100
428.600	-27.508	0.100
428.700	-41.018	0.100
428.800	-33.581	0.100
428.900	-33.274	0.100
429.000	-36.081	0.100
429.100	-35.604	0.100
429.200	-43.231	0.100
429.300	-35.344	0.100
429.400	-41.739	0.100
429.500	-40.536	0.100
429.600	-39.357	0.100
429.700	-30.895	0.100
429.800	-41.294	0.100
429.900	-45.257	0.100
430.000	-44.881	0.100
430.100	-33.132	0.100
430.200	-38.753	0.100
430.300	-35.649	0.100
430.400	-42.213	0.100
430.500	-37.177	0.100
430.600	-35.195	0.100
430.700	-34.092	0.100
430.800	-34.053	0.100
430.900	-32.495	0.100
431.000	-35.242	0.100
431.100	-33.987	0.100
431.200	-33.615	0.100
431.300	-37.323	0.100
431.400	-48.573	0.100
431.500	-41.249	0.100
431.600	-45.994	0.100
431.700	-50.247	0.100
431.800	-30.989	0.100
431.900	-37.458	0.100
432.000	-26.457	0.100
432.100	-32.714	0.100
432.200	-38.861	0.100
432.300	-43.233	0.100
432.400	-36.267	0.100
432.500	-50.057	0.100
432.600	-39.233	0.100
432.700	-30.301	0.100
432.800	-39.539	0.100
432.900	-41.514	0.100
433.000	-42.642	0.100
433.100	-38.465	0.100
433.200	-29.477	0.100
433.300	-44.054	0.100
433.400	-26.910	0.100
433.500	-36.486	0.100
433.600	-36.678	0.100
433.700	-44.061	0.100
433.800	-33.626	0.100
433.900	-32.568	0.100
434.000	-34.866	0.100
434.100	-33.120	0.100
434.200	-37.800	0.100
434.300	-46.423	0.100
434.400	-31.399	0.100
434.500	-42.037	0.100
434.600	-47.635	0.100
434.700	-28.475	0.100
434.800	-29.913	0.100
434.900	-38.410	0.100
435.000	-39.748	0.100
435.100	-39.866	0.100
435.200	-31.582	0.100
435.300	-36.213	0.100
435.400	-46.752	0.100
435.500	-45.427	0.100
435.600	-37.784	0.100
435.700	-38.549	0.100
435.800	-34.995	0.100
435.900	-38.123	0.100
436.000	-37.827	0.100
436.100	-35.088	0.100
436.200	-33.151	0.100
436.300	-39.732	0.100
436.400	-41.523	0.100
436.500	-32.296	0.100
436.600	-41.189	0.100
436.700	-33.819	0.100
436.800	-42.054	0.100
436.900	-30.150	0.100
437.000	-36.426	0.100
437.100	-34.394	0.100
437.200	-39.111	0.100
437.300	-36.483	0.100
437.400	-41.366	0.100
437.500	-33.831	0.100
437.600	-29.586	0.100
437.700	-28.273	0.100
437.800	-33.141	0.100
437.900	-37.265	0.100
438.000	-42.884	0.100
438.100	-44.288	0.100
438.200	-35.423	0.100
438.300	-33.998	0.100
438.400	-28.500	0.100
438.500	-34.723	0.100
438.600	-43.239	0.100
438.700	-37.905	0.100
438.800	-38.233	0.100
438.900	-38.075	0.100
439.000	-36.070	0.100
439.100	-32.821	0.100
439.200	-28.136	0.100
439.300	-33.523	0.100
439.400	-33.448	0.100
439.500	-39.402	0.100
439.600	-37.581	0.100
439.700	-32.480	0.100
439.800	-37.644	0.100
439.900	-38.248	0.100
440.000	-35.918	0.100
440.100	-31.202	0.100
440.200	-33.444	0.100
440.300	-28.425	0.100
440.400	-34.546	0.100
440.500	-33.848	0.100
440.600	-42.163	0.100
440.700	-27.873	0.100
440.800	-37.524	0.100
440.900	-36.587	0.100
441.000	-34.863	0.100
441.100	-30.185	0.100
441.200	-37.674	0.100
441.300	-47.164	0.100
441.400	-31.686	0.100
441.500	-34.286	0.100
441.600	-33.894	0.100
441.700	-39.310	0.100
441.800	-39.177	0.100
441.900	-34.895	0.100
442.000	-38.895	0.100
442.100	-29.892	0.100
442.200	-40.494	0.100
442.300	-35.597	0.100
442.400	-33.281	0.100
442.500	-39.426	0.100
442.600	-37.550	0.100
442.700	-37.055	0.100
442.800	-38.538	0.100
442.900	-34.318	0.100
443.000	-31.157	0.100
443.100	-30.096	0.100
443.200	-25.937	0.100
443.300	-35.940	0.100
443.400	-44.780	0.100
443.500	-36.631	0.100
443.600	-40.766	0.100
443.700	-44.239	0.100
443.800	-34.558	0.100
443.900	-39.787	0.100
444.000	-34.867	0.100
444.100	-30.462	0.100
444.200	-46.373	0.100
444.300	-36.276	0.100
444.400	-40.730	0.100
444.500	-34.525	0.100
444.600	-24.663	0.100
444.700	-37.565	0.100
444.800	-30.632	0.100
444.900	-42.876	0.100
445.000	-39.574	0.100
445.100	-34.043	0.100
445.200	-32.791	0.100
445.300	-28.734	0.100
445.400	-25.458	0.100
445.500	-40.043	0.100
445.600	-31.020	0.100
445.700	-40.147	0.100
445.800	-40.075	0.100
445.900	-27.715	0.100
446.000	-35.546	0.100
446.100	-35.686	0.100
446.200	-41.540	0.100
446.300	-31.886	0.100
446.400	-37.221	0.100
446.500	-39.045	0.100
446.600	-30.268	0.100
446.700	-28.688	0.100
446.800	-31.467	0.100
446.900	-36.608	0.100
447.000	-34.011	0.100
447.100	-29.312	0.100
447.200	-31.160	0.100
447.300	-29.993	0.100
447.400	-32.506	0.100
447.500	-32.977	0.100
447.600	-33.642	0.100
447.700	-39.923	0.100
447.800	-35.465	0.100
447.900	-30.157	0.100
448.000	-31.226	0.100
448.100	-32.130	0.100
448.200	-35.820	0.100
448.300	-44.195	0.100
448.400	-35.481	0.100
448.500	-35.113	0.100
448.600	-34.126	0.100
448.700	-30.437	0.100
448.800	-26.817	0.100
448.900	-24.438	0.100
449.000	-29.680	0.100
449.100	-36.721	0.100
449.200	-39.152	0.100
449.300	-38.645	0.100
449.400	-31.471	0.100
449.500	-26.293	0.100
449.600	-31.148	0.100
449.700	-40.947	0.100
449.800	-38.741	0.100
449.900	-29.239	0.100
450.000	-36.750	0.100
450.100	-31.629	0.100
450.200	-29.355	0.100
450.300	-25.182	0.100
450.400	-35.034	0.100
450.500	-30.933	0.100
450.600	-37.587	0.100
450.700	-35.017	0.100
450.800	-27.063	0.100
450.900	-37.864	0.100
451.000	-31.120	0.100
451.100	-38.924	0.100
451.200	-33.228	0.100
451.300	-32.221	0.100
451.400	-25.042	0.100
451.500	-35.268	0.100
451.600	-34.889	0.100
451.700	-37.474	0.100
451.800	-27.374	0.100
451.900	-38.631	0.100
452.000	-28.398	0.100
452.100	-26.523	0.100
452.200	-32.974	0.100
452.300	-31.522	0.100
452.400	-29.925	0.100
452.500	-34.813	0.100
452.600	-41.933	0.100
452.700	-29.409	0.100
452.800	-31.868	0.100
452.900	-37.323	0.100
453.000	-32.178	0.100
453.100	-37.447	0.100
453.200	-25.921	0.100
453.300	-31.007	0.100
453.400	-38.932	0.100
453.500	-39.474	0.100
453.600	-35.111	0.100
453.700	-33.452	0.100
453.800	-32.132	0.100
453.900	-31.958	0.100
454.000	-27.415	0.100
454.100	-29.526	0.100
454.200	-23.282	0.100
454.300	-30.457	0.100
454.400	-41.762	0.100
454.500	-32.111	0.100
454.600	-38.211	0.100
454.700	-35.014	0.100
454.800	-33.033	0.100
454.900	-37.371	0.100
455.000	-28.937	0.100
455.100	-35.145	0.100
455.200	-38.547	0.100
455.300	-26.439	0.100
455.400	-31.852	0.100
455.500	-35.899	0.100
455.600	-32.041	0.100
455.700	-32.572	0.100
455.800	-31.905	0.100
455.900	-28.461	0.100
456.000	-29.949	0.100
456.100	-30.783	0.100
456.200	-21.663	0.100
456.300	-33.131	0.100
456.400	-33.270	0.100
456.500	-22.732	0.100
456.600	-35.762	0.100
456.700	-28.393	0.100
456.800	-33.635	0.100
456.900	-38.792	0.100
457.000	-38.708	0.100
457.100	-34.844	0.100
457.200	-39.846	0.100
457.300	-36.058	0.100
457.400	-34.912	0.100
457.500	-26.568	0.100
457.600	-31.888	0.100
457.700	-28.768	0.100
457.800	-22.366	0.100
457.900	-30.861	0.100
458.000	-37.019	0.100
458.100	-37.375	0.100
458.200	-32.033	0.100
458.300	-28.896	0.100
458.400	-33.589	0.100
458.500	-35.796	0.100
458.600	-31.924	0.100
458.700	-27.297	0.100
458.800	-32.055	0.100
458.900	-32.077	0.100
459.000	-25.449	0.100
459.100	-26.145	0.100
459.200	-29.819	0.100
459.300	-31.075	0.100
459.400	-27.085	0.100
459.500	-40.671	0.100
459.600	-39.826	0.100
459.700	-28.632	0.100
459.800	-24.622	0.100
459.900	-34.404	0.100
460.000	-28.762	0.100
460.100	-18.457	0.100
460.200	-29.070	0.100
460.300	-30.910	0.100
460.400	-32.628	0.100
460.500	-32.111	0.100
460.600	-32.124	0.100
460.700	-29.312	0.100
460.800	-31.101	0.100
460.900	-29.557	0.100
461.000	-36.451	0.100
461.100	-21.820	0.100
461.200	-36.070	0.100
461.300	-34.646	0.100
461.400	-28.340	0.100
461.500	-28.334	0.100
461.600	-27.375	0.100
461.700	-29.078	0.100
461.800	-27.609	0.100
461.900	-36.385	0.100
462.000	-26.513	0.100
462.100	-19.566	0.100
462.200	-28.378	0.100
462.300	-26.859	0.100
462.400	-37.870	0.100
462.500	-40.372	0.100
462.600	-31.666	0.100
462.700	-23.332	0.100
462.800	-27.053	0.100
462.900	-22.244	0.100
463.000	-27.799	0.100
463.100	-31.461	0.100
463.200	-29.688	0.100
463.300	-38.429	0.100
463.400	-30.798	0.100
463.500	-36.532	0.100
463.600	-35.165	0.100
463.700	-31.330	0.100
463.800	-28.812	0.100
463.900	-21.231	0.100
464.000	-29.337	0.100
464.100	-27.481	0.100
464.200	-33.130	0.100
464.300	-24.205	0.100
464.400	-33.676	0.100
464.500	-31.884	0.100
464.600	-25.520	0.100
464.700	-32.795	0.100
464.800	-26.489	0.100
464.900	-21.882	0.100
465.000	-24.495	0.100
465.100	-28.676	0.100
465.200	-39.519	0.100
465.300	-27.836	0.100
465.400	-27.943	0.100
465.500	-17.345	0.100
465.600	-22.934	0.100
465.700	-27.601	0.100
465.800	-33.279	0.100
465.900	-35.308	0.100
466.000	-30.970	0.100
466.100	-28.384	0.100
466.200	-34.190	0.100
466.300	-21.808	0.100
466.400	-22.886	0.100
466.500	-34.061	0.100
466.600	-31.232	0.100
466.700	-30.733	0.100
466.800	-19.919	0.100
466.900	-23.971	0.100
467.000	-25.624	0.100
467.100	-35.467	0.100
467.200	-24.174	0.100
467.300	-30.030	0.100
467.400	-26.360	0.100
467.500	-29.139	0.100
467.600	-22.342	0.100
467.700	-37.459	0.100
467.800	-26.227	0.100
467.900	-30.382	0.100
468.000	-31.289	0.100
468.100	-21.027	0.100
468.200	-25.390	0.100
468.300	-29.571	0.100
468.400	-24.871	0.100
468.500	-25.928	0.100
468.600	-35.393	0.100
468.700	-24.743	0.100
468.800	-27.205	0.100
468.900	-21.859	0.100
469.000	-28.106	0.100
469.100	-32.654	0.100
469.200	-40.865	0.100
469.300	-21.724	0.100
469.400	-27.099	0.100
469.500	-39.621	0.100
469.600	-25.246	0.100
469.700	-24.513	0.100
469.800	-32.603	0.100
469.900	-22.321	0.100
470.000	-20.384	0.100
470.100	-31.732	0.100
470.200	-30.154	0.100
470.300	-21.034	0.100
470.400	-25.317	0.100
470.500	-36.617	0.100
470.600	-32.901	0.100
470.700	-31.247	0.100
470.800	-33.735	0.100
470.900	-33.399	0.100
471.000	-24.501	0.100
471.100	-33.562	0.100
471.200	-36.899	0.100
471.300	-31.639	0.100
471.400	-28.508	0.100
471.500	-30.599	0.100
471.600	-26.060	0.100
471.700	-28.733	0.100
471.800	-35.719	0.100
471.900	-26.961	0.100
472.000	-30.265	0.100
472.100	-25.480	0.100
472.200	-26.207	0.100
472.300	-21.277	0.100
472.400	-14.641	0.100
472.500	-34.495	0.100
472.600	-18.383	0.100
472.700	-35.348	0.100
472.800	-22.204	0.100
472.900	-24.775	0.100
473.000	-30.819	0.100
473.100	-18.484	0.100
473.200	-28.990	0.100
473.300	-28.641	0.100
473.400	-33.517	0.100
473.500	-27.025	0.100
473.600	-27.381	0.100
473.700	-18.143	0.100
473.800	-27.122	0.100
473.900	-28.005	0.100
474.000	-29.242	0.100
474.100	-28.406	0.100
474.200	-17.803	0.100
474.300	-23.340	0.100
474.400	-29.422	0.100
474.500	-27.267	0.100
474.600	-26.677	0.100
474.700	-24.933	0.100
474.800	-27.452	0.100
474.900	-32.694	0.100
475.000	-24.575	0.100
475.100	-23.820	0.100
475.200	-33.248	0.100
475.300	-34.401	0.100
475.400	-28.184	0.100
475.500	-35.328	0.100
475.600	-26.626	0.100
475.700	-31.426	0.100
475.800	-35.273	0.100
475.900	-24.528	0.100
476.000	-31.491	0.100
476.100	-26.684	0.100
476.200	-37.975	0.100
476.300	-24.429	0.100
476.400	-25.503	0.100
476.500	-21.689	0.100
476.600	-19.692	0.100
476.700	-20.228	0.100
476.800	-17.619	0.100
476.900	-21.853	0.100
477.000	-39.163	0.100
477.100	-30.378	0.100
477.200	-33.439	0.100
477.300	-22.847	0.100
477.400	-26.088	0.100
477.500	-24.670	0.100
477.600	-27.039	0.100
477.700	-25.787	0.100
477.800	-26.796	0.100
477.900	-31.174	0.100
478.000	-27.906	0.100
478.100	-23.512	0.100
478.200	-35.891	0.100
478.300	-26.836	0.100
478.400	-27.157	0.100
478.500	-24.177	0.100
478.600	-22.521	0.100
478.700	-33.677	0.100
478.800	-27.448	0.100
478.900	-25.065	0.100
479.000	-24.947	0.100
479.100	-35.102	0.100
479.200	-28.367	0.100
479.300	-24.042	0.100
479.400	-32.140	0.100
479.500	-34.765	0.100
479.600	-23.717	0.100
479.700	-23.250	0.100
479.800	-28.663	0.100
479.900	-12.790	0.100
480.000	-19.506	0.100
480.100	-11.807	0.100
480.200	-21.520	0.100
480.300	-15.422	0.100
480.400	-9.298	0.100
480.500	-5.470	0.100
480.600	-1.000	0.100
480.700	2.089	0.100
480.800	7.003	0.100
480.900	11.848	0.100
481.000	16.352	0.100
481.100	12.905	0.100
481.200	8.962	0.100
481.300	16.163	0.100
481.400	19.621	0.100
481.500	17.466	0.100
481.600	20.889	0.100
481.700	19.952	0.100
481.800	19.776	0.100
481.900	24.988	0.100
482.000	12.248	0.100
482.100	28.955	0.100
482.200	22.876	0.100
482.300	17.528	0.100
482.400	23.615	0.100
482.500	32.089	0.100
482.600	26.728	0.100
482.700	16.227	0.100
482.800	20.118	0.100
482.900	25.272	0.100
483.000	18.579	0.100
483.100	29.197	0.100
483.200	21.078	0.100
483.300	19.076	0.100
483.400	32.033	0.100
483.500	27.332	0.100
483.600	22.161	0.100
483.700	22.747	0.100
483.800	30.354	0.100
483.900	23.628	0.100
484.000	23.493	0.100
484.100	22.989	0.100
484.200	27.443	0.100
484.300	21.843	0.100
484.400	32.170	0.100
484.500	31.056	0.100
484.600	21.970	0.100
484.700	18.311	0.100
484.800	26.016	0.100
484.900	31.530	0.100
485.000	31.500	0.100
485.100	28.480	0.100
485.200	25.839	0.100
485.300	16.899	0.100
485.400	19.361	0.100
485.500	22.617	0.100
485.600	22.423	0.100
485.700	20.699	0.100
485.800	17.915	0.100
485.900	20.750	0.100
486.000	21.887	0.100
486.100	21.474	0.100
486.200	20.785	0.100
486.300	28.515	0.100
486.400	18.395	0.100
486.500	19.387	0.100
486.600	25.649	0.100
486.700	24.020	0.100
486.800	28.727	0.100
486.900	29.215	0.100
487.000	21.658	0.100
487.100	17.681	0.100
487.200	18.299	0.100
487.300	16.673	0.100
487.400	19.621	0.100
487.500	24.481	0.100
487.600	28.230	0.100
487.700	27.912	0.100
487.800	22.149	0.100
487.900	29.217	0.100
488.000	25.161	0.100
488.100	16.728	0.100
488.200	16.021	0.100
488.300	31.228	0.100
488.400	17.974	0.100
488.500	27.023	0.100
488.600	25.253	0.100
488.700	24.259	0.100
488.800	25.105	0.100
488.900	26.696	0.100
489.000	23.237	0.100
489.100	25.486	0.100
489.200	27.992	0.100
489.300	20.940	0.100
489.400	28.834	0.100
489.500	27.992	0.100
489.600	20.341	0.100
489.700	14.432	0.100
489.800	27.783	0.100
489.900	30.896	0.100
490.000	32.736	0.100
490.100	26.491	0.100
490.200	19.381	0.100
490.300	37.452	0.100
490.400	33.134	0.100
490.500	24.020	0.100
490.600	25.334	0.100
490.700	40.147	0.100
490.800	26.427	0.100
490.900	21.275	0.100
491.000	24.830	0.100
491.100	32.545	0.100
491.200	28.226	0.100
491.300	29.717	0.100
491.400	27.279	0.100
491.500	26.532	0.100
491.600	35.939	0.100
491.700	33.877	0.100
491.800	28.423	0.100
491.900	22.147	0.100
492.000	28.496	0.100
492.100	28.332	0.100
492.200	23.880	0.100
492.300	35.390	0.100
492.400	27.863	0.100
492.500	31.216	0.100
492.600	22.841	0.100
492.700	30.933	0.100
492.800	26.450	0.100
492.900	31.119	0.100
493.000	32.420	0.100
493.100	30.833	0.100
493.200	38.054	0.100
493.300	38.718	0.100
493.400	26.755	0.100
493.500	32.914	0.100
493.600	27.657	0.100
493.700	20.732	0.100
493.800	25.906	0.100
493.900	42.236	0.100
494.000	40.020	0.100
494.100	37.097	0.100
494.200	33.279	0.100
494.300	36.770	0.100
494.400	35.444	0.100
494.500	42.498	0.100
494.600	30.092	0.100
494.700	32.357	0.100
494.800	28.720	0.100
494.900	31.613	0.100
495.000	38.044	0.100
495.100	38.718	0.100
495.200	42.036	0.100
495.300	38.530	0.100
495.400	39.487	0.100
495.500	37.084	0.100
495.600	36.768	0.100
495.700	48.028	0.100
495.800	38.486	0.100
495.900	38.526	0.100
496.000	37.502	0.100
496.100	36.325	0.100
496.200	36.623	0.100
496.300	36.111	0.100
496.400	43.648	0.100
496.500	40.585	0.100
496.600	49.878	0.100
496.700	37.192	0.100
496.800	44.109	0.100
496.900	53.140	0.100
497.000	42.721	0.100
497.100	48.822	0.100
497.200	39.240	0.100
497.300	45.494	0.100
497.400	53.088	0.100
497.500	47.081	0.100
497.600	37.888	0.100
497.700	40.543	0.100
497.800	51.429	0.100
497.900	49.097	0.100
498.000	56.426	0.100
498.100	51.270	0.100
498.200	49.775	0.100
498.300	47.604	0.100
498.400	52.504	0.100
498.500	51.286	0.100
498.600	46.030	0.100
498.700	43.810	0.100
498.800	48.277	0.100
498.900	53.836	0.100
499.000	48.879	0.100
499.100	54.385	0.100
499.200	51.445	0.100
499.300	50.830	0.100
499.400	57.523	0.100
499.500	53.761	0.100
499.600	53.052	0.100
499.700	60.130	0.100
499.800	58.861	0.100
499.900	51.306	0.100
500.000	49.077	0.100
500.100	47.565	0.100
500.200	58.243	0.100
500.300	63.322	0.100
500.400	60.129	0.100
500.500	52.944	0.100
500.600	60.277	0.100
500.700	64.122	0.100
500.800	56.921	0.100
500.900	53.043	0.100
501.000	59.851	0.100
501.100	65.796	0.100
501.200	59.712	0.100
501.300	68.532	0.100
501.400	57.364	0.100
501.500	66.931	0.100
501.600	65.428	0.100
501.700	56.853	0.100
501.800	60.729	0.100
501.900	62.982	0.100
502.000	62.779	0.100
502.100	61.192	0.100
502.200	61.477	0.100
502.300	68.857	0.100
502.400	53.421	0.100
502.500	55.720	0.100
502.600	69.128	0.100
502.700	67.837	0.100
502.800	77.921	0.100
502.900	69.436	0.100
503.000	62.836	0.100
503.100	64.945	0.100
503.200	64.752	0.100
503.300	65.665	0.100
503.400	62.050	0.100
503.500	62.085	0.100
503.600	63.364	0.100
503.700	66.014	0.100
503.800	63.568	0.100
503.900	67.208	0.100
504.000	68.766	0.100
504.100	70.175	0.100
504.200	71.158	0.100
504.300	66.055	0.100
504.400	74.070	0.100
504.500	68.253	0.100
504.600	68.613	0.100
504.700	69.079	0.100
504.800	76.801	0.100
504.900	73.571	0.100
505.000	71.769	0.100
505.100	70.274	0.100
505.200	66.299	0.100
505.300	58.552	0.100
505.400	72.161	0.100
505.500	72.320	0.100
505.600	60.857	0.100
505.700	65.628	0.100
505.800	66.874	0.100
505.900	70.880	0.100
506.000	71.953	0.100
506.100	71.605	0.100
506.200	75.911	0.100
506.300	65.382	0.100
506.400	65.339	0.100
506.500	66.259	0.100
506.600	70.244	0.100
506.700	78.272	0.100
506.800	72.801	0.100
506.900	68.603	0.100
507.000	70.540	0.100
507.100	77.663	0.100
507.200	77.405	0.100
507.300	62.962	0.100
507.400	72.945	0.100
507.500	70.615	0.100
507.600	81.296	0.100
507.700	72.347	0.100
507.800	72.245	0.100
507.900	71.824	0.100
508.000	69.682	0.100
508.100	75.767	0.100
508.200	71.472	0.100
508.300	71.966	0.100
508.400	66.191	0.100
508.500	70.446	0.100
508.600	60.603	0.100
508.700	68.229	0.100
508.800	60.259	0.100
508.900	69.463	0.100
509.000	73.014	0.100
509.100	61.969	0.100
509.200	72.937	0.100
509.300	74.349	0.100
509.400	70.274	0.100
509.500	65.351	0.100
509.600	74.439	0.100
509.700	75.317	0.100
509.800	70.394	0.100
509.900	75.831	0.100
510.000	77.574	0.100
510.100	67.587	0.100
510.200	72.097	0.100
510.300	67.139	0.100
510.400	86.011	0.100
510.500	67.980	0.100
510.600	66.255	0.100
510.700	66.286	0.100
510.800	66.993	0.100
510.900	73.301	0.100
511.000	74.552	0.100
511.100	68.880	0.100
511.200	68.328	0.100
511.300	61.674	0.100
511.400	68.161	0.100
511.500	72.967	0.100
511.600	72.031	0.100
511.700	72.021	0.100
511.800	79.490	0.100
511.900	60.956	0.100
512.000	67.403	0.100
512.100	77.566	0.100
512.200	67.576	0.100
512.300	62.298	0.100
512.400	56.570	0.100
512.500	70.266	0.100
512.600	77.119	0.100
512.700	66.271	0.100
512.800	70.430	0.100
512.900	57.878	0.100
513.000	64.467	0.100
513.100	69.732	0.100
513.200	71.617	0.100
513.300	62.843	0.100
513.400	59.019	0.100
513.500	69.581	0.100
513.600	62.619	0.100
513.700	68.754	0.100
513.800	78.659	0.100
513.900	60.880	0.100
514.000	68.544	0.100
514.100	66.269	0.100
514.200	71.975	0.100
514.300	67.156	0.100
514.400	64.701	0.100
514.500	67.731	0.100
514.600	64.910	0.100
514.700	73.371	0.100
514.800	76.803	0.100
514.900	70.722	0.100
515.000	71.614	0.100
515.100	57.377	0.100
515.200	64.352	0.100
515.300	72.075	0.100
515.400	79.398	0.100
515.500	65.626	0.100
515.600	60.271	0.100
515.700	65.310	0.100
515.800	66.162	0.100
515.900	75.328	0.100
516.000	70.155	0.100
516.100	64.274	0.100
516.200	69.868	0.100
516.300	67.101	0.100
516.400	62.818	0.100
516.500	64.546	0.100
516.600	73.647	0.100
516.700	75.912	0.100
516.800	66.679	0.100
516.900	68.136	0.100
517.000	65.314	0.100
517.100	70.283	0.100
517.200	65.133	0.100
517.300	60.353	0.100
517.400	60.654	0.100
517.500	70.908	0.100
517.600	70.202	0.100
517.700	64.606	0.100
517.800	75.536	0.100
517.900	65.838	0.100
518.000	65.624	0.100
518.100	62.853	0.100
518.200	54.154	0.100
518.300	62.787	0.100
518.400	65.359	0.100
518.500	57.753	0.100
518.600	71.373	0.100
518.700	70.896	0.100
518.800	54.815	0.100
518.900	66.469	0.100
519.000	60.839	0.100
519.100	72.644	0.100
519.200	71.743	0.100
519.300	64.859	0.100
519.400	58.312	0.100
519.500	66.807	0.100
519.600	66.679	0.100
519.700	66.870	0.100
519.800	67.694	0.100
519.900	63.935	0.100
520.000	68.066	0.100
520.100	66.368	0.100
520.200	65.316	0.100
520.300	75.192	0.100
520.400	68.631	0.100
520.500	64.967	0.100
520.600	62.395	0.100
520.700	60.466	0.100
520.800	62.369	0.100
520.900	60.555	0.100
521.000	70.395	0.100
521.100	68.295	0.100
521.200	63.599	0.100
521.300	66.048	0.100
521.400	65.634	0.100
521.500	67.155	0.100
521.600	66.724	0.100
521.700	58.540	0.100
521.800	60.659	0.100
521.900	49.041	0.100
522.000	65.227	0.100
522.100	57.925	0.100
522.200	70.084	0.100
522.300	63.963	0.100
522.400	67.025	0.100
522.500	62.813	0.100
522.600	75.536	0.100
522.700	61.916	0.100
522.800	61.260	0.100
522.900	67.456	0.100
523.000	62.755	0.100
523.100	63.382	0.100
523.200	69.129	0.100
523.300	65.338	0.100
523.400	62.652	0.100
523.500	61.383	0.100
523.600	62.122	0.100
523.700	63.046	0.100
523.800	68.256	0.100
523.900	61.687	0.100
524.000	64.696	0.100
524.100	70.068	0.100
524.200	59.961	0.100
524.300	59.910	0.100
524.400	71.942	0.100
524.500	69.216	0.100
524.600	65.804	0.100
524.700	55.262	0.100
524.800	65.964	0.100
524.900	77.389	0.100
525.000	73.225	0.100
525.100	52.584	0.100
525.200	65.217	0.100
525.300	71.148	0.100
525.400	58.249	0.100
525.500	64.122	0.100
525.600	60.049	0.100
525.700	64.109	0.100
525.800	69.158	0.100
525.900	59.407	0.100
526.000	64.895	0.100
526.100	66.038	0.100
526.200	60.111	0.100
526.300	65.668	0.100
526.400	67.246	0.100
526.500	57.471	0.100
526.600	72.191	0.100
526.700	63.602	0.100
526.800	62.767	0.100
526.900	62.895	0.100
527.000	67.673	0.100
527.100	60.089	0.100
527.200	63.813	0.100
527.300	57.226	0.100
527.400	57.398	0.100
527.500	63.478	0.100
527.600	75.260	0.100
527.700	64.706	0.100
527.800	68.395	0.100
527.900	68.521	0.100
528.000	61.260	0.100
528.100	60.615	0.100
528.200	65.283	0.100
528.300	51.865	0.100
528.400	63.200	0.100
528.500	62.846	0.100
528.600	53.977	0.100
528.700	65.062	0.100
528.800	61.170	0.100
528.900	56.615	0.100
529.000	75.931	0.100
529.100	68.119	0.100
529.200	73.067	0.100
529.300	67.295	0.100
529.400	63.521	0.100
529.500	61.406	0.100
529.600	69.346	0.100
529.700	59.597	0.100
529.800	69.046	0.100
529.900	64.086	0.100
530.000	63.081	0.100
530.100	61.277	0.100
530.200	61.835	0.100
530.300	56.893	0.100
530.400	55.181	0.100
530.500	69.892	0.100
530.600	62.034	0.100
530.700	67.822	0.100
530.800	60.055	0.100
530.900	62.004	0.100
531.000	62.405	0.100
531.100	66.897	0.100
531.200	67.924	0.100
531.300	69.618	0.100
531.400	58.394	0.100
531.500	59.971	0.100
531.600	67.206	0.100
531.700	56.615	0.100
531.800	63.198	0.100
531.900	60.734	0.100
532.000	65.236	0.100
532.100	63.128	0.100
532.200	61.143	0.100
532.300	53.350	0.100
532.400	62.206	0.100
532.500	58.676	0.100
532.600	59.190	0.100
532.700	56.531	0.100
532.800	67.223	0.100
532.900	53.252	0.100
533.000	63.869	0.100
533.100	59.279	0.100
533.200	64.515	0.100
533.300	61.960	0.100
533.400	61.760	0.100
533.500	51.640	0.100
533.600	65.462	0.100
533.700	64.994	0.100
533.800	66.279	0.100
533.900	67.885	0.100
534.000	61.925	0.100
534.100	61.651	0.100
534.200	60.540	0.100
534.300	56.792	0.100
534.400	57.147	0.100
534.500	62.949	0.100
534.600	61.416	0.100
534.700	66.070	0.100
534.800	65.645	0.100
534.900	58.841	0.100
535.000	48.240	0.100
535.100	56.842	0.100
535.200	59.262	0.100
535.300	68.970	0.100
535.400	68.432	0.100
535.500	58.126	0.100
535.600	60.332	0.100
535.700	60.073	0.100
535.800	65.295	0.100
535.900	54.504	0.100
536.000	60.239	0.100
536.100	65.991	0.100
536.200	67.106	0.100
536.300	55.538	0.100
536.400	53.093	0.100
536.500	60.216	0.100
536.600	54.842	0.100
536.700	63.758	0.100
536.800	69.375	0.100
536.900	57.539	0.100
537.000	56.332	0.100
537.100	72.633	0.100
537.200	65.955	0.100
537.300	52.202	0.100
537.400	63.627	0.100
537.500	60.970	0.100
537.600	57.328	0.100
537.700	60.286	0.100
537.800	63.236	0.100
537.900	62.348	0.100
538.000	60.533	0.100
538.100	56.716	0.100
538.200	62.115	0.100
538.300	57.050	0.100
538.400	61.296	0.100
538.500	69.599	0.100
538.600	58.204	0.100
538.700	60.850	0.100
538.800	59.942	0.100
538.900	56.234	0.100
539.000	62.474	0.100
539.100	55.100	0.100
539.200	52.400	0.100
539.300	52.769	0.100
539.400	75.011	0.100
539.500	64.649	0.100
539.600	64.938	0.100
539.700	62.053	0.100
539.800	65.304	0.100
539.900	52.440	0.100
540.000	49.592	0.100
540.100	52.372	0.100
540.200	50.186	0.100
540.300	44.166	0.100
540.400	44.996	0.100
540.500	34.527	0.100
540.600	37.058	0.100
540.700	35.309	0.100
540.800	33.887	0.100
540.900	13.524	0.100
541.000	18.881	0.100
541.100	24.237	0.100
541.200	22.006	0.100
541.300	16.871	0.100
541.400	3.907	0.100
541.500	10.105	0.100
541.600	10.938	0.100
541.700	12.523	0.100
541.800	-0.417	0.100
541.900	3.058	0.100
542.000	-5.363	0.100
542.100	3.438	0.100
542.200	5.096	0.100
542.300	3.747	0.100
542.400	0.137	0.100
542.500	-12.997	0.100
542.600	-11.899	0.100
542.700	-8.966	0.100
542.800	-1.643	0.100
542.900	-10.565	0.100
543.000	-9.090	0.100
543.100	-8.926	0.100
543.200	-3.407	0.100
543.300	-11.617	0.100
543.400	-5.564	0.100
543.500	-11.581	0.100
543.600	-10.297	0.100
543.700	-5.324	0.100
543.800	-5.184	0.100
543.900	-9.584	0.100
544.000	-3.173	0.100
544.100	-15.398	0.100
544.200	-14.479	0.100
544.300	-12.838	0.100
544.400	-20.350	0.100
544.500	-3.904	0.100
544.600	-19.069	0.100
544.700	-12.607	0.100
544.800	-9.739	0.100
544.900	-12.080	0.100
545.000	-8.899	0.100
545.100	-11.901	0.100
545.200	-18.379	0.100
545.300	-22.745	0.100
545.400	-14.137	0.100
545.500	-15.912	0.100
545.600	-15.918	0.100
545.700	-8.485	0.100
545.800	-9.904	0.100
545.900	-11.339	0.100
546.000	-17.383	0.100
546.100	-12.626	0.100
546.200	-19.492	0.100
546.300	-7.504	0.100
546.400	-2.679	0.100
546.500	-16.467	0.100
546.600	-9.437	0.100
546.700	-13.250	0.100
546.800	-25.617	0.100
546.900	-17.996	0.100
547.000	-15.404	0.100
547.100	-18.984	0.100
547.200	-9.498	0.100
547.300	-15.954	0.100
547.400	-5.735	0.100
547.500	-23.393	0.100
547.600	-15.298	0.100
547.700	-22.303	0.100
547.800	-17.880	0.100
547.900	-10.051	0.100
548.000	-12.476	0.100
548.100	-9.624	0.100
548.200	-8.945	0.100
548.300	-21.439	0.100
548.400	-15.858	0.100
548.500	-10.158	0.100
548.600	-26.322	0.100
548.700	-14.526	0.100
548.800	-18.078	0.100
548.900	-13.705	0.100
549.000	-12.036	0.100
549.100	-11.585	0.100
549.200	-16.427	0.100
549.300	-18.653	0.100
549.400	-11.872	0.100
549.500	-18.061	0.100
549.600	-18.951	0.100
549.700	-14.818	0.100
549.800	-21.270	0.100
549.900	-13.168	0.100
550.000	-21.465	0.100
550.100	-14.087	0.100
550.200	-10.843	0.100
550.300	-20.763	0.100
550.400	-15.991	0.100
550.500	-20.769	0.100
550.600	-17.799	0.100
550.700	-18.602	0.100
550.800	-19.165	0.100
550.900	-14.811	0.100
551.000	-15.350	0.100
551.100	-6.084	0.100
551.200	-19.340	0.100
551.300	-17.585	0.100
551.400	-22.464	0.100
551.500	-18.367	0.100
551.600	-8.662	0.100
551.700	-19.735	0.100
551.800	-10.232	0.100
551.900	-16.535	0.100
552.000	-19.225	0.100
552.100	-16.344	0.100
552.200	-11.144	0.100
552.300	-17.408	0.100
552.400	-19.073	0.100
552.500	-12.994	0.100
552.600	-20.888	0.100
552.700	-19.856	0.100
552.800	-21.894	0.100
552.900	-14.645	0.100
553.000	-18.984	0.100
553.100	-21.839	0.100
553.200	-22.262	0.100
553.300	-7.903	0.100
553.400	-30.536	0.100
553.500	-20.857	0.100
553.600	-17.960	0.100
553.700	-31.369	0.100
553.800	-27.959	0.100
553.900	-14.291	0.100
554.000	-15.086	0.100
554.100	-24.381	0.100
554.200	-20.604	0.100
554.300	-17.117	0.100
554.400	-21.224	0.100
554.500	-13.182	0.100
554.600	-21.816	0.100
554.700	-19.058	0.100
554.800	-13.243	0.100
554.900	-15.219	0.100
555.000	-23.794	0.100
555.100	-17.928	0.100
555.200	-18.465	0.100
555.300	-20.918	0.100
555.400	-19.405	0.100
555.500	-28.672	0.100
555.600	-25.844	0.100
555.700	-29.630	0.100
555.800	-27.632	0.100
555.900	-18.650	0.100
556.000	-28.545	0.100
556.100	-14.599	0.100
556.200	-24.211	0.100
556.300	-28.065	0.100
556.400	-28.266	0.100
556.500	-20.951	0.100
556.600	-23.624	0.100
556.700	-23.969	0.100
556.800	-24.799	0.100
556.900	-17.695	0.100
557.000	-18.991	0.100
557.100	-25.189	0.100
557.200	-19.262	0.100
557.300	-26.627	0.100
557.400	-19.633	0.100
557.500	-20.939	0.100
557.600	-19.045	0.100
557.700	-30.824	0.100
557.800	-26.118	0.100
557.900	-22.416	0.100
558.000	-26.156	0.100
558.100	-28.695	0.100
558.200	-18.203	0.100
558.300	-22.170	0.100
558.400	-24.246	0.100
558.500	-23.977	0.100
558.600	-27.812	0.100
558.700	-31.442	0.100
558.800	-29.767	0.100
558.900	-19.843	0.100
559.000	-31.893	0.100
559.100	-25.949	0.100
559.200	-21.670	0.100
559.300	-26.044	0.100
559.400	-22.690	0.100
559.500	-20.724	0.100
559.600	-19.093	0.100
559.700	-25.111	0.100
559.800	-28.805	0.100
559.900	-32.404	0.100
560.000	-26.871	0.100
560.100	-24.353	0.100
560.200	-22.553	0.100
560.300	-23.791	0.100
560.400	-27.789	0.100
560.500	-15.716	0.100
560.600	-31.339	0.100
560.700	-20.275	0.100
560.800	-22.945	0.100
560.900	-23.829	0.100
561.000	-25.673	0.100
561.100	-33.999	0.100
561.200	-31.031	0.100
561.300	-25.737	0.100
561.400	-28.742	0.100
561.500	-32.330	0.100
561.600	-22.937	0.100
561.700	-27.817	0.100
561.800	-29.515	0.100
561.900	-31.449	0.100
562.000	-22.113	0.100
562.100	-29.198	0.100
562.200	-28.489	0.100
562.300	-26.719	0.100
562.400	-24.185	0.100
562.500	-27.969	0.100
562.600	-31.441	0.100
562.700	-24.857	0.100
562.800	-26.584	0.100
562.900	-25.838	0.100
563.000	-19.538	0.100
563.100	-27.394	0.100
563.200	-23.625	0.100
563.300	-36.766	0.100
563.400	-22.734	0.100
563.500	-25.587	0.100
563.600	-30.360	0.100
563.700	-34.542	0.100
563.800	-30.325	0.100
563.900	-26.688	0.100
564.000	-34.355	0.100
564.100	-32.273	0.100
564.200	-29.243	0.100
564.300	-34.263	0.100
564.400	-28.176	0.100
564.500	-33.945	0.100
564.600	-34.865	0.100
564.700	-20.283	0.100
564.800	-24.653	0.100
564.900	-29.449	0.100
565.000	-28.270	0.100
565.100	-18.986	0.100
565.200	-29.603	0.100
565.300	-26.784	0.100
565.400	-31.782	0.100
565.500	-27.349	0.100
565.600	-28.980	0.100
565.700	-42.870	0.100
565.800	-28.220	0.100
565.900	-34.952	0.100
566.000	-25.776	0.100
566.100	-35.862	0.100
566.200	-30.810	0.100
566.300	-30.091	0.100
566.400	-28.633	0.100
566.500	-20.068	0.100
566.600	-34.466	0.100
566.700	-24.898	0.100
566.800	-27.980	0.100
566.900	-30.684	0.100
567.000	-27.128	0.100
567.100	-25.623	0.100
567.200	-25.627	0.100
567.300	-38.790	0.100
567.400	-37.901	0.100
567.500	-32.465	0.100
567.600	-36.404	0.100
567.700	-28.150	0.100
567.800	-41.161	0.100
567.900	-27.977	0.100
568.000	-27.376	0.100
568.100	-35.574	0.100
568.200	-32.863	0.100
568.300	-28.374	0.100
568.400	-33.210	0.100
568.500	-27.980	0.100
568.600	-32.690	0.100
568.700	-31.147	0.100
568.800	-36.132	0.100
568.900	-35.580	0.100
569.000	-34.764	0.100
569.100	-34.149	0.100
569.200	-26.752	0.100
569.300	-39.078	0.100
569.400	-33.650	0.100
569.500	-30.136	0.100
569.600	-41.459	0.100
569.700	-35.234	0.100
569.800	-37.233	0.100
569.900	-33.867	0.100
570.000	-35.406	0.100
570.100	-36.908	0.100
570.200	-32.842	0.100
570.300	-38.293	0.100
570.400	-24.686	0.100
570.500	-34.016	0.100
570.600	-33.735	0.100
570.700	-45.407	0.100
570.800	-29.834	0.100
570.900	-33.733	0.100
571.000	-32.774	0.100
571.100	-37.482	0.100
571.200	-35.273	0.100
571.300	-35.660	0.100
571.400	-36.224	0.100
571.500	-32.720	0.100
571.600	-41.385	0.100
571.700	-37.271	0.100
571.800	-35.213	0.100
571.900	-28.296	0.100
572.000	-44.911	0.100
572.100	-32.663	0.100
572.200	-33.087	0.100
572.300	-43.860	0.100
572.400	-32.994	0.100
572.500	-35.486	0.100
572.600	-29.206	0.100
572.700	-33.988	0.100
572.800	-33.172	0.100
572.900	-33.771	0.100
573.000	-40.748	0.100
573.100	-45.718	0.100
573.200	-45.689	0.100
573.300	-49.366	0.100
573.400	-37.742	0.100
573.500	-43.810	0.100
573.600	-26.776	0.100
573.700	-31.374	0.100
573.800	-41.562	0.100
573.900	-39.222	0.100
574.000	-44.122	0.100
574.100	-41.037	0.100
574.200	-42.863	0.100
574.300	-33.194	0.100
574.400	-32.746	0.100
574.500	-32.064	0.100
574.600	-31.939	0.100
574.700	-38.411	0.100
574.800	-41.243	0.100
574.900	-34.537	0.100
575.000	-38.258	0.100
575.100	-32.491	0.100
575.200	-46.826	0.100
575.300	-35.311	0.100
575.400	-41.970	0.100
575.500	-33.930	0.100
575.600	-36.625	0.100
575.700	-39.629	0.100
575.800	-36.790	0.100
575.900	-46.534	0.100
576.000	-40.884	0.100
576.100	-36.798	0.100
576.200	-34.105	0.100
576.300	-35.376	0.100
576.400	-41.342	0.100
576.500	-41.063	0.100
576.600	-41.244	0.100
576.700	-38.680	0.100
576.800	-34.779	0.100
576.900	-42.022	0.100
577.000	-36.812	0.100
577.100	-43.533	0.100
577.200	-33.249	0.100
577.300	-38.282	0.100
577.400	-37.307	0.100
577.500	-35.098	0.100
577.600	-34.257	0.100
577.700	-47.265	0.100
577.800	-38.645	0.100
577.900	-35.929	0.100
578.000	-37.489	0.100
578.100	-32.704	0.100
578.200	-29.962	0.100
578.300	-41.325	0.100
578.400	-36.773	0.100
578.500	-35.139	0.100
578.600	-50.218	0.100
578.700	-37.043	0.100
578.800	-43.352	0.100
578.900	-34.844	0.100
579.000	-33.782	0.100
579.100	-41.092	0.100
579.200	-43.603	0.100
579.300	-31.147	0.100
579.400	-43.680	0.100
579.500	-34.300	0.100
579.600	-35.763	0.100
579.700	-42.887	0.100
579.800	-37.451	0.100
579.900	-36.997	0.100
580.000	-31.899	0.100
580.100	-39.010	0.100
580.200	-36.867	0.100
580.300	-40.999	0.100
580.400	-47.140	0.100
580.500	-47.239	0.100
580.600	-35.378	0.100
580.700	-42.744	0.100
580.800	-40.203	0.100
580.900	-47.131	0.100
581.000	-44.159	0.100
581.100	-35.543	0.100
581.200	-39.552	0.100
581.300	-42.788	0.100
581.400	-36.932	0.100
581.500	-43.407	0.100
581.600	-39.065	0.100
581.700	-32.027	0.100
581.800	-31.821	0.100
581.900	-33.566	0.100
582.000	-46.116	0.100
582.100	-47.258	0.100
582.200	-35.855	0.100
582.300	-37.880	0.100
582.400	-48.136	0.100
582.500	-41.673	0.100
582.600	-37.833	0.100
582.700	-44.856	0.100
582.800	-36.314	0.100
582.900	-40.854	0.100
583.000	-39.203	0.100
583.100	-31.974	0.100
583.200	-38.623	0.100
583.300	-42.523	0.100
583.400	-43.612	0.100
583.500	-37.782	0.100
583.600	-38.909	0.100
583.700	-36.778	0.100
583.800	-35.228	0.100
583.900	-34.719	0.100
584.000	-54.162	0.100
584.100	-37.391	0.100
584.200	-34.698	0.100
584.300	-39.203	0.100
584.400	-34.784	0.100
584.500	-33.854	0.100
584.600	-37.488	0.100
584.700	-48.105	0.100
584.800	-36.694	0.100
584.900	-45.100	0.100
585.000	-34.097	0.100
585.100	-31.505	0.100
585.200	-39.613	0.100
585.300	-36.332	0.100
585.400	-40.642	0.100
585.500	-37.838	0.100
585.600	-38.631	0.100
585.700	-42.708	0.100
585.800	-43.998	0.100
585.900	-32.624	0.100
586.000	-36.260	0.100
586.100	-38.678	0.100
586.200	-40.053	0.100
586.300	-38.439	0.100
586.400	-32.848	0.100
586.500	-38.109	0.100
586.600	-41.453	0.100
586.700	-31.945	0.100
586.800	-33.225	0.100
586.900	-40.380	0.100
587.000	-42.859	0.100
587.100	-39.363	0.100
587.200	-43.880	0.100
587.300	-39.386	0.100
587.400	-41.960	0.100
587.500	-37.315	0.100
587.600	-38.582	0.100
587.700	-29.333	0.100
587.800	-44.472	0.100
587.900	-40.470	0.100
588.000	-37.974	0.100
588.100	-38.206	0.100
588.200	-38.476	0.100
588.300	-36.646	0.100
588.400	-44.052	0.100
588.500	-36.654	0.100
588.600	-36.057	0.100
588.700	-35.910	0.100
588.800	-40.913	0.100
588.900	-39.541	0.100
589.000	-43.979	0.100
589.100	-34.546	0.100
589.200	-26.197	0.100
589.300	-32.632	0.100
589.400	-38.684	0.100
589.500	-43.263	0.100
589.600	-37.979	0.100
589.700	-48.153	0.100
589.800	-40.986	0.100
589.900	-39.796	0.100
590.000	-42.844	0.100
590.100	-37.727	0.100
590.200	-32.800	0.100
590.300	-33.258	0.100
590.400	-31.446	0.100
590.500	-36.277	0.100
590.600	-39.627	0.100
590.700	-37.517	0.100
590.800	-34.259	0.100
590.900	-41.811	0.100
591.000	-40.726	0.100
591.100	-39.987	0.100
591.200	-40.652	0.100
591.300	-26.219	0.100
591.400	-36.649	0.100
591.500	-39.720	0.100
591.600	-38.642	0.100
591.700	-42.074	0.100
591.800	-41.877	0.100
591.900	-45.378	0.100
592.000	-34.126	0.100
592.100	-36.906	0.100
592.200	-37.565	0.100
592.300	-36.255	0.100
592.400	-38.366	0.100
592.500	-35.361	0.100
592.600	-35.620	0.100
592.700	-38.536	0.100
592.800	-36.132	0.100
592.900	-37.059	0.100
593.000	-33.574	0.100
593.100	-36.823	0.100
593.200	-32.457	0.100
593.300	-49.122	0.100
593.400	-39.024	0.100
593.500	-36.452	0.100
593.600	-41.223	0.100
593.700	-37.189	0.100
593.800	-27.474	0.100
593.900	-31.791	0.100
594.000	-44.704	0.100
594.100	-39.411	0.100
594.200	-33.260	0.100
594.300	-34.462	0.100
594.400	-30.160	0.100
594.500	-35.987	0.100
594.600	-30.524	0.100
594.700	-38.709	0.100
594.800	-40.154	0.100
594.900	-22.946	0.100
595.000	-30.502	0.100
595.100	-44.600	0.100
595.200	-45.035	0.100
595.300	-35.435	0.100
595.400	-32.453	0.100
595.500	-36.404	0.100
595.600	-36.377	0.100
595.700	-27.174	0.100
595.800	-40.574	0.100
595.900	-40.269	0.100
596.000	-39.800	0.100
596.100	-24.347	0.100
596.200	-40.729	0.100
596.300	-40.692	0.100
596.400	-46.694	0.100
596.500	-32.523	0.100
596.600	-31.521	0.100
596.700	-30.005	0.100
596.800	-39.459	0.100
596.900	-38.141	0.100
597.000	-36.096	0.100
597.100	-39.965	0.100
597.200	-44.406	0.100
597.300	-33.160	0.100
597.400	-35.102	0.100
597.500	-40.785	0.100
597.600	-49.580	0.100
597.700	-36.591	0.100
597.800	-38.173	0.100
597.900	-29.509	0.100
598.000	-32.135	0.100
598.100	-35.636	0.100
598.200	-29.878	0.100
598.300	-28.597	0.100
598.400	-34.136	0.100
598.500	-42.701	0.100
598.600	-36.931	0.100
598.700	-28.661	0.100
598.800	-32.628	0.100
598.900	-38.363	0.100
599.000	-32.833	0.100
599.100	-40.544	0.100
599.200	-33.246	0.100
599.300	-35.979	0.100
599.400	-39.972	0.100
599.500	-39.535	0.100
599.600	-33.971	0.100
599.700	-34.556	0.100
599.800	-33.577	0.100
599.900	-29.914	0.100
600.000	-36.842	0.100
600.100	-28.711	0.100
600.200	-35.823	0.100
600.300	-40.701	0.100
600.400	-32.397	0.100
600.500	-27.046	0.100
600.600	-27.802	0.100
600.700	-33.750	0.100
600.800	-42.434	0.100
600.900	-36.481	0.100
601.000	-30.679	0.100
601.100	-37.987	0.100
601.200	-42.084	0.100
601.300	-25.585	0.100
601.400	-38.853	0.100
601.500	-36.396	0.100
601.600	-43.144	0.100
601.700	-24.914	0.100
601.800	-30.901	0.100
601.900	-28.909	0.100
602.000	-37.001	0.100
602.100	-34.734	0.100
602.200	-40.543	0.100
602.300	-41.326	0.100
602.400	-33.877	0.100
602.500	-32.908	0.100
602.600	-35.724	0.100
602.700	-27.460	0.100
602.800	-28.654	0.100
602.900	-25.499	0.100
603.000	-33.766	0.100
603.100	-41.371	0.100
603.200	-28.732	0.100
603.300	-32.851	0.100
603.400	-37.366	0.100
603.500	-40.444	0.100
603.600	-40.582	0.100
603.700	-28.997	0.100
603.800	-36.630	0.100
603.900	-37.892	0.100
604.000	-27.587	0.100
604.100	-31.849	0.100
604.200	-32.227	0.100
604.300	-29.038	0.100
604.400	-37.344	0.100
604.500	-42.791	0.100
604.600	-30.418	0.100
604.700	-26.966	0.100
604.800	-34.825	0.100
604.900	-39.911	0.100
605.000	-43.196	0.100
605.100	-33.639	0.100
605.200	-24.308	0.100
605.300	-24.162	0.100
605.400	-37.299	0.100
605.500	-46.496	0.100
605.600	-41.149	0.100
605.700	-28.566	0.100
605.800	-37.127	0.100
605.900	-37.696	0.100
606.000	-35.988	0.100
606.100	-29.584	0.100
606.200	-33.004	0.100
606.300	-35.025	0.100
606.400	-43.311	0.100
606.500	-40.395	0.100
606.600	-36.133	0.100
606.700	-34.487	0.100
606.800	-28.677	0.100
606.900	-34.628	0.100
607.000	-31.106	0.100
607.100	-35.468	0.100
607.200	-23.442	0.100
607.300	-36.851	0.100
607.400	-37.440	0.100
607.500	-27.609	0.100
607.600	-30.843	0.100
607.700	-30.001	0.100
607.800	-37.880	0.100
607.900	-31.176	0.100
608.000	-33.248	0.100
608.100	-22.813	0.100
608.200	-30.029	0.100
608.300	-33.151	0.100
608.400	-50.141	0.100
608.500	-34.446	0.100
608.600	-33.233	0.100
608.700	-31.932	0.100
608.800	-27.472	0.100
608.900	-31.469	0.100
609.000	-42.815	0.100
609.100	-35.245	0.100
609.200	-26.866	0.100
609.300	-37.256	0.100
609.400	-27.693	0.100
609.500	-30.635	0.100
609.600	-33.510	0.100
609.700	-38.347	0.100
609.800	-32.570	0.100
609.900	-31.952	0.100
610.000	-41.485	0.100
610.100	-36.655	0.100
610.200	-41.399	0.100
610.300	-23.361	0.100
610.400	-33.480	0.100
610.500	-28.953	0.100
610.600	-35.100	0.100
610.700	-26.852	0.100
610.800	-31.141	0.100
610.900	-31.059	0.100
611.000	-34.253	0.100
611.100	-26.152	0.100
611.200	-32.960	0.100
611.300	-31.571	0.100
611.400	-36.553	0.100
611.500	-24.681	0.100
611.600	-30.857	0.100
611.700	-26.743	0.100
611.800	-33.308	0.100
611.900	-33.436	0.100
612.000	-36.774	0.100
612.100	-30.597	0.100
612.200	-30.128	0.100
612.300	-35.046	0.100
612.400	-24.154	0.100
612.500	-27.487	0.100
612.600	-33.073	0.100
612.700	-39.165	0.100
612.800	-30.413	0.100
612.900	-29.756	0.100
613.000	-33.436	0.100
613.100	-26.681	0.100
613.200	-30.649	0.100
613.300	-35.278	0.100
613.400	-25.185	0.100
613.500	-27.233	0.100
613.600	-29.687	0.100
613.700	-34.986	0.100
613.800	-33.935	0.100
613.900	-41.311	0.100
614.000	-38.936	0.100
614.100	-27.596	0.100
614.200	-28.812	0.100
614.300	-33.149	0.100
614.400	-32.315	0.100
614.500	-37.602	0.100
614.600	-30.009	0.100
614.700	-35.463	0.100
614.800	-30.897	0.100
614.900	-32.423	0.100
615.000	-27.560	0.100
615.100	-28.006	0.100
615.200	-25.392	0.100
615.300	-43.141	0.100
615.400	-33.518	0.100
615.500	-29.311	0.100
615.600	-35.492	0.100
615.700	-27.619	0.100
615.800	-31.400	0.100
615.900	-34.572	0.100
616.000	-33.004	0.100
616.100	-34.018	0.100
616.200	-31.629	0.100
616.300	-23.295	0.100
616.400	-34.764	0.100
616.500	-27.056	0.100
616.600	-23.879	0.100
616.700	-35.237	0.100
616.800	-26.498	0.100
616.900	-31.207	0.100
617.000	-29.540	0.100
617.100	-20.964	0.100
617.200	-32.984	0.100
617.300	-33.234	0.100
617.400	-25.310	0.100
617.500	-38.435	0.100
617.600	-33.859	0.100
617.700	-25.737	0.100
617.800	-32.891	0.100
617.900	-31.214	0.100
618.000	-33.208	0.100
618.100	-39.296	0.100
618.200	-34.241	0.100
618.300	-35.750	0.100
618.400	-28.717	0.100
618.500	-27.311	0.100
618.600	-25.417	0.100
618.700	-30.763	0.100
618.800	-28.946	0.100
618.900	-27.315	0.100
619.000	-22.326	0.100
619.100	-30.393	0.100
619.200	-25.772	0.100
619.300	-28.940	0.100
619.400	-25.255	0.100
619.500	-32.836	0.100
619.600	-34.164	0.100
619.700	-31.933	0.100
619.800	-26.680	0.100
619.900	-33.641	0.100
620.000	-29.500	0.100
620.100	-24.185	0.100
620.200	-44.058	0.100
620.300	-29.184	0.100
620.400	-27.460	0.100
620.500	-21.794	0.100
620.600	-34.876	0.100
620.700	-29.998	0.100
620.800	-25.626	0.100
620.900	-27.987	0.100
621.000	-31.683	0.100
621.100	-32.824	0.100
621.200	-24.489	0.100
621.300	-29.008	0.100
621.400	-33.843	0.100
621.500	-40.025	0.100
621.600	-34.586	0.100
621.700	-26.626	0.100
621.800	-27.076	0.100
621.900	-27.820	0.100
622.000	-27.146	0.100
622.100	-29.604	0.100
622.200	-25.347	0.100
622.300	-41.092	0.100
622.400	-29.934	0.100
622.500	-32.702	0.100
622.600	-31.110	0.100
622.700	-31.820	0.100
622.800	-34.898	0.100
622.900	-30.413	0.100
623.000	-30.134	0.100
623.100	-33.553	0.100
623.200	-26.645	0.100
623.300	-26.849	0.100
623.400	-25.034	0.100
623.500	-28.196	0.100
623.600	-31.676	0.100
623.700	-25.524	0.100
623.800	-34.681	0.100
623.900	-19.148	0.100
624.000	-27.470	0.100
624.100	-28.520	0.100
624.200	-26.437	0.100
624.300	-26.303	0.100
624.400	-35.394	0.100
624.500	-31.616	0.100
624.600	-28.390	0.100
624.700	-27.363	0.100
624.800	-31.872	0.100
624.900	-21.486	0.100
625.000	-21.291	0.100
625.100	-32.566	0.100
625.200	-33.471	0.100
625.300	-25.666	0.100
625.400	-24.025	0.100
625.500	-24.448	0.100
625.600	-41.213	0.100
625.700	-28.571	0.100
625.800	-32.730	0.100
625.900	-35.061	0.100
626.000	-22.757	0.100
626.100	-21.251	0.100
626.200	-27.274	0.100
626.300	-32.822	0.100
626.400	-45.231	0.100
626.500	-31.142	0.100
626.600	-23.220	0.100
626.700	-29.943	0.100
626.800	-23.698	0.100
626.900	-25.579	0.100
627.000	-20.129	0.100
627.100	-29.363	0.100
627.200	-37.458	0.100
627.300	-31.865	0.100
627.400	-30.856	0.100
627.500	-25.464	0.100
627.600	-30.506	0.100
627.700	-26.641	0.100
627.800	-18.082	0.100
627.900	-28.379	0.100
628.000	-31.205	0.100
628.100	-28.628	0.100
628.200	-37.807	0.100
628.300	-24.547	0.100
628.400	-28.987	0.100
628.500	-33.394	0.100
628.600	-26.767	0.100
628.700	-23.098	0.100
628.800	-26.084	0.100
628.900	-28.854	0.100
629.000	-20.775	0.100
629.100	-28.545	0.100
629.200	-24.623	0.100
629.300	-23.923	0.100
629.400	-27.486	0.100
629.500	-24.630	0.100
629.600	-26.942	0.100
629.700	-27.105	0.100
629.800	-25.445	0.100
629.900	-26.730	0.100
630.000	-24.754	0.100
630.100	-21.774	0.100
630.200	-25.636	0.100
630.300	-17.266	0.100
630.400	-16.467	0.100
630.500	-2.784	0.100
630.600	-4.438	0.100
630.700	2.340	0.100
630.800	7.137	0.100
630.900	7.734	0.100
631.000	10.615	0.100
631.100	13.595	0.100
631.200	11.687	0.100
631.300	11.608	0.100
631.400	10.719	0.100
631.500	17.436	0.100
631.600	18.341	0.100
631.700	20.585	0.100
631.800	17.966	0.100
631.900	17.824	0.100
632.000	24.976	0.100
632.100	16.461	0.100
632.200	18.404	0.100
632.300	29.623	0.100
632.400	27.030	0.100
632.500	10.423	0.100
632.600	24.728	0.100
632.700	21.629	0.100
632.800	26.497	0.100
632.900	24.676	0.100
633.000	23.920	0.100
633.100	21.594	0.100
633.200	24.583	0.100
633.300	20.228	0.100
633.400	22.839	0.100
633.500	26.476	0.100
633.600	23.860	0.100
633.700	13.616	0.100
633.800	35.506	0.100
633.900	30.034	0.100
634.000	27.430	0.100
634.100	22.525	0.100
634.200	30.316	0.100
634.300	40.984	0.100
634.400	18.106	0.100
634.500	27.161	0.100
634.600	33.601	0.100
634.700	28.009	0.100
634.800	35.240	0.100
634.900	25.041	0.100
635.000	16.043	0.100
635.100	28.763	0.100
635.200	18.458	0.100
635.300	20.835	0.100
635.400	23.273	0.100
635.500	15.511	0.100
635.600	26.953	0.100
635.700	26.783	0.100
635.800	32.811	0.100
635.900	20.491	0.100
636.000	28.807	0.100
636.100	21.151	0.100
636.200	20.504	0.100
636.300	22.118	0.100
636.400	17.491	0.100
636.500	20.555	0.100
636.600	16.651	0.100
636.700	9.864	0.100
636.800	16.627	0.100
636.900	25.851	0.100
637.000	20.459	0.100
637.100	16.407	0.100
637.200	21.199	0.100
637.300	11.992	0.100
637.400	28.273	0.100
637.500	27.562	0.100
637.600	20.437	0.100
637.700	27.901	0.100
637.800	25.427	0.100
637.900	28.917	0.100
638.000	16.685	0.100
638.100	21.400	0.100
638.200	14.518	0.100
638.300	26.719	0.100
638.400	25.588	0.100
638.500	23.160	0.100
638.600	36.237	0.100
638.700	35.777	0.100
638.800	20.115	0.100
638.900	25.813	0.100
639.000	24.856	0.100
639.100	16.940	0.100
639.200	25.053	0.100
639.300	23.287	0.100
639.400	34.400	0.100
639.500	26.208	0.100
639.600	25.320	0.100
639.700	17.721	0.100
639.800	17.441	0.100
639.900	27.429	0.100
640.000	35.430	0.100
640.100	33.991	0.100
640.200	28.091	0.100
640.300	29.121	0.100
640.400	22.396	0.100
640.500	24.747	0.100
640.600	26.083	0.100
640.700	26.851	0.100
640.800	30.699	0.100
640.900	16.858	0.100
641.000	20.936	0.100
641.100	25.287	0.100
641.200	25.921	0.100
641.300	25.358	0.100
641.400	26.645	0.100
641.500	23.080	0.100
641.600	30.181	0.100
641.700	29.279	0.100
641.800	29.743	0.100
641.900	32.432	0.100
642.000	23.325	0.100
642.100	30.223	0.100
642.200	31.628	0.100
642.300	23.954	0.100
642.400	28.052	0.100
642.500	28.253	0.100
642.600	36.861	0.100
642.700	31.423	0.100
642.800	32.876	0.100
642.900	18.670	0.100
643.000	28.255	0.100
643.100	28.920	0.100
643.200	30.839	0.100
643.300	27.214	0.100
643.400	35.247	0.100
643.500	31.474	0.100
643.600	30.820	0.100
643.700	25.603	0.100
643.800	30.344	0.100
643.900	31.916	0.100
644.000	29.235	0.100
644.100	33.551	0.100
644.200	38.767	0.100
644.300	47.157	0.100
644.400	30.107	0.100
644.500	29.389	0.100
644.600	25.078	0.100
644.700	30.598	0.100
644.800	39.479	0.100
644.900	33.810	0.100
645.000	37.072	0.100
645.100	38.035	0.100
645.200	30.950	0.100
645.300	37.148	0.100
645.400	37.773	0.100
645.500	41.033	0.100
645.600	39.095	0.100
645.700	43.569	0.100
645.800	37.039	0.100
645.900	31.151	0.100
646.000	42.536	0.100
646.100	33.337	0.100
646.200	33.706	0.100
646.300	43.480	0.100
646.400	35.124	0.100
646.500	43.382	0.100
646.600	43.635	0.100
646.700	34.791	0.100
646.800	43.261	0.100
646.900	40.121	0.100
647.000	33.657	0.100
647.100	41.987	0.100
647.200	49.849	0.100
647.300	54.639	0.100
647.400	46.372	0.100
647.500	41.294	0.100
647.600	39.560	0.100
647.700	43.415	0.100
647.800	36.401	0.100
647.900	46.190	0.100
648.000	46.505	0.100
648.100	49.658	0.100
648.200	50.616	0.100
648.300	41.022	0.100
648.400	51.349	0.100
648.500	50.550	0.100
648.600	53.369	0.100
648.700	53.471	0.100
648.800	53.538	0.100
648.900	49.019	0.100
649.000	54.024	0.100
649.100	51.572	0.100
649.200	50.740	0.100
649.300	53.833	0.100
649.400	54.609	0.100
649.500	59.254	0.100
649.600	51.490	0.100
649.700	54.465	0.100
649.800	52.013	0.100
649.900	56.470	0.100
650.000	51.479	0.100
650.100	55.092	0.100
650.200	57.185	0.100
650.300	51.767	0.100
650.400	52.641	0.100
650.500	60.276	0.100
650.600	58.037	0.100
650.700	51.582	0.100
650.800	54.487	0.100
650.900	58.188	0.100
651.000	57.391	0.100
651.100	57.121	0.100
651.200	61.145	0.100
651.300	53.241	0.100
651.400	55.461	0.100
651.500	61.665	0.100
651.600	67.027	0.100
651.700	66.937	0.100
651.800	58.056	0.100
651.900	51.361	0.100
652.000	58.424	0.100
652.100	66.604	0.100
652.200	62.580	0.100
652.300	48.477	0.100
652.400	58.040	0.100
652.500	58.176	0.100
652.600	58.918	0.100
652.700	61.008	0.100
652.800	67.057	0.100
652.900	68.024	0.100
653.000	69.768	0.100
653.100	52.361	0.100
653.200	63.703	0.100
653.300	68.456	0.100
653.400	69.143	0.100
653.500	64.456	0.100
653.600	71.503	0.100
653.700	65.126	0.100
653.800	57.378	0.100
653.900	60.897	0.100
654.000	64.738	0.100
654.100	73.129	0.100
654.200	67.788	0.100
654.300	74.066	0.100
654.400	65.401	0.100
654.500	70.691	0.100
654.600	68.987	0.100
654.700	73.269	0.100
654.800	57.882	0.100
654.900	66.801	0.100
655.000	69.179	0.100
655.100	74.522	0.100
655.200	61.381	0.100
655.300	72.611	0.100
655.400	69.453	0.100
655.500	68.314	0.100
655.600	72.240	0.100
655.700	72.135	0.100
655.800	79.027	0.100
655.900	71.030	0.100
656.000	67.464	0.100
656.100	68.532	0.100
656.200	69.502	0.100
656.300	74.318	0.100
656.400	67.215	0.100
656.500	69.549	0.100
656.600	63.556	0.100
656.700	72.950	0.100
656.800	68.175	0.100
656.900	62.522	0.100
657.000	71.660	0.100
657.100	70.000	0.100
657.200	62.825	0.100
657.300	79.393	0.100
657.400	66.073	0.100
657.500	65.073	0.100
657.600	68.144	0.100
657.700	73.882	0.100
657.800	65.861	0.100
657.900	80.131	0.100
658.000	70.676	0.100
658.100	70.478	0.100
658.200	73.786	0.100
658.300	59.431	0.100
658.400	68.703	0.100
658.500	71.505	0.100
658.600	76.462	0.100
658.700	61.455	0.100
658.800	73.861	0.100
658.900	74.695	0.100
659.000	63.493	0.100
659.100	62.921	0.100
659.200	72.475	0.100
659.300	68.492	0.100
659.400	69.673	0.100
659.500	77.184	0.100
659.600	66.703	0.100
659.700	59.164	0.100
659.800	67.424	0.100
659.900	70.105	0.100
660.000	71.378	0.100
660.100	66.112	0.100
660.200	64.571	0.100
660.300	79.991	0.100
660.400	72.298	0.100
660.500	69.217	0.100
660.600	69.618	0.100
660.700	61.281	0.100
660.800	64.312	0.100
660.900	70.434	0.100
661.000	71.458	0.100
661.100	74.535	0.100
661.200	64.943	0.100
661.300	69.010	0.100
661.400	73.974	0.100
661.500	65.791	0.100
661.600	67.709	0.100
661.700	66.495	0.100
661.800	63.505	0.100
661.900	71.353	0.100
662.000	74.588	0.100
662.100	67.047	0.100
662.200	67.881	0.100
662.300	53.037	0.100
662.400	62.413	0.100
662.500	69.358	0.100
662.600	70.836	0.100
662.700	78.139	0.100
662.800	67.573	0.100
662.900	63.527	0.100
663.000	72.001	0.100
663.100	63.105	0.100
663.200	68.648	0.100
663.300	65.992	0.100
663.400	78.050	0.100
663.500	65.696	0.100
663.600	67.367	0.100
663.700	70.835	0.100
663.800	65.299	0.100
663.900	71.588	0.100
664.000	67.199	0.100
664.100	58.362	0.100
664.200	66.537	0.100
664.300	68.380	0.100
664.400	60.541	0.100
664.500	73.632	0.100
664.600	65.493	0.100
664.700	67.565	0.100
664.800	76.618	0.100
664.900	65.209	0.100
665.000	64.238	0.100
665.100	59.847	0.100
665.200	69.200	0.100
665.300	55.655	0.100
665.400	64.748	0.100
665.500	74.493	0.100
665.600	68.844	0.100
665.700	66.846	0.100
665.800	66.473	0.100
665.900	66.231	0.100
666.000	57.202	0.100
666.100	65.832	0.100
666.200	72.029	0.100
666.300	67.591	0.100
666.400	58.208	0.100
666.500	67.610	0.100
666.600	63.238	0.100
666.700	68.423	0.100
666.800	71.684	0.100
666.900	70.470	0.100
667.000	63.242	0.100
667.100	63.105	0.100
667.200	73.907	0.100
667.300	67.144	0.100
667.400	53.997	0.100
667.500	67.754	0.100
667.600	72.029	0.100
667.700	70.971	0.100
667.800	62.659	0.100
667.900	57.928	0.100
668.000	61.441	0.100
668.100	62.159	0.100
668.200	64.085	0.100
668.300	69.027	0.100
668.400	72.237	0.100
668.500	62.736	0.100
668.600	65.576	0.100
668.700	67.165	0.100
668.800	69.889	0.100
668.900	66.775	0.100
669.000	66.531	0.100
669.100	55.646	0.100
669.200	68.767	0.100
669.300	59.541	0.100
669.400	62.464	0.100
669.500	65.680	0.100
669.600	55.117	0.100
669.700	64.717	0.100
669.800	58.068	0.100
669.900	61.132	0.100
670.000	63.828	0.100
670.100	68.784	0.100
670.200	64.885	0.100
670.300	68.327	0.100
670.400	59.909	0.100
670.500	53.559	0.100
670.600	69.189	0.100
670.700	68.768	0.100
670.800	55.442	0.100
670.900	64.287	0.100
671.000	62.535	0.100
671.100	57.024	0.100
671.200	56.506	0.100
671.300	61.151	0.100
671.400	64.028	0.100
671.500	68.326	0.100
671.600	71.197	0.100
671.700	72.908	0.100
671.800	60.841	0.100
671.900	66.978	0.100
672.000	54.214	0.100
672.100	65.527	0.100
672.200	65.798	0.100
672.300	70.769	0.100
672.400	62.429	0.100
672.500	61.457	0.100
672.600	69.233	0.100
672.700	61.807	0.100
672.800	71.133	0.100
672.900	67.845	0.100
673.000	51.232	0.100
673.100	57.713	0.100
673.200	75.541	0.100
673.300	76.946	0.100
673.400	73.380	0.100
673.500	60.012	0.100
673.600	54.815	0.100
673.700	60.780	0.100
673.800	63.432	0.100
673.900	61.634	0.100
674.000	68.503	0.100
674.100	70.462	0.100
674.200	60.971	0.100
674.300	50.163	0.100
674.400	57.885	0.100
674.500	59.519	0.100
674.600	74.511	0.100
674.700	68.226	0.100
674.800	64.610	0.100
674.900	64.756	0.100
675.000	63.346	0.100
675.100	72.930	0.100
675.200	68.695	0.100
675.300	64.553	0.100
675.400	64.429	0.100
675.500	64.480	0.100
675.600	64.357	0.100
675.700	63.673	0.100
675.800	65.025	0.100
675.900	70.694	0.100
676.000	64.415	0.100
676.100	67.279	0.100
676.200	65.491	0.100
676.300	56.354	0.100
676.400	67.680	0.100
676.500	62.263	0.100
676.600	59.903	0.100
676.700	60.269	0.100
676.800	67.330	0.100
676.900	69.174	0.100
677.000	62.133	0.100
677.100	49.986	0.100
677.200	55.149	0.100
677.300	59.445	0.100
677.400	68.743	0.100
677.500	68.873	0.100
677.600	58.425	0.100
677.700	59.287	0.100
677.800	64.511	0.100
677.900	63.829	0.100
678.000	59.918	0.100
678.100	63.139	0.100
678.200	64.057	0.100
678.300	68.266	0.100
678.400	67.528	0.100
678.500	72.414	0.100
678.600	63.930	0.100
678.700	61.531	0.100
678.800	72.460	0.100
678.900	65.046	0.100
679.000	67.390	0.100
679.100	49.861	0.100
679.200	63.672	0.100
679.300	68.723	0.100
679.400	76.327	0.100
679.500	59.164	0.100
679.600	62.552	0.100
679.700	59.608	0.100
679.800	58.278	0.100
679.900	63.035	0.100
680.000	61.582	0.100
680.100	61.592	0.100
680.200	76.731	0.100
680.300	66.618	0.100
680.400	60.229	0.100
680.500	59.728	0.100
680.600	55.282	0.100
680.700	60.631	0.100
680.800	61.158	0.100
680.900	59.680	0.100
681.000	54.388	0.100
681.100	54.574	0.100
681.200	60.128	0.100
681.300	56.607	0.100
681.400	58.740	0.100
681.500	65.773	0.100
681.600	67.750	0.100
681.700	71.282	0.100
681.800	62.872	0.100
681.900	62.339	0.100
682.000	49.007	0.100
682.100	55.992	0.100
682.200	65.276	0.100
682.300	60.127	0.100
682.400	55.138	0.100
682.500	64.756	0.100
682.600	62.341	0.100
682.700	57.896	0.100
682.800	59.572	0.100
682.900	54.586	0.100
683.000	57.537	0.100
683.100	63.379	0.100
683.200	64.686	0.100
683.300	62.950	0.100
683.400	66.677	0.100
683.500	55.489	0.100
683.600	67.393	0.100
683.700	59.397	0.100
683.800	66.709	0.100
683.900	61.383	0.100
684.000	63.745	0.100
684.100	61.764	0.100
684.200	64.495	0.100
684.300	62.064	0.100
684.400	56.231	0.100
684.500	61.252	0.100
684.600	60.541	0.100
684.700	59.522	0.100
684.800	66.202	0.100
684.900	60.328	0.100
685.000	70.155	0.100
685.100	65.647	0.100
685.200	61.443	0.100
685.300	61.143	0.100
685.400	64.264	0.100
685.500	59.043	0.100
685.600	61.693	0.100
685.700	63.470	0.100
685.800	57.922	0.100
685.900	56.964	0.100
686.000	58.839	0.100
686.100	64.927	0.100
686.200	58.119	0.100
686.300	64.114	0.100
686.400	62.444	0.100
686.500	59.662	0.100
686.600	55.297	0.100
686.700	50.276	0.100
686.800	68.969	0.100
686.900	64.875	0.100
687.000	57.565	0.100
687.100	67.249	0.100
687.200	60.546	0.100
687.300	58.957	0.100
687.400	55.794	0.100
687.500	59.369	0.100
687.600	58.358	0.100
687.700	62.871	0.100
687.800	52.854	0.100
687.900	56.328	0.100
688.000	62.534	0.100
688.100	60.089	0.100
688.200	72.415	0.100
688.300	58.713	0.100
688.400	61.648	0.100
688.500	63.415	0.100
688.600	60.620	0.100
688.700	46.991	0.100
688.800	62.373	0.100
688.900	71.580	0.100
689.000	57.783	0.100
689.100	61.256	0.100
689.200	55.760	0.100
689.300	60.467	0.100
689.400	61.056	0.100
689.500	62.804	0.100
689.600	55.558	0.100
689.700	52.104	0.100
689.800	56.145	0.100
689.900	53.547	0.100
690.000	61.080	0.100
690.100	53.278	0.100
690.200	43.252	0.100
690.300	42.978	0.100
690.400	37.901	0.100
690.500	35.663	0.100
690.600	41.121	0.100
690.700	32.179	0.100
690.800	26.058	0.100
690.900	22.906	0.100
691.000	15.731	0.100
691.100	23.047	0.100
691.200	23.993	0.100
691.300	12.281	0.100
691.400	13.954	0.100
691.500	0.887	0.100
691.600	4.339	0.100
691.700	-2.945	0.100
691.800	4.614	0.100
691.900	6.768	0.100
692.000	13.356	0.100
692.100	2.674	0.100
692.200	0.203	0.100
692.300	-5.823	0.100
692.400	-9.800	0.100
692.500	-1.386	0.100
692.600	-7.272	0.100
692.700	-9.907	0.100
692.800	-9.521	0.100
692.900	-6.758	0.100
693.000	-5.702	0.100
693.100	-15.524	0.100
693.200	-8.700	0.100
693.300	-4.470	0.100
693.400	-12.000	0.100
693.500	-10.985	0.100
693.600	-9.904	0.100
693.700	-8.989	0.100
693.800	-14.676	0.100
693.900	-16.086	0.100
694.000	-14.833	0.100
694.100	-16.470	0.100
694.200	-13.490	0.100
694.300	-14.219	0.100
694.400	-8.575	0.100
694.500	-22.381	0.100
694.600	-6.511	0.100
694.700	-5.080	0.100
694.800	-13.995	0.100
694.900	-15.910	0.100
695.000	-27.671	0.100
695.100	-13.340	0.100
695.200	-8.147	0.100
695.300	-18.492	0.100
695.400	-16.600	0.100
695.500	-20.474	0.100
695.600	-18.366	0.100
695.700	-18.238	0.100
695.800	-9.161	0.100
695.900	-16.168	0.100
696.000	-20.054	0.100
696.100	-15.985	0.100
696.200	-9.725	0.100
696.300	-13.061	0.100
696.400	-17.922	0.100
696.500	-16.540	0.100
696.600	-27.458	0.100
696.700	-12.731	0.100
696.800	-15.540	0.100
696.900	-15.598	0.100
697.000	-13.267	0.100
697.100	-23.185	0.100
697.200	-18.199	0.100
697.300	-18.766	0.100
697.400	-16.953	0.100
697.500	-8.055	0.100
697.600	-13.600	0.100
697.700	-23.238	0.100
697.800	-9.173	0.100
697.900	-20.520	0.100
698.000	-25.308	0.100
698.100	-21.385	0.100
698.200	-18.045	0.100
698.300	-18.980	0.100
698.400	-14.034	0.100
698.500	-13.888	0.100
698.600	-24.447	0.100
698.700	-23.281	0.100
698.800	-17.698	0.100
698.900	-17.040	0.100
699.000	-14.539	0.100
699.100	-20.658	0.100
699.200	-13.966	0.100
699.300	-14.261	0.100
699.400	-18.602	0.100
699.500	-18.966	0.100
699.600	-18.975	0.100
699.700	-24.151	0.100
699.800	-16.861	0.100
699.900	-24.727	0.100
700.000	-8.880	0.100
700.100	-17.882	0.100
700.200	-19.435	0.100
700.300	-14.614	0.100
700.400	-14.393	0.100
700.500	-10.823	0.100
700.600	-25.773	0.100
700.700	-17.246	0.100
700.800	-12.103	0.100
700.900	-19.412	0.100
701.000	-26.000	0.100
701.100	-19.845	0.100
701.200	-12.497	0.100
701.300	-14.890	0.100
701.400	-19.152	0.100
701.500	-20.835	0.100
701.600	-23.901	0.100
701.700	-32.308	0.100
701.800	-18.974	0.100
701.900	-19.006	0.100
702.000	-24.464	0.100
702.100	-18.464	0.100
702.200	-27.577	0.100
702.300	-18.840	0.100
702.400	-19.372	0.100
702.500	-25.665	0.100
702.600	-14.196	0.100
702.700	-25.409	0.100
702.800	-18.829	0.100
702.900	-22.673	0.100
703.000	-20.851	0.100
703.100	-25.771	0.100
703.200	-23.653	0.100
703.300	-19.873	0.100
703.400	-24.015	0.100
703.500	-22.708	0.100
703.600	-17.044	0.100
703.700	-17.455	0.100
703.800	-25.920	0.100
703.900	-21.800	0.100
704.000	-26.677	0.100
704.100	-10.501	0.100
704.200	-17.790	0.100
704.300	-27.317	0.100
704.400	-23.944	0.100
704.500	-28.322	0.100
704.600	-26.403	0.100
704.700	-31.745	0.100
704.800	-22.138	0.100
704.900	-21.357	0.100
705.000	-18.148	0.100
705.100	-23.705	0.100
705.200	-26.579	0.100
705.300	-21.633	0.100
705.400	-23.187	0.100
705.500	-27.681	0.100
705.600	-25.721	0.100
705.700	-21.642	0.100
705.800	-21.750	0.100
705.900	-22.846	0.100
706.000	-24.975	0.100
706.100	-22.778	0.100
706.200	-27.158	0.100
706.300	-23.882	0.100
706.400	-13.301	0.100
706.500	-23.618	0.100
706.600	-17.374	0.100
706.700	-37.628	0.100
706.800	-29.951	0.100
706.900	-23.901	0.100
707.000	-19.604	0.100
707.100	-30.436	0.100
707.200	-28.052	0.100
707.300	-26.942	0.100
707.400	-25.513	0.100
707.500	-19.116	0.100
707.600	-22.154	0.100
707.700	-20.690	0.100
707.800	-29.711	0.100
707.900	-29.041	0.100
708.000	-28.614	0.100
708.100	-29.242	0.100
708.200	-32.297	0.100
708.300	-22.042	0.100
708.400	-28.205	0.100
708.500	-29.855	0.100
708.600	-23.166	0.100
708.700	-24.663	0.100
708.800	-32.253	0.100
708.900	-37.670	0.100
709.000	-31.452	0.100
709.100	-33.317	0.100
709.200	-26.294	0.100
709.300	-27.965	0.100
709.400	-30.511	0.100
709.500	-24.222	0.100
709.600	-30.668	0.100
709.700	-23.443	0.100
709.800	-23.806	0.100
709.900	-24.625	0.100
710.000	-27.210	0.100
710.100	-33.410	0.100
710.200	-31.250	0.100
710.300	-29.402	0.100
710.400	-27.459	0.100
710.500	-20.564	0.100
710.600	-30.762	0.100
710.700	-29.259	0.100
710.800	-33.749	0.100
710.900	-24.800	0.100
711.000	-37.191	0.100
711.100	-34.565	0.100
711.200	-28.919	0.100
711.300	-22.015	0.100
711.400	-27.143	0.100
711.500	-23.867	0.100
711.600	-30.379	0.100
711.700	-24.564	0.100
711.800	-30.524	0.100
711.900	-24.327	0.100
712.000	-22.430	0.100
712.100	-38.244	0.100
712.200	-37.681	0.100
712.300	-30.603	0.100
712.400	-29.754	0.100
712.500	-25.264	0.100
712.600	-25.960	0.100
712.700	-31.255	0.100
712.800	-25.381	0.100
712.900	-27.991	0.100
713.000	-29.119	0.100
713.100	-34.191	0.100
713.200	-32.369	0.100
713.300	-35.163	0.100
713.400	-33.656	0.100
713.500	-23.562	0.100
713.600	-25.125	0.100
713.700	-28.214	0.100
713.800	-35.513	0.100
713.900	-24.573	0.100
714.000	-31.089	0.100
714.100	-23.806	0.100
714.200	-24.919	0.100
714.300	-26.293	0.100
714.400	-40.483	0.100
714.500	-27.923	0.100
714.600	-27.769	0.100
714.700	-38.700	0.100
714.800	-31.861	0.100
714.900	-36.940	0.100
715.000	-31.611	0.100
715.100	-35.656	0.100
715.200	-34.928	0.100
715.300	-33.561	0.100
715.400	-23.627	0.100
715.500	-34.470	0.100
715.600	-28.141	0.100
715.700	-36.800	0.100
715.800	-39.416	0.100
715.900	-34.516	0.100
716.000	-30.395	0.100
716.100	-37.081	0.100
716.200	-28.716	0.100
716.300	-28.612	0.100
716.400	-44.197	0.100
716.500	-41.748	0.100
716.600	-33.530	0.100
716.700	-42.441	0.100
716.800	-32.760	0.100
716.900	-36.748	0.100
717.000	-31.710	0.100
717.100	-27.377	0.100
717.200	-35.656	0.100
717.300	-33.360	0.100
717.400	-31.474	0.100
717.500	-31.815	0.100
717.600	-36.495	0.100
717.700	-44.445	0.100
717.800	-33.030	0.100
717.900	-34.011	0.100
718.000	-33.449	0.100
718.100	-35.590	0.100
718.200	-34.263	0.100
718.300	-33.384	0.100
718.400	-25.451	0.100
718.500	-39.603	0.100
718.600	-37.911	0.100
718.700	-37.201	0.100
718.800	-45.395	0.100
718.900	-24.238	0.100
719.000	-37.955	0.100
719.100	-45.593	0.100
719.200	-33.470	0.100
719.300	-31.748	0.100
719.400	-30.316	0.100
719.500	-32.500	0.100
719.600	-30.959	0.100
719.700	-36.886	0.100
719.800	-37.360	0.100
719.900	-46.954	0.100
720.000	-33.295	0.100
720.100	-34.763	0.100
720.200	-35.355	0.100
720.300	-40.297	0.100
720.400	-29.658	0.100
720.500	-40.193	0.100
720.600	-40.539	0.100
720.700	-41.711	0.100
720.800	-35.097	0.100
720.900	-34.106	0.100
721.000	-47.118	0.100
721.100	-35.692	0.100
721.200	-33.384	0.100
721.300	-30.100	0.100
721.400	-41.179	0.100
721.500	-27.851	0.100
721.600	-32.906	0.100
721.700	-43.804	0.100
721.800	-29.924	0.100
721.900	-38.547	0.100
722.000	-39.672	0.100
722.100	-40.967	0.100
722.200	-36.623	0.100
722.300	-34.775	0.100
722.400	-28.471	0.100
722.500	-39.413	0.100
722.600	-40.636	0.100
722.700	-35.620	0.100
722.800	-44.381	0.100
722.900	-45.105	0.100
723.000	-31.802	0.100
723.100	-38.808	0.100
723.200	-30.631	0.100
723.300	-38.749	0.100
723.400	-37.904	0.100
723.500	-37.817	0.100
723.600	-42.047	0.100
723.700	-36.048	0.100
723.800	-40.131	0.100
723.900	-45.085	0.100
724.000	-44.415	0.100
724.100	-40.102	0.100
724.200	-39.736	0.100
724.300	-37.038	0.100
724.400	-28.541	0.100
724.500	-39.977	0.100
724.600	-47.569	0.100
724.700	-34.960	0.100
724.800	-42.401	0.100
724.900	-41.533	0.100
725.000	-44.811	0.100
725.100	-47.858	0.100
725.200	-42.105	0.100
725.300	-38.054	0.100
725.400	-43.338	0.100
725.500	-44.581	0.100
725.600	-44.215	0.100
725.700	-43.424	0.100
725.800	-41.257	0.100
725.900	-47.508	0.100
726.000	-44.896	0.100
726.100	-41.112	0.100
726.200	-32.323	0.100
726.300	-34.964	0.100
726.400	-33.662	0.100
726.500	-41.586	0.100
726.600	-41.442	0.100
726.700	-39.928	0.100
726.800	-49.553	0.100
726.900	-35.639	0.100
727.000	-36.809	0.100
727.100	-49.221	0.100
727.200	-47.785	0.100
727.300	-42.373	0.100
727.400	-41.349	0.100
727.500	-35.044	0.100
727.600	-43.194	0.100
727.700	-33.904	0.100
727.800	-44.192	0.100
727.900	-35.191	0.100
728.000	-37.895	0.100
728.100	-44.310	0.100
728.200	-39.937	0.100
728.300	-45.609	0.100
728.400	-37.072	0.100
728.500	-41.994	0.100
728.600	-43.749	0.100
728.700	-34.750	0.100
728.800	-43.171	0.100
728.900	-39.716	0.100
729.000	-34.003	0.100
729.100	-36.612	0.100
729.200	-43.709	0.100
729.300	-39.562	0.100
729.400	-46.145	0.100
729.500	-43.114	0.100
729.600	-39.465	0.100
729.700	-44.617	0.100
729.800	-44.964	0.100
729.900	-39.158	0.100
730.000	-48.347	0.100
730.100	-42.900	0.100
730.200	-39.189	0.100
730.300	-33.609	0.100
730.400	-41.220	0.100
730.500	-48.567	0.100
730.600	-44.070	0.100
730.700	-46.093	0.100
730.800	-48.806	0.100
730.900	-44.478	0.100
731.000	-36.113	0.100
731.100	-39.186	0.100
731.200	-28.112	0.100
731.300	-45.632	0.100
731.400	-43.317	0.100
731.500	-43.755	0.100
731.600	-42.698	0.100
731.700	-35.110	0.100
731.800	-42.610	0.100
731.900	-42.188	0.100
732.000	-32.091	0.100
732.100	-50.851	0.100
732.200	-34.469	0.100
732.300	-45.352	0.100
732.400	-41.195	0.100
732.500	-37.531	0.100
732.600	-42.571	0.100
732.700	-45.783	0.100
732.800	-37.207	0.100
732.900	-50.186	0.100
733.000	-40.245	0.100
733.100	-43.877	0.100
733.200	-39.127	0.100
733.300	-42.561	0.100
733.400	-46.218	0.100
733.500	-38.129	0.100
733.600	-44.173	0.100
733.700	-46.416	0.100
733.800	-42.404	0.100
733.900	-39.759	0.100
734.000	-42.151	0.100
734.100	-40.481	0.100
734.200	-46.121	0.100
734.300	-30.270	0.100
734.400	-37.541	0.100
734.500	-41.347	0.100
734.600	-42.196	0.100
734.700	-33.675	0.100
734.800	-42.359	0.100
734.900	-35.917	0.100
735.000	-38.312	0.100
735.100	-44.831	0.100
735.200	-39.236	0.100
735.300	-48.278	0.100
735.400	-33.601	0.100
735.500	-43.624	0.100
735.600	-44.042	0.100
735.700	-36.766	0.100
735.800	-51.197	0.100
735.900	-42.463	0.100
736.000	-36.101	0.100
736.100	-33.107	0.100
736.200	-37.880	0.100
736.300	-36.030	0.100
736.400	-44.617	0.100
736.500	-35.777	0.100
736.600	-40.870	0.100
736.700	-43.850	0.100
736.800	-40.507	0.100
736.900	-35.290	0.100
737.000	-49.262	0.100
737.100	-43.540	0.100
737.200	-45.985	0.100
737.300	-51.864	0.100
737.400	-41.445	0.100
737.500	-38.104	0.100
737.600	-42.714	0.100
737.700	-41.608	0.100
737.800	-38.257	0.100
737.900	-51.655	0.100
738.000	-43.855	0.100
738.100	-34.231	0.100
738.200	-31.845	0.100
738.300	-41.272	0.100
738.400	-47.816	0.100
738.500	-44.092	0.100
738.600	-37.838	0.100
738.700	-37.345	0.100
738.800	-40.360	0.100
738.900	-53.330	0.100
739.000	-42.991	0.100
739.100	-43.105	0.100
739.200	-42.794	0.100
739.300	-33.949	0.100
739.400	-37.040	0.100
739.500	-40.531	0.100
739.600	-45.522	0.100
739.700	-38.988	0.100
739.800	-40.555	0.100
739.900	-50.785	0.100
740.000	-46.380	0.100
740.100	-41.165	0.100
740.200	-33.640	0.100
740.300	-32.498	0.100
740.400	-33.684	0.100
740.500	-41.379	0.100
740.600	-38.255	0.100
740.700	-39.355	0.100
740.800	-43.877	0.100
740.900	-29.817	0.100
741.000	-41.273	0.100
741.100	-41.104	0.100
741.200	-34.068	0.100
741.300	-48.750	0.100
741.400	-44.350	0.100
741.500	-39.288	0.100
741.600	-25.937	0.100
741.700	-26.877	0.100
741.800	-39.584	0.100
741.900	-41.830	0.100
742.000	-51.336	0.100
742.100	-37.197	0.100
742.200	-37.321	0.100
742.300	-41.882	0.100
742.400	-40.937	0.100
742.500	-32.950	0.100
742.600	-42.508	0.100
742.700	-46.472	0.100
742.800	-40.124	0.100
742.900	-43.942	0.100
743.000	-33.398	0.100
743.100	-41.876	0.100
743.200	-36.470	0.100
743.300	-33.512	0.100
743.400	-44.844	0.100
743.500	-37.266	0.100
743.600	-34.745	0.100
743.700	-40.488	0.100
743.800	-42.598	0.100
743.900	-37.875	0.100
744.000	-26.101	0.100
744.100	-40.005	0.100
744.200	-50.390	0.100
744.300	-35.423	0.100
744.400	-33.269	0.100
744.500	-42.143	0.100
744.600	-38.724	0.100
744.700	-37.700	0.100
744.800	-40.931	0.100
744.900	-48.153	0.100
745.000	-35.752	0.100
745.100	-33.778	0.100
745.200	-34.577	0.100
745.300	-37.147	0.100
745.400	-36.416	0.100
745.500	-38.230	0.100
745.600	-48.114	0.100
745.700	-42.221	0.100
745.800	-35.790	0.100
745.900	-31.034	0.100
746.000	-39.944	0.100
746.100	-44.868	0.100
746.200	-42.632	0.100
746.300	-40.802	0.100
746.400	-36.640	0.100
746.500	-36.843	0.100
746.600	-36.216	0.100
746.700	-39.130	0.100
746.800	-36.936	0.100
746.900	-45.676	0.100
747.000	-33.299	0.100
747.100	-33.379	0.100
747.200	-33.600	0.100
747.300	-37.761	0.100
747.400	-41.529	0.100
747.500	-35.439	0.100
747.600	-42.144	0.100
747.700	-36.274	0.100
747.800	-36.270	0.100
747.900	-34.455	0.100
748.000	-39.825	0.100
748.100	-40.914	0.100
748.200	-35.898	0.100
748.300	-38.016	0.100
748.400	-37.734	0.100
748.500	-30.271	0.100
748.600	-37.688	0.100
748.700	-47.235	0.100
748.800	-43.476	0.100
748.900	-49.737	0.100
749.000	-24.311	0.100
749.100	-37.897	0.100
749.200	-34.741	0.100
749.300	-38.224	0.100
749.400	-39.535	0.100
749.500	-29.485	0.100
749.600	-37.913	0.100
749.700	-35.531	0.100
749.800	-40.930	0.100
749.900	-37.103	0.100
750.000	-35.179	0.100
750.100	-46.014	0.100
750.200	-38.069	0.100
750.300	-31.971	0.100
750.400	-37.323	0.100
750.500	-41.181	0.100
750.600	-41.387	0.100
750.700	-44.028	0.100
750.800	-37.248	0.100
750.900	-36.994	0.100
751.000	-34.878	0.100
751.100	-40.332	0.100
751.200	-35.823	0.100
751.300	-35.183	0.100
751.400	-39.138	0.100
751.500	-33.302	0.100
751.600	-35.708	0.100
751.700	-38.302	0.100
751.800	-40.014	0.100
751.900	-33.060	0.100
752.000	-29.976	0.100
752.100	-29.828	0.100
752.200	-31.437	0.100
752.300	-45.646	0.100
752.400	-36.529	0.100
752.500	-40.226	0.100
752.600	-35.733	0.100
752.700	-37.627	0.100
752.800	-36.609	0.100
752.900	-28.176	0.100
753.000	-40.127	0.100
753.100	-41.425	0.100
753.200	-24.095	0.100
753.300	-32.215	0.100
753.400	-34.530	0.100
753.500	-35.514	0.100
753.600	-26.190	0.100
753.700	-35.323	0.100
753.800	-41.629	0.100
753.900	-43.378	0.100
754.000	-35.176	0.100
754.100	-37.913	0.100
754.200	-40.263	0.100
754.300	-35.500	0.100
754.400	-39.608	0.100
754.500	-38.768	0.100
754.600	-33.935	0.100
754.700	-37.648	0.100
754.800	-33.516	0.100
754.900	-28.750	0.100
755.000	-28.080	0.100
755.100	-40.148	0.100
755.200	-43.009	0.100
755.300	-33.261	0.100
755.400	-32.809	0.100
755.500	-40.658	0.100
755.600	-38.366	0.100
755.700	-32.766	0.100
755.800	-40.673	0.100
755.900	-40.948	0.100
756.000	-41.187	0.100
756.100	-36.875	0.100
756.200	-30.374	0.100
756.300	-24.034	0.100
756.400	-36.881	0.100
756.500	-27.342	0.100
756.600	-35.609	0.100
756.700	-41.393	0.100
756.800	-36.344	0.100
756.900	-35.489	0.100
757.000	-36.531	0.100
757.100	-34.636	0.100
757.200	-32.969	0.100
757.300	-37.932	0.100
757.400	-42.459	0.100
757.500	-31.886	0.100
757.600	-34.870	0.100
757.700	-32.471	0.100
757.800	-34.656	0.100
757.900	-37.904	0.100
758.000	-38.765	0.100
758.100	-34.373	0.100
758.200	-31.436	0.100
758.300	-32.644	0.100
758.400	-33.091	0.100
758.500	-32.198	0.100
758.600	-30.836	0.100
758.700	-31.988	0.100
758.800	-33.077	0.100
758.900	-39.766	0.100
759.000	-43.612	0.100
759.100	-35.471	0.100
759.200	-32.017	0.100
759.300	-35.968	0.100
759.400	-41.483	0.100
759.500	-37.657	0.100
759.600	-30.866	0.100
759.700	-34.187	0.100
759.800	-32.406	0.100
759.900	-24.747	0.100
760.000	-30.822	0.100
760.100	-32.540	0.100
760.200	-41.499	0.100
760.300	-36.453	0.100
760.400	-35.737	0.100
760.500	-29.863	0.100
760.600	-37.223	0.100
760.700	-30.531	0.100
760.800	-33.958	0.100
760.900	-35.470	0.100
761.000	-33.141	0.100
761.100	-24.454	0.100
761.200	-34.222	0.100
761.300	-38.293	0.100
761.400	-43.838	0.100
761.500	-42.164	0.100
761.600	-39.560	0.100
761.700	-36.928	0.100
761.800	-37.326	0.100
761.900	-34.077	0.100
762.000	-34.983	0.100
762.100	-24.533	0.100
762.200	-19.927	0.100
762.300	-35.846	0.100
762.400	-39.675	0.100
762.500	-33.191	0.100
762.600	-38.956	0.100
762.700	-24.956	0.100
762.800	-34.258	0.100
762.900	-39.713	0.100
763.000	-35.796	0.100
763.100	-30.086	0.100
763.200	-36.776	0.100
763.300	-31.834	0.100
763.400	-35.242	0.100
763.500	-35.388	0.100
763.600	-35.455	0.100
763.700	-32.971	0.100
763.800	-26.775	0.100
763.900	-28.285	0.100
764.000	-33.377	0.100
764.100	-36.417	0.100
764.200	-29.052	0.100
764.300	-36.365	0.100
764.400	-30.824	0.100
764.500	-32.508	0.100
764.600	-46.094	0.100
764.700	-26.920	0.100
764.800	-34.319	0.100
764.900	-30.361	0.100
765.000	-33.018	0.100
765.100	-31.317	0.100
765.200	-24.169	0.100
765.300	-33.127	0.100
765.400	-39.002	0.100
765.500	-32.222	0.100
765.600	-34.832	0.100
765.700	-36.662	0.100
765.800	-24.396	0.100
765.900	-39.485	0.100
766.000	-33.750	0.100
766.100	-35.862	0.100
766.200	-33.790	0.100
766.300	-37.258	0.100
766.400	-36.563	0.100
766.500	-27.214	0.100
766.600	-31.502	0.100
766.700	-35.010	0.100
766.800	-40.709	0.100
766.900	-30.948	0.100
767.000	-31.566	0.100
767.100	-22.360	0.100
767.200	-37.267	0.100
767.300	-31.991	0.100
767.400	-22.736	0.100
767.500	-36.784	0.100
767.600	-33.642	0.100
767.700	-23.792	0.100
767.800	-26.271	0.100
767.900	-44.379	0.100
768.000	-36.642	0.100
768.100	-36.691	0.100
768.200	-30.695	0.100
768.300	-27.490	0.100
768.400	-24.771	0.100
768.500	-29.373	0.100
768.600	-36.394	0.100
768.700	-29.294	0.100
768.800	-32.656	0.100
768.900	-27.228	0.100
769.000	-37.789	0.100
769.100	-26.031	0.100
769.200	-33.827	0.100
769.300	-31.681	0.100
769.400	-36.080	0.100
769.500	-25.411	0.100
769.600	-33.470	0.100
769.700	-30.672	0.100
769.800	-30.688	0.100
769.900	-34.346	0.100
770.000	-26.720	0.100
770.100	-33.835	0.100
770.200	-31.187	0.100
770.300	-30.686	0.100
770.400	-34.481	0.100
770.500	-30.002	0.100
770.600	-26.775	0.100
770.700	-20.486	0.100
770.800	-24.858	0.100
770.900	-31.400	0.100
771.000	-30.156	0.100
771.100	-37.362	0.100
771.200	-36.150	0.100
771.300	-38.360	0.100
771.400	-22.703	0.100
771.500	-31.644	0.100
771.600	-24.655	0.100
771.700	-23.466	0.100
771.800	-29.963	0.100
771.900	-28.254	0.100
772.000	-31.790	0.100
772.100	-32.970	0.100
772.200	-20.740	0.100
772.300	-33.570	0.100
772.400	-28.430	0.100
772.500	-19.095	0.100
772.600	-25.067	0.100
772.700	-34.860	0.101
772.800	-32.532	0.100
772.900	-33.320	0.100
773.000	-35.022	0.100
773.100	-30.168	0.100
773.200	-26.602	0.100
773.300	-24.452	0.100
773.400	-35.234	0.100
773.500	-43.939	0.100
773.600	-40.725	0.100
773.700	-35.089	0.100
773.800	-32.035	0.100
773.900	-27.860	0.100
774.000	-29.869	0.100
774.100	-26.292	0.100
774.200	-27.524	0.100
774.300	-24.419	0.100
774.400	-35.840	0.100
774.500	-30.480	0.100
774.600	-27.713	0.100
774.700	-26.673	0.100
774.800	-30.658	0.100
774.900	-23.568	0.100
775.000	-24.527	0.100
775.100	-28.874	0.100
775.200	-31.662	0.101
775.300	-24.493	0.101
775.400	-24.789	0.101
775.500	-30.210	0.100
775.600	-27.587	0.101
775.700	-29.692	0.101
775.800	-32.021	0.100
775.900	-28.698	0.101
776.000	-37.630	0.101
776.100	-33.333	0.101
776.200	-26.267	0.101
776.300	-34.732	0.101
776.400	-31.518	0.101
776.500	-23.314	0.101
776.600	-29.311	0.101
776.700	-37.930	0.101
776.800	-34.642	0.101
776.900	-34.720	0.101
777.000	-30.252	0.101
777.100	-31.231	0.101
777.200	-33.372	0.101
777.300	-26.869	0.101
777.400	-32.400	0.101
777.500	-36.345	0.101
777.600	-25.105	0.100
777.700	-30.996	0.101
777.800	-23.139	0.101
777.900	-26.267	0.101
778.000	-36.662	0.101
778.100	-36.176	0.101
778.200	-26.445	0.101
778.300	-27.296	0.101
778.400	-27.732	0.101
778.500	-30.465	0.101
778.600	-31.573	0.101
778.700	-31.626	0.101
778.800	-24.427	0.101
778.900	-32.780	0.101
779.000	-33.759	0.101
779.100	-30.968	0.101
779.200	-37.349	0.101
779.300	-25.510	0.101
779.400	-22.939	0.101
779.500	-25.992	0.101
779.600	-36.197	0.101
779.700	-35.047	0.101
779.800	-26.283	0.101
779.900	-29.060	0.101
780.000	-25.254	0.101
780.100	-23.310	0.101
780.200	-27.640	0.100
780.300	-23.217	0.101
780.400	-8.856	0.101
780.500	-12.730	0.101
780.600	-2.695	0.101
780.700	9.387	0.101
780.800	9.484	0.101
780.900	3.885	0.101
781.000	9.157	0.101
781.100	-1.133	0.101
781.200	11.908	0.101
781.300	16.362	0.101
781.400	15.550	0.101
781.500	13.604	0.101
781.600	24.056	0.101
781.700	12.986	0.101
781.800	18.103	0.101
781.900	20.302	0.101
782.000	19.731	0.101
782.100	28.024	0.101
782.200	18.273	0.101
782.300	13.751	0.101
782.400	22.102	0.101
782.500	30.744	0.101
782.600	23.118	0.101
782.700	26.957	0.101
782.800	25.297	0.101
782.900	17.746	0.101
783.000	21.793	0.101
783.100	22.293	0.101
783.200	27.028	0.101
783.300	18.751	0.101
783.400	15.681	0.101
783.500	32.992	0.101
783.600	25.929	0.101
783.700	17.901	0.101
783.800	17.920	0.101
783.900	30.206	0.101
784.000	22.432	0.101
784.100	24.342	0.101
784.200	23.884	0.101
784.300	19.003	0.101
784.400	28.079	0.101
784.500	19.054	0.101
784.600	21.537	0.101
784.700	26.124	0.101
784.800	27.928	0.101
784.900	32.008	0.101
785.000	30.281	0.101
785.100	23.107	0.101
785.200	21.770	0.101
785.300	22.588	0.101
785.400	19.685	0.101
785.500	20.349	0.101
785.600	18.387	0.101
785.700	19.634	0.101
785.800	30.988	0.101
785.900	26.501	0.101
786.000	20.069	0.101
786.100	16.978	0.101
786.200	25.822	0.101
786.300	18.736	0.101
786.400	16.772	0.101
786.500	16.980	0.101
786.600	19.634	0.101
786.700	15.414	0.101
786.800	15.782	0.101
786.900	17.267	0.101
787.000	23.484	0.101
787.100	21.098	0.101
787.200	18.278	0.101
787.300	20.909	0.101
787.400	13.407	0.101
787.500	17.830	0.101
787.600	25.633	0.101
787.700	16.966	0.101
787.800	24.022	0.101
787.900	22.833	0.101
788.000	22.593	0.101
788.100	14.799	0.101
788.200	23.366	0.101
788.300	30.504	0.101
788.400	25.484	0.101
788.500	25.424	0.101
788.600	19.061	0.101
788.700	19.952	0.101
788.800	21.872	0.101
788.900	23.271	0.101
789.000	35.295	0.101
789.100	27.165	0.101
789.200	19.844	0.101
789.300	27.481	0.101
789.400	26.201	0.101
789.500	17.195	0.101
789.600	20.485	0.101
789.700	25.744	0.101
789.800	27.618	0.101
789.900	26.101	0.101
790.000	22.653	0.101
790.100	23.724	0.101
790.200	20.920	0.101
790.300	19.236	0.101
790.400	26.756	0.101
790.500	25.697	0.101
790.600	19.471	0.101
790.700	28.866	0.101
790.800	23.574	0.101
790.900	25.010	0.101
791.000	26.361	0.101
791.100	28.200	0.101
791.200	25.022	0.101
791.300	36.309	0.101
791.400	27.198	0.101
791.500	28.484	0.101
791.600	25.485	0.101
791.700	22.554	0.101
791.800	28.490	0.101
791.900	22.477	0.101
792.000	19.143	0.101
792.100	30.010	0.101
792.200	30.132	0.101
792.300	35.831	0.101
792.400	27.855	0.101
792.500	37.367	0.101
792.600	23.634	0.101
792.700	29.574	0.101
792.800	22.302	0.101
792.900	23.231	0.101
793.000	23.856	0.101
793.100	35.178	0.101
793.200	34.558	0.101
793.300	31.510	0.101
793.400	33.337	0.101
793.500	38.939	0.101
793.600	27.052	0.101
793.700	34.008	0.101
793.800	31.926	0.101
793.900	30.386	0.101
794.000	34.773	0.101
794.100	29.338	0.101
794.200	31.247	0.101
794.300	31.359	0.101
794.400	33.404	0.101
794.500	28.125	0.101
794.600	32.110	0.101
794.700	26.278	0.101
794.800	33.417	0.101
794.900	27.587	0.101
795.000	35.509	0.101
795.100	28.838	0.101
795.200	34.904	0.101
795.300	49.479	0.101
795.400	38.072	0.101
795.500	33.089	0.101
795.600	40.694	0.101
795.700	39.557	0.101
795.800	31.967	0.101
795.900	37.277	0.101
796.000	37.369	0.101
796.100	38.052	0.101
796.200	42.725	0.101
796.300	43.549	0.101
796.400	47.423	0.101
796.500	46.546	0.101
796.600	36.749	0.101
796.700	45.159	0.101
796.800	46.975	0.101
796.900	38.950	0.101
797.000	46.694	0.101
797.100	32.176	0.101
797.200	44.794	0.101
797.300	39.184	0.101
797.400	43.240	0.101
797.500	45.618	0.101
797.600	38.840	0.101
797.700	46.543	0.101
797.800	41.529	0.101
797.900	48.023	0.101
798.000	34.921	0.101
798.100	42.857	0.101
798.200	55.682	0.101
798.300	46.145	0.101
798.400	47.013	0.101
798.500	40.211	0.101
798.600	46.297	0.101
798.700	36.503	0.101
798.800	46.789	0.101
798.900	49.949	0.101
799.000	49.164	0.101
799.100	54.612	0.101
799.200	50.488	0.101
799.300	50.917	0.101
799.400	53.051	0.101
799.500	54.190	0.101
799.600	54.996	0.101
799.700	55.469	0.101
799.800	51.565	0.101
799.900	54.314	0.101
800.000	60.815	0.101
