time /s	I /nA	E /V
0.100	-22.479	0.100
0.200	-17.352	0.100
0.300	-15.891	0.100
0.400	-12.665	0.100
0.500	-19.634	0.100
0.600	-17.543	0.100
0.700	-12.534	0.100
0.800	-16.479	0.100
0.900	-15.548	0.100
1.000	-17.228	0.100
1.100	-11.774	0.100
1.200	-21.446	0.100
1.300	-21.558	0.100
1.400	-7.003	0.100
1.500	-23.694	0.100
1.600	-15.425	0.100
1.700	-15.876	0.100
1.800	-21.122	0.100
1.900	-14.874	0.100
2.000	-14.329	0.100
2.100	-19.752	0.100
2.200	-23.297	0.100
2.300	-17.660	0.100
2.400	-12.093	0.100
2.500	-20.560	0.100
2.600	-22.865	0.100
2.700	-26.395	0.100
2.800	-18.881	0.100
2.900	-11.803	0.100
3.000	-13.471	0.100
3.100	-15.194	0.100
3.200	-12.440	0.100
3.300	-19.851	0.100
3.400	-19.612	0.100
3.500	-17.677	0.100
3.600	-21.806	0.100
3.700	-12.870	0.100
3.800	-17.125	0.100
3.900	-10.751	0.100
4.000	-13.781	0.100
4.100	-15.863	0.100
4.200	-16.951	0.100
4.300	-15.814	0.100
4.400	-18.130	0.100
4.500	-8.391	0.100
4.600	-11.721	0.100
4.700	-27.549	0.100
4.800	-23.743	0.100
4.900	-17.519	0.100
5.000	-20.209	0.100
5.100	-13.701	0.100
5.200	-11.813	0.100
5.300	-16.825	0.100
5.400	-19.486	0.100
5.500	-17.018	0.100
5.600	-19.080	0.100
5.700	-20.275	0.100
5.800	-20.263	0.100
5.900	-17.280	0.100
6.000	-12.895	0.100
6.100	-10.862	0.100
6.200	-29.995	0.100
6.300	-17.898	0.100
6.400	-11.518	0.100
6.500	-10.639	0.100
6.600	-16.264	0.100
6.700	-24.207	0.100
6.800	-17.385	0.100
6.900	-24.395	0.100
7.000	-17.896	0.100
7.100	-18.519	0.100
7.200	-12.609	0.100
7.300	-18.464	0.100
7.400	-11.493	0.100
7.500	-17.179	0.100
7.600	-14.109	0.100
7.700	-18.601	0.100
7.800	-12.887	0.100
7.900	-9.492	0.100
8.000	-19.902	0.100
8.100	-26.123	0.100
8.200	-17.031	0.100
8.300	-14.476	0.100
8.400	-25.599	0.100
8.500	-17.660	0.100
8.600	-20.261	0.100
8.700	-11.864	0.100
8.800	-12.623	0.100
8.900	-8.218	0.100
9.000	-17.180	0.100
9.100	-17.706	0.100
9.200	-26.192	0.100
9.300	-27.012	0.100
9.400	-10.012	0.100
9.500	-25.804	0.100
9.600	-21.743	0.100
9.700	-16.422	0.100
9.800	-20.136	0.100
9.900	-12.276	0.100
10.000	-16.698	0.100
10.100	-18.872	0.100
10.200	-19.892	0.100
10.300	-19.059	0.100
10.400	-17.507	0.100
10.500	-12.902	0.100
10.600	-19.993	0.100
10.700	-18.138	0.100
10.800	-10.232	0.100
10.900	-15.614	0.100
11.000	-25.492	0.100
11.100	-10.787	0.100
11.200	-12.213	0.100
11.300	-16.560	0.100
11.400	-27.285	0.100
11.500	-16.405	0.100
11.600	-21.791	0.100
11.700	-18.708	0.100
11.800	-11.152	0.100
11.900	-15.615	0.100
12.000	-21.154	0.100
12.100	-21.074	0.100
12.200	-28.429	0.100
12.300	-21.382	0.100
12.400	-20.213	0.100
12.500	-14.394	0.100
12.600	-23.224	0.100
12.700	-20.455	0.100
12.800	-19.730	0.100
12.900	-9.998	0.100
13.000	-16.265	0.100
13.100	-10.153	0.100
13.200	-21.636	0.100
13.300	-17.144	0.100
13.400	-19.716	0.100
13.500	-19.519	0.100
13.600	-12.373	0.100
13.700	-26.645	0.100
13.800	-17.845	0.100
13.900	-25.609	0.100
14.000	-14.512	0.100
14.100	-9.056	0.100
14.200	-15.281	0.100
14.300	-21.512	0.100
14.400	-11.831	0.100
14.500	0.555	0.100
14.600	-10.757	0.100
14.700	-24.415	0.100
14.800	-18.741	0.100
14.900	-7.154	0.100
15.000	-22.366	0.100
15.100	-14.215	0.100
15.200	-13.136	0.100
15.300	-21.853	0.100
15.400	-19.829	0.100
15.500	-18.528	0.100
15.600	-14.927	0.100
15.700	-16.048	0.100
15.800	-19.272	0.100
15.900	-13.439	0.100
16.000	-20.111	0.100
16.100	-14.222	0.100
16.200	-17.421	0.100
16.300	-18.833	0.100
16.400	-16.382	0.100
16.500	-15.026	0.100
16.600	-11.519	0.100
16.700	-26.141	0.100
16.800	-27.217	0.100
16.900	-4.393	0.100
17.000	-17.806	0.100
17.100	-14.770	0.100
17.200	-23.191	0.100
17.300	-22.543	0.100
17.400	-22.726	0.100
17.500	-9.155	0.100
17.600	-16.083	0.100
17.700	-15.947	0.100
17.800	-13.700	0.100
17.900	-21.917	0.100
18.000	-15.988	0.100
18.100	-5.229	0.100
18.200	-25.982	0.100
18.300	-24.198	0.100
18.400	-14.519	0.100
18.500	-15.582	0.100
18.600	-15.140	0.100
18.700	-20.595	0.100
18.800	-14.544	0.100
18.900	-21.787	0.100
19.000	-18.860	0.100
19.100	-16.653	0.100
19.200	-12.925	0.100
19.300	-10.495	0.100
19.400	-20.704	0.100
19.500	-15.924	0.100
19.600	-15.365	0.100
19.700	-9.319	0.100
19.800	-15.591	0.100
19.900	-18.353	0.100
20.000	-23.830	0.100
20.100	-17.544	0.100
20.200	-8.273	0.100
20.300	-14.707	0.100
20.400	-20.386	0.100
20.500	-18.312	0.100
20.600	-19.393	0.100
20.700	-13.620	0.100
20.800	-18.302	0.100
20.900	-33.564	0.100
21.000	-24.304	0.100
21.100	-12.971	0.100
21.200	-13.543	0.100
21.300	-15.645	0.100
21.400	-20.292	0.100
21.500	-11.936	0.100
21.600	-21.765	0.100
21.700	-22.153	0.100
21.800	-15.081	0.100
21.900	-10.253	0.100
22.000	-13.202	0.100
22.100	-15.963	0.100
22.200	-15.949	0.100
22.300	-14.211	0.100
22.400	-12.242	0.100
22.500	-10.045	0.100
22.600	-18.027	0.100
22.700	-15.944	0.100
22.800	-15.004	0.100
22.900	-13.189	0.100
23.000	-18.884	0.100
23.100	-14.923	0.100
23.200	-24.580	0.100
23.300	-21.302	0.100
23.400	-17.336	0.100
23.500	-11.376	0.100
23.600	-20.836	0.100
23.700	-23.924	0.100
23.800	-16.143	0.100
23.900	-18.756	0.100
24.000	-14.952	0.100
24.100	-12.832	0.100
24.200	-20.249	0.100
24.300	-15.056	0.100
24.400	-22.814	0.100
24.500	-15.762	0.100
24.600	-15.188	0.100
24.700	-23.277	0.100
24.800	-15.453	0.100
24.900	-4.610	0.100
25.000	-10.378	0.100
25.100	-17.631	0.100
25.200	-16.929	0.100
25.300	-17.945	0.100
25.400	-18.915	0.100
25.500	-9.705	0.100
25.600	-18.203	0.100
25.700	-10.858	0.100
25.800	-8.978	0.100
25.900	-11.846	0.100
26.000	-17.122	0.100
26.100	-21.412	0.100
26.200	-13.018	0.100
26.300	-19.109	0.100
26.400	-14.152	0.100
26.500	-10.424	0.100
26.600	-15.814	0.100
26.700	-17.404	0.100
26.800	-10.506	0.100
26.900	-23.863	0.100
27.000	-16.630	0.100
27.100	-18.487	0.100
27.200	-18.828	0.100
27.300	-15.271	0.100
27.400	-20.906	0.100
27.500	-21.129	0.100
27.600	-13.779	0.100
27.700	-10.205	0.100
27.800	-13.993	0.100
27.900	-18.780	0.100
28.000	-24.589	0.100
28.100	-12.542	0.100
28.200	-21.764	0.100
28.300	-17.355	0.100
28.400	-20.939	0.100
28.500	-16.392	0.100
28.600	-14.121	0.100
28.700	-16.067	0.100
28.800	-6.998	0.100
28.900	-20.660	0.100
29.000	-15.757	0.100
29.100	-9.036	0.100
29.200	-20.404	0.100
29.300	-18.059	0.100
29.400	-18.399	0.100
29.500	-19.942	0.100
29.600	-17.275	0.100
29.700	-9.938	0.100
29.800	-9.393	0.100
29.900	-9.455	0.100
30.000	-15.031	0.100
30.100	-20.428	0.100
30.200	-22.152	0.100
30.300	-17.179	0.100
30.400	-18.477	0.100
30.500	-7.716	0.100
30.600	-2.359	0.100
30.700	-15.527	0.100
30.800	-5.459	0.100
30.900	-2.202	0.100
31.000	-1.148	0.100
31.100	-5.754	0.100
31.200	9.865	0.100
31.300	12.615	0.100
31.400	10.138	0.100
31.500	13.399	0.100
31.600	8.427	0.100
31.700	9.297	0.100
31.800	17.146	0.100
31.900	20.705	0.100
32.000	31.251	0.100
32.100	21.182	0.100
32.200	22.240	0.100
32.300	26.971	0.100
32.400	22.622	0.100
32.500	28.296	0.100
32.600	19.827	0.100
32.700	24.062	0.100
32.800	33.447	0.100
32.900	23.096	0.100
33.000	39.212	0.100
33.100	32.225	0.100
33.200	35.168	0.100
33.300	23.725	0.100
33.400	28.878	0.100
33.500	27.063	0.100
33.600	32.816	0.100
33.700	30.064	0.100
33.800	36.627	0.100
33.900	32.112	0.100
34.000	29.334	0.100
34.100	28.578	0.100
34.200	26.335	0.100
34.300	25.232	0.100
34.400	29.335	0.100
34.500	39.249	0.100
34.600	25.928	0.100
34.700	33.470	0.100
34.800	28.762	0.100
34.900	28.091	0.100
35.000	23.740	0.100
35.100	28.150	0.100
35.200	25.681	0.100
35.300	29.370	0.100
35.400	20.281	0.100
35.500	16.511	0.100
35.600	27.709	0.100
35.700	36.336	0.100
35.800	25.965	0.100
35.900	7.868	0.100
36.000	19.455	0.100
36.100	22.626	0.100
36.200	11.805	0.100
36.300	21.218	0.100
36.400	20.143	0.100
36.500	19.563	0.100
36.600	23.040	0.100
36.700	18.908	0.100
36.800	20.717	0.100
36.900	15.616	0.100
37.000	21.938	0.100
37.100	16.198	0.100
37.200	28.234	0.100
37.300	17.947	0.100
37.400	30.644	0.100
37.500	26.062	0.100
37.600	24.960	0.100
37.700	15.603	0.100
37.800	18.391	0.100
37.900	25.172	0.100
38.000	26.284	0.100
38.100	19.578	0.100
38.200	20.258	0.100
38.300	15.888	0.100
38.400	35.309	0.100
38.500	22.521	0.100
38.600	23.038	0.100
38.700	21.074	0.100
38.800	22.487	0.100
38.900	33.642	0.100
39.000	27.802	0.100
39.100	13.718	0.100
39.200	26.146	0.100
39.300	19.913	0.100
39.400	19.299	0.100
39.500	30.216	0.100
39.600	29.900	0.100
39.700	28.282	0.100
39.800	13.725	0.100
39.900	17.896	0.100
40.000	27.173	0.100
40.100	28.402	0.100
40.200	30.098	0.100
40.300	24.936	0.100
40.400	18.563	0.100
40.500	32.759	0.100
40.600	29.112	0.100
40.700	19.730	0.100
40.800	21.849	0.100
40.900	27.920	0.100
41.000	30.610	0.100
41.100	29.053	0.100
41.200	24.030	0.100
41.300	36.191	0.100
41.400	32.752	0.100
41.500	26.998	0.100
41.600	30.273	0.100
41.700	27.730	0.100
41.800	19.042	0.100
41.900	35.754	0.100
42.000	29.481	0.100
42.100	31.101	0.100
42.200	36.033	0.100
42.300	29.664	0.100
42.400	28.795	0.100
42.500	34.690	0.100
42.600	30.742	0.100
42.700	36.773	0.100
42.800	35.402	0.100
42.900	32.913	0.100
43.000	38.436	0.100
43.100	41.029	0.100
43.200	31.363	0.100
43.300	39.644	0.100
43.400	33.219	0.100
43.500	30.518	0.100
43.600	26.812	0.100
43.700	37.490	0.100
43.800	45.290	0.100
43.900	40.525	0.100
44.000	36.303	0.100
44.100	28.942	0.100
44.200	34.393	0.100
44.300	37.022	0.100
44.400	37.666	0.100
44.500	40.967	0.100
44.600	34.095	0.100
44.700	46.581	0.100
44.800	41.807	0.100
44.900	43.186	0.100
45.000	33.676	0.100
45.100	43.585	0.100
45.200	47.872	0.100
45.300	33.697	0.100
45.400	35.143	0.100
45.500	47.052	0.100
45.600	45.872	0.100
45.700	41.936	0.100
45.800	45.548	0.100
45.900	44.687	0.100
46.000	39.090	0.100
46.100	39.041	0.100
46.200	48.888	0.100
46.300	44.775	0.100
46.400	40.583	0.100
46.500	45.133	0.100
46.600	47.193	0.100
46.700	51.246	0.100
46.800	37.949	0.100
46.900	45.306	0.100
47.000	44.056	0.100
47.100	51.063	0.100
47.200	47.733	0.100
47.300	47.136	0.100
47.400	48.292	0.100
47.500	52.429	0.100
47.600	51.831	0.100
47.700	49.110	0.100
47.800	42.998	0.100
47.900	49.114	0.100
48.000	56.411	0.100
48.100	50.840	0.100
48.200	57.687	0.100
48.300	61.415	0.100
48.400	54.852	0.100
48.500	49.271	0.100
48.600	51.597	0.100
48.700	59.292	0.100
48.800	52.444	0.100
48.900	50.052	0.100
49.000	55.623	0.100
49.100	48.382	0.100
49.200	43.160	0.100
49.300	57.957	0.100
49.400	56.754	0.100
49.500	59.490	0.100
49.600	55.524	0.100
49.700	55.553	0.100
49.800	54.240	0.100
49.900	59.132	0.100
50.000	60.924	0.100
50.100	66.812	0.100
50.200	49.661	0.100
50.300	54.591	0.100
50.400	59.421	0.100
50.500	59.611	0.100
50.600	56.348	0.100
50.700	64.499	0.100
50.800	53.638	0.100
50.900	46.997	0.100
51.000	58.464	0.100
51.100	67.354	0.100
51.200	59.575	0.100
51.300	52.901	0.100
51.400	57.540	0.100
51.500	54.557	0.100
51.600	51.689	0.100
51.700	64.699	0.100
51.800	63.151	0.100
51.900	58.927	0.100
52.000	68.996	0.100
52.100	60.167	0.100
52.200	66.321	0.100
52.300	62.421	0.100
52.400	64.241	0.100
52.500	65.594	0.100
52.600	64.365	0.100
52.700	62.036	0.100
52.800	57.346	0.100
52.900	63.250	0.100
53.000	62.813	0.100
53.100	55.230	0.100
53.200	57.880	0.100
53.300	66.724	0.100
53.400	64.746	0.100
53.500	60.227	0.100
53.600	69.315	0.100
53.700	65.332	0.100
53.800	59.276	0.100
53.900	55.566	0.100
54.000	57.412	0.100
54.100	55.479	0.100
54.200	61.896	0.100
54.300	70.888	0.100
54.400	67.295	0.100
54.500	51.385	0.100
54.600	73.959	0.100
54.700	64.592	0.100
54.800	61.011	0.100
54.900	70.242	0.100
55.000	65.666	0.100
55.100	60.393	0.100
55.200	67.846	0.100
55.300	59.753	0.100
55.400	55.393	0.100
55.500	61.208	0.100
55.600	65.640	0.100
55.700	63.424	0.100
55.800	66.350	0.100
55.900	67.572	0.100
56.000	73.933	0.100
56.100	70.352	0.100
56.200	66.361	0.100
56.300	66.619	0.100
56.400	66.650	0.100
56.500	61.417	0.100
56.600	64.575	0.100
56.700	65.960	0.100
56.800	64.648	0.100
56.900	68.617	0.100
57.000	64.726	0.100
57.100	65.171	0.100
57.200	65.207	0.100
57.300	69.540	0.100
57.400	71.475	0.100
57.500	69.986	0.100
57.600	63.374	0.100
57.700	68.037	0.100
57.800	63.558	0.100
57.900	69.154	0.100
58.000	66.183	0.100
58.100	62.517	0.100
58.200	67.955	0.100
58.300	73.317	0.100
58.400	73.599	0.100
58.500	67.489	0.100
58.600	68.172	0.100
58.700	63.545	0.100
58.800	58.807	0.100
58.900	69.219	0.100
59.000	71.530	0.100
59.100	71.447	0.100
59.200	64.763	0.100
59.300	66.235	0.100
59.400	72.776	0.100
59.500	63.523	0.100
59.600	68.450	0.100
59.700	70.317	0.100
59.800	78.646	0.100
59.900	70.651	0.100
60.000	66.800	0.100
60.100	60.618	0.100
60.200	65.256	0.100
60.300	62.372	0.100
60.400	67.016	0.100
60.500	64.525	0.100
60.600	74.313	0.100
60.700	70.813	0.100
60.800	74.334	0.100
60.900	61.630	0.100
61.000	70.887	0.100
61.100	77.498	0.100
61.200	67.830	0.100
61.300	67.698	0.100
61.400	64.976	0.100
61.500	70.973	0.100
61.600	65.900	0.100
61.700	61.720	0.100
61.800	69.936	0.100
61.900	63.680	0.100
62.000	68.534	0.100
62.100	56.541	0.100
62.200	60.727	0.100
62.300	74.312	0.100
62.400	76.136	0.100
62.500	64.514	0.100
62.600	72.653	0.100
62.700	69.707	0.100
62.800	64.155	0.100
62.900	63.072	0.100
63.000	69.151	0.100
63.100	61.912	0.100
63.200	62.676	0.100
63.300	65.048	0.100
63.400	62.208	0.100
63.500	75.424	0.100
63.600	70.928	0.100
63.700	70.994	0.100
63.800	65.127	0.100
63.900	65.321	0.100
64.000	66.377	0.100
64.100	58.330	0.100
64.200	59.063	0.100
64.300	66.787	0.100
64.400	61.541	0.100
64.500	65.825	0.100
64.600	74.049	0.100
64.700	77.590	0.100
64.800	65.025	0.100
64.900	60.354	0.100
65.000	67.171	0.100
65.100	64.599	0.100
65.200	66.299	0.100
65.300	60.106	0.100
65.400	64.824	0.100
65.500	54.199	0.100
65.600	67.722	0.100
65.700	63.668	0.100
65.800	67.363	0.100
65.900	58.184	0.100
66.000	61.879	0.100
66.100	65.692	0.100
66.200	67.395	0.100
66.300	61.082	0.100
66.400	57.377	0.100
66.500	70.288	0.100
66.600	77.268	0.100
66.700	62.059	0.100
66.800	70.014	0.100
66.900	68.440	0.100
67.000	65.046	0.100
67.100	60.883	0.100
67.200	61.241	0.100
67.300	63.936	0.100
67.400	59.077	0.100
67.500	70.058	0.100
67.600	70.338	0.100
67.700	54.587	0.100
67.800	58.598	0.100
67.900	76.024	0.100
68.000	66.845	0.100
68.100	61.578	0.100
68.200	62.278	0.100
68.300	68.543	0.100
68.400	57.380	0.100
68.500	65.971	0.100
68.600	60.912	0.100
68.700	62.056	0.100
68.800	58.589	0.100
68.900	63.233	0.100
69.000	61.987	0.100
69.100	65.581	0.100
69.200	57.686	0.100
69.300	60.156	0.100
69.400	61.788	0.100
69.500	59.344	0.100
69.600	62.853	0.100
69.700	65.917	0.100
69.800	62.578	0.100
69.900	52.129	0.100
70.000	70.944	0.100
70.100	55.956	0.100
70.200	67.932	0.100
70.300	64.845	0.100
70.400	60.137	0.100
70.500	54.392	0.100
70.600	62.571	0.100
70.700	61.252	0.100
70.800	55.327	0.100
70.900	63.652	0.100
71.000	70.112	0.100
71.100	59.823	0.100
71.200	59.298	0.100
71.300	68.722	0.100
71.400	53.291	0.100
71.500	54.005	0.100
71.600	62.639	0.100
71.700	77.367	0.100
71.800	62.220	0.100
71.900	54.383	0.100
72.000	55.875	0.100
72.100	60.180	0.100
72.200	56.560	0.100
72.300	66.563	0.100
72.400	68.433	0.100
72.500	70.624	0.100
72.600	67.212	0.100
72.700	61.348	0.100
72.800	64.598	0.100
72.900	67.163	0.100
73.000	60.129	0.100
73.100	59.305	0.100
73.200	58.966	0.100
73.300	56.850	0.100
73.400	59.671	0.100
73.500	65.284	0.100
73.600	59.118	0.100
73.700	57.622	0.100
73.800	56.112	0.100
73.900	57.033	0.100
74.000	51.890	0.100
74.100	59.350	0.100
74.200	60.827	0.100
74.300	65.379	0.100
74.400	62.120	0.100
74.500	69.967	0.100
74.600	60.159	0.100
74.700	59.193	0.100
74.800	69.925	0.100
74.900	66.571	0.100
75.000	59.819	0.100
75.100	56.925	0.100
75.200	48.828	0.100
75.300	58.959	0.100
75.400	60.003	0.100
75.500	58.554	0.100
75.600	54.352	0.100
75.700	63.922	0.100
75.800	54.658	0.100
75.900	60.102	0.100
76.000	59.758	0.100
76.100	60.657	0.100
76.200	59.075	0.100
76.300	55.660	0.100
76.400	59.744	0.100
76.500	55.269	0.100
76.600	69.314	0.100
76.700	63.205	0.100
76.800	54.917	0.100
76.900	54.790	0.100
77.000	56.684	0.100
77.100	60.138	0.100
77.200	56.826	0.100
77.300	59.212	0.100
77.400	61.680	0.100
77.500	59.718	0.100
77.600	53.147	0.100
77.700	57.846	0.100
77.800	58.588	0.100
77.900	58.563	0.100
78.000	65.279	0.100
78.100	68.191	0.100
78.200	54.655	0.100
78.300	56.020	0.100
78.400	58.004	0.100
78.500	64.970	0.100
78.600	52.447	0.100
78.700	58.857	0.100
78.800	58.353	0.100
78.900	59.259	0.100
79.000	50.120	0.100
79.100	55.609	0.100
79.200	68.914	0.100
79.300	64.412	0.100
79.400	54.744	0.100
79.500	49.932	0.100
79.600	59.072	0.100
79.700	67.851	0.100
79.800	67.722	0.100
79.900	48.119	0.100
80.000	58.054	0.100
80.100	57.836	0.100
80.200	58.131	0.100
80.300	56.788	0.100
80.400	61.078	0.100
80.500	59.644	0.100
80.600	62.308	0.100
80.700	64.103	0.100
80.800	57.990	0.100
80.900	57.589	0.100
81.000	58.279	0.100
81.100	62.486	0.100
81.200	61.463	0.100
81.300	51.872	0.100
81.400	47.504	0.100
81.500	66.342	0.100
81.600	59.930	0.100
81.700	58.632	0.100
81.800	56.155	0.100
81.900	60.318	0.100
82.000	55.934	0.100
82.100	53.667	0.100
82.200	61.592	0.100
82.300	64.155	0.100
82.400	56.304	0.100
82.500	48.695	0.100
82.600	52.909	0.100
82.700	62.853	0.100
82.800	57.208	0.100
82.900	61.208	0.100
83.000	51.801	0.100
83.100	49.046	0.100
83.200	61.002	0.100
83.300	65.625	0.100
83.400	53.507	0.100
83.500	54.890	0.100
83.600	66.490	0.100
83.700	52.099	0.100
83.800	57.160	0.100
83.900	66.403	0.100
84.000	64.318	0.100
84.100	58.158	0.100
84.200	63.231	0.100
84.300	57.062	0.100
84.400	61.963	0.100
84.500	46.876	0.100
84.600	65.856	0.100
84.700	56.509	0.100
84.800	65.137	0.100
84.900	55.983	0.100
85.000	55.098	0.100
85.100	59.521	0.100
85.200	67.627	0.100
85.300	59.998	0.100
85.400	51.596	0.100
85.500	65.679	0.100
85.600	62.502	0.100
85.700	55.837	0.100
85.800	47.655	0.100
85.900	61.916	0.100
86.000	57.688	0.100
86.100	45.002	0.100
86.200	54.375	0.100
86.300	56.744	0.100
86.400	56.483	0.100
86.500	62.835	0.100
86.600	59.790	0.100
86.700	52.634	0.100
86.800	55.760	0.100
86.900	59.252	0.100
87.000	61.238	0.100
87.100	55.137	0.100
87.200	54.659	0.100
87.300	53.225	0.100
87.400	65.864	0.100
87.500	63.831	0.100
87.600	46.649	0.100
87.700	58.452	0.100
87.800	63.651	0.100
87.900	58.968	0.100
88.000	59.989	0.100
88.100	52.992	0.100
88.200	58.229	0.100
88.300	63.529	0.100
88.400	55.906	0.100
88.500	40.116	0.100
88.600	55.737	0.100
88.700	66.298	0.100
88.800	57.238	0.100
88.900	55.236	0.100
89.000	58.232	0.100
89.100	57.853	0.100
89.200	53.802	0.100
89.300	60.848	0.100
89.400	53.948	0.100
89.500	58.807	0.100
89.600	57.373	0.100
89.700	57.014	0.100
89.800	60.214	0.100
89.900	57.430	0.100
90.000	54.653	0.100
90.100	49.248	0.100
90.200	64.967	0.100
90.300	55.306	0.100
90.400	55.169	0.100
90.500	50.647	0.100
90.600	47.888	0.100
90.700	47.170	0.100
90.800	38.806	0.100
90.900	37.479	0.100
91.000	40.330	0.100
91.100	43.444	0.100
91.200	34.316	0.100
91.300	32.504	0.100
91.400	25.749	0.100
91.500	27.526	0.100
91.600	25.708	0.100
91.700	20.003	0.100
91.800	13.561	0.100
91.900	9.168	0.100
92.000	6.443	0.100
92.100	1.074	0.100
92.200	13.992	0.100
92.300	0.976	0.100
92.400	11.615	0.100
92.500	10.649	0.100
92.600	8.180	0.100
92.700	-3.210	0.100
92.800	2.177	0.100
92.900	-4.038	0.100
93.000	-4.847	0.100
93.100	-4.314	0.100
93.200	-1.909	0.100
93.300	-17.168	0.100
93.400	-3.867	0.100
93.500	-5.098	0.100
93.600	-5.889	0.100
93.700	-5.000	0.100
93.800	-7.527	0.100
93.900	-12.922	0.100
94.000	-12.508	0.100
94.100	-11.204	0.100
94.200	-14.166	0.100
94.300	-8.521	0.100
94.400	-13.286	0.100
94.500	-14.081	0.100
94.600	-7.888	0.100
94.700	-6.107	0.100
94.800	-17.235	0.100
94.900	-10.239	0.100
95.000	-11.123	0.100
95.100	-12.167	0.100
95.200	-3.688	0.100
95.300	-7.353	0.100
95.400	-8.492	0.100
95.500	-15.877	0.100
95.600	-25.698	0.100
95.700	-5.599	0.100
95.800	-8.412	0.100
95.900	-14.814	0.100
96.000	-20.994	0.100
96.100	-10.542	0.100
96.200	-11.305	0.100
96.300	-15.921	0.100
96.400	-13.272	0.100
96.500	-19.524	0.100
96.600	-16.539	0.100
96.700	-18.835	0.100
96.800	-6.755	0.100
96.900	-14.445	0.100
97.000	-20.066	0.100
97.100	-6.577	0.100
97.200	-14.683	0.100
97.300	-11.065	0.100
97.400	-2.652	0.100
97.500	-18.179	0.100
97.600	-8.729	0.100
97.700	-12.049	0.100
97.800	-17.913	0.100
97.900	-16.858	0.100
98.000	-9.681	0.100
98.100	-11.388	0.100
98.200	-3.865	0.100
98.300	-13.998	0.100
98.400	-16.307	0.100
98.500	-17.765	0.100
98.600	-13.384	0.100
98.700	-7.896	0.100
98.800	-11.244	0.100
98.900	-12.082	0.100
99.000	-9.397	0.100
99.100	-6.295	0.100
99.200	1.853	0.100
99.300	-9.749	0.100
99.400	-16.705	0.100
99.500	-15.869	0.100
99.600	-7.962	0.100
99.700	-10.270	0.100
99.800	-23.669	0.100
99.900	-18.436	0.100
100.000	-7.588	0.100
100.100	-6.157	0.100
100.200	-0.688	0.100
100.300	-5.833	0.100
100.400	-6.907	0.100
100.500	-9.883	0.100
100.600	-11.077	0.100
100.700	-15.830	0.100
100.800	0.380	0.100
100.900	-7.257	0.100
101.000	-9.768	0.100
101.100	-14.496	0.100
101.200	-7.857	0.100
101.300	-17.239	0.100
101.400	-4.665	0.100
101.500	-4.671	0.100
101.600	-7.083	0.100
101.700	-11.045	0.100
101.800	-7.765	0.100
101.900	-16.043	0.100
102.000	-19.300	0.100
102.100	-6.443	0.100
102.200	-6.076	0.100
102.300	-16.384	0.100
102.400	-6.573	0.100
102.500	-4.248	0.100
102.600	-13.667	0.100
102.700	-15.083	0.100
102.800	-9.671	0.100
102.900	-11.214	0.100
103.000	-6.850	0.100
103.100	-3.107	0.100
103.200	1.293	0.100
103.300	-11.572	0.100
103.400	-7.154	0.100
103.500	-14.301	0.100
103.600	-5.005	0.100
103.700	-10.314	0.100
103.800	-4.325	0.100
103.900	-8.396	0.100
104.000	-5.377	0.100
104.100	-5.999	0.100
104.200	-5.085	0.100
104.300	-19.268	0.100
104.400	-9.124	0.100
104.500	-16.007	0.100
104.600	-3.049	0.100
104.700	-11.033	0.100
104.800	-13.896	0.100
104.900	-12.906	0.100
105.000	-9.358	0.100
105.100	-10.276	0.100
105.200	-9.594	0.100
105.300	-11.600	0.100
105.400	-14.819	0.100
105.500	-11.991	0.100
105.600	-9.898	0.100
105.700	-13.036	0.100
105.800	-15.123	0.100
105.900	-9.334	0.100
106.000	-11.880	0.100
106.100	-5.691	0.100
106.200	-20.586	0.100
106.300	-11.798	0.100
106.400	-6.758	0.100
106.500	-2.150	0.100
106.600	-18.936	0.100
106.700	-9.474	0.100
106.800	-12.588	0.100
106.900	-15.472	0.100
107.000	-19.042	0.100
107.100	-0.086	0.100
107.200	-0.507	0.100
107.300	-2.950	0.100
107.400	-22.760	0.100
107.500	-16.799	0.100
107.600	-15.885	0.100
107.700	-12.533	0.100
107.800	-17.959	0.100
107.900	-2.781	0.100
108.000	-9.642	0.100
108.100	-15.401	0.100
108.200	-9.772	0.100
108.300	-12.250	0.100
108.400	-15.566	0.100
108.500	-18.021	0.100
108.600	-14.058	0.100
108.700	-13.247	0.100
108.800	-13.114	0.100
108.900	-7.395	0.100
109.000	-15.030	0.100
109.100	-13.688	0.100
109.200	-14.556	0.100
109.300	-14.057	0.100
109.400	-10.675	0.100
109.500	-14.497	0.100
109.600	-9.906	0.100
109.700	-10.709	0.100
109.800	-17.449	0.100
109.900	-13.289	0.100
110.000	-13.657	0.100
110.100	-11.544	0.100
110.200	-13.541	0.100
110.300	-17.219	0.100
110.400	-25.286	0.100
110.500	-12.983	0.100
110.600	-12.925	0.100
110.700	-12.629	0.100
110.800	-18.047	0.100
110.900	-13.898	0.100
111.000	-13.348	0.100
111.100	-10.123	0.100
111.200	-19.235	0.100
111.300	-11.592	0.100
111.400	-21.641	0.100
111.500	-5.006	0.100
111.600	-11.531	0.100
111.700	-20.728	0.100
111.800	-20.343	0.100
111.900	-16.262	0.100
112.000	-16.184	0.100
112.100	-17.258	0.100
112.200	-12.674	0.100
112.300	-21.773	0.100
112.400	-22.167	0.100
112.500	-15.088	0.100
112.600	-13.334	0.100
112.700	-18.018	0.100
112.800	-25.709	0.100
112.900	-16.066	0.100
113.000	-15.550	0.100
113.100	-5.373	0.100
113.200	-17.158	0.100
113.300	-10.858	0.100
113.400	-18.980	0.100
113.500	-15.635	0.100
113.600	-15.344	0.100
113.700	-15.095	0.100
113.800	-23.104	0.100
113.900	-19.129	0.100
114.000	-9.558	0.100
114.100	-16.445	0.100
114.200	-19.319	0.100
114.300	-18.837	0.100
114.400	-10.005	0.100
114.500	-28.861	0.100
114.600	-21.304	0.100
114.700	-22.073	0.100
114.800	-20.325	0.100
114.900	-14.231	0.100
115.000	-13.225	0.100
115.100	-12.527	0.100
115.200	-16.930	0.100
115.300	-30.824	0.100
115.400	-28.178	0.100
115.500	-22.659	0.100
115.600	-14.570	0.100
115.700	-15.346	0.100
115.800	-12.832	0.100
115.900	-13.790	0.100
116.000	-7.205	0.100
116.100	-17.646	0.100
116.200	-18.723	0.100
116.300	-22.042	0.100
116.400	-22.254	0.100
116.500	-13.406	0.100
116.600	-22.825	0.100
116.700	-14.819	0.100
116.800	-21.783	0.100
116.900	-20.966	0.100
117.000	-22.351	0.100
117.100	-13.481	0.100
117.200	-16.481	0.100
117.300	-26.018	0.100
117.400	-23.478	0.100
117.500	-19.803	0.100
117.600	-21.534	0.100
117.700	-12.015	0.100
117.800	-19.503	0.100
117.900	-17.832	0.100
118.000	-22.036	0.100
118.100	-30.256	0.100
118.200	-17.026	0.100
118.300	-26.608	0.100
118.400	-17.527	0.100
118.500	-23.063	0.100
118.600	-25.674	0.100
118.700	-21.543	0.100
118.800	-23.150	0.100
118.900	-25.653	0.100
119.000	-17.752	0.100
119.100	-20.035	0.100
119.200	-24.187	0.100
119.300	-20.722	0.100
119.400	-23.151	0.100
119.500	-29.657	0.100
119.600	-21.263	0.100
119.700	-34.887	0.100
119.800	-26.356	0.100
119.900	-13.513	0.100
120.000	-10.508	0.100
120.100	-26.786	0.100
120.200	-20.386	0.100
120.300	-19.709	0.100
120.400	-18.947	0.100
120.500	-22.408	0.100
120.600	-29.421	0.100
120.700	-25.060	0.100
120.800	-29.744	0.100
120.900	-26.239	0.100
121.000	-21.389	0.100
121.100	-22.507	0.100
121.200	-21.071	0.100
121.300	-14.509	0.100
121.400	-13.019	0.100
121.500	-17.346	0.100
121.600	-20.752	0.100
121.700	-28.441	0.100
121.800	-16.447	0.100
121.900	-31.051	0.100
122.000	-19.101	0.100
122.100	-22.216	0.100
122.200	-25.982	0.100
122.300	-29.742	0.100
122.400	-22.284	0.100
122.500	-27.820	0.100
122.600	-20.988	0.100
122.700	-19.458	0.100
122.800	-15.421	0.100
122.900	-24.511	0.100
123.000	-28.512	0.100
123.100	-32.549	0.100
123.200	-23.428	0.100
123.300	-31.524	0.100
123.400	-24.044	0.100
123.500	-28.020	0.100
123.600	-26.567	0.100
123.700	-21.418	0.100
123.800	-27.975	0.100
123.900	-24.301	0.100
124.000	-24.645	0.100
124.100	-31.466	0.100
124.200	-21.507	0.100
124.300	-35.995	0.100
124.400	-25.046	0.100
124.500	-27.264	0.100
124.600	-22.506	0.100
124.700	-22.401	0.100
124.800	-23.231	0.100
124.900	-25.267	0.100
125.000	-18.332	0.100
125.100	-25.714	0.100
125.200	-25.519	0.100
125.300	-34.616	0.100
125.400	-26.426	0.100
125.500	-32.553	0.100
125.600	-26.122	0.100
125.700	-25.181	0.100
125.800	-39.579	0.100
125.900	-29.972	0.100
126.000	-21.858	0.100
126.100	-19.561	0.100
126.200	-25.248	0.100
126.300	-21.193	0.100
126.400	-23.527	0.100
126.500	-22.993	0.100
126.600	-25.545	0.100
126.700	-27.654	0.100
126.800	-26.106	0.100
126.900	-31.195	0.100
127.000	-31.764	0.100
127.100	-28.204	0.100
127.200	-24.551	0.100
127.300	-30.179	0.100
127.400	-33.305	0.100
127.500	-28.568	0.100
127.600	-22.322	0.100
127.700	-26.483	0.100
127.800	-34.440	0.100
127.900	-32.341	0.100
128.000	-25.352	0.100
128.100	-18.250	0.100
128.200	-26.428	0.100
128.300	-26.956	0.100
128.400	-23.373	0.100
128.500	-26.699	0.100
128.600	-37.070	0.100
128.700	-27.109	0.100
128.800	-27.416	0.100
128.900	-22.848	0.100
129.000	-23.244	0.100
129.100	-29.649	0.100
129.200	-22.470	0.100
129.300	-32.368	0.100
129.400	-34.097	0.100
129.500	-36.980	0.100
129.600	-26.894	0.100
129.700	-27.966	0.100
129.800	-33.710	0.100
129.900	-23.554	0.100
130.000	-30.456	0.100
130.100	-26.059	0.100
130.200	-26.720	0.100
130.300	-32.169	0.100
130.400	-23.611	0.100
130.500	-28.242	0.100
130.600	-23.813	0.100
130.700	-22.229	0.100
130.800	-37.501	0.100
130.900	-20.546	0.100
131.000	-31.757	0.100
131.100	-26.498	0.100
131.200	-35.339	0.100
131.300	-38.236	0.100
131.400	-24.368	0.100
131.500	-30.058	0.100
131.600	-22.415	0.100
131.700	-20.657	0.100
131.800	-28.868	0.100
131.900	-19.267	0.100
132.000	-32.107	0.100
132.100	-28.620	0.100
132.200	-32.949	0.100
132.300	-28.522	0.100
132.400	-28.790	0.100
132.500	-35.023	0.100
132.600	-32.545	0.100
132.700	-32.437	0.100
132.800	-35.709	0.100
132.900	-23.060	0.100
133.000	-29.120	0.100
133.100	-34.424	0.100
133.200	-29.079	0.100
133.300	-25.857	0.100
133.400	-26.555	0.100
133.500	-23.070	0.100
133.600	-30.495	0.100
133.700	-33.812	0.100
133.800	-33.907	0.100
133.900	-24.574	0.100
134.000	-25.793	0.100
134.100	-34.323	0.100
134.200	-17.576	0.100
134.300	-28.497	0.100
134.400	-32.944	0.100
134.500	-36.669	0.100
134.600	-26.180	0.100
134.700	-24.625	0.100
134.800	-27.671	0.100
134.900	-35.848	0.100
135.000	-30.289	0.100
135.100	-26.804	0.100
135.200	-24.368	0.100
135.300	-23.808	0.100
135.400	-29.158	0.100
135.500	-31.797	0.100
135.600	-23.977	0.100
135.700	-23.291	0.100
135.800	-35.498	0.100
135.900	-28.061	0.100
136.000	-24.836	0.100
136.100	-42.544	0.100
136.200	-32.090	0.100
136.300	-30.371	0.100
136.400	-33.551	0.100
136.500	-28.173	0.100
136.600	-29.744	0.100
136.700	-26.210	0.100
136.800	-28.161	0.100
136.900	-29.369	0.100
137.000	-31.359	0.100
137.100	-27.542	0.100
137.200	-36.285	0.100
137.300	-23.640	0.100
137.400	-25.510	0.100
137.500	-24.106	0.100
137.600	-25.588	0.100
137.700	-33.219	0.100
137.800	-38.528	0.100
137.900	-22.987	0.100
138.000	-29.264	0.100
138.100	-30.067	0.100
138.200	-21.645	0.100
138.300	-22.297	0.100
138.400	-33.052	0.100
138.500	-35.345	0.100
138.600	-30.834	0.100
138.700	-25.178	0.100
138.800	-32.377	0.100
138.900	-33.838	0.100
139.000	-24.453	0.100
139.100	-29.851	0.100
139.200	-28.539	0.100
139.300	-28.475	0.100
139.400	-36.213	0.100
139.500	-26.704	0.100
139.600	-32.511	0.100
139.700	-28.368	0.100
139.800	-34.164	0.100
139.900	-30.140	0.100
140.000	-25.921	0.100
140.100	-24.233	0.100
140.200	-34.568	0.100
140.300	-36.749	0.100
140.400	-30.768	0.100
140.500	-31.877	0.100
140.600	-34.252	0.100
140.700	-29.010	0.100
140.800	-22.925	0.100
140.900	-30.777	0.100
141.000	-34.800	0.100
141.100	-27.260	0.100
141.200	-29.149	0.100
141.300	-29.911	0.100
141.400	-34.960	0.100
141.500	-27.037	0.100
141.600	-25.062	0.100
141.700	-33.360	0.100
141.800	-40.501	0.100
141.900	-29.456	0.100
142.000	-31.964	0.100
142.100	-31.262	0.100
142.200	-22.600	0.100
142.300	-22.405	0.100
142.400	-26.597	0.100
142.500	-33.637	0.100
142.600	-35.028	0.100
142.700	-31.595	0.100
142.800	-29.058	0.100
142.900	-19.063	0.100
143.000	-28.029	0.100
143.100	-23.808	0.100
143.200	-28.877	0.100
143.300	-33.527	0.100
143.400	-35.105	0.100
143.500	-34.285	0.100
143.600	-24.035	0.100
143.700	-28.614	0.100
143.800	-31.228	0.100
143.900	-33.134	0.100
144.000	-32.718	0.100
144.100	-27.872	0.100
144.200	-30.557	0.100
144.300	-29.879	0.100
144.400	-27.953	0.100
144.500	-35.121	0.100
144.600	-20.734	0.100
144.700	-26.694	0.100
144.800	-28.602	0.100
144.900	-33.366	0.100
145.000	-26.862	0.100
145.100	-17.447	0.100
145.200	-28.971	0.100
145.300	-31.582	0.100
145.400	-28.017	0.100
145.500	-18.596	0.100
145.600	-24.889	0.100
145.700	-38.465	0.100
145.800	-27.573	0.100
145.900	-29.882	0.100
146.000	-31.331	0.100
146.100	-30.661	0.100
146.200	-26.383	0.100
146.300	-25.872	0.100
146.400	-28.689	0.100
146.500	-34.069	0.100
146.600	-24.698	0.100
146.700	-24.870	0.100
146.800	-23.377	0.100
146.900	-23.727	0.100
147.000	-28.737	0.100
147.100	-27.392	0.100
147.200	-35.200	0.100
147.300	-30.357	0.100
147.400	-27.907	0.100
147.500	-31.287	0.100
147.600	-37.728	0.100
147.700	-35.174	0.100
147.800	-27.137	0.100
147.900	-26.074	0.100
148.000	-34.994	0.100
148.100	-28.201	0.100
148.200	-32.380	0.100
148.300	-18.847	0.100
148.400	-29.852	0.100
148.500	-27.758	0.100
148.600	-20.292	0.100
148.700	-30.835	0.100
148.800	-30.316	0.100
148.900	-28.643	0.100
149.000	-22.949	0.100
149.100	-30.210	0.100
149.200	-32.131	0.100
149.300	-25.011	0.100
149.400	-26.707	0.100
149.500	-27.521	0.100
149.600	-28.896	0.100
149.700	-26.395	0.100
149.800	-23.754	0.100
149.900	-23.787	0.100
150.000	-36.165	0.100
150.100	-35.285	0.100
150.200	-34.845	0.100
150.300	-31.862	0.100
150.400	-26.221	0.100
150.500	-29.162	0.100
150.600	-19.767	0.100
150.700	-23.273	0.100
150.800	-30.740	0.100
150.900	-31.573	0.100
151.000	-36.750	0.100
151.100	-20.864	0.100
151.200	-31.357	0.100
151.300	-31.614	0.100
151.400	-20.144	0.100
151.500	-27.560	0.100
151.600	-30.256	0.100
151.700	-23.676	0.100
151.800	-24.678	0.100
151.900	-25.220	0.100
152.000	-29.576	0.100
152.100	-29.459	0.100
152.200	-25.245	0.100
152.300	-27.881	0.100
152.400	-31.778	0.100
152.500	-35.819	0.100
152.600	-28.004	0.100
152.700	-16.300	0.100
152.800	-27.980	0.100
152.900	-23.470	0.100
153.000	-20.840	0.100
153.100	-22.212	0.100
153.200	-27.617	0.100
153.300	-28.147	0.100
153.400	-29.644	0.100
153.500	-28.982	0.100
153.600	-27.957	0.100
153.700	-29.651	0.100
153.800	-21.064	0.100
153.900	-29.741	0.100
154.000	-26.090	0.100
154.100	-29.530	0.100
154.200	-28.549	0.100
154.300	-28.543	0.100
154.400	-19.529	0.100
154.500	-23.758	0.100
154.600	-24.981	0.100
154.700	-29.106	0.100
154.800	-30.711	0.100
154.900	-28.297	0.100
155.000	-26.104	0.100
155.100	-30.923	0.100
155.200	-18.168	0.100
155.300	-32.125	0.100
155.400	-37.938	0.100
155.500	-26.521	0.100
155.600	-27.748	0.100
155.700	-23.302	0.100
155.800	-28.455	0.100
155.900	-20.256	0.100
156.000	-23.745	0.100
156.100	-28.514	0.100
156.200	-30.500	0.100
156.300	-30.795	0.100
156.400	-29.508	0.100
156.500	-23.254	0.100
156.600	-31.481	0.100
156.700	-19.389	0.100
156.800	-30.078	0.100
156.900	-27.427	0.100
157.000	-23.314	0.100
157.100	-24.000	0.100
157.200	-23.952	0.100
157.300	-22.258	0.100
157.400	-26.183	0.100
157.500	-28.619	0.100
157.600	-17.477	0.100
157.700	-28.828	0.100
157.800	-29.811	0.100
157.900	-27.720	0.100
158.000	-23.362	0.100
158.100	-28.469	0.100
158.200	-20.794	0.100
158.300	-29.255	0.100
158.400	-23.959	0.100
158.500	-40.180	0.100
158.600	-23.360	0.100
158.700	-21.069	0.100
158.800	-30.530	0.100
158.900	-29.326	0.100
159.000	-29.976	0.100
159.100	-28.112	0.100
159.200	-30.910	0.100
159.300	-28.092	0.100
159.400	-16.739	0.100
159.500	-28.227	0.100
159.600	-25.093	0.100
159.700	-25.612	0.100
159.800	-24.386	0.100
159.900	-29.223	0.100
160.000	-28.768	0.100
160.100	-29.228	0.100
160.200	-26.071	0.100
160.300	-24.018	0.100
160.400	-23.205	0.100
160.500	-18.972	0.100
160.600	-25.544	0.100
160.700	-26.399	0.100
160.800	-20.076	0.100
160.900	-21.399	0.100
161.000	-27.501	0.100
161.100	-27.570	0.100
161.200	-24.781	0.100
161.300	-27.770	0.100
161.400	-14.902	0.100
161.500	-28.122	0.100
161.600	-27.531	0.100
161.700	-26.440	0.100
161.800	-26.327	0.100
161.900	-27.542	0.100
162.000	-37.090	0.100
162.100	-25.369	0.100
162.200	-21.579	0.100
162.300	-24.578	0.100
162.400	-23.379	0.100
162.500	-24.355	0.100
162.600	-20.820	0.100
162.700	-23.452	0.100
162.800	-24.722	0.100
162.900	-32.808	0.100
163.000	-31.321	0.100
163.100	-34.828	0.100
163.200	-27.891	0.100
163.300	-27.204	0.100
163.400	-35.674	0.100
163.500	-30.933	0.100
163.600	-32.876	0.100
163.700	-28.336	0.100
163.800	-28.820	0.100
163.900	-17.755	0.100
164.000	-23.308	0.100
164.100	-37.001	0.100
164.200	-35.796	0.100
164.300	-32.306	0.100
164.400	-26.039	0.100
164.500	-16.266	0.100
164.600	-18.886	0.100
164.700	-26.589	0.100
164.800	-27.527	0.100
164.900	-31.986	0.100
165.000	-25.698	0.100
165.100	-17.019	0.100
165.200	-29.760	0.100
165.300	-30.193	0.100
165.400	-34.430	0.100
165.500	-37.666	0.100
165.600	-26.727	0.100
165.700	-26.370	0.100
165.800	-18.894	0.100
165.900	-24.924	0.100
166.000	-20.550	0.100
166.100	-28.694	0.100
166.200	-25.811	0.100
166.300	-19.590	0.100
166.400	-26.325	0.100
166.500	-25.626	0.100
166.600	-24.460	0.100
166.700	-31.563	0.100
166.800	-17.616	0.100
166.900	-21.438	0.100
167.000	-21.943	0.100
167.100	-23.393	0.100
167.200	-22.345	0.100
167.300	-15.890	0.100
167.400	-31.245	0.100
167.500	-28.289	0.100
167.600	-25.630	0.100
167.700	-24.996	0.100
167.800	-19.550	0.100
167.900	-20.980	0.100
168.000	-25.396	0.100
168.100	-19.509	0.100
168.200	-21.118	0.100
168.300	-25.966	0.100
168.400	-29.267	0.100
168.500	-31.010	0.100
168.600	-30.110	0.100
168.700	-24.247	0.100
168.800	-24.992	0.100
168.900	-34.820	0.100
169.000	-25.458	0.100
169.100	-21.820	0.100
169.200	-28.414	0.100
169.300	-30.806	0.100
169.400	-16.821	0.100
169.500	-19.146	0.100
169.600	-25.635	0.100
169.700	-26.854	0.100
169.800	-23.695	0.100
169.900	-25.077	0.100
170.000	-17.992	0.100
170.100	-23.186	0.100
170.200	-16.730	0.100
170.300	-24.258	0.100
170.400	-30.503	0.100
170.500	-27.499	0.100
170.600	-22.495	0.100
170.700	-26.637	0.100
170.800	-23.656	0.100
170.900	-25.962	0.100
171.000	-27.798	0.100
171.100	-25.239	0.100
171.200	-28.255	0.100
171.300	-18.467	0.100
171.400	-22.418	0.100
171.500	-30.252	0.100
171.600	-26.450	0.100
171.700	-21.799	0.100
171.800	-16.909	0.100
171.900	-31.399	0.100
172.000	-16.704	0.100
172.100	-26.902	0.100
172.200	-23.899	0.100
172.300	-28.667	0.100
172.400	-34.666	0.100
172.500	-24.657	0.100
172.600	-24.710	0.100
172.700	-16.987	0.100
172.800	-14.129	0.100
172.900	-12.715	0.100
173.000	-20.489	0.100
173.100	-27.413	0.100
173.200	-41.113	0.100
173.300	-30.348	0.100
173.400	-20.649	0.100
173.500	-19.275	0.100
173.600	-22.309	0.100
173.700	-32.783	0.100
173.800	-23.821	0.100
173.900	-24.844	0.100
174.000	-24.596	0.100
174.100	-20.752	0.100
174.200	-16.696	0.100
174.300	-29.396	0.100
174.400	-19.414	0.100
174.500	-17.772	0.100
174.600	-23.081	0.100
174.700	-23.272	0.100
174.800	-26.336	0.100
174.900	-19.281	0.100
175.000	-13.860	0.100
175.100	-21.571	0.100
175.200	-33.299	0.100
175.300	-28.753	0.100
175.400	-15.758	0.100
175.500	-27.277	0.100
175.600	-24.874	0.100
175.700	-21.342	0.100
175.800	-10.859	0.100
175.900	-22.980	0.100
176.000	-21.829	0.100
176.100	-29.656	0.100
176.200	-17.725	0.100
176.300	-22.046	0.100
176.400	-25.968	0.100
176.500	-21.060	0.100
176.600	-23.214	0.100
176.700	-24.359	0.100
176.800	-23.309	0.100
176.900	-27.105	0.100
177.000	-26.288	0.100
177.100	-17.455	0.100
177.200	-21.413	0.100
177.300	-27.589	0.100
177.400	-27.085	0.100
177.500	-20.903	0.100
177.600	-23.584	0.100
177.700	-27.176	0.100
177.800	-26.319	0.100
177.900	-19.305	0.100
178.000	-30.342	0.100
178.100	-17.765	0.100
178.200	-12.771	0.100
178.300	-18.974	0.100
178.400	-24.651	0.100
178.500	-22.221	0.100
178.600	-22.544	0.100
178.700	-18.683	0.100
178.800	-26.715	0.100
178.900	-14.996	0.100
179.000	-19.958	0.100
179.100	-15.469	0.100
179.200	-21.683	0.100
179.300	-22.884	0.100
179.400	-20.900	0.100
179.500	-15.948	0.100
179.600	-28.144	0.100
179.700	-19.230	0.100
179.800	-16.220	0.100
179.900	-22.936	0.100
180.000	-29.426	0.100
180.100	-25.193	0.100
180.200	-23.120	0.100
180.300	-14.681	0.100
180.400	-21.937	0.100
180.500	-24.498	0.100
180.600	-22.298	0.100
180.700	-12.803	0.100
180.800	-10.987	0.100
180.900	-10.315	0.100
181.000	-2.481	0.100
181.100	-0.407	0.100
181.200	1.056	0.100
181.300	7.265	0.100
181.400	11.351	0.100
181.500	8.591	0.100
181.600	12.319	0.100
181.700	22.193	0.100
181.800	14.258	0.100
181.900	15.538	0.100
182.000	20.327	0.100
182.100	22.106	0.100
182.200	18.709	0.100
182.300	21.116	0.100
182.400	18.904	0.100
182.500	25.893	0.100
182.600	21.339	0.100
182.700	16.808	0.100
182.800	28.041	0.100
182.900	37.313	0.100
183.000	21.879	0.100
183.100	34.698	0.100
183.200	34.109	0.100
183.300	30.562	0.100
183.400	21.131	0.100
183.500	24.638	0.100
183.600	21.658	0.100
183.700	24.752	0.100
183.800	32.293	0.100
183.900	31.315	0.100
184.000	17.115	0.100
184.100	24.046	0.100
184.200	31.323	0.100
184.300	27.225	0.100
184.400	28.266	0.100
184.500	34.682	0.100
184.600	38.394	0.100
184.700	30.912	0.100
184.800	25.372	0.100
184.900	27.944	0.100
185.000	34.739	0.100
185.100	30.194	0.100
185.200	19.201	0.100
185.300	34.509	0.100
185.400	24.552	0.100
185.500	25.960	0.100
185.600	25.419	0.100
185.700	25.094	0.100
185.800	18.364	0.100
185.900	17.713	0.100
186.000	29.273	0.100
186.100	16.905	0.100
186.200	23.380	0.100
186.300	25.995	0.100
186.400	26.597	0.100
186.500	26.436	0.100
186.600	23.402	0.100
186.700	17.934	0.100
186.800	7.438	0.100
186.900	33.097	0.100
187.000	27.034	0.100
187.100	25.341	0.100
187.200	13.352	0.100
187.300	31.880	0.100
187.400	19.857	0.100
187.500	28.936	0.100
187.600	21.531	0.100
187.700	26.105	0.100
187.800	26.578	0.100
187.900	32.495	0.100
188.000	29.494	0.100
188.100	28.093	0.100
188.200	12.560	0.100
188.300	26.962	0.100
188.400	29.927	0.100
188.500	23.766	0.100
188.600	28.942	0.100
188.700	19.754	0.100
188.800	25.737	0.100
188.900	31.926	0.100
189.000	32.680	0.100
189.100	24.990	0.100
189.200	27.859	0.100
189.300	24.998	0.100
189.400	25.055	0.100
189.500	30.677	0.100
189.600	32.716	0.100
189.700	36.393	0.100
189.800	32.188	0.100
189.900	31.058	0.100
190.000	25.116	0.100
190.100	28.193	0.100
190.200	24.523	0.100
190.300	34.592	0.100
190.400	35.764	0.100
190.500	29.786	0.100
190.600	32.190	0.100
190.700	37.554	0.100
190.800	32.514	0.100
190.900	32.684	0.100
191.000	39.917	0.100
191.100	32.180	0.100
191.200	33.163	0.100
191.300	39.261	0.100
191.400	38.836	0.100
191.500	43.257	0.100
191.600	31.426	0.100
191.700	30.876	0.100
191.800	35.429	0.100
191.900	43.054	0.100
192.000	34.174	0.100
192.100	38.985	0.100
192.200	32.580	0.100
192.300	43.759	0.100
192.400	39.740	0.100
192.500	38.291	0.100
192.600	41.541	0.100
192.700	36.963	0.100
192.800	39.441	0.100
192.900	45.131	0.100
193.000	37.575	0.100
193.100	39.011	0.100
193.200	48.729	0.100
193.300	41.278	0.100
193.400	46.938	0.100
193.500	41.196	0.100
193.600	48.387	0.100
193.700	40.359	0.100
193.800	38.096	0.100
193.900	45.746	0.100
194.000	50.706	0.100
194.100	52.335	0.100
194.200	46.577	0.100
194.300	48.097	0.100
194.400	40.825	0.100
194.500	40.035	0.100
194.600	46.302	0.100
194.700	53.794	0.100
194.800	52.969	0.100
194.900	44.289	0.100
195.000	48.691	0.100
195.100	51.697	0.100
195.200	43.613	0.100
195.300	45.957	0.100
195.400	48.394	0.100
195.500	54.628	0.100
195.600	47.858	0.100
195.700	55.543	0.100
195.800	53.176	0.100
195.900	45.676	0.100
196.000	43.158	0.100
196.100	58.771	0.100
196.200	63.253	0.100
196.300	52.716	0.100
196.400	50.200	0.100
196.500	56.172	0.100
196.600	52.557	0.100
196.700	54.805	0.100
196.800	60.860	0.100
196.900	60.558	0.100
197.000	56.275	0.100
197.100	54.206	0.100
197.200	64.193	0.100
197.300	48.184	0.100
197.400	55.439	0.100
197.500	62.654	0.100
197.600	62.436	0.100
197.700	57.850	0.100
197.800	64.074	0.100
197.900	57.415	0.100
198.000	60.131	0.100
198.100	62.224	0.100
198.200	57.238	0.100
198.300	58.245	0.100
198.400	58.956	0.100
198.500	64.588	0.100
198.600	56.204	0.100
198.700	57.025	0.100
198.800	70.854	0.100
198.900	64.002	0.100
199.000	77.394	0.100
199.100	58.014	0.100
199.200	59.495	0.100
199.300	64.069	0.100
199.400	58.572	0.100
199.500	70.996	0.100
199.600	73.311	0.100
199.700	70.753	0.100
199.800	70.012	0.100
199.900	67.880	0.100
200.000	59.045	0.100
200.100	60.083	0.100
200.200	67.131	0.100
200.300	68.409	0.100
200.400	69.265	0.100
200.500	67.715	0.100
200.600	56.586	0.100
200.700	60.642	0.100
200.800	71.478	0.100
200.900	68.869	0.100
201.000	62.095	0.100
201.100	67.830	0.100
201.200	65.178	0.100
201.300	58.852	0.100
201.400	75.313	0.100
201.500	64.422	0.100
201.600	72.860	0.100
201.700	60.082	0.100
201.800	66.619	0.100
201.900	72.326	0.100
202.000	77.584	0.100
202.100	68.205	0.100
202.200	72.788	0.100
202.300	61.516	0.100
202.400	80.974	0.100
202.500	69.328	0.100
202.600	70.622	0.100
202.700	68.164	0.100
202.800	69.560	0.100
202.900	65.506	0.100
203.000	68.402	0.100
203.100	65.025	0.100
203.200	66.092	0.100
203.300	72.046	0.100
203.400	70.793	0.100
203.500	74.900	0.100
203.600	71.987	0.100
203.700	78.227	0.100
203.800	81.842	0.100
203.900	67.583	0.100
204.000	70.374	0.100
204.100	67.415	0.100
204.200	63.112	0.100
204.300	74.626	0.100
204.400	62.987	0.100
204.500	74.273	0.100
204.600	70.426	0.100
204.700	68.003	0.100
204.800	68.375	0.100
204.900	71.147	0.100
205.000	63.952	0.100
205.100	72.571	0.100
205.200	70.139	0.100
205.300	80.951	0.100
205.400	82.798	0.100
205.500	68.488	0.100
205.600	60.494	0.100
205.700	70.466	0.100
205.800	62.688	0.100
205.900	72.425	0.100
206.000	68.320	0.100
206.100	77.628	0.100
206.200	62.097	0.100
206.300	69.865	0.100
206.400	76.272	0.100
206.500	66.792	0.100
206.600	67.950	0.100
206.700	66.148	0.100
206.800	72.595	0.100
206.900	60.567	0.100
207.000	70.178	0.100
207.100	71.212	0.100
207.200	74.571	0.100
207.300	76.015	0.100
207.400	70.247	0.100
207.500	70.884	0.100
207.600	71.403	0.100
207.700	73.001	0.100
207.800	66.289	0.100
207.900	69.299	0.100
208.000	71.707	0.100
208.100	72.177	0.100
208.200	72.892	0.100
208.300	60.382	0.100
208.400	61.773	0.100
208.500	65.060	0.100
208.600	69.107	0.100
208.700	71.780	0.100
208.800	64.532	0.100
208.900	70.591	0.100
209.000	77.736	0.100
209.100	73.168	0.100
209.200	71.734	0.100
209.300	63.646	0.100
209.400	67.927	0.100
209.500	74.420	0.100
209.600	65.840	0.100
209.700	69.442	0.100
209.800	63.703	0.100
209.900	67.625	0.100
210.000	75.688	0.100
210.100	74.160	0.100
210.200	72.017	0.100
210.300	72.978	0.100
210.400	69.225	0.100
210.500	66.735	0.100
210.600	66.802	0.100
210.700	69.830	0.100
210.800	64.999	0.100
210.900	61.543	0.100
211.000	63.993	0.100
211.100	64.669	0.100
211.200	67.028	0.100
211.300	69.915	0.100
211.400	69.223	0.100
211.500	72.023	0.100
211.600	71.130	0.100
211.700	66.369	0.100
211.800	56.105	0.100
211.900	61.327	0.100
212.000	69.608	0.100
212.100	65.755	0.100
212.200	67.178	0.100
212.300	70.464	0.100
212.400	67.533	0.100
212.500	56.687	0.100
212.600	64.507	0.100
212.700	69.710	0.100
212.800	64.621	0.100
212.900	59.131	0.100
213.000	63.944	0.100
213.100	59.862	0.100
213.200	64.748	0.100
213.300	74.508	0.100
213.400	65.371	0.100
213.500	63.399	0.100
213.600	60.160	0.100
213.700	58.430	0.100
213.800	62.261	0.100
213.900	68.909	0.100
214.000	74.334	0.100
214.100	64.895	0.100
214.200	73.434	0.100
214.300	70.227	0.100
214.400	71.862	0.100
214.500	67.451	0.100
214.600	60.518	0.100
214.700	69.714	0.100
214.800	58.126	0.100
214.900	67.378	0.100
215.000	58.647	0.100
215.100	56.921	0.100
215.200	54.078	0.100
215.300	65.998	0.100
215.400	63.868	0.100
215.500	67.093	0.100
215.600	68.035	0.100
215.700	67.184	0.100
215.800	75.934	0.100
215.900	70.287	0.100
216.000	66.093	0.100
216.100	71.477	0.100
216.200	72.994	0.100
216.300	54.559	0.100
216.400	64.669	0.100
216.500	64.569	0.100
216.600	62.064	0.100
216.700	61.285	0.100
216.800	56.332	0.100
216.900	60.917	0.100
217.000	54.719	0.100
217.100	67.743	0.100
217.200	61.208	0.100
217.300	68.490	0.100
217.400	63.082	0.100
217.500	59.748	0.100
217.600	69.171	0.100
217.700	72.946	0.100
217.800	75.679	0.100
217.900	64.764	0.100
218.000	57.908	0.100
218.100	58.284	0.100
218.200	61.040	0.100
218.300	60.961	0.100
218.400	71.180	0.100
218.500	60.523	0.100
218.600	68.924	0.100
218.700	62.278	0.100
218.800	64.338	0.100
218.900	61.020	0.100
219.000	57.330	0.100
219.100	68.033	0.100
219.200	63.294	0.100
219.300	64.740	0.100
219.400	63.343	0.100
219.500	67.049	0.100
219.600	64.944	0.100
219.700	60.475	0.100
219.800	64.276	0.100
219.900	60.127	0.100
220.000	60.554	0.100
220.100	65.308	0.100
220.200	59.757	0.100
220.300	58.083	0.100
220.400	65.771	0.100
220.500	65.727	0.100
220.600	66.994	0.100
220.700	54.468	0.100
220.800	60.622	0.100
220.900	68.100	0.100
221.000	60.784	0.100
221.100	65.277	0.100
221.200	65.446	0.100
221.300	70.097	0.100
221.400	67.948	0.100
221.500	56.909	0.100
221.600	67.998	0.100
221.700	63.474	0.100
221.800	59.802	0.100
221.900	65.445	0.100
222.000	61.314	0.100
222.100	70.021	0.100
222.200	58.497	0.100
222.300	54.116	0.100
222.400	67.681	0.100
222.500	70.097	0.100
222.600	67.255	0.100
222.700	52.196	0.100
222.800	56.701	0.100
222.900	60.740	0.100
223.000	62.739	0.100
223.100	63.804	0.100
223.200	59.548	0.100
223.300	59.046	0.100
223.400	64.950	0.100
223.500	68.812	0.100
223.600	64.838	0.100
223.700	66.612	0.100
223.800	72.832	0.100
223.900	67.197	0.100
224.000	57.125	0.100
224.100	64.008	0.100
224.200	63.033	0.100
224.300	57.166	0.100
224.400	60.321	0.100
224.500	74.112	0.100
224.600	58.177	0.100
224.700	57.197	0.100
224.800	66.729	0.100
224.900	52.378	0.100
225.000	61.263	0.100
225.100	62.581	0.100
225.200	64.749	0.100
225.300	65.750	0.100
225.400	53.684	0.100
225.500	62.328	0.100
225.600	59.628	0.100
225.700	61.136	0.100
225.800	67.946	0.100
225.900	69.958	0.100
226.000	71.406	0.100
226.100	56.931	0.100
226.200	55.123	0.100
226.300	60.446	0.100
226.400	63.797	0.100
226.500	64.015	0.100
226.600	62.551	0.100
226.700	56.676	0.100
226.800	51.145	0.100
226.900	65.681	0.100
227.000	68.854	0.100
227.100	59.385	0.100
227.200	53.014	0.100
227.300	57.119	0.100
227.400	70.882	0.100
227.500	67.982	0.100
227.600	60.636	0.100
227.700	70.253	0.101
227.800	54.319	0.100
227.900	55.541	0.100
228.000	59.531	0.100
228.100	64.483	0.100
228.200	67.807	0.100
228.300	64.495	0.100
228.400	55.179	0.100
228.500	63.968	0.100
228.600	70.623	0.100
228.700	63.907	0.101
228.800	60.824	0.101
228.900	61.533	0.101
229.000	60.921	0.101
229.100	55.431	0.100
229.200	56.185	0.100
229.300	68.144	0.100
229.400	64.603	0.101
229.500	59.649	0.100
229.600	66.609	0.101
229.700	70.484	0.100
229.800	60.062	0.101
229.900	58.593	0.100
230.000	61.264	0.100
230.100	61.572	0.100
230.200	59.641	0.101
230.300	62.431	0.100
230.400	66.137	0.100
230.500	66.845	0.100
230.600	54.446	0.101
230.700	60.197	0.100
230.800	63.600	0.101
230.900	57.649	0.101
231.000	60.704	0.100
231.100	59.024	0.100
231.200	62.838	0.101
231.300	58.373	0.100
231.400	56.965	0.100
231.500	64.422	0.101
231.600	63.783	0.101
231.700	61.089	0.101
231.800	51.447	0.100
231.900	65.724	0.101
232.000	62.037	0.101
232.100	60.322	0.101
232.200	69.819	0.101
232.300	66.647	0.101
232.400	63.393	0.100
232.500	59.765	0.100
232.600	53.669	0.101
232.700	53.202	0.100
232.800	60.629	0.101
232.900	56.510	0.101
233.000	58.847	0.100
233.100	59.973	0.100
233.200	65.984	0.100
233.300	60.795	0.100
233.400	64.720	0.101
233.500	66.630	0.101
233.600	67.500	0.100
233.700	60.628	0.100
233.800	61.337	0.101
233.900	61.364	0.100
234.000	54.970	0.100
234.100	60.609	0.101
234.200	63.835	0.101
234.300	56.906	0.101
234.400	61.099	0.101
234.500	63.580	0.101
234.600	70.765	0.101
234.700	60.844	0.101
234.800	64.199	0.101
234.900	50.612	0.101
235.000	56.184	0.101
235.100	59.869	0.101
235.200	64.383	0.101
235.300	58.482	0.101
235.400	57.225	0.101
235.500	51.347	0.101
235.600	61.478	0.101
235.700	58.321	0.101
235.800	57.951	0.101
235.900	67.874	0.101
236.000	66.578	0.101
236.100	58.979	0.101
236.200	59.837	0.101
236.300	53.932	0.101
236.400	70.517	0.101
236.500	55.549	0.101
236.600	58.737	0.101
236.700	55.386	0.101
236.800	51.552	0.101
236.900	56.003	0.101
237.000	56.607	0.101
237.100	66.008	0.101
237.200	64.670	0.101
237.300	55.708	0.101
237.400	63.429	0.101
237.500	60.015	0.101
237.600	75.428	0.101
237.700	63.375	0.101
237.800	47.759	0.101
237.900	60.511	0.101
238.000	47.521	0.101
238.100	61.747	0.101
238.200	61.206	0.101
238.300	62.378	0.101
238.400	64.734	0.101
238.500	59.434	0.101
238.600	58.516	0.101
238.700	65.700	0.101
238.800	62.194	0.101
238.900	64.030	0.101
239.000	60.060	0.101
239.100	48.287	0.101
239.200	56.337	0.101
239.300	64.382	0.101
239.400	60.965	0.101
239.500	52.790	0.101
239.600	62.207	0.101
239.700	62.195	0.101
239.800	53.898	0.101
239.900	57.907	0.101
240.000	56.191	0.101
240.100	63.910	0.101
240.200	62.007	0.101
240.300	65.055	0.101
240.400	65.880	0.101
240.500	56.035	0.101
240.600	50.979	0.101
240.700	52.907	0.101
240.800	48.963	0.101
240.900	50.784	0.101
241.000	45.937	0.101
241.100	33.108	0.101
241.200	29.351	0.101
241.300	34.187	0.101
241.400	31.620	0.101
241.500	33.987	0.101
241.600	21.947	0.101
241.700	13.570	0.101
241.800	21.551	0.101
241.900	12.310	0.101
242.000	13.541	0.101
242.100	8.792	0.101
242.200	7.679	0.101
242.300	6.207	0.101
242.400	1.590	0.101
242.500	3.174	0.101
242.600	-2.903	0.101
242.700	-0.329	0.101
242.800	0.202	0.101
242.900	-5.883	0.101
243.000	-7.660	0.101
243.100	-8.683	0.101
243.200	6.102	0.101
243.300	-2.272	0.101
243.400	-8.458	0.101
243.500	-6.216	0.101
243.600	-5.733	0.101
243.700	-15.609	0.101
243.800	-4.551	0.101
243.900	-4.891	0.101
244.000	-14.191	0.101
244.100	-2.455	0.101
244.200	-11.831	0.101
244.300	-9.906	0.101
244.400	-13.759	0.101
244.500	-12.034	0.101
244.600	-11.582	0.101
244.700	-6.120	0.101
244.800	-14.858	0.101
244.900	-13.471	0.101
245.000	-12.265	0.101
245.100	-9.423	0.101
245.200	-25.570	0.101
245.300	-24.343	0.101
245.400	-10.512	0.101
245.500	-21.133	0.101
245.600	-6.905	0.101
245.700	-6.363	0.101
245.800	-14.862	0.101
245.900	-18.768	0.101
246.000	-12.466	0.101
246.100	-24.111	0.101
246.200	-10.252	0.101
246.300	-17.603	0.101
246.400	-23.708	0.101
246.500	-2.447	0.101
246.600	-18.023	0.101
246.700	-23.601	0.101
246.800	-17.225	0.101
246.900	-13.494	0.101
247.000	-12.819	0.101
247.100	-7.723	0.101
247.200	-11.988	0.101
247.300	-20.921	0.101
247.400	-11.960	0.101
247.500	-14.212	0.101
247.600	-11.988	0.101
247.700	-18.234	0.101
247.800	-17.608	0.101
247.900	-14.305	0.101
248.000	-5.728	0.101
248.100	-15.660	0.101
248.200	-13.053	0.101
248.300	-11.785	0.101
248.400	-20.610	0.101
248.500	-19.294	0.101
248.600	-20.543	0.101
248.700	-17.911	0.101
248.800	-16.910	0.101
248.900	-9.251	0.101
249.000	-12.759	0.101
249.100	-11.226	0.101
249.200	-13.635	0.101
249.300	-9.790	0.101
249.400	-12.146	0.101
249.500	-17.606	0.101
249.600	-13.117	0.101
249.700	-14.221	0.101
249.800	-7.337	0.101
249.900	-16.267	0.101
250.000	-20.004	0.101
250.100	-13.330	0.101
250.200	-14.257	0.101
250.300	-11.753	0.101
250.400	-15.884	0.101
250.500	-7.118	0.101
250.600	-19.482	0.101
250.700	-8.331	0.101
250.800	-13.903	0.101
250.900	-8.507	0.101
251.000	-6.474	0.101
251.100	-10.271	0.101
251.200	-16.475	0.101
251.300	-11.432	0.101
251.400	-11.939	0.101
251.500	-26.212	0.101
251.600	-14.023	0.101
251.700	-22.981	0.101
251.800	-10.241	0.101
251.900	-14.990	0.101
252.000	0.374	0.101
252.100	-14.120	0.101
252.200	-20.039	0.101
252.300	-18.184	0.101
252.400	-9.797	0.101
252.500	-16.963	0.101
252.600	-16.761	0.101
252.700	-10.526	0.101
252.800	-21.361	0.101
252.900	-14.176	0.101
253.000	-15.705	0.101
253.100	-18.717	0.101
253.200	-20.703	0.101
253.300	-6.278	0.101
253.400	-8.508	0.101
253.500	-21.847	0.101
253.600	-23.939	0.101
253.700	-19.679	0.101
253.800	-13.049	0.101
253.900	-15.727	0.101
254.000	-20.015	0.101
254.100	-12.833	0.101
254.200	-10.044	0.101
254.300	-17.155	0.101
254.400	-24.590	0.101
254.500	-22.172	0.101
254.600	-18.671	0.101
254.700	-16.334	0.101
254.800	-8.630	0.101
254.900	-15.838	0.101
255.000	-11.325	0.101
255.100	-7.061	0.101
255.200	-17.658	0.101
255.300	-20.362	0.101
255.400	-18.580	0.101
255.500	-27.082	0.101
255.600	-17.970	0.101
255.700	-10.712	0.101
255.800	-11.364	0.101
255.900	-10.576	0.101
256.000	-14.422	0.101
256.100	-21.936	0.101
256.200	-20.703	0.101
256.300	-14.732	0.101
256.400	-14.999	0.101
256.500	-21.543	0.101
256.600	-24.869	0.101
256.700	-26.288	0.101
256.800	-16.252	0.101
256.900	-15.399	0.101
257.000	-16.691	0.101
257.100	-19.074	0.101
257.200	-24.167	0.101
257.300	-18.007	0.101
257.400	-20.855	0.101
257.500	-10.949	0.101
257.600	0.847	0.101
257.700	-9.114	0.101
257.800	-14.831	0.101
257.900	-30.320	0.101
258.000	-23.216	0.101
258.100	-24.796	0.101
258.200	-27.388	0.101
258.300	-24.189	0.101
258.400	-15.083	0.101
258.500	-18.064	0.101
258.600	-14.634	0.101
258.700	-18.735	0.101
258.800	-22.728	0.101
258.900	-21.943	0.101
259.000	-20.252	0.101
259.100	-26.386	0.101
259.200	-15.495	0.101
259.300	-15.852	0.101
259.400	-33.462	0.101
259.500	-16.782	0.101
259.600	-18.615	0.101
259.700	-18.675	0.101
259.800	-26.119	0.101
259.900	-23.085	0.101
260.000	-17.489	0.101
260.100	-22.681	0.101
260.200	-20.309	0.101
260.300	-19.614	0.101
260.400	-22.827	0.101
260.500	-16.285	0.101
260.600	-18.045	0.101
260.700	-20.199	0.101
260.800	-14.335	0.101
260.900	-20.077	0.101
261.000	-23.498	0.101
261.100	-10.813	0.101
261.200	-9.774	0.101
261.300	-30.112	0.101
261.400	-28.728	0.101
261.500	-27.218	0.101
261.600	-14.363	0.101
261.700	-25.643	0.101
261.800	-28.814	0.101
261.900	-21.352	0.101
262.000	-14.582	0.101
262.100	-20.326	0.101
262.200	-20.121	0.101
262.300	-24.184	0.101
262.400	-22.561	0.101
262.500	-30.586	0.101
262.600	-20.185	0.101
262.700	-16.396	0.101
262.800	-21.417	0.101
262.900	-21.172	0.101
263.000	-15.832	0.101
263.100	-17.417	0.101
263.200	-24.587	0.101
263.300	-33.445	0.101
263.400	-31.306	0.101
263.500	-26.880	0.101
263.600	-27.651	0.101
263.700	-30.543	0.101
263.800	-29.742	0.101
263.900	-21.958	0.101
264.000	-25.965	0.101
264.100	-25.743	0.101
264.200	-23.957	0.101
264.300	-31.137	0.101
264.400	-24.450	0.101
264.500	-24.556	0.101
264.600	-19.619	0.101
264.700	-23.162	0.101
264.800	-25.525	0.101
264.900	-28.817	0.101
265.000	-15.828	0.101
265.100	-20.801	0.101
265.200	-31.449	0.101
265.300	-26.190	0.101
265.400	-33.105	0.101
265.500	-23.319	0.101
265.600	-19.806	0.101
265.700	-20.592	0.101
265.800	-30.364	0.101
265.900	-24.321	0.101
266.000	-26.755	0.101
266.100	-25.717	0.101
266.200	-17.411	0.101
266.300	-30.759	0.101
266.400	-37.927	0.101
266.500	-31.168	0.101
266.600	-23.632	0.101
266.700	-17.860	0.101
266.800	-29.102	0.101
266.900	-15.297	0.101
267.000	-20.089	0.101
267.100	-28.979	0.101
267.200	-26.006	0.101
267.300	-25.337	0.101
267.400	-18.205	0.101
267.500	-29.302	0.101
267.600	-27.119	0.101
267.700	-22.416	0.101
267.800	-33.625	0.101
267.900	-36.617	0.101
268.000	-21.476	0.101
268.100	-26.025	0.101
268.200	-19.819	0.101
268.300	-31.360	0.101
268.400	-25.906	0.101
268.500	-22.549	0.101
268.600	-32.445	0.101
268.700	-27.494	0.101
268.800	-26.837	0.101
268.900	-28.729	0.101
269.000	-35.824	0.101
269.100	-30.147	0.101
269.200	-29.180	0.101
269.300	-22.883	0.101
269.400	-29.160	0.101
269.500	-30.783	0.101
269.600	-26.696	0.101
269.700	-36.390	0.101
269.800	-18.240	0.101
269.900	-24.250	0.101
270.000	-27.599	0.101
270.100	-36.736	0.101
270.200	-27.091	0.101
270.300	-25.954	0.101
270.400	-31.195	0.101
270.500	-31.932	0.101
270.600	-34.030	0.101
270.700	-34.829	0.101
270.800	-34.645	0.101
270.900	-28.499	0.101
271.000	-40.154	0.101
271.100	-34.487	0.101
271.200	-24.698	0.101
271.300	-28.753	0.101
271.400	-31.202	0.101
271.500	-25.231	0.101
271.600	-23.375	0.101
271.700	-33.208	0.101
271.800	-39.164	0.101
271.900	-34.301	0.101
272.000	-22.942	0.101
272.100	-28.003	0.101
272.200	-31.994	0.101
272.300	-26.991	0.101
272.400	-34.637	0.101
272.500	-31.495	0.101
272.600	-28.904	0.101
272.700	-29.680	0.101
272.800	-26.216	0.101
272.900	-35.853	0.101
273.000	-40.880	0.101
273.100	-27.519	0.101
273.200	-32.724	0.101
273.300	-42.369	0.101
273.400	-38.989	0.101
273.500	-28.492	0.101
273.600	-23.753	0.101
273.700	-30.078	0.101
273.800	-30.445	0.101
273.900	-32.292	0.101
274.000	-35.443	0.101
274.100	-36.783	0.101
274.200	-31.883	0.101
274.300	-26.604	0.101
274.400	-34.156	0.101
274.500	-23.621	0.101
274.600	-35.112	0.101
274.700	-41.722	0.101
274.800	-32.432	0.101
274.900	-24.825	0.101
275.000	-38.654	0.101
275.100	-27.616	0.101
275.200	-35.845	0.101
275.300	-36.719	0.101
275.400	-43.993	0.101
275.500	-37.520	0.101
275.600	-30.020	0.101
275.700	-32.456	0.101
275.800	-27.353	0.101
275.900	-46.896	0.101
276.000	-29.782	0.101
276.100	-35.157	0.101
276.200	-34.618	0.101
276.300	-38.418	0.101
276.400	-35.229	0.101
276.500	-36.639	0.101
276.600	-33.733	0.101
276.700	-37.962	0.101
276.800	-27.286	0.101
276.900	-38.896	0.101
277.000	-27.083	0.101
277.100	-31.027	0.101
277.200	-30.790	0.101
277.300	-29.529	0.101
277.400	-39.726	0.101
277.500	-35.286	0.101
277.600	-37.098	0.101
277.700	-30.808	0.101
277.800	-29.368	0.101
277.900	-29.993	0.101
278.000	-36.272	0.101
278.100	-29.351	0.101
278.200	-46.780	0.101
278.300	-31.228	0.101
278.400	-31.969	0.101
278.500	-23.431	0.101
278.600	-37.973	0.101
278.700	-34.262	0.101
278.800	-40.571	0.101
278.900	-38.567	0.101
279.000	-44.324	0.101
279.100	-38.669	0.101
279.200	-26.211	0.101
279.300	-33.328	0.101
279.400	-25.115	0.101
279.500	-32.432	0.101
279.600	-34.460	0.101
279.700	-31.104	0.101
279.800	-35.933	0.101
279.900	-32.660	0.101
280.000	-38.400	0.101
280.100	-46.724	0.101
280.200	-44.270	0.101
280.300	-31.437	0.101
280.400	-42.714	0.101
280.500	-36.682	0.101
280.600	-33.370	0.101
280.700	-35.357	0.101
280.800	-34.356	0.101
280.900	-32.893	0.101
281.000	-35.753	0.101
281.100	-52.771	0.101
281.200	-37.523	0.101
281.300	-35.830	0.101
281.400	-33.686	0.101
281.500	-30.994	0.101
281.600	-30.135	0.101
281.700	-37.096	0.101
281.800	-35.565	0.101
281.900	-40.432	0.101
282.000	-35.424	0.101
282.100	-25.035	0.101
282.200	-37.010	0.101
282.300	-41.549	0.101
282.400	-39.474	0.101
282.500	-38.776	0.101
282.600	-34.995	0.101
282.700	-25.463	0.101
282.800	-34.486	0.101
282.900	-30.717	0.101
283.000	-44.398	0.101
283.100	-37.067	0.101
283.200	-34.714	0.101
283.300	-33.012	0.101
283.400	-30.821	0.101
283.500	-20.337	0.101
283.600	-34.914	0.101
283.700	-39.469	0.101
283.800	-44.480	0.101
283.900	-35.486	0.101
284.000	-36.917	0.101
284.100	-34.534	0.101
284.200	-25.709	0.101
284.300	-34.033	0.101
284.400	-35.412	0.101
284.500	-31.935	0.101
284.600	-35.657	0.101
284.700	-34.898	0.101
284.800	-31.589	0.101
284.900	-35.957	0.101
285.000	-44.128	0.101
285.100	-36.705	0.101
285.200	-30.348	0.101
285.300	-30.344	0.101
285.400	-42.723	0.101
285.500	-34.986	0.101
285.600	-28.664	0.101
285.700	-37.456	0.101
285.800	-36.615	0.101
285.900	-48.375	0.101
286.000	-34.978	0.101
286.100	-32.433	0.101
286.200	-37.491	0.101
286.300	-31.659	0.101
286.400	-43.537	0.101
286.500	-36.411	0.101
286.600	-27.125	0.101
286.700	-39.723	0.101
286.800	-31.249	0.101
286.900	-29.161	0.101
287.000	-32.655	0.101
287.100	-39.408	0.101
287.200	-36.014	0.101
287.300	-38.360	0.101
287.400	-30.310	0.101
287.500	-34.543	0.101
287.600	-41.484	0.101
287.700	-36.548	0.101
287.800	-36.396	0.101
287.900	-30.817	0.101
288.000	-36.916	0.101
288.100	-40.625	0.101
288.200	-32.560	0.101
288.300	-29.996	0.101
288.400	-43.563	0.101
288.500	-32.383	0.101
288.600	-24.369	0.101
288.700	-40.748	0.101
288.800	-34.680	0.101
288.900	-47.467	0.101
289.000	-33.426	0.101
289.100	-30.930	0.101
289.200	-34.642	0.101
289.300	-39.449	0.101
289.400	-40.522	0.101
289.500	-31.754	0.101
289.600	-27.467	0.101
289.700	-38.693	0.101
289.800	-38.416	0.101
289.900	-39.234	0.101
290.000	-34.576	0.101
290.100	-29.955	0.101
290.200	-38.197	0.101
290.300	-38.026	0.101
290.400	-28.541	0.100
290.500	-36.032	0.100
290.600	-48.336	0.100
290.700	-36.528	0.100
290.800	-36.228	0.101
290.900	-27.909	0.101
291.000	-29.453	0.100
291.100	-31.208	0.101
291.200	-36.959	0.100
291.300	-28.548	0.100
291.400	-34.989	0.100
291.500	-35.199	0.100
291.600	-30.003	0.100
291.700	-25.703	0.100
291.800	-36.666	0.100
291.900	-32.195	0.100
292.000	-41.042	0.100
292.100	-33.067	0.100
292.200	-33.847	0.100
292.300	-34.762	0.100
292.400	-34.687	0.100
292.500	-33.195	0.100
292.600	-35.948	0.100
292.700	-37.570	0.100
292.800	-34.380	0.100
292.900	-38.996	0.100
293.000	-38.955	0.100
293.100	-34.288	0.100
293.200	-33.305	0.100
293.300	-39.068	0.100
293.400	-39.325	0.100
293.500	-36.562	0.100
293.600	-35.938	0.100
293.700	-36.978	0.100
293.800	-30.409	0.100
293.900	-27.351	0.100
294.000	-32.778	0.100
294.100	-33.770	0.100
294.200	-27.791	0.100
294.300	-34.853	0.100
294.400	-35.608	0.100
294.500	-31.137	0.100
294.600	-35.057	0.100
294.700	-35.329	0.100
294.800	-33.436	0.100
294.900	-33.731	0.100
295.000	-36.416	0.100
295.100	-29.707	0.100
295.200	-34.438	0.100
295.300	-40.935	0.100
295.400	-42.229	0.100
295.500	-27.968	0.100
295.600	-30.481	0.100
295.700	-46.601	0.100
295.800	-36.100	0.100
295.900	-30.015	0.100
296.000	-30.116	0.100
296.100	-29.013	0.100
296.200	-30.237	0.100
296.300	-42.509	0.100
296.400	-34.155	0.100
296.500	-36.797	0.100
296.600	-33.424	0.100
296.700	-48.797	0.100
296.800	-33.228	0.100
296.900	-32.451	0.100
297.000	-36.302	0.100
297.100	-31.440	0.100
297.200	-32.009	0.100
297.300	-29.218	0.100
297.400	-28.655	0.100
297.500	-33.942	0.100
297.600	-30.993	0.100
297.700	-40.481	0.100
297.800	-36.051	0.100
297.900	-34.239	0.100
298.000	-36.308	0.100
298.100	-39.654	0.100
298.200	-30.929	0.100
298.300	-27.937	0.100
298.400	-35.375	0.100
298.500	-30.856	0.100
298.600	-28.708	0.100
298.700	-31.343	0.100
298.800	-34.538	0.100
298.900	-25.468	0.100
299.000	-34.110	0.100
299.100	-34.342	0.100
299.200	-32.090	0.100
299.300	-39.142	0.100
299.400	-39.117	0.100
299.500	-35.766	0.100
299.600	-33.598	0.100
299.700	-36.656	0.100
299.800	-31.164	0.100
299.900	-22.253	0.100
300.000	-27.514	0.100
300.100	-31.230	0.100
300.200	-29.686	0.100
300.300	-26.863	0.100
300.400	-36.778	0.100
300.500	-26.184	0.100
300.600	-36.453	0.100
300.700	-29.689	0.100
300.800	-32.940	0.100
300.900	-41.455	0.100
301.000	-35.664	0.100
301.100	-45.043	0.100
301.200	-28.839	0.100
301.300	-32.511	0.100
301.400	-34.281	0.100
301.500	-39.418	0.100
301.600	-26.208	0.100
301.700	-24.984	0.100
301.800	-30.388	0.100
301.900	-29.496	0.100
302.000	-25.310	0.100
302.100	-31.289	0.100
302.200	-40.427	0.100
302.300	-40.048	0.100
302.400	-33.036	0.100
302.500	-26.362	0.100
302.600	-30.568	0.100
302.700	-29.825	0.100
302.800	-25.553	0.100
302.900	-45.535	0.100
303.000	-31.130	0.100
303.100	-32.109	0.100
303.200	-37.923	0.100
303.300	-30.843	0.100
303.400	-29.589	0.100
303.500	-32.448	0.100
303.600	-34.924	0.100
303.700	-35.102	0.100
303.800	-29.397	0.100
303.900	-39.851	0.100
304.000	-32.970	0.100
304.100	-39.493	0.100
304.200	-40.862	0.100
304.300	-31.717	0.100
304.400	-30.236	0.100
304.500	-32.416	0.100
304.600	-39.883	0.100
304.700	-35.257	0.100
304.800	-38.171	0.100
304.900	-30.692	0.100
305.000	-24.151	0.100
305.100	-28.388	0.100
305.200	-31.267	0.100
305.300	-29.849	0.100
305.400	-37.931	0.100
305.500	-29.339	0.100
305.600	-32.909	0.100
305.700	-26.300	0.100
305.800	-38.768	0.100
305.900	-29.543	0.100
306.000	-34.296	0.100
306.100	-43.471	0.100
306.200	-28.551	0.100
306.300	-34.648	0.100
306.400	-37.532	0.100
306.500	-34.572	0.100
306.600	-36.642	0.100
306.700	-34.352	0.100
306.800	-30.484	0.100
306.900	-37.430	0.100
307.000	-32.016	0.100
307.100	-25.854	0.100
307.200	-35.625	0.100
307.300	-29.345	0.100
307.400	-30.620	0.100
307.500	-26.649	0.100
307.600	-30.389	0.100
307.700	-34.777	0.100
307.800	-40.770	0.100
307.900	-24.190	0.100
308.000	-30.226	0.100
308.100	-31.080	0.100
308.200	-37.926	0.100
308.300	-35.605	0.100
308.400	-30.276	0.100
308.500	-24.967	0.100
308.600	-28.738	0.100
308.700	-33.981	0.100
308.800	-37.537	0.100
308.900	-41.241	0.100
309.000	-30.786	0.100
309.100	-27.922	0.100
309.200	-35.912	0.100
309.300	-27.649	0.100
309.400	-31.151	0.100
309.500	-38.064	0.100
309.600	-30.794	0.100
309.700	-26.975	0.100
309.800	-32.953	0.100
309.900	-35.332	0.100
310.000	-35.583	0.100
310.100	-32.718	0.100
310.200	-35.220	0.100
310.300	-30.057	0.100
310.400	-28.405	0.100
310.500	-29.185	0.100
310.600	-29.500	0.100
310.700	-33.224	0.100
310.800	-33.562	0.100
310.900	-29.416	0.100
311.000	-33.079	0.100
311.100	-37.097	0.100
311.200	-31.444	0.100
311.300	-27.443	0.100
311.400	-27.350	0.100
311.500	-22.710	0.100
311.600	-33.357	0.100
311.700	-34.575	0.100
311.800	-37.509	0.100
311.900	-25.392	0.100
312.000	-34.705	0.100
312.100	-30.384	0.100
312.200	-30.594	0.100
312.300	-26.977	0.100
312.400	-33.399	0.100
312.500	-34.815	0.100
312.600	-33.566	0.100
312.700	-33.174	0.100
312.800	-30.610	0.100
312.900	-25.664	0.100
313.000	-33.271	0.100
313.100	-34.415	0.100
313.200	-32.523	0.100
313.300	-35.890	0.100
313.400	-35.280	0.100
313.500	-25.201	0.100
313.600	-41.384	0.100
313.700	-37.082	0.100
313.800	-26.319	0.100
313.900	-28.005	0.100
314.000	-32.491	0.100
314.100	-29.213	0.100
314.200	-24.075	0.100
314.300	-32.672	0.100
314.400	-35.966	0.100
314.500	-35.810	0.100
314.600	-25.933	0.100
314.700	-29.261	0.100
314.800	-21.941	0.100
314.900	-28.336	0.100
315.000	-27.582	0.100
315.100	-31.813	0.100
315.200	-27.412	0.100
315.300	-28.103	0.100
315.400	-33.705	0.100
315.500	-27.129	0.100
315.600	-36.563	0.100
315.700	-18.122	0.100
315.800	-27.545	0.100
315.900	-26.021	0.100
316.000	-31.970	0.100
316.100	-28.071	0.100
316.200	-30.177	0.100
316.300	-35.125	0.100
316.400	-30.741	0.100
316.500	-26.187	0.100
316.600	-18.077	0.100
316.700	-16.658	0.100
316.800	-33.731	0.100
316.900	-33.208	0.100
317.000	-29.403	0.100
317.100	-26.063	0.100
317.200	-23.425	0.100
317.300	-33.338	0.100
317.400	-23.730	0.100
317.500	-33.597	0.100
317.600	-32.009	0.100
317.700	-31.012	0.100
317.800	-35.847	0.100
317.900	-29.941	0.100
318.000	-37.635	0.100
318.100	-30.921	0.100
318.200	-23.347	0.100
318.300	-27.598	0.100
318.400	-21.136	0.100
318.500	-26.610	0.100
318.600	-26.866	0.100
318.700	-40.275	0.100
318.800	-29.381	0.100
318.900	-27.213	0.100
319.000	-27.453	0.100
319.100	-20.253	0.100
319.200	-29.497	0.100
319.300	-37.465	0.100
319.400	-34.499	0.100
319.500	-24.554	0.100
319.600	-22.199	0.100
319.700	-22.608	0.100
319.800	-32.045	0.100
319.900	-35.208	0.100
320.000	-36.397	0.100
320.100	-24.825	0.100
320.200	-30.454	0.100
320.300	-25.048	0.100
320.400	-23.668	0.100
320.500	-28.216	0.100
320.600	-37.944	0.100
320.700	-27.926	0.100
320.800	-29.511	0.100
320.900	-32.933	0.100
321.000	-25.288	0.100
321.100	-25.752	0.100
321.200	-25.265	0.100
321.300	-35.758	0.100
321.400	-37.547	0.100
321.500	-34.820	0.100
321.600	-23.830	0.100
321.700	-28.308	0.100
321.800	-25.120	0.100
321.900	-30.810	0.100
322.000	-21.469	0.100
322.100	-24.219	0.100
322.200	-16.656	0.100
322.300	-25.390	0.100
322.400	-32.891	0.100
322.500	-34.062	0.100
322.600	-37.060	0.100
322.700	-26.793	0.100
322.800	-34.126	0.100
322.900	-23.864	0.100
323.000	-22.888	0.100
323.100	-29.329	0.100
323.200	-27.253	0.100
323.300	-29.177	0.100
323.400	-23.958	0.100
323.500	-26.982	0.100
323.600	-36.133	0.100
323.700	-30.099	0.100
323.800	-31.824	0.100
323.900	-27.025	0.100
324.000	-22.009	0.100
324.100	-22.843	0.100
324.200	-36.575	0.100
324.300	-24.901	0.100
324.400	-27.642	0.100
324.500	-21.874	0.100
324.600	-27.124	0.100
324.700	-32.511	0.100
324.800	-34.366	0.100
324.900	-25.885	0.100
325.000	-26.106	0.100
325.100	-17.133	0.100
325.200	-21.638	0.100
325.300	-23.743	0.100
325.400	-31.949	0.100
325.500	-29.730	0.100
325.600	-27.257	0.100
325.700	-30.136	0.100
325.800	-32.819	0.100
325.900	-26.268	0.100
326.000	-23.912	0.100
326.100	-29.789	0.100
326.200	-27.767	0.100
326.300	-32.597	0.100
326.400	-19.458	0.100
326.500	-35.023	0.100
326.600	-35.858	0.100
326.700	-28.788	0.100
326.800	-29.940	0.100
326.900	-23.731	0.100
327.000	-32.301	0.100
327.100	-25.451	0.100
327.200	-22.161	0.100
327.300	-21.366	0.100
327.400	-28.556	0.100
327.500	-26.431	0.100
327.600	-32.628	0.100
327.700	-29.294	0.100
327.800	-19.879	0.100
327.900	-27.761	0.100
328.000	-28.579	0.100
328.100	-31.264	0.100
328.200	-30.715	0.100
328.300	-16.856	0.100
328.400	-31.925	0.100
328.500	-30.705	0.100
328.600	-38.561	0.100
328.700	-22.409	0.100
328.800	-26.143	0.100
328.900	-28.413	0.100
329.000	-21.688	0.100
329.100	-41.229	0.100
329.200	-32.027	0.100
329.300	-24.432	0.100
329.400	-23.078	0.100
329.500	-21.771	0.100
329.600	-27.940	0.100
329.700	-37.461	0.100
329.800	-35.682	0.100
329.900	-25.198	0.100
330.000	-23.577	0.100
330.100	-23.531	0.100
330.200	-20.271	0.100
330.300	-31.445	0.100
330.400	-26.268	0.100
330.500	-29.139	0.100
330.600	-24.460	0.100
330.700	-17.791	0.100
330.800	-15.189	0.100
330.900	-15.269	0.100
331.000	-6.999	0.100
331.100	-8.622	0.100
331.200	-4.029	0.100
331.300	-3.073	0.100
331.400	1.259	0.100
331.500	6.577	0.100
331.600	-3.312	0.100
331.700	4.333	0.100
331.800	18.181	0.100
331.900	11.294	0.100
332.000	22.181	0.100
332.100	11.945	0.100
332.200	16.296	0.100
332.300	20.927	0.100
332.400	23.346	0.100
332.500	17.297	0.100
332.600	21.381	0.100
332.700	18.699	0.100
332.800	22.163	0.100
332.900	23.240	0.100
333.000	22.646	0.100
333.100	28.413	0.100
333.200	26.838	0.100
333.300	22.652	0.100
333.400	25.875	0.100
333.500	15.778	0.100
333.600	26.416	0.100
333.700	31.333	0.100
333.800	18.247	0.100
333.900	30.566	0.100
334.000	24.135	0.100
334.100	15.452	0.100
334.200	18.777	0.100
334.300	22.549	0.100
334.400	26.890	0.100
334.500	30.323	0.100
334.600	23.061	0.100
334.700	23.827	0.100
334.800	16.272	0.100
334.900	28.407	0.100
335.000	32.766	0.100
335.100	33.143	0.100
335.200	20.230	0.100
335.300	18.356	0.100
335.400	20.684	0.100
335.500	23.208	0.100
335.600	13.722	0.100
335.700	10.095	0.100
335.800	17.569	0.100
335.900	20.801	0.100
336.000	22.357	0.100
336.100	17.912	0.100
336.200	19.971	0.100
336.300	23.584	0.100
336.400	15.873	0.100
336.500	20.838	0.100
336.600	19.981	0.100
336.700	9.212	0.100
336.800	18.799	0.100
336.900	22.903	0.100
337.000	17.694	0.100
337.100	16.904	0.100
337.200	20.664	0.100
337.300	25.463	0.100
337.400	21.599	0.100
337.500	25.559	0.100
337.600	28.525	0.100
337.700	9.543	0.100
337.800	21.702	0.100
337.900	28.362	0.100
338.000	13.654	0.100
338.100	12.912	0.100
338.200	20.856	0.100
338.300	20.007	0.100
338.400	27.182	0.100
338.500	21.426	0.100
338.600	20.304	0.100
338.700	21.653	0.100
338.800	25.527	0.100
338.900	32.616	0.100
339.000	33.455	0.100
339.100	28.568	0.100
339.200	18.261	0.100
339.300	25.855	0.100
339.400	19.653	0.100
339.500	20.521	0.100
339.600	20.611	0.100
339.700	27.415	0.100
339.800	26.159	0.100
339.900	21.291	0.100
340.000	28.540	0.100
340.100	25.436	0.100
340.200	24.541	0.100
340.300	22.598	0.100
340.400	33.077	0.100
340.500	28.606	0.100
340.600	18.444	0.100
340.700	31.101	0.100
340.800	34.991	0.100
340.900	31.578	0.100
341.000	30.952	0.100
341.100	29.346	0.100
341.200	31.631	0.100
341.300	32.952	0.100
341.400	31.326	0.100
341.500	32.418	0.100
341.600	19.826	0.100
341.700	23.009	0.100
341.800	34.143	0.100
341.900	33.022	0.100
342.000	28.026	0.100
342.100	36.875	0.100
342.200	31.850	0.100
342.300	30.773	0.100
342.400	30.913	0.100
342.500	33.662	0.100
342.600	45.746	0.100
342.700	32.425	0.100
342.800	34.178	0.100
342.900	30.264	0.100
343.000	17.423	0.100
343.100	38.532	0.100
343.200	42.343	0.100
343.300	26.557	0.100
343.400	37.856	0.100
343.500	34.246	0.100
343.600	32.904	0.100
343.700	33.411	0.100
343.800	39.201	0.100
343.900	35.162	0.100
344.000	46.160	0.100
344.100	48.335	0.100
344.200	39.009	0.100
344.300	39.803	0.100
344.400	44.914	0.100
344.500	27.937	0.100
344.600	36.329	0.100
344.700	48.494	0.100
344.800	42.504	0.100
344.900	40.781	0.100
345.000	45.602	0.100
345.100	47.323	0.100
345.200	36.142	0.100
345.300	33.193	0.100
345.400	43.235	0.100
345.500	47.627	0.100
345.600	41.589	0.100
345.700	51.641	0.100
345.800	40.037	0.100
345.900	35.542	0.100
346.000	41.960	0.100
346.100	49.520	0.100
346.200	42.142	0.100
346.300	42.907	0.100
346.400	50.910	0.100
346.500	52.970	0.100
346.600	51.158	0.100
346.700	45.615	0.100
346.800	48.258	0.100
346.900	49.393	0.100
347.000	46.056	0.100
347.100	58.861	0.100
347.200	54.153	0.100
347.300	47.573	0.100
347.400	56.911	0.100
347.500	53.980	0.100
347.600	56.649	0.100
347.700	53.548	0.100
347.800	55.946	0.100
347.900	54.205	0.100
348.000	50.492	0.100
348.100	56.136	0.100
348.200	57.347	0.100
348.300	52.382	0.100
348.400	54.920	0.100
348.500	53.392	0.100
348.600	53.670	0.100
348.700	68.137	0.100
348.800	51.356	0.100
348.900	65.307	0.100
349.000	62.089	0.100
349.100	62.478	0.100
349.200	52.665	0.100
349.300	62.246	0.100
349.400	64.353	0.100
349.500	51.353	0.100
349.600	66.880	0.100
349.700	59.402	0.100
349.800	62.490	0.100
349.900	62.880	0.100
350.000	71.286	0.100
350.100	57.002	0.100
350.200	53.734	0.100
350.300	53.389	0.100
350.400	61.344	0.100
350.500	63.065	0.100
350.600	67.191	0.100
350.700	69.529	0.100
350.800	61.724	0.100
350.900	61.909	0.100
351.000	65.517	0.100
351.100	63.582	0.100
351.200	64.214	0.100
351.300	66.356	0.100
351.400	66.365	0.100
351.500	58.507	0.100
351.600	63.807	0.100
351.700	71.568	0.100
351.800	63.515	0.100
351.900	60.939	0.100
352.000	70.512	0.100
352.100	57.836	0.100
352.200	58.217	0.100
352.300	59.054	0.100
352.400	70.121	0.100
352.500	68.265	0.100
352.600	65.908	0.100
352.700	75.221	0.100
352.800	67.240	0.100
352.900	61.051	0.100
353.000	74.050	0.100
353.100	72.320	0.100
353.200	71.245	0.100
353.300	67.352	0.100
353.400	58.973	0.100
353.500	69.047	0.100
353.600	74.252	0.100
353.700	71.707	0.100
353.800	65.609	0.100
353.900	71.249	0.100
354.000	75.660	0.100
354.100	63.014	0.100
354.200	68.018	0.100
354.300	63.971	0.100
354.400	65.125	0.100
354.500	68.514	0.100
354.600	73.417	0.100
354.700	68.789	0.100
354.800	84.586	0.100
354.900	66.958	0.100
355.000	66.412	0.100
355.100	68.174	0.100
355.200	69.854	0.100
355.300	72.318	0.100
355.400	69.401	0.100
355.500	69.940	0.100
355.600	68.786	0.100
355.700	66.286	0.100
355.800	67.956	0.100
355.900	73.465	0.100
356.000	64.061	0.100
356.100	66.141	0.100
356.200	74.038	0.100
356.300	70.652	0.100
356.400	72.959	0.100
356.500	68.995	0.100
356.600	64.324	0.100
356.700	75.378	0.100
356.800	58.708	0.100
356.900	69.880	0.100
357.000	70.093	0.100
357.100	70.401	0.100
357.200	63.778	0.100
357.300	72.766	0.100
357.400	72.736	0.100
357.500	59.273	0.100
357.600	64.508	0.100
357.700	62.916	0.100
357.800	72.344	0.100
357.900	60.817	0.100
358.000	72.319	0.100
358.100	69.085	0.100
358.200	69.418	0.100
358.300	66.711	0.100
358.400	71.792	0.100
358.500	60.431	0.100
358.600	63.936	0.100
358.700	65.879	0.100
358.800	64.869	0.100
358.900	60.881	0.100
359.000	70.237	0.100
359.100	72.448	0.100
359.200	69.056	0.100
359.300	69.451	0.100
359.400	76.305	0.100
359.500	72.933	0.100
359.600	64.374	0.100
359.700	66.143	0.100
359.800	69.093	0.100
359.900	71.828	0.100
360.000	70.096	0.100
360.100	65.460	0.100
360.200	66.334	0.100
360.300	65.269	0.100
360.400	67.749	0.100
360.500	62.639	0.100
360.600	69.738	0.100
360.700	60.087	0.100
360.800	63.045	0.100
360.900	69.724	0.100
361.000	69.446	0.100
361.100	70.156	0.100
361.200	75.560	0.100
361.300	70.747	0.100
361.400	62.470	0.100
361.500	67.054	0.100
361.600	63.402	0.100
361.700	69.836	0.100
361.800	69.353	0.100
361.900	59.539	0.100
362.000	69.097	0.100
362.100	68.386	0.100
362.200	68.883	0.100
362.300	74.173	0.100
362.400	62.238	0.100
362.500	66.477	0.100
362.600	63.295	0.100
362.700	61.929	0.100
362.800	57.996	0.100
362.900	53.128	0.100
363.000	69.820	0.100
363.100	66.373	0.100
363.200	59.353	0.100
363.300	70.198	0.100
363.400	65.289	0.100
363.500	67.965	0.100
363.600	70.091	0.100
363.700	61.881	0.100
363.800	69.345	0.100
363.900	69.563	0.100
364.000	63.649	0.100
364.100	60.371	0.100
364.200	61.593	0.100
364.300	64.100	0.100
364.400	57.474	0.100
364.500	66.449	0.100
364.600	65.341	0.100
364.700	60.196	0.100
364.800	68.904	0.100
364.900	60.391	0.100
365.000	58.622	0.100
365.100	64.306	0.100
365.200	68.453	0.100
365.300	63.244	0.100
365.400	53.344	0.100
365.500	65.968	0.100
365.600	67.278	0.100
365.700	55.264	0.100
365.800	59.221	0.100
365.900	64.125	0.100
366.000	60.721	0.100
366.100	65.065	0.100
366.200	69.258	0.100
366.300	65.994	0.100
366.400	69.043	0.100
366.500	67.514	0.100
366.600	64.735	0.100
366.700	75.099	0.100
366.800	57.561	0.100
366.900	66.437	0.100
367.000	68.549	0.100
367.100	62.583	0.100
367.200	70.819	0.100
367.300	62.796	0.100
367.400	57.722	0.100
367.500	60.746	0.100
367.600	72.280	0.100
367.700	68.275	0.100
367.800	50.736	0.100
367.900	63.418	0.100
368.000	51.715	0.100
368.100	63.440	0.100
368.200	69.890	0.100
368.300	66.163	0.100
368.400	61.883	0.100
368.500	63.679	0.100
368.600	67.669	0.100
368.700	65.054	0.100
368.800	50.534	0.100
368.900	65.574	0.100
369.000	67.456	0.100
369.100	61.468	0.100
369.200	66.582	0.100
369.300	60.088	0.100
369.400	62.459	0.100
369.500	63.085	0.100
369.600	59.109	0.100
369.700	62.156	0.100
369.800	70.121	0.100
369.900	54.411	0.100
370.000	69.504	0.100
370.100	59.710	0.100
370.200	65.575	0.100
370.300	63.445	0.100
370.400	71.672	0.100
370.500	67.960	0.100
370.600	64.079	0.100
370.700	60.258	0.100
370.800	73.806	0.100
370.900	56.276	0.100
371.000	65.711	0.100
371.100	64.538	0.100
371.200	56.380	0.100
371.300	63.507	0.100
371.400	55.443	0.100
371.500	61.134	0.100
371.600	65.431	0.100
371.700	67.936	0.100
371.800	57.737	0.100
371.900	73.280	0.100
372.000	61.214	0.100
372.100	69.489	0.100
372.200	58.982	0.100
372.300	60.625	0.100
372.400	60.504	0.100
372.500	60.231	0.100
372.600	66.506	0.100
372.700	62.202	0.100
372.800	61.292	0.100
372.900	64.265	0.100
373.000	60.359	0.100
373.100	61.962	0.100
373.200	59.875	0.100
373.300	61.872	0.100
373.400	53.491	0.100
373.500	64.770	0.100
373.600	64.700	0.100
373.700	65.866	0.100
373.800	63.528	0.100
373.900	54.577	0.100
374.000	50.268	0.100
374.100	65.524	0.100
374.200	70.429	0.100
374.300	64.370	0.100
374.400	67.247	0.100
374.500	66.571	0.100
374.600	50.869	0.100
374.700	55.978	0.100
374.800	70.343	0.100
374.900	64.508	0.100
375.000	66.221	0.100
375.100	63.773	0.100
375.200	51.899	0.100
375.300	52.978	0.100
375.400	57.725	0.100
375.500	70.313	0.100
375.600	61.318	0.100
375.700	57.523	0.100
375.800	67.379	0.100
375.900	56.317	0.100
376.000	64.916	0.100
376.100	59.849	0.100
376.200	55.244	0.100
376.300	60.575	0.100
376.400	61.176	0.100
376.500	58.770	0.100
376.600	60.310	0.100
376.700	61.131	0.100
376.800	69.695	0.100
376.900	64.237	0.100
377.000	64.890	0.100
377.100	62.259	0.100
377.200	52.441	0.100
377.300	61.854	0.100
377.400	62.383	0.100
377.500	59.453	0.100
377.600	59.518	0.100
377.700	63.998	0.100
377.800	57.878	0.100
377.900	56.119	0.100
378.000	65.881	0.100
378.100	49.646	0.100
378.200	62.103	0.100
378.300	63.994	0.100
378.400	54.555	0.100
378.500	58.087	0.100
378.600	60.829	0.100
378.700	62.262	0.100
378.800	63.814	0.100
378.900	56.557	0.100
379.000	68.096	0.100
379.100	60.132	0.100
379.200	56.146	0.100
379.300	65.218	0.100
379.400	63.945	0.100
379.500	55.573	0.100
379.600	53.878	0.100
379.700	63.631	0.100
379.800	51.921	0.100
379.900	59.835	0.100
380.000	80.639	0.100
380.100	67.604	0.100
380.200	56.601	0.100
380.300	56.638	0.100
380.400	57.411	0.100
380.500	60.364	0.100
380.600	56.857	0.100
380.700	63.324	0.100
380.800	62.590	0.100
380.900	61.291	0.100
381.000	66.692	0.100
381.100	60.978	0.100
381.200	61.185	0.100
381.300	52.977	0.100
381.400	53.366	0.100
381.500	61.559	0.100
381.600	50.673	0.100
381.700	59.702	0.100
381.800	67.398	0.100
381.900	58.195	0.100
382.000	54.227	0.100
382.100	60.041	0.100
382.200	53.641	0.100
382.300	68.712	0.100
382.400	58.247	0.100
382.500	53.030	0.100
382.600	59.538	0.100
382.700	57.101	0.100
382.800	70.956	0.100
382.900	49.583	0.100
383.000	61.561	0.100
383.100	62.204	0.100
383.200	71.515	0.100
383.300	59.868	0.100
383.400	63.506	0.100
383.500	66.898	0.100
383.600	67.969	0.100
383.700	59.069	0.100
383.800	62.015	0.100
383.900	55.363	0.100
384.000	54.344	0.100
384.100	58.054	0.100
384.200	61.589	0.100
384.300	61.095	0.100
384.400	60.863	0.100
384.500	61.835	0.100
384.600	64.865	0.100
384.700	58.696	0.100
384.800	58.362	0.100
384.900	57.971	0.100
385.000	61.411	0.100
385.100	63.182	0.100
385.200	59.902	0.100
385.300	67.643	0.100
385.400	57.662	0.100
385.500	54.385	0.100
385.600	53.878	0.100
385.700	56.409	0.100
385.800	57.566	0.100
385.900	61.270	0.100
386.000	60.499	0.100
386.100	70.072	0.100
386.200	58.930	0.100
386.300	61.135	0.100
386.400	54.918	0.100
386.500	58.880	0.100
386.600	59.838	0.100
386.700	58.028	0.100
386.800	52.879	0.100
386.900	57.624	0.100
387.000	61.894	0.100
387.100	55.440	0.100
387.200	63.611	0.100
387.300	59.050	0.100
387.400	60.038	0.100
387.500	63.403	0.100
387.600	59.237	0.100
387.700	64.403	0.100
387.800	51.463	0.100
387.900	60.288	0.100
388.000	60.937	0.100
388.100	54.496	0.100
388.200	69.707	0.100
388.300	56.609	0.100
388.400	70.418	0.100
388.500	52.114	0.100
388.600	58.623	0.100
388.700	58.252	0.100
388.800	59.696	0.100
388.900	60.274	0.100
389.000	55.047	0.100
389.100	59.324	0.100
389.200	62.315	0.100
389.300	46.671	0.100
389.400	40.992	0.100
389.500	57.252	0.100
389.600	57.264	0.100
389.700	71.578	0.100
389.800	66.891	0.100
389.900	60.332	0.100
390.000	61.877	0.100
390.100	58.252	0.100
390.200	53.915	0.100
390.300	69.902	0.100
390.400	57.636	0.100
390.500	53.835	0.100
390.600	56.333	0.100
390.700	49.732	0.100
390.800	42.874	0.100
390.900	49.460	0.100
391.000	33.854	0.100
391.100	38.135	0.100
391.200	35.054	0.100
391.300	30.969	0.100
391.400	35.357	0.100
391.500	31.783	0.100
391.600	22.947	0.100
391.700	17.224	0.100
391.800	9.965	0.100
391.900	4.178	0.100
392.000	8.226	0.100
392.100	7.552	0.100
392.200	6.250	0.100
392.300	-2.981	0.100
392.400	-7.042	0.100
392.500	11.779	0.100
392.600	8.795	0.100
392.700	0.416	0.100
392.800	2.053	0.100
392.900	4.874	0.100
393.000	-8.049	0.100
393.100	-1.515	0.100
393.200	-4.993	0.100
393.300	-9.068	0.100
393.400	1.543	0.100
393.500	-15.871	0.100
393.600	-9.305	0.100
393.700	-12.537	0.100
393.800	-10.031	0.100
393.900	-10.951	0.100
394.000	-20.081	0.100
394.100	-20.020	0.100
394.200	-22.840	0.100
394.300	-17.541	0.100
394.400	-7.061	0.100
394.500	-16.204	0.100
394.600	-9.541	0.100
394.700	-13.072	0.100
394.800	-20.787	0.100
394.900	-27.541	0.100
395.000	-22.128	0.100
395.100	-15.626	0.100
395.200	-28.862	0.100
395.300	-17.408	0.100
395.400	-12.749	0.100
395.500	-13.812	0.100
395.600	-13.849	0.100
395.700	-17.056	0.100
395.800	-25.962	0.100
395.900	-24.419	0.100
396.000	-12.031	0.100
396.100	-23.022	0.100
396.200	-24.136	0.100
396.300	-19.889	0.100
396.400	-14.113	0.100
396.500	-17.850	0.100
396.600	-20.830	0.100
396.700	-11.467	0.100
396.800	-8.370	0.100
396.900	-17.425	0.100
397.000	-18.651	0.100
397.100	-18.921	0.100
397.200	-17.743	0.100
397.300	-11.598	0.100
397.400	-6.646	0.100
397.500	-27.046	0.100
397.600	-18.063	0.100
397.700	-18.732	0.100
397.800	-20.725	0.100
397.900	-19.943	0.100
398.000	-17.978	0.100
398.100	-22.558	0.100
398.200	-23.013	0.100
398.300	-21.278	0.100
398.400	-16.430	0.100
398.500	-13.830	0.100
398.600	-17.391	0.100
398.700	-9.569	0.100
398.800	-21.278	0.100
398.900	-16.745	0.100
399.000	-13.141	0.100
399.100	-11.712	0.100
399.200	-9.052	0.100
399.300	-13.841	0.100
399.400	-23.243	0.100
399.500	-17.034	0.100
399.600	-21.908	0.100
399.700	-29.571	0.100
399.800	-20.651	0.100
399.900	-15.758	0.100
400.000	-12.428	0.100
400.100	-6.419	0.100
400.200	-25.528	0.100
400.300	-20.429	0.100
400.400	-9.408	0.100
400.500	-18.338	0.100
400.600	-9.876	0.100
400.700	-29.010	0.100
400.800	-15.230	0.100
400.900	-13.930	0.100
401.000	-12.882	0.100
401.100	-18.786	0.100
401.200	-13.064	0.100
401.300	-25.276	0.100
401.400	-17.275	0.100
401.500	-27.081	0.100
401.600	-11.003	0.100
401.700	-21.213	0.100
401.800	-24.581	0.100
401.900	-14.723	0.100
402.000	-13.362	0.100
402.100	-22.056	0.100
402.200	-19.726	0.100
402.300	-17.391	0.100
402.400	-19.631	0.100
402.500	-22.696	0.100
402.600	-24.833	0.100
402.700	-12.650	0.100
402.800	-18.755	0.100
402.900	-20.636	0.100
403.000	-22.460	0.100
403.100	-12.353	0.100
403.200	-8.787	0.100
403.300	-20.103	0.100
403.400	-15.573	0.100
403.500	-21.042	0.100
403.600	-31.078	0.100
403.700	-21.655	0.100
403.800	-18.290	0.100
403.900	-24.037	0.100
404.000	-27.524	0.100
404.100	-8.539	0.100
404.200	-15.538	0.100
404.300	-13.046	0.100
404.400	-18.825	0.100
404.500	-21.707	0.100
404.600	-13.022	0.100
404.700	-3.460	0.100
404.800	-29.646	0.100
404.900	-20.143	0.100
405.000	-23.561	0.100
405.100	-16.461	0.100
405.200	-16.551	0.100
405.300	-24.164	0.100
405.400	-25.664	0.100
405.500	-20.271	0.100
405.600	-14.064	0.100
405.700	-23.630	0.100
405.800	-18.472	0.100
405.900	-20.045	0.100
406.000	-27.773	0.100
406.100	-15.211	0.100
406.200	-12.673	0.100
406.300	-17.979	0.100
406.400	-18.529	0.100
406.500	-27.162	0.100
406.600	-10.610	0.100
406.700	-22.988	0.100
406.800	-17.820	0.100
406.900	-20.693	0.100
407.000	-29.070	0.100
407.100	-29.710	0.100
407.200	-23.520	0.100
407.300	-19.086	0.100
407.400	-22.316	0.100
407.500	-22.228	0.100
407.600	-19.465	0.100
407.700	-15.253	0.100
407.800	-23.344	0.100
407.900	-27.258	0.100
408.000	-19.060	0.100
408.100	-21.639	0.100
408.200	-21.782	0.100
408.300	-13.772	0.100
408.400	-19.873	0.100
408.500	-27.677	0.100
408.600	-20.879	0.100
408.700	-16.971	0.100
408.800	-27.243	0.100
408.900	-27.872	0.100
409.000	-20.033	0.100
409.100	-26.873	0.100
409.200	-18.675	0.100
409.300	-21.361	0.100
409.400	-19.092	0.100
409.500	-21.748	0.100
409.600	-32.711	0.100
409.700	-20.108	0.100
409.800	-25.899	0.100
409.900	-31.180	0.100
410.000	-19.903	0.100
410.100	-29.173	0.100
410.200	-22.473	0.100
410.300	-30.258	0.100
410.400	-28.822	0.100
410.500	-22.148	0.100
410.600	-28.763	0.100
410.700	-30.839	0.100
410.800	-27.580	0.100
410.900	-31.408	0.100
411.000	-32.074	0.100
411.100	-24.349	0.100
411.200	-33.250	0.100
411.300	-26.910	0.100
411.400	-23.424	0.100
411.500	-26.165	0.100
411.600	-19.607	0.100
411.700	-22.646	0.100
411.800	-25.712	0.100
411.900	-18.331	0.100
412.000	-26.359	0.100
412.100	-31.809	0.100
412.200	-34.457	0.100
412.300	-26.650	0.100
412.400	-25.644	0.100
412.500	-25.656	0.100
412.600	-30.475	0.100
412.700	-32.018	0.100
412.800	-27.418	0.100
412.900	-27.576	0.100
413.000	-33.121	0.100
413.100	-28.427	0.100
413.200	-18.494	0.100
413.300	-36.049	0.100
413.400	-29.014	0.100
413.500	-25.074	0.100
413.600	-25.237	0.100
413.700	-16.970	0.100
413.800	-26.813	0.100
413.900	-31.509	0.100
414.000	-25.068	0.100
414.100	-41.239	0.100
414.200	-39.701	0.100
414.300	-31.376	0.100
414.400	-26.223	0.100
414.500	-28.982	0.100
414.600	-32.558	0.100
414.700	-39.058	0.100
414.800	-30.094	0.100
414.900	-29.014	0.100
415.000	-26.259	0.100
415.100	-30.064	0.100
415.200	-31.949	0.100
415.300	-37.966	0.100
415.400	-37.121	0.100
415.500	-36.957	0.100
415.600	-20.875	0.100
415.700	-20.670	0.100
415.800	-28.753	0.100
415.900	-29.999	0.100
416.000	-31.103	0.100
416.100	-24.052	0.100
416.200	-31.256	0.100
416.300	-35.360	0.100
416.400	-31.374	0.100
416.500	-32.343	0.100
416.600	-38.188	0.100
416.700	-34.681	0.100
416.800	-29.502	0.100
416.900	-40.659	0.100
417.000	-27.196	0.100
417.100	-21.191	0.100
417.200	-30.359	0.100
417.300	-39.174	0.100
417.400	-35.346	0.100
417.500	-42.004	0.100
417.600	-36.636	0.100
417.700	-26.669	0.100
417.800	-36.667	0.100
417.900	-29.734	0.100
418.000	-34.029	0.100
418.100	-24.763	0.100
418.200	-26.195	0.100
418.300	-27.041	0.100
418.400	-27.245	0.100
418.500	-29.674	0.100
418.600	-42.526	0.100
418.700	-31.396	0.100
418.800	-24.432	0.100
418.900	-33.326	0.100
419.000	-25.750	0.100
419.100	-30.046	0.100
419.200	-36.747	0.100
419.300	-33.874	0.100
419.400	-31.776	0.100
419.500	-47.105	0.100
419.600	-44.558	0.100
419.700	-26.810	0.100
419.800	-33.435	0.100
419.900	-31.946	0.100
420.000	-46.286	0.100
420.100	-30.289	0.100
420.200	-39.102	0.100
420.300	-37.208	0.100
420.400	-36.405	0.100
420.500	-33.107	0.100
420.600	-33.868	0.100
420.700	-32.734	0.100
420.800	-35.990	0.100
420.900	-27.051	0.100
421.000	-38.492	0.100
421.100	-32.560	0.100
421.200	-40.524	0.100
421.300	-31.440	0.100
421.400	-34.003	0.100
421.500	-29.713	0.100
421.600	-45.788	0.100
421.700	-35.557	0.100
421.800	-40.535	0.100
421.900	-31.808	0.100
422.000	-35.352	0.100
422.100	-29.331	0.100
422.200	-31.058	0.100
422.300	-42.966	0.100
422.400	-33.425	0.100
422.500	-35.754	0.100
422.600	-30.746	0.100
422.700	-34.207	0.100
422.800	-31.290	0.100
422.900	-33.214	0.100
423.000	-38.200	0.100
423.100	-37.314	0.100
423.200	-31.465	0.100
423.300	-31.068	0.100
423.400	-39.763	0.100
423.500	-42.480	0.100
423.600	-28.650	0.100
423.700	-38.009	0.100
423.800	-36.251	0.100
423.900	-32.151	0.100
424.000	-32.167	0.100
424.100	-41.176	0.100
424.200	-44.894	0.100
424.300	-38.979	0.100
424.400	-33.807	0.100
424.500	-37.690	0.100
424.600	-37.874	0.100
424.700	-40.545	0.100
424.800	-32.817	0.100
424.900	-43.567	0.100
425.000	-42.333	0.100
425.100	-38.156	0.100
425.200	-32.148	0.100
425.300	-37.437	0.100
425.400	-38.437	0.100
425.500	-39.650	0.100
425.600	-40.098	0.100
425.700	-39.668	0.100
425.800	-34.192	0.100
425.900	-33.691	0.100
426.000	-37.154	0.100
426.100	-34.422	0.100
426.200	-30.382	0.100
426.300	-30.137	0.100
426.400	-36.147	0.100
426.500	-38.354	0.100
426.600	-37.132	0.100
426.700	-43.780	0.100
426.800	-38.425	0.100
426.900	-39.809	0.100
427.000	-37.013	0.100
427.100	-41.344	0.100
427.200	-44.552	0.100
427.300	-45.089	0.100
427.400	-42.369	0.100
427.500	-38.101	0.100
427.600	-36.882	0.100
427.700	-40.843	0.100
427.800	-42.621	0.100
427.900	-40.338	0.100
428.000	-33.585	0.100
428.100	-34.131	0.100
428.200	-38.140	0.100
428.300	-36.846	0.100
428.400	-41.156	0.100
428.500	-42.288	0.100
428.600	-34.429	0.100
428.700	-42.017	0.100
428.800	-38.304	0.100
428.900	-35.551	0.100
429.000	-31.714	0.100
429.100	-48.177	0.100
429.200	-38.004	0.100
429.300	-50.005	0.100
429.400	-43.908	0.100
429.500	-37.455	0.100
429.600	-38.649	0.100
429.700	-37.586	0.100
429.800	-36.150	0.100
429.900	-43.131	0.100
430.000	-34.718	0.100
430.100	-45.331	0.100
430.200	-38.779	0.100
430.300	-32.028	0.100
430.400	-40.286	0.100
430.500	-42.135	0.100
430.600	-32.451	0.100
430.700	-34.725	0.100
430.800	-42.300	0.100
430.900	-40.789	0.100
431.000	-34.636	0.100
431.100	-36.715	0.100
431.200	-30.441	0.100
431.300	-40.721	0.100
431.400	-47.587	0.100
431.500	-46.317	0.100
431.600	-38.993	0.100
431.700	-35.997	0.100
431.800	-44.643	0.100
431.900	-30.941	0.100
432.000	-43.542	0.100
432.100	-41.745	0.100
432.200	-29.659	0.100
432.300	-33.417	0.100
432.400	-29.677	0.100
432.500	-35.314	0.100
432.600	-33.170	0.100
432.700	-40.452	0.100
432.800	-47.133	0.100
432.900	-35.707	0.100
433.000	-37.343	0.100
433.100	-50.348	0.100
433.200	-43.386	0.100
433.300	-46.677	0.100
433.400	-46.202	0.100
433.500	-33.972	0.100
433.600	-32.339	0.100
433.700	-33.339	0.100
433.800	-37.012	0.100
433.900	-38.262	0.100
434.000	-38.521	0.100
434.100	-36.606	0.100
434.200	-32.107	0.100
434.300	-40.086	0.100
434.400	-36.040	0.100
434.500	-30.270	0.100
434.600	-34.987	0.100
434.700	-41.135	0.100
434.800	-43.224	0.100
434.900	-44.477	0.100
435.000	-35.725	0.100
435.100	-41.818	0.100
435.200	-39.013	0.100
435.300	-48.360	0.100
435.400	-46.687	0.100
435.500	-43.597	0.100
435.600	-39.424	0.100
435.700	-37.159	0.100
435.800	-39.486	0.100
435.900	-42.967	0.100
436.000	-41.999	0.100
436.100	-43.068	0.100
436.200	-36.206	0.100
436.300	-36.517	0.100
436.400	-41.742	0.100
436.500	-47.467	0.100
436.600	-41.625	0.100
436.700	-36.645	0.100
436.800	-37.959	0.100
436.900	-44.122	0.100
437.000	-28.871	0.100
437.100	-32.354	0.100
437.200	-33.523	0.100
437.300	-39.318	0.100
437.400	-44.059	0.100
437.500	-43.801	0.100
437.600	-38.515	0.100
437.700	-38.917	0.100
437.800	-41.062	0.100
437.900	-36.641	0.100
438.000	-39.381	0.100
438.100	-35.651	0.100
438.200	-35.595	0.100
438.300	-30.103	0.100
438.400	-38.662	0.100
438.500	-35.767	0.100
438.600	-37.664	0.100
438.700	-34.734	0.100
438.800	-49.169	0.100
438.900	-42.832	0.100
439.000	-41.396	0.100
439.100	-41.761	0.100
439.200	-38.778	0.100
439.300	-37.838	0.100
439.400	-32.883	0.100
439.500	-42.376	0.100
439.600	-38.909	0.100
439.700	-33.318	0.100
439.800	-39.897	0.100
439.900	-35.054	0.100
440.000	-36.720	0.100
440.100	-31.654	0.100
440.200	-23.235	0.100
440.300	-38.058	0.100
440.400	-43.914	0.100
440.500	-40.302	0.100
440.600	-28.421	0.100
440.700	-38.736	0.100
440.800	-43.791	0.100
440.900	-41.699	0.100
441.000	-40.801	0.100
441.100	-43.678	0.100
441.200	-38.936	0.100
441.300	-40.090	0.100
441.400	-45.737	0.100
441.500	-43.608	0.100
441.600	-44.577	0.100
441.700	-39.234	0.100
441.800	-41.491	0.100
441.900	-31.458	0.100
442.000	-39.672	0.100
442.100	-35.228	0.100
442.200	-28.254	0.100
442.300	-45.344	0.100
442.400	-44.573	0.100
442.500	-44.011	0.100
442.600	-30.803	0.100
442.700	-33.354	0.100
442.800	-31.741	0.100
442.900	-31.251	0.100
443.000	-43.771	0.100
443.100	-41.930	0.100
443.200	-37.331	0.100
443.300	-44.508	0.100
443.400	-35.312	0.100
443.500	-37.375	0.100
443.600	-36.138	0.100
443.700	-42.147	0.100
443.800	-41.016	0.100
443.900	-32.810	0.100
444.000	-31.382	0.100
444.100	-36.729	0.100
444.200	-44.485	0.100
444.300	-37.713	0.100
444.400	-41.281	0.100
444.500	-31.527	0.100
444.600	-40.488	0.100
444.700	-38.394	0.100
444.800	-29.027	0.100
444.900	-28.925	0.100
445.000	-35.472	0.100
445.100	-29.634	0.100
445.200	-43.277	0.100
445.300	-31.196	0.100
445.400	-37.198	0.100
445.500	-40.590	0.100
445.600	-39.935	0.100
445.700	-31.979	0.100
445.800	-41.083	0.100
445.900	-46.923	0.100
446.000	-45.511	0.100
446.100	-28.795	0.100
446.200	-26.718	0.100
446.300	-34.604	0.100
446.400	-35.840	0.100
446.500	-36.492	0.100
446.600	-43.219	0.100
446.700	-47.713	0.100
446.800	-43.171	0.100
446.900	-28.311	0.100
447.000	-30.556	0.100
447.100	-35.381	0.100
447.200	-31.157	0.100
447.300	-37.181	0.100
447.400	-41.014	0.100
447.500	-28.034	0.100
447.600	-40.598	0.100
447.700	-37.988	0.100
447.800	-33.598	0.100
447.900	-48.656	0.100
448.000	-30.912	0.100
448.100	-43.467	0.100
448.200	-37.042	0.100
448.300	-38.604	0.100
448.400	-35.879	0.100
448.500	-33.726	0.100
448.600	-32.836	0.100
448.700	-46.321	0.100
448.800	-38.349	0.100
448.900	-33.216	0.100
449.000	-34.643	0.100
449.100	-31.324	0.100
449.200	-38.264	0.100
449.300	-31.262	0.100
449.400	-42.373	0.100
449.500	-38.321	0.100
449.600	-30.622	0.100
449.700	-35.167	0.100
449.800	-40.104	0.100
449.900	-32.479	0.100
450.000	-43.114	0.100
450.100	-43.095	0.100
450.200	-31.370	0.100
450.300	-26.731	0.100
450.400	-32.049	0.100
450.500	-30.437	0.100
450.600	-39.007	0.100
450.700	-29.983	0.100
450.800	-36.807	0.100
450.900	-42.569	0.100
451.000	-35.529	0.100
451.100	-35.980	0.100
451.200	-25.591	0.100
451.300	-36.037	0.100
451.400	-33.172	0.100
451.500	-37.529	0.100
451.600	-37.767	0.100
451.700	-39.857	0.100
451.800	-36.101	0.100
451.900	-33.157	0.100
452.000	-31.151	0.100
452.100	-39.048	0.100
452.200	-38.567	0.100
452.300	-33.980	0.100
452.400	-35.824	0.100
452.500	-42.434	0.100
452.600	-41.489	0.100
452.700	-31.848	0.100
452.800	-47.545	0.100
452.900	-30.647	0.100
453.000	-28.973	0.100
453.100	-38.616	0.100
453.200	-30.882	0.100
453.300	-27.384	0.100
453.400	-36.022	0.100
453.500	-35.131	0.100
453.600	-36.016	0.100
453.700	-38.786	0.100
453.800	-34.386	0.100
453.900	-36.663	0.100
454.000	-33.691	0.100
454.100	-41.042	0.100
454.200	-31.055	0.100
454.300	-39.364	0.100
454.400	-30.855	0.100
454.500	-37.233	0.100
454.600	-32.648	0.100
454.700	-31.618	0.100
454.800	-33.426	0.100
454.900	-33.449	0.100
455.000	-24.646	0.100
455.100	-29.564	0.100
455.200	-33.148	0.100
455.300	-30.893	0.100
455.400	-32.594	0.100
455.500	-33.755	0.100
455.600	-39.556	0.100
455.700	-29.503	0.100
455.800	-28.178	0.100
455.900	-31.989	0.100
456.000	-37.230	0.100
456.100	-44.323	0.100
456.200	-34.299	0.100
456.300	-32.711	0.100
456.400	-37.564	0.100
456.500	-41.387	0.100
456.600	-41.055	0.100
456.700	-30.327	0.100
456.800	-34.852	0.100
456.900	-36.648	0.100
457.000	-29.670	0.100
457.100	-42.220	0.100
457.200	-29.988	0.100
457.300	-33.234	0.100
457.400	-45.010	0.100
457.500	-30.677	0.100
457.600	-40.265	0.100
457.700	-37.677	0.100
457.800	-38.764	0.100
457.900	-31.121	0.100
458.000	-28.385	0.100
458.100	-27.598	0.100
458.200	-30.685	0.100
458.300	-33.572	0.100
458.400	-31.944	0.100
458.500	-38.340	0.100
458.600	-37.429	0.100
458.700	-36.208	0.100
458.800	-39.750	0.100
458.900	-38.845	0.100
459.000	-29.828	0.100
459.100	-45.395	0.100
459.200	-34.516	0.100
459.300	-32.104	0.100
459.400	-25.291	0.100
459.500	-22.528	0.100
459.600	-36.530	0.100
459.700	-36.671	0.100
459.800	-38.246	0.100
459.900	-34.215	0.100
460.000	-21.677	0.100
460.100	-34.107	0.100
460.200	-40.709	0.100
460.300	-32.504	0.100
460.400	-40.636	0.100
460.500	-39.135	0.100
460.600	-33.850	0.100
460.700	-30.843	0.100
460.800	-37.726	0.100
460.900	-39.978	0.100
461.000	-34.586	0.100
461.100	-41.312	0.100
461.200	-28.374	0.100
461.300	-29.069	0.100
461.400	-34.261	0.100
461.500	-33.653	0.100
461.600	-33.022	0.100
461.700	-27.250	0.100
461.800	-25.271	0.100
461.900	-23.446	0.100
462.000	-35.522	0.100
462.100	-38.370	0.100
462.200	-39.078	0.100
462.300	-38.701	0.100
462.400	-33.703	0.100
462.500	-37.591	0.100
462.600	-28.121	0.100
462.700	-27.888	0.100
462.800	-32.321	0.100
462.900	-36.328	0.100
463.000	-36.053	0.100
463.100	-30.841	0.100
463.200	-25.595	0.100
463.300	-31.945	0.100
463.400	-30.253	0.100
463.500	-31.646	0.100
463.600	-28.760	0.100
463.700	-34.734	0.100
463.800	-29.894	0.100
463.900	-37.682	0.100
464.000	-34.417	0.100
464.100	-29.100	0.100
464.200	-31.085	0.100
464.300	-40.517	0.100
464.400	-40.818	0.100
464.500	-28.064	0.100
464.600	-35.223	0.100
464.700	-31.881	0.100
464.800	-26.184	0.100
464.900	-25.643	0.100
465.000	-29.956	0.100
465.100	-43.637	0.100
465.200	-35.307	0.100
465.300	-32.798	0.100
465.400	-25.916	0.100
465.500	-37.805	0.100
465.600	-30.139	0.100
465.700	-25.217	0.100
465.800	-33.901	0.100
465.900	-32.561	0.100
466.000	-27.641	0.100
466.100	-36.078	0.100
466.200	-31.989	0.100
466.300	-27.468	0.100
466.400	-40.174	0.100
466.500	-37.944	0.100
466.600	-32.988	0.100
466.700	-22.080	0.100
466.800	-30.497	0.100
466.900	-37.370	0.100
467.000	-31.591	0.100
467.100	-26.248	0.100
467.200	-39.407	0.100
467.300	-30.715	0.100
467.400	-33.735	0.100
467.500	-36.101	0.100
467.600	-24.702	0.100
467.700	-30.103	0.100
467.800	-29.819	0.100
467.900	-29.695	0.100
468.000	-31.733	0.100
468.100	-35.588	0.100
468.200	-29.616	0.100
468.300	-34.304	0.100
468.400	-39.342	0.100
468.500	-32.869	0.100
468.600	-39.992	0.100
468.700	-31.785	0.100
468.800	-29.936	0.100
468.900	-33.105	0.100
469.000	-31.065	0.100
469.100	-34.184	0.100
469.200	-33.213	0.100
469.300	-31.926	0.100
469.400	-41.810	0.100
469.500	-22.049	0.100
469.600	-30.598	0.100
469.700	-29.013	0.100
469.800	-30.186	0.100
469.900	-29.528	0.100
470.000	-29.551	0.100
470.100	-37.774	0.100
470.200	-34.658	0.100
470.300	-32.111	0.100
470.400	-32.826	0.100
470.500	-29.593	0.100
470.600	-34.498	0.100
470.700	-34.976	0.100
470.800	-25.077	0.100
470.900	-25.871	0.100
471.000	-33.523	0.100
471.100	-31.534	0.100
471.200	-34.166	0.100
471.300	-40.182	0.100
471.400	-29.805	0.100
471.500	-31.572	0.100
471.600	-29.974	0.100
471.700	-34.078	0.100
471.800	-30.540	0.100
471.900	-26.924	0.100
472.000	-19.340	0.100
472.100	-33.796	0.100
472.200	-35.109	0.100
472.300	-35.490	0.100
472.400	-37.970	0.100
472.500	-36.018	0.100
472.600	-25.613	0.100
472.700	-24.853	0.100
472.800	-28.952	0.100
472.900	-32.172	0.100
473.000	-28.105	0.100
473.100	-34.187	0.100
473.200	-24.476	0.100
473.300	-25.760	0.100
473.400	-39.160	0.100
473.500	-25.107	0.100
473.600	-35.441	0.100
473.700	-31.864	0.100
473.800	-29.421	0.100
473.900	-28.446	0.100
474.000	-28.554	0.100
474.100	-36.832	0.100
474.200	-29.093	0.100
474.300	-28.698	0.100
474.400	-30.596	0.100
474.500	-28.368	0.100
474.600	-33.252	0.100
474.700	-29.833	0.100
474.800	-40.720	0.100
474.900	-33.229	0.100
475.000	-33.523	0.100
475.100	-27.617	0.100
475.200	-34.103	0.100
475.300	-28.328	0.100
475.400	-36.320	0.100
475.500	-42.944	0.100
475.600	-22.380	0.100
475.700	-17.757	0.100
475.800	-23.573	0.100
475.900	-35.929	0.100
476.000	-28.995	0.100
476.100	-26.792	0.100
476.200	-37.335	0.100
476.300	-27.305	0.100
476.400	-24.731	0.100
476.500	-32.173	0.100
476.600	-31.024	0.100
476.700	-36.151	0.100
476.800	-34.741	0.100
476.900	-32.621	0.100
477.000	-29.614	0.100
477.100	-27.584	0.100
477.200	-35.908	0.100
477.300	-32.942	0.100
477.400	-36.958	0.100
477.500	-21.030	0.100
477.600	-31.766	0.100
477.700	-35.893	0.100
477.800	-33.911	0.100
477.900	-31.865	0.100
478.000	-29.433	0.100
478.100	-21.376	0.100
478.200	-27.508	0.100
478.300	-22.348	0.100
478.400	-32.015	0.100
478.500	-37.169	0.100
478.600	-31.095	0.100
478.700	-23.427	0.100
478.800	-31.944	0.100
478.900	-27.759	0.100
479.000	-28.341	0.100
479.100	-26.101	0.100
479.200	-33.891	0.100
479.300	-22.642	0.100
479.400	-27.059	0.100
479.500	-34.080	0.100
479.600	-35.116	0.100
479.700	-37.446	0.100
479.800	-33.023	0.100
479.900	-26.105	0.100
480.000	-27.549	0.100
480.100	-20.654	0.100
480.200	-25.499	0.100
480.300	-26.895	0.100
480.400	-27.047	0.100
480.500	-29.575	0.100
480.600	-28.013	0.100
480.700	-24.085	0.100
480.800	-22.316	0.100
480.900	-23.268	0.100
481.000	-20.634	0.100
481.100	-18.781	0.100
481.200	-13.487	0.100
481.300	-0.791	0.100
481.400	4.155	0.100
481.500	-2.033	0.100
481.600	11.251	0.100
481.700	15.442	0.100
481.800	19.251	0.100
481.900	6.877	0.100
482.000	19.334	0.100
482.100	14.235	0.100
482.200	14.847	0.100
482.300	14.190	0.100
482.400	14.714	0.100
482.500	17.896	0.100
482.600	8.200	0.100
482.700	20.897	0.100
482.800	24.965	0.100
482.900	27.522	0.100
483.000	31.752	0.100
483.100	18.693	0.100
483.200	21.987	0.100
483.300	23.778	0.100
483.400	18.423	0.100
483.500	18.413	0.100
483.600	18.060	0.100
483.700	21.194	0.100
483.800	22.105	0.100
483.900	12.957	0.100
484.000	20.710	0.100
484.100	25.861	0.100
484.200	29.527	0.100
484.300	25.106	0.100
484.400	28.049	0.100
484.500	24.603	0.100
484.600	20.654	0.100
484.700	20.560	0.100
484.800	22.085	0.100
484.900	18.333	0.100
485.000	29.732	0.100
485.100	15.195	0.100
485.200	16.223	0.100
485.300	20.502	0.100
485.400	23.322	0.100
485.500	19.739	0.100
485.600	16.051	0.100
485.700	14.452	0.100
485.800	17.124	0.100
485.900	14.759	0.100
486.000	22.135	0.100
486.100	20.657	0.100
486.200	11.360	0.100
486.300	17.055	0.100
486.400	18.398	0.100
486.500	20.159	0.100
486.600	17.643	0.100
486.700	14.053	0.100
486.800	20.911	0.100
486.900	12.905	0.100
487.000	20.735	0.100
487.100	15.258	0.100
487.200	17.513	0.100
487.300	20.229	0.100
487.400	12.267	0.100
487.500	16.972	0.100
487.600	18.505	0.100
487.700	22.389	0.100
487.800	16.717	0.100
487.900	15.414	0.100
488.000	13.081	0.100
488.100	14.528	0.100
488.200	19.872	0.100
488.300	16.643	0.100
488.400	23.370	0.100
488.500	7.195	0.100
488.600	20.430	0.100
488.700	26.112	0.100
488.800	20.373	0.100
488.900	31.147	0.100
489.000	28.719	0.100
489.100	24.455	0.100
489.200	18.191	0.100
489.300	23.571	0.100
489.400	7.030	0.100
489.500	14.710	0.100
489.600	26.318	0.100
489.700	25.745	0.100
489.800	33.331	0.100
489.900	19.330	0.100
490.000	25.913	0.100
490.100	30.465	0.100
490.200	25.051	0.100
490.300	28.599	0.100
490.400	28.886	0.100
490.500	27.248	0.100
490.600	30.325	0.100
490.700	23.456	0.100
490.800	24.476	0.100
490.900	30.987	0.100
491.000	27.671	0.100
491.100	19.839	0.100
491.200	23.991	0.100
491.300	16.625	0.100
491.400	22.811	0.100
491.500	30.324	0.100
491.600	25.100	0.100
491.700	29.916	0.100
491.800	35.514	0.100
491.900	32.726	0.100
492.000	32.373	0.100
492.100	28.370	0.100
492.200	18.200	0.100
492.300	32.100	0.100
492.400	28.397	0.100
492.500	35.009	0.100
492.600	35.883	0.100
492.700	25.395	0.100
492.800	31.968	0.100
492.900	28.250	0.100
493.000	28.454	0.100
493.100	33.722	0.100
493.200	31.209	0.100
493.300	24.255	0.100
493.400	26.528	0.100
493.500	36.678	0.100
493.600	37.543	0.100
493.700	34.468	0.100
493.800	34.439	0.100
493.900	32.707	0.100
494.000	36.729	0.100
494.100	31.481	0.100
494.200	27.711	0.100
494.300	39.102	0.100
494.400	37.577	0.100
494.500	40.632	0.100
494.600	32.668	0.100
494.700	31.338	0.100
494.800	49.247	0.100
494.900	44.307	0.100
495.000	33.811	0.100
495.100	46.969	0.100
495.200	42.194	0.100
495.300	44.307	0.100
495.400	41.222	0.100
495.500	38.143	0.100
495.600	43.308	0.100
495.700	41.308	0.100
495.800	37.132	0.100
495.900	31.070	0.100
496.000	47.913	0.100
496.100	46.798	0.100
496.200	42.789	0.100
496.300	39.989	0.100
496.400	45.411	0.100
496.500	52.715	0.100
496.600	45.227	0.100
496.700	50.489	0.100
496.800	45.883	0.100
496.900	44.670	0.100
497.000	45.093	0.100
497.100	43.780	0.100
497.200	40.221	0.100
497.300	51.963	0.100
497.400	53.513	0.100
497.500	53.430	0.100
497.600	48.403	0.100
497.700	52.003	0.100
497.800	47.044	0.100
497.900	50.131	0.100
498.000	57.711	0.100
498.100	44.174	0.100
498.200	60.872	0.100
498.300	65.331	0.100
498.400	53.346	0.100
498.500	57.298	0.100
498.600	51.019	0.100
498.700	54.304	0.100
498.800	55.455	0.100
498.900	47.981	0.100
499.000	45.942	0.100
499.100	54.289	0.100
499.200	55.783	0.100
499.300	63.683	0.100
499.400	57.646	0.100
499.500	49.460	0.100
499.600	51.185	0.100
499.700	63.562	0.100
499.800	55.796	0.100
499.900	53.053	0.100
500.000	65.185	0.100
500.100	54.100	0.100
500.200	58.726	0.100
500.300	57.201	0.100
500.400	69.395	0.100
500.500	57.522	0.100
500.600	64.277	0.100
500.700	56.421	0.100
500.800	65.282	0.100
500.900	74.379	0.100
501.000	69.331	0.100
501.100	66.457	0.100
501.200	67.353	0.100
501.300	62.295	0.100
501.400	59.943	0.100
501.500	55.947	0.100
501.600	65.443	0.100
501.700	60.087	0.100
501.800	61.230	0.100
501.900	69.998	0.100
502.000	61.681	0.100
502.100	58.502	0.100
502.200	68.029	0.100
502.300	70.632	0.100
502.400	59.086	0.100
502.500	71.627	0.100
502.600	64.099	0.100
502.700	65.120	0.100
502.800	60.796	0.100
502.900	64.816	0.100
503.000	70.031	0.100
503.100	72.509	0.100
503.200	61.898	0.100
503.300	67.729	0.100
503.400	73.630	0.100
503.500	61.412	0.100
503.600	68.416	0.100
503.700	69.544	0.100
503.800	64.406	0.100
503.900	63.566	0.100
504.000	61.658	0.100
504.100	69.603	0.100
504.200	63.257	0.100
504.300	65.008	0.100
504.400	66.955	0.100
504.500	66.232	0.100
504.600	75.237	0.100
504.700	71.161	0.100
504.800	65.990	0.100
504.900	62.837	0.100
505.000	66.190	0.100
505.100	75.588	0.100
505.200	70.339	0.100
505.300	62.573	0.100
505.400	70.058	0.100
505.500	64.775	0.100
505.600	65.721	0.100
505.700	66.963	0.100
505.800	64.997	0.100
505.900	60.118	0.100
506.000	67.737	0.100
506.100	63.423	0.100
506.200	67.829	0.100
506.300	64.897	0.100
506.400	70.523	0.100
506.500	66.503	0.100
506.600	71.089	0.100
506.700	65.193	0.100
506.800	67.267	0.100
506.900	79.827	0.100
507.000	60.013	0.100
507.100	64.492	0.100
507.200	68.973	0.100
507.300	69.442	0.100
507.400	70.658	0.100
507.500	67.979	0.100
507.600	66.203	0.100
507.700	68.698	0.100
507.800	73.712	0.100
507.900	70.012	0.100
508.000	65.405	0.100
508.100	56.209	0.100
508.200	63.525	0.100
508.300	63.204	0.100
508.400	66.517	0.100
508.500	63.398	0.100
508.600	64.376	0.100
508.700	68.722	0.100
508.800	58.408	0.100
508.900	61.806	0.100
509.000	58.692	0.100
509.100	65.899	0.100
509.200	75.114	0.100
509.300	67.312	0.100
509.400	58.216	0.100
509.500	65.842	0.100
509.600	74.316	0.100
509.700	74.069	0.100
509.800	64.736	0.100
509.900	60.581	0.100
510.000	62.399	0.100
510.100	66.676	0.100
510.200	57.382	0.100
510.300	69.850	0.100
510.400	69.156	0.100
510.500	64.919	0.100
510.600	74.479	0.100
510.700	72.709	0.100
510.800	62.496	0.100
510.900	55.081	0.100
511.000	74.508	0.100
511.100	65.562	0.100
511.200	60.135	0.100
511.300	61.129	0.100
511.400	61.095	0.100
511.500	62.437	0.100
511.600	68.776	0.100
511.700	66.136	0.100
511.800	64.648	0.100
511.900	66.590	0.100
512.000	59.095	0.100
512.100	69.365	0.100
512.200	74.896	0.100
512.300	59.301	0.100
512.400	66.295	0.100
512.500	59.156	0.100
512.600	58.076	0.100
512.700	72.964	0.100
512.800	65.485	0.100
512.900	58.284	0.100
513.000	65.525	0.100
513.100	59.574	0.100
513.200	61.900	0.100
513.300	58.648	0.100
513.400	62.750	0.100
513.500	61.627	0.100
513.600	60.321	0.100
513.700	50.947	0.100
513.800	65.510	0.100
513.900	72.937	0.100
514.000	71.765	0.100
514.100	69.247	0.100
514.200	61.239	0.100
514.300	62.987	0.100
514.400	59.008	0.100
514.500	64.928	0.100
514.600	63.873	0.100
514.700	55.492	0.100
514.800	67.380	0.100
514.900	69.172	0.100
515.000	57.901	0.100
515.100	62.597	0.100
515.200	58.971	0.100
515.300	73.831	0.100
515.400	64.106	0.100
515.500	62.515	0.100
515.600	61.647	0.100
515.700	63.630	0.100
515.800	63.100	0.100
515.900	56.556	0.100
516.000	52.463	0.100
516.100	59.935	0.100
516.200	68.843	0.100
516.300	61.350	0.100
516.400	63.786	0.100
516.500	59.866	0.100
516.600	62.958	0.100
516.700	55.252	0.100
516.800	65.937	0.100
516.900	64.725	0.100
517.000	65.479	0.100
517.100	59.533	0.100
517.200	57.008	0.100
517.300	52.897	0.100
517.400	63.906	0.100
517.500	62.011	0.100
517.600	65.105	0.100
517.700	59.065	0.100
517.800	70.247	0.100
517.900	58.874	0.100
518.000	52.515	0.100
518.100	70.825	0.100
518.200	63.145	0.100
518.300	61.020	0.100
518.400	65.710	0.100
518.500	70.999	0.100
518.600	65.426	0.100
518.700	61.249	0.100
518.800	56.685	0.100
518.900	67.470	0.100
519.000	61.924	0.100
519.100	60.318	0.100
519.200	63.205	0.100
519.300	57.777	0.100
519.400	55.926	0.100
519.500	57.777	0.100
519.600	65.807	0.100
519.700	73.858	0.100
519.800	62.315	0.100
519.900	62.906	0.100
520.000	54.463	0.100
520.100	59.641	0.100
520.200	65.590	0.100
520.300	58.540	0.100
520.400	63.280	0.100
520.500	75.737	0.100
520.600	66.514	0.100
520.700	61.946	0.100
520.800	53.340	0.100
520.900	62.333	0.100
521.000	60.343	0.100
521.100	58.534	0.100
521.200	63.385	0.100
521.300	63.450	0.100
521.400	64.689	0.100
521.500	53.033	0.100
521.600	59.412	0.100
521.700	59.113	0.100
521.800	57.991	0.100
521.900	53.048	0.100
522.000	64.551	0.100
522.100	60.686	0.100
522.200	63.598	0.100
522.300	63.883	0.100
522.400	69.654	0.100
522.500	54.901	0.100
522.600	60.519	0.100
522.700	59.346	0.100
522.800	55.052	0.100
522.900	51.666	0.100
523.000	59.530	0.100
523.100	63.123	0.100
523.200	68.625	0.100
523.300	61.143	0.100
523.400	65.178	0.100
523.500	59.294	0.100
523.600	61.866	0.100
523.700	73.423	0.100
523.800	61.185	0.100
523.900	59.166	0.100
524.000	59.343	0.100
524.100	69.477	0.100
524.200	64.121	0.100
524.300	60.014	0.100
524.400	67.067	0.100
524.500	64.069	0.100
524.600	63.521	0.100
524.700	57.605	0.100
524.800	57.586	0.100
524.900	53.098	0.100
525.000	59.655	0.100
525.100	64.663	0.100
525.200	54.962	0.100
525.300	64.620	0.100
525.400	59.885	0.100
525.500	54.009	0.100
525.600	59.654	0.100
525.700	65.935	0.100
525.800	56.441	0.100
525.900	63.167	0.100
526.000	53.350	0.100
526.100	61.894	0.100
526.200	63.811	0.100
526.300	64.230	0.100
526.400	57.326	0.100
526.500	55.832	0.100
526.600	60.270	0.100
526.700	61.837	0.100
526.800	61.797	0.100
526.900	53.714	0.100
527.000	60.001	0.100
527.100	67.136	0.100
527.200	64.660	0.100
527.300	56.856	0.100
527.400	59.783	0.100
527.500	57.501	0.100
527.600	55.157	0.100
527.700	63.508	0.100
527.800	58.092	0.100
527.900	55.201	0.100
528.000	58.554	0.100
528.100	61.780	0.100
528.200	60.634	0.100
528.300	54.911	0.100
528.400	55.196	0.100
528.500	58.446	0.100
528.600	64.872	0.100
528.700	53.199	0.100
528.800	62.097	0.100
528.900	72.427	0.100
529.000	62.061	0.100
529.100	61.917	0.100
529.200	50.924	0.100
529.300	64.923	0.100
529.400	54.890	0.100
529.500	60.916	0.100
529.600	72.711	0.100
529.700	71.666	0.100
529.800	52.876	0.100
529.900	52.685	0.100
530.000	55.990	0.100
530.100	59.354	0.100
530.200	55.560	0.100
530.300	56.982	0.100
530.400	64.619	0.100
530.500	62.673	0.100
530.600	56.840	0.100
530.700	62.689	0.100
530.800	60.153	0.100
530.900	58.302	0.100
531.000	59.774	0.100
531.100	61.771	0.100
531.200	56.408	0.100
531.300	60.942	0.100
531.400	58.733	0.100
531.500	61.823	0.100
531.600	64.175	0.100
531.700	58.310	0.100
531.800	61.321	0.100
531.900	62.880	0.100
532.000	60.457	0.100
532.100	57.349	0.100
532.200	49.856	0.100
532.300	62.341	0.100
532.400	55.527	0.100
532.500	55.613	0.100
532.600	71.124	0.100
532.700	61.514	0.100
532.800	55.008	0.100
532.900	60.676	0.100
533.000	52.632	0.100
533.100	54.687	0.100
533.200	63.251	0.100
533.300	58.382	0.100
533.400	60.555	0.100
533.500	60.636	0.100
533.600	53.933	0.100
533.700	60.074	0.100
533.800	61.790	0.100
533.900	57.026	0.100
534.000	63.183	0.100
534.100	54.162	0.100
534.200	61.243	0.100
534.300	64.555	0.100
534.400	60.663	0.100
534.500	51.440	0.100
534.600	58.285	0.100
534.700	67.074	0.100
534.800	60.369	0.100
534.900	48.942	0.100
535.000	56.572	0.100
535.100	67.190	0.100
535.200	63.712	0.100
535.300	47.238	0.100
535.400	59.702	0.100
535.500	59.403	0.100
535.600	62.076	0.100
535.700	57.346	0.100
535.800	64.047	0.100
535.900	54.149	0.100
536.000	54.037	0.100
536.100	53.206	0.100
536.200	50.605	0.100
536.300	56.097	0.100
536.400	51.916	0.100
536.500	63.228	0.100
536.600	56.499	0.100
536.700	56.370	0.100
536.800	60.262	0.100
536.900	61.589	0.100
537.000	66.831	0.100
537.100	57.881	0.100
537.200	58.783	0.100
537.300	56.604	0.100
537.400	52.312	0.100
537.500	63.293	0.100
537.600	56.596	0.100
537.700	57.521	0.100
537.800	56.193	0.100
537.900	59.766	0.100
538.000	61.258	0.100
538.100	59.295	0.100
538.200	64.526	0.100
538.300	61.831	0.100
538.400	57.178	0.100
538.500	60.821	0.100
538.600	50.472	0.100
538.700	56.957	0.100
538.800	54.329	0.100
538.900	59.474	0.100
539.000	63.020	0.100
539.100	58.082	0.100
539.200	50.115	0.100
539.300	49.579	0.100
539.400	63.307	0.100
539.500	60.863	0.100
539.600	58.887	0.100
539.700	64.631	0.100
539.800	63.959	0.100
539.900	63.789	0.100
540.000	60.349	0.100
540.100	51.047	0.100
540.200	49.817	0.100
540.300	52.839	0.100
540.400	60.620	0.100
540.500	66.270	0.100
540.600	58.882	0.100
540.700	47.436	0.100
540.800	48.973	0.100
540.900	53.825	0.100
541.000	45.435	0.100
541.100	35.441	0.100
541.200	27.916	0.100
541.300	33.567	0.100
541.400	25.810	0.100
541.500	22.428	0.100
541.600	11.594	0.100
541.700	15.874	0.100
541.800	12.575	0.100
541.900	10.336	0.100
542.000	5.981	0.100
542.100	11.909	0.100
542.200	8.351	0.100
542.300	0.195	0.100
542.400	-2.819	0.100
542.500	-0.292	0.100
542.600	-0.369	0.100
542.700	-2.182	0.100
542.800	-2.140	0.100
542.900	1.612	0.100
543.000	-7.445	0.100
543.100	-5.831	0.100
543.200	-12.535	0.100
543.300	-6.536	0.100
543.400	-6.901	0.100
543.500	-13.063	0.100
543.600	-10.213	0.100
543.700	-7.901	0.100
543.800	-16.537	0.100
543.900	-12.223	0.100
544.000	-8.473	0.100
544.100	-12.709	0.100
544.200	-3.631	0.100
544.300	-13.468	0.100
544.400	-17.033	0.100
544.500	-7.417	0.100
544.600	-17.405	0.100
544.700	-23.993	0.100
544.800	-20.056	0.100
544.900	-12.499	0.100
545.000	-16.117	0.100
545.100	-12.758	0.100
545.200	-29.762	0.100
545.300	-19.221	0.100
545.400	-8.784	0.100
545.500	-12.007	0.100
545.600	-18.412	0.100
545.700	-27.319	0.100
545.800	-19.171	0.100
545.900	-16.910	0.100
546.000	-17.835	0.100
546.100	-17.149	0.100
546.200	-29.064	0.100
546.300	-21.120	0.100
546.400	-23.015	0.100
546.500	-13.200	0.100
546.600	-22.306	0.100
546.700	-10.485	0.100
546.800	-23.181	0.100
546.900	-18.050	0.100
547.000	-23.859	0.100
547.100	-11.428	0.100
547.200	-6.453	0.100
547.300	-17.014	0.100
547.400	-18.887	0.100
547.500	-20.964	0.100
547.600	-15.770	0.100
547.700	-23.380	0.100
547.800	-7.085	0.100
547.900	-13.086	0.100
548.000	-14.996	0.100
548.100	-25.147	0.100
548.200	-18.101	0.100
548.300	-13.242	0.100
548.400	-14.833	0.100
548.500	-24.742	0.100
548.600	-14.860	0.100
548.700	-13.709	0.100
548.800	-10.731	0.100
548.900	-16.355	0.100
549.000	-20.309	0.100
549.100	-28.395	0.100
549.200	-27.606	0.100
549.300	-23.004	0.100
549.400	-17.267	0.100
549.500	-25.394	0.100
549.600	-17.250	0.100
549.700	-21.429	0.100
549.800	-13.707	0.100
549.900	-18.887	0.100
550.000	-20.615	0.100
550.100	-19.070	0.100
550.200	-12.938	0.100
550.300	-17.609	0.100
550.400	-21.204	0.100
550.500	-11.470	0.100
550.600	-14.994	0.100
550.700	-22.185	0.100
550.800	-19.219	0.100
550.900	-15.908	0.100
551.000	-14.899	0.100
551.100	-20.913	0.100
551.200	-10.620	0.100
551.300	-20.786	0.100
551.400	-18.068	0.100
551.500	-16.918	0.100
551.600	-12.380	0.100
551.700	-22.549	0.100
551.800	-26.867	0.100
551.900	-17.338	0.100
552.000	-8.302	0.100
552.100	-28.596	0.100
552.200	-15.791	0.100
552.300	-17.151	0.100
552.400	-22.825	0.100
552.500	-22.850	0.100
552.600	-13.248	0.100
552.700	-26.464	0.100
552.800	-18.838	0.100
552.900	-24.199	0.100
553.000	-25.142	0.100
553.100	-22.022	0.100
553.200	-20.589	0.100
553.300	-12.676	0.100
553.400	-25.472	0.100
553.500	-22.662	0.100
553.600	-22.018	0.100
553.700	-28.301	0.100
553.800	-30.007	0.100
553.900	-16.800	0.100
554.000	-19.420	0.100
554.100	-18.781	0.100
554.200	-20.574	0.100
554.300	-21.964	0.100
554.400	-19.202	0.100
554.500	-20.703	0.100
554.600	-34.764	0.100
554.700	-30.998	0.100
554.800	-22.737	0.100
554.900	-21.939	0.100
555.000	-25.589	0.100
555.100	-30.243	0.100
555.200	-22.487	0.100
555.300	-23.835	0.100
555.400	-15.477	0.100
555.500	-31.141	0.100
555.600	-25.228	0.100
555.700	-20.188	0.100
555.800	-20.641	0.100
555.900	-19.386	0.100
556.000	-21.112	0.100
556.100	-16.595	0.100
556.200	-24.598	0.100
556.300	-27.036	0.100
556.400	-22.620	0.100
556.500	-25.291	0.100
556.600	-31.293	0.100
556.700	-20.747	0.100
556.800	-19.761	0.100
556.900	-24.411	0.100
557.000	-21.426	0.100
557.100	-25.234	0.100
557.200	-35.781	0.100
557.300	-24.510	0.100
557.400	-27.446	0.100
557.500	-18.806	0.100
557.600	-17.572	0.100
557.700	-21.100	0.100
557.800	-26.911	0.100
557.900	-19.082	0.100
558.000	-19.661	0.100
558.100	-19.686	0.100
558.200	-26.561	0.100
558.300	-26.002	0.100
558.400	-29.815	0.100
558.500	-32.268	0.100
558.600	-21.020	0.100
558.700	-23.757	0.100
558.800	-20.877	0.100
558.900	-29.361	0.100
559.000	-27.605	0.100
559.100	-28.563	0.100
559.200	-27.196	0.100
559.300	-21.491	0.100
559.400	-24.407	0.100
559.500	-31.394	0.100
559.600	-22.664	0.100
559.700	-33.242	0.100
559.800	-27.766	0.100
559.900	-30.410	0.100
560.000	-22.464	0.100
560.100	-27.732	0.100
560.200	-29.908	0.100
560.300	-28.004	0.100
560.400	-32.118	0.100
560.500	-22.866	0.100
560.600	-28.534	0.100
560.700	-24.701	0.100
560.800	-34.036	0.100
560.900	-24.750	0.100
561.000	-29.696	0.100
561.100	-29.105	0.100
561.200	-22.966	0.100
561.300	-36.563	0.100
561.400	-23.413	0.100
561.500	-31.947	0.100
561.600	-37.657	0.100
561.700	-34.889	0.100
561.800	-36.825	0.100
561.900	-29.462	0.100
562.000	-15.153	0.100
562.100	-34.917	0.100
562.200	-23.417	0.100
562.300	-30.814	0.100
562.400	-28.517	0.100
562.500	-25.707	0.100
562.600	-30.932	0.100
562.700	-28.556	0.100
562.800	-32.676	0.100
562.900	-28.727	0.100
563.000	-29.267	0.100
563.100	-32.421	0.100
563.200	-26.024	0.100
563.300	-20.742	0.100
563.400	-27.688	0.100
563.500	-32.166	0.100
563.600	-26.873	0.100
563.700	-30.602	0.100
563.800	-28.681	0.100
563.900	-30.980	0.100
564.000	-31.290	0.100
564.100	-34.776	0.100
564.200	-29.944	0.100
564.300	-36.008	0.100
564.400	-23.549	0.100
564.500	-31.109	0.100
564.600	-39.355	0.100
564.700	-29.016	0.100
564.800	-32.895	0.100
564.900	-31.152	0.100
565.000	-29.105	0.100
565.100	-34.217	0.100
565.200	-26.046	0.100
565.300	-33.772	0.100
565.400	-33.752	0.100
565.500	-30.681	0.100
565.600	-27.651	0.100
565.700	-31.280	0.100
565.800	-29.932	0.100
565.900	-40.774	0.100
566.000	-32.146	0.100
566.100	-37.948	0.100
566.200	-26.245	0.100
566.300	-36.071	0.100
566.400	-32.300	0.100
566.500	-22.036	0.100
566.600	-27.231	0.100
566.700	-40.814	0.100
566.800	-27.013	0.100
566.900	-32.174	0.100
567.000	-38.791	0.100
567.100	-32.244	0.100
567.200	-35.686	0.100
567.300	-30.404	0.100
567.400	-38.195	0.100
567.500	-29.479	0.100
567.600	-29.209	0.100
567.700	-30.039	0.100
567.800	-33.919	0.100
567.900	-35.230	0.100
568.000	-38.503	0.100
568.100	-21.653	0.100
568.200	-34.670	0.100
568.300	-32.664	0.100
568.400	-37.822	0.100
568.500	-36.661	0.100
568.600	-30.389	0.100
568.700	-30.186	0.100
568.800	-33.516	0.100
568.900	-35.898	0.100
569.000	-41.497	0.100
569.100	-28.093	0.100
569.200	-32.172	0.100
569.300	-36.662	0.100
569.400	-29.628	0.100
569.500	-29.409	0.100
569.600	-33.849	0.100
569.700	-30.833	0.100
569.800	-28.368	0.100
569.900	-43.475	0.100
570.000	-35.423	0.100
570.100	-37.905	0.100
570.200	-30.904	0.100
570.300	-26.224	0.100
570.400	-27.564	0.100
570.500	-32.009	0.100
570.600	-36.904	0.100
570.700	-40.056	0.100
570.800	-32.192	0.100
570.900	-35.597	0.100
571.000	-38.097	0.100
571.100	-34.785	0.100
571.200	-35.458	0.100
571.300	-33.940	0.100
571.400	-30.012	0.100
571.500	-31.595	0.100
571.600	-38.299	0.100
571.700	-36.991	0.100
571.800	-33.775	0.100
571.900	-36.657	0.100
572.000	-35.073	0.100
572.100	-45.849	0.100
572.200	-39.801	0.100
572.300	-31.389	0.100
572.400	-37.355	0.100
572.500	-32.755	0.100
572.600	-26.555	0.100
572.700	-38.873	0.100
572.800	-40.918	0.100
572.900	-45.626	0.100
573.000	-29.338	0.100
573.100	-32.851	0.100
573.200	-48.952	0.100
573.300	-32.416	0.100
573.400	-33.260	0.100
573.500	-34.367	0.100
573.600	-41.651	0.100
573.700	-36.990	0.100
573.800	-38.191	0.100
573.900	-43.622	0.100
574.000	-39.820	0.100
574.100	-35.842	0.100
574.200	-30.992	0.100
574.300	-40.371	0.100
574.400	-42.672	0.100
574.500	-48.822	0.100
574.600	-41.191	0.100
574.700	-33.072	0.100
574.800	-41.105	0.100
574.900	-35.435	0.100
575.000	-33.115	0.100
575.100	-35.804	0.100
575.200	-38.152	0.100
575.300	-40.391	0.100
575.400	-43.425	0.100
575.500	-35.321	0.100
575.600	-39.092	0.100
575.700	-38.354	0.100
575.800	-39.961	0.100
575.900	-53.798	0.100
576.000	-43.387	0.100
576.100	-39.709	0.100
576.200	-30.086	0.100
576.300	-30.011	0.100
576.400	-40.198	0.100
576.500	-45.718	0.100
576.600	-39.011	0.100
576.700	-33.736	0.100
576.800	-51.579	0.100
576.900	-39.414	0.100
577.000	-35.270	0.100
577.100	-36.350	0.100
577.200	-36.405	0.100
577.300	-33.198	0.100
577.400	-37.524	0.100
577.500	-36.943	0.100
577.600	-37.918	0.100
577.700	-42.341	0.100
577.800	-38.757	0.100
577.900	-46.774	0.100
578.000	-32.882	0.100
578.100	-41.106	0.100
578.200	-41.767	0.100
578.300	-35.064	0.100
578.400	-45.707	0.100
578.500	-39.815	0.100
578.600	-36.753	0.100
578.700	-45.246	0.100
578.800	-41.050	0.100
578.900	-32.849	0.100
579.000	-42.304	0.100
579.100	-32.932	0.100
579.200	-33.377	0.100
579.300	-30.461	0.100
579.400	-39.728	0.100
579.500	-41.959	0.100
579.600	-37.575	0.100
579.700	-37.387	0.100
579.800	-38.369	0.100
579.900	-44.273	0.100
580.000	-43.160	0.100
580.100	-41.368	0.100
580.200	-39.621	0.100
580.300	-49.261	0.100
580.400	-49.617	0.100
580.500	-41.013	0.100
580.600	-28.307	0.100
580.700	-51.375	0.100
580.800	-37.267	0.100
580.900	-34.174	0.100
581.000	-35.376	0.100
581.100	-40.214	0.100
581.200	-43.271	0.100
581.300	-41.530	0.100
581.400	-43.422	0.100
581.500	-43.004	0.100
581.600	-40.350	0.100
581.700	-38.166	0.100
581.800	-41.278	0.100
581.900	-40.284	0.100
582.000	-31.127	0.100
582.100	-44.860	0.100
582.200	-34.769	0.100
582.300	-37.259	0.100
582.400	-42.186	0.100
582.500	-47.143	0.100
582.600	-37.936	0.100
582.700	-38.417	0.100
582.800	-42.909	0.100
582.900	-37.214	0.100
583.000	-29.747	0.100
583.100	-36.431	0.100
583.200	-40.266	0.100
583.300	-43.006	0.100
583.400	-44.819	0.100
583.500	-41.375	0.100
583.600	-52.576	0.100
583.700	-41.374	0.100
583.800	-45.416	0.100
583.900	-50.282	0.100
584.000	-39.740	0.100
584.100	-32.388	0.100
584.200	-41.666	0.100
584.300	-36.243	0.100
584.400	-45.163	0.100
584.500	-37.403	0.100
584.600	-40.930	0.100
584.700	-38.852	0.100
584.800	-37.752	0.100
584.900	-33.449	0.100
585.000	-37.179	0.100
585.100	-42.308	0.100
585.200	-46.522	0.100
585.300	-47.940	0.100
585.400	-31.257	0.100
585.500	-45.441	0.100
585.600	-39.893	0.100
585.700	-41.179	0.100
585.800	-42.484	0.100
585.900	-42.292	0.100
586.000	-40.257	0.100
586.100	-39.802	0.100
586.200	-37.888	0.100
586.300	-39.006	0.100
586.400	-40.482	0.100
586.500	-35.871	0.100
586.600	-44.404	0.100
586.700	-31.788	0.100
586.800	-29.235	0.100
586.900	-31.247	0.100
587.000	-36.188	0.100
587.100	-45.580	0.100
587.200	-39.179	0.100
587.300	-37.269	0.100
587.400	-38.021	0.100
587.500	-37.815	0.100
587.600	-46.173	0.100
587.700	-32.452	0.100
587.800	-39.130	0.100
587.900	-42.345	0.100
588.000	-43.585	0.100
588.100	-43.571	0.100
588.200	-36.363	0.100
588.300	-37.036	0.100
588.400	-42.962	0.100
588.500	-51.180	0.100
588.600	-34.172	0.100
588.700	-35.796	0.100
588.800	-32.453	0.100
588.900	-41.314	0.100
589.000	-42.747	0.100
589.100	-46.902	0.100
589.200	-46.320	0.100
589.300	-35.056	0.100
589.400	-41.163	0.100
589.500	-45.348	0.100
589.600	-36.167	0.100
589.700	-37.418	0.100
589.800	-42.459	0.100
589.900	-35.885	0.100
590.000	-38.132	0.100
590.100	-34.814	0.100
590.200	-39.284	0.100
590.300	-38.316	0.100
590.400	-33.821	0.100
590.500	-38.755	0.100
590.600	-44.196	0.100
590.700	-42.927	0.100
590.800	-45.261	0.100
590.900	-37.613	0.100
591.000	-45.954	0.100
591.100	-41.007	0.100
591.200	-40.150	0.100
591.300	-43.325	0.100
591.400	-33.492	0.100
591.500	-39.408	0.100
591.600	-36.378	0.100
591.700	-39.241	0.100
591.800	-34.013	0.100
591.900	-39.815	0.100
592.000	-38.624	0.100
592.100	-42.310	0.100
592.200	-46.557	0.100
592.300	-45.254	0.100
592.400	-23.194	0.100
592.500	-47.859	0.100
592.600	-47.116	0.100
592.700	-50.190	0.100
592.800	-37.098	0.100
592.900	-33.996	0.100
593.000	-42.923	0.100
593.100	-26.942	0.100
593.200	-41.005	0.100
593.300	-39.219	0.100
593.400	-39.637	0.100
593.500	-41.899	0.100
593.600	-39.084	0.100
593.700	-31.119	0.100
593.800	-35.785	0.100
593.900	-31.998	0.100
594.000	-34.116	0.100
594.100	-46.200	0.100
594.200	-39.238	0.100
594.300	-34.650	0.100
594.400	-34.926	0.100
594.500	-33.995	0.100
594.600	-35.507	0.100
594.700	-41.434	0.100
594.800	-38.445	0.100
594.900	-29.716	0.100
595.000	-51.931	0.100
595.100	-46.407	0.100
595.200	-48.383	0.100
595.300	-40.048	0.100
595.400	-49.597	0.100
595.500	-38.480	0.100
595.600	-37.934	0.100
595.700	-31.333	0.100
595.800	-43.898	0.100
595.900	-37.576	0.100
596.000	-30.227	0.100
596.100	-36.784	0.100
596.200	-39.344	0.100
596.300	-32.928	0.100
596.400	-45.223	0.100
596.500	-38.738	0.100
596.600	-43.310	0.100
596.700	-36.956	0.100
596.800	-47.109	0.100
596.900	-37.536	0.100
597.000	-37.076	0.100
597.100	-37.369	0.100
597.200	-32.687	0.100
597.300	-44.111	0.100
597.400	-39.641	0.100
597.500	-41.205	0.100
597.600	-40.638	0.100
597.700	-40.311	0.100
597.800	-34.445	0.100
597.900	-38.162	0.100
598.000	-33.210	0.100
598.100	-24.635	0.100
598.200	-36.830	0.100
598.300	-51.062	0.100
598.400	-31.043	0.100
598.500	-45.819	0.100
598.600	-32.393	0.100
598.700	-29.498	0.100
598.800	-36.304	0.100
598.900	-34.274	0.100
599.000	-30.926	0.100
599.100	-30.228	0.100
599.200	-38.609	0.100
599.300	-44.055	0.100
599.400	-29.080	0.100
599.500	-24.405	0.100
599.600	-42.995	0.100
599.700	-50.862	0.100
599.800	-38.915	0.100
599.900	-36.494	0.100
600.000	-48.878	0.100
600.100	-38.054	0.100
600.200	-33.956	0.100
600.300	-37.777	0.100
600.400	-33.393	0.100
600.500	-31.162	0.100
600.600	-39.674	0.100
600.700	-31.540	0.100
600.800	-37.447	0.100
600.900	-40.035	0.100
601.000	-41.424	0.100
601.100	-32.660	0.100
601.200	-37.238	0.100
601.300	-41.726	0.100
601.400	-33.837	0.100
601.500	-36.643	0.100
601.600	-40.535	0.100
601.700	-47.312	0.100
601.800	-36.230	0.100
601.900	-31.999	0.100
602.000	-36.119	0.100
602.100	-33.814	0.100
602.200	-36.821	0.100
602.300	-35.830	0.100
602.400	-40.116	0.100
602.500	-36.351	0.100
602.600	-32.056	0.100
602.700	-39.175	0.100
602.800	-35.344	0.100
602.900	-43.122	0.100
603.000	-35.973	0.100
603.100	-30.056	0.100
603.200	-40.837	0.100
603.300	-38.152	0.100
603.400	-32.762	0.100
603.500	-37.317	0.100
603.600	-34.235	0.100
603.700	-29.495	0.100
603.800	-47.654	0.100
603.900	-36.292	0.100
604.000	-42.135	0.100
604.100	-39.584	0.100
604.200	-30.363	0.100
604.300	-40.672	0.100
604.400	-34.141	0.100
604.500	-32.350	0.100
604.600	-35.472	0.100
604.700	-34.513	0.100
604.800	-35.177	0.100
604.900	-40.559	0.100
605.000	-41.264	0.100
605.100	-39.336	0.100
605.200	-41.262	0.100
605.300	-40.375	0.100
605.400	-36.498	0.100
605.500	-38.553	0.100
605.600	-30.861	0.100
605.700	-35.245	0.100
605.800	-38.594	0.100
605.900	-39.995	0.100
606.000	-32.205	0.100
606.100	-46.072	0.100
606.200	-35.974	0.100
606.300	-32.908	0.100
606.400	-44.454	0.100
606.500	-39.018	0.100
606.600	-32.195	0.100
606.700	-33.619	0.100
606.800	-42.147	0.100
606.900	-41.844	0.100
607.000	-30.097	0.100
607.100	-33.763	0.100
607.200	-30.659	0.100
607.300	-40.160	0.100
607.400	-49.153	0.100
607.500	-36.598	0.100
607.600	-39.387	0.100
607.700	-31.243	0.100
607.800	-29.924	0.100
607.900	-35.371	0.100
608.000	-40.577	0.100
608.100	-37.212	0.100
608.200	-37.832	0.100
608.300	-34.808	0.100
608.400	-42.549	0.100
608.500	-41.746	0.100
608.600	-38.750	0.100
608.700	-36.652	0.100
608.800	-38.239	0.100
608.900	-28.554	0.100
609.000	-36.872	0.100
609.100	-35.436	0.100
609.200	-34.934	0.100
609.300	-33.892	0.100
609.400	-32.060	0.100
609.500	-36.374	0.100
609.600	-30.427	0.100
609.700	-27.315	0.100
609.800	-28.086	0.100
609.900	-36.434	0.100
610.000	-44.033	0.100
610.100	-34.052	0.100
610.200	-34.285	0.100
610.300	-33.378	0.100
610.400	-32.059	0.100
610.500	-37.819	0.100
610.600	-34.415	0.100
610.700	-41.844	0.100
610.800	-35.094	0.100
610.900	-30.492	0.100
611.000	-32.294	0.100
611.100	-33.554	0.100
611.200	-37.930	0.100
611.300	-36.307	0.100
611.400	-38.329	0.100
611.500	-45.707	0.100
611.600	-35.107	0.100
611.700	-31.101	0.100
611.800	-41.221	0.100
611.900	-36.030	0.100
612.000	-40.554	0.100
612.100	-32.669	0.100
612.200	-38.502	0.100
612.300	-34.836	0.100
612.400	-27.182	0.100
612.500	-28.293	0.100
612.600	-32.832	0.100
612.700	-29.827	0.100
612.800	-39.849	0.100
612.900	-43.443	0.100
613.000	-32.094	0.100
613.100	-44.738	0.100
613.200	-42.729	0.100
613.300	-36.111	0.100
613.400	-36.110	0.100
613.500	-33.868	0.100
613.600	-32.475	0.100
613.700	-41.915	0.100
613.800	-32.683	0.100
613.900	-24.736	0.100
614.000	-33.213	0.100
614.100	-32.742	0.100
614.200	-38.770	0.100
614.300	-38.565	0.100
614.400	-24.940	0.100
614.500	-37.907	0.100
614.600	-31.018	0.100
614.700	-22.118	0.100
614.800	-23.989	0.100
614.900	-30.430	0.100
615.000	-36.303	0.100
615.100	-44.274	0.100
615.200	-37.702	0.100
615.300	-26.161	0.100
615.400	-30.067	0.100
615.500	-36.873	0.100
615.600	-32.694	0.100
615.700	-28.977	0.100
615.800	-42.431	0.100
615.900	-34.240	0.100
616.000	-25.238	0.100
616.100	-32.341	0.100
616.200	-30.094	0.100
616.300	-37.183	0.100
616.400	-37.505	0.100
616.500	-40.372	0.100
616.600	-37.781	0.100
616.700	-33.994	0.100
616.800	-28.652	0.100
616.900	-40.562	0.100
617.000	-25.820	0.100
617.100	-32.807	0.100
617.200	-32.250	0.100
617.300	-40.196	0.100
617.400	-29.451	0.100
617.500	-46.810	0.100
617.600	-42.003	0.100
617.700	-34.722	0.100
617.800	-28.353	0.100
617.900	-36.866	0.100
618.000	-38.724	0.100
618.100	-32.852	0.100
618.200	-35.144	0.100
618.300	-36.395	0.100
618.400	-23.245	0.100
618.500	-35.198	0.100
618.600	-21.973	0.100
618.700	-32.989	0.100
618.800	-38.748	0.100
618.900	-37.399	0.100
619.000	-30.015	0.100
619.100	-29.568	0.100
619.200	-40.874	0.100
619.300	-30.828	0.100
619.400	-32.550	0.100
619.500	-36.908	0.100
619.600	-26.875	0.100
619.700	-21.525	0.100
619.800	-33.682	0.100
619.900	-30.534	0.100
620.000	-30.693	0.100
620.100	-33.960	0.100
620.200	-40.713	0.100
620.300	-43.709	0.100
620.400	-27.998	0.100
620.500	-25.004	0.100
620.600	-33.228	0.100
620.700	-32.426	0.100
620.800	-32.036	0.100
620.900	-33.735	0.100
621.000	-39.153	0.100
621.100	-34.072	0.100
621.200	-34.117	0.100
621.300	-38.489	0.100
621.400	-21.566	0.100
621.500	-32.132	0.100
621.600	-30.447	0.100
621.700	-29.664	0.100
621.800	-36.658	0.100
621.900	-32.032	0.100
622.000	-38.245	0.100
622.100	-32.673	0.100
622.200	-19.864	0.100
622.300	-27.714	0.100
622.400	-37.709	0.100
622.500	-26.771	0.100
622.600	-40.462	0.100
622.700	-29.170	0.100
622.800	-30.509	0.100
622.900	-38.833	0.100
623.000	-33.635	0.100
623.100	-36.628	0.100
623.200	-19.962	0.100
623.300	-34.196	0.100
623.400	-37.763	0.100
623.500	-29.852	0.100
623.600	-33.934	0.100
623.700	-26.445	0.100
623.800	-33.971	0.100
623.900	-25.483	0.100
624.000	-30.729	0.100
624.100	-27.135	0.100
624.200	-33.938	0.100
624.300	-34.805	0.100
624.400	-34.541	0.100
624.500	-43.068	0.100
624.600	-27.314	0.100
624.700	-32.713	0.100
624.800	-28.955	0.100
624.900	-39.142	0.100
625.000	-23.481	0.100
625.100	-25.476	0.100
625.200	-37.300	0.100
625.300	-33.001	0.100
625.400	-21.727	0.100
625.500	-25.680	0.100
625.600	-27.317	0.100
625.700	-26.916	0.100
625.800	-35.134	0.100
625.900	-31.523	0.100
626.000	-38.685	0.100
626.100	-23.637	0.100
626.200	-31.824	0.100
626.300	-20.864	0.100
626.400	-32.787	0.100
626.500	-28.331	0.100
626.600	-34.385	0.100
626.700	-23.245	0.100
626.800	-31.845	0.100
626.900	-37.196	0.100
627.000	-25.607	0.100
627.100	-37.149	0.100
627.200	-37.526	0.100
627.300	-38.756	0.100
627.400	-29.601	0.100
627.500	-26.006	0.100
627.600	-30.970	0.100
627.700	-29.940	0.100
627.800	-26.664	0.100
627.900	-32.372	0.100
628.000	-33.376	0.100
628.100	-26.854	0.100
628.200	-32.078	0.100
628.300	-31.737	0.100
628.400	-34.707	0.100
628.500	-39.526	0.100
628.600	-29.096	0.100
628.700	-27.923	0.100
628.800	-31.197	0.100
628.900	-36.274	0.100
629.000	-31.871	0.100
629.100	-23.086	0.100
629.200	-28.721	0.100
629.300	-34.118	0.100
629.400	-28.869	0.100
629.500	-21.262	0.100
629.600	-28.210	0.100
629.700	-30.976	0.100
629.800	-31.556	0.100
629.900	-32.490	0.100
630.000	-34.930	0.100
630.100	-39.724	0.100
630.200	-20.337	0.100
630.300	-24.092	0.100
630.400	-41.943	0.100
630.500	-32.834	0.100
630.600	-28.373	0.100
630.700	-22.635	0.100
630.800	-33.979	0.100
630.900	-18.480	0.100
631.000	-19.556	0.100
631.100	-17.844	0.100
631.200	-17.901	0.100
631.300	2.407	0.100
631.400	1.322	0.100
631.500	-1.660	0.100
631.600	4.783	0.100
631.700	3.705	0.100
631.800	6.968	0.100
631.900	5.421	0.100
632.000	11.368	0.100
632.100	15.995	0.100
632.200	10.653	0.100
632.300	20.040	0.100
632.400	10.845	0.100
632.500	13.702	0.100
632.600	22.548	0.100
632.700	16.887	0.100
632.800	14.698	0.100
632.900	16.910	0.100
633.000	18.804	0.100
633.100	17.651	0.100
633.200	22.419	0.100
633.300	36.771	0.100
633.400	21.418	0.100
633.500	14.156	0.100
633.600	18.079	0.100
633.700	31.035	0.100
633.800	20.016	0.100
633.900	28.711	0.100
634.000	19.028	0.100
634.100	15.143	0.100
634.200	16.371	0.100
634.300	23.138	0.100
634.400	9.374	0.100
634.500	27.913	0.100
634.600	20.432	0.100
634.700	22.494	0.100
634.800	23.501	0.100
634.900	21.562	0.100
635.000	22.463	0.100
635.100	34.718	0.100
635.200	25.327	0.100
635.300	19.527	0.100
635.400	14.406	0.100
635.500	23.084	0.100
635.600	27.240	0.100
635.700	15.303	0.100
635.800	25.277	0.100
635.900	27.144	0.100
636.000	14.269	0.100
636.100	22.633	0.100
636.200	24.298	0.100
636.300	14.797	0.100
636.400	18.969	0.100
636.500	20.406	0.100
636.600	13.534	0.100
636.700	13.913	0.100
636.800	16.041	0.100
636.900	12.114	0.100
637.000	16.032	0.100
637.100	23.520	0.100
637.200	20.551	0.100
637.300	24.061	0.100
637.400	23.130	0.100
637.500	16.859	0.100
637.600	14.978	0.100
637.700	19.704	0.100
637.800	20.885	0.100
637.900	17.876	0.100
638.000	16.603	0.100
638.100	7.216	0.100
638.200	21.271	0.100
638.300	16.835	0.100
638.400	18.511	0.100
638.500	22.940	0.100
638.600	19.094	0.100
638.700	26.058	0.100
638.800	11.396	0.100
638.900	21.522	0.100
639.000	33.224	0.100
639.100	16.805	0.100
639.200	20.548	0.100
639.300	18.630	0.100
639.400	21.296	0.100
639.500	28.363	0.100
639.600	27.416	0.100
639.700	22.282	0.100
639.800	31.053	0.100
639.900	23.997	0.100
640.000	18.147	0.100
640.100	18.518	0.100
640.200	20.327	0.100
640.300	21.058	0.100
640.400	22.522	0.100
640.500	25.291	0.100
640.600	26.857	0.100
640.700	26.369	0.100
640.800	25.518	0.100
640.900	29.008	0.100
641.000	19.528	0.100
641.100	15.952	0.100
641.200	30.973	0.100
641.300	27.255	0.100
641.400	29.672	0.100
641.500	28.280	0.100
641.600	28.414	0.100
641.700	22.767	0.100
641.800	19.679	0.100
641.900	24.816	0.100
642.000	28.450	0.100
642.100	24.641	0.100
642.200	21.021	0.100
642.300	29.056	0.100
642.400	21.874	0.100
642.500	27.822	0.100
642.600	33.836	0.100
642.700	31.113	0.100
642.800	33.156	0.100
642.900	29.771	0.100
643.000	24.103	0.100
643.100	31.865	0.100
643.200	30.582	0.100
643.300	34.977	0.100
643.400	41.509	0.100
643.500	33.916	0.100
643.600	24.366	0.100
643.700	31.538	0.100
643.800	32.695	0.100
643.900	31.218	0.100
644.000	33.011	0.100
644.100	31.958	0.100
644.200	37.233	0.100
644.300	40.222	0.100
644.400	29.523	0.100
644.500	36.790	0.100
644.600	37.208	0.100
644.700	37.143	0.100
644.800	36.964	0.100
644.900	36.128	0.100
645.000	29.156	0.100
645.100	35.473	0.100
645.200	22.816	0.100
645.300	39.733	0.100
645.400	33.998	0.100
645.500	41.813	0.100
645.600	45.665	0.100
645.700	46.370	0.100
645.800	39.377	0.100
645.900	39.953	0.100
646.000	35.149	0.100
646.100	35.787	0.100
646.200	48.922	0.100
646.300	37.946	0.100
646.400	50.161	0.100
646.500	45.748	0.100
646.600	46.443	0.100
646.700	41.696	0.100
646.800	49.837	0.100
646.900	47.582	0.100
647.000	39.291	0.100
647.100	47.328	0.100
647.200	40.555	0.100
647.300	43.389	0.100
647.400	47.433	0.100
647.500	44.316	0.100
647.600	46.291	0.100
647.700	61.575	0.100
647.800	48.314	0.100
647.900	34.620	0.100
648.000	44.447	0.100
648.100	46.152	0.100
648.200	44.950	0.100
648.300	54.638	0.100
648.400	53.649	0.100
648.500	53.881	0.100
648.600	52.656	0.100
648.700	56.804	0.100
648.800	58.894	0.100
648.900	47.129	0.100
649.000	46.816	0.100
649.100	51.264	0.100
649.200	50.473	0.100
649.300	53.732	0.100
649.400	51.808	0.100
649.500	59.130	0.100
649.600	52.730	0.100
649.700	59.268	0.100
649.800	53.398	0.100
649.900	49.586	0.100
650.000	56.879	0.100
650.100	62.669	0.100
650.200	58.439	0.100
650.300	52.108	0.100
650.400	51.841	0.100
650.500	53.109	0.100
650.600	60.189	0.100
650.700	68.609	0.100
650.800	57.438	0.100
650.900	64.942	0.100
651.000	56.772	0.100
651.100	49.354	0.100
651.200	60.332	0.100
651.300	60.078	0.100
651.400	62.561	0.100
651.500	54.045	0.100
651.600	60.457	0.100
651.700	65.481	0.100
651.800	60.681	0.100
651.900	67.454	0.100
652.000	61.103	0.100
652.100	70.357	0.100
652.200	62.475	0.100
652.300	63.566	0.100
652.400	61.571	0.100
652.500	65.378	0.100
652.600	64.182	0.100
652.700	66.333	0.100
652.800	72.491	0.100
652.900	67.346	0.100
653.000	66.524	0.100
653.100	64.512	0.100
653.200	51.672	0.100
653.300	51.585	0.100
653.400	61.535	0.100
653.500	60.044	0.100
653.600	60.591	0.100
653.700	81.094	0.100
653.800	74.595	0.100
653.900	67.108	0.100
654.000	65.328	0.100
654.100	64.789	0.100
654.200	68.271	0.100
654.300	57.947	0.100
654.400	62.761	0.100
654.500	63.229	0.100
654.600	67.806	0.100
654.700	53.618	0.100
654.800	74.450	0.100
654.900	64.273	0.100
655.000	67.534	0.100
655.100	75.490	0.100
655.200	66.016	0.100
655.300	65.019	0.100
655.400	62.632	0.100
655.500	69.586	0.100
655.600	66.920	0.100
655.700	66.838	0.100
655.800	61.859	0.100
655.900	62.432	0.100
656.000	62.996	0.100
656.100	65.024	0.100
656.200	67.739	0.100
656.300	57.520	0.100
656.400	71.065	0.100
656.500	57.493	0.100
656.600	71.944	0.100
656.700	69.062	0.100
656.800	71.846	0.100
656.900	60.882	0.100
657.000	65.807	0.100
657.100	58.549	0.100
657.200	68.374	0.100
657.300	67.923	0.100
657.400	58.161	0.100
657.500	66.233	0.100
657.600	67.054	0.100
657.700	61.236	0.100
657.800	69.578	0.100
657.900	73.005	0.100
658.000	62.375	0.100
658.100	64.432	0.100
658.200	70.439	0.100
658.300	71.210	0.100
658.400	64.164	0.100
658.500	56.833	0.100
658.600	71.900	0.100
658.700	72.523	0.100
658.800	72.901	0.100
658.900	66.120	0.100
659.000	58.919	0.100
659.100	71.894	0.100
659.200	60.459	0.100
659.300	63.853	0.100
659.400	70.388	0.100
659.500	70.841	0.100
659.600	62.730	0.100
659.700	57.610	0.100
659.800	72.784	0.100
659.900	68.736	0.100
660.000	60.774	0.100
660.100	68.556	0.100
660.200	74.624	0.100
660.300	68.246	0.100
660.400	58.114	0.100
660.500	59.899	0.100
660.600	69.295	0.100
660.700	62.406	0.100
660.800	60.657	0.100
660.900	69.861	0.100
661.000	59.083	0.100
661.100	66.185	0.100
661.200	57.756	0.100
661.300	60.857	0.100
661.400	62.451	0.100
661.500	71.931	0.100
661.600	64.641	0.100
661.700	66.715	0.100
661.800	55.841	0.100
661.900	68.053	0.100
662.000	69.426	0.100
662.100	66.996	0.100
662.200	66.017	0.100
662.300	56.493	0.100
662.400	64.744	0.100
662.500	67.027	0.100
662.600	56.679	0.100
662.700	64.898	0.100
662.800	70.278	0.100
662.900	60.821	0.100
663.000	62.078	0.100
663.100	52.687	0.100
663.200	71.155	0.100
663.300	75.301	0.100
663.400	62.284	0.100
663.500	51.958	0.100
663.600	60.299	0.100
663.700	68.212	0.100
663.800	73.001	0.100
663.900	68.511	0.100
664.000	62.146	0.100
664.100	66.235	0.100
664.200	70.584	0.100
664.300	61.269	0.100
664.400	65.067	0.100
664.500	67.775	0.100
664.600	66.387	0.100
664.700	58.452	0.100
664.800	57.083	0.100
664.900	49.200	0.100
665.000	52.211	0.100
665.100	58.144	0.100
665.200	64.509	0.100
665.300	60.645	0.100
665.400	58.500	0.100
665.500	58.377	0.100
665.600	74.966	0.100
665.700	65.217	0.100
665.800	61.548	0.100
665.900	63.629	0.100
666.000	62.059	0.100
666.100	58.138	0.100
666.200	61.300	0.100
666.300	62.492	0.100
666.400	57.934	0.100
666.500	52.340	0.100
666.600	59.433	0.100
666.700	64.556	0.100
666.800	64.192	0.100
666.900	61.951	0.100
667.000	66.201	0.100
667.100	61.946	0.100
667.200	60.009	0.100
667.300	53.709	0.100
667.400	55.169	0.100
667.500	61.409	0.100
667.600	68.658	0.100
667.700	64.882	0.100
667.800	58.845	0.100
667.900	63.658	0.100
668.000	66.235	0.100
668.100	61.710	0.100
668.200	60.137	0.100
668.300	67.218	0.100
668.400	60.658	0.100
668.500	51.727	0.100
668.600	68.211	0.100
668.700	66.827	0.100
668.800	59.328	0.100
668.900	67.231	0.100
669.000	58.695	0.100
669.100	63.840	0.100
669.200	62.926	0.100
669.300	55.344	0.100
669.400	63.085	0.100
669.500	64.154	0.100
669.600	63.584	0.100
669.700	64.958	0.100
669.800	52.315	0.100
669.900	64.216	0.100
670.000	64.864	0.100
670.100	60.113	0.100
670.200	64.632	0.100
670.300	57.845	0.100
670.400	56.383	0.100
670.500	60.862	0.100
670.600	59.767	0.100
670.700	61.313	0.100
670.800	65.336	0.100
670.900	57.415	0.100
671.000	64.575	0.100
671.100	59.808	0.100
671.200	62.799	0.100
671.300	62.368	0.100
671.400	69.012	0.100
671.500	66.477	0.100
671.600	55.858	0.100
671.700	53.852	0.100
671.800	53.647	0.100
671.900	59.231	0.100
672.000	57.922	0.100
672.100	66.111	0.100
672.200	55.856	0.100
672.300	55.419	0.100
672.400	61.998	0.100
672.500	66.797	0.100
672.600	61.208	0.100
672.700	65.106	0.100
672.800	54.484	0.100
672.900	56.922	0.100
673.000	56.616	0.100
673.100	70.840	0.100
673.200	51.442	0.100
673.300	60.404	0.100
673.400	58.112	0.100
673.500	62.867	0.100
673.600	63.308	0.100
673.700	51.819	0.100
673.800	63.149	0.100
673.900	60.851	0.100
674.000	62.732	0.100
674.100	55.841	0.100
674.200	59.300	0.100
674.300	73.005	0.100
674.400	67.327	0.100
674.500	59.848	0.100
674.600	62.600	0.100
674.700	58.548	0.100
674.800	65.508	0.100
674.900	61.098	0.100
675.000	68.879	0.100
675.100	54.411	0.100
675.200	54.575	0.100
675.300	50.106	0.100
675.400	66.860	0.100
675.500	56.661	0.100
675.600	56.522	0.100
675.700	55.962	0.100
675.800	60.654	0.100
675.900	60.352	0.100
676.000	60.289	0.100
676.100	62.295	0.100
676.200	58.447	0.100
676.300	68.983	0.100
676.400	72.427	0.100
676.500	53.924	0.100
676.600	66.584	0.100
676.700	59.072	0.100
676.800	56.448	0.100
676.900	64.346	0.100
677.000	57.598	0.100
677.100	61.645	0.100
677.200	50.071	0.100
677.300	64.057	0.100
677.400	65.850	0.100
677.500	61.871	0.100
677.600	52.472	0.100
677.700	63.385	0.100
677.800	58.334	0.100
677.900	65.712	0.100
678.000	61.516	0.100
678.100	62.574	0.100
678.200	58.512	0.100
678.300	67.499	0.100
678.400	58.180	0.100
678.500	53.048	0.100
678.600	59.342	0.100
678.700	70.019	0.100
678.800	59.224	0.100
678.900	58.118	0.100
679.000	51.427	0.100
679.100	61.463	0.100
679.200	57.264	0.100
679.300	68.865	0.100
679.400	68.264	0.100
679.500	65.266	0.100
679.600	54.327	0.100
679.700	53.025	0.100
679.800	59.938	0.100
679.900	64.312	0.100
680.000	50.812	0.100
680.100	54.839	0.100
680.200	54.019	0.100
680.300	65.276	0.100
680.400	52.365	0.100
680.500	56.687	0.100
680.600	56.091	0.100
680.700	63.827	0.100
680.800	53.477	0.100
680.900	53.703	0.100
681.000	57.061	0.100
681.100	57.539	0.100
681.200	55.095	0.100
681.300	63.614	0.100
681.400	60.659	0.100
681.500	60.654	0.100
681.600	59.941	0.100
681.700	57.232	0.100
681.800	54.132	0.100
681.900	64.514	0.100
682.000	58.285	0.100
682.100	56.648	0.100
682.200	59.829	0.100
682.300	64.806	0.100
682.400	58.107	0.100
682.500	58.882	0.100
682.600	58.542	0.100
682.700	56.647	0.100
682.800	44.599	0.100
682.900	58.786	0.100
683.000	60.281	0.100
683.100	67.178	0.100
683.200	59.620	0.100
683.300	57.358	0.100
683.400	58.142	0.100
683.500	55.749	0.100
683.600	64.335	0.100
683.700	52.270	0.100
683.800	50.330	0.100
683.900	54.775	0.100
684.000	64.879	0.100
684.100	57.051	0.100
684.200	57.785	0.100
684.300	50.994	0.100
684.400	52.430	0.100
684.500	47.951	0.100
684.600	61.948	0.100
684.700	65.459	0.100
684.800	65.367	0.100
684.900	62.052	0.100
685.000	51.846	0.100
685.100	57.728	0.100
685.200	58.034	0.100
685.300	50.454	0.100
685.400	57.976	0.100
685.500	59.573	0.100
685.600	60.131	0.100
685.700	59.482	0.100
685.800	63.004	0.100
685.900	59.060	0.100
686.000	58.508	0.100
686.100	57.575	0.100
686.200	64.310	0.100
686.300	57.695	0.100
686.400	52.716	0.100
686.500	53.474	0.100
686.600	69.224	0.100
686.700	55.250	0.100
686.800	56.965	0.100
686.900	62.586	0.100
687.000	54.623	0.100
687.100	48.696	0.100
687.200	58.200	0.100
687.300	66.666	0.100
687.400	59.348	0.100
687.500	56.891	0.100
687.600	59.078	0.100
687.700	63.121	0.100
687.800	57.341	0.100
687.900	60.683	0.100
688.000	43.106	0.100
688.100	58.831	0.100
688.200	59.313	0.100
688.300	56.367	0.100
688.400	60.372	0.100
688.500	54.936	0.100
688.600	58.105	0.100
688.700	53.534	0.100
688.800	51.705	0.100
688.900	58.942	0.100
689.000	65.866	0.100
689.100	58.439	0.100
689.200	54.939	0.100
689.300	56.460	0.100
689.400	64.045	0.100
689.500	63.554	0.100
689.600	60.961	0.100
689.700	56.074	0.100
689.800	56.367	0.100
689.900	54.927	0.100
690.000	57.337	0.100
690.100	51.743	0.100
690.200	54.856	0.100
690.300	57.687	0.100
690.400	65.288	0.100
690.500	62.520	0.100
690.600	51.915	0.100
690.700	57.412	0.100
690.800	60.384	0.100
690.900	40.583	0.100
691.000	39.410	0.100
691.100	50.579	0.100
691.200	28.351	0.100
691.300	26.561	0.100
691.400	26.298	0.100
691.500	23.284	0.100
691.600	28.891	0.100
691.700	15.667	0.100
691.800	12.578	0.100
691.900	11.464	0.100
692.000	9.863	0.100
692.100	-0.150	0.100
692.200	3.528	0.100
692.300	3.824	0.100
692.400	4.843	0.100
692.500	1.386	0.100
692.600	2.008	0.100
692.700	-8.981	0.100
692.800	-8.735	0.100
692.900	-1.146	0.100
693.000	-3.206	0.100
693.100	-2.836	0.100
693.200	0.108	0.100
693.300	-6.040	0.100
693.400	-5.967	0.100
693.500	-5.426	0.100
693.600	-8.065	0.100
693.700	-6.437	0.100
693.800	-9.290	0.100
693.900	-14.085	0.100
694.000	-10.447	0.100
694.100	-14.951	0.100
694.200	-18.720	0.100
694.300	-24.000	0.100
694.400	-21.837	0.100
694.500	-12.773	0.100
694.600	-16.597	0.100
694.700	-19.772	0.100
694.800	-16.349	0.100
694.900	-17.917	0.100
695.000	-17.717	0.100
695.100	-18.075	0.100
695.200	-13.873	0.100
695.300	-17.980	0.100
695.400	-14.545	0.100
695.500	-24.481	0.100
695.600	-12.397	0.100
695.700	-16.370	0.100
695.800	-22.851	0.100
695.900	-18.720	0.100
696.000	-14.192	0.100
696.100	-24.629	0.100
696.200	-21.480	0.100
696.300	-16.427	0.100
696.400	-20.104	0.100
696.500	-23.475	0.100
696.600	-13.619	0.100
696.700	-11.937	0.100
696.800	-20.253	0.100
696.900	-15.377	0.100
697.000	-18.530	0.100
697.100	-28.393	0.100
697.200	-23.495	0.100
697.300	-23.262	0.100
697.400	-15.488	0.100
697.500	-21.894	0.100
697.600	-18.242	0.100
697.700	-12.453	0.100
697.800	-5.867	0.100
697.900	-20.094	0.100
698.000	-19.749	0.100
698.100	-29.745	0.100
698.200	-15.711	0.100
698.300	-21.421	0.100
698.400	-25.243	0.100
698.500	-21.283	0.100
698.600	-18.746	0.100
698.700	-16.024	0.100
698.800	-26.176	0.100
698.900	-22.054	0.100
699.000	-15.766	0.100
699.100	-14.772	0.100
699.200	-21.052	0.100
699.300	-22.055	0.100
699.400	-13.993	0.100
699.500	-17.200	0.100
699.600	-19.503	0.100
699.700	-23.359	0.100
699.800	-20.928	0.100
699.900	-15.226	0.100
700.000	-12.988	0.100
700.100	-17.762	0.100
700.200	-17.763	0.100
700.300	-12.388	0.100
700.400	-21.907	0.100
700.500	-13.414	0.100
700.600	-23.499	0.100
700.700	-13.909	0.100
700.800	-15.320	0.100
700.900	-20.659	0.100
701.000	-21.826	0.100
701.100	-22.064	0.100
701.200	-22.951	0.100
701.300	-21.964	0.100
701.400	-19.117	0.100
701.500	-23.497	0.100
701.600	-21.386	0.100
701.700	-21.231	0.100
701.800	-32.056	0.100
701.900	-19.159	0.100
702.000	-18.731	0.100
702.100	-23.953	0.100
702.200	-29.633	0.100
702.300	-10.694	0.100
702.400	-13.537	0.100
702.500	-18.514	0.100
702.600	-26.610	0.100
702.700	-31.761	0.100
702.800	-18.315	0.100
702.900	-27.004	0.100
703.000	-18.624	0.100
703.100	-18.200	0.100
703.200	-22.179	0.100
703.300	-21.938	0.100
703.400	-24.892	0.100
703.500	-32.572	0.100
703.600	-19.863	0.100
703.700	-20.165	0.100
703.800	-21.331	0.100
703.900	-26.979	0.100
704.000	-22.412	0.100
704.100	-27.494	0.100
704.200	-26.697	0.100
704.300	-16.014	0.100
704.400	-23.114	0.100
704.500	-21.108	0.100
704.600	-13.916	0.100
704.700	-28.735	0.100
704.800	-21.618	0.100
704.900	-20.250	0.100
705.000	-22.781	0.100
705.100	-18.834	0.100
705.200	-17.649	0.100
705.300	-28.161	0.100
705.400	-19.859	0.100
705.500	-23.283	0.100
705.600	-24.736	0.100
705.700	-30.075	0.100
705.800	-19.160	0.100
705.900	-19.192	0.100
706.000	-22.394	0.100
706.100	-31.332	0.100
706.200	-28.189	0.100
706.300	-30.683	0.100
706.400	-25.265	0.100
706.500	-18.346	0.100
706.600	-28.750	0.100
706.700	-24.976	0.100
706.800	-17.292	0.100
706.900	-19.450	0.100
707.000	-23.734	0.100
707.100	-34.154	0.100
707.200	-33.655	0.100
707.300	-19.474	0.100
707.400	-22.970	0.100
707.500	-23.268	0.100
707.600	-25.446	0.100
707.700	-24.014	0.100
707.800	-19.839	0.100
707.900	-21.648	0.100
708.000	-34.449	0.100
708.100	-25.040	0.100
708.200	-23.158	0.100
708.300	-23.754	0.100
708.400	-30.188	0.100
708.500	-27.391	0.100
708.600	-19.821	0.100
708.700	-27.136	0.100
708.800	-26.126	0.100
708.900	-24.789	0.100
709.000	-30.906	0.100
709.100	-35.087	0.100
709.200	-23.483	0.100
709.300	-27.511	0.100
709.400	-22.720	0.100
709.500	-30.625	0.100
709.600	-20.528	0.100
709.700	-35.666	0.100
709.800	-33.803	0.100
709.900	-35.774	0.100
710.000	-28.022	0.100
710.100	-21.944	0.100
710.200	-29.871	0.100
710.300	-32.774	0.100
710.400	-31.152	0.100
710.500	-35.268	0.100
710.600	-24.229	0.100
710.700	-32.077	0.100
710.800	-30.248	0.100
710.900	-24.680	0.100
711.000	-24.767	0.100
711.100	-20.919	0.100
711.200	-26.018	0.100
711.300	-33.463	0.100
711.400	-31.741	0.100
711.500	-32.126	0.100
711.600	-30.165	0.100
711.700	-29.959	0.100
711.800	-28.950	0.100
711.900	-24.034	0.100
712.000	-29.927	0.100
712.100	-29.981	0.100
712.200	-30.241	0.100
712.300	-28.445	0.100
712.400	-30.327	0.100
712.500	-33.921	0.100
712.600	-31.291	0.100
712.700	-25.419	0.100
712.800	-35.856	0.100
712.900	-29.470	0.100
713.000	-27.444	0.100
713.100	-29.321	0.100
713.200	-26.593	0.100
713.300	-29.875	0.100
713.400	-28.167	0.100
713.500	-39.785	0.100
713.600	-30.662	0.100
713.700	-41.245	0.100
713.800	-33.916	0.100
713.900	-34.144	0.100
714.000	-34.222	0.100
714.100	-27.987	0.100
714.200	-30.945	0.100
714.300	-28.439	0.100
714.400	-37.052	0.100
714.500	-24.511	0.100
714.600	-27.859	0.100
714.700	-27.155	0.100
714.800	-28.834	0.100
714.900	-29.770	0.100
715.000	-47.767	0.100
715.100	-24.011	0.100
715.200	-31.692	0.100
715.300	-36.214	0.100
715.400	-34.499	0.100
715.500	-28.868	0.100
715.600	-26.609	0.100
715.700	-36.803	0.100
715.800	-35.123	0.100
715.900	-43.308	0.100
716.000	-28.540	0.100
716.100	-31.261	0.100
716.200	-32.085	0.100
716.300	-38.893	0.100
716.400	-39.821	0.100
716.500	-33.929	0.100
716.600	-26.196	0.100
716.700	-33.406	0.100
716.800	-34.540	0.100
716.900	-32.437	0.100
717.000	-39.646	0.100
717.100	-28.714	0.100
717.200	-36.212	0.100
717.300	-34.234	0.100
717.400	-42.288	0.100
717.500	-28.251	0.100
717.600	-32.203	0.100
717.700	-45.660	0.100
717.800	-24.926	0.100
717.900	-30.892	0.100
718.000	-27.550	0.100
718.100	-27.230	0.100
718.200	-38.987	0.100
718.300	-40.947	0.100
718.400	-43.568	0.100
718.500	-33.040	0.100
718.600	-37.661	0.100
718.700	-41.479	0.100
718.800	-41.336	0.100
718.900	-39.845	0.100
719.000	-35.853	0.100
719.100	-31.223	0.100
719.200	-36.466	0.100
719.300	-36.874	0.100
719.400	-32.409	0.100
719.500	-33.440	0.100
719.600	-34.890	0.100
719.700	-31.421	0.100
719.800	-35.724	0.100
719.900	-32.321	0.100
720.000	-44.157	0.100
720.100	-34.754	0.100
720.200	-33.490	0.100
720.300	-46.067	0.100
720.400	-39.494	0.100
720.500	-40.124	0.100
720.600	-34.986	0.100
720.700	-36.633	0.100
720.800	-27.592	0.100
720.900	-30.572	0.100
721.000	-47.559	0.100
721.100	-35.561	0.100
721.200	-35.413	0.100
721.300	-33.921	0.100
721.400	-38.634	0.100
721.500	-40.176	0.100
721.600	-43.034	0.100
721.700	-38.929	0.100
721.800	-34.703	0.100
721.900	-43.842	0.100
722.000	-39.555	0.100
722.100	-39.296	0.100
722.200	-38.696	0.100
722.300	-38.242	0.100
722.400	-41.001	0.100
722.500	-37.803	0.100
722.600	-38.489	0.100
722.700	-30.310	0.100
722.800	-41.210	0.100
722.900	-41.596	0.100
723.000	-43.763	0.100
723.100	-34.678	0.100
723.200	-44.465	0.100
723.300	-45.628	0.100
723.400	-39.728	0.100
723.500	-30.632	0.100
723.600	-40.044	0.100
723.700	-36.486	0.100
723.800	-41.380	0.100
723.900	-37.815	0.100
724.000	-41.157	0.100
724.100	-43.627	0.100
724.200	-42.129	0.100
724.300	-34.161	0.100
724.400	-42.708	0.100
724.500	-39.145	0.100
724.600	-45.486	0.100
724.700	-34.879	0.100
724.800	-40.531	0.100
724.900	-40.222	0.100
725.000	-37.635	0.100
725.100	-45.421	0.100
725.200	-45.455	0.100
725.300	-40.293	0.100
725.400	-44.665	0.100
725.500	-44.210	0.100
725.600	-46.830	0.100
725.700	-29.987	0.100
725.800	-37.007	0.100
725.900	-33.979	0.100
726.000	-43.135	0.100
726.100	-41.311	0.100
726.200	-51.149	0.100
726.300	-40.668	0.100
726.400	-38.268	0.100
726.500	-39.512	0.100
726.600	-33.705	0.100
726.700	-37.286	0.100
726.800	-42.354	0.100
726.900	-50.122	0.100
727.000	-42.977	0.100
727.100	-43.423	0.100
727.200	-41.815	0.100
727.300	-49.764	0.100
727.400	-38.670	0.100
727.500	-37.435	0.100
727.600	-41.711	0.100
727.700	-43.842	0.100
727.800	-39.429	0.100
727.900	-34.845	0.100
728.000	-38.411	0.100
728.100	-26.567	0.100
728.200	-44.140	0.100
728.300	-42.073	0.100
728.400	-47.501	0.100
728.500	-43.526	0.100
728.600	-47.068	0.100
728.700	-39.188	0.100
728.800	-41.884	0.100
728.900	-40.389	0.100
729.000	-43.232	0.100
729.100	-41.043	0.100
729.200	-31.214	0.100
729.300	-42.846	0.100
729.400	-50.544	0.100
729.500	-39.051	0.100
729.600	-40.174	0.100
729.700	-38.184	0.100
729.800	-44.238	0.100
729.900	-50.783	0.100
730.000	-41.669	0.100
730.100	-36.902	0.100
730.200	-43.506	0.100
730.300	-39.121	0.100
730.400	-42.903	0.100
730.500	-40.127	0.100
730.600	-45.954	0.100
730.700	-46.640	0.100
730.800	-41.036	0.100
730.900	-39.529	0.100
731.000	-46.878	0.100
731.100	-37.195	0.100
731.200	-44.092	0.100
731.300	-41.902	0.100
731.400	-47.985	0.100
731.500	-28.048	0.100
731.600	-38.575	0.100
731.700	-44.097	0.100
731.800	-43.643	0.100
731.900	-48.693	0.100
732.000	-49.921	0.100
732.100	-39.146	0.100
732.200	-38.451	0.100
732.300	-40.569	0.100
732.400	-37.844	0.100
732.500	-44.700	0.100
732.600	-34.155	0.100
732.700	-57.677	0.100
732.800	-43.035	0.100
732.900	-50.906	0.100
733.000	-47.685	0.100
733.100	-39.439	0.100
733.200	-47.278	0.100
733.300	-40.716	0.100
733.400	-42.956	0.100
733.500	-47.913	0.100
733.600	-38.285	0.100
733.700	-46.091	0.100
733.800	-51.867	0.100
733.900	-46.845	0.100
734.000	-55.526	0.100
734.100	-39.070	0.100
734.200	-36.410	0.100
734.300	-30.968	0.100
734.400	-38.100	0.100
734.500	-36.678	0.100
734.600	-52.483	0.100
734.700	-37.218	0.100
734.800	-33.548	0.100
734.900	-45.826	0.100
735.000	-47.276	0.100
735.100	-42.473	0.100
735.200	-48.396	0.100
735.300	-48.922	0.100
735.400	-49.298	0.100
735.500	-43.804	0.100
735.600	-39.853	0.100
735.700	-29.600	0.100
735.800	-44.563	0.100
735.900	-42.494	0.100
736.000	-47.117	0.100
736.100	-45.706	0.100
736.200	-38.712	0.100
736.300	-37.074	0.100
736.400	-39.893	0.100
736.500	-37.450	0.100
736.600	-41.374	0.100
736.700	-49.573	0.100
736.800	-44.835	0.100
736.900	-46.656	0.100
737.000	-44.507	0.100
737.100	-44.833	0.100
737.200	-44.879	0.100
737.300	-40.495	0.100
737.400	-41.130	0.100
737.500	-44.377	0.100
737.600	-35.471	0.100
737.700	-35.980	0.100
737.800	-39.883	0.100
737.900	-39.018	0.100
738.000	-38.157	0.100
738.100	-44.404	0.100
738.200	-46.983	0.100
738.300	-39.931	0.100
738.400	-45.780	0.100
738.500	-47.670	0.100
738.600	-40.037	0.100
738.700	-44.586	0.100
738.800	-41.368	0.100
738.900	-39.424	0.100
739.000	-43.863	0.100
739.100	-35.745	0.100
739.200	-35.936	0.100
739.300	-44.282	0.100
739.400	-42.309	0.100
739.500	-45.349	0.100
739.600	-42.361	0.100
739.700	-50.547	0.100
739.800	-41.677	0.100
739.900	-42.037	0.100
740.000	-44.248	0.100
740.100	-41.497	0.100
740.200	-37.715	0.100
740.300	-48.190	0.100
740.400	-39.817	0.100
740.500	-39.230	0.100
740.600	-43.427	0.100
740.700	-35.917	0.100
740.800	-47.997	0.100
740.900	-37.830	0.100
741.000	-43.953	0.100
741.100	-39.430	0.100
741.200	-37.897	0.100
741.300	-42.607	0.100
741.400	-47.148	0.100
741.500	-35.965	0.100
741.600	-42.450	0.100
741.700	-35.930	0.100
741.800	-40.827	0.100
741.900	-34.168	0.100
742.000	-40.596	0.100
742.100	-43.625	0.100
742.200	-44.031	0.100
742.300	-37.004	0.100
742.400	-45.801	0.100
742.500	-38.634	0.100
742.600	-38.301	0.100
742.700	-34.593	0.100
742.800	-44.036	0.100
742.900	-40.892	0.100
743.000	-41.295	0.100
743.100	-44.382	0.100
743.200	-33.585	0.100
743.300	-47.093	0.100
743.400	-37.910	0.100
743.500	-42.277	0.100
743.600	-38.712	0.100
743.700	-44.370	0.100
743.800	-39.108	0.100
743.900	-39.703	0.100
744.000	-38.924	0.100
744.100	-35.026	0.100
744.200	-51.722	0.100
744.300	-50.785	0.100
744.400	-41.576	0.100
744.500	-47.368	0.100
744.600	-44.433	0.100
744.700	-38.827	0.100
744.800	-38.250	0.100
744.900	-45.224	0.100
745.000	-43.700	0.100
745.100	-43.493	0.100
745.200	-36.984	0.100
745.300	-40.981	0.100
745.400	-43.059	0.100
745.500	-43.240	0.100
745.600	-29.426	0.100
745.700	-34.121	0.100
745.800	-38.134	0.100
745.900	-40.996	0.100
746.000	-42.132	0.100
746.100	-29.525	0.100
746.200	-28.605	0.100
746.300	-39.996	0.100
746.400	-40.118	0.100
746.500	-39.852	0.100
746.600	-44.472	0.100
746.700	-44.819	0.100
746.800	-31.906	0.100
746.900	-37.430	0.100
747.000	-39.372	0.100
747.100	-39.974	0.100
747.200	-39.657	0.100
747.300	-48.157	0.100
747.400	-29.775	0.100
747.500	-37.577	0.100
747.600	-32.162	0.100
747.700	-39.346	0.100
747.800	-46.597	0.100
747.900	-45.952	0.100
748.000	-45.387	0.100
748.100	-31.987	0.100
748.200	-36.900	0.100
748.300	-38.677	0.100
748.400	-37.875	0.100
748.500	-43.973	0.100
748.600	-38.272	0.100
748.700	-37.350	0.100
748.800	-40.373	0.100
748.900	-45.927	0.100
749.000	-45.036	0.100
749.100	-40.454	0.100
749.200	-46.477	0.100
749.300	-31.979	0.100
749.400	-33.238	0.100
749.500	-36.170	0.100
749.600	-42.653	0.100
749.700	-46.649	0.100
749.800	-35.443	0.100
749.900	-36.594	0.100
750.000	-50.603	0.100
750.100	-47.593	0.100
750.200	-44.071	0.100
750.300	-35.399	0.100
750.400	-45.800	0.100
750.500	-33.845	0.100
750.600	-36.105	0.100
750.700	-45.156	0.100
750.800	-42.047	0.100
750.900	-40.509	0.100
751.000	-34.022	0.100
751.100	-29.389	0.100
751.200	-41.405	0.100
751.300	-42.536	0.100
751.400	-37.999	0.100
751.500	-35.287	0.100
751.600	-43.415	0.100
751.700	-37.489	0.100
751.800	-36.435	0.100
751.900	-41.991	0.100
752.000	-43.836	0.100
752.100	-42.145	0.100
752.200	-39.253	0.100
752.300	-44.929	0.100
752.400	-38.922	0.100
752.500	-41.787	0.100
752.600	-41.226	0.100
752.700	-35.632	0.100
752.800	-33.318	0.100
752.900	-45.236	0.100
753.000	-36.957	0.100
753.100	-34.571	0.100
753.200	-44.051	0.100
753.300	-31.893	0.100
753.400	-32.599	0.100
753.500	-41.428	0.100
753.600	-47.032	0.100
753.700	-39.043	0.100
753.800	-39.890	0.100
753.900	-36.432	0.100
754.000	-44.170	0.100
754.100	-37.993	0.100
754.200	-40.833	0.100
754.300	-32.866	0.100
754.400	-45.960	0.100
754.500	-32.810	0.100
754.600	-36.191	0.100
754.700	-29.489	0.100
754.800	-47.801	0.100
754.900	-39.432	0.100
755.000	-36.376	0.100
755.100	-26.912	0.100
755.200	-34.361	0.100
755.300	-39.618	0.100
755.400	-40.256	0.100
755.500	-45.521	0.100
755.600	-42.216	0.100
755.700	-32.225	0.100
755.800	-35.613	0.100
755.900	-35.889	0.100
756.000	-45.328	0.100
756.100	-31.908	0.100
756.200	-32.060	0.100
756.300	-41.237	0.100
756.400	-40.254	0.100
756.500	-45.994	0.100
756.600	-32.265	0.100
756.700	-27.873	0.100
756.800	-37.067	0.100
756.900	-41.090	0.100
757.000	-42.036	0.100
757.100	-29.528	0.100
757.200	-36.680	0.100
757.300	-38.377	0.100
757.400	-41.875	0.100
757.500	-42.663	0.100
757.600	-35.283	0.100
757.700	-22.545	0.100
757.800	-37.488	0.100
757.900	-29.576	0.100
758.000	-39.758	0.100
758.100	-42.124	0.100
758.200	-30.767	0.100
758.300	-46.474	0.100
758.400	-34.480	0.100
758.500	-40.292	0.100
758.600	-32.379	0.100
758.700	-37.204	0.100
758.800	-41.986	0.100
758.900	-43.810	0.100
759.000	-34.927	0.100
759.100	-36.193	0.100
759.200	-40.869	0.100
759.300	-31.666	0.100
759.400	-32.623	0.100
759.500	-39.388	0.100
759.600	-42.453	0.100
759.700	-40.377	0.100
759.800	-41.282	0.100
759.900	-37.692	0.100
760.000	-40.052	0.100
760.100	-36.263	0.100
760.200	-38.637	0.100
760.300	-35.212	0.100
760.400	-41.037	0.100
760.500	-31.672	0.100
760.600	-28.767	0.100
760.700	-34.577	0.100
760.800	-32.846	0.100
760.900	-39.233	0.100
761.000	-38.620	0.100
761.100	-40.987	0.100
761.200	-42.838	0.100
761.300	-37.377	0.100
761.400	-29.482	0.100
761.500	-38.111	0.100
761.600	-41.513	0.100
761.700	-31.734	0.100
761.800	-35.754	0.100
761.900	-31.300	0.100
762.000	-37.010	0.100
762.100	-41.761	0.100
762.200	-40.691	0.100
762.300	-35.747	0.100
762.400	-31.383	0.100
762.500	-41.197	0.100
762.600	-43.323	0.100
762.700	-39.181	0.100
762.800	-32.473	0.100
762.900	-35.503	0.100
763.000	-37.875	0.100
763.100	-37.841	0.100
763.200	-41.945	0.100
763.300	-29.670	0.100
763.400	-27.774	0.100
763.500	-39.405	0.100
763.600	-40.634	0.100
763.700	-27.900	0.100
763.800	-38.641	0.100
763.900	-31.517	0.100
764.000	-32.836	0.100
764.100	-30.451	0.100
764.200	-43.796	0.100
764.300	-39.925	0.100
764.400	-42.458	0.100
764.500	-31.658	0.100
764.600	-36.180	0.100
764.700	-38.971	0.100
764.800	-33.502	0.100
764.900	-21.756	0.100
765.000	-40.783	0.100
765.100	-32.178	0.100
765.200	-45.026	0.100
765.300	-34.316	0.100
765.400	-35.314	0.100
765.500	-38.215	0.100
765.600	-32.293	0.100
765.700	-36.966	0.100
765.800	-32.933	0.100
765.900	-30.978	0.100
766.000	-25.636	0.100
766.100	-32.487	0.100
766.200	-43.477	0.100
766.300	-39.875	0.100
766.400	-39.034	0.100
766.500	-41.443	0.100
766.600	-35.319	0.100
766.700	-39.967	0.100
766.800	-48.004	0.100
766.900	-28.886	0.100
767.000	-31.239	0.100
767.100	-34.464	0.100
767.200	-32.811	0.100
767.300	-32.976	0.100
767.400	-39.526	0.100
767.500	-34.315	0.100
767.600	-23.801	0.100
767.700	-37.044	0.100
767.800	-37.743	0.100
767.900	-33.588	0.100
768.000	-42.032	0.100
768.100	-38.034	0.100
768.200	-30.627	0.100
768.300	-39.685	0.100
768.400	-35.776	0.100
768.500	-28.503	0.100
768.600	-39.770	0.100
768.700	-27.884	0.100
768.800	-37.920	0.100
768.900	-28.208	0.100
769.000	-33.161	0.100
769.100	-33.079	0.100
769.200	-33.268	0.100
769.300	-45.942	0.100
769.400	-35.502	0.100
769.500	-28.308	0.100
769.600	-25.991	0.100
769.700	-41.957	0.100
769.800	-28.182	0.100
769.900	-35.190	0.100
770.000	-36.893	0.100
770.100	-32.660	0.100
770.200	-35.676	0.100
770.300	-30.132	0.100
770.400	-30.648	0.100
770.500	-37.272	0.100
770.600	-35.480	0.100
770.700	-23.241	0.100
770.800	-30.880	0.100
770.900	-44.957	0.100
771.000	-38.393	0.100
771.100	-37.773	0.100
771.200	-35.077	0.100
771.300	-37.601	0.100
771.400	-31.211	0.100
771.500	-44.411	0.100
771.600	-25.718	0.100
771.700	-26.383	0.100
771.800	-29.573	0.100
771.900	-36.239	0.100
772.000	-33.949	0.100
772.100	-42.859	0.100
772.200	-33.678	0.100
772.300	-27.467	0.100
772.400	-29.618	0.100
772.500	-33.185	0.100
772.600	-25.219	0.100
772.700	-30.937	0.100
772.800	-37.490	0.100
772.900	-39.667	0.100
773.000	-36.847	0.100
773.100	-39.604	0.100
773.200	-32.949	0.100
773.300	-35.916	0.100
773.400	-26.615	0.100
773.500	-31.573	0.100
773.600	-40.986	0.100
773.700	-35.320	0.100
773.800	-41.331	0.100
773.900	-29.391	0.100
774.000	-29.002	0.100
774.100	-39.963	0.100
774.200	-27.406	0.100
774.300	-32.652	0.100
774.400	-40.238	0.100
774.500	-31.826	0.100
774.600	-26.861	0.100
774.700	-34.014	0.100
774.800	-30.000	0.100
774.900	-29.037	0.100
775.000	-33.999	0.100
775.100	-34.592	0.100
775.200	-42.433	0.100
775.300	-34.119	0.100
775.400	-33.478	0.100
775.500	-32.373	0.100
775.600	-34.995	0.100
775.700	-35.527	0.100
775.800	-28.361	0.100
775.900	-34.140	0.100
776.000	-28.788	0.100
776.100	-34.965	0.100
776.200	-31.080	0.100
776.300	-37.576	0.100
776.400	-31.972	0.100
776.500	-19.086	0.100
776.600	-29.483	0.100
776.700	-32.212	0.100
776.800	-29.749	0.100
776.900	-38.740	0.100
777.000	-39.159	0.100
777.100	-36.285	0.100
777.200	-30.941	0.100
777.300	-31.749	0.100
777.400	-28.425	0.100
777.500	-38.089	0.100
777.600	-38.246	0.100
777.700	-30.424	0.100
777.800	-34.551	0.100
777.900	-32.957	0.100
778.000	-39.034	0.100
778.100	-32.567	0.100
778.200	-30.223	0.100
778.300	-25.620	0.100
778.400	-28.224	0.100
778.500	-35.964	0.100
778.600	-34.970	0.100
778.700	-40.143	0.100
778.800	-29.795	0.100
778.900	-38.002	0.100
779.000	-26.460	0.100
779.100	-27.700	0.100
779.200	-35.621	0.100
779.300	-29.376	0.100
779.400	-29.644	0.100
779.500	-25.210	0.100
779.600	-28.322	0.100
779.700	-34.198	0.100
779.800	-35.906	0.100
779.900	-28.511	0.100
780.000	-39.454	0.100
780.100	-36.138	0.100
780.200	-31.851	0.100
780.300	-30.202	0.100
780.400	-34.890	0.100
780.500	-26.547	0.100
780.600	-30.977	0.100
780.700	-23.375	0.100
780.800	-26.481	0.100
780.900	-25.146	0.100
781.000	-25.151	0.100
781.100	-18.546	0.100
781.200	-10.012	0.100
781.300	-0.500	0.100
781.400	-4.499	0.100
781.500	-16.054	0.100
781.600	-7.739	0.100
781.700	1.438	0.100
781.800	2.687	0.100
781.900	17.542	0.100
782.000	19.165	0.100
782.100	5.241	0.100
782.200	11.819	0.100
782.300	9.243	0.100
782.400	8.848	0.100
782.500	8.938	0.100
782.600	22.075	0.100
782.700	24.124	0.100
782.800	14.576	0.100
782.900	16.729	0.100
783.000	20.290	0.100
783.100	16.082	0.100
783.200	15.252	0.100
783.300	23.213	0.100
783.400	17.660	0.100
783.500	9.470	0.100
783.600	16.698	0.100
783.700	17.313	0.100
783.800	19.952	0.100
783.900	13.426	0.100
784.000	15.474	0.100
784.100	21.109	0.100
784.200	27.071	0.100
784.300	16.553	0.100
784.400	25.396	0.100
784.500	20.041	0.100
784.600	22.830	0.100
784.700	20.885	0.100
784.800	14.451	0.100
784.900	14.392	0.100
785.000	19.483	0.100
785.100	18.406	0.100
785.200	21.747	0.100
785.300	23.315	0.100
785.400	19.128	0.100
785.500	32.857	0.100
785.600	17.567	0.100
785.700	19.896	0.100
785.800	16.138	0.100
785.900	14.355	0.100
786.000	19.529	0.100
786.100	26.256	0.100
786.200	24.480	0.100
786.300	16.659	0.100
786.400	15.650	0.100
786.500	8.485	0.100
786.600	14.311	0.100
786.700	15.139	0.100
786.800	10.245	0.100
786.900	16.266	0.100
787.000	22.929	0.100
787.100	12.333	0.100
787.200	18.602	0.100
787.300	18.594	0.100
787.400	8.074	0.100
787.500	22.339	0.100
787.600	22.185	0.100
787.700	21.354	0.100
787.800	13.937	0.100
787.900	17.752	0.100
788.000	23.011	0.100
788.100	12.838	0.100
788.200	16.884	0.100
788.300	18.214	0.100
788.400	20.699	0.100
788.500	16.184	0.100
788.600	20.513	0.100
788.700	20.590	0.100
788.800	16.909	0.100
788.900	21.692	0.100
789.000	26.653	0.100
789.100	16.753	0.100
789.200	17.820	0.100
789.300	19.133	0.100
789.400	10.883	0.100
789.500	18.079	0.100
789.600	14.861	0.100
789.700	23.290	0.100
789.800	12.012	0.100
789.900	27.658	0.100
790.000	30.892	0.100
790.100	22.693	0.100
790.200	23.224	0.100
790.300	16.029	0.100
790.400	23.394	0.100
790.500	17.917	0.100
790.600	24.393	0.100
790.700	31.488	0.100
790.800	20.800	0.100
790.900	24.428	0.100
791.000	23.281	0.100
791.100	19.662	0.100
791.200	26.277	0.100
791.300	24.166	0.100
791.400	24.402	0.100
791.500	19.855	0.100
791.600	21.725	0.100
791.700	23.048	0.100
791.800	33.051	0.100
791.900	34.634	0.100
792.000	20.969	0.100
792.100	21.940	0.100
792.200	20.162	0.100
792.300	26.637	0.100
792.400	37.009	0.100
792.500	23.992	0.100
792.600	30.290	0.100
792.700	23.901	0.100
792.800	29.721	0.100
792.900	35.379	0.100
793.000	25.942	0.100
793.100	33.301	0.100
793.200	18.805	0.100
793.300	21.261	0.100
793.400	21.580	0.100
793.500	28.283	0.100
793.600	28.253	0.100
793.700	22.118	0.100
793.800	33.242	0.100
793.900	31.948	0.100
794.000	27.725	0.100
794.100	26.152	0.100
794.200	25.141	0.100
794.300	27.394	0.100
794.400	39.137	0.100
794.500	33.779	0.100
794.600	35.876	0.100
794.700	21.352	0.100
794.800	28.901	0.100
794.900	45.286	0.100
795.000	36.401	0.100
795.100	40.504	0.100
795.200	25.089	0.100
795.300	27.910	0.100
795.400	36.265	0.100
795.500	38.009	0.100
795.600	37.569	0.100
795.700	31.111	0.100
795.800	37.993	0.100
795.900	39.748	0.100
796.000	33.004	0.100
796.100	44.615	0.100
796.200	39.980	0.100
796.300	36.220	0.100
796.400	31.065	0.100
796.500	40.657	0.100
796.600	39.236	0.100
796.700	46.921	0.100
796.800	48.447	0.100
796.900	39.027	0.100
797.000	45.163	0.100
797.100	42.756	0.100
797.200	51.637	0.100
797.300	46.356	0.100
797.400	40.655	0.100
797.500	44.116	0.100
797.600	43.688	0.100
797.700	47.834	0.100
797.800	42.523	0.100
797.900	48.487	0.100
798.000	51.366	0.100
798.100	46.626	0.100
798.200	56.683	0.100
798.300	44.075	0.100
798.400	48.987	0.100
798.500	46.451	0.100
798.600	55.624	0.100
798.700	48.129	0.100
798.800	52.505	0.100
798.900	43.683	0.100
799.000	46.170	0.100
799.100	44.413	0.100
799.200	49.360	0.100
799.300	62.431	0.100
799.400	53.495	0.100
799.500	48.383	0.100
799.600	50.703	0.100
799.700	53.567	0.100
799.800	57.179	0.100
799.900	50.422	0.100
800.000	54.426	0.100
