time /s	I /nA	E /V
0.100	-68.939	0.101
0.200	-49.050	0.101
0.300	-57.091	0.101
0.400	-47.879	0.101
0.500	-57.275	0.101
0.600	-52.615	0.101
0.700	-60.242	0.101
0.800	-61.232	0.101
0.900	-62.767	0.101
1.000	-49.527	0.101
1.100	-52.730	0.101
1.200	-55.043	0.101
1.300	-46.339	0.101
1.400	-60.522	0.101
1.500	-62.277	0.101
1.600	-47.733	0.101
1.700	-58.110	0.101
1.800	-62.187	0.101
1.900	-51.083	0.101
2.000	-51.647	0.101
2.100	-50.553	0.101
2.200	-54.221	0.101
2.300	-50.910	0.101
2.400	-47.531	0.101
2.500	-58.190	0.101
2.600	-43.461	0.101
2.700	-53.792	0.101
2.800	-37.972	0.101
2.900	-58.110	0.101
3.000	-53.142	0.101
3.100	-52.661	0.101
3.200	-45.253	0.101
3.300	-49.696	0.101
3.400	-50.707	0.101
3.500	-43.793	0.101
3.600	-52.478	0.101
3.700	-47.886	0.101
3.800	-57.381	0.101
3.900	-48.815	0.101
4.000	-55.562	0.101
4.100	-47.502	0.101
4.200	-57.725	0.101
4.300	-48.500	0.101
4.400	-55.416	0.101
4.500	-52.461	0.101
4.600	-50.691	0.101
4.700	-58.388	0.100
4.800	-58.066	0.101
4.900	-51.930	0.101
5.000	-51.816	0.101
5.100	-43.415	0.101
5.200	-49.241	0.101
5.300	-49.050	0.101
5.400	-52.972	0.101
5.500	-53.837	0.101
5.600	-41.955	0.101
5.700	-55.449	0.101
5.800	-53.985	0.101
5.900	-57.892	0.101
6.000	-55.909	0.101
6.100	-55.589	0.101
6.200	-54.777	0.101
6.300	-54.621	0.101
6.400	-45.853	0.101
6.500	-49.286	0.101
6.600	-49.387	0.101
6.700	-52.279	0.101
6.800	-48.198	0.101
6.900	-44.118	0.101
7.000	-50.806	0.101
7.100	-51.744	0.101
7.200	-54.953	0.100
7.300	-50.269	0.101
7.400	-45.732	0.101
7.500	-55.045	0.101
7.600	-47.765	0.101
7.700	-50.759	0.101
7.800	-42.533	0.101
7.900	-57.290	0.101
8.000	-50.787	0.101
8.100	-52.533	0.101
8.200	-44.886	0.101
8.300	-45.136	0.101
8.400	-51.631	0.100
8.500	-60.206	0.101
8.600	-43.874	0.101
8.700	-54.960	0.101
8.800	-45.634	0.101
8.900	-42.815	0.101
9.000	-52.674	0.101
9.100	-50.662	0.101
9.200	-42.924	0.101
9.300	-54.471	0.101
9.400	-58.866	0.101
9.500	-62.014	0.101
9.600	-52.707	0.101
9.700	-55.710	0.101
9.800	-51.292	0.101
9.900	-54.174	0.101
10.000	-47.132	0.101
10.100	-42.160	0.101
10.200	-42.386	0.101
10.300	-47.234	0.101
10.400	-52.535	0.101
10.500	-51.885	0.101
10.600	-45.843	0.101
10.700	-39.545	0.101
10.800	-53.439	0.101
10.900	-50.090	0.101
11.000	-55.284	0.101
11.100	-41.818	0.101
11.200	-56.426	0.101
11.300	-55.821	0.101
11.400	-45.651	0.101
11.500	-40.843	0.101
11.600	-48.696	0.101
11.700	-50.815	0.101
11.800	-57.369	0.101
11.900	-55.982	0.101
12.000	-40.026	0.101
12.100	-50.760	0.101
12.200	-49.057	0.101
12.300	-46.276	0.101
12.400	-52.295	0.101
12.500	-51.504	0.101
12.600	-51.415	0.101
12.700	-51.034	0.101
12.800	-46.252	0.101
12.900	-49.248	0.101
13.000	-52.458	0.101
13.100	-51.786	0.101
13.200	-48.326	0.101
13.300	-53.826	0.101
13.400	-41.987	0.100
13.500	-46.682	0.101
13.600	-47.868	0.101
13.700	-47.146	0.101
13.800	-47.131	0.101
13.900	-44.600	0.101
14.000	-45.998	0.101
14.100	-48.745	0.101
14.200	-46.155	0.101
14.300	-47.081	0.101
14.400	-42.714	0.101
14.500	-40.830	0.101
14.600	-58.146	0.101
14.700	-44.763	0.101
14.800	-51.823	0.101
14.900	-50.942	0.101
15.000	-51.949	0.101
15.100	-51.670	0.101
15.200	-53.560	0.101
15.300	-46.290	0.101
15.400	-46.857	0.101
15.500	-43.737	0.101
15.600	-37.925	0.101
15.700	-46.641	0.101
15.800	-48.372	0.101
15.900	-46.139	0.101
16.000	-51.056	0.101
16.100	-48.600	0.101
16.200	-41.623	0.101
16.300	-46.359	0.101
16.400	-46.088	0.101
16.500	-50.087	0.101
16.600	-39.293	0.101
16.700	-48.930	0.101
16.800	-42.840	0.101
16.900	-52.168	0.101
17.000	-49.709	0.101
17.100	-47.978	0.101
17.200	-42.885	0.101
17.300	-37.905	0.101
17.400	-53.192	0.101
17.500	-42.028	0.101
17.600	-45.190	0.101
17.700	-42.053	0.101
17.800	-56.367	0.101
17.900	-51.769	0.101
18.000	-43.593	0.101
18.100	-47.589	0.101
18.200	-54.614	0.101
18.300	-48.163	0.101
18.400	-42.369	0.101
18.500	-38.588	0.101
18.600	-37.426	0.101
18.700	-44.702	0.101
18.800	-38.124	0.101
18.900	-49.352	0.101
19.000	-43.169	0.101
19.100	-45.861	0.101
19.200	-47.015	0.101
19.300	-36.334	0.101
19.400	-45.885	0.101
19.500	-41.731	0.101
19.600	-54.766	0.101
19.700	-43.722	0.101
19.800	-45.617	0.101
19.900	-39.062	0.101
20.000	-46.123	0.101
20.100	-59.634	0.101
20.200	-48.441	0.101
20.300	-45.275	0.101
20.400	-47.277	0.101
20.500	-47.586	0.101
20.600	-44.666	0.101
20.700	-45.449	0.101
20.800	-56.014	0.101
20.900	-59.789	0.100
21.000	-43.716	0.101
21.100	-47.009	0.101
21.200	-40.566	0.101
21.300	-41.613	0.101
21.400	-47.031	0.101
21.500	-51.448	0.101
21.600	-50.163	0.101
21.700	-48.839	0.101
21.800	-45.554	0.101
21.900	-35.111	0.101
22.000	-46.648	0.101
22.100	-33.761	0.101
22.200	-41.309	0.101
22.300	-46.975	0.101
22.400	-50.294	0.100
22.500	-38.702	0.101
22.600	-49.603	0.101
22.700	-46.921	0.101
22.800	-44.287	0.101
22.900	-44.984	0.101
23.000	-36.021	0.101
23.100	-46.592	0.101
23.200	-46.174	0.101
23.300	-53.104	0.101
23.400	-44.749	0.101
23.500	-47.045	0.101
23.600	-45.252	0.101
23.700	-42.578	0.101
23.800	-45.965	0.101
23.900	-51.213	0.101
24.000	-47.857	0.101
24.100	-47.474	0.101
24.200	-39.265	0.101
24.300	-30.011	0.101
24.400	-46.211	0.101
24.500	-56.608	0.101
24.600	-45.246	0.101
24.700	-38.997	0.100
24.800	-42.881	0.101
24.900	-48.344	0.101
25.000	-48.470	0.101
25.100	-49.709	0.101
25.200	-45.707	0.101
25.300	-43.302	0.101
25.400	-39.550	0.101
25.500	-32.311	0.101
25.600	-53.644	0.101
25.700	-42.773	0.101
25.800	-46.142	0.101
25.900	-46.175	0.101
26.000	-40.512	0.101
26.100	-48.930	0.101
26.200	-45.714	0.101
26.300	-42.044	0.101
26.400	-61.308	0.101
26.500	-46.880	0.101
26.600	-36.135	0.101
26.700	-38.165	0.101
26.800	-40.322	0.101
26.900	-35.542	0.101
27.000	-47.403	0.101
27.100	-43.251	0.101
27.200	-45.708	0.101
27.300	-47.792	0.101
27.400	-45.025	0.101
27.500	-48.071	0.101
27.600	-36.961	0.101
27.700	-41.455	0.101
27.800	-46.321	0.101
27.900	-35.183	0.101
28.000	-33.637	0.101
28.100	-46.083	0.101
28.200	-46.000	0.101
28.300	-51.521	0.101
28.400	-42.714	0.101
28.500	-39.908	0.101
28.600	-43.392	0.101
28.700	-43.203	0.101
28.800	-37.301	0.101
28.900	-42.510	0.101
29.000	-44.976	0.101
29.100	-40.697	0.101
29.200	-38.484	0.101
29.300	-40.113	0.101
29.400	-50.942	0.101
29.500	-43.791	0.101
29.600	-49.950	0.101
29.700	-34.691	0.101
29.800	-29.718	0.101
29.900	-41.894	0.101
30.000	-36.942	0.101
30.100	-40.146	0.101
30.200	-30.833	0.101
30.300	-36.558	0.101
30.400	-39.396	0.101
30.500	-31.520	0.101
30.600	-31.815	0.101
30.700	-37.315	0.101
30.800	-28.300	0.101
30.900	-36.172	0.101
31.000	-28.058	0.101
31.100	-25.855	0.101
31.200	-15.817	0.100
31.300	-28.841	0.101
31.400	-20.965	0.101
31.500	-39.152	0.101
31.600	-29.033	0.101
31.700	-16.562	0.101
31.800	-18.649	0.101
31.900	-16.337	0.101
32.000	-18.312	0.101
32.100	-18.616	0.101
32.200	-24.705	0.101
32.300	-19.038	0.101
32.400	-14.487	0.101
32.500	-15.560	0.101
32.600	-11.053	0.101
32.700	-18.184	0.101
32.800	-8.627	0.101
32.900	-15.308	0.101
33.000	-11.673	0.101
33.100	-16.039	0.101
33.200	-16.520	0.101
33.300	-13.705	0.101
33.400	-10.603	0.101
33.500	-18.813	0.101
33.600	-18.151	0.101
33.700	-12.963	0.101
33.800	-16.023	0.101
33.900	-10.014	0.101
34.000	-11.477	0.101
34.100	-5.647	0.101
34.200	-13.785	0.101
34.300	-8.295	0.101
34.400	-14.133	0.101
34.500	-12.157	0.101
34.600	-6.908	0.101
34.700	-6.093	0.101
34.800	5.357	0.101
34.900	-11.566	0.101
35.000	-9.162	0.101
35.100	-8.349	0.101
35.200	-4.693	0.101
35.300	-9.189	0.101
35.400	-17.574	0.101
35.500	-9.551	0.101
35.600	-3.676	0.101
35.700	-10.513	0.101
35.800	-6.930	0.101
35.900	2.099	0.101
36.000	4.115	0.101
36.100	1.016	0.101
36.200	-7.769	0.101
36.300	6.522	0.101
36.400	-1.475	0.101
36.500	-11.352	0.101
36.600	0.291	0.101
36.700	10.219	0.101
36.800	3.895	0.101
36.900	-6.782	0.101
37.000	-5.184	0.101
37.100	-6.226	0.101
37.200	7.706	0.101
37.300	-2.723	0.101
37.400	-0.917	0.101
37.500	7.039	0.101
37.600	6.846	0.101
37.700	-2.917	0.101
37.800	13.345	0.101
37.900	3.362	0.101
38.000	13.083	0.101
38.100	7.678	0.101
38.200	10.456	0.101
38.300	9.162	0.101
38.400	9.745	0.101
38.500	16.792	0.101
38.600	1.571	0.101
38.700	14.958	0.101
38.800	13.231	0.101
38.900	9.363	0.101
39.000	6.602	0.101
39.100	12.899	0.101
39.200	8.779	0.101
39.300	21.507	0.101
39.400	10.956	0.101
39.500	13.531	0.101
39.600	1.993	0.101
39.700	7.378	0.101
39.800	12.206	0.101
39.900	11.574	0.101
40.000	1.529	0.101
40.100	16.013	0.101
40.200	16.751	0.101
40.300	13.182	0.101
40.400	8.040	0.101
40.500	-0.834	0.101
40.600	11.037	0.101
40.700	20.668	0.101
40.800	15.514	0.101
40.900	19.139	0.101
41.000	9.929	0.101
41.100	13.906	0.101
41.200	20.689	0.101
41.300	11.622	0.101
41.400	4.493	0.101
41.500	12.139	0.101
41.600	14.951	0.101
41.700	22.841	0.101
41.800	16.683	0.101
41.900	21.163	0.101
42.000	16.433	0.101
42.100	9.191	0.101
42.200	23.671	0.101
42.300	14.245	0.101
42.400	23.507	0.101
42.500	17.317	0.101
42.600	20.501	0.101
42.700	19.881	0.101
42.800	21.583	0.101
42.900	13.370	0.101
43.000	15.389	0.101
43.100	4.351	0.101
43.200	17.599	0.101
43.300	10.097	0.101
43.400	13.633	0.101
43.500	15.550	0.101
43.600	11.111	0.101
43.700	19.400	0.101
43.800	9.951	0.101
43.900	12.324	0.101
44.000	9.186	0.101
44.100	22.254	0.101
44.200	13.082	0.101
44.300	15.693	0.101
44.400	10.343	0.101
44.500	14.205	0.101
44.600	15.803	0.101
44.700	16.937	0.101
44.800	16.355	0.101
44.900	23.422	0.101
45.000	19.447	0.101
45.100	6.603	0.101
45.200	1.069	0.101
45.300	16.750	0.101
45.400	28.806	0.101
45.500	22.276	0.101
45.600	14.985	0.101
45.700	18.248	0.101
45.800	14.402	0.101
45.900	8.959	0.101
46.000	6.452	0.101
46.100	22.083	0.101
46.200	12.087	0.101
46.300	13.270	0.101
46.400	19.131	0.101
46.500	5.703	0.101
46.600	25.043	0.101
46.700	6.485	0.101
46.800	9.597	0.101
46.900	7.044	0.101
47.000	14.881	0.101
47.100	8.709	0.101
47.200	5.698	0.101
47.300	-2.307	0.101
47.400	11.332	0.101
47.500	5.809	0.101
47.600	-6.192	0.101
47.700	2.797	0.101
47.800	18.380	0.101
47.900	10.012	0.101
48.000	8.406	0.101
48.100	6.413	0.101
48.200	6.946	0.101
48.300	-1.660	0.101
48.400	4.704	0.101
48.500	10.934	0.101
48.600	14.864	0.101
48.700	18.542	0.101
48.800	0.916	0.101
48.900	6.664	0.101
49.000	3.693	0.101
49.100	2.362	0.101
49.200	0.839	0.101
49.300	2.769	0.101
49.400	1.717	0.101
49.500	10.524	0.101
49.600	10.898	0.101
49.700	7.140	0.101
49.800	5.337	0.101
49.900	4.044	0.101
50.000	-2.388	0.101
50.100	-1.043	0.101
50.200	-4.247	0.101
50.300	11.874	0.101
50.400	-2.725	0.101
50.500	1.242	0.101
50.600	14.592	0.101
50.700	-1.259	0.101
50.800	5.461	0.101
50.900	12.488	0.101
51.000	8.659	0.101
51.100	-3.705	0.101
51.200	-2.475	0.101
51.300	-3.498	0.101
51.400	-5.660	0.101
51.500	3.805	0.101
51.600	0.160	0.101
51.700	6.405	0.101
51.800	9.464	0.101
51.900	0.621	0.101
52.000	-2.711	0.101
52.100	-0.261	0.101
52.200	8.959	0.101
52.300	8.192	0.101
52.400	-5.600	0.101
52.500	2.320	0.101
52.600	-3.467	0.101
52.700	-3.592	0.101
52.800	-1.889	0.101
52.900	9.999	0.101
53.000	-1.942	0.101
53.100	-0.642	0.101
53.200	-1.744	0.101
53.300	2.988	0.101
53.400	-6.139	0.101
53.500	5.488	0.101
53.600	7.135	0.101
53.700	-1.227	0.101
53.800	-2.834	0.101
53.900	-1.157	0.101
54.000	-0.328	0.101
54.100	-2.461	0.101
54.200	0.689	0.101
54.300	2.394	0.101
54.400	-7.519	0.101
54.500	2.013	0.101
54.600	7.351	0.101
54.700	0.799	0.101
54.800	-3.303	0.101
54.900	-0.299	0.101
55.000	-2.263	0.101
55.100	1.118	0.101
55.200	5.389	0.101
55.300	2.260	0.101
55.400	1.273	0.101
55.500	0.027	0.101
55.600	-9.047	0.101
55.700	4.449	0.101
55.800	1.503	0.101
55.900	-3.457	0.101
56.000	-3.356	0.101
56.100	-8.299	0.101
56.200	-2.606	0.101
56.300	3.827	0.101
56.400	5.404	0.101
56.500	1.852	0.101
56.600	5.843	0.101
56.700	-5.498	0.101
56.800	4.599	0.101
56.900	-10.412	0.101
57.000	1.861	0.101
57.100	2.749	0.101
57.200	8.684	0.101
57.300	0.481	0.101
57.400	-2.790	0.101
57.500	-1.473	0.101
57.600	6.753	0.101
57.700	-3.696	0.101
57.800	-5.301	0.101
57.900	0.062	0.101
58.000	2.425	0.101
58.100	4.384	0.101
58.200	2.478	0.101
58.300	-4.809	0.101
58.400	-6.853	0.101
58.500	0.384	0.101
58.600	2.402	0.101
58.700	3.226	0.101
58.800	-1.878	0.101
58.900	-3.772	0.101
59.000	-12.298	0.101
59.100	-0.812	0.101
59.200	8.092	0.101
59.300	-4.897	0.101
59.400	2.095	0.101
59.500	-4.989	0.101
59.600	1.111	0.101
59.700	-0.699	0.101
59.800	-1.206	0.101
59.900	-10.399	0.101
60.000	-6.504	0.101
60.100	0.065	0.101
60.200	-3.877	0.101
60.300	2.459	0.101
60.400	1.752	0.101
60.500	3.777	0.101
60.600	2.438	0.101
60.700	-14.485	0.101
60.800	2.181	0.101
60.900	8.392	0.101
61.000	-4.233	0.101
61.100	-2.916	0.101
61.200	1.566	0.101
61.300	-0.709	0.101
61.400	2.722	0.101
61.500	0.787	0.101
61.600	-3.386	0.101
61.700	-4.757	0.101
61.800	-8.679	0.101
61.900	-6.613	0.101
62.000	-1.703	0.101
62.100	1.136	0.101
62.200	6.296	0.101
62.300	-0.401	0.101
62.400	-3.124	0.101
62.500	2.915	0.101
62.600	-12.072	0.101
62.700	3.168	0.101
62.800	-7.780	0.101
62.900	0.843	0.101
63.000	1.069	0.101
63.100	-0.549	0.101
63.200	4.804	0.101
63.300	0.172	0.101
63.400	7.854	0.101
63.500	9.879	0.101
63.600	-4.385	0.101
63.700	7.927	0.101
63.800	9.714	0.101
63.900	1.437	0.101
64.000	5.831	0.101
64.100	3.691	0.101
64.200	-7.887	0.101
64.300	-3.435	0.101
64.400	5.761	0.101
64.500	-3.132	0.101
64.600	-0.381	0.101
64.700	4.665	0.101
64.800	-4.747	0.101
64.900	-5.336	0.101
65.000	-1.838	0.101
65.100	9.140	0.101
65.200	-2.078	0.101
65.300	4.589	0.101
65.400	3.902	0.101
65.500	9.173	0.101
65.600	4.622	0.101
65.700	0.215	0.101
65.800	-0.261	0.101
65.900	2.010	0.101
66.000	-8.252	0.101
66.100	9.822	0.101
66.200	8.516	0.101
66.300	-1.309	0.101
66.400	-6.642	0.101
66.500	2.866	0.101
66.600	-1.685	0.101
66.700	12.036	0.101
66.800	1.464	0.101
66.900	-2.343	0.101
67.000	0.707	0.101
67.100	4.687	0.101
67.200	-2.328	0.101
67.300	-9.648	0.100
67.400	2.388	0.101
67.500	-0.813	0.101
67.600	-1.487	0.101
67.700	-3.755	0.101
67.800	0.460	0.101
67.900	7.700	0.101
68.000	4.864	0.101
68.100	-0.528	0.101
68.200	11.415	0.101
68.300	-1.113	0.101
68.400	0.460	0.101
68.500	1.927	0.101
68.600	3.447	0.101
68.700	-3.003	0.101
68.800	1.716	0.101
68.900	-6.734	0.101
69.000	6.959	0.101
69.100	6.178	0.101
69.200	7.185	0.101
69.300	0.032	0.101
69.400	-7.500	0.101
69.500	-0.095	0.101
69.600	9.204	0.101
69.700	2.271	0.101
69.800	12.054	0.101
69.900	3.048	0.101
70.000	3.909	0.101
70.100	1.935	0.101
70.200	-10.085	0.101
70.300	9.186	0.101
70.400	3.006	0.101
70.500	4.220	0.101
70.600	-1.903	0.101
70.700	-5.900	0.101
70.800	6.152	0.101
70.900	0.606	0.101
71.000	5.398	0.101
71.100	2.685	0.101
71.200	-11.048	0.101
71.300	2.121	0.101
71.400	2.845	0.101
71.500	6.166	0.101
71.600	4.078	0.101
71.700	-2.333	0.101
71.800	5.921	0.101
71.900	3.333	0.101
72.000	3.529	0.101
72.100	1.028	0.101
72.200	9.611	0.101
72.300	-1.087	0.101
72.400	6.276	0.101
72.500	15.745	0.101
72.600	1.457	0.101
72.700	1.383	0.101
72.800	2.823	0.101
72.900	11.435	0.101
73.000	-0.082	0.101
73.100	6.387	0.101
73.200	17.704	0.101
73.300	10.435	0.101
73.400	11.878	0.101
73.500	2.822	0.101
73.600	5.581	0.101
73.700	-6.543	0.101
73.800	2.356	0.101
73.900	8.446	0.101
74.000	2.261	0.101
74.100	7.448	0.101
74.200	12.449	0.101
74.300	3.917	0.101
74.400	3.940	0.101
74.500	4.933	0.101
74.600	-1.064	0.100
74.700	1.903	0.101
74.800	-1.227	0.101
74.900	7.122	0.101
75.000	-4.020	0.101
75.100	0.257	0.101
75.200	14.692	0.101
75.300	12.393	0.101
75.400	0.160	0.101
75.500	10.772	0.101
75.600	15.981	0.101
75.700	19.818	0.101
75.800	2.679	0.101
75.900	-3.004	0.101
76.000	13.981	0.101
76.100	12.400	0.101
76.200	5.544	0.101
76.300	7.503	0.101
76.400	3.413	0.101
76.500	2.295	0.101
76.600	8.816	0.101
76.700	14.874	0.101
76.800	8.361	0.101
76.900	7.024	0.101
77.000	7.011	0.101
77.100	2.239	0.101
77.200	-2.007	0.101
77.300	18.925	0.101
77.400	20.351	0.101
77.500	19.967	0.101
77.600	15.151	0.101
77.700	7.470	0.101
77.800	6.788	0.101
77.900	3.164	0.101
78.000	10.283	0.101
78.100	1.188	0.101
78.200	1.505	0.101
78.300	4.069	0.101
78.400	2.522	0.101
78.500	11.659	0.101
78.600	6.582	0.101
78.700	15.161	0.101
78.800	9.926	0.101
78.900	20.091	0.101
79.000	7.605	0.101
79.100	10.308	0.101
79.200	2.814	0.101
79.300	6.051	0.101
79.400	11.276	0.101
79.500	13.518	0.101
79.600	9.809	0.101
79.700	10.674	0.101
79.800	9.537	0.101
79.900	10.305	0.101
80.000	4.073	0.101
80.100	9.006	0.100
80.200	4.532	0.101
80.300	10.814	0.101
80.400	3.786	0.101
80.500	5.107	0.101
80.600	13.347	0.101
80.700	10.753	0.101
80.800	2.615	0.101
80.900	15.955	0.101
81.000	14.219	0.101
81.100	12.298	0.101
81.200	1.386	0.101
81.300	7.112	0.101
81.400	11.862	0.101
81.500	-1.258	0.101
81.600	8.692	0.101
81.700	-0.988	0.101
81.800	17.734	0.101
81.900	8.786	0.101
82.000	13.346	0.101
82.100	17.251	0.101
82.200	10.539	0.101
82.300	1.888	0.101
82.400	5.835	0.101
82.500	16.049	0.101
82.600	8.730	0.101
82.700	12.596	0.101
82.800	14.510	0.101
82.900	8.800	0.101
83.000	11.803	0.101
83.100	2.269	0.101
83.200	19.299	0.101
83.300	10.112	0.101
83.400	17.579	0.101
83.500	14.246	0.101
83.600	7.178	0.101
83.700	14.261	0.101
83.800	8.531	0.101
83.900	11.580	0.101
84.000	20.419	0.101
84.100	18.410	0.101
84.200	6.178	0.101
84.300	18.469	0.101
84.400	7.058	0.101
84.500	17.931	0.101
84.600	8.198	0.101
84.700	8.348	0.101
84.800	13.366	0.101
84.900	5.097	0.101
85.000	14.619	0.101
85.100	22.015	0.101
85.200	17.230	0.101
85.300	8.851	0.101
85.400	6.116	0.101
85.500	4.347	0.101
85.600	14.317	0.101
85.700	12.199	0.101
85.800	22.680	0.101
85.900	10.121	0.101
86.000	12.030	0.101
86.100	15.948	0.101
86.200	14.768	0.101
86.300	13.050	0.101
86.400	5.439	0.101
86.500	18.524	0.101
86.600	3.750	0.101
86.700	7.287	0.101
86.800	17.589	0.101
86.900	16.906	0.101
87.000	14.024	0.101
87.100	11.144	0.101
87.200	18.766	0.101
87.300	10.770	0.101
87.400	1.488	0.101
87.500	13.025	0.101
87.600	14.950	0.101
87.700	17.429	0.101
87.800	26.812	0.101
87.900	17.000	0.101
88.000	14.584	0.101
88.100	14.522	0.101
88.200	5.982	0.101
88.300	14.515	0.101
88.400	16.148	0.101
88.500	10.817	0.101
88.600	10.001	0.101
88.700	13.321	0.101
88.800	21.467	0.101
88.900	16.828	0.101
89.000	12.905	0.101
89.100	10.605	0.100
89.200	15.095	0.101
89.300	14.748	0.101
89.400	15.217	0.101
89.500	6.869	0.101
89.600	18.197	0.101
89.700	9.923	0.101
89.800	14.658	0.101
89.900	17.601	0.101
90.000	10.647	0.101
90.100	9.598	0.101
90.200	11.467	0.101
90.300	6.512	0.101
90.400	12.982	0.101
90.500	-5.147	0.101
90.600	7.073	0.101
90.700	-3.344	0.100
90.800	-4.076	0.101
90.900	-0.435	0.101
91.000	0.238	0.101
91.100	2.754	0.101
91.200	-1.076	0.101
91.300	-0.206	0.101
91.400	-8.862	0.101
91.500	1.010	0.101
91.600	-9.754	0.101
91.700	-10.365	0.101
91.800	-11.884	0.101
91.900	-14.308	0.101
92.000	-11.012	0.101
92.100	-12.160	0.101
92.200	-21.340	0.101
92.300	-9.097	0.101
92.400	-16.074	0.101
92.500	-17.207	0.101
92.600	-20.868	0.101
92.700	-21.071	0.101
92.800	-10.693	0.101
92.900	-18.337	0.101
93.000	-26.623	0.101
93.100	-31.693	0.101
93.200	-15.502	0.101
93.300	-30.316	0.101
93.400	-22.022	0.101
93.500	-36.238	0.101
93.600	-28.675	0.100
93.700	-22.431	0.101
93.800	-29.198	0.101
93.900	-28.744	0.101
94.000	-26.292	0.101
94.100	-32.011	0.101
94.200	-33.644	0.101
94.300	-31.748	0.100
94.400	-20.712	0.101
94.500	-31.701	0.101
94.600	-28.637	0.101
94.700	-29.281	0.100
94.800	-37.462	0.101
94.900	-27.374	0.101
95.000	-31.597	0.101
95.100	-30.027	0.101
95.200	-26.402	0.101
95.300	-28.295	0.101
95.400	-35.282	0.100
95.500	-27.448	0.101
95.600	-29.449	0.101
95.700	-29.016	0.101
95.800	-27.670	0.101
95.900	-34.116	0.101
96.000	-42.888	0.101
96.100	-35.458	0.101
96.200	-32.467	0.100
96.300	-47.944	0.101
96.400	-39.980	0.101
96.500	-37.594	0.100
96.600	-31.856	0.101
96.700	-32.052	0.101
96.800	-32.944	0.101
96.900	-30.204	0.101
97.000	-34.251	0.101
97.100	-44.775	0.101
97.200	-40.582	0.101
97.300	-34.718	0.101
97.400	-42.031	0.101
97.500	-32.957	0.101
97.600	-24.719	0.100
97.700	-27.538	0.101
97.800	-41.636	0.101
97.900	-35.589	0.100
98.000	-34.425	0.101
98.100	-32.599	0.101
98.200	-31.433	0.101
98.300	-33.142	0.101
98.400	-28.893	0.101
98.500	-38.630	0.101
98.600	-37.660	0.101
98.700	-26.202	0.101
98.800	-28.105	0.101
98.900	-38.163	0.101
99.000	-36.321	0.100
99.100	-37.688	0.101
99.200	-34.668	0.101
99.300	-44.038	0.101
99.400	-28.409	0.101
99.500	-31.462	0.101
99.600	-35.992	0.101
99.700	-30.806	0.101
99.800	-28.435	0.100
99.900	-28.301	0.101
100.000	-35.687	0.101
100.100	-36.981	0.101
100.200	-40.946	0.101
100.300	-36.592	0.101
100.400	-29.171	0.101
100.500	-33.605	0.101
100.600	-32.708	0.101
100.700	-32.494	0.101
100.800	-36.682	0.100
100.900	-37.080	0.101
101.000	-41.679	0.101
101.100	-32.517	0.101
101.200	-32.777	0.101
101.300	-22.280	0.101
101.400	-21.502	0.101
101.500	-29.731	0.101
101.600	-33.849	0.101
101.700	-20.922	0.101
101.800	-24.181	0.100
101.900	-33.575	0.100
102.000	-27.649	0.101
102.100	-31.220	0.101
102.200	-23.462	0.101
102.300	-28.182	0.100
102.400	-27.187	0.101
102.500	-29.306	0.100
102.600	-28.446	0.100
102.700	-39.551	0.101
102.800	-18.933	0.101
102.900	-30.424	0.101
103.000	-35.769	0.101
103.100	-31.628	0.101
103.200	-22.054	0.101
103.300	-31.795	0.101
103.400	-43.454	0.101
103.500	-31.620	0.101
103.600	-17.428	0.101
103.700	-33.368	0.101
103.800	-34.833	0.101
103.900	-26.283	0.101
104.000	-29.247	0.101
104.100	-27.710	0.101
104.200	-31.118	0.101
104.300	-20.717	0.101
104.400	-26.003	0.101
104.500	-28.548	0.101
104.600	-26.751	0.101
104.700	-29.957	0.101
104.800	-25.810	0.100
104.900	-24.083	0.101
105.000	-27.917	0.101
105.100	-32.915	0.101
105.200	-38.300	0.101
105.300	-25.084	0.101
105.400	-19.799	0.101
105.500	-29.736	0.101
105.600	-20.972	0.101
105.700	-22.059	0.101
105.800	-22.260	0.101
105.900	-37.877	0.101
106.000	-33.524	0.101
106.100	-20.076	0.101
106.200	-31.002	0.101
106.300	-22.566	0.101
106.400	-31.407	0.101
106.500	-35.536	0.101
106.600	-18.763	0.101
106.700	-25.895	0.101
106.800	-29.326	0.100
106.900	-32.145	0.101
107.000	-22.882	0.101
107.100	-22.744	0.101
107.200	-26.789	0.101
107.300	-19.511	0.101
107.400	-26.360	0.101
107.500	-26.640	0.101
107.600	-25.793	0.101
107.700	-33.659	0.101
107.800	-27.947	0.101
107.900	-29.166	0.101
108.000	-28.809	0.101
108.100	-27.240	0.101
108.200	-29.445	0.101
108.300	-29.848	0.101
108.400	-22.549	0.101
108.500	-26.415	0.101
108.600	-30.926	0.101
108.700	-35.467	0.101
108.800	-29.190	0.101
108.900	-39.492	0.101
109.000	-27.427	0.101
109.100	-28.598	0.101
109.200	-31.426	0.101
109.300	-34.057	0.101
109.400	-23.774	0.101
109.500	-25.092	0.100
109.600	-25.645	0.101
109.700	-31.358	0.101
109.800	-41.041	0.101
109.900	-31.114	0.101
110.000	-35.902	0.101
110.100	-33.022	0.101
110.200	-18.926	0.101
110.300	-18.786	0.101
110.400	-16.461	0.101
110.500	-21.828	0.101
110.600	-32.816	0.101
110.700	-34.327	0.101
110.800	-28.473	0.101
110.900	-29.175	0.101
111.000	-24.756	0.101
111.100	-23.935	0.101
111.200	-27.121	0.101
111.300	-26.565	0.101
111.400	-24.679	0.100
111.500	-32.428	0.101
111.600	-36.556	0.101
111.700	-33.354	0.101
111.800	-21.755	0.101
111.900	-22.473	0.101
112.000	-32.133	0.101
112.100	-27.601	0.100
112.200	-29.335	0.101
112.300	-29.489	0.101
112.400	-38.381	0.101
112.500	-41.510	0.101
112.600	-33.382	0.101
112.700	-29.399	0.100
112.800	-29.085	0.101
112.900	-23.612	0.100
113.000	-23.131	0.101
113.100	-26.838	0.101
113.200	-23.871	0.101
113.300	-23.081	0.101
113.400	-30.941	0.101
113.500	-36.691	0.101
113.600	-31.239	0.101
113.700	-29.056	0.101
113.800	-27.948	0.101
113.900	-24.449	0.101
114.000	-31.321	0.101
114.100	-23.408	0.101
114.200	-32.801	0.101
114.300	-34.130	0.101
114.400	-25.131	0.101
114.500	-19.828	0.101
114.600	-26.449	0.101
114.700	-38.263	0.101
114.800	-23.020	0.101
114.900	-25.412	0.100
115.000	-30.821	0.101
115.100	-28.915	0.101
115.200	-28.278	0.101
115.300	-27.806	0.101
115.400	-18.349	0.101
115.500	-24.406	0.101
115.600	-36.262	0.101
115.700	-30.796	0.101
115.800	-36.487	0.101
115.900	-35.831	0.101
116.000	-45.489	0.101
116.100	-39.208	0.101
116.200	-27.611	0.101
116.300	-29.406	0.101
116.400	-22.172	0.100
116.500	-32.502	0.101
116.600	-25.882	0.101
116.700	-22.203	0.101
116.800	-34.521	0.101
116.900	-27.422	0.101
117.000	-33.179	0.101
117.100	-23.598	0.101
117.200	-24.743	0.101
117.300	-31.108	0.101
117.400	-43.305	0.100
117.500	-29.771	0.100
117.600	-23.815	0.100
117.700	-31.848	0.101
117.800	-31.913	0.101
117.900	-32.713	0.100
118.000	-32.851	0.101
118.100	-31.596	0.101
118.200	-13.659	0.101
118.300	-37.115	0.101
118.400	-31.095	0.101
118.500	-28.249	0.101
118.600	-30.052	0.101
118.700	-26.837	0.101
118.800	-22.929	0.101
118.900	-32.429	0.101
119.000	-27.995	0.101
119.100	-30.691	0.101
119.200	-29.875	0.101
119.300	-35.439	0.101
119.400	-29.206	0.100
119.500	-31.481	0.100
119.600	-30.045	0.101
119.700	-31.072	0.100
119.800	-21.926	0.100
119.900	-29.756	0.100
120.000	-27.304	0.100
120.100	-24.519	0.100
120.200	-26.207	0.101
120.300	-36.567	0.101
120.400	-30.117	0.101
120.500	-31.507	0.101
120.600	-30.615	0.101
120.700	-29.921	0.101
120.800	-25.922	0.101
120.900	-30.127	0.101
121.000	-31.611	0.101
121.100	-27.833	0.100
121.200	-34.869	0.101
121.300	-29.491	0.101
121.400	-35.858	0.101
121.500	-27.275	0.101
121.600	-25.352	0.101
121.700	-33.142	0.101
121.800	-42.221	0.101
121.900	-36.687	0.101
122.000	-29.635	0.101
122.100	-20.499	0.101
122.200	-29.066	0.101
122.300	-26.894	0.101
122.400	-32.093	0.101
122.500	-20.946	0.100
122.600	-39.126	0.101
122.700	-26.017	0.101
122.800	-33.593	0.100
122.900	-35.241	0.101
123.000	-31.301	0.101
123.100	-20.987	0.101
123.200	-31.331	0.101
123.300	-37.368	0.101
123.400	-34.976	0.101
123.500	-21.477	0.101
123.600	-31.365	0.101
123.700	-29.330	0.101
123.800	-31.765	0.101
123.900	-34.321	0.100
124.000	-26.280	0.101
124.100	-32.747	0.101
124.200	-26.452	0.101
124.300	-34.316	0.101
124.400	-37.582	0.101
124.500	-44.486	0.101
124.600	-26.976	0.101
124.700	-24.565	0.101
124.800	-33.618	0.101
124.900	-33.187	0.101
125.000	-45.451	0.100
125.100	-37.271	0.101
125.200	-39.501	0.101
125.300	-25.092	0.101
125.400	-21.130	0.101
125.500	-31.744	0.101
125.600	-25.814	0.101
125.700	-28.820	0.101
125.800	-26.360	0.100
125.900	-30.709	0.100
126.000	-32.076	0.101
126.100	-34.988	0.101
126.200	-35.456	0.101
126.300	-32.926	0.101
126.400	-30.496	0.101
126.500	-30.721	0.101
126.600	-32.787	0.101
126.700	-36.398	0.100
126.800	-31.156	0.101
126.900	-31.868	0.101
127.000	-38.426	0.101
127.100	-24.548	0.101
127.200	-31.877	0.100
127.300	-41.912	0.100
127.400	-24.093	0.101
127.500	-35.185	0.101
127.600	-30.541	0.101
127.700	-28.993	0.101
127.800	-27.184	0.100
127.900	-19.295	0.100
128.000	-25.135	0.100
128.100	-30.810	0.101
128.200	-31.526	0.101
128.300	-36.539	0.101
128.400	-45.613	0.101
128.500	-38.846	0.100
128.600	-31.189	0.101
128.700	-40.336	0.100
128.800	-37.820	0.100
128.900	-27.419	0.100
129.000	-30.266	0.100
129.100	-37.202	0.100
129.200	-25.492	0.101
129.300	-40.538	0.101
129.400	-33.909	0.101
129.500	-35.926	0.101
129.600	-32.066	0.101
129.700	-25.419	0.101
129.800	-36.271	0.101
129.900	-19.791	0.101
130.000	-24.649	0.101
130.100	-28.950	0.101
130.200	-41.359	0.101
130.300	-37.182	0.101
130.400	-28.326	0.101
130.500	-36.357	0.101
130.600	-33.037	0.100
130.700	-22.631	0.101
130.800	-37.543	0.100
130.900	-25.999	0.100
131.000	-24.805	0.100
131.100	-28.875	0.101
131.200	-34.909	0.100
131.300	-27.896	0.101
131.400	-32.915	0.100
131.500	-34.302	0.100
131.600	-44.643	0.100
131.700	-33.079	0.101
131.800	-35.241	0.100
131.900	-26.814	0.100
132.000	-36.995	0.100
132.100	-47.799	0.100
132.200	-32.360	0.100
132.300	-32.275	0.101
132.400	-28.522	0.100
132.500	-25.288	0.101
132.600	-28.275	0.101
132.700	-33.322	0.100
132.800	-29.280	0.101
132.900	-27.347	0.101
133.000	-34.260	0.100
133.100	-35.132	0.100
133.200	-28.478	0.100
133.300	-35.076	0.100
133.400	-34.157	0.100
133.500	-28.271	0.101
133.600	-19.754	0.100
133.700	-30.701	0.101
133.800	-36.287	0.101
133.900	-38.337	0.100
134.000	-25.727	0.101
134.100	-31.371	0.101
134.200	-36.400	0.101
134.300	-35.513	0.101
134.400	-34.957	0.101
134.500	-27.984	0.100
134.600	-17.840	0.100
134.700	-45.266	0.100
134.800	-35.243	0.100
134.900	-34.817	0.100
135.000	-38.847	0.101
135.100	-36.502	0.100
135.200	-30.546	0.100
135.300	-26.031	0.100
135.400	-26.980	0.101
135.500	-28.333	0.101
135.600	-32.167	0.101
135.700	-39.414	0.101
135.800	-37.388	0.100
135.900	-32.341	0.100
136.000	-24.009	0.101
136.100	-29.035	0.100
136.200	-38.830	0.101
136.300	-26.494	0.101
136.400	-36.028	0.101
136.500	-37.343	0.101
136.600	-38.884	0.101
136.700	-42.469	0.101
136.800	-35.668	0.101
136.900	-35.547	0.100
137.000	-35.253	0.101
137.100	-25.480	0.100
137.200	-24.419	0.101
137.300	-27.709	0.100
137.400	-34.419	0.100
137.500	-29.440	0.101
137.600	-42.744	0.100
137.700	-38.727	0.100
137.800	-33.192	0.101
137.900	-35.781	0.101
138.000	-29.967	0.100
138.100	-30.474	0.101
138.200	-27.199	0.101
138.300	-35.945	0.100
138.400	-38.539	0.101
138.500	-39.661	0.100
138.600	-24.730	0.100
138.700	-25.798	0.100
138.800	-32.056	0.101
138.900	-26.152	0.101
139.000	-42.245	0.101
139.100	-43.057	0.101
139.200	-26.152	0.101
139.300	-45.031	0.101
139.400	-31.981	0.101
139.500	-31.173	0.101
139.600	-35.728	0.101
139.700	-29.181	0.101
139.800	-35.821	0.101
139.900	-35.025	0.100
140.000	-34.833	0.101
140.100	-35.704	0.101
140.200	-29.249	0.100
140.300	-30.221	0.101
140.400	-29.915	0.101
140.500	-20.699	0.101
140.600	-33.622	0.101
140.700	-22.375	0.101
140.800	-32.219	0.101
140.900	-27.766	0.101
141.000	-33.020	0.101
141.100	-30.956	0.100
141.200	-28.443	0.101
141.300	-30.770	0.100
141.400	-27.953	0.101
141.500	-29.130	0.101
141.600	-31.712	0.101
141.700	-41.460	0.101
141.800	-37.342	0.101
141.900	-23.740	0.100
142.000	-29.467	0.100
142.100	-36.781	0.101
142.200	-33.712	0.100
142.300	-25.019	0.100
142.400	-21.464	0.101
142.500	-32.461	0.100
142.600	-36.329	0.100
142.700	-36.351	0.101
142.800	-34.274	0.101
142.900	-32.691	0.101
143.000	-34.522	0.100
143.100	-30.611	0.100
143.200	-27.750	0.101
143.300	-37.930	0.100
143.400	-33.928	0.100
143.500	-35.566	0.100
143.600	-36.303	0.100
143.700	-29.772	0.101
143.800	-39.087	0.101
143.900	-35.595	0.100
144.000	-34.098	0.100
144.100	-30.608	0.100
144.200	-31.249	0.100
144.300	-35.873	0.100
144.400	-31.516	0.100
144.500	-25.351	0.100
144.600	-38.807	0.100
144.700	-39.583	0.101
144.800	-42.726	0.101
144.900	-25.814	0.101
145.000	-28.357	0.100
145.100	-30.232	0.100
145.200	-24.136	0.100
145.300	-41.314	0.100
145.400	-34.862	0.100
145.500	-36.862	0.100
145.600	-29.189	0.100
145.700	-35.175	0.100
145.800	-25.085	0.100
145.900	-22.861	0.100
146.000	-34.776	0.100
146.100	-37.933	0.100
146.200	-40.925	0.100
146.300	-20.303	0.101
146.400	-28.814	0.100
146.500	-25.630	0.100
146.600	-23.570	0.101
146.700	-39.026	0.100
146.800	-37.877	0.100
146.900	-46.318	0.100
147.000	-34.075	0.100
147.100	-21.233	0.101
147.200	-31.146	0.100
147.300	-37.194	0.100
147.400	-31.448	0.101
147.500	-36.814	0.101
147.600	-36.245	0.100
147.700	-35.219	0.100
147.800	-31.344	0.100
147.900	-23.422	0.101
148.000	-31.697	0.100
148.100	-31.801	0.100
148.200	-31.148	0.100
148.300	-32.348	0.100
148.400	-35.684	0.100
148.500	-27.078	0.100
148.600	-31.378	0.100
148.700	-27.826	0.100
148.800	-22.345	0.100
148.900	-34.097	0.100
149.000	-35.398	0.100
149.100	-35.034	0.101
149.200	-26.152	0.101
149.300	-32.132	0.100
149.400	-34.105	0.100
149.500	-29.200	0.100
149.600	-35.010	0.100
149.700	-30.576	0.100
149.800	-29.368	0.100
149.900	-33.966	0.101
150.000	-31.685	0.100
150.100	-34.782	0.101
150.200	-29.979	0.100
150.300	-29.755	0.100
150.400	-32.285	0.100
150.500	-34.395	0.100
150.600	-32.112	0.100
150.700	-38.293	0.101
150.800	-22.994	0.100
150.900	-36.040	0.100
151.000	-38.983	0.101
151.100	-31.904	0.100
151.200	-31.316	0.100
151.300	-24.762	0.100
151.400	-38.116	0.100
151.500	-27.980	0.100
151.600	-22.861	0.100
151.700	-38.104	0.101
151.800	-33.689	0.100
151.900	-32.621	0.100
152.000	-27.268	0.100
152.100	-25.210	0.100
152.200	-31.635	0.101
152.300	-29.630	0.100
152.400	-42.066	0.100
152.500	-38.828	0.100
152.600	-31.840	0.100
152.700	-32.315	0.100
152.800	-35.598	0.100
152.900	-37.073	0.100
153.000	-29.974	0.100
153.100	-24.672	0.100
153.200	-30.811	0.100
153.300	-26.346	0.100
153.400	-40.411	0.100
153.500	-22.868	0.100
153.600	-25.532	0.100
153.700	-36.113	0.101
153.800	-36.645	0.100
153.900	-39.594	0.101
154.000	-29.925	0.100
154.100	-34.486	0.100
154.200	-36.147	0.100
154.300	-35.334	0.100
154.400	-22.358	0.100
154.500	-35.377	0.100
154.600	-32.369	0.100
154.700	-29.424	0.100
154.800	-29.263	0.100
154.900	-24.155	0.101
155.000	-30.229	0.100
155.100	-24.290	0.101
155.200	-29.562	0.101
155.300	-43.783	0.101
155.400	-31.862	0.100
155.500	-28.045	0.101
155.600	-35.937	0.101
155.700	-34.343	0.100
155.800	-26.150	0.100
155.900	-26.727	0.100
156.000	-26.309	0.100
156.100	-26.634	0.101
156.200	-39.020	0.100
156.300	-32.964	0.100
156.400	-29.418	0.100
156.500	-25.733	0.100
156.600	-40.807	0.100
156.700	-26.453	0.101
156.800	-17.468	0.100
156.900	-26.525	0.100
157.000	-29.967	0.100
157.100	-27.707	0.100
157.200	-31.230	0.100
157.300	-37.255	0.100
157.400	-27.064	0.101
157.500	-36.932	0.101
157.600	-37.653	0.100
157.700	-37.140	0.101
157.800	-26.420	0.100
157.900	-31.387	0.101
158.000	-33.490	0.100
158.100	-38.217	0.100
158.200	-29.839	0.101
158.300	-29.784	0.101
158.400	-25.985	0.100
158.500	-34.013	0.101
158.600	-35.444	0.100
158.700	-38.040	0.100
158.800	-30.587	0.101
158.900	-28.270	0.100
159.000	-41.953	0.101
159.100	-26.885	0.100
159.200	-33.371	0.100
159.300	-31.596	0.100
159.400	-27.811	0.100
159.500	-32.517	0.100
159.600	-24.330	0.100
159.700	-30.509	0.100
159.800	-32.914	0.100
159.900	-26.424	0.100
160.000	-22.465	0.100
160.100	-27.336	0.101
160.200	-39.362	0.100
160.300	-30.399	0.101
160.400	-24.972	0.100
160.500	-30.920	0.100
160.600	-42.318	0.100
160.700	-31.150	0.100
160.800	-31.500	0.100
160.900	-32.086	0.100
161.000	-31.615	0.100
161.100	-24.617	0.100
161.200	-35.896	0.100
161.300	-29.295	0.101
161.400	-39.713	0.100
161.500	-36.899	0.100
161.600	-25.674	0.101
161.700	-35.087	0.100
161.800	-35.714	0.100
161.900	-35.653	0.100
162.000	-28.207	0.100
162.100	-29.753	0.100
162.200	-27.959	0.100
162.300	-29.476	0.100
162.400	-32.012	0.100
162.500	-29.527	0.100
162.600	-26.101	0.100
162.700	-39.076	0.100
162.800	-30.219	0.100
162.900	-32.256	0.100
163.000	-37.549	0.100
163.100	-36.011	0.100
163.200	-27.180	0.100
163.300	-39.737	0.100
163.400	-26.382	0.100
163.500	-14.573	0.100
163.600	-30.730	0.100
163.700	-30.016	0.100
163.800	-27.658	0.100
163.900	-28.791	0.100
164.000	-29.453	0.100
164.100	-33.325	0.100
164.200	-28.017	0.100
164.300	-46.267	0.100
164.400	-28.944	0.100
164.500	-34.084	0.100
164.600	-25.523	0.100
164.700	-31.362	0.100
164.800	-36.221	0.100
164.900	-35.876	0.100
165.000	-31.209	0.100
165.100	-31.126	0.101
165.200	-27.078	0.100
165.300	-31.301	0.100
165.400	-24.816	0.100
165.500	-30.405	0.100
165.600	-30.713	0.100
165.700	-22.796	0.100
165.800	-27.688	0.101
165.900	-26.896	0.100
166.000	-30.518	0.100
166.100	-31.976	0.100
166.200	-33.192	0.100
166.300	-35.700	0.100
166.400	-24.512	0.101
166.500	-26.902	0.101
166.600	-35.140	0.100
166.700	-34.729	0.100
166.800	-33.490	0.101
166.900	-29.172	0.101
167.000	-37.181	0.100
167.100	-28.667	0.100
167.200	-28.684	0.100
167.300	-28.838	0.100
167.400	-33.684	0.100
167.500	-24.052	0.101
167.600	-25.098	0.100
167.700	-36.590	0.100
167.800	-33.134	0.100
167.900	-34.169	0.101
168.000	-29.772	0.100
168.100	-33.805	0.100
168.200	-28.190	0.100
168.300	-32.413	0.100
168.400	-29.304	0.101
168.500	-26.709	0.100
168.600	-34.424	0.101
168.700	-29.589	0.100
168.800	-32.172	0.100
168.900	-28.833	0.101
169.000	-32.508	0.100
169.100	-33.601	0.100
169.200	-23.495	0.101
169.300	-27.234	0.101
169.400	-28.233	0.100
169.500	-34.018	0.101
169.600	-19.855	0.101
169.700	-33.701	0.100
169.800	-28.146	0.100
169.900	-20.777	0.100
170.000	-20.898	0.100
170.100	-38.789	0.100
170.200	-30.846	0.100
170.300	-29.100	0.101
170.400	-24.149	0.100
170.500	-30.392	0.100
170.600	-27.471	0.100
170.700	-36.378	0.101
170.800	-30.530	0.100
170.900	-33.407	0.100
171.000	-33.351	0.100
171.100	-34.047	0.100
171.200	-33.110	0.100
171.300	-34.920	0.100
171.400	-28.252	0.101
171.500	-31.504	0.101
171.600	-31.279	0.100
171.700	-34.283	0.100
171.800	-25.561	0.100
171.900	-29.956	0.100
172.000	-29.625	0.101
172.100	-21.386	0.100
172.200	-35.345	0.100
172.300	-35.618	0.100
172.400	-16.795	0.100
172.500	-30.885	0.100
172.600	-27.057	0.100
172.700	-31.022	0.100
172.800	-33.886	0.100
172.900	-21.512	0.100
173.000	-25.859	0.100
173.100	-36.604	0.100
173.200	-34.711	0.100
173.300	-39.271	0.100
173.400	-36.306	0.101
173.500	-30.360	0.100
173.600	-37.769	0.100
173.700	-29.661	0.100
173.800	-27.165	0.100
173.900	-33.272	0.100
174.000	-25.722	0.100
174.100	-26.451	0.101
174.200	-29.137	0.100
174.300	-31.249	0.101
174.400	-27.594	0.100
174.500	-32.363	0.100
174.600	-20.026	0.101
174.700	-29.184	0.100
174.800	-40.252	0.100
174.900	-24.871	0.101
175.000	-27.150	0.100
175.100	-31.829	0.100
175.200	-26.066	0.100
175.300	-26.137	0.100
175.400	-37.734	0.100
175.500	-26.904	0.100
175.600	-34.179	0.100
175.700	-25.959	0.100
175.800	-30.272	0.100
175.900	-25.732	0.100
176.000	-32.175	0.100
176.100	-28.123	0.100
176.200	-21.630	0.101
176.300	-39.418	0.100
176.400	-30.258	0.100
176.500	-22.403	0.100
176.600	-28.769	0.100
176.700	-41.063	0.100
176.800	-34.773	0.100
176.900	-25.479	0.100
177.000	-28.651	0.100
177.100	-26.819	0.100
177.200	-40.541	0.101
177.300	-24.782	0.100
177.400	-30.019	0.100
177.500	-39.674	0.100
177.600	-33.558	0.101
177.700	-23.223	0.100
177.800	-26.163	0.100
177.900	-28.651	0.100
178.000	-25.813	0.100
178.100	-25.316	0.100
178.200	-26.886	0.100
178.300	-26.373	0.100
178.400	-26.940	0.100
178.500	-33.353	0.100
178.600	-34.812	0.100
178.700	-31.386	0.100
178.800	-21.428	0.100
178.900	-29.020	0.100
179.000	-33.008	0.100
179.100	-22.908	0.100
179.200	-27.106	0.101
179.300	-25.686	0.100
179.400	-26.479	0.100
179.500	-27.716	0.101
179.600	-30.848	0.101
179.700	-30.834	0.101
179.800	-24.334	0.100
179.900	-34.723	0.101
180.000	-31.524	0.100
180.100	-23.194	0.100
180.200	-18.470	0.100
180.300	-22.115	0.100
180.400	-19.015	0.100
180.500	-17.699	0.100
180.600	-12.868	0.100
180.700	-17.863	0.100
180.800	-20.961	0.100
180.900	-10.364	0.100
181.000	-9.642	0.101
181.100	-5.333	0.101
181.200	-0.736	0.101
181.300	-1.667	0.101
181.400	-16.440	0.101
181.500	-5.265	0.100
181.600	1.389	0.100
181.700	-3.359	0.101
181.800	-0.635	0.100
181.900	-3.127	0.100
182.000	-7.808	0.100
182.100	-6.880	0.101
182.200	-3.375	0.100
182.300	-4.651	0.100
182.400	-1.326	0.100
182.500	0.816	0.100
182.600	-7.386	0.101
182.700	1.912	0.100
182.800	-9.583	0.100
182.900	7.818	0.100
183.000	14.381	0.101
183.100	3.390	0.100
183.200	7.783	0.101
183.300	8.552	0.101
183.400	2.709	0.101
183.500	3.973	0.100
183.600	2.280	0.101
183.700	-5.675	0.100
183.800	2.371	0.100
183.900	-5.450	0.100
184.000	0.763	0.100
184.100	-2.164	0.100
184.200	2.882	0.100
184.300	-3.227	0.101
184.400	-4.031	0.100
184.500	-9.240	0.100
184.600	6.611	0.100
184.700	-4.246	0.101
184.800	-6.743	0.101
184.900	-5.263	0.100
185.000	0.033	0.100
185.100	-3.379	0.101
185.200	-0.348	0.101
185.300	8.332	0.100
185.400	-12.379	0.100
185.500	-13.684	0.100
185.600	-0.477	0.100
185.700	-0.782	0.100
185.800	0.375	0.101
185.900	4.361	0.100
186.000	-4.737	0.100
186.100	-3.399	0.100
186.200	0.341	0.101
186.300	-2.631	0.101
186.400	-6.810	0.101
186.500	-7.358	0.100
186.600	1.299	0.101
186.700	2.883	0.101
186.800	-5.987	0.100
186.900	-2.932	0.100
187.000	3.240	0.100
187.100	9.258	0.100
187.200	6.756	0.100
187.300	-4.985	0.100
187.400	-5.966	0.101
187.500	-5.261	0.100
187.600	2.133	0.101
187.700	1.832	0.101
187.800	-4.354	0.100
187.900	-1.790	0.100
188.000	-4.878	0.101
188.100	-0.437	0.101
188.200	-3.418	0.100
188.300	-5.805	0.101
188.400	5.509	0.100
188.500	9.937	0.101
188.600	-0.088	0.100
188.700	1.480	0.100
188.800	3.211	0.100
188.900	4.879	0.101
189.000	-2.989	0.101
189.100	2.445	0.101
189.200	8.712	0.101
189.300	8.850	0.100
189.400	2.290	0.100
189.500	11.323	0.100
189.600	0.203	0.100
189.700	10.780	0.101
189.800	10.152	0.100
189.900	14.543	0.100
190.000	5.938	0.100
190.100	0.130	0.100
190.200	11.960	0.100
190.300	4.248	0.100
190.400	15.415	0.100
190.500	10.429	0.100
190.600	15.252	0.100
190.700	19.107	0.100
190.800	18.217	0.101
190.900	11.618	0.100
191.000	11.803	0.100
191.100	11.652	0.100
191.200	14.234	0.100
191.300	17.007	0.100
191.400	21.199	0.100
191.500	13.863	0.101
191.600	16.227	0.101
191.700	18.475	0.100
191.800	14.063	0.100
191.900	10.360	0.100
192.000	15.396	0.100
192.100	18.208	0.100
192.200	13.101	0.100
192.300	26.394	0.100
192.400	28.838	0.100
192.500	29.199	0.100
192.600	25.030	0.100
192.700	22.444	0.100
192.800	17.350	0.100
192.900	22.578	0.100
193.000	24.871	0.100
193.100	22.825	0.100
193.200	26.039	0.100
193.300	30.290	0.100
193.400	23.504	0.101
193.500	28.623	0.100
193.600	26.542	0.100
193.700	29.368	0.100
193.800	23.351	0.100
193.900	28.328	0.100
194.000	22.633	0.100
194.100	32.853	0.100
194.200	32.042	0.100
194.300	19.347	0.100
194.400	35.154	0.101
194.500	39.836	0.100
194.600	36.359	0.100
194.700	29.002	0.100
194.800	39.085	0.100
194.900	34.695	0.100
195.000	38.145	0.100
195.100	35.806	0.100
195.200	30.671	0.100
195.300	33.323	0.100
195.400	38.884	0.101
195.500	42.051	0.100
195.600	33.815	0.100
195.700	47.146	0.100
195.800	34.258	0.100
195.900	35.052	0.100
196.000	35.047	0.101
196.100	34.711	0.101
196.200	32.040	0.100
196.300	38.737	0.101
196.400	39.074	0.100
196.500	43.409	0.100
196.600	42.224	0.100
196.700	36.078	0.100
196.800	41.954	0.100
196.900	44.802	0.100
197.000	28.941	0.100
197.100	46.053	0.100
197.200	35.942	0.100
197.300	40.080	0.100
197.400	39.986	0.100
197.500	42.793	0.100
197.600	38.260	0.100
197.700	44.220	0.100
197.800	43.455	0.101
197.900	40.473	0.100
198.000	44.271	0.100
198.100	41.665	0.101
198.200	38.369	0.100
198.300	38.841	0.101
198.400	39.345	0.100
198.500	35.651	0.100
198.600	30.773	0.100
198.700	38.833	0.100
198.800	42.468	0.101
198.900	51.355	0.100
199.000	39.711	0.100
199.100	35.506	0.100
199.200	35.602	0.100
199.300	35.982	0.100
199.400	45.305	0.100
199.500	39.665	0.100
199.600	40.176	0.100
199.700	50.454	0.100
199.800	39.427	0.101
199.900	38.760	0.100
200.000	43.517	0.100
200.100	38.588	0.100
200.200	43.558	0.100
200.300	45.790	0.100
200.400	42.416	0.100
200.500	34.491	0.100
200.600	40.769	0.100
200.700	40.544	0.100
200.800	44.193	0.100
200.900	44.661	0.100
201.000	35.622	0.100
201.100	45.109	0.100
201.200	48.113	0.100
201.300	51.018	0.100
201.400	31.447	0.100
201.500	45.762	0.100
201.600	44.926	0.100
201.700	48.150	0.101
201.800	46.141	0.100
201.900	40.167	0.100
202.000	46.017	0.100
202.100	40.268	0.100
202.200	36.146	0.100
202.300	45.030	0.100
202.400	42.342	0.100
202.500	47.062	0.101
202.600	51.048	0.101
202.700	42.890	0.100
202.800	42.103	0.100
202.900	42.438	0.100
203.000	48.987	0.100
203.100	43.947	0.100
203.200	34.904	0.100
203.300	38.255	0.100
203.400	40.847	0.100
203.500	29.494	0.100
203.600	52.612	0.100
203.700	43.106	0.100
203.800	42.707	0.100
203.900	44.083	0.100
204.000	40.718	0.100
204.100	43.200	0.100
204.200	37.938	0.100
204.300	44.720	0.100
204.400	40.588	0.100
204.500	43.283	0.100
204.600	58.060	0.100
204.700	46.922	0.100
204.800	36.473	0.100
204.900	35.137	0.100
205.000	39.143	0.100
205.100	43.087	0.100
205.200	51.585	0.100
205.300	36.175	0.100
205.400	35.436	0.100
205.500	35.423	0.100
205.600	40.959	0.100
205.700	52.315	0.100
205.800	45.690	0.100
205.900	38.941	0.100
206.000	35.695	0.100
206.100	40.940	0.100
206.200	39.914	0.100
206.300	47.810	0.100
206.400	38.828	0.100
206.500	43.147	0.100
206.600	43.003	0.100
206.700	44.689	0.100
206.800	49.229	0.100
206.900	37.993	0.100
207.000	45.450	0.100
207.100	40.113	0.100
207.200	41.257	0.100
207.300	36.111	0.100
207.400	44.215	0.100
207.500	48.806	0.100
207.600	52.007	0.100
207.700	40.937	0.100
207.800	46.621	0.101
207.900	39.925	0.100
208.000	33.676	0.100
208.100	45.179	0.100
208.200	46.908	0.100
208.300	39.397	0.100
208.400	29.929	0.100
208.500	46.515	0.100
208.600	42.512	0.100
208.700	34.316	0.100
208.800	53.526	0.100
208.900	33.947	0.100
209.000	37.622	0.100
209.100	42.430	0.100
209.200	36.371	0.100
209.300	34.724	0.100
209.400	41.817	0.100
209.500	45.017	0.100
209.600	43.889	0.100
209.700	41.999	0.100
209.800	39.439	0.100
209.900	37.063	0.100
210.000	42.623	0.100
210.100	50.002	0.100
210.200	45.477	0.100
210.300	37.411	0.100
210.400	37.313	0.100
210.500	39.836	0.100
210.600	49.783	0.100
210.700	38.742	0.100
210.800	32.701	0.100
210.900	48.032	0.100
211.000	40.788	0.100
211.100	40.520	0.100
211.200	43.626	0.100
211.300	36.804	0.100
211.400	37.446	0.100
211.500	43.762	0.100
211.600	41.113	0.100
211.700	41.261	0.100
211.800	41.814	0.100
211.900	26.981	0.100
212.000	42.464	0.100
212.100	34.134	0.100
212.200	36.800	0.100
212.300	49.175	0.100
212.400	48.242	0.100
212.500	38.257	0.100
212.600	45.664	0.100
212.700	43.690	0.100
212.800	37.548	0.100
212.900	48.171	0.100
213.000	46.586	0.100
213.100	38.585	0.100
213.200	41.965	0.100
213.300	43.047	0.100
213.400	37.862	0.100
213.500	39.292	0.100
213.600	47.031	0.100
213.700	48.312	0.100
213.800	42.114	0.100
213.900	43.634	0.100
214.000	38.130	0.100
214.100	43.444	0.100
214.200	46.696	0.100
214.300	48.107	0.100
214.400	50.926	0.100
214.500	36.213	0.100
214.600	36.825	0.100
214.700	41.972	0.100
214.800	40.943	0.100
214.900	35.565	0.100
215.000	43.689	0.100
215.100	44.941	0.100
215.200	50.546	0.100
215.300	42.919	0.100
215.400	34.238	0.100
215.500	44.184	0.100
215.600	34.312	0.100
215.700	42.383	0.100
215.800	41.166	0.100
215.900	34.669	0.100
216.000	41.498	0.100
216.100	31.927	0.100
216.200	45.762	0.100
216.300	35.941	0.100
216.400	37.467	0.100
216.500	47.326	0.100
216.600	46.731	0.100
216.700	49.552	0.100
216.800	42.457	0.100
216.900	55.747	0.100
217.000	39.053	0.100
217.100	34.773	0.100
217.200	35.849	0.100
217.300	43.006	0.100
217.400	40.723	0.100
217.500	36.647	0.100
217.600	39.726	0.100
217.700	50.154	0.100
217.800	40.019	0.100
217.900	48.790	0.100
218.000	45.423	0.100
218.100	42.162	0.100
218.200	44.027	0.100
218.300	46.600	0.100
218.400	53.796	0.100
218.500	38.314	0.100
218.600	35.172	0.100
218.700	33.230	0.100
218.800	35.946	0.100
218.900	42.231	0.100
219.000	46.653	0.100
219.100	38.699	0.100
219.200	36.610	0.100
219.300	41.586	0.100
219.400	49.936	0.100
219.500	42.572	0.100
219.600	38.990	0.100
219.700	43.208	0.100
219.800	43.123	0.100
219.900	43.809	0.100
220.000	42.778	0.100
220.100	37.719	0.100
220.200	41.454	0.100
220.300	44.795	0.100
220.400	43.211	0.100
220.500	44.258	0.100
220.600	38.163	0.100
220.700	47.625	0.100
220.800	39.752	0.100
220.900	48.097	0.100
221.000	42.379	0.100
221.100	38.170	0.100
221.200	31.345	0.100
221.300	35.980	0.100
221.400	41.487	0.100
221.500	49.862	0.100
221.600	37.954	0.100
221.700	42.261	0.100
221.800	46.193	0.100
221.900	44.924	0.100
222.000	46.641	0.100
222.100	38.628	0.100
222.200	39.475	0.100
222.300	41.185	0.100
222.400	39.610	0.100
222.500	39.574	0.100
222.600	34.922	0.100
222.700	51.011	0.100
222.800	31.529	0.100
222.900	41.992	0.100
223.000	46.069	0.100
223.100	47.449	0.100
223.200	43.101	0.100
223.300	32.640	0.100
223.400	38.740	0.100
223.500	36.701	0.100
223.600	42.970	0.100
223.700	41.509	0.100
223.800	33.926	0.100
223.900	41.642	0.100
224.000	52.544	0.100
224.100	37.563	0.100
224.200	31.675	0.100
224.300	45.557	0.100
224.400	44.387	0.100
224.500	50.498	0.100
224.600	36.960	0.100
224.700	45.094	0.100
224.800	38.122	0.100
224.900	34.789	0.100
225.000	38.509	0.100
225.100	36.971	0.100
225.200	38.610	0.100
225.300	48.819	0.100
225.400	43.538	0.100
225.500	48.786	0.100
225.600	47.269	0.100
225.700	42.827	0.100
225.800	44.388	0.100
225.900	45.789	0.100
226.000	30.962	0.100
226.100	47.678	0.100
226.200	45.622	0.100
226.300	44.355	0.100
226.400	40.542	0.100
226.500	31.832	0.100
226.600	46.546	0.100
226.700	63.170	0.100
226.800	34.415	0.100
226.900	40.416	0.100
227.000	48.676	0.100
227.100	37.804	0.100
227.200	46.408	0.100
227.300	46.730	0.100
227.400	41.948	0.100
227.500	40.942	0.100
227.600	37.108	0.100
227.700	34.732	0.100
227.800	52.553	0.100
227.900	52.576	0.100
228.000	47.439	0.100
228.100	39.527	0.100
228.200	42.185	0.100
228.300	38.576	0.100
228.400	27.703	0.100
228.500	40.468	0.100
228.600	45.259	0.100
228.700	49.219	0.100
228.800	37.383	0.100
228.900	45.054	0.100
229.000	38.549	0.100
229.100	38.304	0.100
229.200	40.691	0.100
229.300	49.285	0.100
229.400	46.013	0.100
229.500	39.871	0.100
229.600	39.322	0.100
229.700	47.411	0.100
229.800	37.365	0.100
229.900	43.531	0.100
230.000	42.032	0.100
230.100	52.269	0.100
230.200	31.421	0.100
230.300	39.772	0.100
230.400	32.766	0.100
230.500	49.542	0.100
230.600	50.396	0.100
230.700	42.934	0.100
230.800	34.744	0.100
230.900	29.477	0.100
231.000	45.814	0.100
231.100	42.673	0.100
231.200	41.952	0.100
231.300	38.109	0.100
231.400	42.573	0.100
231.500	42.736	0.100
231.600	35.267	0.100
231.700	30.640	0.100
231.800	49.895	0.100
231.900	52.467	0.100
232.000	45.719	0.100
232.100	42.975	0.100
232.200	27.622	0.100
232.300	40.289	0.100
232.400	46.136	0.100
232.500	64.345	0.100
232.600	47.237	0.100
232.700	40.874	0.100
232.800	37.610	0.100
232.900	45.628	0.100
233.000	31.959	0.100
233.100	41.737	0.100
233.200	41.806	0.100
233.300	36.197	0.100
233.400	34.089	0.100
233.500	37.136	0.100
233.600	38.454	0.100
233.700	46.666	0.100
233.800	40.637	0.100
233.900	33.013	0.100
234.000	35.846	0.100
234.100	40.904	0.100
234.200	51.269	0.100
234.300	47.017	0.100
234.400	44.981	0.100
234.500	40.763	0.100
234.600	41.268	0.100
234.700	49.484	0.100
234.800	42.352	0.100
234.900	33.250	0.100
235.000	34.844	0.100
235.100	39.026	0.100
235.200	43.517	0.100
235.300	47.269	0.100
235.400	48.016	0.100
235.500	50.483	0.100
235.600	51.200	0.100
235.700	41.507	0.100
235.800	49.799	0.100
235.900	35.862	0.100
236.000	35.689	0.100
236.100	38.000	0.100
236.200	39.899	0.100
236.300	32.700	0.100
236.400	42.091	0.100
236.500	53.027	0.100
236.600	37.999	0.100
236.700	45.173	0.100
236.800	45.153	0.100
236.900	44.235	0.100
237.000	40.542	0.100
237.100	41.795	0.100
237.200	41.949	0.100
237.300	49.508	0.100
237.400	43.672	0.100
237.500	45.809	0.100
237.600	42.998	0.100
237.700	40.299	0.100
237.800	43.361	0.100
237.900	38.195	0.100
238.000	34.002	0.100
238.100	45.096	0.100
238.200	36.426	0.100
238.300	35.484	0.100
238.400	40.738	0.100
238.500	45.448	0.100
238.600	41.283	0.100
238.700	41.009	0.100
238.800	34.972	0.100
238.900	42.668	0.100
239.000	43.168	0.100
239.100	43.954	0.100
239.200	38.721	0.100
239.300	40.959	0.100
239.400	36.140	0.100
239.500	40.356	0.100
239.600	27.706	0.100
239.700	43.726	0.100
239.800	44.158	0.100
239.900	30.032	0.100
240.000	35.017	0.100
240.100	32.256	0.100
240.200	37.750	0.100
240.300	33.758	0.100
240.400	39.680	0.100
240.500	16.514	0.100
240.600	22.282	0.100
240.700	27.185	0.100
240.800	27.827	0.100
240.900	31.599	0.100
241.000	19.442	0.100
241.100	27.378	0.100
241.200	17.501	0.100
241.300	15.290	0.100
241.400	7.931	0.100
241.500	10.231	0.100
241.600	5.278	0.100
241.700	18.906	0.100
241.800	3.597	0.100
241.900	-4.782	0.100
242.000	7.982	0.100
242.100	-3.869	0.100
242.200	3.139	0.100
242.300	-2.675	0.100
242.400	-1.756	0.100
242.500	-4.467	0.100
242.600	7.059	0.100
242.700	-3.421	0.100
242.800	-4.024	0.100
242.900	-3.972	0.100
243.000	-10.925	0.100
243.100	-4.361	0.100
243.200	-5.536	0.100
243.300	-14.120	0.100
243.400	-7.533	0.100
243.500	-11.618	0.100
243.600	-15.286	0.100
243.700	-15.974	0.100
243.800	-7.334	0.100
243.900	-19.694	0.100
244.000	-11.447	0.100
244.100	-6.131	0.100
244.200	-6.861	0.100
244.300	-8.863	0.100
244.400	-12.326	0.100
244.500	-24.066	0.100
244.600	-16.368	0.100
244.700	-23.471	0.100
244.800	-8.990	0.100
244.900	-17.225	0.100
245.000	-14.052	0.100
245.100	-17.267	0.100
245.200	-16.864	0.100
245.300	-21.406	0.100
245.400	-9.161	0.100
245.500	-9.847	0.100
245.600	-11.365	0.100
245.700	-12.850	0.100
245.800	-16.052	0.100
245.900	-12.505	0.100
246.000	-15.712	0.100
246.100	-19.154	0.100
246.200	-13.441	0.100
246.300	-8.754	0.100
246.400	-9.465	0.100
246.500	-21.302	0.100
246.600	-8.248	0.100
246.700	-15.195	0.100
246.800	-10.778	0.100
246.900	-19.408	0.100
247.000	-27.297	0.100
247.100	-15.124	0.100
247.200	-10.898	0.100
247.300	-21.650	0.100
247.400	-20.756	0.100
247.500	-19.486	0.100
247.600	-21.530	0.100
247.700	-13.291	0.100
247.800	-12.350	0.100
247.900	-24.259	0.100
248.000	-26.439	0.100
248.100	-22.839	0.100
248.200	-15.087	0.100
248.300	-11.157	0.100
248.400	-19.495	0.100
248.500	-18.180	0.100
248.600	-15.258	0.100
248.700	-13.391	0.100
248.800	-13.386	0.100
248.900	-24.278	0.100
249.000	-16.874	0.100
249.100	-15.692	0.100
249.200	-25.769	0.100
249.300	-14.643	0.100
249.400	-13.995	0.100
249.500	-15.966	0.100
249.600	-4.977	0.100
249.700	-9.773	0.100
249.800	-21.620	0.100
249.900	-14.151	0.100
250.000	-13.827	0.100
250.100	-11.785	0.100
250.200	-9.845	0.100
250.300	-28.528	0.100
250.400	-28.396	0.100
250.500	-22.784	0.100
250.600	-18.333	0.100
250.700	-19.517	0.100
250.800	-17.333	0.100
250.900	-18.572	0.100
251.000	-8.324	0.100
251.100	-13.810	0.100
251.200	-21.960	0.100
251.300	-15.406	0.100
251.400	-23.733	0.100
251.500	-26.642	0.100
251.600	-21.601	0.100
251.700	-29.782	0.100
251.800	-20.632	0.100
251.900	-14.654	0.100
252.000	-19.525	0.100
252.100	-11.308	0.100
252.200	-24.323	0.100
252.300	-8.313	0.100
252.400	-21.187	0.100
252.500	-21.445	0.100
252.600	-21.028	0.100
252.700	-20.704	0.100
252.800	-12.327	0.100
252.900	-17.859	0.100
253.000	-9.621	0.100
253.100	-20.718	0.100
253.200	-14.199	0.100
253.300	-25.552	0.100
253.400	-30.787	0.100
253.500	-19.125	0.100
253.600	-18.693	0.100
253.700	-15.761	0.100
253.800	-35.286	0.100
253.900	-24.638	0.100
254.000	-22.966	0.100
254.100	-24.863	0.100
254.200	-29.717	0.100
254.300	-14.819	0.100
254.400	-23.958	0.100
254.500	-18.196	0.100
254.600	-20.819	0.100
254.700	-24.849	0.100
254.800	-13.696	0.100
254.900	-29.908	0.100
255.000	-15.003	0.100
255.100	-14.686	0.100
255.200	-25.213	0.100
255.300	-22.911	0.100
255.400	-29.682	0.100
255.500	-16.993	0.100
255.600	-22.439	0.100
255.700	-25.587	0.100
255.800	-18.316	0.100
255.900	-9.447	0.100
256.000	-18.430	0.100
256.100	-19.869	0.100
256.200	-25.961	0.100
256.300	-18.166	0.100
256.400	-13.767	0.100
256.500	-16.281	0.100
256.600	-18.959	0.100
256.700	-26.675	0.100
256.800	-20.121	0.100
256.900	-20.887	0.100
257.000	-27.755	0.100
257.100	-21.883	0.100
257.200	-22.775	0.100
257.300	-27.780	0.100
257.400	-22.148	0.100
257.500	-20.332	0.100
257.600	-20.252	0.100
257.700	-21.754	0.100
257.800	-16.810	0.100
257.900	-23.180	0.100
258.000	-22.095	0.100
258.100	-31.507	0.100
258.200	-24.639	0.100
258.300	-28.304	0.100
258.400	-26.273	0.100
258.500	-19.299	0.100
258.600	-18.398	0.100
258.700	-22.679	0.100
258.800	-24.638	0.100
258.900	-24.032	0.100
259.000	-24.566	0.100
259.100	-28.247	0.100
259.200	-25.184	0.100
259.300	-28.515	0.100
259.400	-21.965	0.100
259.500	-17.254	0.100
259.600	-20.238	0.100
259.700	-29.798	0.100
259.800	-21.689	0.100
259.900	-16.703	0.100
260.000	-22.558	0.100
260.100	-22.850	0.100
260.200	-25.784	0.100
260.300	-31.771	0.100
260.400	-19.002	0.100
260.500	-19.572	0.100
260.600	-18.287	0.100
260.700	-31.859	0.100
260.800	-26.858	0.100
260.900	-33.209	0.100
261.000	-20.796	0.100
261.100	-28.261	0.100
261.200	-28.040	0.100
261.300	-23.013	0.100
261.400	-25.552	0.100
261.500	-24.680	0.100
261.600	-17.472	0.100
261.700	-20.579	0.100
261.800	-36.490	0.100
261.900	-19.597	0.100
262.000	-22.338	0.100
262.100	-35.057	0.100
262.200	-27.807	0.100
262.300	-25.835	0.100
262.400	-31.007	0.100
262.500	-42.617	0.100
262.600	-28.552	0.100
262.700	-32.426	0.100
262.800	-22.606	0.100
262.900	-19.621	0.100
263.000	-23.685	0.100
263.100	-32.989	0.100
263.200	-31.314	0.100
263.300	-32.537	0.100
263.400	-27.729	0.100
263.500	-32.529	0.100
263.600	-20.243	0.100
263.700	-26.405	0.100
263.800	-24.766	0.100
263.900	-26.269	0.100
264.000	-38.970	0.100
264.100	-31.815	0.100
264.200	-29.545	0.100
264.300	-36.948	0.100
264.400	-31.602	0.100
264.500	-35.909	0.100
264.600	-26.659	0.100
264.700	-20.210	0.100
264.800	-19.173	0.100
264.900	-24.284	0.100
265.000	-30.478	0.100
265.100	-27.463	0.100
265.200	-31.317	0.100
265.300	-30.732	0.100
265.400	-32.130	0.100
265.500	-25.234	0.100
265.600	-23.198	0.100
265.700	-28.057	0.100
265.800	-34.321	0.100
265.900	-31.485	0.100
266.000	-28.418	0.100
266.100	-35.247	0.100
266.200	-28.143	0.100
266.300	-31.891	0.100
266.400	-32.837	0.100
266.500	-44.134	0.100
266.600	-32.256	0.100
266.700	-30.221	0.100
266.800	-15.452	0.100
266.900	-38.430	0.100
267.000	-37.869	0.100
267.100	-22.970	0.100
267.200	-27.512	0.100
267.300	-18.279	0.100
267.400	-28.948	0.100
267.500	-34.787	0.100
267.600	-34.957	0.100
267.700	-38.945	0.100
267.800	-27.864	0.100
267.900	-38.407	0.100
268.000	-34.118	0.100
268.100	-43.515	0.100
268.200	-32.146	0.100
268.300	-21.246	0.100
268.400	-28.366	0.100
268.500	-27.278	0.100
268.600	-25.845	0.100
268.700	-33.503	0.100
268.800	-32.588	0.100
268.900	-34.261	0.100
269.000	-16.382	0.100
269.100	-22.288	0.100
269.200	-25.940	0.100
269.300	-31.124	0.100
269.400	-35.928	0.100
269.500	-25.340	0.100
269.600	-25.811	0.100
269.700	-37.459	0.100
269.800	-27.573	0.100
269.900	-35.991	0.100
270.000	-31.272	0.100
270.100	-39.694	0.100
270.200	-34.699	0.100
270.300	-35.782	0.100
270.400	-40.575	0.100
270.500	-36.773	0.100
270.600	-35.205	0.100
270.700	-33.317	0.100
270.800	-30.312	0.100
270.900	-24.947	0.100
271.000	-28.133	0.100
271.100	-25.947	0.100
271.200	-33.744	0.100
271.300	-34.013	0.100
271.400	-27.760	0.100
271.500	-31.095	0.100
271.600	-39.913	0.100
271.700	-36.185	0.100
271.800	-33.404	0.100
271.900	-36.065	0.100
272.000	-44.099	0.100
272.100	-31.508	0.100
272.200	-26.386	0.100
272.300	-35.965	0.100
272.400	-39.118	0.100
272.500	-31.931	0.100
272.600	-42.954	0.100
272.700	-34.743	0.100
272.800	-27.029	0.100
272.900	-25.907	0.100
273.000	-30.327	0.100
273.100	-26.471	0.100
273.200	-28.043	0.100
273.300	-34.445	0.100
273.400	-33.806	0.100
273.500	-40.658	0.100
273.600	-25.104	0.100
273.700	-40.330	0.100
273.800	-36.249	0.100
273.900	-39.536	0.100
274.000	-25.858	0.100
274.100	-32.347	0.100
274.200	-34.346	0.100
274.300	-29.544	0.100
274.400	-27.559	0.100
274.500	-29.966	0.100
274.600	-34.662	0.100
274.700	-38.065	0.100
274.800	-37.099	0.100
274.900	-36.623	0.100
275.000	-37.780	0.100
275.100	-37.414	0.100
275.200	-32.326	0.100
275.300	-35.973	0.100
275.400	-35.742	0.100
275.500	-30.661	0.100
275.600	-26.136	0.100
275.700	-30.709	0.100
275.800	-35.866	0.100
275.900	-33.877	0.100
276.000	-32.168	0.100
276.100	-39.674	0.100
276.200	-31.686	0.100
276.300	-36.435	0.100
276.400	-27.461	0.100
276.500	-38.207	0.100
276.600	-36.729	0.100
276.700	-33.205	0.100
276.800	-36.786	0.100
276.900	-35.303	0.100
277.000	-37.101	0.100
277.100	-39.450	0.100
277.200	-30.694	0.100
277.300	-39.036	0.100
277.400	-16.562	0.100
277.500	-32.735	0.100
277.600	-40.744	0.100
277.700	-44.759	0.100
277.800	-34.460	0.100
277.900	-39.841	0.100
278.000	-36.933	0.100
278.100	-33.447	0.100
278.200	-35.785	0.100
278.300	-39.488	0.100
278.400	-39.184	0.100
278.500	-31.859	0.100
278.600	-36.664	0.100
278.700	-37.538	0.100
278.800	-49.283	0.100
278.900	-42.084	0.100
279.000	-33.733	0.100
279.100	-39.044	0.100
279.200	-36.465	0.100
279.300	-36.733	0.100
279.400	-35.455	0.100
279.500	-32.994	0.100
279.600	-37.987	0.100
279.700	-34.792	0.100
279.800	-38.215	0.100
279.900	-33.575	0.100
280.000	-45.924	0.100
280.100	-42.771	0.100
280.200	-34.801	0.100
280.300	-40.584	0.100
280.400	-35.889	0.100
280.500	-35.604	0.100
280.600	-32.372	0.100
280.700	-29.181	0.100
280.800	-33.324	0.100
280.900	-33.980	0.100
281.000	-42.848	0.100
281.100	-40.933	0.100
281.200	-41.517	0.100
281.300	-34.212	0.100
281.400	-33.176	0.100
281.500	-34.960	0.100
281.600	-36.885	0.100
281.700	-40.977	0.100
281.800	-41.910	0.100
281.900	-34.304	0.100
282.000	-25.685	0.100
282.100	-30.640	0.100
282.200	-29.734	0.100
282.300	-40.701	0.100
282.400	-42.506	0.100
282.500	-34.518	0.100
282.600	-44.093	0.100
282.700	-34.307	0.100
282.800	-41.189	0.100
282.900	-38.679	0.100
283.000	-21.012	0.100
283.100	-30.323	0.100
283.200	-23.845	0.100
283.300	-43.941	0.100
283.400	-36.025	0.100
283.500	-32.217	0.100
283.600	-31.365	0.100
283.700	-38.221	0.100
283.800	-44.220	0.100
283.900	-32.395	0.100
284.000	-37.544	0.100
284.100	-35.312	0.101
284.200	-46.574	0.101
284.300	-41.160	0.101
284.400	-35.602	0.101
284.500	-27.317	0.101
284.600	-34.234	0.101
284.700	-25.618	0.101
284.800	-33.319	0.101
284.900	-38.368	0.101
285.000	-43.826	0.101
285.100	-39.213	0.101
285.200	-40.626	0.101
285.300	-22.503	0.101
285.400	-31.064	0.101
285.500	-43.820	0.101
285.600	-33.505	0.101
285.700	-32.481	0.101
285.800	-35.989	0.101
285.900	-41.428	0.101
286.000	-37.007	0.101
286.100	-37.902	0.101
286.200	-49.375	0.101
286.300	-30.181	0.101
286.400	-35.874	0.101
286.500	-40.985	0.101
286.600	-45.521	0.101
286.700	-38.900	0.101
286.800	-46.317	0.101
286.900	-28.187	0.101
287.000	-30.765	0.101
287.100	-29.774	0.101
287.200	-40.623	0.101
287.300	-29.186	0.101
287.400	-34.717	0.101
287.500	-33.538	0.101
287.600	-45.087	0.101
287.700	-36.458	0.101
287.800	-22.394	0.101
287.900	-29.975	0.101
288.000	-37.129	0.101
288.100	-36.156	0.101
288.200	-32.792	0.101
288.300	-29.948	0.101
288.400	-33.354	0.101
288.500	-33.586	0.101
288.600	-29.443	0.101
288.700	-35.965	0.101
288.800	-44.275	0.101
288.900	-40.009	0.101
289.000	-44.086	0.101
289.100	-37.712	0.101
289.200	-37.487	0.101
289.300	-43.074	0.101
289.400	-32.598	0.101
289.500	-39.110	0.101
289.600	-20.425	0.101
289.700	-34.843	0.101
289.800	-33.644	0.101
289.900	-34.088	0.101
290.000	-36.960	0.101
290.100	-25.124	0.101
290.200	-35.887	0.101
290.300	-37.817	0.101
290.400	-37.903	0.101
290.500	-37.017	0.101
290.600	-36.195	0.101
290.700	-37.652	0.101
290.800	-34.036	0.101
290.900	-28.657	0.101
291.000	-39.989	0.101
291.100	-38.201	0.101
291.200	-42.146	0.101
291.300	-37.311	0.101
291.400	-33.416	0.101
291.500	-38.685	0.101
291.600	-28.229	0.101
291.700	-39.942	0.101
291.800	-46.565	0.101
291.900	-42.026	0.101
292.000	-28.438	0.101
292.100	-32.401	0.101
292.200	-33.784	0.101
292.300	-34.100	0.101
292.400	-29.067	0.101
292.500	-35.497	0.101
292.600	-37.372	0.101
292.700	-34.678	0.101
292.800	-28.945	0.101
292.900	-34.367	0.101
293.000	-38.534	0.101
293.100	-31.790	0.101
293.200	-36.153	0.101
293.300	-38.469	0.101
293.400	-43.145	0.101
293.500	-39.819	0.101
293.600	-41.270	0.101
293.700	-33.360	0.101
293.800	-30.332	0.101
293.900	-35.672	0.101
294.000	-32.665	0.101
294.100	-38.895	0.101
294.200	-35.425	0.101
294.300	-43.120	0.101
294.400	-32.033	0.101
294.500	-29.151	0.101
294.600	-29.996	0.101
294.700	-25.438	0.101
294.800	-29.781	0.101
294.900	-32.997	0.101
295.000	-35.829	0.101
295.100	-27.497	0.101
295.200	-39.134	0.101
295.300	-40.896	0.101
295.400	-33.847	0.101
295.500	-35.917	0.101
295.600	-33.826	0.101
295.700	-34.283	0.101
295.800	-32.624	0.101
295.900	-39.352	0.101
296.000	-32.134	0.101
296.100	-36.938	0.101
296.200	-34.585	0.101
296.300	-35.930	0.101
296.400	-35.688	0.101
296.500	-41.463	0.101
296.600	-31.995	0.101
296.700	-33.061	0.101
296.800	-35.851	0.101
296.900	-38.439	0.101
297.000	-30.451	0.101
297.100	-35.645	0.101
297.200	-36.628	0.101
297.300	-41.303	0.101
297.400	-27.741	0.101
297.500	-36.134	0.101
297.600	-28.503	0.101
297.700	-33.729	0.101
297.800	-38.371	0.101
297.900	-26.976	0.101
298.000	-32.285	0.101
298.100	-34.606	0.101
298.200	-29.795	0.101
298.300	-33.121	0.101
298.400	-44.256	0.101
298.500	-41.267	0.101
298.600	-29.417	0.101
298.700	-31.225	0.101
298.800	-37.821	0.101
298.900	-34.774	0.101
299.000	-32.070	0.101
299.100	-33.067	0.101
299.200	-29.524	0.101
299.300	-41.274	0.101
299.400	-35.202	0.101
299.500	-27.556	0.101
299.600	-32.872	0.101
299.700	-40.560	0.101
299.800	-33.226	0.101
299.900	-44.816	0.101
300.000	-38.076	0.101
300.100	-30.770	0.101
300.200	-33.770	0.101
300.300	-36.824	0.101
300.400	-28.964	0.101
300.500	-33.586	0.101
300.600	-36.698	0.101
300.700	-40.130	0.101
300.800	-35.967	0.101
300.900	-37.829	0.101
301.000	-38.580	0.101
301.100	-39.580	0.101
301.200	-32.750	0.101
301.300	-33.025	0.101
301.400	-33.914	0.101
301.500	-26.547	0.101
301.600	-34.215	0.101
301.700	-36.651	0.101
301.800	-29.026	0.101
301.900	-42.993	0.101
302.000	-36.051	0.101
302.100	-27.062	0.101
302.200	-28.146	0.101
302.300	-35.930	0.101
302.400	-30.146	0.101
302.500	-29.495	0.101
302.600	-32.352	0.101
302.700	-37.079	0.101
302.800	-43.091	0.101
302.900	-36.167	0.101
303.000	-49.445	0.101
303.100	-41.775	0.101
303.200	-21.924	0.101
303.300	-33.400	0.101
303.400	-43.881	0.101
303.500	-29.962	0.101
303.600	-36.205	0.101
303.700	-34.821	0.101
303.800	-31.692	0.101
303.900	-31.248	0.101
304.000	-37.141	0.101
304.100	-41.320	0.101
304.200	-36.912	0.101
304.300	-38.096	0.101
304.400	-36.814	0.101
304.500	-31.035	0.101
304.600	-36.523	0.101
304.700	-36.747	0.101
304.800	-30.671	0.101
304.900	-34.893	0.101
305.000	-26.104	0.101
305.100	-23.904	0.101
305.200	-23.629	0.101
305.300	-30.406	0.101
305.400	-35.148	0.101
305.500	-42.572	0.101
305.600	-36.491	0.101
305.700	-43.854	0.101
305.800	-32.000	0.101
305.900	-37.635	0.101
306.000	-36.809	0.101
306.100	-27.377	0.101
306.200	-36.479	0.101
306.300	-30.779	0.101
306.400	-36.050	0.101
306.500	-30.259	0.100
306.600	-34.742	0.100
306.700	-38.556	0.100
306.800	-32.548	0.100
306.900	-33.014	0.100
307.000	-24.498	0.100
307.100	-31.219	0.100
307.200	-39.528	0.100
307.300	-35.992	0.100
307.400	-34.038	0.100
307.500	-43.438	0.100
307.600	-33.223	0.100
307.700	-43.138	0.100
307.800	-35.742	0.100
307.900	-32.349	0.100
308.000	-25.990	0.100
308.100	-33.247	0.100
308.200	-35.621	0.100
308.300	-29.798	0.100
308.400	-46.607	0.100
308.500	-46.444	0.100
308.600	-24.496	0.100
308.700	-37.675	0.100
308.800	-36.402	0.100
308.900	-32.777	0.100
309.000	-33.382	0.100
309.100	-25.730	0.100
309.200	-32.032	0.100
309.300	-30.965	0.100
309.400	-42.764	0.100
309.500	-38.175	0.100
309.600	-30.274	0.100
309.700	-34.291	0.100
309.800	-21.343	0.100
309.900	-34.308	0.100
310.000	-35.807	0.100
310.100	-33.372	0.100
310.200	-26.904	0.100
310.300	-33.757	0.100
310.400	-43.721	0.100
310.500	-38.833	0.100
310.600	-20.392	0.100
310.700	-25.963	0.100
310.800	-25.777	0.100
310.900	-39.843	0.100
311.000	-35.830	0.100
311.100	-40.825	0.100
311.200	-36.711	0.100
311.300	-27.237	0.100
311.400	-29.648	0.100
311.500	-30.838	0.100
311.600	-36.838	0.100
311.700	-31.842	0.100
311.800	-27.050	0.100
311.900	-38.954	0.100
312.000	-32.279	0.100
312.100	-36.294	0.100
312.200	-37.370	0.100
312.300	-39.053	0.100
312.400	-38.922	0.100
312.500	-28.741	0.100
312.600	-21.068	0.100
312.700	-30.477	0.100
312.800	-42.558	0.100
312.900	-43.225	0.100
313.000	-42.768	0.100
313.100	-41.067	0.100
313.200	-26.891	0.100
313.300	-35.230	0.100
313.400	-32.027	0.100
313.500	-42.777	0.100
313.600	-33.110	0.100
313.700	-35.190	0.100
313.800	-30.572	0.100
313.900	-29.169	0.100
314.000	-37.551	0.100
314.100	-28.266	0.100
314.200	-35.375	0.100
314.300	-45.344	0.100
314.400	-37.750	0.100
314.500	-30.428	0.100
314.600	-34.549	0.100
314.700	-42.320	0.100
314.800	-25.288	0.100
314.900	-27.840	0.100
315.000	-33.407	0.100
315.100	-37.879	0.100
315.200	-38.321	0.100
315.300	-35.350	0.100
315.400	-29.606	0.100
315.500	-31.957	0.100
315.600	-39.982	0.100
315.700	-29.159	0.100
315.800	-27.869	0.100
315.900	-29.569	0.100
316.000	-31.751	0.100
316.100	-38.971	0.100
316.200	-37.525	0.100
316.300	-35.022	0.100
316.400	-27.548	0.100
316.500	-27.574	0.100
316.600	-30.994	0.100
316.700	-22.879	0.100
316.800	-40.463	0.100
316.900	-36.287	0.100
317.000	-44.783	0.100
317.100	-38.962	0.100
317.200	-41.419	0.100
317.300	-39.275	0.100
317.400	-31.328	0.100
317.500	-26.110	0.100
317.600	-28.810	0.100
317.700	-30.572	0.100
317.800	-19.006	0.100
317.900	-28.820	0.100
318.000	-39.447	0.100
318.100	-36.653	0.100
318.200	-32.800	0.100
318.300	-31.837	0.100
318.400	-30.616	0.100
318.500	-35.790	0.100
318.600	-33.934	0.100
318.700	-33.255	0.100
318.800	-39.066	0.100
318.900	-35.533	0.100
319.000	-35.302	0.100
319.100	-34.465	0.100
319.200	-34.551	0.100
319.300	-28.742	0.100
319.400	-36.865	0.100
319.500	-34.131	0.100
319.600	-30.674	0.100
319.700	-29.366	0.100
319.800	-38.881	0.100
319.900	-38.607	0.100
320.000	-27.863	0.100
320.100	-23.707	0.100
320.200	-30.783	0.100
320.300	-34.891	0.100
320.400	-38.867	0.100
320.500	-40.667	0.100
320.600	-35.801	0.100
320.700	-25.305	0.100
320.800	-32.122	0.100
320.900	-28.101	0.100
321.000	-30.051	0.100
321.100	-32.138	0.100
321.200	-35.135	0.100
321.300	-34.579	0.100
321.400	-27.788	0.100
321.500	-37.398	0.100
321.600	-31.314	0.100
321.700	-25.975	0.100
321.800	-32.085	0.100
321.900	-27.351	0.100
322.000	-35.145	0.100
322.100	-34.767	0.100
322.200	-37.733	0.100
322.300	-38.989	0.100
322.400	-32.047	0.100
322.500	-23.567	0.100
322.600	-30.625	0.100
322.700	-36.487	0.100
322.800	-29.495	0.100
322.900	-36.364	0.100
323.000	-33.090	0.100
323.100	-34.982	0.100
323.200	-36.086	0.100
323.300	-36.096	0.100
323.400	-33.714	0.100
323.500	-29.062	0.100
323.600	-34.006	0.100
323.700	-39.592	0.100
323.800	-32.509	0.100
323.900	-33.540	0.100
324.000	-28.598	0.100
324.100	-32.299	0.100
324.200	-36.638	0.100
324.300	-34.787	0.100
324.400	-40.844	0.100
324.500	-26.078	0.100
324.600	-32.392	0.100
324.700	-23.739	0.100
324.800	-28.766	0.100
324.900	-30.040	0.100
325.000	-29.642	0.100
325.100	-28.317	0.100
325.200	-36.453	0.100
325.300	-38.544	0.100
325.400	-33.184	0.100
325.500	-31.858	0.100
325.600	-38.141	0.100
325.700	-34.075	0.100
325.800	-26.813	0.100
325.900	-31.853	0.100
326.000	-28.136	0.100
326.100	-36.308	0.100
326.200	-33.723	0.100
326.300	-33.561	0.100
326.400	-26.945	0.100
326.500	-27.326	0.100
326.600	-24.182	0.100
326.700	-25.866	0.100
326.800	-24.955	0.100
326.900	-20.942	0.100
327.000	-32.334	0.100
327.100	-44.242	0.100
327.200	-32.115	0.100
327.300	-21.669	0.100
327.400	-27.353	0.100
327.500	-28.755	0.100
327.600	-20.596	0.100
327.700	-27.380	0.100
327.800	-39.641	0.100
327.900	-31.335	0.100
328.000	-30.523	0.100
328.100	-33.986	0.100
328.200	-46.347	0.100
328.300	-36.314	0.100
328.400	-37.769	0.100
328.500	-29.933	0.100
328.600	-38.026	0.100
328.700	-40.902	0.100
328.800	-34.708	0.100
328.900	-14.437	0.100
329.000	-30.293	0.100
329.100	-22.326	0.100
329.200	-24.960	0.100
329.300	-28.472	0.100
329.400	-42.024	0.100
329.500	-36.030	0.100
329.600	-34.970	0.100
329.700	-30.551	0.100
329.800	-35.081	0.100
329.900	-27.491	0.100
330.000	-31.335	0.100
330.100	-26.999	0.100
330.200	-17.638	0.100
330.300	-16.970	0.100
330.400	-11.352	0.100
330.500	-23.494	0.100
330.600	-16.614	0.100
330.700	-20.592	0.100
330.800	-12.381	0.100
330.900	-15.023	0.100
331.000	2.762	0.100
331.100	-4.670	0.100
331.200	-13.318	0.100
331.300	-2.924	0.100
331.400	-3.228	0.100
331.500	-7.057	0.100
331.600	-7.329	0.100
331.700	-8.791	0.100
331.800	-14.223	0.100
331.900	-9.571	0.100
332.000	-0.787	0.100
332.100	3.980	0.100
332.200	9.781	0.100
332.300	-2.009	0.100
332.400	2.222	0.100
332.500	5.552	0.100
332.600	0.122	0.100
332.700	-3.370	0.100
332.800	1.874	0.100
332.900	-11.601	0.100
333.000	5.790	0.101
333.100	-0.894	0.100
333.200	-6.545	0.101
333.300	-1.765	0.100
333.400	-0.788	0.100
333.500	10.241	0.100
333.600	3.177	0.100
333.700	-0.754	0.100
333.800	-1.730	0.100
333.900	-1.899	0.100
334.000	-3.508	0.100
334.100	-5.436	0.100
334.200	5.570	0.100
334.300	-0.629	0.100
334.400	-0.270	0.100
334.500	-11.600	0.100
334.600	-10.891	0.100
334.700	-4.819	0.100
334.800	-5.143	0.100
334.900	-3.433	0.101
335.000	-2.291	0.101
335.100	-13.873	0.100
335.200	-0.102	0.100
335.300	-11.471	0.100
335.400	-9.055	0.100
335.500	-1.969	0.101
335.600	1.549	0.100
335.700	-1.924	0.100
335.800	-5.091	0.100
335.900	-1.019	0.100
336.000	-5.305	0.100
336.100	-1.799	0.100
336.200	-0.958	0.101
336.300	-6.342	0.100
336.400	-1.453	0.100
336.500	1.295	0.100
336.600	-3.323	0.100
336.700	-4.270	0.100
336.800	9.660	0.101
336.900	-4.484	0.100
337.000	0.486	0.100
337.100	-6.285	0.100
337.200	-8.868	0.100
337.300	-5.747	0.100
337.400	1.871	0.101
337.500	8.827	0.100
337.600	9.231	0.100
337.700	-1.996	0.100
337.800	2.701	0.101
337.900	-4.938	0.101
338.000	1.164	0.100
338.100	2.388	0.100
338.200	1.487	0.101
338.300	-6.516	0.101
338.400	-8.208	0.100
338.500	2.811	0.101
338.600	7.212	0.100
338.700	2.635	0.100
338.800	2.948	0.100
338.900	4.886	0.100
339.000	0.333	0.100
339.100	7.419	0.100
339.200	2.827	0.100
339.300	5.627	0.100
339.400	1.000	0.100
339.500	4.401	0.100
339.600	9.149	0.100
339.700	2.423	0.100
339.800	14.804	0.101
339.900	6.574	0.101
340.000	3.721	0.101
340.100	17.037	0.100
340.200	11.789	0.100
340.300	13.788	0.100
340.400	12.678	0.100
340.500	11.774	0.100
340.600	11.387	0.100
340.700	6.842	0.100
340.800	21.481	0.101
340.900	5.282	0.100
341.000	26.194	0.100
341.100	14.928	0.100
341.200	18.720	0.100
341.300	16.521	0.100
341.400	17.700	0.100
341.500	19.459	0.100
341.600	19.701	0.100
341.700	31.630	0.100
341.800	19.159	0.100
341.900	16.014	0.100
342.000	24.369	0.100
342.100	25.640	0.101
342.200	15.809	0.100
342.300	28.648	0.100
342.400	26.361	0.100
342.500	23.500	0.100
342.600	25.441	0.100
342.700	27.309	0.100
342.800	27.071	0.100
342.900	32.533	0.100
343.000	43.378	0.101
343.100	28.613	0.100
343.200	26.704	0.100
343.300	22.304	0.100
343.400	32.861	0.101
343.500	41.413	0.100
343.600	41.239	0.101
343.700	33.120	0.100
343.800	41.786	0.100
343.900	35.244	0.100
344.000	33.893	0.100
344.100	31.534	0.100
344.200	44.386	0.100
344.300	47.262	0.100
344.400	42.878	0.100
344.500	37.011	0.100
344.600	31.378	0.100
344.700	37.861	0.100
344.800	46.309	0.101
344.900	42.418	0.100
345.000	44.980	0.100
345.100	41.786	0.100
345.200	54.855	0.100
345.300	48.807	0.100
345.400	36.883	0.100
345.500	41.855	0.100
345.600	44.065	0.101
345.700	45.047	0.100
345.800	34.600	0.100
345.900	42.728	0.100
346.000	40.962	0.100
346.100	39.906	0.100
346.200	49.862	0.100
346.300	50.341	0.100
346.400	43.173	0.100
346.500	34.528	0.101
346.600	46.088	0.100
346.700	42.973	0.101
346.800	48.745	0.100
346.900	38.913	0.101
347.000	53.266	0.100
347.100	45.583	0.100
347.200	42.716	0.100
347.300	56.064	0.100
347.400	48.029	0.101
347.500	51.195	0.100
347.600	55.840	0.100
347.700	46.732	0.100
347.800	39.907	0.100
347.900	53.498	0.100
348.000	55.021	0.100
348.100	49.131	0.100
348.200	41.827	0.101
348.300	48.753	0.100
348.400	49.349	0.100
348.500	39.592	0.100
348.600	45.546	0.100
348.700	53.331	0.100
348.800	48.277	0.100
348.900	36.630	0.100
349.000	46.968	0.100
349.100	59.922	0.100
349.200	47.235	0.100
349.300	58.707	0.100
349.400	60.237	0.100
349.500	43.595	0.100
349.600	50.821	0.100
349.700	44.709	0.100
349.800	45.854	0.100
349.900	53.491	0.100
350.000	47.703	0.101
350.100	43.706	0.101
350.200	55.176	0.100
350.300	50.842	0.100
350.400	49.958	0.101
350.500	56.366	0.100
350.600	42.758	0.100
350.700	45.652	0.100
350.800	41.024	0.100
350.900	44.018	0.100
351.000	48.212	0.100
351.100	45.108	0.101
351.200	46.442	0.100
351.300	53.037	0.100
351.400	53.600	0.100
351.500	49.345	0.100
351.600	45.476	0.100
351.700	46.874	0.100
351.800	43.164	0.100
351.900	46.839	0.100
352.000	53.822	0.100
352.100	51.494	0.101
352.200	41.370	0.100
352.300	37.697	0.100
352.400	54.035	0.100
352.500	48.368	0.100
352.600	52.135	0.100
352.700	42.936	0.100
352.800	46.199	0.100
352.900	51.284	0.100
353.000	45.083	0.100
353.100	56.262	0.100
353.200	54.783	0.100
353.300	51.697	0.100
353.400	47.417	0.100
353.500	48.496	0.100
353.600	55.906	0.100
353.700	39.716	0.100
353.800	40.516	0.100
353.900	49.245	0.100
354.000	51.978	0.100
354.100	38.329	0.100
354.200	55.896	0.100
354.300	52.305	0.100
354.400	47.414	0.100
354.500	48.729	0.100
354.600	48.891	0.100
354.700	48.187	0.100
354.800	47.193	0.100
354.900	39.642	0.101
355.000	41.626	0.101
355.100	50.966	0.100
355.200	49.887	0.100
355.300	46.061	0.100
355.400	38.968	0.100
355.500	59.057	0.100
355.600	48.206	0.100
355.700	53.322	0.100
355.800	47.577	0.101
355.900	42.251	0.100
356.000	52.505	0.100
356.100	53.706	0.100
356.200	55.982	0.101
356.300	43.759	0.101
356.400	61.198	0.101
356.500	57.828	0.100
356.600	54.218	0.100
356.700	52.420	0.100
356.800	47.700	0.100
356.900	42.379	0.100
357.000	44.962	0.101
357.100	48.871	0.100
357.200	43.010	0.100
357.300	48.341	0.100
357.400	46.443	0.101
357.500	47.051	0.101
357.600	46.741	0.100
357.700	45.390	0.100
357.800	50.325	0.101
357.900	39.460	0.100
358.000	44.596	0.100
358.100	38.335	0.100
358.200	47.000	0.100
358.300	57.502	0.101
358.400	45.815	0.100
358.500	52.833	0.100
358.600	44.132	0.101
358.700	44.497	0.100
358.800	45.991	0.100
358.900	47.223	0.100
359.000	53.392	0.100
359.100	55.590	0.100
359.200	53.693	0.100
359.300	47.602	0.101
359.400	44.646	0.101
359.500	47.598	0.101
359.600	45.530	0.101
359.700	55.474	0.101
359.800	55.200	0.100
359.900	45.320	0.101
360.000	43.680	0.100
360.100	44.097	0.100
360.200	37.673	0.100
360.300	41.833	0.100
360.400	44.397	0.101
360.500	47.936	0.100
360.600	47.997	0.100
360.700	53.864	0.100
360.800	49.032	0.100
360.900	44.844	0.101
361.000	38.896	0.100
361.100	48.475	0.101
361.200	47.366	0.100
361.300	44.893	0.100
361.400	46.755	0.100
361.500	54.505	0.100
361.600	49.426	0.100
361.700	43.360	0.100
361.800	50.496	0.100
361.900	46.676	0.101
362.000	44.636	0.100
362.100	47.911	0.100
362.200	48.412	0.100
362.300	50.753	0.100
362.400	48.989	0.101
362.500	48.752	0.100
362.600	45.338	0.100
362.700	42.762	0.100
362.800	45.268	0.101
362.900	43.166	0.101
363.000	49.740	0.100
363.100	55.409	0.101
363.200	36.367	0.100
363.300	48.113	0.100
363.400	40.758	0.101
363.500	48.346	0.100
363.600	38.328	0.100
363.700	47.365	0.100
363.800	50.901	0.101
363.900	50.069	0.100
364.000	47.529	0.101
364.100	47.039	0.100
364.200	39.717	0.100
364.300	52.589	0.101
364.400	51.456	0.100
364.500	43.851	0.101
364.600	44.771	0.100
364.700	47.022	0.100
364.800	50.297	0.101
364.900	46.213	0.101
365.000	47.455	0.101
365.100	50.430	0.100
365.200	47.948	0.101
365.300	53.874	0.100
365.400	42.063	0.101
365.500	40.211	0.100
365.600	51.600	0.100
365.700	36.673	0.101
365.800	41.477	0.100
365.900	41.799	0.100
366.000	44.807	0.101
366.100	42.921	0.100
366.200	47.943	0.101
366.300	40.496	0.101
366.400	48.856	0.101
366.500	45.164	0.101
366.600	38.941	0.101
366.700	56.354	0.101
366.800	56.747	0.100
366.900	39.608	0.101
367.000	51.488	0.101
367.100	44.441	0.101
367.200	45.992	0.101
367.300	49.264	0.101
367.400	53.757	0.101
367.500	44.437	0.100
367.600	34.157	0.101
367.700	42.987	0.101
367.800	44.133	0.101
367.900	52.158	0.101
368.000	49.247	0.101
368.100	46.037	0.101
368.200	44.811	0.101
368.300	52.642	0.100
368.400	49.381	0.101
368.500	41.114	0.100
368.600	42.189	0.100
368.700	53.952	0.100
368.800	48.933	0.101
368.900	42.251	0.101
369.000	48.204	0.101
369.100	45.856	0.100
369.200	40.835	0.101
369.300	52.032	0.101
369.400	46.148	0.100
369.500	53.947	0.101
369.600	48.310	0.100
369.700	37.811	0.101
369.800	38.625	0.101
369.900	51.764	0.100
370.000	53.220	0.101
370.100	54.416	0.101
370.200	50.010	0.101
370.300	52.028	0.101
370.400	60.531	0.101
370.500	40.656	0.101
370.600	46.326	0.101
370.700	40.544	0.101
370.800	42.319	0.101
370.900	43.515	0.100
371.000	43.238	0.100
371.100	35.131	0.101
371.200	40.914	0.100
371.300	41.456	0.100
371.400	40.222	0.100
371.500	53.670	0.100
371.600	51.308	0.101
371.700	60.566	0.101
371.800	54.133	0.101
371.900	38.610	0.101
372.000	48.498	0.101
372.100	43.307	0.100
372.200	46.025	0.101
372.300	42.398	0.101
372.400	37.586	0.100
372.500	45.758	0.100
372.600	49.332	0.100
372.700	39.870	0.101
372.800	34.015	0.101
372.900	37.689	0.101
373.000	49.219	0.100
373.100	42.660	0.100
373.200	43.983	0.101
373.300	48.850	0.100
373.400	39.361	0.101
373.500	49.497	0.100
373.600	48.323	0.100
373.700	42.806	0.100
373.800	43.992	0.101
373.900	46.571	0.100
374.000	50.504	0.100
374.100	51.605	0.100
374.200	50.576	0.100
374.300	45.265	0.101
374.400	40.562	0.101
374.500	39.546	0.101
374.600	39.329	0.100
374.700	50.396	0.101
374.800	50.265	0.101
374.900	49.952	0.100
375.000	35.316	0.100
375.100	44.452	0.101
375.200	45.574	0.101
375.300	50.929	0.100
375.400	38.771	0.100
375.500	54.468	0.100
375.600	51.649	0.100
375.700	47.394	0.100
375.800	42.671	0.101
375.900	43.919	0.100
376.000	44.448	0.101
376.100	41.698	0.100
376.200	44.219	0.101
376.300	46.395	0.100
376.400	49.284	0.100
376.500	42.449	0.100
376.600	46.674	0.100
376.700	40.639	0.100
376.800	38.457	0.101
376.900	46.590	0.100
377.000	57.709	0.101
377.100	46.585	0.100
377.200	50.889	0.101
377.300	43.566	0.100
377.400	49.080	0.100
377.500	49.443	0.100
377.600	51.327	0.101
377.700	44.961	0.101
377.800	40.729	0.101
377.900	43.480	0.100
378.000	42.499	0.101
378.100	44.379	0.100
378.200	44.571	0.101
378.300	43.858	0.100
378.400	40.812	0.100
378.500	37.399	0.101
378.600	40.027	0.101
378.700	51.122	0.101
378.800	38.951	0.100
378.900	37.437	0.100
379.000	47.403	0.101
379.100	44.742	0.100
379.200	47.138	0.100
379.300	55.705	0.100
379.400	55.371	0.101
379.500	39.833	0.100
379.600	40.640	0.100
379.700	41.865	0.100
379.800	45.579	0.100
379.900	51.186	0.100
380.000	37.769	0.101
380.100	34.743	0.100
380.200	51.107	0.100
380.300	41.064	0.100
380.400	45.217	0.101
380.500	51.958	0.100
380.600	45.372	0.101
380.700	42.025	0.101
380.800	34.582	0.101
380.900	43.921	0.100
381.000	34.954	0.100
381.100	37.865	0.100
381.200	49.391	0.100
381.300	52.746	0.100
381.400	50.836	0.100
381.500	40.919	0.100
381.600	49.628	0.100
381.700	53.590	0.100
381.800	46.850	0.101
381.900	39.457	0.100
382.000	50.479	0.100
382.100	45.585	0.100
382.200	44.669	0.100
382.300	47.342	0.101
382.400	43.349	0.100
382.500	39.978	0.101
382.600	41.349	0.100
382.700	44.201	0.100
382.800	46.737	0.101
382.900	45.026	0.101
383.000	38.582	0.101
383.100	49.344	0.101
383.200	48.279	0.100
383.300	34.577	0.100
383.400	39.203	0.100
383.500	50.422	0.100
383.600	49.947	0.100
383.700	45.697	0.100
383.800	52.628	0.101
383.900	41.362	0.100
384.000	53.041	0.101
384.100	37.630	0.100
384.200	43.897	0.100
384.300	46.645	0.100
384.400	42.650	0.101
384.500	47.358	0.100
384.600	50.804	0.101
384.700	48.703	0.100
384.800	31.910	0.101
384.900	43.532	0.100
385.000	45.327	0.100
385.100	51.266	0.101
385.200	44.876	0.101
385.300	40.271	0.100
385.400	34.238	0.100
385.500	38.916	0.101
385.600	34.905	0.100
385.700	42.054	0.100
385.800	46.494	0.100
385.900	49.642	0.100
386.000	46.530	0.100
386.100	49.464	0.101
386.200	53.506	0.101
386.300	49.501	0.101
386.400	45.782	0.101
386.500	30.451	0.100
386.600	49.297	0.100
386.700	33.699	0.101
386.800	42.075	0.101
386.900	44.425	0.101
387.000	44.624	0.100
387.100	61.736	0.101
387.200	48.743	0.101
387.300	46.388	0.100
387.400	37.613	0.100
387.500	44.180	0.101
387.600	34.651	0.100
387.700	35.767	0.100
387.800	51.744	0.100
387.900	46.403	0.100
388.000	49.213	0.101
388.100	53.992	0.101
388.200	43.265	0.100
388.300	44.631	0.101
388.400	42.532	0.101
388.500	50.657	0.101
388.600	46.320	0.100
388.700	52.074	0.101
388.800	39.070	0.101
388.900	47.834	0.100
389.000	46.035	0.100
389.100	42.983	0.101
389.200	44.713	0.100
389.300	40.907	0.101
389.400	38.392	0.101
389.500	41.814	0.101
389.600	41.343	0.100
389.700	47.059	0.101
389.800	46.767	0.101
389.900	41.085	0.100
390.000	32.535	0.100
390.100	25.153	0.100
390.200	42.359	0.101
390.300	32.258	0.101
390.400	30.645	0.101
390.500	27.068	0.101
390.600	34.055	0.101
390.700	25.762	0.100
390.800	29.265	0.101
390.900	20.905	0.101
391.000	17.489	0.101
391.100	13.040	0.101
391.200	19.857	0.101
391.300	20.464	0.101
391.400	14.528	0.101
391.500	4.261	0.100
391.600	8.066	0.100
391.700	5.260	0.100
391.800	18.472	0.100
391.900	5.008	0.101
392.000	0.432	0.101
392.100	2.953	0.101
392.200	2.798	0.101
392.300	-3.745	0.101
392.400	-4.425	0.101
392.500	-5.645	0.101
392.600	-3.362	0.101
392.700	-6.494	0.101
392.800	4.084	0.101
392.900	-8.964	0.101
393.000	-6.834	0.101
393.100	-4.354	0.101
393.200	-15.125	0.100
393.300	-17.088	0.101
393.400	-13.721	0.101
393.500	-23.482	0.100
393.600	-14.313	0.101
393.700	-8.788	0.101
393.800	-12.213	0.101
393.900	-19.509	0.100
394.000	-15.707	0.100
394.100	-10.233	0.101
394.200	-6.053	0.100
394.300	-12.986	0.100
394.400	-15.964	0.100
394.500	-12.825	0.101
394.600	-15.634	0.101
394.700	-9.859	0.101
394.800	-13.698	0.100
394.900	-24.940	0.101
395.000	-30.947	0.100
395.100	-14.644	0.101
395.200	-12.568	0.100
395.300	-14.208	0.101
395.400	-11.083	0.100
395.500	-11.944	0.101
395.600	-12.694	0.101
395.700	-16.587	0.101
395.800	-22.415	0.100
395.900	-18.174	0.101
396.000	-25.454	0.101
396.100	-22.557	0.101
396.200	-15.371	0.101
396.300	-21.756	0.101
396.400	-16.088	0.100
396.500	-16.653	0.100
396.600	-21.440	0.100
396.700	-20.461	0.100
396.800	-13.245	0.100
396.900	-16.618	0.100
397.000	-19.407	0.101
397.100	-13.083	0.101
397.200	-9.383	0.100
397.300	-16.878	0.100
397.400	-27.035	0.101
397.500	-19.414	0.101
397.600	-20.481	0.101
397.700	-24.927	0.100
397.800	-13.568	0.100
397.900	-18.312	0.100
398.000	-15.032	0.100
398.100	-18.310	0.100
398.200	-21.264	0.100
398.300	-15.558	0.100
398.400	-19.882	0.100
398.500	-22.773	0.100
398.600	-12.945	0.100
398.700	-18.228	0.100
398.800	-7.610	0.100
398.900	-7.944	0.100
399.000	-20.476	0.100
399.100	-17.058	0.100
399.200	-14.655	0.100
399.300	-20.257	0.100
399.400	-22.761	0.100
399.500	-23.661	0.100
399.600	-14.755	0.101
399.700	-8.354	0.100
399.800	-13.698	0.100
399.900	-23.047	0.100
400.000	-19.333	0.100
400.100	-12.783	0.101
400.200	-27.426	0.100
400.300	-19.856	0.100
400.400	-27.121	0.100
400.500	-27.465	0.100
400.600	-21.465	0.100
400.700	-16.247	0.100
400.800	-14.160	0.101
400.900	-28.917	0.100
401.000	-27.033	0.101
401.100	-19.179	0.100
401.200	-20.165	0.100
401.300	-16.064	0.100
401.400	-15.224	0.100
401.500	-16.583	0.101
401.600	-17.457	0.100
401.700	-15.735	0.100
401.800	-21.633	0.100
401.900	-26.550	0.100
402.000	-14.796	0.100
402.100	-15.705	0.100
402.200	-9.895	0.101
402.300	-23.552	0.100
402.400	-31.936	0.100
402.500	-21.988	0.100
402.600	-23.189	0.100
402.700	-24.836	0.100
402.800	-16.940	0.100
402.900	-21.691	0.100
403.000	-13.181	0.100
403.100	-16.434	0.100
403.200	-22.069	0.101
403.300	-21.598	0.100
403.400	-13.174	0.100
403.500	-21.041	0.100
403.600	-26.194	0.101
403.700	-27.913	0.100
403.800	-18.377	0.100
403.900	-19.673	0.100
404.000	-19.598	0.100
404.100	-18.321	0.101
404.200	-20.781	0.100
404.300	-22.103	0.101
404.400	-31.230	0.100
404.500	-33.843	0.100
404.600	-21.930	0.100
404.700	-8.440	0.100
404.800	-26.319	0.100
404.900	-37.010	0.100
405.000	-29.264	0.100
405.100	-26.606	0.100
405.200	-21.781	0.100
405.300	-12.573	0.100
405.400	-17.627	0.100
405.500	-22.944	0.100
405.600	-28.304	0.100
405.700	-17.776	0.100
405.800	-24.074	0.100
405.900	-22.787	0.100
406.000	-26.325	0.100
406.100	-28.728	0.100
406.200	-22.994	0.100
406.300	-16.184	0.100
406.400	-26.027	0.100
406.500	-27.369	0.101
406.600	-33.603	0.100
406.700	-18.511	0.100
406.800	-24.883	0.100
406.900	-24.933	0.100
407.000	-19.110	0.101
407.100	-28.595	0.100
407.200	-29.537	0.100
407.300	-33.759	0.101
407.400	-26.276	0.100
407.500	-22.954	0.100
407.600	-29.716	0.100
407.700	-26.159	0.100
407.800	-24.034	0.100
407.900	-20.636	0.101
408.000	-21.044	0.100
408.100	-25.316	0.100
408.200	-26.835	0.100
408.300	-27.345	0.100
408.400	-22.498	0.100
408.500	-34.774	0.100
408.600	-24.414	0.100
408.700	-17.878	0.100
408.800	-29.170	0.100
408.900	-20.469	0.100
409.000	-33.786	0.100
409.100	-26.305	0.100
409.200	-25.486	0.100
409.300	-16.226	0.100
409.400	-29.399	0.100
409.500	-29.489	0.100
409.600	-29.647	0.100
409.700	-30.996	0.100
409.800	-36.372	0.100
409.900	-25.088	0.100
410.000	-27.425	0.101
410.100	-27.023	0.101
410.200	-26.594	0.100
410.300	-34.138	0.100
410.400	-30.631	0.100
410.500	-20.267	0.100
410.600	-27.682	0.100
410.700	-27.085	0.100
410.800	-28.113	0.100
410.900	-16.995	0.100
411.000	-24.553	0.100
411.100	-25.204	0.100
411.200	-24.123	0.100
411.300	-35.495	0.100
411.400	-40.634	0.100
411.500	-21.496	0.100
411.600	-28.860	0.100
411.700	-31.754	0.100
411.800	-28.640	0.100
411.900	-26.835	0.100
412.000	-22.993	0.101
412.100	-35.091	0.100
412.200	-33.583	0.100
412.300	-36.860	0.101
412.400	-35.541	0.100
412.500	-17.280	0.100
412.600	-21.259	0.101
412.700	-37.988	0.100
412.800	-35.977	0.100
412.900	-32.604	0.100
413.000	-35.160	0.100
413.100	-33.639	0.100
413.200	-29.722	0.100
413.300	-28.407	0.100
413.400	-30.811	0.100
413.500	-44.690	0.100
413.600	-36.014	0.100
413.700	-38.527	0.100
413.800	-39.687	0.100
413.900	-22.621	0.100
414.000	-24.755	0.100
414.100	-32.123	0.100
414.200	-31.427	0.100
414.300	-31.505	0.100
414.400	-32.902	0.100
414.500	-29.955	0.100
414.600	-25.753	0.101
414.700	-30.981	0.100
414.800	-43.092	0.100
414.900	-39.472	0.100
415.000	-31.502	0.100
415.100	-24.833	0.100
415.200	-18.435	0.100
415.300	-34.565	0.100
415.400	-30.292	0.101
415.500	-34.840	0.100
415.600	-31.685	0.100
415.700	-26.548	0.100
415.800	-43.975	0.100
415.900	-32.713	0.100
416.000	-27.648	0.100
416.100	-21.324	0.100
416.200	-35.034	0.101
416.300	-33.815	0.100
416.400	-34.632	0.101
416.500	-30.091	0.100
416.600	-31.841	0.101
416.700	-44.302	0.100
416.800	-35.760	0.100
416.900	-31.615	0.100
417.000	-22.633	0.100
417.100	-30.456	0.100
417.200	-31.137	0.101
417.300	-38.611	0.100
417.400	-34.081	0.100
417.500	-33.444	0.100
417.600	-39.618	0.100
417.700	-27.000	0.100
417.800	-34.499	0.100
417.900	-34.623	0.100
418.000	-38.124	0.100
418.100	-35.313	0.100
418.200	-26.764	0.100
418.300	-27.870	0.101
418.400	-29.765	0.100
418.500	-31.944	0.100
418.600	-29.891	0.100
418.700	-27.958	0.100
418.800	-28.261	0.100
418.900	-33.525	0.100
419.000	-31.874	0.100
419.100	-34.971	0.100
419.200	-29.507	0.101
419.300	-32.322	0.100
419.400	-29.916	0.100
419.500	-28.829	0.100
419.600	-37.279	0.100
419.700	-34.911	0.100
419.800	-47.878	0.101
419.900	-32.277	0.100
420.000	-36.900	0.100
420.100	-39.461	0.100
420.200	-34.002	0.100
420.300	-35.494	0.100
420.400	-42.628	0.100
420.500	-31.974	0.100
420.600	-27.439	0.101
420.700	-38.882	0.101
420.800	-34.360	0.100
420.900	-42.932	0.100
421.000	-42.681	0.100
421.100	-29.063	0.100
421.200	-37.076	0.100
421.300	-41.755	0.100
421.400	-35.712	0.100
421.500	-33.329	0.101
421.600	-31.660	0.101
421.700	-28.532	0.100
421.800	-30.584	0.101
421.900	-40.896	0.100
422.000	-32.163	0.100
422.100	-35.199	0.100
422.200	-33.460	0.101
422.300	-37.051	0.100
422.400	-50.281	0.100
422.500	-41.190	0.100
422.600	-29.239	0.100
422.700	-30.728	0.100
422.800	-40.355	0.100
422.900	-36.646	0.100
423.000	-25.566	0.100
423.100	-38.586	0.100
423.200	-43.442	0.100
423.300	-31.637	0.100
423.400	-36.957	0.100
423.500	-29.829	0.101
423.600	-42.872	0.100
423.700	-37.731	0.100
423.800	-24.862	0.101
423.900	-38.469	0.100
424.000	-38.317	0.100
424.100	-42.918	0.100
424.200	-31.244	0.100
424.300	-37.888	0.101
424.400	-36.136	0.100
424.500	-39.532	0.100
424.600	-53.400	0.100
424.700	-41.912	0.101
424.800	-33.303	0.100
424.900	-34.706	0.100
425.000	-33.836	0.100
425.100	-37.222	0.100
425.200	-37.014	0.100
425.300	-33.770	0.100
425.400	-40.011	0.101
425.500	-23.444	0.100
425.600	-41.704	0.100
425.700	-30.951	0.100
425.800	-44.639	0.100
425.900	-39.817	0.100
426.000	-33.844	0.100
426.100	-33.436	0.100
426.200	-35.412	0.100
426.300	-31.178	0.100
426.400	-41.074	0.100
426.500	-34.367	0.100
426.600	-25.149	0.100
426.700	-32.864	0.100
426.800	-35.569	0.100
426.900	-42.128	0.100
427.000	-40.910	0.100
427.100	-39.385	0.101
427.200	-40.442	0.100
427.300	-30.385	0.100
427.400	-33.320	0.100
427.500	-40.438	0.100
427.600	-42.153	0.100
427.700	-37.381	0.100
427.800	-41.234	0.100
427.900	-38.289	0.100
428.000	-36.298	0.100
428.100	-34.927	0.100
428.200	-34.743	0.100
428.300	-26.753	0.100
428.400	-38.783	0.100
428.500	-42.493	0.100
428.600	-36.352	0.100
428.700	-47.577	0.100
428.800	-40.072	0.100
428.900	-45.033	0.100
429.000	-34.625	0.100
429.100	-33.375	0.100
429.200	-43.683	0.100
429.300	-38.915	0.100
429.400	-37.904	0.100
429.500	-34.369	0.100
429.600	-38.214	0.100
429.700	-49.582	0.100
429.800	-39.852	0.100
429.900	-47.868	0.100
430.000	-35.860	0.100
430.100	-44.412	0.100
430.200	-39.431	0.100
430.300	-42.210	0.100
430.400	-29.975	0.100
430.500	-25.886	0.100
430.600	-34.691	0.100
430.700	-43.065	0.100
430.800	-48.315	0.100
430.900	-31.810	0.100
431.000	-39.231	0.100
431.100	-35.032	0.100
431.200	-40.550	0.101
431.300	-46.413	0.100
431.400	-41.528	0.100
431.500	-41.928	0.100
431.600	-44.297	0.100
431.700	-36.842	0.100
431.800	-46.912	0.100
431.900	-37.181	0.100
432.000	-33.350	0.100
432.100	-45.169	0.100
432.200	-32.087	0.100
432.300	-18.107	0.100
432.400	-39.451	0.101
432.500	-40.774	0.100
432.600	-38.673	0.100
432.700	-36.903	0.100
432.800	-40.700	0.100
432.900	-30.771	0.100
433.000	-33.941	0.100
433.100	-34.535	0.100
433.200	-37.065	0.100
433.300	-41.872	0.100
433.400	-38.743	0.100
433.500	-38.105	0.100
433.600	-45.676	0.100
433.700	-41.401	0.100
433.800	-36.847	0.100
433.900	-43.054	0.100
434.000	-41.512	0.100
434.100	-41.232	0.100
434.200	-35.529	0.100
434.300	-35.774	0.100
434.400	-36.922	0.100
434.500	-42.039	0.100
434.600	-31.897	0.100
434.700	-40.549	0.100
434.800	-36.834	0.100
434.900	-34.218	0.100
435.000	-46.168	0.100
435.100	-44.657	0.100
435.200	-45.675	0.100
435.300	-43.572	0.100
435.400	-34.049	0.100
435.500	-33.810	0.100
435.600	-42.613	0.100
435.700	-37.958	0.101
435.800	-41.227	0.100
435.900	-36.114	0.100
436.000	-46.655	0.100
436.100	-39.128	0.100
436.200	-40.617	0.100
436.300	-43.371	0.100
436.400	-37.354	0.100
436.500	-32.222	0.100
436.600	-35.851	0.100
436.700	-25.389	0.100
436.800	-43.735	0.100
436.900	-40.458	0.100
437.000	-36.976	0.100
437.100	-39.326	0.100
437.200	-25.262	0.100
437.300	-39.824	0.100
437.400	-43.447	0.100
437.500	-39.421	0.100
437.600	-43.295	0.100
437.700	-39.862	0.100
437.800	-31.454	0.100
437.900	-28.795	0.100
438.000	-29.386	0.100
438.100	-34.333	0.100
438.200	-30.008	0.100
438.300	-35.777	0.100
438.400	-49.594	0.100
438.500	-44.825	0.100
438.600	-33.789	0.100
438.700	-43.694	0.100
438.800	-40.274	0.100
438.900	-33.971	0.100
439.000	-38.366	0.100
439.100	-43.635	0.100
439.200	-51.205	0.100
439.300	-48.087	0.100
439.400	-31.614	0.100
439.500	-31.000	0.100
439.600	-31.975	0.100
439.700	-38.012	0.100
439.800	-37.350	0.100
439.900	-32.347	0.100
440.000	-46.567	0.100
440.100	-41.866	0.100
440.200	-44.136	0.100
440.300	-47.745	0.100
440.400	-34.517	0.100
440.500	-37.468	0.100
440.600	-33.079	0.100
440.700	-41.800	0.100
440.800	-32.117	0.100
440.900	-42.495	0.100
441.000	-41.548	0.100
441.100	-40.293	0.100
441.200	-38.603	0.100
441.300	-33.981	0.100
441.400	-35.679	0.100
441.500	-34.981	0.100
441.600	-35.486	0.100
441.700	-43.895	0.100
441.800	-42.084	0.100
441.900	-36.837	0.100
442.000	-42.266	0.100
442.100	-34.112	0.100
442.200	-40.524	0.100
442.300	-33.122	0.100
442.400	-25.888	0.100
442.500	-36.073	0.100
442.600	-42.548	0.100
442.700	-32.644	0.100
442.800	-45.303	0.100
442.900	-38.305	0.100
443.000	-31.643	0.100
443.100	-36.298	0.100
443.200	-34.686	0.100
443.300	-37.364	0.100
443.400	-36.778	0.100
443.500	-38.284	0.100
443.600	-32.850	0.100
443.700	-33.203	0.100
443.800	-46.222	0.100
443.900	-34.192	0.100
444.000	-47.865	0.100
444.100	-31.301	0.100
444.200	-36.950	0.100
444.300	-45.037	0.100
444.400	-40.762	0.100
444.500	-33.150	0.100
444.600	-31.425	0.100
444.700	-40.207	0.100
444.800	-34.976	0.100
444.900	-30.898	0.100
445.000	-30.453	0.100
445.100	-27.298	0.100
445.200	-35.860	0.100
445.300	-42.060	0.100
445.400	-42.500	0.100
445.500	-45.647	0.100
445.600	-35.205	0.100
445.700	-41.134	0.100
445.800	-38.540	0.100
445.900	-34.997	0.100
446.000	-26.272	0.100
446.100	-35.038	0.100
446.200	-40.563	0.100
446.300	-42.368	0.100
446.400	-38.061	0.100
446.500	-38.458	0.100
446.600	-36.526	0.100
446.700	-42.285	0.100
446.800	-33.327	0.100
446.900	-41.158	0.100
447.000	-34.994	0.100
447.100	-42.893	0.100
447.200	-40.018	0.100
447.300	-34.911	0.100
447.400	-40.631	0.100
447.500	-36.628	0.100
447.600	-37.216	0.100
447.700	-37.720	0.100
447.800	-24.643	0.100
447.900	-36.769	0.100
448.000	-39.651	0.100
448.100	-46.728	0.100
448.200	-37.005	0.100
448.300	-39.322	0.100
448.400	-33.154	0.100
448.500	-33.575	0.100
448.600	-32.792	0.100
448.700	-30.120	0.100
448.800	-29.587	0.100
448.900	-43.071	0.100
449.000	-39.702	0.100
449.100	-40.844	0.100
449.200	-40.535	0.100
449.300	-31.823	0.100
449.400	-39.722	0.100
449.500	-41.628	0.100
449.600	-41.132	0.100
449.700	-33.020	0.100
449.800	-26.908	0.100
449.900	-31.582	0.100
450.000	-36.243	0.100
450.100	-33.838	0.100
450.200	-40.440	0.100
450.300	-38.262	0.100
450.400	-36.554	0.100
450.500	-40.549	0.100
450.600	-32.643	0.100
450.700	-31.894	0.100
450.800	-32.794	0.100
450.900	-43.573	0.100
451.000	-37.516	0.100
451.100	-47.513	0.100
451.200	-35.086	0.100
451.300	-35.467	0.100
451.400	-34.981	0.100
451.500	-32.008	0.100
451.600	-34.555	0.100
451.700	-35.609	0.100
451.800	-40.466	0.100
451.900	-40.022	0.100
452.000	-44.896	0.100
452.100	-37.493	0.100
452.200	-43.397	0.100
452.300	-34.508	0.100
452.400	-32.354	0.100
452.500	-38.209	0.100
452.600	-35.483	0.100
452.700	-31.400	0.100
452.800	-40.174	0.100
452.900	-35.707	0.100
453.000	-32.873	0.100
453.100	-30.137	0.100
453.200	-33.029	0.100
453.300	-40.567	0.100
453.400	-46.139	0.100
453.500	-32.531	0.100
453.600	-24.119	0.100
453.700	-33.610	0.100
453.800	-26.710	0.100
453.900	-29.863	0.100
454.000	-35.753	0.100
454.100	-35.525	0.100
454.200	-39.535	0.100
454.300	-37.334	0.100
454.400	-37.522	0.100
454.500	-42.087	0.100
454.600	-40.530	0.100
454.700	-36.467	0.100
454.800	-37.648	0.100
454.900	-36.183	0.100
455.000	-45.421	0.100
455.100	-30.268	0.100
455.200	-32.493	0.100
455.300	-35.507	0.100
455.400	-33.099	0.100
455.500	-37.132	0.100
455.600	-31.162	0.100
455.700	-37.806	0.100
455.800	-36.100	0.100
455.900	-32.882	0.100
456.000	-32.413	0.100
456.100	-37.450	0.100
456.200	-36.405	0.100
456.300	-42.376	0.100
456.400	-42.293	0.100
456.500	-41.295	0.100
456.600	-26.313	0.100
456.700	-35.298	0.100
456.800	-36.273	0.100
456.900	-33.801	0.100
457.000	-44.801	0.100
457.100	-33.681	0.100
457.200	-42.398	0.100
457.300	-42.262	0.100
457.400	-31.462	0.100
457.500	-30.891	0.100
457.600	-39.311	0.100
457.700	-38.027	0.100
457.800	-32.231	0.100
457.900	-36.107	0.100
458.000	-42.675	0.100
458.100	-29.584	0.100
458.200	-34.770	0.100
458.300	-29.543	0.100
458.400	-40.419	0.100
458.500	-40.606	0.100
458.600	-37.559	0.100
458.700	-34.976	0.100
458.800	-38.494	0.100
458.900	-38.566	0.100
459.000	-35.832	0.100
459.100	-27.391	0.100
459.200	-30.421	0.100
459.300	-38.862	0.100
459.400	-40.339	0.100
459.500	-36.157	0.100
459.600	-34.348	0.100
459.700	-28.057	0.100
459.800	-36.495	0.100
459.900	-37.391	0.100
460.000	-30.654	0.100
460.100	-43.507	0.100
460.200	-35.443	0.100
460.300	-41.753	0.100
460.400	-34.471	0.100
460.500	-32.741	0.100
460.600	-40.308	0.100
460.700	-40.669	0.100
460.800	-38.715	0.100
460.900	-41.698	0.100
461.000	-23.079	0.100
461.100	-30.637	0.100
461.200	-30.920	0.100
461.300	-37.168	0.100
461.400	-38.526	0.100
461.500	-36.162	0.100
461.600	-33.841	0.100
461.700	-36.535	0.100
461.800	-43.935	0.100
461.900	-39.777	0.100
462.000	-35.985	0.100
462.100	-45.199	0.100
462.200	-23.784	0.100
462.300	-33.023	0.100
462.400	-34.823	0.100
462.500	-35.391	0.100
462.600	-30.211	0.100
462.700	-28.338	0.100
462.800	-33.433	0.100
462.900	-27.365	0.100
463.000	-29.831	0.100
463.100	-37.001	0.100
463.200	-34.702	0.100
463.300	-42.990	0.100
463.400	-42.617	0.100
463.500	-29.081	0.100
463.600	-36.434	0.100
463.700	-28.316	0.100
463.800	-28.729	0.100
463.900	-36.039	0.100
464.000	-30.502	0.100
464.100	-41.773	0.100
464.200	-42.449	0.100
464.300	-31.498	0.100
464.400	-32.060	0.100
464.500	-41.114	0.100
464.600	-39.934	0.100
464.700	-34.485	0.100
464.800	-36.938	0.100
464.900	-29.582	0.100
465.000	-31.234	0.100
465.100	-35.841	0.100
465.200	-36.257	0.100
465.300	-36.460	0.100
465.400	-35.171	0.100
465.500	-32.749	0.100
465.600	-39.374	0.100
465.700	-35.854	0.100
465.800	-33.611	0.100
465.900	-29.588	0.100
466.000	-28.911	0.100
466.100	-38.064	0.100
466.200	-32.010	0.100
466.300	-30.639	0.100
466.400	-37.945	0.100
466.500	-38.416	0.100
466.600	-26.885	0.100
466.700	-32.436	0.100
466.800	-27.964	0.100
466.900	-30.622	0.100
467.000	-46.407	0.100
467.100	-34.034	0.100
467.200	-38.043	0.100
467.300	-43.452	0.100
467.400	-33.668	0.100
467.500	-34.338	0.100
467.600	-40.575	0.100
467.700	-42.786	0.100
467.800	-32.665	0.100
467.900	-29.633	0.100
468.000	-26.497	0.100
468.100	-36.787	0.100
468.200	-41.353	0.100
468.300	-39.474	0.100
468.400	-36.380	0.100
468.500	-30.974	0.100
468.600	-37.108	0.100
468.700	-25.820	0.100
468.800	-34.392	0.100
468.900	-34.502	0.100
469.000	-31.035	0.100
469.100	-36.999	0.100
469.200	-32.175	0.100
469.300	-41.905	0.100
469.400	-30.917	0.100
469.500	-31.059	0.100
469.600	-38.867	0.100
469.700	-36.108	0.100
469.800	-34.911	0.100
469.900	-32.548	0.100
470.000	-42.181	0.100
470.100	-38.523	0.100
470.200	-37.342	0.100
470.300	-35.009	0.100
470.400	-26.800	0.100
470.500	-30.361	0.100
470.600	-40.198	0.100
470.700	-35.716	0.100
470.800	-33.761	0.100
470.900	-40.266	0.100
471.000	-36.687	0.100
471.100	-31.063	0.100
471.200	-25.147	0.100
471.300	-31.871	0.100
471.400	-42.835	0.100
471.500	-33.487	0.100
471.600	-37.607	0.100
471.700	-34.025	0.100
471.800	-25.839	0.100
471.900	-32.563	0.100
472.000	-38.113	0.100
472.100	-39.277	0.100
472.200	-32.656	0.100
472.300	-26.215	0.100
472.400	-34.780	0.100
472.500	-35.604	0.100
472.600	-29.737	0.100
472.700	-33.889	0.100
472.800	-33.990	0.100
472.900	-38.777	0.100
473.000	-34.981	0.100
473.100	-35.785	0.100
473.200	-35.404	0.100
473.300	-25.445	0.100
473.400	-30.521	0.100
473.500	-36.583	0.100
473.600	-37.844	0.100
473.700	-37.115	0.100
473.800	-37.955	0.100
473.900	-30.840	0.100
474.000	-31.633	0.100
474.100	-27.418	0.100
474.200	-35.218	0.100
474.300	-39.096	0.100
474.400	-44.163	0.100
474.500	-42.117	0.100
474.600	-32.150	0.100
474.700	-35.394	0.100
474.800	-24.965	0.100
474.900	-26.919	0.100
475.000	-32.846	0.100
475.100	-40.409	0.100
475.200	-35.160	0.100
475.300	-36.449	0.100
475.400	-32.405	0.100
475.500	-28.983	0.100
475.600	-25.261	0.100
475.700	-38.247	0.100
475.800	-35.969	0.100
475.900	-32.204	0.100
476.000	-30.022	0.100
476.100	-33.176	0.100
476.200	-35.310	0.100
476.300	-32.200	0.100
476.400	-42.278	0.100
476.500	-26.004	0.100
476.600	-35.961	0.100
476.700	-28.392	0.100
476.800	-31.572	0.100
476.900	-29.997	0.100
477.000	-34.619	0.100
477.100	-36.974	0.100
477.200	-42.582	0.100
477.300	-37.281	0.100
477.400	-29.551	0.100
477.500	-28.897	0.100
477.600	-32.364	0.100
477.700	-32.294	0.100
477.800	-33.376	0.100
477.900	-28.858	0.100
478.000	-32.124	0.100
478.100	-36.402	0.100
478.200	-28.659	0.100
478.300	-31.810	0.100
478.400	-38.828	0.100
478.500	-28.576	0.100
478.600	-31.547	0.100
478.700	-29.690	0.100
478.800	-40.605	0.100
478.900	-44.616	0.100
479.000	-36.510	0.100
479.100	-33.797	0.100
479.200	-33.426	0.100
479.300	-35.769	0.100
479.400	-34.036	0.100
479.500	-29.587	0.100
479.600	-24.766	0.100
479.700	-26.595	0.100
479.800	-31.083	0.100
479.900	-28.948	0.100
480.000	-28.319	0.100
480.100	-32.380	0.100
480.200	-32.394	0.100
480.300	-23.541	0.100
480.400	-25.387	0.100
480.500	-18.154	0.100
480.600	-16.990	0.100
480.700	-12.722	0.100
480.800	-14.607	0.100
480.900	-9.868	0.100
481.000	-14.704	0.100
481.100	-4.112	0.100
481.200	-2.150	0.100
481.300	-3.358	0.100
481.400	-0.913	0.100
481.500	3.101	0.100
481.600	-10.970	0.100
481.700	-5.392	0.100
481.800	-8.792	0.100
481.900	-1.768	0.100
482.000	1.709	0.100
482.100	5.305	0.100
482.200	4.673	0.100
482.300	7.256	0.100
482.400	-9.961	0.100
482.500	-2.507	0.100
482.600	4.920	0.100
482.700	1.669	0.100
482.800	2.530	0.100
482.900	-4.494	0.100
483.000	-4.878	0.100
483.100	-6.127	0.100
483.200	0.952	0.100
483.300	-1.261	0.100
483.400	1.099	0.100
483.500	13.187	0.100
483.600	4.809	0.100
483.700	4.127	0.100
483.800	0.429	0.100
483.900	0.631	0.100
484.000	4.271	0.100
484.100	-5.031	0.100
484.200	-10.966	0.100
484.300	-5.253	0.100
484.400	-0.870	0.100
484.500	-2.886	0.100
484.600	-3.941	0.100
484.700	2.249	0.100
484.800	0.893	0.100
484.900	-6.292	0.100
485.000	-6.357	0.100
485.100	-14.663	0.100
485.200	-1.486	0.100
485.300	2.628	0.100
485.400	-10.754	0.100
485.500	-5.659	0.100
485.600	-1.644	0.100
485.700	-9.356	0.100
485.800	3.499	0.100
485.900	3.135	0.100
486.000	-1.536	0.100
486.100	-2.390	0.100
486.200	-1.676	0.100
486.300	-3.824	0.100
486.400	-3.086	0.100
486.500	3.848	0.100
486.600	-1.262	0.100
486.700	-2.907	0.100
486.800	2.693	0.100
486.900	-5.270	0.100
487.000	-11.702	0.100
487.100	-7.798	0.100
487.200	-8.453	0.100
487.300	3.333	0.100
487.400	2.887	0.100
487.500	-2.114	0.100
487.600	4.688	0.100
487.700	7.751	0.100
487.800	-2.934	0.100
487.900	-8.985	0.100
488.000	2.280	0.100
488.100	2.534	0.100
488.200	-3.652	0.100
488.300	6.616	0.100
488.400	6.640	0.100
488.500	6.649	0.100
488.600	-1.921	0.100
488.700	-0.359	0.100
488.800	2.607	0.100
488.900	-6.815	0.100
489.000	2.639	0.100
489.100	9.762	0.100
489.200	5.709	0.100
489.300	10.153	0.100
489.400	6.772	0.100
489.500	9.254	0.100
489.600	4.465	0.100
489.700	5.925	0.100
489.800	22.309	0.100
489.900	3.901	0.100
490.000	11.072	0.100
490.100	8.540	0.100
490.200	11.897	0.100
490.300	5.147	0.100
490.400	8.355	0.100
490.500	14.787	0.100
490.600	16.196	0.100
490.700	9.883	0.100
490.800	19.911	0.100
490.900	19.163	0.100
491.000	22.632	0.100
491.100	17.210	0.100
491.200	12.294	0.100
491.300	22.024	0.100
491.400	23.459	0.100
491.500	23.718	0.100
491.600	19.268	0.100
491.700	15.907	0.100
491.800	23.369	0.100
491.900	22.762	0.100
492.000	34.099	0.100
492.100	34.011	0.100
492.200	29.690	0.100
492.300	14.685	0.100
492.400	19.945	0.100
492.500	25.373	0.100
492.600	32.241	0.100
492.700	29.590	0.100
492.800	31.631	0.100
492.900	35.490	0.100
493.000	29.116	0.100
493.100	26.516	0.100
493.200	26.964	0.100
493.300	40.112	0.100
493.400	37.517	0.100
493.500	38.434	0.100
493.600	27.458	0.100
493.700	34.117	0.100
493.800	31.974	0.100
493.900	43.881	0.100
494.000	33.667	0.100
494.100	37.648	0.100
494.200	37.754	0.100
494.300	43.905	0.100
494.400	38.975	0.100
494.500	34.489	0.100
494.600	46.994	0.100
494.700	47.371	0.100
494.800	47.797	0.100
494.900	42.424	0.100
495.000	44.376	0.100
495.100	41.752	0.100
495.200	45.471	0.100
495.300	46.939	0.100
495.400	40.845	0.100
495.500	48.756	0.100
495.600	44.679	0.100
495.700	46.380	0.100
495.800	60.278	0.100
495.900	50.283	0.100
496.000	43.096	0.100
496.100	48.095	0.100
496.200	44.514	0.100
496.300	39.850	0.100
496.400	47.508	0.100
496.500	50.500	0.100
496.600	53.367	0.100
496.700	48.338	0.100
496.800	44.888	0.100
496.900	48.995	0.100
497.000	49.560	0.100
497.100	52.351	0.100
497.200	53.147	0.100
497.300	47.519	0.100
497.400	49.455	0.100
497.500	49.003	0.100
497.600	41.076	0.100
497.700	50.317	0.100
497.800	50.382	0.100
497.900	58.907	0.100
498.000	55.838	0.100
498.100	60.691	0.100
498.200	48.947	0.100
498.300	54.033	0.100
498.400	56.055	0.100
498.500	54.831	0.100
498.600	63.098	0.100
498.700	50.093	0.100
498.800	56.606	0.100
498.900	59.321	0.100
499.000	57.013	0.100
499.100	45.232	0.100
499.200	47.573	0.100
499.300	54.595	0.100
499.400	42.109	0.100
499.500	57.273	0.100
499.600	66.354	0.100
499.700	62.387	0.100
499.800	50.215	0.100
499.900	39.093	0.100
500.000	47.263	0.100
500.100	50.246	0.100
500.200	52.397	0.100
500.300	47.583	0.100
500.400	62.289	0.100
500.500	52.058	0.100
500.600	46.345	0.100
500.700	37.072	0.100
500.800	58.915	0.100
500.900	61.069	0.100
501.000	64.945	0.100
501.100	45.603	0.100
501.200	52.279	0.100
501.300	54.070	0.100
501.400	54.237	0.100
501.500	59.535	0.100
501.600	44.663	0.100
501.700	46.628	0.100
501.800	49.332	0.100
501.900	49.216	0.100
502.000	56.119	0.100
502.100	49.753	0.100
502.200	49.686	0.100
502.300	53.635	0.100
502.400	60.199	0.100
502.500	52.010	0.100
502.600	53.215	0.100
502.700	49.445	0.100
502.800	56.481	0.100
502.900	56.583	0.100
503.000	55.676	0.100
503.100	50.557	0.100
503.200	54.534	0.100
503.300	61.176	0.100
503.400	47.451	0.100
503.500	43.663	0.100
503.600	54.446	0.100
503.700	42.717	0.100
503.800	50.499	0.100
503.900	55.049	0.100
504.000	58.637	0.100
504.100	48.574	0.100
504.200	48.472	0.100
504.300	51.434	0.100
504.400	55.168	0.100
504.500	53.983	0.100
504.600	48.256	0.100
504.700	43.552	0.100
504.800	49.594	0.100
504.900	52.006	0.100
505.000	45.458	0.100
505.100	57.202	0.100
505.200	54.753	0.100
505.300	60.225	0.100
505.400	50.956	0.100
505.500	54.622	0.100
505.600	50.616	0.100
505.700	50.669	0.100
505.800	49.725	0.100
505.900	49.609	0.100
506.000	53.782	0.100
506.100	38.915	0.100
506.200	46.860	0.100
506.300	48.466	0.100
506.400	51.784	0.100
506.500	48.513	0.100
506.600	56.456	0.100
506.700	51.678	0.100
506.800	42.273	0.100
506.900	54.760	0.100
507.000	56.728	0.100
507.100	56.505	0.100
507.200	53.062	0.100
507.300	54.785	0.100
507.400	44.778	0.100
507.500	52.339	0.100
507.600	42.772	0.100
507.700	49.949	0.100
507.800	52.292	0.100
507.900	50.966	0.100
508.000	46.975	0.100
508.100	47.812	0.100
508.200	52.276	0.100
508.300	47.025	0.100
508.400	59.748	0.100
508.500	44.264	0.100
508.600	42.305	0.100
508.700	49.235	0.100
508.800	47.536	0.100
508.900	55.212	0.100
509.000	44.707	0.100
509.100	53.016	0.100
509.200	48.303	0.100
509.300	47.906	0.100
509.400	59.477	0.100
509.500	45.933	0.100
509.600	50.810	0.100
509.700	37.924	0.100
509.800	47.100	0.100
509.900	52.634	0.100
510.000	56.115	0.100
510.100	53.967	0.100
510.200	52.262	0.100
510.300	61.118	0.100
510.400	40.264	0.100
510.500	49.053	0.100
510.600	48.952	0.100
510.700	47.301	0.100
510.800	58.898	0.100
510.900	55.331	0.100
511.000	57.901	0.100
511.100	56.605	0.100
511.200	37.244	0.100
511.300	44.969	0.100
511.400	51.703	0.100
511.500	50.038	0.100
511.600	54.496	0.100
511.700	49.192	0.100
511.800	53.463	0.100
511.900	51.627	0.100
512.000	46.909	0.100
512.100	49.416	0.100
512.200	51.339	0.100
512.300	51.911	0.100
512.400	49.703	0.100
512.500	36.893	0.100
512.600	41.155	0.100
512.700	45.819	0.100
512.800	55.480	0.100
512.900	50.211	0.100
513.000	51.651	0.100
513.100	53.773	0.100
513.200	50.853	0.100
513.300	53.073	0.100
513.400	43.693	0.100
513.500	44.564	0.100
513.600	46.617	0.100
513.700	49.574	0.100
513.800	50.173	0.100
513.900	51.962	0.100
514.000	43.181	0.100
514.100	52.243	0.100
514.200	54.750	0.100
514.300	55.215	0.100
514.400	56.187	0.100
514.500	52.257	0.100
514.600	49.408	0.100
514.700	46.918	0.101
514.800	49.589	0.100
514.900	39.460	0.100
515.000	53.518	0.100
515.100	47.416	0.100
515.200	39.024	0.100
515.300	47.484	0.100
515.400	51.059	0.100
515.500	55.425	0.100
515.600	55.591	0.100
515.700	55.301	0.100
515.800	52.711	0.100
515.900	36.625	0.100
516.000	49.750	0.100
516.100	50.975	0.100
516.200	51.116	0.100
516.300	42.561	0.100
516.400	51.764	0.100
516.500	57.147	0.100
516.600	44.199	0.100
516.700	35.875	0.100
516.800	43.773	0.100
516.900	56.897	0.100
517.000	43.099	0.100
517.100	53.375	0.100
517.200	49.363	0.100
517.300	45.027	0.100
517.400	43.734	0.100
517.500	44.301	0.100
517.600	55.199	0.100
517.700	50.481	0.100
517.800	49.778	0.100
517.900	51.300	0.100
518.000	28.616	0.100
518.100	47.816	0.100
518.200	47.376	0.100
518.300	46.113	0.100
518.400	45.657	0.100
518.500	36.450	0.100
518.600	41.605	0.100
518.700	48.903	0.100
518.800	46.559	0.100
518.900	55.143	0.100
519.000	61.507	0.100
519.100	49.446	0.100
519.200	57.638	0.100
519.300	44.853	0.100
519.400	46.445	0.100
519.500	52.304	0.100
519.600	49.432	0.100
519.700	38.995	0.100
519.800	47.094	0.100
519.900	50.319	0.100
520.000	45.932	0.100
520.100	45.763	0.100
520.200	57.073	0.100
520.300	45.170	0.100
520.400	47.355	0.100
520.500	56.624	0.100
520.600	47.572	0.100
520.700	51.380	0.100
520.800	48.045	0.100
520.900	53.277	0.100
521.000	45.235	0.100
521.100	41.428	0.100
521.200	46.436	0.100
521.300	50.658	0.100
521.400	48.719	0.100
521.500	49.289	0.100
521.600	46.782	0.100
521.700	44.689	0.100
521.800	45.874	0.100
521.900	44.053	0.100
522.000	58.415	0.100
522.100	44.140	0.100
522.200	45.581	0.100
522.300	43.331	0.100
522.400	44.169	0.100
522.500	59.900	0.100
522.600	51.493	0.100
522.700	45.386	0.100
522.800	45.752	0.100
522.900	49.719	0.100
523.000	42.627	0.100
523.100	42.982	0.100
523.200	45.848	0.100
523.300	50.253	0.100
523.400	57.681	0.100
523.500	43.163	0.100
523.600	38.404	0.100
523.700	39.557	0.100
523.800	48.149	0.100
523.900	44.748	0.100
524.000	44.299	0.100
524.100	46.190	0.100
524.200	41.735	0.100
524.300	37.269	0.100
524.400	47.819	0.100
524.500	63.686	0.100
524.600	54.135	0.100
524.700	39.155	0.100
524.800	47.264	0.100
524.900	46.610	0.100
525.000	44.784	0.100
525.100	54.027	0.100
525.200	41.323	0.100
525.300	47.710	0.100
525.400	58.164	0.100
525.500	51.245	0.100
525.600	36.147	0.100
525.700	34.478	0.100
525.800	44.667	0.100
525.900	56.895	0.100
526.000	47.465	0.100
526.100	46.882	0.100
526.200	44.801	0.100
526.300	53.298	0.100
526.400	49.470	0.100
526.500	42.749	0.100
526.600	43.455	0.100
526.700	42.574	0.100
526.800	49.159	0.100
526.900	52.375	0.100
527.000	45.102	0.100
527.100	45.504	0.100
527.200	46.422	0.100
527.300	41.594	0.100
527.400	48.342	0.100
527.500	40.252	0.100
527.600	48.435	0.100
527.700	46.462	0.100
527.800	44.484	0.100
527.900	47.494	0.100
528.000	53.224	0.100
528.100	50.004	0.100
528.200	42.938	0.100
528.300	48.905	0.100
528.400	49.462	0.100
528.500	46.222	0.100
528.600	48.386	0.100
528.700	50.188	0.100
528.800	43.574	0.100
528.900	46.437	0.100
529.000	38.949	0.100
529.100	44.441	0.100
529.200	46.924	0.100
529.300	44.890	0.100
529.400	52.019	0.100
529.500	52.655	0.100
529.600	44.824	0.100
529.700	52.139	0.100
529.800	37.257	0.100
529.900	46.122	0.100
530.000	50.114	0.100
530.100	44.593	0.100
530.200	44.911	0.100
530.300	45.837	0.100
530.400	40.006	0.100
530.500	38.874	0.100
530.600	51.630	0.100
530.700	52.318	0.100
530.800	47.487	0.100
530.900	44.202	0.100
531.000	53.893	0.100
531.100	51.152	0.100
531.200	45.841	0.100
531.300	45.803	0.100
531.400	49.866	0.100
531.500	50.381	0.100
531.600	43.063	0.100
531.700	47.062	0.100
531.800	43.527	0.100
531.900	46.479	0.100
532.000	41.384	0.100
532.100	44.999	0.100
532.200	49.959	0.100
532.300	51.339	0.100
532.400	44.835	0.100
532.500	49.791	0.100
532.600	46.843	0.100
532.700	45.993	0.100
532.800	53.367	0.100
532.900	50.858	0.100
533.000	43.428	0.100
533.100	39.906	0.100
533.200	43.471	0.100
533.300	45.524	0.100
533.400	44.514	0.100
533.500	39.124	0.100
533.600	49.595	0.100
533.700	36.752	0.100
533.800	55.019	0.100
533.900	55.083	0.100
534.000	54.796	0.100
534.100	49.336	0.100
534.200	49.129	0.100
534.300	46.959	0.100
534.400	51.483	0.100
534.500	40.647	0.100
534.600	39.367	0.100
534.700	47.461	0.100
534.800	37.488	0.100
534.900	44.240	0.100
535.000	42.339	0.100
535.100	37.853	0.100
535.200	45.899	0.100
535.300	46.567	0.100
535.400	39.661	0.100
535.500	47.868	0.100
535.600	44.574	0.100
535.700	47.001	0.100
535.800	50.129	0.100
535.900	51.526	0.100
536.000	49.617	0.100
536.100	49.148	0.100
536.200	53.736	0.100
536.300	47.462	0.100
536.400	32.506	0.100
536.500	46.538	0.100
536.600	48.581	0.100
536.700	48.409	0.100
536.800	52.103	0.100
536.900	50.498	0.100
537.000	47.886	0.100
537.100	43.838	0.100
537.200	40.378	0.100
537.300	47.115	0.100
537.400	46.819	0.100
537.500	56.589	0.100
537.600	36.281	0.100
537.700	39.542	0.100
537.800	49.129	0.100
537.900	46.815	0.100
538.000	42.476	0.100
538.100	54.201	0.100
538.200	46.646	0.100
538.300	39.510	0.100
538.400	53.437	0.100
538.500	47.449	0.100
538.600	41.748	0.100
538.700	44.266	0.100
538.800	37.818	0.100
538.900	47.123	0.100
539.000	39.618	0.100
539.100	56.262	0.100
539.200	50.911	0.100
539.300	44.507	0.100
539.400	60.469	0.100
539.500	41.972	0.100
539.600	35.321	0.100
539.700	46.002	0.100
539.800	39.589	0.100
539.900	54.760	0.100
540.000	37.740	0.100
540.100	42.297	0.100
540.200	43.055	0.100
540.300	38.031	0.100
540.400	32.498	0.100
540.500	34.771	0.100
540.600	32.624	0.100
540.700	26.350	0.100
540.800	7.261	0.100
540.900	15.682	0.101
541.000	21.746	0.100
541.100	16.441	0.100
541.200	9.117	0.100
541.300	9.765	0.100
541.400	11.715	0.100
541.500	12.128	0.100
541.600	-4.540	0.100
541.700	7.111	0.100
541.800	7.214	0.100
541.900	3.004	0.100
542.000	-2.401	0.100
542.100	2.050	0.100
542.200	5.129	0.100
542.300	-6.619	0.100
542.400	-6.883	0.100
542.500	-12.022	0.100
542.600	3.687	0.100
542.700	-2.927	0.100
542.800	-8.841	0.100
542.900	-8.703	0.100
543.000	-12.248	0.100
543.100	-19.485	0.100
543.200	-6.145	0.100
543.300	-13.253	0.100
543.400	0.337	0.100
543.500	-3.299	0.100
543.600	-10.405	0.100
543.700	-7.844	0.100
543.800	-10.529	0.100
543.900	-11.507	0.100
544.000	-19.040	0.100
544.100	-14.412	0.100
544.200	-14.744	0.100
544.300	-6.014	0.100
544.400	-15.703	0.100
544.500	-15.358	0.100
544.600	-20.388	0.100
544.700	-22.529	0.100
544.800	-15.461	0.100
544.900	-20.425	0.100
545.000	-19.495	0.100
545.100	-7.333	0.100
545.200	-17.248	0.100
545.300	-16.402	0.100
545.400	-20.895	0.100
545.500	-29.193	0.100
545.600	-18.810	0.100
545.700	-12.866	0.100
545.800	-30.241	0.100
545.900	-29.035	0.100
546.000	-9.746	0.100
546.100	-9.533	0.100
546.200	-8.265	0.100
546.300	-15.540	0.100
546.400	-23.108	0.100
546.500	-27.839	0.100
546.600	-22.470	0.100
546.700	-11.322	0.100
546.800	-12.880	0.100
546.900	-18.337	0.100
547.000	-22.689	0.100
547.100	-15.498	0.100
547.200	-20.183	0.100
547.300	-17.094	0.100
547.400	-20.693	0.100
547.500	-21.930	0.100
547.600	-20.624	0.100
547.700	-23.546	0.100
547.800	-22.266	0.100
547.900	-23.088	0.100
548.000	-34.047	0.100
548.100	-14.228	0.100
548.200	-17.415	0.100
548.300	-13.596	0.100
548.400	-21.717	0.100
548.500	-22.652	0.100
548.600	-20.195	0.100
548.700	-13.410	0.100
548.800	-15.978	0.100
548.900	-10.948	0.100
549.000	-29.015	0.100
549.100	-26.547	0.100
549.200	-26.188	0.100
549.300	-15.894	0.100
549.400	-18.192	0.100
549.500	-26.103	0.100
549.600	-15.647	0.100
549.700	-20.963	0.100
549.800	-22.175	0.100
549.900	-19.405	0.100
550.000	-20.783	0.100
550.100	-35.700	0.100
550.200	-17.447	0.100
550.300	-9.537	0.100
550.400	-22.557	0.100
550.500	-25.761	0.100
550.600	-13.434	0.100
550.700	-7.289	0.100
550.800	-12.002	0.100
550.900	-21.635	0.100
551.000	-21.115	0.100
551.100	-15.872	0.100
551.200	-26.943	0.100
551.300	-21.624	0.100
551.400	-25.848	0.100
551.500	-19.346	0.100
551.600	-18.029	0.100
551.700	-20.936	0.100
551.800	-25.271	0.100
551.900	-14.694	0.100
552.000	-25.449	0.100
552.100	-19.439	0.100
552.200	-20.271	0.100
552.300	-18.536	0.100
552.400	-22.531	0.100
552.500	-19.404	0.100
552.600	-16.782	0.100
552.700	-29.516	0.100
552.800	-27.527	0.100
552.900	-30.506	0.100
553.000	-26.475	0.100
553.100	-20.756	0.100
553.200	-25.220	0.100
553.300	-23.616	0.100
553.400	-22.971	0.100
553.500	-24.536	0.100
553.600	-28.291	0.100
553.700	-22.772	0.100
553.800	-20.101	0.100
553.900	-16.446	0.100
554.000	-23.102	0.100
554.100	-24.445	0.100
554.200	-25.133	0.100
554.300	-21.392	0.100
554.400	-16.432	0.100
554.500	-24.591	0.100
554.600	-17.784	0.100
554.700	-25.619	0.100
554.800	-29.917	0.100
554.900	-17.298	0.100
555.000	-21.141	0.100
555.100	-24.032	0.100
555.200	-27.285	0.100
555.300	-15.267	0.100
555.400	-29.297	0.100
555.500	-24.237	0.100
555.600	-23.276	0.100
555.700	-30.306	0.100
555.800	-28.561	0.100
555.900	-23.976	0.100
556.000	-20.322	0.100
556.100	-18.416	0.100
556.200	-41.033	0.100
556.300	-31.291	0.100
556.400	-24.791	0.100
556.500	-31.329	0.100
556.600	-25.340	0.100
556.700	-32.518	0.100
556.800	-16.482	0.100
556.900	-20.465	0.100
557.000	-28.501	0.100
557.100	-32.767	0.100
557.200	-25.492	0.100
557.300	-28.105	0.100
557.400	-33.815	0.100
557.500	-25.056	0.100
557.600	-29.648	0.100
557.700	-28.814	0.100
557.800	-25.670	0.100
557.900	-12.373	0.100
558.000	-21.030	0.100
558.100	-33.691	0.100
558.200	-20.934	0.100
558.300	-29.805	0.100
558.400	-29.088	0.100
558.500	-30.438	0.100
558.600	-31.039	0.100
558.700	-21.001	0.100
558.800	-30.868	0.100
558.900	-38.131	0.100
559.000	-30.946	0.100
559.100	-31.577	0.100
559.200	-28.171	0.100
559.300	-37.600	0.100
559.400	-29.731	0.100
559.500	-24.605	0.100
559.600	-34.742	0.100
559.700	-27.013	0.100
559.800	-36.070	0.100
559.900	-26.428	0.100
560.000	-30.362	0.100
560.100	-28.164	0.100
560.200	-28.035	0.100
560.300	-29.438	0.100
560.400	-26.854	0.100
560.500	-16.584	0.100
560.600	-28.440	0.100
560.700	-26.308	0.100
560.800	-38.226	0.100
560.900	-29.226	0.100
561.000	-28.336	0.100
561.100	-34.182	0.100
561.200	-32.681	0.100
561.300	-27.561	0.100
561.400	-32.536	0.100
561.500	-35.630	0.100
561.600	-27.584	0.100
561.700	-31.878	0.100
561.800	-30.385	0.100
561.900	-23.479	0.100
562.000	-34.867	0.100
562.100	-38.324	0.100
562.200	-29.181	0.100
562.300	-26.409	0.100
562.400	-30.798	0.100
562.500	-25.545	0.100
562.600	-35.665	0.100
562.700	-35.082	0.100
562.800	-29.652	0.100
562.900	-27.616	0.100
563.000	-36.333	0.100
563.100	-41.194	0.100
563.200	-39.792	0.100
563.300	-24.899	0.100
563.400	-28.336	0.100
563.500	-27.457	0.100
563.600	-25.461	0.100
563.700	-34.908	0.100
563.800	-35.447	0.100
563.900	-39.800	0.100
564.000	-37.188	0.100
564.100	-35.739	0.100
564.200	-30.428	0.100
564.300	-37.802	0.100
564.400	-36.651	0.100
564.500	-26.875	0.100
564.600	-31.657	0.100
564.700	-45.141	0.100
564.800	-33.380	0.100
564.900	-38.220	0.100
565.000	-40.305	0.100
565.100	-23.483	0.100
565.200	-24.160	0.100
565.300	-29.811	0.100
565.400	-29.866	0.100
565.500	-34.567	0.100
565.600	-28.427	0.100
565.700	-43.224	0.100
565.800	-42.424	0.100
565.900	-31.887	0.100
566.000	-33.678	0.100
566.100	-20.972	0.100
566.200	-33.052	0.100
566.300	-30.523	0.100
566.400	-40.018	0.100
566.500	-29.164	0.100
566.600	-40.513	0.100
566.700	-33.326	0.100
566.800	-35.352	0.100
566.900	-39.004	0.100
567.000	-37.855	0.100
567.100	-28.765	0.100
567.200	-30.189	0.100
567.300	-36.357	0.100
567.400	-28.289	0.100
567.500	-29.135	0.100
567.600	-37.251	0.100
567.700	-30.983	0.100
567.800	-35.933	0.100
567.900	-43.133	0.100
568.000	-41.267	0.100
568.100	-32.842	0.100
568.200	-35.141	0.100
568.300	-39.228	0.100
568.400	-31.717	0.100
568.500	-33.607	0.100
568.600	-46.001	0.100
568.700	-41.252	0.100
568.800	-28.172	0.100
568.900	-31.945	0.100
569.000	-33.541	0.100
569.100	-33.038	0.100
569.200	-39.141	0.100
569.300	-34.387	0.100
569.400	-36.756	0.100
569.500	-45.072	0.100
569.600	-28.670	0.100
569.700	-36.727	0.100
569.800	-33.716	0.100
569.900	-42.417	0.100
570.000	-37.383	0.100
570.100	-45.128	0.100
570.200	-39.110	0.100
570.300	-38.219	0.100
570.400	-33.318	0.100
570.500	-40.149	0.100
570.600	-41.889	0.100
570.700	-33.128	0.100
570.800	-44.375	0.100
570.900	-42.895	0.100
571.000	-46.336	0.100
571.100	-40.217	0.100
571.200	-46.106	0.100
571.300	-40.390	0.100
571.400	-35.997	0.100
571.500	-34.077	0.100
571.600	-35.492	0.100
571.700	-34.349	0.100
571.800	-40.424	0.100
571.900	-37.729	0.100
572.000	-41.812	0.100
572.100	-43.349	0.100
572.200	-42.870	0.100
572.300	-39.924	0.100
572.400	-37.504	0.100
572.500	-45.640	0.100
572.600	-36.060	0.100
572.700	-33.194	0.100
572.800	-41.074	0.100
572.900	-35.649	0.100
573.000	-36.361	0.100
573.100	-33.328	0.100
573.200	-42.521	0.100
573.300	-43.441	0.100
573.400	-43.760	0.100
573.500	-46.202	0.100
573.600	-37.147	0.100
573.700	-45.111	0.100
573.800	-41.352	0.100
573.900	-37.278	0.100
574.000	-41.433	0.100
574.100	-49.873	0.100
574.200	-37.367	0.100
574.300	-38.551	0.100
574.400	-44.436	0.100
574.500	-36.956	0.100
574.600	-35.160	0.100
574.700	-40.672	0.100
574.800	-35.064	0.100
574.900	-36.573	0.100
575.000	-40.600	0.100
575.100	-34.782	0.100
575.200	-49.112	0.100
575.300	-46.114	0.100
575.400	-47.400	0.100
575.500	-39.691	0.100
575.600	-36.525	0.100
575.700	-36.075	0.100
575.800	-50.917	0.100
575.900	-52.441	0.100
576.000	-37.311	0.100
576.100	-40.943	0.100
576.200	-30.478	0.100
576.300	-43.556	0.100
576.400	-39.691	0.100
576.500	-36.860	0.100
576.600	-31.339	0.100
576.700	-46.569	0.100
576.800	-36.324	0.100
576.900	-44.716	0.100
577.000	-45.123	0.100
577.100	-34.709	0.100
577.200	-42.058	0.100
577.300	-44.198	0.100
577.400	-40.993	0.100
577.500	-41.038	0.100
577.600	-33.864	0.100
577.700	-39.643	0.100
577.800	-44.220	0.100
577.900	-40.812	0.100
578.000	-45.360	0.100
578.100	-35.615	0.100
578.200	-45.906	0.100
578.300	-47.714	0.100
578.400	-44.907	0.100
578.500	-37.885	0.100
578.600	-39.719	0.100
578.700	-37.544	0.100
578.800	-44.418	0.100
578.900	-49.678	0.100
579.000	-40.671	0.100
579.100	-42.917	0.100
579.200	-34.975	0.100
579.300	-39.764	0.100
579.400	-32.045	0.100
579.500	-41.003	0.100
579.600	-39.974	0.100
579.700	-40.071	0.100
579.800	-43.627	0.100
579.900	-37.008	0.100
580.000	-34.468	0.100
580.100	-43.267	0.100
580.200	-42.122	0.100
580.300	-40.228	0.100
580.400	-48.537	0.100
580.500	-50.889	0.100
580.600	-45.158	0.100
580.700	-34.704	0.100
580.800	-48.688	0.100
580.900	-37.289	0.100
581.000	-45.784	0.100
581.100	-44.083	0.100
581.200	-47.811	0.100
581.300	-35.547	0.100
581.400	-43.921	0.100
581.500	-41.980	0.100
581.600	-37.506	0.100
581.700	-44.824	0.100
581.800	-43.528	0.100
581.900	-35.149	0.100
582.000	-35.591	0.100
582.100	-36.764	0.100
582.200	-36.941	0.100
582.300	-45.133	0.100
582.400	-38.851	0.100
582.500	-39.089	0.100
582.600	-41.080	0.100
582.700	-37.979	0.100
582.800	-43.257	0.100
582.900	-44.313	0.100
583.000	-47.312	0.100
583.100	-39.212	0.100
583.200	-41.393	0.100
583.300	-43.412	0.100
583.400	-39.821	0.100
583.500	-45.862	0.100
583.600	-42.929	0.100
583.700	-34.465	0.100
583.800	-38.319	0.100
583.900	-37.098	0.100
584.000	-44.694	0.100
584.100	-37.384	0.100
584.200	-33.876	0.100
584.300	-39.980	0.100
584.400	-50.659	0.100
584.500	-43.083	0.100
584.600	-31.832	0.100
584.700	-39.929	0.100
584.800	-37.795	0.100
584.900	-41.715	0.100
585.000	-48.588	0.100
585.100	-38.539	0.100
585.200	-40.808	0.100
585.300	-53.784	0.100
585.400	-44.230	0.100
585.500	-38.270	0.100
585.600	-40.115	0.100
585.700	-41.564	0.100
585.800	-51.568	0.100
585.900	-39.593	0.100
586.000	-42.649	0.100
586.100	-38.899	0.100
586.200	-50.256	0.100
586.300	-39.408	0.100
586.400	-42.487	0.100
586.500	-43.988	0.100
586.600	-46.777	0.100
586.700	-48.339	0.100
586.800	-35.319	0.100
586.900	-36.815	0.100
587.000	-45.772	0.100
587.100	-39.443	0.100
587.200	-35.665	0.100
587.300	-43.621	0.100
587.400	-43.216	0.100
587.500	-36.945	0.100
587.600	-33.764	0.100
587.700	-46.952	0.100
587.800	-43.625	0.100
587.900	-45.705	0.100
588.000	-41.054	0.100
588.100	-40.449	0.100
588.200	-30.363	0.100
588.300	-49.782	0.100
588.400	-46.747	0.100
588.500	-28.914	0.100
588.600	-38.359	0.100
588.700	-43.867	0.100
588.800	-41.338	0.100
588.900	-36.241	0.100
589.000	-36.090	0.100
589.100	-39.103	0.100
589.200	-29.411	0.100
589.300	-40.462	0.100
589.400	-49.236	0.100
589.500	-49.599	0.100
589.600	-38.819	0.100
589.700	-27.990	0.100
589.800	-41.269	0.100
589.900	-40.187	0.100
590.000	-39.186	0.100
590.100	-40.632	0.100
590.200	-31.938	0.100
590.300	-50.994	0.100
590.400	-45.537	0.100
590.500	-53.583	0.100
590.600	-44.391	0.100
590.700	-47.030	0.100
590.800	-45.257	0.100
590.900	-33.926	0.100
591.000	-42.685	0.100
591.100	-37.882	0.100
591.200	-39.738	0.100
591.300	-43.933	0.100
591.400	-42.576	0.100
591.500	-42.619	0.100
591.600	-44.038	0.100
591.700	-32.883	0.100
591.800	-41.661	0.100
591.900	-41.122	0.100
592.000	-38.022	0.100
592.100	-56.752	0.100
592.200	-39.859	0.100
592.300	-46.659	0.100
592.400	-41.807	0.100
592.500	-35.959	0.100
592.600	-43.836	0.100
592.700	-41.402	0.100
592.800	-47.453	0.100
592.900	-40.894	0.100
593.000	-36.169	0.100
593.100	-33.818	0.100
593.200	-41.520	0.100
593.300	-43.771	0.100
593.400	-41.719	0.100
593.500	-49.113	0.100
593.600	-44.710	0.100
593.700	-43.847	0.100
593.800	-35.745	0.100
593.900	-35.987	0.100
594.000	-22.765	0.100
594.100	-33.480	0.100
594.200	-43.866	0.100
594.300	-42.943	0.100
594.400	-37.397	0.100
594.500	-50.632	0.100
594.600	-40.984	0.100
594.700	-43.223	0.100
594.800	-40.014	0.100
594.900	-33.648	0.100
595.000	-42.631	0.100
595.100	-35.196	0.100
595.200	-38.143	0.100
595.300	-31.222	0.100
595.400	-42.001	0.100
595.500	-46.088	0.100
595.600	-54.485	0.100
595.700	-35.229	0.100
595.800	-31.358	0.100
595.900	-46.803	0.100
596.000	-35.213	0.100
596.100	-35.172	0.100
596.200	-43.085	0.100
596.300	-50.282	0.100
596.400	-44.519	0.100
596.500	-38.117	0.100
596.600	-34.834	0.100
596.700	-30.420	0.100
596.800	-45.119	0.100
596.900	-43.206	0.100
597.000	-45.781	0.100
597.100	-42.147	0.100
597.200	-34.033	0.100
597.300	-35.153	0.100
597.400	-35.720	0.100
597.500	-39.280	0.100
597.600	-41.234	0.100
597.700	-46.057	0.100
597.800	-36.638	0.100
597.900	-33.971	0.100
598.000	-41.317	0.100
598.100	-43.970	0.100
598.200	-38.776	0.100
598.300	-39.114	0.100
598.400	-39.115	0.100
598.500	-40.543	0.100
598.600	-39.666	0.100
598.700	-46.758	0.100
598.800	-41.180	0.100
598.900	-37.061	0.100
599.000	-26.643	0.100
599.100	-34.338	0.100
599.200	-39.027	0.100
599.300	-43.166	0.100
599.400	-45.876	0.100
599.500	-40.539	0.100
599.600	-34.563	0.100
599.700	-39.728	0.100
599.800	-47.573	0.100
599.900	-42.638	0.100
600.000	-49.010	0.100
600.100	-37.496	0.100
600.200	-34.782	0.100
600.300	-41.002	0.100
600.400	-44.683	0.100
600.500	-41.842	0.100
600.600	-39.788	0.100
600.700	-28.579	0.100
600.800	-40.269	0.100
600.900	-36.124	0.100
601.000	-41.221	0.100
601.100	-30.375	0.100
601.200	-33.418	0.100
601.300	-30.815	0.100
601.400	-52.539	0.100
601.500	-34.555	0.100
601.600	-37.550	0.100
601.700	-49.211	0.100
601.800	-41.252	0.100
601.900	-40.339	0.100
602.000	-34.876	0.100
602.100	-36.920	0.100
602.200	-43.959	0.100
602.300	-45.225	0.100
602.400	-35.966	0.100
602.500	-37.571	0.100
602.600	-39.320	0.100
602.700	-37.817	0.100
602.800	-36.633	0.100
602.900	-38.201	0.100
603.000	-34.709	0.100
603.100	-41.326	0.100
603.200	-39.332	0.100
603.300	-32.916	0.100
603.400	-36.608	0.100
603.500	-30.488	0.100
603.600	-43.334	0.100
603.700	-44.109	0.100
603.800	-49.716	0.100
603.900	-33.965	0.100
604.000	-36.123	0.100
604.100	-33.653	0.100
604.200	-44.523	0.100
604.300	-35.411	0.100
604.400	-44.447	0.100
604.500	-49.378	0.100
604.600	-36.204	0.100
604.700	-32.067	0.100
604.800	-30.324	0.100
604.900	-47.705	0.100
605.000	-53.189	0.100
605.100	-38.922	0.100
605.200	-34.879	0.100
605.300	-32.998	0.100
605.400	-41.474	0.100
605.500	-45.788	0.100
605.600	-40.889	0.100
605.700	-37.594	0.100
605.800	-51.228	0.100
605.900	-32.197	0.100
606.000	-37.007	0.100
606.100	-35.057	0.100
606.200	-42.747	0.100
606.300	-39.881	0.100
606.400	-39.838	0.100
606.500	-42.241	0.100
606.600	-39.173	0.100
606.700	-38.364	0.100
606.800	-40.799	0.100
606.900	-31.705	0.100
607.000	-39.887	0.100
607.100	-36.032	0.100
607.200	-43.376	0.100
607.300	-40.863	0.100
607.400	-39.468	0.100
607.500	-32.746	0.100
607.600	-31.931	0.100
607.700	-41.501	0.100
607.800	-30.220	0.100
607.900	-40.362	0.100
608.000	-46.091	0.100
608.100	-46.719	0.100
608.200	-29.185	0.100
608.300	-37.753	0.100
608.400	-47.260	0.100
608.500	-35.429	0.100
608.600	-41.844	0.100
608.700	-32.914	0.100
608.800	-39.958	0.100
608.900	-40.323	0.100
609.000	-40.740	0.100
609.100	-39.338	0.100
609.200	-35.259	0.100
609.300	-43.282	0.100
609.400	-42.805	0.100
609.500	-46.579	0.100
609.600	-38.907	0.100
609.700	-48.024	0.100
609.800	-23.129	0.100
609.900	-50.381	0.100
610.000	-32.064	0.100
610.100	-36.225	0.100
610.200	-44.199	0.100
610.300	-37.924	0.100
610.400	-34.792	0.100
610.500	-39.741	0.100
610.600	-42.509	0.100
610.700	-25.591	0.100
610.800	-33.709	0.100
610.900	-44.533	0.100
611.000	-43.416	0.100
611.100	-35.176	0.100
611.200	-32.234	0.100
611.300	-25.135	0.100
611.400	-23.977	0.100
611.500	-29.394	0.100
611.600	-35.615	0.100
611.700	-46.976	0.100
611.800	-43.050	0.100
611.900	-39.919	0.100
612.000	-39.121	0.100
612.100	-37.880	0.100
612.200	-38.158	0.100
612.300	-31.682	0.100
612.400	-36.212	0.100
612.500	-36.555	0.100
612.600	-44.429	0.100
612.700	-34.980	0.100
612.800	-31.997	0.100
612.900	-34.386	0.100
613.000	-33.080	0.100
613.100	-40.118	0.100
613.200	-47.273	0.100
613.300	-33.894	0.100
613.400	-41.183	0.100
613.500	-39.291	0.100
613.600	-39.220	0.100
613.700	-47.781	0.100
613.800	-38.113	0.100
613.900	-38.734	0.100
614.000	-32.428	0.100
614.100	-27.259	0.100
614.200	-34.170	0.100
614.300	-41.495	0.100
614.400	-42.217	0.100
614.500	-41.371	0.100
614.600	-34.538	0.100
614.700	-31.923	0.100
614.800	-51.112	0.100
614.900	-41.286	0.100
615.000	-44.298	0.100
615.100	-39.091	0.100
615.200	-33.887	0.100
615.300	-37.007	0.100
615.400	-43.297	0.100
615.500	-45.562	0.100
615.600	-27.485	0.100
615.700	-35.727	0.100
615.800	-37.403	0.100
615.900	-27.727	0.100
616.000	-44.329	0.100
616.100	-35.373	0.100
616.200	-43.458	0.100
616.300	-42.322	0.100
616.400	-42.755	0.100
616.500	-42.528	0.100
616.600	-40.734	0.100
616.700	-24.682	0.100
616.800	-31.182	0.100
616.900	-37.937	0.100
617.000	-36.237	0.100
617.100	-35.022	0.100
617.200	-32.537	0.100
617.300	-38.493	0.100
617.400	-28.054	0.100
617.500	-37.178	0.100
617.600	-42.601	0.100
617.700	-35.033	0.100
617.800	-39.451	0.100
617.900	-40.941	0.100
618.000	-37.660	0.100
618.100	-35.600	0.100
618.200	-42.562	0.100
618.300	-35.357	0.100
618.400	-35.572	0.100
618.500	-34.573	0.100
618.600	-35.944	0.100
618.700	-37.961	0.100
618.800	-30.761	0.100
618.900	-35.224	0.100
619.000	-37.020	0.100
619.100	-32.265	0.100
619.200	-35.190	0.100
619.300	-50.361	0.100
619.400	-28.241	0.100
619.500	-36.327	0.100
619.600	-39.324	0.100
619.700	-37.206	0.100
619.800	-33.674	0.100
619.900	-36.247	0.100
620.000	-44.095	0.100
620.100	-42.439	0.100
620.200	-36.136	0.100
620.300	-34.468	0.100
620.400	-45.584	0.100
620.500	-36.545	0.100
620.600	-27.611	0.100
620.700	-38.782	0.100
620.800	-36.993	0.100
620.900	-32.201	0.100
621.000	-36.165	0.100
621.100	-37.170	0.100
621.200	-33.975	0.100
621.300	-36.633	0.100
621.400	-28.962	0.100
621.500	-43.349	0.100
621.600	-47.718	0.100
621.700	-28.330	0.100
621.800	-42.254	0.100
621.900	-32.971	0.100
622.000	-38.460	0.100
622.100	-38.244	0.100
622.200	-31.978	0.100
622.300	-38.660	0.100
622.400	-29.295	0.100
622.500	-36.234	0.100
622.600	-40.822	0.100
622.700	-32.623	0.100
622.800	-31.498	0.100
622.900	-38.689	0.100
623.000	-33.499	0.100
623.100	-35.057	0.100
623.200	-32.630	0.100
623.300	-27.055	0.100
623.400	-34.216	0.100
623.500	-27.757	0.100
623.600	-36.251	0.100
623.700	-35.463	0.100
623.800	-35.315	0.100
623.900	-35.088	0.100
624.000	-39.890	0.100
624.100	-34.557	0.100
624.200	-41.010	0.100
624.300	-29.215	0.100
624.400	-25.350	0.100
624.500	-26.981	0.100
624.600	-44.488	0.100
624.700	-42.981	0.100
624.800	-31.829	0.100
624.900	-32.831	0.100
625.000	-34.684	0.100
625.100	-28.994	0.100
625.200	-34.618	0.100
625.300	-33.919	0.100
625.400	-46.046	0.100
625.500	-32.390	0.100
625.600	-37.666	0.100
625.700	-34.234	0.100
625.800	-39.763	0.100
625.900	-38.814	0.100
626.000	-43.995	0.100
626.100	-33.252	0.100
626.200	-40.127	0.100
626.300	-43.770	0.100
626.400	-32.290	0.100
626.500	-35.498	0.100
626.600	-34.361	0.100
626.700	-25.418	0.100
626.800	-37.974	0.100
626.900	-31.165	0.100
627.000	-32.836	0.100
627.100	-31.214	0.100
627.200	-32.883	0.100
627.300	-39.510	0.100
627.400	-38.380	0.100
627.500	-36.274	0.100
627.600	-25.031	0.100
627.700	-31.833	0.100
627.800	-38.096	0.100
627.900	-34.494	0.100
628.000	-23.738	0.100
628.100	-47.816	0.100
628.200	-29.121	0.100
628.300	-21.009	0.100
628.400	-38.922	0.100
628.500	-40.333	0.100
628.600	-34.884	0.100
628.700	-27.034	0.100
628.800	-41.710	0.100
628.900	-29.369	0.100
629.000	-32.865	0.100
629.100	-41.847	0.100
629.200	-31.684	0.100
629.300	-38.513	0.100
629.400	-30.748	0.100
629.500	-36.041	0.100
629.600	-30.640	0.100
629.700	-26.514	0.100
629.800	-47.824	0.100
629.900	-40.596	0.100
630.000	-30.892	0.100
630.100	-35.529	0.100
630.200	-27.171	0.100
630.300	-23.830	0.100
630.400	-32.580	0.100
630.500	-26.784	0.100
630.600	-9.109	0.100
630.700	-11.791	0.100
630.800	-13.986	0.100
630.900	-8.535	0.100
631.000	-11.700	0.100
631.100	-12.481	0.100
631.200	-7.936	0.100
631.300	-6.329	0.100
631.400	-1.163	0.100
631.500	-3.952	0.100
631.600	-10.750	0.100
631.700	-2.242	0.100
631.800	-7.312	0.100
631.900	-7.945	0.100
632.000	-4.321	0.100
632.100	1.629	0.100
632.200	6.648	0.100
632.300	-8.394	0.100
632.400	-9.381	0.100
632.500	12.567	0.100
632.600	-9.325	0.100
632.700	-7.926	0.100
632.800	2.742	0.100
632.900	-6.643	0.100
633.000	0.612	0.100
633.100	-1.901	0.100
633.200	6.477	0.100
633.300	-2.050	0.100
633.400	0.705	0.100
633.500	-17.677	0.100
633.600	-7.402	0.100
633.700	-1.584	0.100
633.800	-5.660	0.100
633.900	-4.462	0.100
634.000	3.049	0.100
634.100	-2.757	0.100
634.200	3.016	0.100
634.300	-2.710	0.100
634.400	-5.400	0.100
634.500	2.533	0.100
634.600	-5.720	0.100
634.700	-3.619	0.100
634.800	5.121	0.100
634.900	-0.958	0.100
635.000	-8.962	0.100
635.100	-5.238	0.100
635.200	6.407	0.100
635.300	-6.328	0.100
635.400	-5.866	0.100
635.500	-1.485	0.100
635.600	-10.306	0.100
635.700	-0.405	0.100
635.800	-17.700	0.100
635.900	-13.793	0.100
636.000	-2.889	0.100
636.100	-0.444	0.100
636.200	-4.685	0.100
636.300	-1.099	0.100
636.400	1.411	0.100
636.500	4.311	0.100
636.600	-11.657	0.100
636.700	-9.504	0.100
636.800	-1.676	0.100
636.900	9.450	0.100
637.000	-0.802	0.100
637.100	-2.110	0.100
637.200	6.463	0.100
637.300	-4.256	0.100
637.400	-5.844	0.100
637.500	4.813	0.100
637.600	-4.498	0.100
637.700	1.468	0.100
637.800	5.952	0.100
637.900	-4.065	0.100
638.000	3.361	0.100
638.100	4.459	0.100
638.200	10.222	0.100
638.300	5.874	0.100
638.400	1.661	0.100
638.500	5.970	0.100
638.600	-3.240	0.100
638.700	8.025	0.100
638.800	5.013	0.100
638.900	-1.065	0.100
639.000	3.857	0.100
639.100	2.642	0.100
639.200	-2.122	0.100
639.300	1.044	0.100
639.400	12.246	0.100
639.500	4.935	0.100
639.600	12.671	0.100
639.700	0.335	0.100
639.800	14.674	0.100
639.900	0.317	0.100
640.000	7.443	0.100
640.100	14.272	0.100
640.200	12.860	0.100
640.300	1.125	0.100
640.400	10.060	0.100
640.500	14.490	0.100
640.600	9.886	0.100
640.700	11.129	0.100
640.800	20.048	0.100
640.900	15.228	0.100
641.000	10.549	0.100
641.100	17.318	0.100
641.200	23.105	0.100
641.300	15.125	0.100
641.400	17.482	0.100
641.500	23.178	0.100
641.600	20.399	0.100
641.700	24.490	0.100
641.800	28.634	0.100
641.900	22.217	0.100
642.000	20.179	0.100
642.100	30.486	0.100
642.200	26.260	0.100
642.300	23.401	0.100
642.400	33.059	0.100
642.500	34.435	0.100
642.600	22.706	0.100
642.700	21.019	0.100
642.800	25.944	0.100
642.900	31.035	0.100
643.000	29.070	0.100
643.100	22.090	0.100
643.200	36.292	0.100
643.300	31.045	0.100
643.400	34.481	0.100
643.500	29.169	0.100
643.600	41.017	0.100
643.700	38.486	0.100
643.800	37.216	0.100
643.900	40.872	0.100
644.000	35.944	0.100
644.100	35.060	0.100
644.200	40.743	0.100
644.300	43.772	0.100
644.400	42.426	0.100
644.500	36.327	0.100
644.600	39.943	0.100
644.700	48.494	0.100
644.800	41.077	0.100
644.900	44.476	0.100
645.000	44.611	0.100
645.100	45.688	0.100
645.200	42.478	0.100
645.300	25.327	0.100
645.400	45.005	0.100
645.500	48.559	0.100
645.600	56.774	0.100
645.700	57.749	0.100
645.800	43.015	0.100
645.900	45.206	0.100
646.000	37.091	0.100
646.100	53.599	0.100
646.200	53.046	0.100
646.300	47.867	0.100
646.400	47.598	0.100
646.500	50.934	0.100
646.600	43.642	0.100
646.700	37.562	0.100
646.800	50.451	0.100
646.900	43.120	0.100
647.000	45.507	0.100
647.100	49.682	0.100
647.200	55.966	0.100
647.300	53.569	0.100
647.400	53.229	0.100
647.500	54.424	0.100
647.600	61.993	0.100
647.700	55.143	0.100
647.800	53.542	0.100
647.900	61.807	0.100
648.000	54.586	0.100
648.100	51.179	0.100
648.200	61.065	0.100
648.300	49.762	0.100
648.400	54.499	0.100
648.500	52.082	0.100
648.600	47.569	0.100
648.700	54.040	0.100
648.800	52.132	0.100
648.900	46.138	0.100
649.000	56.626	0.100
649.100	50.491	0.100
649.200	46.364	0.100
649.300	54.036	0.100
649.400	58.636	0.100
649.500	50.000	0.100
649.600	49.646	0.100
649.700	57.015	0.100
649.800	49.141	0.100
649.900	44.803	0.100
650.000	52.412	0.100
650.100	54.094	0.100
650.200	46.020	0.100
650.300	53.769	0.100
650.400	54.509	0.100
650.500	57.452	0.100
650.600	51.776	0.100
650.700	60.286	0.100
650.800	37.919	0.100
650.900	50.743	0.100
651.000	48.612	0.100
651.100	62.763	0.100
651.200	59.361	0.100
651.300	56.650	0.100
651.400	53.408	0.100
651.500	52.424	0.100
651.600	53.340	0.100
651.700	48.860	0.100
651.800	48.597	0.100
651.900	53.929	0.100
652.000	55.498	0.100
652.100	58.383	0.100
652.200	53.410	0.100
652.300	54.039	0.100
652.400	49.080	0.100
652.500	47.186	0.100
652.600	52.813	0.100
652.700	47.667	0.100
652.800	54.369	0.100
652.900	49.800	0.100
653.000	50.219	0.100
653.100	53.691	0.100
653.200	49.893	0.100
653.300	48.528	0.100
653.400	49.697	0.100
653.500	56.957	0.100
653.600	56.264	0.100
653.700	49.440	0.100
653.800	59.002	0.100
653.900	53.537	0.100
654.000	48.685	0.100
654.100	45.844	0.100
654.200	52.822	0.100
654.300	60.401	0.100
654.400	47.687	0.100
654.500	39.054	0.100
654.600	47.663	0.100
654.700	60.194	0.100
654.800	46.415	0.100
654.900	55.084	0.100
655.000	47.578	0.100
655.100	51.118	0.100
655.200	50.273	0.100
655.300	46.451	0.100
655.400	51.671	0.100
655.500	44.472	0.100
655.600	55.421	0.100
655.700	52.912	0.100
655.800	55.001	0.100
655.900	52.502	0.100
656.000	53.122	0.100
656.100	53.537	0.100
656.200	52.187	0.100
656.300	45.799	0.100
656.400	50.548	0.100
656.500	58.282	0.100
656.600	55.370	0.100
656.700	52.300	0.100
656.800	45.691	0.100
656.900	48.228	0.100
657.000	49.938	0.100
657.100	41.603	0.100
657.200	54.028	0.100
657.300	43.532	0.100
657.400	56.967	0.100
657.500	54.969	0.100
657.600	55.980	0.100
657.700	58.095	0.100
657.800	54.995	0.100
657.900	56.763	0.100
658.000	51.893	0.100
658.100	47.803	0.100
658.200	44.062	0.100
658.300	49.337	0.100
658.400	46.511	0.100
658.500	57.246	0.100
658.600	50.239	0.100
658.700	46.583	0.100
658.800	49.312	0.100
658.900	51.912	0.100
659.000	55.935	0.100
659.100	43.864	0.100
659.200	50.560	0.100
659.300	45.694	0.100
659.400	59.190	0.100
659.500	49.955	0.100
659.600	52.045	0.100
659.700	58.327	0.100
659.800	43.853	0.100
659.900	50.025	0.100
660.000	47.212	0.100
660.100	53.728	0.100
660.200	54.241	0.100
660.300	46.042	0.100
660.400	44.883	0.100
660.500	61.399	0.100
660.600	57.212	0.100
660.700	43.294	0.100
660.800	54.827	0.100
660.900	58.439	0.100
661.000	42.697	0.100
661.100	47.535	0.100
661.200	54.086	0.100
661.300	49.445	0.100
661.400	54.662	0.100
661.500	50.838	0.100
661.600	47.916	0.100
661.700	58.779	0.100
661.800	49.152	0.100
661.900	49.860	0.100
662.000	50.877	0.100
662.100	50.589	0.100
662.200	60.327	0.100
662.300	54.078	0.100
662.400	49.155	0.100
662.500	45.975	0.100
662.600	43.846	0.100
662.700	44.227	0.100
662.800	54.742	0.100
662.900	58.008	0.100
663.000	53.875	0.100
663.100	47.091	0.100
663.200	41.147	0.100
663.300	47.176	0.100
663.400	34.121	0.100
663.500	38.640	0.100
663.600	56.529	0.100
663.700	53.127	0.100
663.800	50.906	0.100
663.900	49.365	0.100
664.000	51.044	0.100
664.100	45.534	0.100
664.200	43.321	0.100
664.300	47.141	0.100
664.400	39.061	0.100
664.500	48.946	0.100
664.600	50.239	0.100
664.700	55.738	0.100
664.800	54.025	0.100
664.900	50.505	0.100
665.000	53.007	0.100
665.100	51.930	0.100
665.200	46.195	0.100
665.300	40.229	0.100
665.400	50.102	0.100
665.500	37.805	0.100
665.600	41.110	0.100
665.700	58.209	0.100
665.800	51.048	0.100
665.900	52.755	0.100
666.000	55.144	0.100
666.100	58.816	0.100
666.200	47.969	0.100
666.300	45.944	0.100
666.400	54.073	0.100
666.500	40.274	0.100
666.600	41.940	0.100
666.700	54.312	0.100
666.800	56.594	0.100
666.900	56.106	0.100
667.000	39.858	0.100
667.100	46.107	0.100
667.200	54.683	0.100
667.300	53.901	0.100
667.400	56.553	0.100
667.500	36.442	0.100
667.600	54.941	0.100
667.700	49.472	0.100
667.800	55.996	0.100
667.900	50.571	0.100
668.000	38.879	0.100
668.100	52.126	0.100
668.200	50.947	0.100
668.300	46.555	0.100
668.400	52.878	0.100
668.500	50.323	0.100
668.600	48.254	0.100
668.700	48.968	0.100
668.800	48.549	0.100
668.900	46.507	0.100
669.000	40.427	0.100
669.100	44.207	0.100
669.200	47.553	0.100
669.300	51.681	0.100
669.400	51.794	0.100
669.500	51.442	0.100
669.600	48.103	0.100
669.700	56.263	0.100
669.800	50.419	0.100
669.900	49.661	0.100
670.000	44.311	0.100
670.100	47.250	0.100
670.200	48.372	0.100
670.300	58.396	0.100
670.400	47.098	0.100
670.500	49.142	0.100
670.600	44.417	0.100
670.700	44.471	0.100
670.800	44.566	0.100
670.900	52.661	0.100
671.000	50.274	0.100
671.100	51.686	0.100
671.200	51.137	0.100
671.300	53.842	0.100
671.400	44.562	0.100
671.500	44.590	0.100
671.600	46.123	0.100
671.700	55.214	0.100
671.800	38.201	0.100
671.900	53.887	0.100
672.000	48.705	0.100
672.100	51.550	0.100
672.200	47.045	0.100
672.300	50.649	0.100
672.400	61.633	0.100
672.500	52.338	0.100
672.600	45.896	0.100
672.700	52.292	0.100
672.800	44.573	0.100
672.900	51.853	0.100
673.000	48.197	0.100
673.100	52.486	0.100
673.200	46.347	0.100
673.300	51.428	0.100
673.400	49.278	0.100
673.500	46.541	0.100
673.600	47.738	0.100
673.700	52.609	0.100
673.800	50.730	0.100
673.900	48.314	0.100
674.000	45.279	0.100
674.100	51.002	0.100
674.200	50.576	0.100
674.300	43.678	0.100
674.400	50.145	0.100
674.500	41.407	0.100
674.600	46.349	0.100
674.700	49.840	0.100
674.800	48.255	0.100
674.900	54.583	0.100
675.000	46.282	0.100
675.100	45.558	0.100
675.200	40.952	0.100
675.300	44.651	0.100
675.400	52.954	0.100
675.500	45.624	0.100
675.600	39.810	0.100
675.700	43.728	0.100
675.800	49.168	0.100
675.900	46.330	0.100
676.000	50.806	0.100
676.100	41.578	0.100
676.200	46.604	0.100
676.300	48.952	0.100
676.400	54.004	0.100
676.500	47.514	0.100
676.600	44.473	0.100
676.700	44.153	0.100
676.800	45.375	0.100
676.900	59.055	0.100
677.000	62.254	0.100
677.100	44.208	0.100
677.200	46.176	0.100
677.300	50.928	0.100
677.400	40.785	0.100
677.500	49.593	0.100
677.600	46.349	0.100
677.700	46.388	0.100
677.800	43.463	0.100
677.900	43.144	0.100
678.000	42.543	0.100
678.100	54.515	0.100
678.200	46.181	0.100
678.300	54.696	0.100
678.400	49.106	0.100
678.500	44.979	0.100
678.600	33.127	0.100
678.700	34.662	0.100
678.800	53.657	0.100
678.900	60.558	0.100
679.000	44.908	0.100
679.100	47.000	0.100
679.200	52.413	0.100
679.300	54.174	0.100
679.400	53.706	0.100
679.500	42.982	0.100
679.600	45.384	0.100
679.700	57.018	0.100
679.800	44.059	0.100
679.900	48.125	0.100
680.000	52.321	0.100
680.100	41.655	0.100
680.200	48.701	0.100
680.300	48.382	0.100
680.400	59.023	0.100
680.500	59.289	0.100
680.600	49.017	0.100
680.700	46.335	0.100
680.800	44.912	0.100
680.900	45.228	0.100
681.000	50.554	0.100
681.100	46.121	0.100
681.200	46.022	0.100
681.300	43.557	0.100
681.400	45.760	0.100
681.500	44.856	0.100
681.600	52.296	0.100
681.700	55.967	0.100
681.800	47.558	0.100
681.900	44.491	0.100
682.000	37.341	0.100
682.100	45.246	0.100
682.200	53.114	0.100
682.300	50.923	0.100
682.400	42.665	0.100
682.500	46.621	0.100
682.600	46.279	0.100
682.700	45.527	0.100
682.800	56.006	0.100
682.900	53.073	0.100
683.000	51.455	0.100
683.100	47.290	0.100
683.200	52.121	0.100
683.300	44.613	0.100
683.400	35.553	0.100
683.500	52.177	0.100
683.600	53.615	0.100
683.700	44.053	0.100
683.800	46.651	0.100
683.900	43.390	0.100
684.000	50.774	0.100
684.100	47.440	0.100
684.200	56.838	0.100
684.300	45.374	0.100
684.400	44.635	0.100
684.500	51.475	0.100
684.600	38.942	0.100
684.700	47.914	0.100
684.800	44.791	0.100
684.900	52.529	0.100
685.000	52.688	0.100
685.100	43.697	0.100
685.200	52.190	0.100
685.300	56.556	0.100
685.400	49.412	0.100
685.500	44.183	0.100
685.600	37.457	0.100
685.700	37.808	0.100
685.800	45.685	0.100
685.900	52.306	0.100
686.000	48.720	0.100
686.100	44.879	0.100
686.200	39.930	0.100
686.300	55.499	0.100
686.400	53.377	0.100
686.500	51.643	0.100
686.600	40.598	0.100
686.700	51.270	0.100
686.800	52.430	0.100
686.900	61.368	0.100
687.000	51.149	0.100
687.100	40.555	0.100
687.200	47.984	0.100
687.300	46.880	0.100
687.400	49.008	0.100
687.500	52.177	0.100
687.600	42.449	0.100
687.700	59.266	0.100
687.800	49.870	0.100
687.900	46.902	0.100
688.000	52.428	0.100
688.100	43.997	0.100
688.200	44.144	0.100
688.300	42.492	0.100
688.400	53.109	0.100
688.500	49.814	0.100
688.600	54.045	0.100
688.700	44.739	0.100
688.800	39.988	0.100
688.900	49.398	0.100
689.000	39.588	0.100
689.100	50.676	0.100
689.200	40.918	0.100
689.300	43.174	0.100
689.400	42.531	0.100
689.500	45.874	0.100
689.600	52.754	0.100
689.700	41.795	0.100
689.800	37.472	0.100
689.900	39.435	0.100
690.000	51.017	0.100
690.100	45.409	0.100
690.200	46.374	0.100
690.300	30.000	0.100
690.400	27.614	0.100
690.500	32.737	0.100
690.600	32.341	0.100
690.700	26.130	0.100
690.800	20.655	0.100
690.900	23.445	0.100
691.000	19.266	0.100
691.100	22.429	0.100
691.200	16.025	0.100
691.300	5.198	0.100
691.400	14.913	0.100
691.500	8.522	0.100
691.600	8.019	0.100
691.700	10.449	0.100
691.800	1.998	0.100
691.900	-7.768	0.100
692.000	2.662	0.100
692.100	-0.490	0.100
692.200	-3.664	0.100
692.300	-12.665	0.100
692.400	-7.436	0.100
692.500	-4.230	0.100
692.600	-19.616	0.100
692.700	-8.288	0.100
692.800	2.786	0.100
692.900	-5.172	0.100
693.000	-9.883	0.100
693.100	-16.582	0.100
693.200	-13.330	0.100
693.300	-4.817	0.100
693.400	-14.916	0.100
693.500	-13.493	0.100
693.600	-8.499	0.100
693.700	-8.173	0.100
693.800	-13.131	0.100
693.900	-19.223	0.100
694.000	-18.866	0.100
694.100	-16.514	0.100
694.200	-18.017	0.100
694.300	-17.943	0.100
694.400	-28.864	0.100
694.500	-6.036	0.100
694.600	-13.265	0.100
694.700	-12.556	0.100
694.800	-24.504	0.100
694.900	-18.058	0.100
695.000	-21.878	0.100
695.100	-22.073	0.100
695.200	-20.526	0.100
695.300	-16.616	0.100
695.400	-20.750	0.100
695.500	-26.946	0.100
695.600	-19.058	0.100
695.700	-9.938	0.100
695.800	-16.573	0.100
695.900	-12.628	0.100
696.000	-23.551	0.100
696.100	-27.450	0.100
696.200	-22.646	0.100
696.300	-21.616	0.100
696.400	-27.130	0.100
696.500	-17.273	0.100
696.600	-18.105	0.100
696.700	-22.365	0.100
696.800	-16.287	0.100
696.900	-16.817	0.100
697.000	-20.615	0.100
697.100	-16.264	0.100
697.200	-16.365	0.100
697.300	-26.973	0.100
697.400	-11.222	0.100
697.500	-21.432	0.100
697.600	-27.348	0.100
697.700	-22.825	0.100
697.800	-22.053	0.100
697.900	-20.635	0.100
698.000	-10.141	0.100
698.100	-20.304	0.100
698.200	-15.751	0.100
698.300	-26.347	0.100
698.400	-18.422	0.100
698.500	-18.665	0.100
698.600	-29.943	0.100
698.700	-22.231	0.100
698.800	-15.044	0.100
698.900	-8.669	0.100
699.000	-17.876	0.100
699.100	-31.964	0.100
699.200	-23.292	0.100
699.300	-25.075	0.100
699.400	-13.994	0.100
699.500	-16.619	0.100
699.600	-11.915	0.100
699.700	-17.843	0.100
699.800	-14.411	0.100
699.900	-23.466	0.100
700.000	-19.815	0.100
700.100	-16.514	0.100
700.200	-23.501	0.100
700.300	-22.707	0.100
700.400	-17.305	0.100
700.500	-22.114	0.100
700.600	-14.867	0.100
700.700	-15.497	0.100
700.800	-26.917	0.100
700.900	-31.549	0.100
701.000	-29.789	0.100
701.100	-23.509	0.100
701.200	-30.038	0.100
701.300	-16.506	0.100
701.400	-27.032	0.100
701.500	-19.697	0.100
701.600	-16.306	0.100
701.700	-19.076	0.100
701.800	-24.860	0.100
701.900	-33.935	0.100
702.000	-22.918	0.100
702.100	-26.972	0.100
702.200	-25.086	0.100
702.300	-21.255	0.100
702.400	-17.500	0.100
702.500	-28.880	0.100
702.600	-27.330	0.100
702.700	-12.737	0.100
702.800	-23.976	0.100
702.900	-30.659	0.100
703.000	-17.469	0.100
703.100	-18.165	0.100
703.200	-25.881	0.100
703.300	-26.681	0.100
703.400	-14.558	0.100
703.500	-37.141	0.100
703.600	-27.563	0.100
703.700	-20.268	0.100
703.800	-22.951	0.100
703.900	-27.418	0.100
704.000	-17.932	0.100
704.100	-18.363	0.100
704.200	-20.604	0.100
704.300	-34.056	0.100
704.400	-22.455	0.100
704.500	-26.648	0.100
704.600	-20.016	0.100
704.700	-21.648	0.100
704.800	-22.744	0.100
704.900	-25.755	0.100
705.000	-17.795	0.100
705.100	-28.531	0.100
705.200	-19.308	0.100
705.300	-28.017	0.100
705.400	-26.500	0.100
705.500	-30.527	0.100
705.600	-23.002	0.100
705.700	-33.483	0.100
705.800	-21.971	0.100
705.900	-31.093	0.100
706.000	-24.981	0.100
706.100	-23.884	0.100
706.200	-29.190	0.100
706.300	-29.797	0.100
706.400	-39.237	0.100
706.500	-17.849	0.100
706.600	-19.740	0.100
706.700	-26.603	0.100
706.800	-24.185	0.100
706.900	-24.656	0.100
707.000	-33.844	0.100
707.100	-28.813	0.100
707.200	-26.726	0.100
707.300	-28.097	0.100
707.400	-28.068	0.100
707.500	-25.515	0.100
707.600	-33.107	0.100
707.700	-25.464	0.100
707.800	-18.318	0.100
707.900	-26.360	0.100
708.000	-25.290	0.100
708.100	-39.262	0.100
708.200	-37.159	0.100
708.300	-26.331	0.100
708.400	-28.304	0.100
708.500	-35.873	0.100
708.600	-26.551	0.100
708.700	-23.955	0.100
708.800	-26.306	0.100
708.900	-24.480	0.100
709.000	-33.017	0.100
709.100	-41.211	0.100
709.200	-30.255	0.100
709.300	-29.947	0.100
709.400	-36.472	0.100
709.500	-29.605	0.100
709.600	-32.410	0.100
709.700	-34.885	0.100
709.800	-33.036	0.100
709.900	-28.473	0.100
710.000	-23.463	0.100
710.100	-23.622	0.100
710.200	-34.285	0.100
710.300	-36.954	0.100
710.400	-35.327	0.100
710.500	-22.700	0.100
710.600	-24.223	0.100
710.700	-25.899	0.100
710.800	-32.435	0.100
710.900	-26.315	0.100
711.000	-31.192	0.100
711.100	-33.181	0.100
711.200	-30.935	0.100
711.300	-30.755	0.100
711.400	-35.752	0.100
711.500	-31.972	0.100
711.600	-39.996	0.100
711.700	-25.136	0.100
711.800	-19.492	0.100
711.900	-34.975	0.100
712.000	-37.002	0.100
712.100	-34.028	0.100
712.200	-37.905	0.100
712.300	-21.602	0.100
712.400	-27.184	0.100
712.500	-28.466	0.100
712.600	-26.666	0.100
712.700	-38.140	0.100
712.800	-35.775	0.100
712.900	-28.739	0.100
713.000	-29.683	0.100
713.100	-39.285	0.100
713.200	-34.986	0.100
713.300	-39.815	0.100
713.400	-25.114	0.100
713.500	-33.102	0.100
713.600	-33.420	0.100
713.700	-27.082	0.100
713.800	-43.982	0.100
713.900	-40.983	0.100
714.000	-29.450	0.100
714.100	-38.402	0.100
714.200	-33.643	0.100
714.300	-27.375	0.100
714.400	-32.770	0.100
714.500	-33.986	0.100
714.600	-29.654	0.100
714.700	-39.249	0.100
714.800	-48.766	0.100
714.900	-35.027	0.100
715.000	-42.551	0.100
715.100	-29.620	0.100
715.200	-37.379	0.100
715.300	-42.214	0.100
715.400	-22.616	0.100
715.500	-44.508	0.100
715.600	-32.544	0.100
715.700	-42.931	0.100
715.800	-33.877	0.100
715.900	-28.900	0.100
716.000	-32.820	0.100
716.100	-41.380	0.100
716.200	-30.806	0.100
716.300	-43.960	0.100
716.400	-35.487	0.100
716.500	-49.700	0.100
716.600	-38.433	0.100
716.700	-29.637	0.100
716.800	-37.917	0.100
716.900	-39.957	0.100
717.000	-24.127	0.100
717.100	-35.309	0.100
717.200	-27.495	0.100
717.300	-46.648	0.100
717.400	-44.100	0.100
717.500	-38.884	0.100
717.600	-40.926	0.100
717.700	-42.730	0.100
717.800	-39.301	0.100
717.900	-35.968	0.100
718.000	-38.823	0.100
718.100	-41.406	0.100
718.200	-42.858	0.100
718.300	-41.830	0.100
718.400	-37.187	0.100
718.500	-32.602	0.100
718.600	-30.776	0.100
718.700	-24.852	0.100
718.800	-31.558	0.100
718.900	-49.885	0.100
719.000	-37.455	0.100
719.100	-36.734	0.100
719.200	-34.355	0.100
719.300	-37.426	0.100
719.400	-42.121	0.100
719.500	-38.920	0.100
719.600	-40.947	0.100
719.700	-38.025	0.100
719.800	-40.310	0.100
719.900	-40.883	0.100
720.000	-38.568	0.100
720.100	-41.010	0.100
720.200	-40.985	0.100
720.300	-44.990	0.100
720.400	-43.279	0.100
720.500	-38.959	0.100
720.600	-34.715	0.100
720.700	-39.562	0.100
720.800	-38.840	0.100
720.900	-39.718	0.100
721.000	-50.384	0.100
721.100	-35.803	0.100
721.200	-34.554	0.100
721.300	-52.009	0.100
721.400	-40.786	0.100
721.500	-46.582	0.100
721.600	-31.501	0.100
721.700	-33.421	0.100
721.800	-48.629	0.100
721.900	-43.936	0.100
722.000	-41.043	0.100
722.100	-39.123	0.100
722.200	-40.493	0.100
722.300	-34.702	0.100
722.400	-47.241	0.100
722.500	-33.162	0.100
722.600	-35.254	0.100
722.700	-37.317	0.100
722.800	-42.425	0.100
722.900	-54.114	0.100
723.000	-44.187	0.100
723.100	-52.884	0.100
723.200	-44.319	0.100
723.300	-32.207	0.100
723.400	-37.708	0.100
723.500	-47.758	0.100
723.600	-42.381	0.100
723.700	-45.451	0.100
723.800	-36.550	0.100
723.900	-43.419	0.100
724.000	-36.213	0.100
724.100	-40.823	0.100
724.200	-45.197	0.100
724.300	-31.722	0.100
724.400	-42.733	0.100
724.500	-46.379	0.100
724.600	-36.802	0.100
724.700	-40.193	0.100
724.800	-36.984	0.100
724.900	-44.710	0.100
725.000	-40.289	0.100
725.100	-41.119	0.100
725.200	-39.741	0.100
725.300	-43.059	0.100
725.400	-38.418	0.100
725.500	-46.096	0.100
725.600	-34.687	0.100
725.700	-50.893	0.100
725.800	-45.558	0.100
725.900	-34.937	0.100
726.000	-43.663	0.100
726.100	-36.777	0.100
726.200	-37.508	0.100
726.300	-32.530	0.100
726.400	-48.810	0.100
726.500	-52.269	0.100
726.600	-45.133	0.100
726.700	-49.786	0.100
726.800	-44.457	0.100
726.900	-48.649	0.100
727.000	-39.339	0.100
727.100	-38.802	0.100
727.200	-45.413	0.100
727.300	-42.174	0.100
727.400	-37.420	0.100
727.500	-45.288	0.100
727.600	-35.991	0.100
727.700	-45.984	0.100
727.800	-38.525	0.100
727.900	-60.953	0.100
728.000	-49.463	0.100
728.100	-45.922	0.100
728.200	-40.557	0.100
728.300	-38.198	0.100
728.400	-43.119	0.100
728.500	-41.945	0.100
728.600	-38.879	0.100
728.700	-42.636	0.100
728.800	-46.429	0.100
728.900	-42.876	0.100
729.000	-43.791	0.100
729.100	-45.724	0.100
729.200	-41.398	0.100
729.300	-49.613	0.100
729.400	-39.663	0.100
729.500	-51.142	0.100
729.600	-44.779	0.100
729.700	-46.663	0.100
729.800	-46.812	0.100
729.900	-48.742	0.100
730.000	-49.839	0.100
730.100	-51.908	0.100
730.200	-35.482	0.100
730.300	-33.554	0.100
730.400	-42.886	0.100
730.500	-49.693	0.100
730.600	-44.014	0.100
730.700	-49.075	0.100
730.800	-38.064	0.100
730.900	-41.987	0.100
731.000	-29.671	0.100
731.100	-44.683	0.100
731.200	-46.928	0.100
731.300	-50.661	0.100
731.400	-47.658	0.100
731.500	-43.271	0.100
731.600	-44.394	0.100
731.700	-39.008	0.100
731.800	-41.137	0.100
731.900	-43.574	0.100
732.000	-47.001	0.100
732.100	-45.328	0.100
732.200	-33.447	0.100
732.300	-46.012	0.100
732.400	-44.383	0.100
732.500	-48.085	0.100
732.600	-40.729	0.100
732.700	-33.353	0.100
732.800	-49.229	0.100
732.900	-41.476	0.100
733.000	-47.454	0.100
733.100	-38.878	0.100
733.200	-40.093	0.100
733.300	-47.634	0.100
733.400	-40.666	0.100
733.500	-46.554	0.100
733.600	-52.641	0.100
733.700	-46.555	0.100
733.800	-38.667	0.100
733.900	-42.226	0.100
734.000	-52.102	0.100
734.100	-44.591	0.100
734.200	-43.895	0.100
734.300	-37.836	0.100
734.400	-46.533	0.100
734.500	-48.835	0.100
734.600	-32.938	0.100
734.700	-38.152	0.100
734.800	-39.338	0.100
734.900	-42.534	0.100
735.000	-50.688	0.100
735.100	-43.511	0.100
735.200	-46.587	0.100
735.300	-33.997	0.100
735.400	-39.094	0.100
735.500	-38.959	0.100
735.600	-44.734	0.100
735.700	-47.779	0.100
735.800	-45.806	0.100
735.900	-44.365	0.100
736.000	-45.451	0.100
736.100	-48.753	0.100
736.200	-54.011	0.100
736.300	-53.010	0.100
736.400	-47.687	0.100
736.500	-29.368	0.100
736.600	-33.579	0.100
736.700	-42.950	0.100
736.800	-41.695	0.100
736.900	-40.229	0.100
737.000	-41.474	0.100
737.100	-47.113	0.100
737.200	-37.529	0.100
737.300	-40.450	0.100
737.400	-43.940	0.100
737.500	-42.653	0.100
737.600	-40.916	0.100
737.700	-52.281	0.100
737.800	-52.676	0.101
737.900	-46.159	0.100
738.000	-44.982	0.100
738.100	-40.814	0.100
738.200	-43.698	0.100
738.300	-45.314	0.100
738.400	-43.995	0.100
738.500	-36.195	0.100
738.600	-44.586	0.100
738.700	-36.012	0.100
738.800	-34.484	0.100
738.900	-46.341	0.100
739.000	-42.034	0.100
739.100	-43.956	0.100
739.200	-49.702	0.100
739.300	-41.700	0.100
739.400	-34.539	0.100
739.500	-52.867	0.100
739.600	-51.437	0.100
739.700	-54.352	0.100
739.800	-41.718	0.100
739.900	-31.206	0.100
740.000	-38.200	0.100
740.100	-31.384	0.100
740.200	-26.128	0.100
740.300	-36.033	0.100
740.400	-40.538	0.100
740.500	-36.888	0.100
740.600	-35.605	0.100
740.700	-42.994	0.100
740.800	-39.451	0.100
740.900	-43.600	0.101
741.000	-38.275	0.100
741.100	-38.017	0.100
741.200	-36.645	0.101
741.300	-39.070	0.100
741.400	-44.694	0.100
741.500	-54.579	0.101
741.600	-36.408	0.100
741.700	-39.263	0.101
741.800	-41.326	0.100
741.900	-46.774	0.100
742.000	-33.851	0.100
742.100	-47.562	0.100
742.200	-51.221	0.100
742.300	-48.462	0.101
742.400	-46.275	0.100
742.500	-32.797	0.100
742.600	-36.037	0.100
742.700	-52.161	0.100
742.800	-37.210	0.100
742.900	-44.012	0.100
743.000	-48.657	0.100
743.100	-40.417	0.101
743.200	-40.044	0.100
743.300	-46.054	0.100
743.400	-44.945	0.100
743.500	-36.296	0.100
743.600	-39.852	0.100
743.700	-43.105	0.100
743.800	-38.313	0.101
743.900	-37.594	0.101
744.000	-29.616	0.100
744.100	-48.433	0.100
744.200	-36.520	0.100
744.300	-45.840	0.100
744.400	-40.365	0.101
744.500	-40.187	0.101
744.600	-45.093	0.100
744.700	-45.155	0.101
744.800	-55.373	0.101
744.900	-39.669	0.101
745.000	-38.476	0.101
745.100	-55.284	0.101
745.200	-48.114	0.100
745.300	-40.103	0.100
745.400	-34.860	0.101
745.500	-39.529	0.100
745.600	-43.613	0.101
745.700	-41.842	0.100
745.800	-40.773	0.100
745.900	-37.002	0.100
746.000	-38.283	0.101
746.100	-43.193	0.100
746.200	-29.968	0.101
746.300	-36.030	0.101
746.400	-39.079	0.101
746.500	-44.420	0.101
746.600	-42.997	0.101
746.700	-45.175	0.101
746.800	-42.616	0.101
746.900	-40.305	0.101
747.000	-37.763	0.101
747.100	-43.386	0.101
747.200	-48.219	0.101
747.300	-48.161	0.101
747.400	-30.204	0.101
747.500	-38.556	0.101
747.600	-34.411	0.101
747.700	-45.848	0.101
747.800	-40.634	0.101
747.900	-56.871	0.101
748.000	-53.237	0.101
748.100	-39.183	0.101
748.200	-33.263	0.101
748.300	-36.469	0.101
748.400	-43.190	0.101
748.500	-32.198	0.101
748.600	-49.181	0.101
748.700	-39.977	0.101
748.800	-26.241	0.101
748.900	-42.676	0.101
749.000	-42.907	0.101
749.100	-41.599	0.101
749.200	-35.129	0.101
749.300	-34.548	0.101
749.400	-43.556	0.101
749.500	-31.464	0.101
749.600	-36.304	0.101
749.700	-44.231	0.101
749.800	-53.033	0.101
749.900	-44.654	0.101
750.000	-40.640	0.101
750.100	-36.222	0.101
750.200	-32.309	0.101
750.300	-19.743	0.101
750.400	-32.632	0.101
750.500	-39.039	0.101
750.600	-40.026	0.101
750.700	-38.629	0.101
750.800	-44.706	0.101
750.900	-43.835	0.101
751.000	-47.307	0.101
751.100	-42.220	0.101
751.200	-39.141	0.101
751.300	-39.465	0.101
751.400	-34.321	0.101
751.500	-44.064	0.101
751.600	-51.696	0.101
751.700	-36.496	0.101
751.800	-35.467	0.101
751.900	-36.884	0.101
752.000	-38.176	0.101
752.100	-41.550	0.101
752.200	-41.921	0.101
752.300	-40.299	0.101
752.400	-40.462	0.101
752.500	-38.137	0.101
752.600	-39.430	0.101
752.700	-45.318	0.101
752.800	-40.192	0.101
752.900	-35.528	0.101
753.000	-47.412	0.101
753.100	-38.321	0.101
753.200	-35.486	0.101
753.300	-35.885	0.101
753.400	-46.516	0.101
753.500	-50.767	0.101
753.600	-39.028	0.101
753.700	-38.520	0.101
753.800	-34.349	0.101
753.900	-33.112	0.101
754.000	-37.746	0.101
754.100	-35.949	0.101
754.200	-41.869	0.101
754.300	-37.212	0.101
754.400	-44.619	0.101
754.500	-49.412	0.101
754.600	-37.257	0.101
754.700	-39.842	0.101
754.800	-50.810	0.101
754.900	-45.878	0.101
755.000	-29.434	0.101
755.100	-36.210	0.101
755.200	-42.053	0.101
755.300	-36.167	0.101
755.400	-38.639	0.101
755.500	-41.140	0.101
755.600	-37.433	0.101
755.700	-47.514	0.101
755.800	-42.623	0.101
755.900	-46.303	0.101
756.000	-27.227	0.101
756.100	-41.164	0.101
756.200	-29.160	0.101
756.300	-39.442	0.101
756.400	-33.696	0.101
756.500	-42.692	0.101
756.600	-47.775	0.101
756.700	-40.992	0.101
756.800	-38.442	0.101
756.900	-43.061	0.101
757.000	-42.073	0.101
757.100	-35.849	0.101
757.200	-42.718	0.101
757.300	-50.931	0.101
757.400	-49.542	0.101
757.500	-42.127	0.101
757.600	-38.971	0.101
757.700	-29.543	0.101
757.800	-31.764	0.101
757.900	-40.746	0.101
758.000	-43.126	0.101
758.100	-38.226	0.101
758.200	-41.237	0.101
758.300	-37.205	0.101
758.400	-41.594	0.101
758.500	-47.981	0.101
758.600	-38.992	0.101
758.700	-36.844	0.101
758.800	-38.059	0.101
758.900	-28.445	0.101
759.000	-33.033	0.101
759.100	-42.949	0.101
759.200	-33.189	0.101
759.300	-33.186	0.101
759.400	-40.121	0.101
759.500	-40.016	0.101
759.600	-44.084	0.101
759.700	-40.753	0.101
759.800	-39.533	0.101
759.900	-31.349	0.101
760.000	-39.599	0.101
760.100	-41.109	0.101
760.200	-41.572	0.101
760.300	-37.424	0.101
760.400	-48.760	0.101
760.500	-41.871	0.101
760.600	-37.482	0.101
760.700	-41.471	0.101
760.800	-34.526	0.101
760.900	-43.165	0.101
761.000	-50.754	0.101
761.100	-43.032	0.101
761.200	-32.522	0.101
761.300	-40.199	0.101
761.400	-34.225	0.101
761.500	-40.789	0.101
761.600	-43.762	0.101
761.700	-42.097	0.101
761.800	-36.895	0.101
761.900	-36.539	0.101
762.000	-44.864	0.101
762.100	-42.482	0.101
762.200	-43.646	0.101
762.300	-37.329	0.101
762.400	-34.244	0.101
762.500	-33.225	0.101
762.600	-37.751	0.101
762.700	-38.029	0.101
762.800	-45.286	0.101
762.900	-36.247	0.101
763.000	-35.787	0.101
763.100	-38.812	0.101
763.200	-37.196	0.101
763.300	-38.438	0.101
763.400	-40.621	0.101
763.500	-38.506	0.101
763.600	-42.865	0.101
763.700	-40.786	0.101
763.800	-43.160	0.101
763.900	-30.769	0.101
764.000	-41.254	0.101
764.100	-38.492	0.101
764.200	-35.328	0.101
764.300	-47.496	0.101
764.400	-37.267	0.101
764.500	-41.334	0.101
764.600	-48.488	0.101
764.700	-41.165	0.101
764.800	-43.611	0.101
764.900	-37.205	0.101
765.000	-40.524	0.101
765.100	-37.749	0.101
765.200	-42.514	0.101
765.300	-30.145	0.101
765.400	-40.355	0.101
765.500	-40.049	0.101
765.600	-41.713	0.101
765.700	-41.961	0.101
765.800	-48.134	0.101
765.900	-40.341	0.101
766.000	-37.512	0.101
766.100	-24.765	0.101
766.200	-31.756	0.101
766.300	-30.963	0.101
766.400	-40.515	0.101
766.500	-45.848	0.101
766.600	-39.750	0.101
766.700	-35.665	0.101
766.800	-42.648	0.101
766.900	-40.053	0.101
767.000	-41.027	0.101
767.100	-40.968	0.101
767.200	-38.886	0.101
767.300	-48.124	0.101
767.400	-35.182	0.101
767.500	-34.844	0.101
767.600	-44.243	0.101
767.700	-39.773	0.101
767.800	-38.263	0.101
767.900	-39.618	0.101
768.000	-42.232	0.101
768.100	-34.987	0.101
768.200	-48.147	0.101
768.300	-34.425	0.101
768.400	-45.199	0.101
768.500	-29.428	0.101
768.600	-32.819	0.101
768.700	-35.313	0.101
768.800	-43.799	0.101
768.900	-33.732	0.101
769.000	-44.559	0.101
769.100	-36.363	0.101
769.200	-31.213	0.101
769.300	-41.557	0.101
769.400	-32.100	0.101
769.500	-34.318	0.101
769.600	-45.817	0.101
769.700	-39.743	0.101
769.800	-43.922	0.101
769.900	-35.386	0.101
770.000	-45.588	0.101
770.100	-47.201	0.101
770.200	-35.838	0.101
770.300	-28.370	0.101
770.400	-36.536	0.101
770.500	-40.084	0.101
770.600	-47.891	0.101
770.700	-31.823	0.101
770.800	-36.361	0.101
770.900	-41.519	0.101
771.000	-36.415	0.101
771.100	-30.136	0.101
771.200	-31.037	0.101
771.300	-39.938	0.101
771.400	-32.685	0.101
771.500	-39.487	0.101
771.600	-42.268	0.101
771.700	-44.692	0.101
771.800	-45.282	0.101
771.900	-42.577	0.101
772.000	-32.500	0.101
772.100	-31.332	0.101
772.200	-43.008	0.101
772.300	-31.991	0.101
772.400	-36.343	0.101
772.500	-38.118	0.101
772.600	-26.428	0.101
772.700	-37.521	0.101
772.800	-29.862	0.101
772.900	-37.661	0.101
773.000	-36.660	0.101
773.100	-29.178	0.101
773.200	-46.322	0.101
773.300	-40.344	0.101
773.400	-28.126	0.101
773.500	-33.052	0.101
773.600	-30.933	0.101
773.700	-35.842	0.101
773.800	-45.309	0.101
773.900	-31.425	0.101
774.000	-34.669	0.101
774.100	-44.277	0.101
774.200	-33.872	0.101
774.300	-26.782	0.101
774.400	-37.444	0.101
774.500	-40.898	0.101
774.600	-33.056	0.101
774.700	-40.350	0.101
774.800	-34.067	0.101
774.900	-38.365	0.101
775.000	-25.416	0.101
775.100	-50.785	0.101
775.200	-40.724	0.101
775.300	-42.174	0.101
775.400	-37.250	0.101
775.500	-42.387	0.101
775.600	-35.844	0.101
775.700	-36.972	0.101
775.800	-32.410	0.101
775.900	-46.341	0.101
776.000	-36.600	0.101
776.100	-26.419	0.101
776.200	-31.543	0.101
776.300	-30.498	0.101
776.400	-29.864	0.101
776.500	-41.011	0.101
776.600	-41.157	0.101
776.700	-37.875	0.101
776.800	-29.425	0.101
776.900	-31.842	0.101
777.000	-43.909	0.101
777.100	-40.244	0.101
777.200	-34.290	0.101
777.300	-33.859	0.101
777.400	-35.657	0.101
777.500	-42.274	0.101
777.600	-32.835	0.101
777.700	-35.587	0.101
777.800	-32.718	0.101
777.900	-34.110	0.101
778.000	-35.192	0.101
778.100	-27.321	0.101
778.200	-39.028	0.101
778.300	-32.844	0.101
778.400	-47.613	0.101
778.500	-41.679	0.101
778.600	-39.502	0.101
778.700	-30.660	0.101
778.800	-33.938	0.101
778.900	-42.712	0.101
779.000	-36.351	0.101
779.100	-30.246	0.101
779.200	-23.708	0.101
779.300	-39.391	0.101
779.400	-39.169	0.101
779.500	-42.903	0.100
779.600	-32.419	0.100
779.700	-22.382	0.100
779.800	-33.194	0.100
779.900	-42.812	0.100
780.000	-39.676	0.100
780.100	-28.700	0.100
780.200	-32.735	0.100
780.300	-34.941	0.100
780.400	-29.393	0.100
780.500	-14.881	0.100
780.600	-24.793	0.100
780.700	-23.067	0.100
780.800	-19.371	0.100
780.900	-16.102	0.100
781.000	-20.345	0.100
781.100	-19.753	0.100
781.200	-2.959	0.100
781.300	-11.711	0.100
781.400	-7.529	0.100
781.500	-2.607	0.100
781.600	-3.339	0.100
781.700	-10.208	0.100
781.800	-2.928	0.100
781.900	3.267	0.100
782.000	-3.949	0.100
782.100	-8.293	0.100
782.200	-1.820	0.100
782.300	-2.125	0.100
782.400	-10.526	0.100
782.500	-6.751	0.100
782.600	0.517	0.100
782.700	1.267	0.100
782.800	-8.472	0.100
782.900	-2.349	0.100
783.000	-3.633	0.100
783.100	-0.537	0.100
783.200	-5.672	0.100
783.300	-3.929	0.100
783.400	11.217	0.100
783.500	3.084	0.100
783.600	-2.687	0.100
783.700	-0.654	0.100
783.800	3.299	0.100
783.900	-9.687	0.100
784.000	-1.992	0.100
784.100	4.231	0.100
784.200	2.932	0.100
784.300	-4.791	0.100
784.400	-6.068	0.100
784.500	-5.700	0.100
784.600	1.645	0.100
784.700	-3.892	0.100
784.800	-9.481	0.100
784.900	-4.798	0.100
785.000	-6.554	0.100
785.100	-16.451	0.100
785.200	-7.652	0.100
785.300	-7.681	0.100
785.400	-7.605	0.100
785.500	3.758	0.100
785.600	1.411	0.100
785.700	-13.095	0.100
785.800	-8.741	0.100
785.900	1.935	0.100
786.000	-1.235	0.100
786.100	-12.897	0.100
786.200	-2.667	0.100
786.300	1.714	0.100
786.400	0.515	0.100
786.500	-1.867	0.100
786.600	-11.297	0.100
786.700	-5.891	0.100
786.800	-6.312	0.100
786.900	-2.379	0.100
787.000	-5.172	0.100
787.100	0.098	0.100
787.200	-3.158	0.100
787.300	-7.519	0.100
787.400	-4.850	0.100
787.500	-2.401	0.100
787.600	-4.691	0.100
787.700	-0.970	0.100
787.800	-3.166	0.100
787.900	-4.632	0.100
788.000	-1.484	0.100
788.100	-4.446	0.100
788.200	-4.674	0.100
788.300	-3.814	0.100
788.400	6.445	0.100
788.500	-0.735	0.100
788.600	4.436	0.100
788.700	1.485	0.100
788.800	0.471	0.100
788.900	-1.699	0.100
789.000	8.704	0.100
789.100	5.710	0.100
789.200	15.081	0.100
789.300	-1.015	0.100
789.400	2.219	0.100
789.500	2.521	0.100
789.600	2.518	0.100
789.700	6.713	0.100
789.800	20.237	0.100
789.900	8.554	0.100
790.000	12.154	0.100
790.100	11.066	0.100
790.200	9.940	0.100
790.300	5.209	0.100
790.400	8.096	0.100
790.500	10.752	0.100
790.600	11.793	0.100
790.700	6.525	0.100
790.800	15.199	0.100
790.900	14.913	0.100
791.000	19.925	0.100
791.100	15.778	0.100
791.200	25.620	0.100
791.300	14.624	0.100
791.400	15.362	0.100
791.500	12.780	0.100
791.600	9.321	0.100
791.700	19.348	0.100
791.800	20.371	0.100
791.900	15.499	0.100
792.000	14.514	0.100
792.100	21.884	0.100
792.200	31.802	0.100
792.300	24.290	0.100
792.400	18.180	0.100
792.500	23.328	0.100
792.600	22.985	0.100
792.700	22.410	0.100
792.800	35.557	0.100
792.900	30.576	0.100
793.000	17.063	0.100
793.100	25.195	0.100
793.200	38.430	0.100
793.300	34.500	0.100
793.400	34.853	0.100
793.500	24.054	0.100
793.600	35.312	0.100
793.700	26.077	0.100
793.800	29.530	0.100
793.900	29.078	0.100
794.000	33.696	0.100
794.100	33.946	0.100
794.200	26.974	0.100
794.300	39.264	0.100
794.400	35.247	0.100
794.500	42.857	0.100
794.600	31.670	0.100
794.700	43.603	0.100
794.800	47.262	0.100
794.900	47.649	0.100
795.000	48.097	0.100
795.100	41.077	0.100
795.200	47.748	0.100
795.300	42.517	0.100
795.400	39.308	0.100
795.500	44.337	0.100
795.600	43.456	0.100
795.700	44.381	0.100
795.800	46.962	0.100
795.900	45.221	0.100
796.000	42.619	0.100
796.100	52.377	0.100
796.200	47.817	0.100
796.300	44.662	0.100
796.400	51.986	0.100
796.500	52.478	0.100
796.600	42.362	0.100
796.700	52.274	0.100
796.800	50.930	0.100
796.900	49.407	0.100
797.000	53.240	0.100
797.100	54.740	0.100
797.200	56.611	0.100
797.300	53.734	0.100
797.400	54.835	0.100
797.500	45.914	0.100
797.600	46.298	0.100
797.700	53.788	0.100
797.800	58.364	0.100
797.900	50.295	0.100
798.000	50.428	0.100
798.100	55.452	0.100
798.200	52.118	0.100
798.300	53.498	0.100
798.400	57.945	0.100
798.500	49.474	0.100
798.600	46.357	0.100
798.700	54.399	0.100
798.800	49.046	0.100
798.900	53.825	0.100
799.000	36.490	0.100
799.100	46.102	0.100
799.200	50.149	0.100
799.300	53.177	0.100
799.400	50.750	0.100
799.500	56.034	0.100
799.600	55.722	0.100
799.700	48.041	0.100
799.800	49.206	0.100
799.900	54.799	0.100
800.000	48.097	0.100
