time /s	I /nA	E /V
0.100	-0.845	0.099
0.200	2.570	0.099
0.300	3.312	0.099
0.400	7.711	0.099
0.500	12.093	0.099
0.600	-0.551	0.099
0.700	6.491	0.099
0.800	2.787	0.099
0.900	-5.355	0.099
1.000	6.117	0.099
1.100	4.187	0.099
1.200	9.843	0.099
1.300	2.165	0.099
1.400	3.040	0.099
1.500	-19.996	0.099
1.600	-0.960	0.099
1.700	-1.593	0.099
1.800	6.114	0.099
1.900	3.742	0.099
2.000	-2.829	0.099
2.100	-1.411	0.099
2.200	6.877	0.099
2.300	5.796	0.099
2.400	6.610	0.099
2.500	-0.696	0.099
2.600	0.658	0.099
2.700	-6.566	0.099
2.800	-0.228	0.099
2.900	2.449	0.099
3.000	-7.629	0.099
3.100	-1.964	0.099
3.200	-12.986	0.099
3.300	7.153	0.099
3.400	-2.125	0.099
3.500	0.184	0.099
3.600	-5.456	0.099
3.700	-1.110	0.099
3.800	-5.125	0.099
3.900	7.892	0.099
4.000	3.472	0.099
4.100	-15.671	0.099
4.200	9.812	0.099
4.300	9.073	0.099
4.400	7.101	0.099
4.500	-4.211	0.099
4.600	-9.195	0.099
4.700	-2.040	0.099
4.800	-2.567	0.099
4.900	-1.596	0.099
5.000	6.054	0.099
5.100	5.981	0.099
5.200	8.746	0.099
5.300	2.689	0.099
5.400	1.387	0.099
5.500	-3.055	0.099
5.600	5.223	0.099
5.700	3.473	0.099
5.800	-9.326	0.099
5.900	9.655	0.099
6.000	0.789	0.099
6.100	2.816	0.099
6.200	1.180	0.099
6.300	6.487	0.099
6.400	-3.675	0.100
6.500	5.172	0.100
6.600	0.791	0.100
6.700	-9.536	0.100
6.800	7.936	0.100
6.900	4.047	0.100
7.000	1.612	0.100
7.100	9.911	0.100
7.200	-13.676	0.100
7.300	-4.306	0.100
7.400	4.048	0.100
7.500	12.538	0.100
7.600	5.912	0.100
7.700	-13.773	0.100
7.800	-1.957	0.100
7.900	11.727	0.100
8.000	5.913	0.100
8.100	-3.131	0.100
8.200	-13.581	0.100
8.300	19.334	0.100
8.400	1.941	0.100
8.500	-10.336	0.100
8.600	0.814	0.100
8.700	6.215	0.100
8.800	6.235	0.100
8.900	0.061	0.100
9.000	1.243	0.100
9.100	-4.003	0.100
9.200	11.761	0.100
9.300	-1.674	0.100
9.400	0.442	0.100
9.500	-7.404	0.100
9.600	3.895	0.100
9.700	1.225	0.100
9.800	6.512	0.100
9.900	-6.294	0.100
10.000	6.491	0.100
10.100	-0.892	0.100
10.200	-6.368	0.100
10.300	11.588	0.100
10.400	1.451	0.100
10.500	4.823	0.100
10.600	-3.286	0.100
10.700	13.469	0.100
10.800	-8.974	0.100
10.900	7.636	0.100
11.000	-1.727	0.100
11.100	-2.596	0.100
11.200	-1.100	0.100
11.300	0.771	0.100
11.400	-0.259	0.100
11.500	1.855	0.100
11.600	0.375	0.100
11.700	6.086	0.100
11.800	-8.877	0.100
11.900	-6.797	0.100
12.000	-0.999	0.100
12.100	-7.585	0.100
12.200	1.066	0.100
12.300	9.500	0.100
12.400	-5.213	0.100
12.500	-1.787	0.100
12.600	0.696	0.100
12.700	-6.366	0.100
12.800	6.453	0.100
12.900	-0.944	0.100
13.000	4.307	0.100
13.100	-2.275	0.100
13.200	7.309	0.100
13.300	-4.467	0.100
13.400	-4.324	0.100
13.500	4.114	0.100
13.600	-1.638	0.100
13.700	-10.958	0.100
13.800	-23.152	0.100
13.900	8.907	0.100
14.000	7.941	0.100
14.100	-0.771	0.100
14.200	4.294	0.100
14.300	4.557	0.100
14.400	-9.614	0.100
14.500	0.333	0.100
14.600	13.559	0.100
14.700	0.199	0.100
14.800	-10.084	0.100
14.900	-5.757	0.100
15.000	-3.604	0.100
15.100	-11.801	0.100
15.200	6.471	0.100
15.300	13.741	0.100
15.400	-6.980	0.100
15.500	5.628	0.100
15.600	10.080	0.100
15.700	4.548	0.100
15.800	-7.730	0.100
15.900	-6.139	0.100
16.000	-5.528	0.100
16.100	-3.583	0.100
16.200	2.527	0.100
16.300	-10.889	0.100
16.400	13.214	0.100
16.500	4.255	0.100
16.600	0.046	0.100
16.700	1.106	0.100
16.800	7.352	0.100
16.900	-19.260	0.100
17.000	3.149	0.100
17.100	0.570	0.100
17.200	3.285	0.100
17.300	6.143	0.100
17.400	-1.145	0.100
17.500	-2.372	0.100
17.600	-3.801	0.100
17.700	0.873	0.100
17.800	-1.666	0.100
17.900	-7.897	0.100
18.000	-7.152	0.100
18.100	4.133	0.100
18.200	-2.947	0.100
18.300	6.872	0.100
18.400	6.241	0.100
18.500	-8.965	0.100
18.600	3.599	0.100
18.700	7.884	0.100
18.800	-2.966	0.100
18.900	-6.998	0.100
19.000	-5.333	0.100
19.100	3.041	0.100
19.200	-7.215	0.100
19.300	-14.504	0.100
19.400	2.213	0.100
19.500	1.682	0.100
19.600	2.145	0.100
19.700	5.414	0.100
19.800	-13.452	0.100
19.900	6.582	0.100
20.000	5.942	0.100
20.100	8.336	0.100
20.200	5.238	0.100
20.300	-2.837	0.100
20.400	1.610	0.100
20.500	5.866	0.100
20.600	-0.997	0.100
20.700	9.849	0.100
20.800	1.819	0.100
20.900	-1.803	0.100
21.000	4.889	0.100
21.100	-6.934	0.100
21.200	-1.932	0.100
21.300	4.714	0.100
21.400	7.700	0.100
21.500	-11.174	0.100
21.600	2.979	0.100
21.700	8.754	0.100
21.800	-5.468	0.100
21.900	-3.892	0.100
22.000	-5.009	0.100
22.100	-6.626	0.100
22.200	-2.569	0.100
22.300	2.569	0.100
22.400	-2.100	0.100
22.500	-11.079	0.100
22.600	-2.311	0.100
22.700	13.827	0.100
22.800	9.309	0.100
22.900	5.380	0.100
23.000	-2.074	0.100
23.100	3.584	0.100
23.200	0.543	0.100
23.300	4.536	0.100
23.400	6.767	0.100
23.500	5.212	0.100
23.600	-5.095	0.100
23.700	-5.870	0.100
23.800	6.881	0.100
23.900	-4.162	0.100
24.000	10.820	0.100
24.100	-2.626	0.100
24.200	-1.753	0.100
24.300	1.644	0.100
24.400	5.821	0.100
24.500	-9.062	0.100
24.600	-4.079	0.100
24.700	5.779	0.100
24.800	-2.752	0.100
24.900	-0.445	0.100
25.000	4.103	0.100
25.100	2.198	0.100
25.200	3.391	0.100
25.300	0.715	0.100
25.400	7.753	0.100
25.500	3.803	0.100
25.600	-3.330	0.100
25.700	1.274	0.100
25.800	15.050	0.100
25.900	6.451	0.100
26.000	11.268	0.100
26.100	-5.975	0.100
26.200	-11.684	0.100
26.300	-9.221	0.100
26.400	-2.493	0.100
26.500	-5.212	0.100
26.600	0.606	0.100
26.700	-0.857	0.100
26.800	5.051	0.100
26.900	2.117	0.100
27.000	-0.591	0.100
27.100	4.279	0.100
27.200	8.943	0.100
27.300	-6.315	0.100
27.400	0.395	0.100
27.500	1.035	0.100
27.600	-3.298	0.100
27.700	-4.840	0.100
27.800	-1.374	0.100
27.900	-8.673	0.100
28.000	2.991	0.100
28.100	6.176	0.100
28.200	-4.159	0.100
28.300	-1.835	0.100
28.400	0.833	0.100
28.500	1.232	0.100
28.600	0.205	0.100
28.700	-3.706	0.100
28.800	11.196	0.100
28.900	3.686	0.100
29.000	-3.018	0.100
29.100	-15.347	0.100
29.200	-11.002	0.100
29.300	0.182	0.100
29.400	13.149	0.100
29.500	3.982	0.100
29.600	-5.969	0.100
29.700	1.495	0.100
29.800	5.600	0.100
29.900	5.726	0.100
30.000	-8.093	0.100
30.100	-2.301	0.100
30.200	-15.172	0.100
30.300	1.627	0.100
30.400	8.333	0.100
30.500	2.895	0.100
30.600	14.488	0.100
30.700	22.400	0.100
30.800	4.104	0.100
30.900	14.972	0.100
31.000	4.977	0.100
31.100	18.756	0.100
31.200	27.363	0.100
31.300	11.267	0.100
31.400	20.811	0.100
31.500	25.931	0.100
31.600	27.325	0.100
31.700	25.539	0.100
31.800	28.505	0.100
31.900	22.300	0.100
32.000	26.645	0.100
32.100	36.899	0.100
32.200	32.986	0.100
32.300	32.995	0.100
32.400	21.890	0.100
32.500	20.419	0.100
32.600	16.223	0.100
32.700	35.315	0.100
32.800	45.401	0.100
32.900	29.169	0.100
33.000	40.096	0.100
33.100	34.969	0.100
33.200	32.992	0.100
33.300	24.345	0.100
33.400	24.667	0.100
33.500	26.651	0.100
33.600	34.791	0.100
33.700	28.323	0.100
33.800	41.207	0.099
33.900	40.113	0.100
34.000	24.933	0.100
34.100	23.224	0.100
34.200	25.702	0.100
34.300	24.503	0.099
34.400	38.956	0.100
34.500	33.876	0.100
34.600	23.395	0.100
34.700	46.667	0.100
34.800	40.885	0.099
34.900	33.449	0.099
35.000	37.718	0.100
35.100	24.635	0.100
35.200	29.340	0.099
35.300	31.294	0.099
35.400	34.002	0.099
35.500	27.854	0.100
35.600	39.630	0.099
35.700	33.376	0.099
35.800	29.628	0.099
35.900	33.417	0.100
36.000	31.610	0.100
36.100	38.719	0.100
36.200	37.105	0.100
36.300	37.712	0.100
36.400	29.775	0.099
36.500	25.163	0.099
36.600	27.883	0.099
36.700	40.089	0.100
36.800	34.060	0.099
36.900	31.990	0.100
37.000	33.761	0.100
37.100	37.218	0.100
37.200	35.254	0.100
37.300	26.333	0.099
37.400	32.093	0.100
37.500	25.812	0.100
37.600	45.016	0.100
37.700	33.097	0.099
37.800	34.042	0.099
37.900	31.314	0.100
38.000	35.582	0.099
38.100	35.701	0.099
38.200	33.973	0.099
38.300	41.819	0.099
38.400	35.091	0.100
38.500	33.267	0.099
38.600	31.852	0.099
38.700	36.999	0.100
38.800	38.856	0.100
38.900	41.196	0.100
39.000	26.063	0.100
39.100	44.184	0.100
39.200	39.972	0.100
39.300	36.298	0.100
39.400	29.082	0.099
39.500	44.530	0.099
39.600	40.020	0.099
39.700	32.939	0.100
39.800	41.755	0.100
39.900	47.161	0.100
40.000	44.765	0.100
40.100	33.178	0.100
40.200	39.989	0.100
40.300	28.935	0.100
40.400	37.768	0.100
40.500	39.900	0.100
40.600	38.522	0.100
40.700	42.092	0.100
40.800	42.323	0.100
40.900	26.557	0.100
41.000	37.858	0.100
41.100	36.573	0.100
41.200	41.901	0.100
41.300	32.168	0.100
41.400	34.257	0.100
41.500	22.981	0.100
41.600	41.930	0.100
41.700	40.570	0.100
41.800	54.272	0.100
41.900	38.791	0.100
42.000	42.378	0.100
42.100	28.886	0.100
42.200	27.568	0.100
42.300	40.223	0.100
42.400	44.710	0.100
42.500	35.414	0.100
42.600	49.325	0.100
42.700	43.589	0.100
42.800	35.163	0.100
42.900	42.043	0.100
43.000	27.419	0.100
43.100	51.631	0.100
43.200	36.097	0.100
43.300	42.324	0.100
43.400	28.264	0.100
43.500	31.841	0.100
43.600	40.303	0.100
43.700	43.953	0.100
43.800	52.870	0.100
43.900	49.672	0.100
44.000	28.578	0.100
44.100	36.309	0.100
44.200	36.498	0.100
44.300	43.606	0.100
44.400	42.522	0.100
44.500	33.847	0.100
44.600	29.888	0.100
44.700	38.355	0.100
44.800	42.918	0.100
44.900	45.664	0.100
45.000	39.427	0.100
45.100	37.549	0.100
45.200	32.438	0.100
45.300	31.661	0.100
45.400	47.783	0.100
45.500	49.218	0.100
45.600	42.559	0.100
45.700	43.361	0.100
45.800	32.931	0.100
45.900	34.189	0.100
46.000	39.038	0.100
46.100	42.896	0.100
46.200	48.964	0.100
46.300	48.271	0.100
46.400	34.976	0.100
46.500	40.186	0.100
46.600	44.043	0.100
46.700	36.626	0.100
46.800	40.790	0.100
46.900	39.136	0.100
47.000	45.441	0.100
47.100	43.982	0.100
47.200	43.842	0.100
47.300	50.877	0.100
47.400	42.168	0.100
47.500	39.865	0.100
47.600	33.762	0.100
47.700	31.599	0.100
47.800	49.244	0.100
47.900	46.122	0.100
48.000	41.497	0.100
48.100	55.732	0.100
48.200	59.085	0.100
48.300	31.238	0.100
48.400	34.962	0.100
48.500	36.096	0.100
48.600	32.370	0.100
48.700	44.241	0.100
48.800	49.911	0.100
48.900	32.027	0.100
49.000	31.088	0.100
49.100	40.274	0.100
49.200	47.128	0.100
49.300	54.369	0.100
49.400	47.097	0.100
49.500	57.428	0.100
49.600	59.567	0.100
49.700	35.401	0.100
49.800	39.521	0.100
49.900	32.499	0.100
50.000	52.135	0.100
50.100	45.836	0.100
50.200	50.850	0.100
50.300	42.211	0.100
50.400	41.955	0.100
50.500	33.922	0.100
50.600	31.269	0.100
50.700	36.287	0.100
50.800	51.116	0.100
50.900	37.501	0.100
51.000	38.824	0.100
51.100	49.219	0.100
51.200	47.575	0.100
51.300	54.290	0.100
51.400	42.022	0.100
51.500	37.876	0.100
51.600	34.524	0.100
51.700	32.297	0.100
51.800	38.717	0.100
51.900	44.859	0.100
52.000	44.588	0.100
52.100	54.908	0.100
52.200	41.292	0.100
52.300	42.802	0.100
52.400	60.863	0.100
52.500	40.334	0.100
52.600	42.950	0.100
52.700	43.554	0.100
52.800	50.798	0.100
52.900	42.221	0.100
53.000	33.146	0.100
53.100	38.546	0.100
53.200	48.782	0.100
53.300	47.065	0.100
53.400	45.932	0.100
53.500	38.824	0.099
53.600	31.390	0.100
53.700	42.789	0.099
53.800	47.696	0.100
53.900	33.632	0.100
54.000	45.059	0.100
54.100	37.196	0.100
54.200	40.688	0.099
54.300	50.887	0.100
54.400	49.063	0.100
54.500	41.453	0.100
54.600	42.188	0.099
54.700	41.540	0.100
54.800	43.424	0.100
54.900	54.467	0.100
55.000	45.429	0.100
55.100	49.071	0.100
55.200	47.941	0.100
55.300	46.103	0.100
55.400	39.796	0.099
55.500	41.852	0.100
55.600	42.340	0.100
55.700	31.695	0.100
55.800	52.042	0.100
55.900	36.468	0.100
56.000	26.179	0.100
56.100	43.468	0.100
56.200	48.836	0.100
56.300	49.410	0.100
56.400	48.592	0.099
56.500	40.526	0.099
56.600	39.197	0.099
56.700	45.027	0.099
56.800	38.676	0.099
56.900	38.837	0.099
57.000	50.121	0.099
57.100	44.298	0.099
57.200	40.755	0.099
57.300	48.524	0.099
57.400	39.368	0.099
57.500	45.867	0.099
57.600	49.950	0.099
57.700	38.209	0.099
57.800	36.658	0.099
57.900	40.788	0.099
58.000	46.946	0.099
58.100	36.227	0.099
58.200	50.186	0.099
58.300	50.618	0.099
58.400	38.860	0.099
58.500	57.687	0.099
58.600	66.101	0.099
58.700	61.341	0.099
58.800	45.302	0.099
58.900	45.000	0.099
59.000	37.446	0.099
59.100	45.728	0.099
59.200	45.615	0.099
59.300	30.696	0.099
59.400	31.850	0.099
59.500	39.932	0.099
59.600	39.357	0.099
59.700	33.000	0.099
59.800	44.233	0.099
59.900	59.396	0.099
60.000	49.383	0.099
60.100	43.566	0.099
60.200	46.572	0.099
60.300	55.410	0.099
60.400	42.207	0.099
60.500	43.110	0.099
60.600	36.191	0.099
60.700	42.183	0.099
60.800	48.690	0.099
60.900	47.574	0.099
61.000	38.311	0.099
61.100	38.624	0.099
61.200	32.862	0.099
61.300	53.299	0.099
61.400	51.892	0.099
61.500	49.559	0.099
61.600	47.368	0.099
61.700	41.048	0.099
61.800	40.111	0.099
61.900	46.276	0.099
62.000	32.640	0.099
62.100	50.843	0.099
62.200	35.870	0.099
62.300	48.918	0.099
62.400	50.459	0.099
62.500	42.030	0.099
62.600	32.528	0.099
62.700	54.222	0.099
62.800	56.073	0.099
62.900	41.186	0.099
63.000	50.717	0.099
63.100	53.277	0.099
63.200	37.643	0.099
63.300	49.223	0.099
63.400	48.059	0.099
63.500	45.158	0.099
63.600	43.514	0.099
63.700	45.458	0.099
63.800	47.814	0.099
63.900	42.029	0.099
64.000	53.825	0.099
64.100	42.431	0.099
64.200	43.231	0.099
64.300	46.508	0.099
64.400	41.063	0.099
64.500	42.433	0.099
64.600	43.595	0.099
64.700	46.483	0.099
64.800	47.648	0.099
64.900	38.651	0.099
65.000	47.554	0.099
65.100	44.073	0.099
65.200	47.976	0.099
65.300	44.434	0.099
65.400	43.906	0.099
65.500	45.316	0.099
65.600	64.027	0.099
65.700	46.483	0.099
65.800	40.731	0.099
65.900	34.243	0.099
66.000	48.397	0.099
66.100	48.264	0.099
66.200	38.609	0.099
66.300	46.475	0.099
66.400	57.098	0.099
66.500	46.241	0.099
66.600	40.711	0.099
66.700	50.578	0.099
66.800	46.959	0.099
66.900	49.633	0.099
67.000	53.069	0.099
67.100	45.383	0.099
67.200	50.899	0.099
67.300	41.858	0.099
67.400	39.281	0.099
67.500	50.088	0.099
67.600	43.181	0.099
67.700	52.919	0.099
67.800	37.004	0.099
67.900	38.305	0.099
68.000	53.036	0.099
68.100	62.163	0.100
68.200	55.133	0.099
68.300	50.345	0.100
68.400	37.223	0.099
68.500	49.057	0.099
68.600	48.536	0.100
68.700	41.144	0.099
68.800	41.239	0.099
68.900	46.751	0.099
69.000	38.341	0.099
69.100	44.945	0.099
69.200	46.140	0.099
69.300	51.094	0.099
69.400	44.711	0.100
69.500	54.749	0.099
69.600	47.178	0.100
69.700	47.919	0.100
69.800	38.960	0.099
69.900	46.628	0.099
70.000	59.232	0.100
70.100	38.630	0.099
70.200	41.687	0.099
70.300	49.166	0.100
70.400	48.299	0.099
70.500	37.950	0.099
70.600	53.095	0.099
70.700	46.590	0.099
70.800	44.107	0.099
70.900	42.628	0.099
71.000	43.424	0.100
71.100	44.435	0.099
71.200	54.702	0.099
71.300	51.634	0.099
71.400	52.892	0.099
71.500	47.122	0.099
71.600	43.746	0.099
71.700	54.975	0.099
71.800	53.837	0.099
71.900	45.304	0.099
72.000	45.554	0.099
72.100	32.293	0.099
72.200	57.082	0.099
72.300	49.175	0.099
72.400	50.244	0.099
72.500	41.286	0.099
72.600	45.850	0.099
72.700	46.375	0.099
72.800	44.012	0.099
72.900	35.373	0.099
73.000	40.729	0.099
73.100	41.801	0.099
73.200	50.771	0.099
73.300	52.479	0.100
73.400	46.807	0.099
73.500	53.181	0.100
73.600	39.261	0.100
73.700	57.059	0.100
73.800	53.153	0.100
73.900	55.543	0.100
74.000	45.625	0.100
74.100	51.416	0.100
74.200	26.329	0.100
74.300	43.456	0.100
74.400	47.516	0.100
74.500	52.396	0.100
74.600	43.725	0.100
74.700	53.814	0.100
74.800	56.550	0.100
74.900	50.248	0.100
75.000	41.044	0.100
75.100	54.255	0.100
75.200	54.664	0.100
75.300	54.493	0.100
75.400	41.897	0.100
75.500	48.601	0.100
75.600	56.536	0.100
75.700	48.484	0.100
75.800	35.213	0.100
75.900	54.121	0.100
76.000	44.324	0.100
76.100	51.323	0.100
76.200	42.953	0.100
76.300	35.203	0.100
76.400	25.687	0.100
76.500	44.646	0.100
76.600	59.617	0.100
76.700	53.971	0.100
76.800	38.847	0.100
76.900	51.383	0.100
77.000	48.922	0.100
77.100	42.791	0.100
77.200	49.731	0.100
77.300	53.911	0.100
77.400	31.814	0.100
77.500	56.488	0.100
77.600	47.892	0.100
77.700	48.286	0.100
77.800	49.558	0.100
77.900	38.952	0.100
78.000	54.908	0.100
78.100	60.431	0.100
78.200	64.723	0.100
78.300	48.557	0.100
78.400	43.430	0.100
78.500	47.226	0.100
78.600	37.452	0.100
78.700	49.181	0.100
78.800	41.894	0.100
78.900	39.179	0.100
79.000	40.553	0.100
79.100	51.929	0.099
79.200	54.191	0.099
79.300	60.265	0.100
79.400	40.766	0.099
79.500	52.553	0.099
79.600	49.229	0.099
79.700	39.848	0.099
79.800	44.368	0.099
79.900	38.028	0.099
80.000	42.839	0.099
80.100	54.186	0.099
80.200	59.021	0.099
80.300	45.766	0.099
80.400	51.898	0.099
80.500	31.719	0.099
80.600	48.546	0.100
80.700	56.181	0.099
80.800	61.289	0.099
80.900	54.936	0.100
81.000	49.034	0.099
81.100	44.599	0.099
81.200	43.786	0.099
81.300	41.682	0.099
81.400	43.039	0.099
81.500	52.035	0.099
81.600	52.540	0.099
81.700	48.775	0.099
81.800	31.690	0.099
81.900	47.793	0.099
82.000	50.155	0.099
82.100	53.862	0.099
82.200	43.217	0.099
82.300	47.311	0.099
82.400	51.046	0.099
82.500	46.678	0.099
82.600	39.125	0.099
82.700	57.307	0.099
82.800	56.748	0.099
82.900	42.563	0.099
83.000	46.197	0.099
83.100	53.118	0.099
83.200	40.666	0.099
83.300	52.021	0.099
83.400	51.194	0.099
83.500	60.962	0.099
83.600	57.018	0.099
83.700	46.331	0.099
83.800	26.890	0.100
83.900	49.011	0.099
84.000	34.630	0.099
84.100	58.160	0.099
84.200	56.067	0.099
84.300	48.558	0.099
84.400	60.933	0.099
84.500	47.328	0.099
84.600	44.208	0.099
84.700	56.126	0.099
84.800	44.659	0.099
84.900	53.765	0.099
85.000	47.059	0.099
85.100	49.216	0.099
85.200	42.301	0.099
85.300	50.382	0.099
85.400	48.725	0.099
85.500	42.653	0.099
85.600	35.787	0.099
85.700	55.635	0.099
85.800	51.932	0.099
85.900	51.156	0.099
86.000	43.259	0.099
86.100	50.028	0.099
86.200	50.189	0.099
86.300	47.882	0.099
86.400	54.209	0.099
86.500	44.332	0.099
86.600	49.630	0.099
86.700	54.583	0.099
86.800	48.337	0.099
86.900	38.690	0.099
87.000	55.054	0.099
87.100	47.196	0.099
87.200	32.500	0.099
87.300	42.845	0.099
87.400	48.541	0.099
87.500	56.703	0.099
87.600	52.109	0.099
87.700	48.199	0.099
87.800	51.670	0.099
87.900	51.743	0.099
88.000	56.593	0.099
88.100	55.876	0.099
88.200	51.611	0.099
88.300	56.499	0.099
88.400	39.173	0.099
88.500	48.925	0.099
88.600	47.123	0.099
88.700	64.739	0.099
88.800	53.868	0.099
88.900	55.333	0.099
89.000	46.256	0.099
89.100	46.282	0.099
89.200	50.886	0.099
89.300	47.684	0.099
89.400	50.594	0.099
89.500	52.825	0.099
89.600	39.104	0.099
89.700	43.815	0.099
89.800	48.727	0.099
89.900	49.476	0.099
90.000	48.436	0.099
90.100	56.307	0.099
90.200	52.311	0.099
90.300	47.461	0.099
90.400	50.505	0.099
90.500	42.945	0.099
90.600	45.148	0.099
90.700	46.317	0.099
90.800	45.409	0.099
90.900	39.866	0.099
91.000	47.822	0.099
91.100	34.483	0.099
91.200	27.962	0.099
91.300	30.576	0.099
91.400	24.697	0.099
91.500	36.584	0.099
91.600	29.238	0.099
91.700	34.103	0.099
91.800	27.659	0.099
91.900	20.404	0.099
92.000	30.034	0.099
92.100	22.348	0.099
92.200	29.552	0.099
92.300	24.236	0.099
92.400	27.600	0.099
92.500	15.513	0.099
92.600	14.418	0.099
92.700	20.530	0.099
92.800	4.233	0.099
92.900	20.149	0.099
93.000	21.507	0.099
93.100	27.182	0.099
93.200	18.880	0.099
93.300	18.618	0.099
93.400	19.993	0.099
93.500	20.664	0.099
93.600	11.106	0.099
93.700	6.004	0.099
93.800	12.517	0.099
93.900	20.897	0.099
94.000	14.315	0.099
94.100	21.388	0.099
94.200	14.482	0.099
94.300	17.205	0.099
94.400	15.846	0.099
94.500	10.643	0.099
94.600	5.745	0.099
94.700	7.058	0.099
94.800	9.747	0.099
94.900	20.585	0.099
95.000	13.068	0.099
95.100	8.777	0.099
95.200	19.765	0.099
95.300	8.429	0.099
95.400	5.602	0.099
95.500	23.211	0.099
95.600	1.470	0.099
95.700	11.601	0.099
95.800	16.999	0.100
95.900	8.950	0.100
96.000	13.356	0.100
96.100	14.538	0.100
96.200	12.792	0.100
96.300	8.282	0.100
96.400	4.151	0.100
96.500	13.151	0.100
96.600	12.135	0.100
96.700	-6.277	0.100
96.800	15.884	0.100
96.900	11.361	0.100
97.000	13.624	0.100
97.100	12.059	0.100
97.200	-9.032	0.100
97.300	11.278	0.100
97.400	8.675	0.100
97.500	5.656	0.100
97.600	4.027	0.100
97.700	0.658	0.100
97.800	8.484	0.100
97.900	7.477	0.100
98.000	13.542	0.100
98.100	15.887	0.100
98.200	21.430	0.100
98.300	-7.257	0.100
98.400	7.522	0.100
98.500	-4.236	0.100
98.600	8.654	0.100
98.700	6.975	0.100
98.800	10.888	0.100
98.900	2.247	0.100
99.000	2.597	0.100
99.100	18.018	0.100
99.200	9.455	0.100
99.300	19.122	0.100
99.400	6.765	0.100
99.500	9.293	0.100
99.600	-1.554	0.100
99.700	6.222	0.100
99.800	11.864	0.100
99.900	5.885	0.100
100.000	7.409	0.100
100.100	0.971	0.100
100.200	7.356	0.100
100.300	10.249	0.100
100.400	4.720	0.100
100.500	7.552	0.100
100.600	4.978	0.100
100.700	10.407	0.100
100.800	10.724	0.100
100.900	7.426	0.100
101.000	5.071	0.100
101.100	-2.780	0.100
101.200	0.076	0.100
101.300	10.452	0.100
101.400	9.814	0.100
101.500	13.745	0.100
101.600	8.152	0.100
101.700	0.394	0.100
101.800	26.628	0.100
101.900	9.849	0.100
102.000	4.377	0.100
102.100	17.081	0.100
102.200	12.497	0.100
102.300	7.645	0.100
102.400	-0.691	0.100
102.500	15.039	0.100
102.600	4.751	0.100
102.700	5.876	0.100
102.800	11.547	0.100
102.900	1.075	0.100
103.000	8.139	0.100
103.100	1.485	0.100
103.200	9.320	0.100
103.300	7.659	0.100
103.400	3.156	0.100
103.500	0.874	0.100
103.600	2.634	0.100
103.700	13.802	0.100
103.800	-1.516	0.100
103.900	6.099	0.100
104.000	4.806	0.100
104.100	-4.935	0.100
104.200	4.690	0.100
104.300	-9.639	0.100
104.400	1.133	0.100
104.500	4.197	0.100
104.600	9.300	0.100
104.700	4.427	0.100
104.800	9.036	0.100
104.900	8.047	0.100
105.000	7.847	0.100
105.100	16.401	0.100
105.200	8.326	0.100
105.300	3.762	0.100
105.400	10.765	0.100
105.500	4.272	0.100
105.600	9.406	0.100
105.700	10.159	0.100
105.800	8.131	0.100
105.900	8.890	0.100
106.000	4.723	0.100
106.100	-13.060	0.100
106.200	-10.588	0.100
106.300	4.046	0.100
106.400	5.018	0.100
106.500	4.094	0.100
106.600	0.886	0.100
106.700	10.160	0.100
106.800	6.663	0.100
106.900	-9.425	0.100
107.000	-8.114	0.099
107.100	11.578	0.099
107.200	-1.750	0.099
107.300	12.089	0.099
107.400	-2.088	0.099
107.500	14.227	0.099
107.600	-0.492	0.099
107.700	4.558	0.099
107.800	3.120	0.099
107.900	0.061	0.099
108.000	-11.730	0.099
108.100	5.957	0.099
108.200	13.105	0.099
108.300	2.405	0.099
108.400	6.817	0.099
108.500	-0.692	0.099
108.600	2.459	0.099
108.700	-7.486	0.099
108.800	2.473	0.099
108.900	-4.992	0.099
109.000	-2.403	0.099
109.100	12.622	0.099
109.200	14.037	0.099
109.300	-3.415	0.099
109.400	11.015	0.099
109.500	-2.039	0.099
109.600	9.092	0.099
109.700	2.512	0.099
109.800	-2.417	0.099
109.900	6.799	0.099
110.000	-7.145	0.099
110.100	-7.295	0.099
110.200	-0.594	0.099
110.300	3.680	0.099
110.400	14.728	0.099
110.500	8.340	0.099
110.600	-3.465	0.099
110.700	3.747	0.099
110.800	-11.205	0.099
110.900	3.493	0.099
111.000	14.667	0.099
111.100	0.284	0.099
111.200	2.809	0.099
111.300	-9.399	0.099
111.400	-8.953	0.099
111.500	-3.590	0.099
111.600	11.449	0.099
111.700	6.728	0.099
111.800	-9.877	0.099
111.900	-17.989	0.099
112.000	-8.274	0.099
112.100	-2.925	0.099
112.200	13.380	0.099
112.300	0.835	0.099
112.400	8.539	0.099
112.500	-1.968	0.099
112.600	-12.562	0.099
112.700	6.022	0.099
112.800	-10.447	0.099
112.900	3.781	0.099
113.000	-7.860	0.099
113.100	4.109	0.099
113.200	6.720	0.099
113.300	1.579	0.099
113.400	-2.994	0.099
113.500	2.067	0.099
113.600	-1.489	0.099
113.700	-0.466	0.099
113.800	-7.945	0.099
113.900	6.386	0.099
114.000	15.980	0.099
114.100	12.526	0.099
114.200	-8.996	0.099
114.300	-0.369	0.099
114.400	3.755	0.099
114.500	-3.703	0.099
114.600	2.847	0.099
114.700	-5.946	0.099
114.800	-0.386	0.099
114.900	-4.247	0.099
115.000	1.587	0.099
115.100	9.226	0.099
115.200	-5.241	0.099
115.300	2.778	0.099
115.400	-16.411	0.099
115.500	0.807	0.099
115.600	0.089	0.099
115.700	5.057	0.099
115.800	2.627	0.099
115.900	10.755	0.099
116.000	1.900	0.099
116.100	-2.594	0.099
116.200	-3.824	0.099
116.300	-7.893	0.099
116.400	4.804	0.099
116.500	-1.521	0.099
116.600	0.305	0.099
116.700	6.228	0.099
116.800	5.044	0.099
116.900	-7.237	0.099
117.000	-11.109	0.099
117.100	7.103	0.099
117.200	-13.397	0.099
117.300	-8.608	0.099
117.400	1.066	0.099
117.500	-10.127	0.099
117.600	6.224	0.099
117.700	-4.723	0.099
117.800	6.748	0.099
117.900	-1.831	0.099
118.000	7.256	0.099
118.100	-13.309	0.099
118.200	-2.124	0.099
118.300	5.133	0.099
118.400	-4.678	0.099
118.500	-0.413	0.099
118.600	-2.561	0.099
118.700	-9.992	0.099
118.800	3.275	0.099
118.900	3.109	0.099
119.000	-8.184	0.099
119.100	-6.145	0.099
119.200	-5.305	0.099
119.300	3.539	0.099
119.400	-0.920	0.099
119.500	-16.877	0.099
119.600	-7.552	0.099
119.700	-1.282	0.099
119.800	-4.813	0.099
119.900	2.708	0.099
120.000	3.232	0.099
120.100	1.523	0.099
120.200	-10.607	0.099
120.300	-6.178	0.099
120.400	-9.559	0.099
120.500	-2.160	0.099
120.600	0.346	0.099
120.700	-1.963	0.099
120.800	-2.660	0.099
120.900	-1.621	0.099
121.000	-5.700	0.099
121.100	-15.493	0.099
121.200	-7.226	0.099
121.300	4.580	0.099
121.400	-2.410	0.099
121.500	-14.523	0.099
121.600	1.967	0.099
121.700	0.555	0.099
121.800	3.575	0.099
121.900	-0.619	0.099
122.000	-3.056	0.099
122.100	-4.354	0.099
122.200	-5.941	0.099
122.300	4.626	0.099
122.400	-4.425	0.099
122.500	-4.254	0.099
122.600	-11.165	0.099
122.700	3.968	0.099
122.800	-2.986	0.099
122.900	-9.781	0.099
123.000	-4.042	0.099
123.100	-8.014	0.099
123.200	-9.595	0.099
123.300	0.376	0.099
123.400	-0.690	0.099
123.500	-5.811	0.099
123.600	-4.485	0.099
123.700	-17.521	0.099
123.800	-7.729	0.100
123.900	1.327	0.100
124.000	-1.162	0.100
124.100	-6.928	0.100
124.200	-15.802	0.100
124.300	-6.972	0.100
124.400	-9.007	0.100
124.500	-9.688	0.100
124.600	4.952	0.100
124.700	0.772	0.100
124.800	-6.643	0.100
124.900	-12.279	0.100
125.000	-8.425	0.100
125.100	-7.170	0.100
125.200	3.305	0.100
125.300	2.971	0.100
125.400	-14.789	0.100
125.500	-12.704	0.100
125.600	-5.021	0.100
125.700	-1.824	0.100
125.800	-8.447	0.100
125.900	2.071	0.100
126.000	-6.705	0.100
126.100	-10.362	0.100
126.200	-6.125	0.100
126.300	-19.458	0.100
126.400	-13.710	0.100
126.500	-0.783	0.100
126.600	-11.893	0.100
126.700	-14.660	0.100
126.800	-5.945	0.100
126.900	-0.186	0.100
127.000	-9.584	0.100
127.100	6.840	0.100
127.200	-6.041	0.100
127.300	-1.396	0.100
127.400	-1.513	0.100
127.500	-12.264	0.100
127.600	-6.275	0.100
127.700	3.716	0.100
127.800	2.334	0.100
127.900	-3.083	0.100
128.000	-0.088	0.100
128.100	-15.201	0.100
128.200	-3.855	0.100
128.300	1.323	0.100
128.400	-6.396	0.100
128.500	-6.624	0.100
128.600	-12.429	0.100
128.700	-3.725	0.100
128.800	-4.971	0.100
128.900	-5.887	0.100
129.000	-15.823	0.100
129.100	-11.811	0.100
129.200	-12.381	0.100
129.300	-1.262	0.100
129.400	6.163	0.100
129.500	-19.463	0.100
129.600	5.069	0.100
129.700	6.125	0.100
129.800	5.299	0.100
129.900	-6.688	0.100
130.000	-13.628	0.100
130.100	-16.029	0.100
130.200	-11.760	0.100
130.300	-10.793	0.100
130.400	-2.782	0.100
130.500	-16.170	0.100
130.600	-8.514	0.100
130.700	-6.371	0.100
130.800	-8.451	0.100
130.900	-10.420	0.100
131.000	5.480	0.100
131.100	-7.265	0.100
131.200	-11.547	0.100
131.300	-5.764	0.100
131.400	-13.778	0.100
131.500	-3.346	0.100
131.600	-9.240	0.100
131.700	-11.153	0.100
131.800	-9.629	0.100
131.900	-8.121	0.100
132.000	-12.698	0.100
132.100	-18.052	0.100
132.200	-7.645	0.100
132.300	0.118	0.100
132.400	-2.433	0.100
132.500	-0.509	0.100
132.600	-1.284	0.100
132.700	-7.711	0.100
132.800	-8.313	0.100
132.900	-15.781	0.100
133.000	-12.840	0.100
133.100	1.009	0.100
133.200	-3.281	0.100
133.300	-8.924	0.100
133.400	-17.705	0.100
133.500	-0.691	0.100
133.600	-19.802	0.100
133.700	-4.364	0.100
133.800	3.950	0.100
133.900	-9.068	0.100
134.000	-0.681	0.100
134.100	-2.455	0.100
134.200	-3.631	0.100
134.300	-7.135	0.100
134.400	-11.836	0.100
134.500	0.494	0.100
134.600	-14.266	0.100
134.700	0.146	0.100
134.800	-11.026	0.100
134.900	-7.807	0.100
135.000	-23.891	0.100
135.100	-7.636	0.100
135.200	-16.678	0.100
135.300	-7.297	0.100
135.400	-7.737	0.100
135.500	-3.682	0.100
135.600	-0.449	0.100
135.700	-12.760	0.100
135.800	-11.588	0.100
135.900	-14.413	0.100
136.000	-3.605	0.100
136.100	-6.654	0.100
136.200	-8.176	0.100
136.300	-7.900	0.100
136.400	-12.334	0.100
136.500	-0.278	0.100
136.600	-4.180	0.100
136.700	-11.711	0.100
136.800	-11.668	0.100
136.900	-4.385	0.100
137.000	-6.091	0.100
137.100	-8.610	0.100
137.200	5.576	0.100
137.300	-3.731	0.100
137.400	-15.206	0.100
137.500	-0.533	0.100
137.600	-1.715	0.100
137.700	-18.806	0.100
137.800	-11.637	0.100
137.900	-13.202	0.100
138.000	-11.390	0.100
138.100	-3.835	0.100
138.200	8.273	0.100
138.300	-5.378	0.100
138.400	-14.449	0.100
138.500	-13.384	0.100
138.600	-12.016	0.100
138.700	-6.260	0.100
138.800	-12.500	0.100
138.900	-14.846	0.100
139.000	-4.127	0.100
139.100	-3.615	0.100
139.200	-5.975	0.100
139.300	-11.674	0.100
139.400	-0.527	0.100
139.500	-15.200	0.100
139.600	8.051	0.100
139.700	-2.724	0.100
139.800	-15.609	0.100
139.900	-14.119	0.100
140.000	-8.475	0.100
140.100	-7.728	0.100
140.200	-22.220	0.100
140.300	-19.600	0.100
140.400	-15.259	0.100
140.500	-2.262	0.100
140.600	6.124	0.100
140.700	-1.051	0.100
140.800	-9.549	0.100
140.900	-13.644	0.100
141.000	-8.024	0.100
141.100	-11.940	0.100
141.200	-9.336	0.100
141.300	-8.790	0.100
141.400	-12.556	0.100
141.500	-16.514	0.100
141.600	-1.861	0.100
141.700	-0.717	0.100
141.800	-2.332	0.100
141.900	-12.246	0.100
142.000	-9.216	0.100
142.100	2.288	0.100
142.200	-3.893	0.100
142.300	-17.991	0.100
142.400	-27.897	0.100
142.500	-9.318	0.100
142.600	4.910	0.100
142.700	-11.645	0.100
142.800	-10.813	0.100
142.900	-14.287	0.100
143.000	-14.194	0.100
143.100	-16.513	0.100
143.200	-6.458	0.100
143.300	-14.295	0.100
143.400	5.049	0.100
143.500	-4.359	0.100
143.600	-7.918	0.100
143.700	-20.986	0.100
143.800	-9.524	0.100
143.900	-8.596	0.100
144.000	-8.806	0.100
144.100	0.790	0.100
144.200	-31.739	0.100
144.300	-17.933	0.100
144.400	-3.541	0.100
144.500	-9.452	0.100
144.600	-1.092	0.100
144.700	-12.227	0.100
144.800	-20.755	0.100
144.900	-14.251	0.100
145.000	-14.430	0.100
145.100	-6.173	0.100
145.200	-11.004	0.100
145.300	-3.172	0.100
145.400	-28.240	0.100
145.500	-11.984	0.100
145.600	-8.593	0.100
145.700	-5.874	0.100
145.800	-4.944	0.100
145.900	-7.941	0.100
146.000	-4.716	0.100
146.100	-2.734	0.100
146.200	-4.683	0.100
146.300	-10.950	0.100
146.400	-23.883	0.100
146.500	-15.534	0.100
146.600	-12.987	0.100
146.700	-13.598	0.100
146.800	-6.496	0.100
146.900	-17.328	0.100
147.000	-11.723	0.100
147.100	-6.556	0.100
147.200	-3.015	0.100
147.300	-0.381	0.100
147.400	-12.183	0.100
147.500	-11.405	0.100
147.600	-11.841	0.100
147.700	-4.717	0.100
147.800	-16.979	0.100
147.900	-14.860	0.100
148.000	0.243	0.100
148.100	-12.151	0.100
148.200	-11.651	0.100
148.300	-7.427	0.100
148.400	-15.578	0.100
148.500	-20.130	0.100
148.600	-15.791	0.100
148.700	-10.612	0.100
148.800	-3.639	0.100
148.900	-6.321	0.100
149.000	-4.398	0.100
149.100	-16.313	0.100
149.200	-10.633	0.100
149.300	-11.165	0.100
149.400	-9.286	0.100
149.500	-5.276	0.100
149.600	-11.200	0.100
149.700	-3.132	0.100
149.800	-11.015	0.100
149.900	-5.538	0.100
150.000	-5.201	0.100
150.100	-10.598	0.100
150.200	-8.875	0.100
150.300	-15.330	0.100
150.400	-15.968	0.100
150.500	-12.203	0.100
150.600	-13.117	0.100
150.700	-7.633	0.100
150.800	-13.915	0.100
150.900	-18.163	0.100
151.000	-0.896	0.100
151.100	-1.274	0.100
151.200	-15.001	0.100
151.300	-10.321	0.100
151.400	-7.305	0.100
151.500	-8.453	0.100
151.600	-5.976	0.100
151.700	-9.409	0.100
151.800	-17.498	0.100
151.900	-11.890	0.100
152.000	-9.680	0.100
152.100	-1.056	0.100
152.200	-15.060	0.100
152.300	-8.908	0.100
152.400	-14.351	0.100
152.500	-12.906	0.100
152.600	-14.271	0.100
152.700	-13.302	0.100
152.800	-11.624	0.100
152.900	11.202	0.100
153.000	-10.061	0.100
153.100	-16.035	0.100
153.200	-14.940	0.100
153.300	-14.445	0.100
153.400	3.078	0.100
153.500	-11.163	0.100
153.600	-10.169	0.100
153.700	-11.188	0.100
153.800	-3.733	0.100
153.900	3.077	0.100
154.000	-14.011	0.100
154.100	-12.910	0.100
154.200	-11.653	0.100
154.300	-7.971	0.100
154.400	-21.627	0.100
154.500	-5.524	0.100
154.600	-15.267	0.100
154.700	-19.908	0.100
154.800	-10.317	0.100
154.900	-12.035	0.100
155.000	-10.919	0.100
155.100	-3.368	0.100
155.200	-7.085	0.100
155.300	-25.302	0.100
155.400	-4.879	0.100
155.500	-22.585	0.100
155.600	-3.929	0.100
155.700	-15.796	0.100
155.800	10.595	0.100
155.900	-11.452	0.100
156.000	-20.792	0.100
156.100	-3.717	0.100
156.200	-3.702	0.100
156.300	-12.741	0.100
156.400	-0.071	0.100
156.500	-10.059	0.100
156.600	-17.830	0.100
156.700	-19.205	0.100
156.800	-26.670	0.100
156.900	-22.478	0.100
157.000	-11.393	0.100
157.100	-6.429	0.100
157.200	-1.518	0.100
157.300	-6.744	0.100
157.400	6.258	0.100
157.500	-11.853	0.100
157.600	-1.987	0.100
157.700	-11.730	0.100
157.800	-7.813	0.100
157.900	-8.341	0.100
158.000	-8.665	0.100
158.100	-21.746	0.100
158.200	-17.116	0.100
158.300	1.034	0.100
158.400	-6.733	0.100
158.500	-1.115	0.100
158.600	-2.941	0.100
158.700	-9.453	0.100
158.800	-11.934	0.100
158.900	-19.063	0.100
159.000	-15.789	0.100
159.100	-12.432	0.100
159.200	-8.432	0.100
159.300	-6.945	0.100
159.400	-4.654	0.100
159.500	1.452	0.100
159.600	-22.900	0.100
159.700	-9.383	0.100
159.800	-14.758	0.100
159.900	-17.888	0.100
160.000	-3.392	0.100
160.100	-7.573	0.100
160.200	-10.571	0.100
160.300	-8.692	0.100
160.400	-2.739	0.100
160.500	-6.689	0.100
160.600	-1.396	0.100
160.700	-8.805	0.100
160.800	-14.358	0.100
160.900	-7.339	0.100
161.000	-17.256	0.100
161.100	-8.455	0.100
161.200	-3.938	0.100
161.300	-29.896	0.100
161.400	-1.887	0.100
161.500	-10.337	0.100
161.600	3.046	0.100
161.700	-14.264	0.100
161.800	-11.911	0.100
161.900	-12.310	0.100
162.000	-9.467	0.100
162.100	-1.685	0.100
162.200	-4.735	0.100
162.300	-5.296	0.100
162.400	-10.108	0.100
162.500	-17.695	0.100
162.600	-11.759	0.100
162.700	-10.716	0.100
162.800	2.132	0.100
162.900	-5.178	0.100
163.000	-10.260	0.100
163.100	-13.353	0.100
163.200	6.938	0.100
163.300	-8.701	0.100
163.400	-23.968	0.100
163.500	-7.129	0.100
163.600	-2.825	0.100
163.700	-8.351	0.100
163.800	-5.086	0.100
163.900	-4.698	0.100
164.000	-11.446	0.100
164.100	-10.313	0.100
164.200	-14.893	0.100
164.300	-5.820	0.100
164.400	-10.490	0.100
164.500	-13.462	0.100
164.600	-12.635	0.100
164.700	-1.945	0.100
164.800	-7.462	0.100
164.900	-9.819	0.100
165.000	-6.013	0.100
165.100	-7.550	0.100
165.200	-1.222	0.100
165.300	-11.060	0.100
165.400	9.063	0.100
165.500	-12.684	0.100
165.600	-12.523	0.100
165.700	-3.493	0.100
165.800	-8.152	0.100
165.900	-26.366	0.100
166.000	-10.064	0.100
166.100	-2.696	0.100
166.200	-0.861	0.100
166.300	-8.269	0.100
166.400	1.114	0.100
166.500	-9.155	0.100
166.600	-6.847	0.100
166.700	-12.738	0.100
166.800	-9.010	0.100
166.900	-12.915	0.100
167.000	-6.764	0.100
167.100	3.397	0.100
167.200	5.333	0.100
167.300	6.590	0.100
167.400	-8.903	0.100
167.500	-6.851	0.100
167.600	-7.928	0.100
167.700	-7.345	0.100
167.800	-13.222	0.100
167.900	-10.735	0.100
168.000	-9.533	0.100
168.100	-1.231	0.100
168.200	-12.306	0.100
168.300	-17.463	0.100
168.400	-7.532	0.100
168.500	-1.848	0.100
168.600	-4.343	0.100
168.700	-18.333	0.100
168.800	-1.953	0.100
168.900	-9.813	0.100
169.000	-10.952	0.100
169.100	-12.848	0.100
169.200	-12.719	0.100
169.300	-4.909	0.100
169.400	-5.636	0.100
169.500	-13.745	0.100
169.600	-11.206	0.100
169.700	3.562	0.100
169.800	-0.192	0.100
169.900	-5.217	0.100
170.000	-6.992	0.100
170.100	-7.080	0.100
170.200	-11.571	0.100
170.300	0.282	0.100
170.400	-17.481	0.100
170.500	-7.380	0.100
170.600	-1.676	0.100
170.700	1.561	0.100
170.800	-13.854	0.100
170.900	-22.315	0.100
171.000	-10.612	0.100
171.100	-12.863	0.100
171.200	-2.141	0.100
171.300	-11.695	0.100
171.400	-9.054	0.100
171.500	-6.785	0.100
171.600	-7.599	0.100
171.700	-7.628	0.100
171.800	-5.661	0.100
171.900	-0.433	0.100
172.000	-11.715	0.100
172.100	-12.488	0.100
172.200	-11.311	0.100
172.300	-4.621	0.100
172.400	-11.644	0.100
172.500	-5.891	0.100
172.600	-14.499	0.100
172.700	-11.770	0.100
172.800	-6.559	0.100
172.900	-1.109	0.100
173.000	-6.145	0.100
173.100	-9.009	0.100
173.200	-4.253	0.100
173.300	-0.681	0.100
173.400	-14.471	0.100
173.500	-8.582	0.100
173.600	-5.158	0.100
173.700	-5.751	0.100
173.800	-1.608	0.100
173.900	0.751	0.100
174.000	-3.096	0.100
174.100	-3.702	0.100
174.200	-20.234	0.100
174.300	-3.020	0.100
174.400	-9.135	0.100
174.500	-8.154	0.100
174.600	-4.515	0.100
174.700	-5.771	0.100
174.800	-6.964	0.100
174.900	-11.425	0.100
175.000	-13.038	0.100
175.100	-12.861	0.100
175.200	-10.818	0.100
175.300	6.639	0.100
175.400	-11.218	0.100
175.500	6.910	0.100
175.600	1.194	0.100
175.700	-13.317	0.100
175.800	-7.209	0.100
175.900	-10.211	0.100
176.000	-15.201	0.100
176.100	-7.651	0.100
176.200	-25.170	0.100
176.300	-1.838	0.100
176.400	-9.147	0.100
176.500	1.747	0.100
176.600	-9.204	0.100
176.700	-7.863	0.100
176.800	-18.357	0.100
176.900	-8.819	0.100
177.000	0.524	0.100
177.100	-4.619	0.100
177.200	-11.868	0.100
177.300	8.145	0.100
177.400	-1.081	0.100
177.500	-6.335	0.100
177.600	-0.189	0.100
177.700	-10.217	0.100
177.800	-14.705	0.100
177.900	-3.235	0.100
178.000	-19.059	0.100
178.100	-13.520	0.100
178.200	-3.191	0.100
178.300	1.430	0.100
178.400	-14.403	0.100
178.500	2.279	0.100
178.600	-17.677	0.100
178.700	0.025	0.100
178.800	-3.532	0.100
178.900	-6.139	0.100
179.000	-13.648	0.100
179.100	1.488	0.100
179.200	-11.226	0.100
179.300	4.277	0.100
179.400	-14.537	0.100
179.500	-0.877	0.100
179.600	10.481	0.100
179.700	-1.436	0.100
179.800	-12.937	0.100
179.900	-22.528	0.100
180.000	-11.825	0.100
180.100	3.045	0.100
180.200	-6.619	0.100
180.300	-9.028	0.100
180.400	-8.999	0.100
180.500	-1.638	0.100
180.600	-2.182	0.100
180.700	9.619	0.100
180.800	18.714	0.100
180.900	14.605	0.100
181.000	11.852	0.100
181.100	13.412	0.100
181.200	19.761	0.100
181.300	22.699	0.100
181.400	13.518	0.100
181.500	10.064	0.100
181.600	8.662	0.100
181.700	24.201	0.100
181.800	42.433	0.100
181.900	26.359	0.100
182.000	31.013	0.100
182.100	25.969	0.100
182.200	43.751	0.100
182.300	31.709	0.100
182.400	48.756	0.100
182.500	34.578	0.100
182.600	34.466	0.100
182.700	30.954	0.100
182.800	36.979	0.100
182.900	44.894	0.100
183.000	41.225	0.100
183.100	42.290	0.100
183.200	36.386	0.100
183.300	27.575	0.100
183.400	43.608	0.100
183.500	30.564	0.100
183.600	50.671	0.100
183.700	53.443	0.100
183.800	55.094	0.100
183.900	39.286	0.100
184.000	49.664	0.100
184.100	50.956	0.100
184.200	49.288	0.100
184.300	38.280	0.100
184.400	41.180	0.100
184.500	39.708	0.100
184.600	45.429	0.100
184.700	62.766	0.100
184.800	54.275	0.100
184.900	44.392	0.100
185.000	34.952	0.100
185.100	33.960	0.100
185.200	53.932	0.100
185.300	52.680	0.100
185.400	53.870	0.100
185.500	49.228	0.100
185.600	33.045	0.100
185.700	52.738	0.100
185.800	43.395	0.100
185.900	29.312	0.100
186.000	50.190	0.100
186.100	45.029	0.100
186.200	40.062	0.100
186.300	45.379	0.100
186.400	30.770	0.100
186.500	42.803	0.100
186.600	47.858	0.100
186.700	37.125	0.100
186.800	34.868	0.100
186.900	30.874	0.100
187.000	48.234	0.100
187.100	39.986	0.100
187.200	38.469	0.100
187.300	42.413	0.100
187.400	46.884	0.100
187.500	37.803	0.100
187.600	43.848	0.100
187.700	56.165	0.100
187.800	43.935	0.100
187.900	33.265	0.100
188.000	38.577	0.100
188.100	27.884	0.100
188.200	36.347	0.100
188.300	36.921	0.100
188.400	42.319	0.100
188.500	36.522	0.100
188.600	38.282	0.100
188.700	42.243	0.100
188.800	45.802	0.100
188.900	48.358	0.100
189.000	40.719	0.100
189.100	40.662	0.100
189.200	47.440	0.100
189.300	49.475	0.100
189.400	41.609	0.100
189.500	32.602	0.100
189.600	30.327	0.100
189.700	37.323	0.100
189.800	35.165	0.100
189.900	50.547	0.100
190.000	49.901	0.100
190.100	46.809	0.100
190.200	45.719	0.100
190.300	44.923	0.100
190.400	49.008	0.100
190.500	39.514	0.100
190.600	43.028	0.100
190.700	39.207	0.100
190.800	34.915	0.100
190.900	46.755	0.100
191.000	36.961	0.100
191.100	36.990	0.100
191.200	28.255	0.100
191.300	44.554	0.100
191.400	43.672	0.100
191.500	26.812	0.100
191.600	36.476	0.100
191.700	57.504	0.100
191.800	37.616	0.100
191.900	49.175	0.100
192.000	37.980	0.100
192.100	44.537	0.100
192.200	47.013	0.100
192.300	42.500	0.100
192.400	43.512	0.100
192.500	48.024	0.100
192.600	46.985	0.100
192.700	41.816	0.100
192.800	42.815	0.100
192.900	46.639	0.100
193.000	54.054	0.100
193.100	37.213	0.100
193.200	47.988	0.100
193.300	48.418	0.100
193.400	37.889	0.100
193.500	43.713	0.100
193.600	46.924	0.100
193.700	51.118	0.100
193.800	45.533	0.100
193.900	42.863	0.100
194.000	40.019	0.100
194.100	41.722	0.100
194.200	49.361	0.100
194.300	45.318	0.100
194.400	42.458	0.100
194.500	50.261	0.100
194.600	32.713	0.100
194.700	40.755	0.100
194.800	53.159	0.100
194.900	62.906	0.100
195.000	50.054	0.100
195.100	40.289	0.100
195.200	45.615	0.100
195.300	26.022	0.100
195.400	52.796	0.100
195.500	46.581	0.100
195.600	39.658	0.100
195.700	47.019	0.100
195.800	41.072	0.100
195.900	42.128	0.100
196.000	52.026	0.100
196.100	45.328	0.100
196.200	47.825	0.100
196.300	44.573	0.100
196.400	36.874	0.100
196.500	28.335	0.100
196.600	53.634	0.100
196.700	43.236	0.100
196.800	53.679	0.100
196.900	48.530	0.100
197.000	49.234	0.100
197.100	39.571	0.100
197.200	49.563	0.100
197.300	52.704	0.100
197.400	52.705	0.100
197.500	39.805	0.100
197.600	53.690	0.100
197.700	53.248	0.100
197.800	49.138	0.100
197.900	54.783	0.100
198.000	57.098	0.100
198.100	51.579	0.100
198.200	49.296	0.100
198.300	35.743	0.100
198.400	54.116	0.100
198.500	42.178	0.100
198.600	51.537	0.100
198.700	50.153	0.100
198.800	54.117	0.100
198.900	51.330	0.100
199.000	55.390	0.100
199.100	49.769	0.100
199.200	61.150	0.100
199.300	42.540	0.100
199.400	37.408	0.100
199.500	45.315	0.100
199.600	39.865	0.100
199.700	50.798	0.100
199.800	58.165	0.100
199.900	66.921	0.100
200.000	58.431	0.100
200.100	35.033	0.100
200.200	37.915	0.100
200.300	43.484	0.100
200.400	68.247	0.100
200.500	62.608	0.100
200.600	62.767	0.100
200.700	44.653	0.100
200.800	51.206	0.100
200.900	57.096	0.100
201.000	51.033	0.100
201.100	44.928	0.100
201.200	59.242	0.100
201.300	49.662	0.100
201.400	49.003	0.100
201.500	58.017	0.100
201.600	56.519	0.100
201.700	45.374	0.100
201.800	51.390	0.100
201.900	64.785	0.100
202.000	59.312	0.100
202.100	62.730	0.100
202.200	44.578	0.100
202.300	43.149	0.100
202.400	46.313	0.100
202.500	55.229	0.100
202.600	60.576	0.100
202.700	41.218	0.100
202.800	46.751	0.100
202.900	59.370	0.100
203.000	37.231	0.100
203.100	61.636	0.100
203.200	51.850	0.100
203.300	66.558	0.100
203.400	65.424	0.100
203.500	61.660	0.100
203.600	55.943	0.100
203.700	52.946	0.100
203.800	37.904	0.100
203.900	61.482	0.100
204.000	61.307	0.100
204.100	68.463	0.100
204.200	47.701	0.100
204.300	51.538	0.100
204.400	53.504	0.100
204.500	56.600	0.100
204.600	52.896	0.100
204.700	54.831	0.100
204.800	48.611	0.100
204.900	55.819	0.099
205.000	56.173	0.099
205.100	52.919	0.099
205.200	44.760	0.099
205.300	47.323	0.099
205.400	66.558	0.099
205.500	62.597	0.099
205.600	51.277	0.099
205.700	54.465	0.099
205.800	50.624	0.099
205.900	51.066	0.099
206.000	48.982	0.099
206.100	59.756	0.099
206.200	65.087	0.099
206.300	49.471	0.099
206.400	48.284	0.099
206.500	64.101	0.099
206.600	53.557	0.099
206.700	62.154	0.099
206.800	60.052	0.099
206.900	54.715	0.099
207.000	56.131	0.099
207.100	54.406	0.099
207.200	51.984	0.099
207.300	51.356	0.099
207.400	64.039	0.099
207.500	51.076	0.099
207.600	59.078	0.099
207.700	48.142	0.099
207.800	69.284	0.099
207.900	68.390	0.099
208.000	55.159	0.099
208.100	46.821	0.099
208.200	46.535	0.099
208.300	54.310	0.099
208.400	63.759	0.099
208.500	51.922	0.099
208.600	54.438	0.099
208.700	66.329	0.099
208.800	52.696	0.099
208.900	54.506	0.099
209.000	56.340	0.099
209.100	64.089	0.099
209.200	58.887	0.099
209.300	56.307	0.099
209.400	54.526	0.099
209.500	61.754	0.099
209.600	51.823	0.099
209.700	46.197	0.099
209.800	63.615	0.099
209.900	58.870	0.099
210.000	54.637	0.099
210.100	56.106	0.099
210.200	50.020	0.099
210.300	53.789	0.099
210.400	53.713	0.099
210.500	51.443	0.099
210.600	48.857	0.099
210.700	62.701	0.099
210.800	47.948	0.099
210.900	53.821	0.099
211.000	65.458	0.099
211.100	67.176	0.099
211.200	70.023	0.099
211.300	46.475	0.099
211.400	54.827	0.099
211.500	55.857	0.099
211.600	59.046	0.099
211.700	51.255	0.099
211.800	69.512	0.099
211.900	54.835	0.099
212.000	46.075	0.099
212.100	49.105	0.099
212.200	64.225	0.099
212.300	64.792	0.099
212.400	55.165	0.099
212.500	56.411	0.099
212.600	60.637	0.099
212.700	56.056	0.099
212.800	56.229	0.099
212.900	61.787	0.099
213.000	76.105	0.099
213.100	59.593	0.099
213.200	58.035	0.099
213.300	44.293	0.099
213.400	63.233	0.099
213.500	67.094	0.099
213.600	59.029	0.099
213.700	65.961	0.099
213.800	65.147	0.099
213.900	53.477	0.099
214.000	54.396	0.099
214.100	61.112	0.099
214.200	63.625	0.099
214.300	68.572	0.099
214.400	48.684	0.099
214.500	52.068	0.099
214.600	58.053	0.099
214.700	49.990	0.099
214.800	39.111	0.099
214.900	74.205	0.099
215.000	57.222	0.099
215.100	68.789	0.099
215.200	61.069	0.099
215.300	74.861	0.099
215.400	55.737	0.099
215.500	51.124	0.099
215.600	50.190	0.099
215.700	71.606	0.099
215.800	54.690	0.099
215.900	66.820	0.099
216.000	65.776	0.099
216.100	56.216	0.099
216.200	35.636	0.099
216.300	58.482	0.099
216.400	66.154	0.099
216.500	64.934	0.099
216.600	61.467	0.099
216.700	63.616	0.099
216.800	63.620	0.099
216.900	72.737	0.099
217.000	45.536	0.099
217.100	64.970	0.099
217.200	53.461	0.099
217.300	71.422	0.099
217.400	59.770	0.099
217.500	61.163	0.099
217.600	60.198	0.099
217.700	59.287	0.099
217.800	50.978	0.099
217.900	70.022	0.099
218.000	50.405	0.099
218.100	66.289	0.099
218.200	61.815	0.099
218.300	62.677	0.099
218.400	48.269	0.099
218.500	56.893	0.099
218.600	54.411	0.099
218.700	63.998	0.099
218.800	64.349	0.099
218.900	64.174	0.099
219.000	60.588	0.099
219.100	62.581	0.099
219.200	49.808	0.099
219.300	64.015	0.099
219.400	64.478	0.099
219.500	52.046	0.099
219.600	44.091	0.099
219.700	68.595	0.099
219.800	66.442	0.099
219.900	61.310	0.099
220.000	54.601	0.099
220.100	56.346	0.099
220.200	63.811	0.099
220.300	71.769	0.099
220.400	55.800	0.099
220.500	59.153	0.099
220.600	58.274	0.099
220.700	50.519	0.099
220.800	62.409	0.099
220.900	65.845	0.099
221.000	65.848	0.099
221.100	63.946	0.099
221.200	64.042	0.099
221.300	64.017	0.099
221.400	66.697	0.099
221.500	64.928	0.099
221.600	57.451	0.100
221.700	56.268	0.100
221.800	56.312	0.100
221.900	62.602	0.100
222.000	44.432	0.100
222.100	56.574	0.100
222.200	63.255	0.100
222.300	74.330	0.100
222.400	63.066	0.100
222.500	54.702	0.100
222.600	56.520	0.100
222.700	59.079	0.100
222.800	62.963	0.100
222.900	59.445	0.100
223.000	68.113	0.100
223.100	54.147	0.100
223.200	64.602	0.100
223.300	63.225	0.100
223.400	53.325	0.100
223.500	56.794	0.100
223.600	66.994	0.100
223.700	55.701	0.100
223.800	63.561	0.100
223.900	52.135	0.100
224.000	47.287	0.100
224.100	73.732	0.100
224.200	48.182	0.100
224.300	58.102	0.100
224.400	57.304	0.100
224.500	62.665	0.100
224.600	61.942	0.100
224.700	62.371	0.100
224.800	60.879	0.100
224.900	46.110	0.100
225.000	48.090	0.100
225.100	63.485	0.100
225.200	61.737	0.100
225.300	65.937	0.100
225.400	65.882	0.100
225.500	55.745	0.100
225.600	60.145	0.100
225.700	69.304	0.100
225.800	57.915	0.100
225.900	57.666	0.100
226.000	55.079	0.100
226.100	48.551	0.100
226.200	60.385	0.100
226.300	55.671	0.100
226.400	50.432	0.100
226.500	52.058	0.100
226.600	53.044	0.100
226.700	55.404	0.100
226.800	70.850	0.100
226.900	58.947	0.100
227.000	48.537	0.100
227.100	61.514	0.100
227.200	51.681	0.100
227.300	60.137	0.100
227.400	66.423	0.100
227.500	53.287	0.100
227.600	55.836	0.100
227.700	68.427	0.100
227.800	67.418	0.100
227.900	67.000	0.100
228.000	55.879	0.100
228.100	70.577	0.100
228.200	57.645	0.100
228.300	52.569	0.100
228.400	47.491	0.100
228.500	63.951	0.100
228.600	69.286	0.100
228.700	59.089	0.100
228.800	57.658	0.100
228.900	53.818	0.100
229.000	61.693	0.100
229.100	68.029	0.100
229.200	71.866	0.100
229.300	61.620	0.100
229.400	64.119	0.100
229.500	59.201	0.100
229.600	68.974	0.100
229.700	70.784	0.100
229.800	61.136	0.100
229.900	52.907	0.100
230.000	49.468	0.100
230.100	52.838	0.100
230.200	67.335	0.100
230.300	49.998	0.100
230.400	56.592	0.100
230.500	58.637	0.100
230.600	66.103	0.100
230.700	61.951	0.100
230.800	48.366	0.100
230.900	67.809	0.100
231.000	62.193	0.100
231.100	65.519	0.100
231.200	67.911	0.100
231.300	67.199	0.100
231.400	45.801	0.100
231.500	64.937	0.100
231.600	65.622	0.100
231.700	59.594	0.100
231.800	69.838	0.100
231.900	62.180	0.100
232.000	67.379	0.100
232.100	55.125	0.100
232.200	49.600	0.100
232.300	61.034	0.100
232.400	70.698	0.100
232.500	54.313	0.100
232.600	59.964	0.100
232.700	55.618	0.100
232.800	52.584	0.100
232.900	59.389	0.100
233.000	54.350	0.100
233.100	39.850	0.100
233.200	64.399	0.100
233.300	63.506	0.100
233.400	54.118	0.100
233.500	55.020	0.100
233.600	53.489	0.100
233.700	69.135	0.100
233.800	67.006	0.100
233.900	53.314	0.100
234.000	56.605	0.100
234.100	55.794	0.100
234.200	68.784	0.100
234.300	73.461	0.100
234.400	64.508	0.100
234.500	67.529	0.100
234.600	69.078	0.100
234.700	41.495	0.100
234.800	64.199	0.100
234.900	61.870	0.100
235.000	62.071	0.100
235.100	59.608	0.100
235.200	54.838	0.100
235.300	60.652	0.100
235.400	48.342	0.100
235.500	51.246	0.100
235.600	62.772	0.100
235.700	46.857	0.100
235.800	66.462	0.100
235.900	61.866	0.100
236.000	45.489	0.100
236.100	56.577	0.100
236.200	71.372	0.100
236.300	74.732	0.100
236.400	63.431	0.100
236.500	68.779	0.100
236.600	49.526	0.100
236.700	59.741	0.100
236.800	53.131	0.100
236.900	61.293	0.100
237.000	68.642	0.100
237.100	61.008	0.100
237.200	68.452	0.100
237.300	61.023	0.100
237.400	54.000	0.100
237.500	55.914	0.100
237.600	46.825	0.100
237.700	63.720	0.100
237.800	65.841	0.100
237.900	58.052	0.100
238.000	58.452	0.100
238.100	55.683	0.100
238.200	62.772	0.100
238.300	51.151	0.100
238.400	57.314	0.100
238.500	57.312	0.100
238.600	45.247	0.100
238.700	70.396	0.100
238.800	68.383	0.100
238.900	59.615	0.100
239.000	50.953	0.100
239.100	60.970	0.100
239.200	59.332	0.100
239.300	55.763	0.100
239.400	70.132	0.100
239.500	53.324	0.100
239.600	62.271	0.100
239.700	56.940	0.100
239.800	45.090	0.100
239.900	52.625	0.100
240.000	61.963	0.100
240.100	58.585	0.100
240.200	52.315	0.100
240.300	61.988	0.100
240.400	62.574	0.100
240.500	53.203	0.100
240.600	31.240	0.100
240.700	56.128	0.100
240.800	50.658	0.100
240.900	52.936	0.100
241.000	51.429	0.100
241.100	33.383	0.100
241.200	34.635	0.100
241.300	22.806	0.100
241.400	33.845	0.100
241.500	28.158	0.100
241.600	29.150	0.100
241.700	27.040	0.100
241.800	33.662	0.100
241.900	18.974	0.100
242.000	28.276	0.100
242.100	17.660	0.100
242.200	19.991	0.100
242.300	16.691	0.100
242.400	25.110	0.100
242.500	16.200	0.100
242.600	24.088	0.100
242.700	26.972	0.100
242.800	8.247	0.100
242.900	3.950	0.100
243.000	16.667	0.100
243.100	19.427	0.100
243.200	23.525	0.100
243.300	13.041	0.100
243.400	28.780	0.100
243.500	7.091	0.100
243.600	9.371	0.100
243.700	25.649	0.100
243.800	29.279	0.100
243.900	16.881	0.100
244.000	19.078	0.100
244.100	16.362	0.100
244.200	6.281	0.100
244.300	9.745	0.100
244.400	7.960	0.100
244.500	13.866	0.100
244.600	10.247	0.100
244.700	14.051	0.100
244.800	-4.399	0.100
244.900	1.487	0.100
245.000	15.828	0.100
245.100	12.570	0.100
245.200	8.491	0.100
245.300	3.765	0.100
245.400	17.603	0.100
245.500	1.421	0.100
245.600	14.727	0.100
245.700	6.072	0.100
245.800	12.054	0.100
245.900	8.462	0.100
246.000	4.699	0.100
246.100	17.076	0.100
246.200	6.637	0.100
246.300	4.133	0.100
246.400	4.505	0.100
246.500	8.621	0.100
246.600	8.818	0.100
246.700	12.659	0.100
246.800	12.790	0.100
246.900	11.695	0.100
247.000	12.201	0.100
247.100	-3.487	0.100
247.200	14.515	0.100
247.300	6.459	0.100
247.400	5.965	0.100
247.500	3.877	0.100
247.600	18.791	0.100
247.700	10.066	0.100
247.800	6.139	0.100
247.900	2.269	0.100
248.000	13.163	0.100
248.100	2.266	0.100
248.200	15.115	0.100
248.300	13.595	0.100
248.400	17.206	0.100
248.500	10.923	0.100
248.600	4.687	0.100
248.700	19.785	0.100
248.800	2.878	0.100
248.900	2.150	0.100
249.000	6.740	0.100
249.100	11.548	0.100
249.200	16.024	0.100
249.300	5.895	0.100
249.400	4.596	0.100
249.500	14.800	0.100
249.600	13.707	0.100
249.700	9.153	0.100
249.800	14.666	0.100
249.900	11.616	0.100
250.000	2.775	0.100
250.100	7.743	0.100
250.200	9.892	0.100
250.300	14.584	0.100
250.400	3.903	0.100
250.500	-14.281	0.100
250.600	13.021	0.100
250.700	3.528	0.100
250.800	-9.353	0.100
250.900	11.105	0.100
251.000	0.588	0.100
251.100	-11.552	0.100
251.200	0.001	0.100
251.300	4.526	0.100
251.400	5.898	0.100
251.500	6.030	0.100
251.600	15.393	0.100
251.700	5.674	0.100
251.800	1.335	0.100
251.900	15.030	0.100
252.000	7.526	0.100
252.100	-3.736	0.100
252.200	2.040	0.100
252.300	-1.894	0.100
252.400	-1.762	0.100
252.500	7.515	0.100
252.600	-1.428	0.100
252.700	-2.057	0.100
252.800	2.642	0.100
252.900	-13.523	0.100
253.000	6.484	0.100
253.100	-2.409	0.100
253.200	5.680	0.100
253.300	2.759	0.100
253.400	-8.500	0.100
253.500	16.405	0.100
253.600	3.815	0.100
253.700	1.863	0.100
253.800	0.205	0.100
253.900	9.695	0.100
254.000	2.078	0.100
254.100	3.035	0.100
254.200	-6.729	0.100
254.300	6.333	0.100
254.400	10.028	0.100
254.500	3.989	0.100
254.600	2.107	0.100
254.700	0.483	0.100
254.800	-6.064	0.100
254.900	-6.018	0.100
255.000	9.859	0.100
255.100	-2.915	0.100
255.200	-6.973	0.100
255.300	-7.994	0.100
255.400	5.757	0.100
255.500	-2.146	0.100
255.600	-3.426	0.100
255.700	9.035	0.100
255.800	9.344	0.100
255.900	10.858	0.100
256.000	1.387	0.100
256.100	-5.995	0.100
256.200	-5.251	0.100
256.300	-10.812	0.100
256.400	-4.744	0.100
256.500	-2.167	0.100
256.600	-2.797	0.100
256.700	-1.633	0.100
256.800	-15.439	0.100
256.900	-0.556	0.100
257.000	5.801	0.100
257.100	-11.336	0.100
257.200	-1.511	0.100
257.300	-2.787	0.100
257.400	-4.287	0.100
257.500	-12.222	0.100
257.600	-7.891	0.100
257.700	-6.738	0.100
257.800	-3.182	0.100
257.900	2.755	0.100
258.000	-11.965	0.100
258.100	-3.665	0.100
258.200	-6.277	0.100
258.300	-10.248	0.100
258.400	-1.263	0.100
258.500	2.615	0.100
258.600	5.990	0.100
258.700	-7.991	0.100
258.800	-0.088	0.100
258.900	-5.337	0.100
259.000	-8.052	0.100
259.100	1.314	0.100
259.200	-1.835	0.100
259.300	3.050	0.100
259.400	-14.338	0.100
259.500	-21.096	0.100
259.600	-13.467	0.100
259.700	-2.194	0.100
259.800	-1.707	0.100
259.900	-9.940	0.100
260.000	-9.230	0.100
260.100	-4.625	0.100
260.200	-9.968	0.100
260.300	-24.799	0.100
260.400	0.324	0.100
260.500	0.544	0.100
260.600	4.950	0.100
260.700	-7.067	0.100
260.800	-7.708	0.100
260.900	-14.352	0.100
261.000	-10.609	0.099
261.100	-12.232	0.099
261.200	0.081	0.099
261.300	-1.754	0.099
261.400	0.431	0.099
261.500	-8.254	0.099
261.600	-9.716	0.099
261.700	-11.803	0.099
261.800	-17.377	0.099
261.900	-7.191	0.099
262.000	-17.060	0.099
262.100	-2.786	0.099
262.200	4.956	0.099
262.300	-14.132	0.099
262.400	1.256	0.099
262.500	-10.630	0.099
262.600	-17.188	0.099
262.700	-18.888	0.099
262.800	-10.229	0.099
262.900	-14.461	0.099
263.000	-1.259	0.099
263.100	-6.995	0.099
263.200	13.260	0.099
263.300	-1.732	0.099
263.400	5.358	0.099
263.500	-18.287	0.099
263.600	-15.514	0.099
263.700	-14.701	0.099
263.800	-13.556	0.099
263.900	-8.446	0.099
264.000	-2.340	0.099
264.100	0.878	0.099
264.200	-12.308	0.099
264.300	-27.479	0.099
264.400	-17.774	0.099
264.500	-8.589	0.099
264.600	-2.168	0.099
264.700	-5.156	0.099
264.800	-7.694	0.099
264.900	-2.482	0.099
265.000	-10.528	0.099
265.100	-12.975	0.099
265.200	-12.720	0.099
265.300	-26.002	0.099
265.400	-13.859	0.099
265.500	-20.807	0.099
265.600	7.779	0.099
265.700	-2.625	0.099
265.800	-5.760	0.099
265.900	-11.573	0.099
266.000	0.657	0.099
266.100	-13.652	0.099
266.200	-3.611	0.099
266.300	4.510	0.099
266.400	-7.076	0.099
266.500	-16.984	0.099
266.600	-19.975	0.099
266.700	-7.987	0.099
266.800	-16.237	0.099
266.900	-12.753	0.099
267.000	-15.516	0.099
267.100	-8.596	0.099
267.200	-15.370	0.099
267.300	-10.431	0.099
267.400	-7.247	0.099
267.500	-14.271	0.099
267.600	-23.210	0.099
267.700	-12.842	0.099
267.800	-16.111	0.099
267.900	-11.181	0.099
268.000	-15.767	0.099
268.100	-3.805	0.099
268.200	3.971	0.099
268.300	-7.509	0.099
268.400	-15.362	0.099
268.500	-14.409	0.099
268.600	-2.661	0.099
268.700	-13.791	0.099
268.800	-18.763	0.099
268.900	-10.840	0.099
269.000	-12.255	0.099
269.100	-7.689	0.099
269.200	-2.575	0.099
269.300	-14.847	0.099
269.400	-14.856	0.099
269.500	-7.449	0.099
269.600	-16.638	0.099
269.700	-18.870	0.099
269.800	-16.148	0.099
269.900	-7.382	0.099
270.000	-20.628	0.099
270.100	-18.923	0.099
270.200	-15.342	0.099
270.300	-14.530	0.099
270.400	-12.030	0.099
270.500	-8.036	0.099
270.600	-18.693	0.099
270.700	-10.367	0.099
270.800	-14.010	0.099
270.900	-12.280	0.099
271.000	-7.061	0.099
271.100	-29.735	0.099
271.200	-32.312	0.099
271.300	-1.694	0.099
271.400	-9.555	0.099
271.500	-10.581	0.099
271.600	-24.713	0.099
271.700	-15.575	0.099
271.800	-7.466	0.099
271.900	-23.525	0.099
272.000	-29.862	0.099
272.100	-3.735	0.099
272.200	-12.526	0.099
272.300	-25.524	0.099
272.400	-15.382	0.099
272.500	0.710	0.099
272.600	-26.186	0.099
272.700	-20.319	0.099
272.800	-20.402	0.099
272.900	-6.304	0.099
273.000	-13.255	0.099
273.100	-11.258	0.099
273.200	-8.329	0.099
273.300	-8.944	0.099
273.400	-20.376	0.099
273.500	-17.937	0.099
273.600	-18.711	0.099
273.700	-20.471	0.099
273.800	-17.980	0.099
273.900	-23.985	0.099
274.000	-26.863	0.099
274.100	-11.169	0.099
274.200	-15.545	0.099
274.300	-9.237	0.099
274.400	-9.996	0.099
274.500	-19.897	0.099
274.600	-17.900	0.099
274.700	-18.510	0.099
274.800	-21.473	0.099
274.900	-7.797	0.099
275.000	-8.830	0.099
275.100	-4.757	0.099
275.200	-16.519	0.099
275.300	-23.784	0.099
275.400	-28.795	0.099
275.500	-16.558	0.099
275.600	-24.331	0.099
275.700	-14.540	0.099
275.800	-12.302	0.099
275.900	-29.192	0.099
276.000	-14.428	0.099
276.100	-13.150	0.099
276.200	-19.800	0.099
276.300	-15.224	0.099
276.400	-15.024	0.099
276.500	-6.162	0.099
276.600	-23.729	0.099
276.700	-25.510	0.099
276.800	-17.275	0.099
276.900	-31.486	0.099
277.000	-15.766	0.099
277.100	-9.366	0.099
277.200	-13.467	0.099
277.300	-29.121	0.099
277.400	0.519	0.099
277.500	-15.726	0.099
277.600	-12.002	0.099
277.700	-18.524	0.099
277.800	-14.935	0.099
277.900	-22.269	0.099
278.000	-13.776	0.099
278.100	-9.319	0.100
278.200	-21.599	0.100
278.300	-18.512	0.100
278.400	-19.694	0.100
278.500	-34.917	0.100
278.600	-10.274	0.100
278.700	-20.750	0.100
278.800	-4.486	0.100
278.900	-17.977	0.100
279.000	-22.281	0.100
279.100	-23.281	0.100
279.200	-24.814	0.100
279.300	-25.912	0.100
279.400	-6.380	0.100
279.500	-16.573	0.100
279.600	-22.935	0.100
279.700	-16.651	0.100
279.800	-26.075	0.100
279.900	-22.272	0.100
280.000	-21.262	0.100
280.100	-23.452	0.100
280.200	-11.279	0.100
280.300	-20.258	0.100
280.400	-16.056	0.100
280.500	-19.783	0.100
280.600	-27.032	0.100
280.700	-13.516	0.100
280.800	-13.816	0.100
280.900	-8.377	0.100
281.000	-15.525	0.100
281.100	-24.282	0.100
281.200	-17.925	0.100
281.300	-19.474	0.100
281.400	-14.468	0.100
281.500	-24.533	0.100
281.600	-27.271	0.100
281.700	-15.527	0.100
281.800	-30.003	0.100
281.900	-9.913	0.100
282.000	-26.383	0.100
282.100	-22.511	0.100
282.200	-26.768	0.100
282.300	-29.847	0.100
282.400	-13.803	0.100
282.500	-7.917	0.100
282.600	-16.064	0.100
282.700	-17.438	0.100
282.800	-20.872	0.100
282.900	-4.618	0.100
283.000	-15.385	0.100
283.100	-20.990	0.100
283.200	-26.974	0.100
283.300	-17.573	0.100
283.400	-15.150	0.100
283.500	-13.879	0.100
283.600	-23.482	0.100
283.700	-10.387	0.100
283.800	-8.975	0.100
283.900	-19.746	0.100
284.000	-25.737	0.100
284.100	-16.718	0.100
284.200	-23.560	0.100
284.300	-23.858	0.100
284.400	-24.658	0.100
284.500	-15.258	0.100
284.600	-20.924	0.100
284.700	-22.211	0.100
284.800	-21.094	0.100
284.900	-15.374	0.100
285.000	-18.020	0.100
285.100	-13.244	0.100
285.200	-24.279	0.100
285.300	-28.662	0.100
285.400	-18.580	0.100
285.500	-13.761	0.100
285.600	-22.079	0.100
285.700	-19.233	0.100
285.800	-14.281	0.100
285.900	-24.716	0.100
286.000	-28.481	0.100
286.100	-11.133	0.100
286.200	-18.797	0.100
286.300	-20.521	0.100
286.400	-27.310	0.100
286.500	-18.857	0.100
286.600	-17.986	0.100
286.700	-6.871	0.100
286.800	-22.555	0.100
286.900	-15.158	0.100
287.000	-25.745	0.100
287.100	-25.559	0.100
287.200	-12.465	0.100
287.300	-28.701	0.100
287.400	-30.112	0.100
287.500	-19.944	0.100
287.600	-19.695	0.100
287.700	-23.321	0.100
287.800	-19.014	0.100
287.900	-15.025	0.100
288.000	-18.051	0.100
288.100	-9.355	0.100
288.200	-15.313	0.100
288.300	-34.191	0.100
288.400	-17.427	0.100
288.500	-16.192	0.100
288.600	-21.353	0.100
288.700	-21.698	0.100
288.800	-24.887	0.100
288.900	-21.025	0.100
289.000	-10.461	0.100
289.100	-21.541	0.100
289.200	-14.442	0.100
289.300	-21.725	0.100
289.400	-26.177	0.100
289.500	-35.811	0.100
289.600	-9.855	0.100
289.700	-18.242	0.100
289.800	-12.474	0.100
289.900	-31.936	0.100
290.000	-14.156	0.100
290.100	-18.122	0.100
290.200	-27.892	0.100
290.300	-23.785	0.100
290.400	-19.774	0.100
290.500	-17.752	0.100
290.600	-16.683	0.100
290.700	-9.221	0.100
290.800	-12.467	0.100
290.900	-22.589	0.100
291.000	-10.636	0.100
291.100	-32.980	0.100
291.200	-20.304	0.100
291.300	-17.821	0.100
291.400	-20.473	0.100
291.500	-19.749	0.100
291.600	-21.820	0.100
291.700	-4.069	0.100
291.800	-27.385	0.100
291.900	-22.835	0.100
292.000	-14.120	0.100
292.100	-18.761	0.100
292.200	-19.918	0.100
292.300	-26.494	0.100
292.400	-18.566	0.100
292.500	-27.873	0.100
292.600	-23.838	0.100
292.700	-21.804	0.100
292.800	-13.042	0.100
292.900	-22.443	0.100
293.000	-28.622	0.100
293.100	-25.003	0.100
293.200	-17.189	0.100
293.300	-22.935	0.100
293.400	-12.737	0.100
293.500	-22.040	0.100
293.600	-23.794	0.100
293.700	-23.634	0.100
293.800	-15.558	0.100
293.900	-21.812	0.100
294.000	-9.970	0.100
294.100	-13.626	0.100
294.200	-11.247	0.100
294.300	-23.267	0.100
294.400	-25.016	0.100
294.500	-27.846	0.100
294.600	-23.214	0.100
294.700	-19.361	0.100
294.800	-16.696	0.100
294.900	-24.471	0.100
295.000	-5.450	0.100
295.100	-20.594	0.100
295.200	-18.464	0.100
295.300	-14.014	0.100
295.400	-15.240	0.100
295.500	-21.339	0.100
295.600	-13.076	0.100
295.700	-18.967	0.100
295.800	-18.657	0.100
295.900	-26.093	0.100
296.000	-26.533	0.100
296.100	-24.710	0.100
296.200	-5.129	0.100
296.300	-33.758	0.100
296.400	-34.734	0.100
296.500	-32.270	0.100
296.600	-8.611	0.100
296.700	-8.431	0.100
296.800	-6.641	0.100
296.900	-21.383	0.100
297.000	-10.328	0.100
297.100	-11.482	0.100
297.200	-20.067	0.100
297.300	-24.633	0.100
297.400	-10.584	0.100
297.500	-24.731	0.100
297.600	-13.639	0.100
297.700	-24.368	0.100
297.800	-22.528	0.100
297.900	-17.568	0.100
298.000	-13.532	0.100
298.100	-23.718	0.100
298.200	-24.715	0.100
298.300	-22.655	0.100
298.400	-11.878	0.100
298.500	-12.196	0.100
298.600	-32.556	0.100
298.700	-13.402	0.100
298.800	-18.582	0.100
298.900	-30.257	0.100
299.000	-10.930	0.100
299.100	-21.219	0.100
299.200	-16.817	0.100
299.300	-13.999	0.100
299.400	-19.446	0.100
299.500	-12.800	0.100
299.600	-15.379	0.100
299.700	-15.088	0.100
299.800	-15.895	0.100
299.900	-10.523	0.100
300.000	-21.568	0.100
300.100	-21.138	0.100
300.200	-15.409	0.100
300.300	-13.138	0.100
300.400	-16.020	0.100
300.500	-11.291	0.100
300.600	-40.761	0.100
300.700	-6.432	0.100
300.800	-22.155	0.100
300.900	-19.424	0.100
301.000	-12.044	0.100
301.100	-1.711	0.100
301.200	-11.162	0.100
301.300	-16.074	0.100
301.400	-24.909	0.100
301.500	-19.837	0.100
301.600	-21.702	0.100
301.700	-33.638	0.100
301.800	-24.585	0.100
301.900	-24.458	0.100
302.000	-21.165	0.100
302.100	-21.082	0.100
302.200	-20.319	0.100
302.300	-19.139	0.100
302.400	-20.221	0.100
302.500	-13.459	0.100
302.600	-14.259	0.100
302.700	-14.157	0.100
302.800	-8.403	0.100
302.900	-21.158	0.100
303.000	-20.029	0.100
303.100	-6.532	0.100
303.200	-21.436	0.100
303.300	-21.433	0.100
303.400	-20.573	0.100
303.500	-15.193	0.100
303.600	-15.489	0.100
303.700	-25.297	0.100
303.800	-15.394	0.100
303.900	-7.518	0.100
304.000	-15.433	0.100
304.100	-19.025	0.100
304.200	-13.798	0.100
304.300	-21.648	0.100
304.400	-9.298	0.100
304.500	-2.179	0.100
304.600	-17.793	0.100
304.700	-19.401	0.100
304.800	-29.774	0.100
304.900	-3.884	0.100
305.000	-15.153	0.100
305.100	-22.285	0.100
305.200	-14.376	0.100
305.300	-5.422	0.100
305.400	-27.040	0.100
305.500	-15.507	0.100
305.600	-22.420	0.100
305.700	-9.047	0.100
305.800	-15.380	0.100
305.900	-18.800	0.100
306.000	-28.916	0.100
306.100	-17.946	0.100
306.200	-15.572	0.100
306.300	-7.588	0.100
306.400	-22.123	0.100
306.500	-8.010	0.100
306.600	-13.866	0.100
306.700	-17.907	0.100
306.800	-10.441	0.100
306.900	-15.961	0.100
307.000	-25.610	0.100
307.100	-22.525	0.100
307.200	-18.266	0.100
307.300	-25.057	0.100
307.400	-20.145	0.100
307.500	-17.558	0.100
307.600	-5.601	0.100
307.700	-26.471	0.100
307.800	-10.501	0.100
307.900	-8.331	0.100
308.000	-22.293	0.100
308.100	-14.484	0.100
308.200	-25.287	0.100
308.300	-16.551	0.100
308.400	-0.058	0.100
308.500	-15.371	0.100
308.600	-18.521	0.100
308.700	-26.651	0.100
308.800	-19.477	0.100
308.900	-10.884	0.100
309.000	-18.286	0.100
309.100	-23.751	0.100
309.200	-19.292	0.100
309.300	-10.744	0.100
309.400	-26.269	0.100
309.500	-18.883	0.100
309.600	-13.083	0.100
309.700	-21.431	0.100
309.800	-27.703	0.100
309.900	-10.256	0.100
310.000	-14.282	0.100
310.100	-9.788	0.100
310.200	-10.276	0.100
310.300	-14.364	0.100
310.400	-20.823	0.100
310.500	-17.726	0.100
310.600	-14.938	0.100
310.700	-9.338	0.100
310.800	-18.703	0.100
310.900	-10.900	0.100
311.000	-22.955	0.100
311.100	-19.215	0.100
311.200	-16.500	0.100
311.300	-15.589	0.100
311.400	-16.973	0.100
311.500	-21.534	0.100
311.600	-20.655	0.100
311.700	-9.769	0.100
311.800	-10.950	0.100
311.900	-26.618	0.100
312.000	-12.569	0.100
312.100	-17.795	0.100
312.200	-12.541	0.100
312.300	-15.785	0.100
312.400	-18.248	0.100
312.500	-18.565	0.100
312.600	-6.083	0.100
312.700	-15.850	0.100
312.800	1.986	0.100
312.900	-13.471	0.100
313.000	-13.931	0.100
313.100	-10.429	0.100
313.200	-10.839	0.100
313.300	-12.075	0.100
313.400	-20.606	0.100
313.500	-19.614	0.100
313.600	-22.145	0.100
313.700	-17.567	0.100
313.800	-12.865	0.100
313.900	-17.378	0.100
314.000	-17.056	0.100
314.100	-7.693	0.100
314.200	-1.577	0.100
314.300	-17.287	0.100
314.400	-17.109	0.100
314.500	-11.572	0.100
314.600	-20.933	0.100
314.700	-12.998	0.100
314.800	-24.094	0.100
314.900	-19.255	0.100
315.000	-13.363	0.100
315.100	-25.533	0.100
315.200	-5.398	0.100
315.300	-12.588	0.100
315.400	-20.520	0.100
315.500	-9.573	0.100
315.600	-4.392	0.100
315.700	-19.024	0.100
315.800	-21.928	0.100
315.900	-8.496	0.100
316.000	-11.570	0.100
316.100	-14.597	0.100
316.200	-20.517	0.100
316.300	-17.270	0.100
316.400	-17.925	0.100
316.500	-17.048	0.100
316.600	-13.786	0.100
316.700	-5.574	0.100
316.800	-13.348	0.100
316.900	-15.496	0.100
317.000	-15.064	0.100
317.100	-19.262	0.100
317.200	-22.269	0.100
317.300	-11.527	0.100
317.400	-25.627	0.100
317.500	-13.317	0.100
317.600	-6.868	0.100
317.700	-13.025	0.100
317.800	-10.965	0.100
317.900	-14.285	0.100
318.000	-22.441	0.100
318.100	-8.082	0.100
318.200	-8.921	0.100
318.300	-20.949	0.100
318.400	-12.915	0.100
318.500	-10.480	0.100
318.600	-9.918	0.100
318.700	-16.567	0.100
318.800	-20.704	0.100
318.900	-20.980	0.100
319.000	-8.962	0.100
319.100	-17.311	0.100
319.200	-26.147	0.100
319.300	-9.546	0.100
319.400	-7.281	0.100
319.500	-22.779	0.100
319.600	-5.110	0.100
319.700	-14.643	0.100
319.800	-21.237	0.100
319.900	-6.165	0.100
320.000	-10.961	0.100
320.100	-15.005	0.100
320.200	-16.972	0.100
320.300	-10.177	0.100
320.400	-11.698	0.100
320.500	-22.623	0.100
320.600	-24.290	0.100
320.700	-6.830	0.100
320.800	-8.759	0.100
320.900	-7.483	0.100
321.000	-8.198	0.100
321.100	-13.682	0.100
321.200	-23.877	0.100
321.300	-12.401	0.100
321.400	-13.342	0.100
321.500	-7.511	0.100
321.600	-13.039	0.100
321.700	-14.612	0.100
321.800	-15.583	0.100
321.900	-19.784	0.100
322.000	-15.075	0.100
322.100	-17.163	0.100
322.200	-8.931	0.100
322.300	-13.141	0.100
322.400	-25.036	0.100
322.500	-17.995	0.100
322.600	-14.500	0.100
322.700	-23.770	0.100
322.800	-28.192	0.100
322.900	-10.063	0.100
323.000	-6.708	0.100
323.100	-18.795	0.100
323.200	-15.179	0.100
323.300	-15.725	0.100
323.400	-14.494	0.100
323.500	-10.185	0.100
323.600	-4.175	0.100
323.700	-11.231	0.100
323.800	-33.470	0.100
323.900	-11.736	0.100
324.000	-8.102	0.100
324.100	-6.467	0.100
324.200	-3.412	0.100
324.300	-5.643	0.100
324.400	-22.405	0.100
324.500	-21.513	0.100
324.600	-18.672	0.100
324.700	-20.608	0.100
324.800	-5.871	0.100
324.900	-11.940	0.100
325.000	-11.601	0.100
325.100	-18.259	0.100
325.200	-20.479	0.100
325.300	-9.816	0.100
325.400	-20.920	0.100
325.500	-13.322	0.100
325.600	-18.003	0.100
325.700	-32.258	0.100
325.800	-6.540	0.100
325.900	-7.825	0.100
326.000	-25.608	0.100
326.100	-22.580	0.100
326.200	-15.061	0.100
326.300	-18.770	0.100
326.400	-4.282	0.100
326.500	-18.127	0.100
326.600	-9.147	0.100
326.700	-11.577	0.100
326.800	-2.962	0.100
326.900	-35.817	0.100
327.000	-16.549	0.100
327.100	-16.146	0.100
327.200	-11.547	0.100
327.300	-7.003	0.100
327.400	-16.109	0.100
327.500	-3.537	0.100
327.600	-13.120	0.100
327.700	-15.117	0.100
327.800	-17.473	0.100
327.900	-11.569	0.100
328.000	-15.457	0.100
328.100	-17.838	0.100
328.200	-12.572	0.100
328.300	-16.274	0.100
328.400	-12.675	0.100
328.500	-12.229	0.100
328.600	-17.525	0.100
328.700	-9.416	0.100
328.800	-26.749	0.100
328.900	-21.018	0.100
329.000	-23.148	0.100
329.100	-9.673	0.100
329.200	-6.996	0.100
329.300	-0.999	0.100
329.400	-4.019	0.100
329.500	-15.031	0.100
329.600	-12.656	0.100
329.700	-20.015	0.100
329.800	-22.683	0.100
329.900	-3.725	0.100
330.000	-7.119	0.100
330.100	-17.792	0.100
330.200	-18.318	0.100
330.300	-15.122	0.100
330.400	-6.496	0.100
330.500	-8.992	0.100
330.600	-10.126	0.100
330.700	-1.650	0.100
330.800	-4.998	0.100
330.900	-4.232	0.100
331.000	17.554	0.100
331.100	9.902	0.100
331.200	22.340	0.100
331.300	18.818	0.100
331.400	21.186	0.100
331.500	17.757	0.100
331.600	13.213	0.100
331.700	53.348	0.100
331.800	39.925	0.100
331.900	27.108	0.100
332.000	38.047	0.100
332.100	38.843	0.100
332.200	28.026	0.100
332.300	34.264	0.100
332.400	38.717	0.100
332.500	29.540	0.100
332.600	21.159	0.100
332.700	46.176	0.100
332.800	47.899	0.100
332.900	45.160	0.100
333.000	25.657	0.100
333.100	42.870	0.100
333.200	55.155	0.100
333.300	53.369	0.100
333.400	35.824	0.100
333.500	47.980	0.100
333.600	46.248	0.100
333.700	46.379	0.100
333.800	45.831	0.100
333.900	40.131	0.100
334.000	50.465	0.100
334.100	43.380	0.100
334.200	47.272	0.100
334.300	34.723	0.100
334.400	44.336	0.100
334.500	42.077	0.100
334.600	53.290	0.100
334.700	45.852	0.100
334.800	45.977	0.100
334.900	59.928	0.100
335.000	35.861	0.100
335.100	28.735	0.100
335.200	41.332	0.100
335.300	46.846	0.100
335.400	52.127	0.100
335.500	46.616	0.100
335.600	49.550	0.100
335.700	31.399	0.100
335.800	33.715	0.100
335.900	32.823	0.100
336.000	45.234	0.100
336.100	42.589	0.100
336.200	38.094	0.100
336.300	33.620	0.100
336.400	36.540	0.100
336.500	37.060	0.100
336.600	42.373	0.100
336.700	34.047	0.100
336.800	36.837	0.100
336.900	31.494	0.100
337.000	34.916	0.100
337.100	44.160	0.100
337.200	42.522	0.100
337.300	41.140	0.100
337.400	38.085	0.100
337.500	50.996	0.100
337.600	31.317	0.100
337.700	38.544	0.100
337.800	28.237	0.100
337.900	23.233	0.100
338.000	50.766	0.100
338.100	39.268	0.100
338.200	40.706	0.100
338.300	38.778	0.100
338.400	34.177	0.100
338.500	43.031	0.100
338.600	38.743	0.100
338.700	35.391	0.100
338.800	42.341	0.100
338.900	51.382	0.100
339.000	42.920	0.100
339.100	43.055	0.100
339.200	39.128	0.100
339.300	35.349	0.100
339.400	32.748	0.100
339.500	44.190	0.100
339.600	38.155	0.100
339.700	38.245	0.100
339.800	43.275	0.100
339.900	39.380	0.100
340.000	33.452	0.100
340.100	47.700	0.100
340.200	39.776	0.100
340.300	42.638	0.100
340.400	48.086	0.100
340.500	38.323	0.100
340.600	36.826	0.100
340.700	44.334	0.100
340.800	30.597	0.100
340.900	37.584	0.100
341.000	43.514	0.100
341.100	46.842	0.100
341.200	35.355	0.100
341.300	37.198	0.100
341.400	43.672	0.100
341.500	31.296	0.100
341.600	48.627	0.100
341.700	42.156	0.100
341.800	46.247	0.100
341.900	41.748	0.100
342.000	41.946	0.100
342.100	34.055	0.100
342.200	33.423	0.100
342.300	36.007	0.100
342.400	48.783	0.100
342.500	33.374	0.100
342.600	39.987	0.100
342.700	46.260	0.100
342.800	40.646	0.100
342.900	41.075	0.100
343.000	41.261	0.100
343.100	38.287	0.100
343.200	43.553	0.100
343.300	39.485	0.100
343.400	42.485	0.100
343.500	29.215	0.100
343.600	44.155	0.100
343.700	35.273	0.100
343.800	34.045	0.100
343.900	49.810	0.100
344.000	43.049	0.100
344.100	43.630	0.100
344.200	45.262	0.100
344.300	30.950	0.100
344.400	40.614	0.100
344.500	49.970	0.100
344.600	55.599	0.100
344.700	37.629	0.100
344.800	40.838	0.100
344.900	47.379	0.100
345.000	44.948	0.100
345.100	45.328	0.100
345.200	40.433	0.100
345.300	40.159	0.100
345.400	44.072	0.100
345.500	47.689	0.100
345.600	52.233	0.100
345.700	49.256	0.100
345.800	41.504	0.100
345.900	33.428	0.100
346.000	43.348	0.100
346.100	35.936	0.100
346.200	40.863	0.100
346.300	38.994	0.100
346.400	39.186	0.100
346.500	50.677	0.100
346.600	44.387	0.100
346.700	41.974	0.100
346.800	46.531	0.100
346.900	45.938	0.100
347.000	41.728	0.100
347.100	47.230	0.100
347.200	55.826	0.100
347.300	48.061	0.100
347.400	38.803	0.100
347.500	41.172	0.100
347.600	45.977	0.100
347.700	51.789	0.100
347.800	53.870	0.100
347.900	46.842	0.100
348.000	31.319	0.100
348.100	47.754	0.100
348.200	51.988	0.100
348.300	46.849	0.100
348.400	36.846	0.100
348.500	40.824	0.100
348.600	51.896	0.100
348.700	47.912	0.100
348.800	49.089	0.100
348.900	39.103	0.100
349.000	42.693	0.100
349.100	53.666	0.100
349.200	57.985	0.100
349.300	41.126	0.100
349.400	41.393	0.100
349.500	47.895	0.100
349.600	45.831	0.100
349.700	55.162	0.100
349.800	47.499	0.100
349.900	47.319	0.100
350.000	47.235	0.100
350.100	39.803	0.100
350.200	59.462	0.100
350.300	52.511	0.100
350.400	42.535	0.100
350.500	44.962	0.100
350.600	58.328	0.100
350.700	39.428	0.100
350.800	46.075	0.100
350.900	50.603	0.100
351.000	52.830	0.100
351.100	48.390	0.100
351.200	45.089	0.100
351.300	47.056	0.100
351.400	51.581	0.100
351.500	49.314	0.100
351.600	53.148	0.100
351.700	50.059	0.100
351.800	44.606	0.100
351.900	62.813	0.100
352.000	55.248	0.100
352.100	51.622	0.100
352.200	54.403	0.100
352.300	43.447	0.100
352.400	54.038	0.100
352.500	28.992	0.100
352.600	44.849	0.100
352.700	61.065	0.100
352.800	54.652	0.100
352.900	54.342	0.100
353.000	55.903	0.100
353.100	53.012	0.100
353.200	65.945	0.100
353.300	44.105	0.100
353.400	46.792	0.100
353.500	53.925	0.100
353.600	47.557	0.100
353.700	62.435	0.100
353.800	43.337	0.100
353.900	50.619	0.100
354.000	43.502	0.100
354.100	53.235	0.100
354.200	61.451	0.100
354.300	63.157	0.100
354.400	47.557	0.100
354.500	51.814	0.100
354.600	55.837	0.100
354.700	51.228	0.100
354.800	47.688	0.100
354.900	59.351	0.100
355.000	49.233	0.100
355.100	60.210	0.100
355.200	57.442	0.100
355.300	63.212	0.100
355.400	64.515	0.100
355.500	43.823	0.100
355.600	51.671	0.100
355.700	60.995	0.100
355.800	49.503	0.100
355.900	62.468	0.100
356.000	51.325	0.100
356.100	53.374	0.100
356.200	52.640	0.100
356.300	62.340	0.100
356.400	56.515	0.100
356.500	63.607	0.100
356.600	70.906	0.100
356.700	62.725	0.100
356.800	54.605	0.100
356.900	57.288	0.100
357.000	52.495	0.100
357.100	64.271	0.100
357.200	68.812	0.100
357.300	50.392	0.100
357.400	57.365	0.100
357.500	52.741	0.100
357.600	61.634	0.100
357.700	55.830	0.100
357.800	56.604	0.100
357.900	54.825	0.100
358.000	71.423	0.100
358.100	58.102	0.100
358.200	61.883	0.100
358.300	56.800	0.100
358.400	67.799	0.100
358.500	45.779	0.100
358.600	52.396	0.100
358.700	50.770	0.100
358.800	69.436	0.100
358.900	56.156	0.100
359.000	64.354	0.100
359.100	63.089	0.100
359.200	49.989	0.100
359.300	58.776	0.100
359.400	61.244	0.100
359.500	68.346	0.100
359.600	59.166	0.100
359.700	66.593	0.100
359.800	66.368	0.100
359.900	52.045	0.100
360.000	64.996	0.100
360.100	63.295	0.100
360.200	69.371	0.100
360.300	57.964	0.100
360.400	60.127	0.100
360.500	61.457	0.100
360.600	59.551	0.100
360.700	67.382	0.100
360.800	61.092	0.100
360.900	68.285	0.100
361.000	53.631	0.100
361.100	61.250	0.100
361.200	64.530	0.100
361.300	58.194	0.100
361.400	72.125	0.100
361.500	55.578	0.100
361.600	78.106	0.100
361.700	60.862	0.100
361.800	66.648	0.100
361.900	67.654	0.100
362.000	54.328	0.100
362.100	63.226	0.100
362.200	52.557	0.100
362.300	55.760	0.100
362.400	69.292	0.100
362.500	64.063	0.100
362.600	61.700	0.100
362.700	53.007	0.100
362.800	57.963	0.100
362.900	51.714	0.100
363.000	59.918	0.100
363.100	53.992	0.100
363.200	50.539	0.100
363.300	65.905	0.100
363.400	51.843	0.100
363.500	60.777	0.100
363.600	51.272	0.100
363.700	62.784	0.100
363.800	65.800	0.100
363.900	65.109	0.100
364.000	61.941	0.100
364.100	69.476	0.100
364.200	64.233	0.100
364.300	66.238	0.100
364.400	63.130	0.100
364.500	73.209	0.100
364.600	66.697	0.100
364.700	57.632	0.100
364.800	59.367	0.100
364.900	75.840	0.100
365.000	54.032	0.100
365.100	70.364	0.100
365.200	67.934	0.100
365.300	79.124	0.100
365.400	63.521	0.100
365.500	66.330	0.100
365.600	52.801	0.100
365.700	77.391	0.100
365.800	69.202	0.100
365.900	53.333	0.100
366.000	67.686	0.100
366.100	63.837	0.100
366.200	65.816	0.100
366.300	64.050	0.100
366.400	67.399	0.100
366.500	57.833	0.100
366.600	53.011	0.100
366.700	68.513	0.100
366.800	61.926	0.100
366.900	63.123	0.100
367.000	63.876	0.100
367.100	57.459	0.100
367.200	53.262	0.100
367.300	60.727	0.100
367.400	52.927	0.100
367.500	61.026	0.100
367.600	69.834	0.100
367.700	70.655	0.100
367.800	65.136	0.100
367.900	62.295	0.100
368.000	54.271	0.100
368.100	59.621	0.100
368.200	71.075	0.100
368.300	62.027	0.100
368.400	59.704	0.100
368.500	57.291	0.100
368.600	70.657	0.100
368.700	55.551	0.100
368.800	67.610	0.100
368.900	72.223	0.100
369.000	56.780	0.100
369.100	67.915	0.100
369.200	66.249	0.100
369.300	60.639	0.100
369.400	58.202	0.100
369.500	53.627	0.100
369.600	62.246	0.100
369.700	69.537	0.100
369.800	60.929	0.100
369.900	61.200	0.100
370.000	56.196	0.100
370.100	59.533	0.100
370.200	38.754	0.100
370.300	75.133	0.100
370.400	75.160	0.100
370.500	57.672	0.100
370.600	69.055	0.100
370.700	61.643	0.100
370.800	62.485	0.100
370.900	55.836	0.100
371.000	56.803	0.100
371.100	69.800	0.100
371.200	58.297	0.100
371.300	57.312	0.100
371.400	67.594	0.100
371.500	62.432	0.100
371.600	62.138	0.100
371.700	59.345	0.100
371.800	69.172	0.100
371.900	53.816	0.100
372.000	57.762	0.100
372.100	70.763	0.100
372.200	69.718	0.100
372.300	67.611	0.100
372.400	73.267	0.100
372.500	70.824	0.100
372.600	50.423	0.100
372.700	59.502	0.100
372.800	66.727	0.100
372.900	58.627	0.100
373.000	55.162	0.100
373.100	62.748	0.100
373.200	59.541	0.100
373.300	58.336	0.100
373.400	62.788	0.100
373.500	64.698	0.100
373.600	67.022	0.100
373.700	73.260	0.100
373.800	64.534	0.100
373.900	59.299	0.100
374.000	66.847	0.100
374.100	60.043	0.100
374.200	64.575	0.100
374.300	60.491	0.100
374.400	65.217	0.100
374.500	69.057	0.100
374.600	52.296	0.100
374.700	76.359	0.100
374.800	56.221	0.100
374.900	65.654	0.100
375.000	57.151	0.100
375.100	53.548	0.100
375.200	52.771	0.100
375.300	52.995	0.100
375.400	68.691	0.100
375.500	61.019	0.100
375.600	69.238	0.100
375.700	55.196	0.100
375.800	54.650	0.100
375.900	65.500	0.100
376.000	60.249	0.100
376.100	69.232	0.100
376.200	75.736	0.100
376.300	55.358	0.100
376.400	59.454	0.100
376.500	71.377	0.100
376.600	62.563	0.100
376.700	55.965	0.100
376.800	59.056	0.100
376.900	61.866	0.100
377.000	60.842	0.100
377.100	72.008	0.100
377.200	49.270	0.100
377.300	68.498	0.100
377.400	63.715	0.100
377.500	69.040	0.100
377.600	64.603	0.100
377.700	54.423	0.100
377.800	66.587	0.100
377.900	67.370	0.100
378.000	65.989	0.100
378.100	59.443	0.100
378.200	65.351	0.100
378.300	65.628	0.100
378.400	52.161	0.100
378.500	49.401	0.100
378.600	48.056	0.100
378.700	65.301	0.100
378.800	64.901	0.100
378.900	61.843	0.100
379.000	50.812	0.100
379.100	60.677	0.100
379.200	66.237	0.100
379.300	62.814	0.100
379.400	79.610	0.100
379.500	77.364	0.100
379.600	68.078	0.100
379.700	53.277	0.100
379.800	72.954	0.100
379.900	64.004	0.100
380.000	69.769	0.100
380.100	59.685	0.100
380.200	56.334	0.100
380.300	66.070	0.100
380.400	63.801	0.100
380.500	63.635	0.100
380.600	68.041	0.100
380.700	45.676	0.100
380.800	58.951	0.100
380.900	61.575	0.100
381.000	48.581	0.100
381.100	57.888	0.100
381.200	58.298	0.100
381.300	62.733	0.100
381.400	62.030	0.100
381.500	62.626	0.100
381.600	70.910	0.100
381.700	50.492	0.100
381.800	60.225	0.100
381.900	65.129	0.100
382.000	62.717	0.100
382.100	58.104	0.100
382.200	59.743	0.100
382.300	45.225	0.100
382.400	58.684	0.100
382.500	65.299	0.100
382.600	61.264	0.100
382.700	54.102	0.100
382.800	64.016	0.100
382.900	62.914	0.100
383.000	59.950	0.100
383.100	62.017	0.100
383.200	67.093	0.100
383.300	57.547	0.100
383.400	61.212	0.100
383.500	62.278	0.100
383.600	62.357	0.100
383.700	57.068	0.100
383.800	73.734	0.100
383.900	68.689	0.100
384.000	61.874	0.100
384.100	60.253	0.100
384.200	61.303	0.100
384.300	72.571	0.100
384.400	67.200	0.100
384.500	44.985	0.100
384.600	55.767	0.100
384.700	65.005	0.100
384.800	52.922	0.100
384.900	62.317	0.100
385.000	74.284	0.100
385.100	69.857	0.100
385.200	58.325	0.100
385.300	58.642	0.100
385.400	65.167	0.100
385.500	61.894	0.100
385.600	51.824	0.100
385.700	67.740	0.100
385.800	55.927	0.100
385.900	57.852	0.100
386.000	66.693	0.100
386.100	60.882	0.100
386.200	66.844	0.100
386.300	59.302	0.100
386.400	66.953	0.100
386.500	49.922	0.100
386.600	55.921	0.100
386.700	66.986	0.100
386.800	73.050	0.100
386.900	48.706	0.100
387.000	66.427	0.100
387.100	61.658	0.100
387.200	64.545	0.100
387.300	52.964	0.100
387.400	54.472	0.100
387.500	51.918	0.100
387.600	52.958	0.100
387.700	69.620	0.100
387.800	60.890	0.100
387.900	57.015	0.100
388.000	64.349	0.100
388.100	64.027	0.100
388.200	59.338	0.100
388.300	60.184	0.100
388.400	51.113	0.100
388.500	56.093	0.100
388.600	65.431	0.100
388.700	65.903	0.100
388.800	64.599	0.100
388.900	63.578	0.100
389.000	65.122	0.100
389.100	54.819	0.100
389.200	72.235	0.100
389.300	62.134	0.100
389.400	57.400	0.100
389.500	57.778	0.100
389.600	60.315	0.100
389.700	47.837	0.100
389.800	63.999	0.100
389.900	62.581	0.100
390.000	66.226	0.100
390.100	60.986	0.100
390.200	65.996	0.100
390.300	59.634	0.100
390.400	45.324	0.100
390.500	45.377	0.100
390.600	48.408	0.100
390.700	45.020	0.100
390.800	51.127	0.100
390.900	43.122	0.100
391.000	37.492	0.100
391.100	39.361	0.100
391.200	41.119	0.100
391.300	24.601	0.100
391.400	20.041	0.100
391.500	30.791	0.100
391.600	27.126	0.100
391.700	25.063	0.100
391.800	23.680	0.100
391.900	21.687	0.100
392.000	24.990	0.100
392.100	11.289	0.100
392.200	8.341	0.100
392.300	11.835	0.100
392.400	18.653	0.100
392.500	13.699	0.100
392.600	7.685	0.100
392.700	11.898	0.100
392.800	7.835	0.100
392.900	8.399	0.100
393.000	6.841	0.100
393.100	2.346	0.100
393.200	7.845	0.100
393.300	13.236	0.100
393.400	14.050	0.100
393.500	16.276	0.100
393.600	9.929	0.100
393.700	5.184	0.100
393.800	11.809	0.100
393.900	-5.419	0.100
394.000	7.697	0.100
394.100	9.606	0.100
394.200	-2.494	0.100
394.300	5.499	0.100
394.400	7.789	0.100
394.500	13.631	0.100
394.600	1.924	0.100
394.700	2.751	0.100
394.800	7.303	0.100
394.900	10.959	0.100
395.000	2.003	0.100
395.100	14.104	0.100
395.200	-7.073	0.100
395.300	12.370	0.100
395.400	3.394	0.100
395.500	3.708	0.100
395.600	10.652	0.100
395.700	10.165	0.100
395.800	2.089	0.100
395.900	6.138	0.100
396.000	10.028	0.100
396.100	8.092	0.100
396.200	-0.352	0.100
396.300	6.723	0.100
396.400	-2.563	0.100
396.500	-4.425	0.100
396.600	0.588	0.100
396.700	4.770	0.100
396.800	10.781	0.100
396.900	-4.367	0.100
397.000	-7.869	0.100
397.100	-3.771	0.100
397.200	2.663	0.100
397.300	2.093	0.100
397.400	9.289	0.100
397.500	12.553	0.100
397.600	-3.506	0.100
397.700	4.034	0.100
397.800	6.727	0.100
397.900	4.338	0.100
398.000	6.061	0.100
398.100	1.217	0.100
398.200	-13.391	0.100
398.300	-1.989	0.100
398.400	1.609	0.100
398.500	10.668	0.100
398.600	-1.959	0.100
398.700	-2.338	0.100
398.800	-6.991	0.100
398.900	12.440	0.100
399.000	-7.800	0.100
399.100	-5.616	0.100
399.200	5.695	0.100
399.300	-1.372	0.100
399.400	2.224	0.100
399.500	-14.580	0.100
399.600	11.815	0.100
399.700	-3.471	0.100
399.800	5.838	0.100
399.900	-2.128	0.100
400.000	-6.886	0.100
400.100	-13.063	0.100
400.200	-0.624	0.100
400.300	11.507	0.100
400.400	-0.593	0.100
400.500	-0.011	0.100
400.600	6.267	0.100
400.700	-3.794	0.100
400.800	-13.614	0.100
400.900	2.371	0.100
401.000	-3.381	0.100
401.100	1.293	0.100
401.200	11.030	0.100
401.300	1.629	0.100
401.400	2.568	0.100
401.500	-11.775	0.100
401.600	4.206	0.100
401.700	-6.020	0.100
401.800	5.595	0.100
401.900	4.574	0.100
402.000	6.805	0.100
402.100	-15.188	0.100
402.200	-0.120	0.100
402.300	5.198	0.100
402.400	-15.710	0.100
402.500	-3.638	0.100
402.600	-7.714	0.100
402.700	0.526	0.100
402.800	3.414	0.100
402.900	-10.570	0.100
403.000	-5.496	0.100
403.100	1.852	0.100
403.200	-1.493	0.100
403.300	-8.722	0.100
403.400	-25.161	0.100
403.500	-4.411	0.100
403.600	0.358	0.100
403.700	-4.352	0.100
403.800	-9.497	0.100
403.900	3.547	0.100
404.000	0.215	0.100
404.100	-13.479	0.100
404.200	-0.105	0.100
404.300	-3.443	0.100
404.400	4.158	0.100
404.500	-9.830	0.100
404.600	4.786	0.100
404.700	-14.656	0.100
404.800	-6.751	0.100
404.900	-3.737	0.100
405.000	-18.168	0.100
405.100	1.491	0.100
405.200	9.964	0.100
405.300	0.253	0.100
405.400	-13.417	0.100
405.500	-4.121	0.100
405.600	-8.524	0.100
405.700	-17.108	0.100
405.800	-13.019	0.100
405.900	9.684	0.100
406.000	-6.022	0.100
406.100	-2.395	0.100
406.200	-7.503	0.100
406.300	-26.597	0.100
406.400	-18.471	0.100
406.500	-11.141	0.100
406.600	-0.076	0.100
406.700	-0.362	0.100
406.800	4.564	0.100
406.900	3.785	0.100
407.000	-10.099	0.100
407.100	-7.775	0.100
407.200	-5.987	0.100
407.300	0.061	0.100
407.400	-13.686	0.100
407.500	-16.560	0.100
407.600	-8.433	0.100
407.700	-14.266	0.100
407.800	-2.971	0.100
407.900	-4.380	0.100
408.000	-8.392	0.100
408.100	-13.719	0.100
408.200	-6.815	0.100
408.300	-12.683	0.100
408.400	-12.915	0.100
408.500	-11.875	0.100
408.600	-7.443	0.100
408.700	-8.378	0.100
408.800	-10.861	0.100
408.900	-7.739	0.100
409.000	-5.901	0.100
409.100	-7.962	0.100
409.200	-13.799	0.100
409.300	-7.271	0.100
409.400	-12.845	0.100
409.500	-9.927	0.100
409.600	-12.823	0.100
409.700	-23.068	0.100
409.800	-9.291	0.100
409.900	-12.229	0.100
410.000	-16.953	0.100
410.100	-7.528	0.100
410.200	-18.937	0.100
410.300	1.602	0.100
410.400	0.782	0.100
410.500	-11.038	0.100
410.600	-13.204	0.100
410.700	-15.926	0.100
410.800	-19.035	0.100
410.900	-16.407	0.100
411.000	-14.408	0.100
411.100	-9.582	0.100
411.200	-5.589	0.100
411.300	-23.410	0.100
411.400	-19.768	0.100
411.500	-9.200	0.100
411.600	0.616	0.100
411.700	-17.874	0.100
411.800	-11.942	0.100
411.900	-18.009	0.100
412.000	-12.703	0.100
412.100	-17.207	0.100
412.200	-25.604	0.100
412.300	-4.228	0.100
412.400	-2.658	0.100
412.500	1.059	0.100
412.600	-15.183	0.100
412.700	-29.102	0.100
412.800	-6.022	0.100
412.900	-21.223	0.100
413.000	-15.232	0.100
413.100	-11.209	0.100
413.200	-6.390	0.100
413.300	-1.665	0.100
413.400	-21.960	0.100
413.500	-7.917	0.100
413.600	-21.005	0.100
413.700	-15.723	0.100
413.800	-14.256	0.100
413.900	-15.796	0.100
414.000	-17.478	0.100
414.100	-9.774	0.100
414.200	-17.774	0.100
414.300	-29.552	0.100
414.400	-4.705	0.100
414.500	-12.243	0.100
414.600	-15.332	0.100
414.700	-30.027	0.100
414.800	-3.054	0.100
414.900	-7.819	0.100
415.000	-11.002	0.100
415.100	-14.344	0.100
415.200	-19.561	0.100
415.300	-24.253	0.100
415.400	-19.349	0.100
415.500	-16.523	0.100
415.600	-10.453	0.100
415.700	-3.613	0.100
415.800	-8.720	0.100
415.900	-5.237	0.100
416.000	-16.220	0.100
416.100	-24.579	0.100
416.200	-17.985	0.100
416.300	-10.709	0.100
416.400	-3.894	0.100
416.500	-16.972	0.100
416.600	-15.112	0.100
416.700	-9.782	0.100
416.800	-16.541	0.100
416.900	-22.419	0.100
417.000	-8.709	0.100
417.100	-39.567	0.100
417.200	-14.151	0.100
417.300	-7.044	0.100
417.400	-14.176	0.100
417.500	-24.297	0.100
417.600	-37.303	0.100
417.700	-35.621	0.100
417.800	-15.095	0.100
417.900	-12.845	0.100
418.000	-15.214	0.100
418.100	-11.803	0.100
418.200	-23.524	0.100
418.300	-14.873	0.100
418.400	-10.320	0.100
418.500	-17.783	0.100
418.600	-15.888	0.100
418.700	-26.586	0.100
418.800	-11.320	0.100
418.900	-22.468	0.100
419.000	-20.178	0.100
419.100	-21.166	0.100
419.200	-14.685	0.100
419.300	-12.248	0.100
419.400	-16.335	0.100
419.500	-20.002	0.100
419.600	-25.595	0.100
419.700	-10.829	0.100
419.800	-10.120	0.100
419.900	-20.461	0.100
420.000	-25.894	0.100
420.100	-28.585	0.100
420.200	-20.606	0.100
420.300	-8.085	0.100
420.400	-11.498	0.100
420.500	-11.427	0.100
420.600	-28.607	0.100
420.700	-27.780	0.100
420.800	-17.753	0.100
420.900	-28.070	0.100
421.000	-14.685	0.100
421.100	-27.744	0.100
421.200	-16.165	0.100
421.300	-25.458	0.100
421.400	-21.656	0.100
421.500	-20.771	0.100
421.600	-23.047	0.100
421.700	-13.789	0.100
421.800	-14.612	0.100
421.900	-25.696	0.100
422.000	-15.339	0.100
422.100	-14.176	0.100
422.200	-24.196	0.100
422.300	-4.818	0.100
422.400	-23.491	0.100
422.500	-25.372	0.100
422.600	-25.807	0.100
422.700	-27.064	0.100
422.800	-26.393	0.100
422.900	-21.415	0.100
423.000	-12.697	0.100
423.100	-23.441	0.100
423.200	-13.908	0.100
423.300	-25.861	0.100
423.400	-18.175	0.100
423.500	-19.263	0.100
423.600	-16.815	0.100
423.700	-17.058	0.100
423.800	-20.035	0.100
423.900	-15.237	0.100
424.000	-21.147	0.100
424.100	-41.257	0.100
424.200	-29.193	0.100
424.300	-23.317	0.100
424.400	-21.873	0.100
424.500	-26.758	0.100
424.600	-11.558	0.100
424.700	-8.899	0.100
424.800	-20.752	0.100
424.900	-24.784	0.100
425.000	-26.586	0.100
425.100	-22.387	0.100
425.200	-31.321	0.100
425.300	-26.158	0.100
425.400	-17.563	0.100
425.500	-25.746	0.100
425.600	-18.142	0.100
425.700	-15.078	0.100
425.800	-26.042	0.100
425.900	-27.854	0.100
426.000	-15.416	0.100
426.100	-18.851	0.100
426.200	-15.276	0.100
426.300	-34.044	0.100
426.400	-20.460	0.100
426.500	-28.683	0.100
426.600	-17.635	0.100
426.700	-22.260	0.100
426.800	-24.314	0.100
426.900	-21.361	0.100
427.000	-19.351	0.100
427.100	-19.164	0.100
427.200	-20.119	0.100
427.300	-32.746	0.100
427.400	-29.937	0.100
427.500	-29.405	0.100
427.600	-23.254	0.100
427.700	-29.294	0.100
427.800	-18.026	0.100
427.900	-12.334	0.100
428.000	-33.566	0.100
428.100	-19.871	0.100
428.200	-14.833	0.100
428.300	-30.861	0.100
428.400	-28.081	0.100
428.500	-29.557	0.100
428.600	-25.829	0.100
428.700	-29.369	0.100
428.800	-34.357	0.100
428.900	-23.260	0.100
429.000	-27.155	0.100
429.100	-27.379	0.100
429.200	-11.657	0.100
429.300	-30.093	0.100
429.400	-33.033	0.100
429.500	-19.671	0.100
429.600	-5.855	0.100
429.700	-19.824	0.100
429.800	-31.896	0.100
429.900	-20.877	0.100
430.000	-26.387	0.100
430.100	-21.119	0.100
430.200	-17.059	0.100
430.300	-27.698	0.100
430.400	-23.204	0.100
430.500	-31.411	0.100
430.600	-23.287	0.100
430.700	-33.683	0.100
430.800	-27.770	0.100
430.900	-31.463	0.100
431.000	-20.815	0.100
431.100	-19.656	0.100
431.200	-27.783	0.100
431.300	-32.209	0.100
431.400	-22.057	0.100
431.500	-22.109	0.100
431.600	-33.059	0.100
431.700	-29.332	0.100
431.800	-26.344	0.100
431.900	-31.500	0.100
432.000	-28.586	0.100
432.100	-21.958	0.100
432.200	-22.522	0.100
432.300	-21.357	0.100
432.400	-20.394	0.100
432.500	-35.308	0.100
432.600	-20.657	0.100
432.700	-25.899	0.100
432.800	-19.485	0.100
432.900	-23.108	0.100
433.000	-28.581	0.100
433.100	-27.482	0.100
433.200	-23.867	0.100
433.300	-21.869	0.100
433.400	-15.138	0.100
433.500	-27.428	0.100
433.600	-32.479	0.100
433.700	-27.139	0.100
433.800	-21.191	0.100
433.900	-22.745	0.100
434.000	-19.902	0.100
434.100	-31.969	0.100
434.200	-21.888	0.100
434.300	-20.031	0.100
434.400	-24.950	0.100
434.500	-22.114	0.100
434.600	-25.123	0.100
434.700	-26.092	0.100
434.800	-29.293	0.100
434.900	-21.136	0.100
435.000	-21.951	0.100
435.100	-23.444	0.100
435.200	-24.050	0.100
435.300	-23.999	0.100
435.400	-19.653	0.100
435.500	-15.529	0.100
435.600	-40.961	0.100
435.700	-21.075	0.100
435.800	-27.610	0.100
435.900	-31.876	0.100
436.000	-30.465	0.100
436.100	-39.345	0.100
436.200	-14.014	0.100
436.300	-18.721	0.100
436.400	-19.944	0.100
436.500	-19.995	0.100
436.600	-22.383	0.100
436.700	-34.886	0.100
436.800	-26.980	0.100
436.900	-17.432	0.100
437.000	-14.079	0.100
437.100	-28.691	0.100
437.200	-26.162	0.100
437.300	-29.503	0.100
437.400	-21.625	0.100
437.500	-26.969	0.100
437.600	-24.473	0.100
437.700	-21.380	0.100
437.800	-17.634	0.100
437.900	-16.562	0.100
438.000	-16.379	0.100
438.100	-17.135	0.100
438.200	-26.775	0.100
438.300	-17.835	0.100
438.400	-22.955	0.100
438.500	-35.174	0.100
438.600	-22.090	0.100
438.700	-30.929	0.100
438.800	-28.281	0.100
438.900	-34.177	0.100
439.000	-18.704	0.100
439.100	-27.767	0.100
439.200	-16.246	0.100
439.300	-12.132	0.100
439.400	-27.172	0.100
439.500	-22.885	0.100
439.600	-22.850	0.100
439.700	-30.003	0.100
439.800	-25.015	0.100
439.900	-24.832	0.100
440.000	-30.678	0.100
440.100	-31.564	0.100
440.200	-36.275	0.100
440.300	-30.062	0.100
440.400	-15.466	0.100
440.500	-17.082	0.100
440.600	-26.693	0.100
440.700	-36.893	0.100
440.800	-29.092	0.100
440.900	-19.077	0.100
441.000	-18.816	0.100
441.100	-17.029	0.100
441.200	-21.212	0.100
441.300	-29.314	0.100
441.400	-22.345	0.100
441.500	-21.265	0.100
441.600	-18.229	0.100
441.700	-36.159	0.100
441.800	-31.093	0.100
441.900	-18.341	0.100
442.000	-26.464	0.100
442.100	-23.423	0.100
442.200	-30.894	0.100
442.300	-23.308	0.100
442.400	-32.961	0.100
442.500	-13.143	0.100
442.600	-29.078	0.100
442.700	-37.654	0.100
442.800	-31.291	0.100
442.900	-19.824	0.100
443.000	-31.827	0.100
443.100	-22.796	0.100
443.200	-15.300	0.100
443.300	-25.708	0.100
443.400	-20.330	0.100
443.500	-17.942	0.100
443.600	-12.530	0.100
443.700	-21.873	0.100
443.800	-23.113	0.100
443.900	-31.114	0.100
444.000	-31.057	0.100
444.100	-26.751	0.100
444.200	-34.273	0.100
444.300	-12.342	0.100
444.400	-11.789	0.100
444.500	-19.266	0.100
444.600	-30.404	0.100
444.700	-28.761	0.100
444.800	-35.698	0.100
444.900	-28.564	0.100
445.000	-21.148	0.100
445.100	-20.172	0.100
445.200	-32.464	0.100
445.300	-17.867	0.100
445.400	-36.111	0.100
445.500	-27.664	0.100
445.600	-24.846	0.100
445.700	-16.749	0.100
445.800	-18.225	0.100
445.900	-33.045	0.100
446.000	-27.481	0.100
446.100	-20.700	0.100
446.200	-18.792	0.100
446.300	-24.674	0.100
446.400	-15.203	0.100
446.500	-14.827	0.100
446.600	-7.266	0.100
446.700	-25.418	0.100
446.800	-38.638	0.100
446.900	-19.921	0.100
447.000	-20.072	0.100
447.100	-29.092	0.100
447.200	-34.167	0.100
447.300	-27.375	0.100
447.400	-18.598	0.100
447.500	-22.869	0.100
447.600	-20.316	0.100
447.700	-28.098	0.100
447.800	-23.521	0.100
447.900	-35.622	0.100
448.000	-12.479	0.100
448.100	-21.758	0.100
448.200	-14.778	0.100
448.300	-25.292	0.100
448.400	-20.371	0.100
448.500	-23.912	0.100
448.600	-26.177	0.100
448.700	-4.611	0.100
448.800	-23.709	0.100
448.900	-22.070	0.100
449.000	-14.217	0.100
449.100	-19.207	0.100
449.200	-19.126	0.100
449.300	-14.919	0.100
449.400	-16.549	0.100
449.500	-30.933	0.100
449.600	-27.298	0.100
449.700	-28.767	0.100
449.800	-29.759	0.100
449.900	-30.383	0.100
450.000	-23.202	0.100
450.100	-21.224	0.100
450.200	-26.168	0.100
450.300	-13.476	0.100
450.400	-16.922	0.100
450.500	-26.738	0.100
450.600	-26.766	0.100
450.700	-22.753	0.100
450.800	-23.206	0.100
450.900	-29.664	0.100
451.000	-27.825	0.100
451.100	-12.082	0.100
451.200	-15.384	0.100
451.300	-21.553	0.100
451.400	-30.353	0.100
451.500	-21.442	0.100
451.600	-25.834	0.100
451.700	-21.781	0.100
451.800	-31.786	0.100
451.900	-24.314	0.100
452.000	-10.173	0.100
452.100	-29.888	0.100
452.200	-31.479	0.100
452.300	-2.845	0.100
452.400	-14.521	0.100
452.500	-17.818	0.100
452.600	-21.815	0.100
452.700	-16.259	0.100
452.800	-24.000	0.100
452.900	-35.598	0.100
453.000	-16.934	0.100
453.100	-22.557	0.100
453.200	-37.888	0.100
453.300	-18.898	0.100
453.400	-32.904	0.100
453.500	-13.635	0.100
453.600	-21.047	0.100
453.700	-15.786	0.100
453.800	-35.477	0.100
453.900	-19.780	0.100
454.000	-31.138	0.100
454.100	-19.906	0.100
454.200	-27.520	0.100
454.300	-17.560	0.100
454.400	-17.309	0.100
454.500	-22.939	0.100
454.600	-22.052	0.100
454.700	-11.879	0.100
454.800	-15.053	0.100
454.900	-22.185	0.100
455.000	-19.694	0.100
455.100	-26.829	0.100
455.200	-28.524	0.100
455.300	-24.342	0.100
455.400	-12.096	0.100
455.500	-4.608	0.100
455.600	-21.061	0.100
455.700	-26.726	0.100
455.800	-25.358	0.100
455.900	-7.661	0.100
456.000	-18.058	0.100
456.100	-16.918	0.100
456.200	-20.366	0.100
456.300	-20.263	0.100
456.400	-22.317	0.100
456.500	-15.363	0.100
456.600	-20.388	0.100
456.700	-14.912	0.100
456.800	-24.520	0.100
456.900	-34.197	0.100
457.000	-17.909	0.100
457.100	-24.432	0.100
457.200	-11.597	0.100
457.300	-12.543	0.100
457.400	-18.426	0.100
457.500	-29.448	0.100
457.600	-25.413	0.100
457.700	-18.252	0.100
457.800	-27.593	0.100
457.900	-17.966	0.100
458.000	-24.071	0.100
458.100	-22.649	0.100
458.200	-18.608	0.100
458.300	-18.317	0.100
458.400	-9.798	0.100
458.500	-19.934	0.100
458.600	-21.290	0.100
458.700	-19.207	0.100
458.800	-18.681	0.100
458.900	-6.069	0.100
459.000	-21.857	0.100
459.100	-18.810	0.100
459.200	-20.378	0.100
459.300	-14.237	0.100
459.400	-26.392	0.100
459.500	-24.582	0.100
459.600	-21.066	0.100
459.700	-26.504	0.100
459.800	-22.216	0.100
459.900	-21.516	0.100
460.000	-20.651	0.100
460.100	-26.498	0.100
460.200	-33.810	0.100
460.300	-19.471	0.100
460.400	-19.242	0.100
460.500	-8.619	0.100
460.600	-24.678	0.100
460.700	-26.784	0.100
460.800	-28.758	0.100
460.900	-18.308	0.100
461.000	-22.252	0.100
461.100	-23.220	0.100
461.200	-18.811	0.100
461.300	-25.298	0.100
461.400	-19.985	0.100
461.500	-12.423	0.100
461.600	-27.685	0.100
461.700	-27.524	0.100
461.800	-13.618	0.100
461.900	-19.265	0.100
462.000	-16.322	0.100
462.100	-12.648	0.100
462.200	-13.979	0.100
462.300	-17.075	0.100
462.400	-10.164	0.100
462.500	-27.363	0.100
462.600	-20.873	0.100
462.700	-20.900	0.100
462.800	-19.130	0.100
462.900	-22.073	0.100
463.000	-29.869	0.100
463.100	-21.722	0.100
463.200	-20.424	0.100
463.300	-16.520	0.100
463.400	-22.066	0.100
463.500	-13.935	0.100
463.600	-21.720	0.100
463.700	-13.502	0.100
463.800	-24.078	0.100
463.900	-12.701	0.100
464.000	-16.464	0.100
464.100	-14.652	0.100
464.200	-35.880	0.100
464.300	-25.167	0.100
464.400	-21.571	0.100
464.500	-17.592	0.100
464.600	-20.833	0.100
464.700	-19.377	0.100
464.800	-20.918	0.100
464.900	-15.666	0.100
465.000	-23.751	0.100
465.100	-9.527	0.100
465.200	-17.383	0.100
465.300	-29.574	0.100
465.400	-20.628	0.100
465.500	-27.180	0.100
465.600	-18.314	0.100
465.700	-14.778	0.100
465.800	-8.267	0.100
465.900	-19.626	0.100
466.000	-14.424	0.100
466.100	-20.858	0.100
466.200	-12.492	0.100
466.300	-11.098	0.100
466.400	-19.056	0.100
466.500	-20.632	0.100
466.600	-18.803	0.100
466.700	-19.761	0.100
466.800	-13.572	0.100
466.900	-19.315	0.100
467.000	-17.377	0.100
467.100	-15.777	0.100
467.200	-16.397	0.100
467.300	-19.327	0.100
467.400	-18.479	0.100
467.500	-5.357	0.100
467.600	-23.072	0.100
467.700	-20.392	0.100
467.800	-29.827	0.100
467.900	-21.387	0.100
468.000	-7.745	0.100
468.100	-20.987	0.100
468.200	-15.254	0.100
468.300	-27.326	0.100
468.400	-10.364	0.100
468.500	0.419	0.100
468.600	-29.960	0.100
468.700	-12.948	0.100
468.800	-13.663	0.100
468.900	-27.264	0.100
469.000	-16.720	0.100
469.100	-14.647	0.100
469.200	-32.783	0.100
469.300	-15.359	0.100
469.400	-21.461	0.100
469.500	-32.212	0.100
469.600	-19.636	0.100
469.700	-13.004	0.100
469.800	-14.197	0.100
469.900	-12.398	0.100
470.000	-21.910	0.100
470.100	-13.904	0.100
470.200	-13.800	0.100
470.300	-23.173	0.100
470.400	-25.744	0.100
470.500	-21.051	0.100
470.600	-15.891	0.100
470.700	-21.170	0.100
470.800	-31.617	0.100
470.900	-19.011	0.100
471.000	-24.679	0.100
471.100	-11.228	0.100
471.200	-15.747	0.100
471.300	-17.364	0.100
471.400	-20.464	0.100
471.500	-16.798	0.100
471.600	-18.168	0.100
471.700	-27.270	0.100
471.800	-22.529	0.100
471.900	-22.362	0.100
472.000	-9.654	0.100
472.100	-22.413	0.100
472.200	-16.046	0.100
472.300	-12.639	0.100
472.400	-19.635	0.100
472.500	-12.457	0.100
472.600	-8.768	0.100
472.700	-13.581	0.100
472.800	-13.257	0.100
472.900	-20.769	0.100
473.000	-16.291	0.100
473.100	-23.854	0.100
473.200	-26.804	0.100
473.300	-21.204	0.100
473.400	-7.050	0.100
473.500	-12.705	0.100
473.600	-19.959	0.100
473.700	-18.109	0.100
473.800	-23.501	0.100
473.900	-19.020	0.100
474.000	-18.223	0.100
474.100	-16.093	0.100
474.200	-24.266	0.100
474.300	-14.017	0.100
474.400	-19.627	0.100
474.500	-11.546	0.100
474.600	-14.001	0.100
474.700	-20.524	0.100
474.800	-24.612	0.100
474.900	-18.210	0.100
475.000	-13.468	0.100
475.100	-14.710	0.100
475.200	-17.445	0.100
475.300	-34.650	0.100
475.400	-18.869	0.100
475.500	3.958	0.100
475.600	-20.876	0.100
475.700	-25.121	0.100
475.800	-23.890	0.100
475.900	-8.424	0.100
476.000	-2.468	0.100
476.100	-21.337	0.100
476.200	-17.891	0.100
476.300	-17.252	0.100
476.400	-15.579	0.100
476.500	-29.281	0.100
476.600	-19.568	0.100
476.700	-16.546	0.100
476.800	-24.417	0.100
476.900	-17.022	0.100
477.000	-20.899	0.100
477.100	-20.425	0.100
477.200	-11.669	0.100
477.300	-10.010	0.100
477.400	-10.166	0.100
477.500	-29.121	0.100
477.600	-9.512	0.100
477.700	-26.125	0.100
477.800	-15.047	0.100
477.900	-22.534	0.100
478.000	-24.682	0.100
478.100	-19.842	0.100
478.200	-17.838	0.100
478.300	-22.665	0.100
478.400	-10.975	0.100
478.500	-10.837	0.100
478.600	-14.562	0.100
478.700	-14.344	0.100
478.800	-21.369	0.100
478.900	-21.561	0.100
479.000	-16.336	0.100
479.100	-14.981	0.100
479.200	-23.344	0.100
479.300	-18.856	0.100
479.400	-16.007	0.100
479.500	-6.897	0.100
479.600	-17.056	0.100
479.700	-23.087	0.100
479.800	-22.296	0.100
479.900	-14.343	0.100
480.000	-15.250	0.100
480.100	-6.890	0.100
480.200	-4.918	0.100
480.300	-10.310	0.100
480.400	-8.247	0.100
480.500	1.240	0.100
480.600	-2.681	0.100
480.700	4.875	0.100
480.800	2.067	0.100
480.900	4.128	0.100
481.000	-0.597	0.100
481.100	18.933	0.100
481.200	10.615	0.100
481.300	16.545	0.100
481.400	26.461	0.100
481.500	25.183	0.100
481.600	28.868	0.100
481.700	28.006	0.100
481.800	21.515	0.100
481.900	33.871	0.100
482.000	30.466	0.100
482.100	32.091	0.100
482.200	36.431	0.100
482.300	32.895	0.100
482.400	33.346	0.100
482.500	29.237	0.100
482.600	51.192	0.100
482.700	42.712	0.100
482.800	35.108	0.100
482.900	46.689	0.100
483.000	35.212	0.100
483.100	50.746	0.100
483.200	50.704	0.100
483.300	45.359	0.100
483.400	47.928	0.100
483.500	45.597	0.100
483.600	45.868	0.100
483.700	44.428	0.100
483.800	45.353	0.100
483.900	47.194	0.100
484.000	41.440	0.100
484.100	48.913	0.100
484.200	40.569	0.100
484.300	40.558	0.100
484.400	44.505	0.100
484.500	42.390	0.100
484.600	43.549	0.100
484.700	31.848	0.100
484.800	49.691	0.100
484.900	44.732	0.100
485.000	38.661	0.100
485.100	41.948	0.100
485.200	52.197	0.100
485.300	41.763	0.100
485.400	36.859	0.100
485.500	45.483	0.100
485.600	43.833	0.100
485.700	39.096	0.100
485.800	35.725	0.100
485.900	39.540	0.100
486.000	30.362	0.100
486.100	44.500	0.100
486.200	55.620	0.100
486.300	51.691	0.100
486.400	36.495	0.100
486.500	30.906	0.100
486.600	30.321	0.100
486.700	31.501	0.100
486.800	42.078	0.100
486.900	33.780	0.100
487.000	35.729	0.100
487.100	37.790	0.100
487.200	36.004	0.100
487.300	47.865	0.100
487.400	34.318	0.100
487.500	34.554	0.100
487.600	27.288	0.100
487.700	37.202	0.100
487.800	32.891	0.100
487.900	41.905	0.100
488.000	31.244	0.100
488.100	23.841	0.100
488.200	52.853	0.100
488.300	42.311	0.100
488.400	31.389	0.100
488.500	41.708	0.100
488.600	32.983	0.100
488.700	47.906	0.100
488.800	48.108	0.100
488.900	48.223	0.100
489.000	44.664	0.100
489.100	46.271	0.100
489.200	31.147	0.100
489.300	35.346	0.100
489.400	33.836	0.100
489.500	32.072	0.100
489.600	45.174	0.100
489.700	44.365	0.100
489.800	36.357	0.100
489.900	41.975	0.100
490.000	39.517	0.100
490.100	38.504	0.100
490.200	23.528	0.100
490.300	31.004	0.100
490.400	47.632	0.100
490.500	34.507	0.100
490.600	43.735	0.100
490.700	36.546	0.100
490.800	19.436	0.100
490.900	36.050	0.100
491.000	36.700	0.100
491.100	42.356	0.100
491.200	38.596	0.100
491.300	32.955	0.100
491.400	39.888	0.100
491.500	44.619	0.100
491.600	38.735	0.100
491.700	43.060	0.100
491.800	40.791	0.100
491.900	56.470	0.100
492.000	51.779	0.100
492.100	30.707	0.100
492.200	34.004	0.100
492.300	35.256	0.100
492.400	43.277	0.100
492.500	40.835	0.100
492.600	37.965	0.100
492.700	33.619	0.100
492.800	37.939	0.100
492.900	45.155	0.100
493.000	50.028	0.100
493.100	26.141	0.100
493.200	44.021	0.100
493.300	32.262	0.100
493.400	50.959	0.100
493.500	54.140	0.100
493.600	41.081	0.100
493.700	35.350	0.100
493.800	40.474	0.100
493.900	42.985	0.100
494.000	41.033	0.100
494.100	30.116	0.100
494.200	38.604	0.100
494.300	35.399	0.100
494.400	38.904	0.100
494.500	34.761	0.100
494.600	52.091	0.100
494.700	33.664	0.100
494.800	39.663	0.100
494.900	45.254	0.100
495.000	48.386	0.100
495.100	51.319	0.100
495.200	41.527	0.100
495.300	49.803	0.100
495.400	43.017	0.100
495.500	39.949	0.100
495.600	40.487	0.100
495.700	42.276	0.100
495.800	27.206	0.100
495.900	48.085	0.100
496.000	47.409	0.100
496.100	42.637	0.100
496.200	51.105	0.100
496.300	34.322	0.100
496.400	47.430	0.100
496.500	38.796	0.100
496.600	38.420	0.100
496.700	41.437	0.100
496.800	39.666	0.100
496.900	39.673	0.100
497.000	53.071	0.100
497.100	46.267	0.100
497.200	44.868	0.100
497.300	44.511	0.100
497.400	47.477	0.100
497.500	38.397	0.100
497.600	47.573	0.100
497.700	36.870	0.100
497.800	40.742	0.100
497.900	42.980	0.100
498.000	48.989	0.100
498.100	41.233	0.100
498.200	41.749	0.100
498.300	43.307	0.100
498.400	46.921	0.100
498.500	31.742	0.100
498.600	44.514	0.100
498.700	40.069	0.100
498.800	40.540	0.100
498.900	39.788	0.100
499.000	50.104	0.100
499.100	41.728	0.100
499.200	33.806	0.100
499.300	53.371	0.100
499.400	44.653	0.100
499.500	42.039	0.100
499.600	55.488	0.100
499.700	44.391	0.100
499.800	51.719	0.100
499.900	42.086	0.100
500.000	29.958	0.100
500.100	55.633	0.100
500.200	39.739	0.100
500.300	50.271	0.100
500.400	46.145	0.100
500.500	43.626	0.100
500.600	48.423	0.100
500.700	44.418	0.100
500.800	46.474	0.100
500.900	43.048	0.100
501.000	46.561	0.100
501.100	46.800	0.100
501.200	46.635	0.100
501.300	58.533	0.100
501.400	52.183	0.100
501.500	43.650	0.100
501.600	48.931	0.100
501.700	48.610	0.100
501.800	40.732	0.100
501.900	33.944	0.100
502.000	41.741	0.100
502.100	53.369	0.100
502.200	46.652	0.100
502.300	52.792	0.100
502.400	54.173	0.100
502.500	44.242	0.100
502.600	48.362	0.100
502.700	53.948	0.100
502.800	47.373	0.100
502.900	41.507	0.100
503.000	48.182	0.100
503.100	48.419	0.100
503.200	51.041	0.100
503.300	55.609	0.100
503.400	52.599	0.100
503.500	49.352	0.100
503.600	49.906	0.100
503.700	42.686	0.100
503.800	51.857	0.100
503.900	47.875	0.100
504.000	48.151	0.100
504.100	42.783	0.100
504.200	40.450	0.100
504.300	46.856	0.100
504.400	46.825	0.100
504.500	56.977	0.100
504.600	59.225	0.100
504.700	47.315	0.100
504.800	59.384	0.100
504.900	56.570	0.100
505.000	54.018	0.100
505.100	40.317	0.100
505.200	58.459	0.100
505.300	55.914	0.100
505.400	57.861	0.100
505.500	64.832	0.100
505.600	56.613	0.100
505.700	39.982	0.100
505.800	51.121	0.100
505.900	48.605	0.100
506.000	49.306	0.100
506.100	59.294	0.100
506.200	48.847	0.100
506.300	65.838	0.100
506.400	54.992	0.100
506.500	45.754	0.100
506.600	64.240	0.100
506.700	57.415	0.100
506.800	66.469	0.100
506.900	49.255	0.100
507.000	42.250	0.100
507.100	54.472	0.100
507.200	64.301	0.100
507.300	63.587	0.100
507.400	61.061	0.100
507.500	55.210	0.100
507.600	59.889	0.100
507.700	58.590	0.100
507.800	69.710	0.100
507.900	58.785	0.100
508.000	50.806	0.100
508.100	57.057	0.100
508.200	55.276	0.100
508.300	56.779	0.100
508.400	54.873	0.100
508.500	57.491	0.100
508.600	51.841	0.100
508.700	51.557	0.100
508.800	51.822	0.100
508.900	75.975	0.100
509.000	62.583	0.100
509.100	69.022	0.100
509.200	64.574	0.100
509.300	47.825	0.100
509.400	56.731	0.100
509.500	71.102	0.100
509.600	65.994	0.100
509.700	57.602	0.100
509.800	58.174	0.100
509.900	58.202	0.100
510.000	65.527	0.100
510.100	70.601	0.100
510.200	54.572	0.100
510.300	54.699	0.100
510.400	55.122	0.100
510.500	56.420	0.100
510.600	67.703	0.100
510.700	61.281	0.100
510.800	63.690	0.100
510.900	56.094	0.100
511.000	63.186	0.100
511.100	61.748	0.100
511.200	65.570	0.100
511.300	72.028	0.100
511.400	50.139	0.100
511.500	58.209	0.100
511.600	50.064	0.100
511.700	75.366	0.100
511.800	71.319	0.100
511.900	58.604	0.100
512.000	58.808	0.100
512.100	67.104	0.100
512.200	56.275	0.100
512.300	76.396	0.100
512.400	63.704	0.100
512.500	62.448	0.100
512.600	61.319	0.100
512.700	65.593	0.100
512.800	60.871	0.100
512.900	65.604	0.100
513.000	62.767	0.100
513.100	59.053	0.100
513.200	58.027	0.100
513.300	62.936	0.100
513.400	52.205	0.100
513.500	61.326	0.100
513.600	61.931	0.100
513.700	67.788	0.100
513.800	77.744	0.100
513.900	59.945	0.100
514.000	68.055	0.100
514.100	67.844	0.100
514.200	71.764	0.100
514.300	61.875	0.100
514.400	55.492	0.100
514.500	64.229	0.100
514.600	67.747	0.100
514.700	64.076	0.100
514.800	61.441	0.100
514.900	67.576	0.100
515.000	67.211	0.100
515.100	59.327	0.100
515.200	57.008	0.100
515.300	64.690	0.100
515.400	68.014	0.100
515.500	68.183	0.100
515.600	63.427	0.100
515.700	59.957	0.100
515.800	50.214	0.100
515.900	58.796	0.100
516.000	56.417	0.100
516.100	63.486	0.100
516.200	60.316	0.100
516.300	71.761	0.100
516.400	67.411	0.100
516.500	59.345	0.100
516.600	68.124	0.100
516.700	74.983	0.100
516.800	57.701	0.100
516.900	60.647	0.100
517.000	58.287	0.100
517.100	65.033	0.100
517.200	61.905	0.100
517.300	58.711	0.100
517.400	66.106	0.100
517.500	54.874	0.100
517.600	65.034	0.100
517.700	67.076	0.100
517.800	68.066	0.100
517.900	65.407	0.100
518.000	62.081	0.100
518.100	55.097	0.100
518.200	57.854	0.100
518.300	61.535	0.100
518.400	65.818	0.100
518.500	58.591	0.100
518.600	59.251	0.100
518.700	59.580	0.100
518.800	65.917	0.100
518.900	73.571	0.100
519.000	73.491	0.100
519.100	80.159	0.100
519.200	66.254	0.100
519.300	54.077	0.100
519.400	56.934	0.100
519.500	62.363	0.100
519.600	57.992	0.100
519.700	54.612	0.100
519.800	51.414	0.100
519.900	78.326	0.100
520.000	59.935	0.100
520.100	66.840	0.100
520.200	49.484	0.100
520.300	51.263	0.100
520.400	75.619	0.100
520.500	64.092	0.100
520.600	79.335	0.100
520.700	70.129	0.100
520.800	48.503	0.100
520.900	69.408	0.100
521.000	60.250	0.100
521.100	66.140	0.100
521.200	68.775	0.100
521.300	50.114	0.100
521.400	55.706	0.100
521.500	56.701	0.100
521.600	69.980	0.100
521.700	57.734	0.100
521.800	57.413	0.100
521.900	65.095	0.100
522.000	61.536	0.100
522.100	62.700	0.100
522.200	65.953	0.100
522.300	58.573	0.100
522.400	61.574	0.100
522.500	56.847	0.100
522.600	69.842	0.100
522.700	68.072	0.100
522.800	62.227	0.100
522.900	75.877	0.100
523.000	60.187	0.100
523.100	66.270	0.100
523.200	59.326	0.100
523.300	70.282	0.100
523.400	52.598	0.100
523.500	61.701	0.100
523.600	56.583	0.100
523.700	66.223	0.100
523.800	62.675	0.100
523.900	70.816	0.100
524.000	64.906	0.100
524.100	58.962	0.100
524.200	63.326	0.100
524.300	75.920	0.100
524.400	55.065	0.100
524.500	59.261	0.100
524.600	62.970	0.100
524.700	55.195	0.100
524.800	61.189	0.100
524.900	60.338	0.100
525.000	76.081	0.100
525.100	60.459	0.100
525.200	52.622	0.100
525.300	71.623	0.100
525.400	64.850	0.100
525.500	58.328	0.100
525.600	39.437	0.100
525.700	64.198	0.100
525.800	64.060	0.100
525.900	62.265	0.100
526.000	57.667	0.100
526.100	45.059	0.100
526.200	75.466	0.100
526.300	68.123	0.100
526.400	56.122	0.100
526.500	68.729	0.100
526.600	66.938	0.100
526.700	45.948	0.100
526.800	73.505	0.100
526.900	67.042	0.100
527.000	50.379	0.100
527.100	62.464	0.100
527.200	52.445	0.100
527.300	61.499	0.100
527.400	59.182	0.100
527.500	65.787	0.100
527.600	73.486	0.100
527.700	60.638	0.100
527.800	68.961	0.100
527.900	63.662	0.100
528.000	43.142	0.100
528.100	44.723	0.100
528.200	62.146	0.100
528.300	60.158	0.100
528.400	62.128	0.100
528.500	59.675	0.100
528.600	64.850	0.100
528.700	72.465	0.100
528.800	59.598	0.100
528.900	58.541	0.100
529.000	60.296	0.100
529.100	55.518	0.100
529.200	57.210	0.100
529.300	67.939	0.100
529.400	66.036	0.100
529.500	48.861	0.100
529.600	56.776	0.100
529.700	55.849	0.100
529.800	66.173	0.100
529.900	66.638	0.100
530.000	51.313	0.100
530.100	67.501	0.100
530.200	71.733	0.100
530.300	64.038	0.100
530.400	66.370	0.100
530.500	72.966	0.100
530.600	59.765	0.100
530.700	45.402	0.100
530.800	62.763	0.100
530.900	71.886	0.100
531.000	66.064	0.100
531.100	54.939	0.100
531.200	67.273	0.100
531.300	58.818	0.100
531.400	46.265	0.100
531.500	56.755	0.100
531.600	61.852	0.100
531.700	69.895	0.100
531.800	62.663	0.100
531.900	60.761	0.100
532.000	58.835	0.100
532.100	39.778	0.100
532.200	57.272	0.100
532.300	58.725	0.100
532.400	61.666	0.100
532.500	51.814	0.100
532.600	66.833	0.100
532.700	66.158	0.100
532.800	49.050	0.100
532.900	59.311	0.100
533.000	51.915	0.100
533.100	65.674	0.100
533.200	62.479	0.100
533.300	48.942	0.100
533.400	75.381	0.100
533.500	62.760	0.100
533.600	57.202	0.100
533.700	55.433	0.100
533.800	45.080	0.100
533.900	53.190	0.100
534.000	51.662	0.100
534.100	64.631	0.100
534.200	67.746	0.100
534.300	48.076	0.100
534.400	48.338	0.100
534.500	63.600	0.100
534.600	57.352	0.100
534.700	63.529	0.100
534.800	70.681	0.100
534.900	50.249	0.100
535.000	55.319	0.100
535.100	50.733	0.100
535.200	60.320	0.100
535.300	68.248	0.100
535.400	69.696	0.100
535.500	65.373	0.100
535.600	63.581	0.100
535.700	62.472	0.100
535.800	57.328	0.100
535.900	48.601	0.100
536.000	60.086	0.100
536.100	66.228	0.100
536.200	56.879	0.100
536.300	57.338	0.100
536.400	55.667	0.100
536.500	65.760	0.100
536.600	58.844	0.100
536.700	61.522	0.100
536.800	71.572	0.100
536.900	71.773	0.100
537.000	53.785	0.100
537.100	59.667	0.100
537.200	48.510	0.100
537.300	69.621	0.100
537.400	60.818	0.100
537.500	56.525	0.100
537.600	60.886	0.100
537.700	70.137	0.100
537.800	52.197	0.100
537.900	73.334	0.100
538.000	59.997	0.100
538.100	52.987	0.100
538.200	58.750	0.100
538.300	57.689	0.100
538.400	53.852	0.100
538.500	56.846	0.100
538.600	69.240	0.100
538.700	63.943	0.100
538.800	60.114	0.100
538.900	60.896	0.100
539.000	47.744	0.100
539.100	60.434	0.100
539.200	65.087	0.100
539.300	58.685	0.100
539.400	57.931	0.100
539.500	49.953	0.100
539.600	60.513	0.100
539.700	59.932	0.100
539.800	71.984	0.100
539.900	61.815	0.100
540.000	66.934	0.100
540.100	62.931	0.100
540.200	51.494	0.100
540.300	63.794	0.100
540.400	60.147	0.100
540.500	49.816	0.100
540.600	55.986	0.100
540.700	58.384	0.100
540.800	34.350	0.100
540.900	47.869	0.100
541.000	33.210	0.100
541.100	20.199	0.100
541.200	29.489	0.100
541.300	21.922	0.100
541.400	35.958	0.100
541.500	27.967	0.100
541.600	18.297	0.100
541.700	23.406	0.100
541.800	11.987	0.100
541.900	18.892	0.100
542.000	4.646	0.100
542.100	9.515	0.100
542.200	21.554	0.100
542.300	15.350	0.100
542.400	14.966	0.100
542.500	-2.460	0.100
542.600	15.294	0.100
542.700	11.396	0.100
542.800	8.008	0.100
542.900	5.615	0.100
543.000	8.004	0.100
543.100	6.647	0.100
543.200	7.532	0.100
543.300	-3.389	0.100
543.400	6.799	0.100
543.500	-1.366	0.100
543.600	-2.719	0.100
543.700	0.872	0.100
543.800	4.232	0.100
543.900	-2.120	0.100
544.000	0.721	0.100
544.100	0.705	0.100
544.200	-0.584	0.100
544.300	-22.654	0.100
544.400	19.006	0.100
544.500	-7.926	0.100
544.600	7.157	0.100
544.700	7.963	0.100
544.800	-3.931	0.100
544.900	-1.711	0.100
545.000	4.141	0.100
545.100	1.544	0.100
545.200	-1.892	0.100
545.300	1.930	0.100
545.400	-5.174	0.100
545.500	6.769	0.100
545.600	-6.591	0.100
545.700	-0.675	0.100
545.800	1.575	0.100
545.900	9.102	0.100
546.000	-0.418	0.100
546.100	-2.464	0.100
546.200	-1.722	0.100
546.300	3.120	0.100
546.400	-3.565	0.100
546.500	-0.150	0.100
546.600	-1.756	0.100
546.700	-9.093	0.100
546.800	-12.751	0.100
546.900	-5.449	0.100
547.000	2.395	0.100
547.100	-14.223	0.100
547.200	-0.848	0.100
547.300	0.182	0.100
547.400	1.920	0.100
547.500	-5.118	0.100
547.600	0.078	0.100
547.700	0.074	0.100
547.800	-5.114	0.100
547.900	-3.615	0.100
548.000	3.366	0.100
548.100	-8.683	0.100
548.200	7.574	0.100
548.300	2.135	0.100
548.400	-19.047	0.100
548.500	13.588	0.100
548.600	0.290	0.100
548.700	10.555	0.100
548.800	-16.843	0.100
548.900	0.434	0.100
549.000	-6.462	0.100
549.100	-2.740	0.100
549.200	1.890	0.100
549.300	-9.445	0.100
549.400	-7.034	0.100
549.500	-6.295	0.100
549.600	-9.537	0.100
549.700	-8.720	0.100
549.800	-0.299	0.100
549.900	13.182	0.100
550.000	-3.578	0.100
550.100	-7.040	0.100
550.200	1.753	0.100
550.300	-8.544	0.100
550.400	2.979	0.100
550.500	-6.136	0.100
550.600	-1.860	0.100
550.700	-2.912	0.100
550.800	-9.127	0.100
550.900	-7.307	0.100
551.000	6.052	0.100
551.100	-1.121	0.100
551.200	2.443	0.100
551.300	-9.534	0.100
551.400	-9.887	0.100
551.500	-6.506	0.100
551.600	-10.752	0.100
551.700	-0.630	0.100
551.800	2.646	0.100
551.900	-5.907	0.100
552.000	-19.532	0.100
552.100	-16.448	0.100
552.200	-6.218	0.100
552.300	-4.580	0.100
552.400	-4.599	0.100
552.500	-4.752	0.100
552.600	-8.393	0.100
552.700	-14.991	0.100
552.800	11.363	0.100
552.900	1.577	0.100
553.000	-6.093	0.100
553.100	-13.420	0.100
553.200	-13.713	0.100
553.300	-15.359	0.100
553.400	-10.855	0.100
553.500	-13.028	0.100
553.600	3.895	0.100
553.700	-12.212	0.100
553.800	-8.233	0.100
553.900	3.490	0.100
554.000	-17.094	0.100
554.100	-19.449	0.100
554.200	-15.288	0.100
554.300	-10.378	0.100
554.400	4.946	0.100
554.500	-8.618	0.100
554.600	-17.364	0.100
554.700	-12.081	0.100
554.800	-3.946	0.100
554.900	-3.257	0.100
555.000	-2.807	0.100
555.100	-10.839	0.100
555.200	-13.451	0.100
555.300	-22.225	0.100
555.400	-17.065	0.100
555.500	-1.996	0.100
555.600	-24.190	0.100
555.700	-5.857	0.100
555.800	-9.121	0.100
555.900	-21.338	0.100
556.000	-9.063	0.100
556.100	-16.133	0.100
556.200	-7.159	0.100
556.300	-1.997	0.100
556.400	-0.231	0.100
556.500	-11.532	0.100
556.600	-19.201	0.100
556.700	-3.945	0.100
556.800	-16.251	0.100
556.900	-14.041	0.100
557.000	-14.697	0.100
557.100	-15.318	0.100
557.200	-11.165	0.100
557.300	-5.102	0.100
557.400	-10.599	0.100
557.500	-12.400	0.100
557.600	-12.103	0.100
557.700	-7.064	0.100
557.800	-14.430	0.100
557.900	-18.933	0.100
558.000	-10.732	0.100
558.100	-22.259	0.100
558.200	-14.669	0.100
558.300	-18.551	0.100
558.400	-25.367	0.100
558.500	-5.366	0.100
558.600	-14.728	0.100
558.700	-10.301	0.100
558.800	-20.314	0.100
558.900	-19.387	0.100
559.000	-10.068	0.100
559.100	-7.194	0.100
559.200	-15.986	0.100
559.300	0.194	0.100
559.400	-11.241	0.100
559.500	-22.865	0.100
559.600	-22.701	0.100
559.700	3.255	0.100
559.800	-12.989	0.100
559.900	-10.798	0.100
560.000	-20.901	0.100
560.100	-24.470	0.100
560.200	-14.608	0.100
560.300	-14.394	0.100
560.400	-8.327	0.100
560.500	-12.867	0.100
560.600	-22.221	0.100
560.700	-27.710	0.100
560.800	-26.980	0.100
560.900	-25.937	0.100
561.000	-11.088	0.100
561.100	-27.704	0.100
561.200	-17.725	0.100
561.300	-1.030	0.100
561.400	-8.641	0.100
561.500	-13.701	0.100
561.600	-23.307	0.100
561.700	-13.229	0.100
561.800	-13.367	0.100
561.900	-26.538	0.100
562.000	-1.708	0.100
562.100	-11.176	0.100
562.200	-11.004	0.100
562.300	-10.123	0.100
562.400	-28.354	0.100
562.500	-21.636	0.100
562.600	-20.627	0.100
562.700	-14.585	0.100
562.800	-19.194	0.100
562.900	-21.476	0.100
563.000	-9.247	0.100
563.100	-6.402	0.100
563.200	-14.474	0.100
563.300	-15.604	0.100
563.400	-16.882	0.100
563.500	-14.604	0.100
563.600	-13.689	0.100
563.700	-10.595	0.100
563.800	-23.277	0.100
563.900	-25.440	0.100
564.000	-25.720	0.100
564.100	-25.782	0.100
564.200	-20.898	0.100
564.300	-22.339	0.100
564.400	-16.143	0.100
564.500	-24.636	0.100
564.600	-15.446	0.100
564.700	-22.833	0.100
564.800	-14.076	0.100
564.900	-30.621	0.100
565.000	-32.511	0.100
565.100	-21.294	0.100
565.200	-22.979	0.100
565.300	-13.733	0.100
565.400	-11.081	0.100
565.500	-28.897	0.100
565.600	-7.511	0.100
565.700	-14.525	0.100
565.800	-20.798	0.100
565.900	-24.843	0.100
566.000	-16.449	0.100
566.100	-18.421	0.100
566.200	-21.222	0.100
566.300	-25.076	0.100
566.400	-27.042	0.100
566.500	-16.197	0.100
566.600	-8.206	0.100
566.700	-21.011	0.100
566.800	-29.594	0.100
566.900	-26.478	0.100
567.000	-19.134	0.100
567.100	-24.758	0.100
567.200	-23.189	0.100
567.300	-22.678	0.100
567.400	-16.642	0.100
567.500	-20.784	0.100
567.600	-17.826	0.100
567.700	-5.760	0.100
567.800	-18.924	0.100
567.900	-17.599	0.100
568.000	-22.624	0.100
568.100	-19.155	0.100
568.200	-18.326	0.100
568.300	-17.261	0.100
568.400	-31.239	0.100
568.500	-22.278	0.100
568.600	-37.062	0.100
568.700	-17.787	0.100
568.800	-21.603	0.100
568.900	-21.335	0.100
569.000	-17.542	0.100
569.100	-13.608	0.100
569.200	-24.168	0.100
569.300	-27.264	0.100
569.400	-17.032	0.100
569.500	-7.727	0.100
569.600	-31.686	0.100
569.700	-24.542	0.100
569.800	-19.123	0.100
569.900	-26.220	0.100
570.000	-26.071	0.100
570.100	-18.394	0.100
570.200	-18.439	0.100
570.300	-17.744	0.100
570.400	-23.879	0.100
570.500	-21.605	0.100
570.600	-27.391	0.100
570.700	-28.029	0.100
570.800	-24.306	0.100
570.900	-23.309	0.100
571.000	-22.777	0.100
571.100	-17.007	0.100
571.200	-33.479	0.100
571.300	-37.368	0.100
571.400	-15.392	0.100
571.500	-18.959	0.100
571.600	-28.167	0.100
571.700	-20.861	0.100
571.800	-21.299	0.100
571.900	-17.447	0.100
572.000	-28.210	0.100
572.100	-24.571	0.100
572.200	-26.259	0.100
572.300	-22.970	0.100
572.400	-30.136	0.100
572.500	-17.163	0.100
572.600	-23.188	0.100
572.700	-29.138	0.100
572.800	-28.492	0.100
572.900	-24.831	0.100
573.000	-20.714	0.100
573.100	-35.082	0.100
573.200	-15.606	0.100
573.300	-15.932	0.100
573.400	-33.647	0.100
573.500	-25.128	0.100
573.600	-18.752	0.100
573.700	-25.122	0.100
573.800	-16.488	0.100
573.900	-14.244	0.100
574.000	-20.323	0.100
574.100	-18.334	0.100
574.200	-19.930	0.100
574.300	-32.780	0.100
574.400	-20.639	0.100
574.500	-30.033	0.100
574.600	-18.679	0.100
574.700	-27.426	0.100
574.800	-22.940	0.100
574.900	-32.999	0.100
575.000	-27.219	0.100
575.100	-24.271	0.100
575.200	-11.408	0.100
575.300	-20.288	0.100
575.400	-24.995	0.100
575.500	-30.143	0.100
575.600	-31.695	0.100
575.700	-24.906	0.100
575.800	-21.839	0.100
575.900	-19.313	0.100
576.000	-31.330	0.100
576.100	-31.129	0.100
576.200	-23.055	0.100
576.300	-32.958	0.100
576.400	-22.848	0.100
576.500	-17.366	0.100
576.600	-22.810	0.100
576.700	-21.063	0.100
576.800	-35.767	0.100
576.900	-35.249	0.100
577.000	-26.573	0.100
577.100	-13.609	0.100
577.200	-16.965	0.100
577.300	-16.305	0.100
577.400	-22.642	0.100
577.500	-25.718	0.100
577.600	-27.024	0.100
577.700	-24.106	0.100
577.800	-31.392	0.100
577.900	-28.753	0.100
578.000	-34.907	0.100
578.100	-22.108	0.100
578.200	-25.158	0.100
578.300	-26.999	0.100
578.400	-31.108	0.100
578.500	-12.963	0.100
578.600	-28.469	0.100
578.700	-28.817	0.100
578.800	-38.789	0.100
578.900	-23.643	0.100
579.000	-32.387	0.100
579.100	-26.954	0.100
579.200	-26.209	0.100
579.300	-25.017	0.100
579.400	-24.475	0.100
579.500	-28.783	0.100
579.600	-24.940	0.100
579.700	-29.780	0.100
579.800	-20.717	0.100
579.900	-30.105	0.100
580.000	-32.804	0.100
580.100	-22.597	0.100
580.200	-31.719	0.100
580.300	-27.693	0.100
580.400	-33.645	0.100
580.500	-25.623	0.100
580.600	-29.260	0.100
580.700	-33.358	0.100
580.800	-22.196	0.100
580.900	-28.902	0.100
581.000	-30.824	0.100
581.100	-28.248	0.100
581.200	-24.985	0.100
581.300	-17.269	0.100
581.400	-35.724	0.100
581.500	-38.212	0.100
581.600	-18.722	0.100
581.700	-20.946	0.100
581.800	-25.213	0.100
581.900	-20.091	0.100
582.000	-35.411	0.100
582.100	-26.962	0.100
582.200	-28.339	0.100
582.300	-35.198	0.100
582.400	-22.498	0.100
582.500	-19.933	0.100
582.600	-32.169	0.100
582.700	-33.780	0.100
582.800	-35.329	0.100
582.900	-37.081	0.100
583.000	-31.742	0.100
583.100	-34.132	0.100
583.200	-19.011	0.100
583.300	-32.713	0.100
583.400	-10.243	0.100
583.500	-24.202	0.100
583.600	-27.072	0.100
583.700	-25.165	0.100
583.800	-27.082	0.100
583.900	-41.019	0.100
584.000	-24.168	0.100
584.100	-30.758	0.100
584.200	-18.261	0.100
584.300	-27.725	0.100
584.400	-28.730	0.100
584.500	-34.802	0.100
584.600	-19.038	0.100
584.700	-22.902	0.100
584.800	-33.155	0.100
584.900	-27.260	0.100
585.000	-30.907	0.100
585.100	-25.837	0.100
585.200	-29.563	0.100
585.300	-23.435	0.100
585.400	-33.847	0.100
585.500	-16.331	0.100
585.600	-31.916	0.100
585.700	-32.451	0.100
585.800	-24.195	0.100
585.900	-31.594	0.100
586.000	-29.125	0.100
586.100	-25.369	0.100
586.200	-29.616	0.100
586.300	-32.429	0.100
586.400	-32.286	0.100
586.500	-35.475	0.100
586.600	-28.661	0.100
586.700	-27.329	0.100
586.800	-25.227	0.100
586.900	-31.247	0.100
587.000	-33.237	0.100
587.100	-32.494	0.100
587.200	-28.999	0.100
587.300	-11.966	0.100
587.400	-28.951	0.100
587.500	-27.994	0.100
587.600	-26.308	0.100
587.700	-25.785	0.100
587.800	-30.584	0.100
587.900	-32.554	0.100
588.000	-36.638	0.100
588.100	-25.439	0.100
588.200	-18.644	0.100
588.300	-18.967	0.100
588.400	-24.642	0.100
588.500	-23.941	0.100
588.600	-25.628	0.100
588.700	-37.728	0.100
588.800	-29.175	0.100
588.900	-39.749	0.100
589.000	-19.848	0.100
589.100	-37.843	0.100
589.200	-36.606	0.100
589.300	-22.103	0.100
589.400	-29.907	0.100
589.500	-27.120	0.100
589.600	-20.220	0.100
589.700	-31.490	0.100
589.800	-24.510	0.100
589.900	-34.070	0.100
590.000	-30.415	0.100
590.100	-22.075	0.100
590.200	-35.076	0.100
590.300	-22.029	0.100
590.400	-21.242	0.100
590.500	-27.374	0.100
590.600	-29.282	0.100
590.700	-21.617	0.100
590.800	-21.127	0.100
590.900	-32.394	0.100
591.000	-24.065	0.100
591.100	-34.496	0.100
591.200	-26.747	0.100
591.300	-26.826	0.100
591.400	-22.280	0.100
591.500	-26.735	0.100
591.600	-31.965	0.100
591.700	-28.213	0.100
591.800	-24.052	0.100
591.900	-23.999	0.100
592.000	-28.570	0.100
592.100	-40.575	0.100
592.200	-33.011	0.100
592.300	-28.352	0.100
592.400	-21.318	0.100
592.500	-15.411	0.100
592.600	-18.314	0.100
592.700	-32.441	0.100
592.800	-28.308	0.100
592.900	-34.065	0.100
593.000	-18.274	0.100
593.100	-28.043	0.100
593.200	-26.786	0.100
593.300	-26.595	0.100
593.400	-17.369	0.100
593.500	-33.470	0.100
593.600	-32.499	0.100
593.700	-25.866	0.100
593.800	-33.619	0.100
593.900	-27.282	0.100
594.000	-27.580	0.100
594.100	-24.334	0.100
594.200	-16.133	0.100
594.300	-37.916	0.100
594.400	-28.673	0.100
594.500	-26.125	0.100
594.600	-13.229	0.100
594.700	-32.073	0.100
594.800	-36.771	0.100
594.900	-40.247	0.100
595.000	-18.467	0.100
595.100	-25.745	0.100
595.200	-44.078	0.100
595.300	-24.918	0.100
595.400	-13.244	0.100
595.500	-25.484	0.100
595.600	-19.927	0.100
595.700	-15.082	0.100
595.800	-32.838	0.100
595.900	-26.136	0.100
596.000	-30.060	0.100
596.100	-26.777	0.100
596.200	-25.479	0.100
596.300	-20.206	0.100
596.400	-27.569	0.100
596.500	-27.318	0.100
596.600	-21.640	0.100
596.700	-29.862	0.100
596.800	-19.496	0.100
596.900	-25.959	0.100
597.000	-18.453	0.100
597.100	-44.970	0.100
597.200	-23.748	0.100
597.300	-24.698	0.100
597.400	-30.196	0.100
597.500	-20.916	0.100
597.600	-22.760	0.100
597.700	-17.446	0.100
597.800	-35.551	0.100
597.900	-36.500	0.100
598.000	-28.336	0.100
598.100	-34.631	0.100
598.200	-28.309	0.100
598.300	-28.947	0.100
598.400	-26.448	0.100
598.500	-25.970	0.100
598.600	-13.491	0.100
598.700	-23.194	0.100
598.800	-26.147	0.100
598.900	-19.109	0.100
599.000	-23.305	0.100
599.100	-30.391	0.100
599.200	-33.040	0.100
599.300	-20.815	0.100
599.400	-32.387	0.100
599.500	-23.212	0.100
599.600	-23.339	0.100
599.700	-33.649	0.100
599.800	-28.868	0.100
599.900	-24.788	0.100
600.000	-15.238	0.100
600.100	-30.780	0.100
600.200	-21.712	0.100
600.300	-25.472	0.100
600.400	-14.812	0.100
600.500	-30.749	0.100
600.600	-25.339	0.100
600.700	-19.857	0.100
600.800	-24.603	0.100
600.900	-14.178	0.100
601.000	-23.381	0.100
601.100	-18.631	0.100
601.200	-32.162	0.100
601.300	-26.948	0.100
601.400	-23.647	0.100
601.500	-22.200	0.100
601.600	-27.740	0.100
601.700	-21.315	0.100
601.800	-29.226	0.100
601.900	-29.827	0.100
602.000	-24.759	0.100
602.100	-27.725	0.100
602.200	-23.104	0.100
602.300	-26.856	0.100
602.400	-39.836	0.100
602.500	-19.474	0.100
602.600	-15.837	0.100
602.700	-21.913	0.100
602.800	-22.302	0.100
602.900	-23.676	0.100
603.000	-24.703	0.100
603.100	-27.061	0.100
603.200	-17.997	0.100
603.300	-18.799	0.100
603.400	-29.741	0.100
603.500	-22.836	0.100
603.600	-28.267	0.100
603.700	-33.756	0.100
603.800	-29.197	0.100
603.900	-34.001	0.100
604.000	-27.743	0.100
604.100	-22.314	0.100
604.200	-25.930	0.100
604.300	-26.444	0.100
604.400	-23.598	0.100
604.500	-18.739	0.100
604.600	-27.369	0.100
604.700	-18.384	0.100
604.800	-34.048	0.100
604.900	-26.210	0.100
605.000	-28.941	0.100
605.100	-36.581	0.100
605.200	-25.844	0.100
605.300	-34.648	0.100
605.400	-13.529	0.100
605.500	-30.654	0.100
605.600	-25.000	0.100
605.700	-26.557	0.100
605.800	-11.158	0.100
605.900	-21.855	0.100
606.000	-25.760	0.100
606.100	-29.488	0.100
606.200	-24.537	0.100
606.300	-25.291	0.100
606.400	-24.356	0.100
606.500	-29.219	0.100
606.600	-16.101	0.100
606.700	-15.207	0.100
606.800	-26.725	0.100
606.900	-16.432	0.100
607.000	-13.425	0.100
607.100	-11.583	0.100
607.200	-28.098	0.100
607.300	-17.147	0.100
607.400	-33.628	0.100
607.500	-39.329	0.100
607.600	-29.936	0.100
607.700	-21.881	0.100
607.800	-27.054	0.100
607.900	-21.327	0.100
608.000	-18.736	0.100
608.100	-16.982	0.100
608.200	-29.171	0.100
608.300	-18.778	0.100
608.400	-26.119	0.100
608.500	-38.453	0.100
608.600	-27.663	0.100
608.700	-27.287	0.100
608.800	-29.714	0.100
608.900	-14.150	0.100
609.000	-16.555	0.100
609.100	-20.487	0.100
609.200	-21.678	0.100
609.300	-30.374	0.100
609.400	-26.607	0.100
609.500	-23.687	0.100
609.600	-26.083	0.100
609.700	-24.106	0.100
609.800	-25.043	0.100
609.900	-17.108	0.100
610.000	-22.108	0.100
610.100	-16.972	0.100
610.200	-15.209	0.100
610.300	-23.253	0.100
610.400	-25.777	0.100
610.500	-19.768	0.100
610.600	-24.824	0.100
610.700	-36.100	0.100
610.800	-25.779	0.100
610.900	-26.530	0.100
611.000	-21.920	0.100
611.100	-20.546	0.100
611.200	-24.416	0.100
611.300	-18.138	0.100
611.400	-35.081	0.100
611.500	-2.338	0.100
611.600	-20.363	0.100
611.700	-29.115	0.100
611.800	-12.581	0.100
611.900	-23.977	0.100
612.000	-28.851	0.100
612.100	-31.171	0.100
612.200	-23.178	0.100
612.300	-25.515	0.100
612.400	-21.826	0.100
612.500	-24.353	0.100
612.600	-16.824	0.100
612.700	-28.773	0.100
612.800	-24.719	0.100
612.900	-31.126	0.100
613.000	-27.009	0.100
613.100	-16.378	0.100
613.200	-17.233	0.100
613.300	-35.400	0.100
613.400	-20.417	0.100
613.500	-27.093	0.100
613.600	-35.919	0.100
613.700	-24.272	0.100
613.800	-17.577	0.100
613.900	-17.572	0.100
614.000	-22.935	0.100
614.100	-19.182	0.100
614.200	-30.343	0.100
614.300	-23.763	0.100
614.400	-15.720	0.100
614.500	-17.204	0.100
614.600	-29.850	0.100
614.700	-18.661	0.100
614.800	-22.322	0.100
614.900	-20.042	0.100
615.000	-25.034	0.100
615.100	-16.483	0.100
615.200	-13.721	0.100
615.300	-26.422	0.100
615.400	-18.129	0.100
615.500	-16.911	0.100
615.600	-21.909	0.100
615.700	-19.075	0.100
615.800	-18.718	0.100
615.900	-32.299	0.100
616.000	-33.515	0.100
616.100	-16.469	0.100
616.200	-21.951	0.100
616.300	-16.119	0.100
616.400	-27.031	0.100
616.500	-32.746	0.100
616.600	-36.311	0.100
616.700	-11.915	0.100
616.800	-19.218	0.100
616.900	-6.300	0.100
617.000	-26.903	0.100
617.100	-16.435	0.100
617.200	-18.314	0.100
617.300	-11.350	0.100
617.400	-27.416	0.100
617.500	-14.817	0.100
617.600	-15.861	0.100
617.700	-21.245	0.100
617.800	-11.277	0.100
617.900	-26.030	0.100
618.000	-25.930	0.100
618.100	-25.349	0.100
618.200	-26.868	0.100
618.300	-18.380	0.100
618.400	-10.481	0.100
618.500	-26.828	0.100
618.600	-11.755	0.100
618.700	-20.304	0.100
618.800	-31.123	0.100
618.900	-31.101	0.100
619.000	-22.229	0.100
619.100	-20.651	0.100
619.200	-17.049	0.100
619.300	-25.886	0.100
619.400	-22.729	0.100
619.500	-28.098	0.100
619.600	-25.683	0.100
619.700	-13.715	0.100
619.800	-16.981	0.100
619.900	-27.354	0.100
620.000	-10.556	0.100
620.100	-16.661	0.100
620.200	-20.803	0.100
620.300	-28.979	0.100
620.400	-22.072	0.100
620.500	-18.490	0.100
620.600	-29.092	0.100
620.700	-7.319	0.100
620.800	-25.390	0.100
620.900	-20.920	0.100
621.000	-28.954	0.100
621.100	-22.959	0.100
621.200	-13.169	0.100
621.300	-10.800	0.100
621.400	-15.675	0.100
621.500	-28.974	0.100
621.600	-26.155	0.100
621.700	-24.510	0.100
621.800	-14.747	0.100
621.900	-24.813	0.100
622.000	-23.263	0.100
622.100	-16.332	0.100
622.200	-18.496	0.100
622.300	-21.030	0.100
622.400	-30.257	0.100
622.500	-25.320	0.100
622.600	-13.824	0.100
622.700	-18.522	0.100
622.800	-11.775	0.100
622.900	-18.792	0.100
623.000	-16.143	0.100
623.100	-14.229	0.100
623.200	-20.314	0.100
623.300	-31.679	0.100
623.400	-22.783	0.100
623.500	-25.554	0.100
623.600	-29.704	0.100
623.700	-24.567	0.100
623.800	-23.954	0.100
623.900	-20.826	0.100
624.000	-14.511	0.100
624.100	-16.655	0.100
624.200	-12.952	0.100
624.300	-18.851	0.100
624.400	-19.976	0.100
624.500	-26.077	0.100
624.600	-20.183	0.100
624.700	-26.062	0.100
624.800	-22.385	0.100
624.900	-13.721	0.100
625.000	-12.746	0.100
625.100	-17.393	0.100
625.200	-18.828	0.100
625.300	-21.814	0.100
625.400	-25.728	0.100
625.500	-31.436	0.100
625.600	-29.936	0.100
625.700	-22.163	0.100
625.800	-20.844	0.100
625.900	-24.380	0.100
626.000	-16.993	0.100
626.100	-7.365	0.100
626.200	-17.165	0.100
626.300	-21.751	0.100
626.400	-17.991	0.100
626.500	-28.542	0.100
626.600	-18.564	0.100
626.700	-10.353	0.100
626.800	-29.035	0.100
626.900	-29.231	0.100
627.000	-22.432	0.100
627.100	-18.172	0.100
627.200	-15.548	0.100
627.300	-23.596	0.100
627.400	-23.618	0.100
627.500	-34.147	0.100
627.600	-17.126	0.100
627.700	-13.729	0.100
627.800	-20.693	0.100
627.900	-21.814	0.100
628.000	-25.557	0.100
628.100	-30.772	0.100
628.200	-12.751	0.100
628.300	-7.661	0.100
628.400	-23.318	0.100
628.500	-15.299	0.100
628.600	-13.858	0.100
628.700	-16.040	0.100
628.800	-16.373	0.100
628.900	-14.144	0.100
629.000	-9.838	0.100
629.100	-13.155	0.100
629.200	-32.843	0.100
629.300	-17.534	0.100
629.400	-14.421	0.100
629.500	-21.983	0.100
629.600	-22.759	0.100
629.700	-20.205	0.100
629.800	-12.502	0.100
629.900	-14.117	0.100
630.000	-28.244	0.100
630.100	-31.494	0.100
630.200	-17.568	0.100
630.300	-23.782	0.100
630.400	-12.578	0.100
630.500	-21.462	0.100
630.600	-9.190	0.100
630.700	-1.324	0.100
630.800	2.587	0.100
630.900	-4.031	0.100
631.000	12.205	0.100
631.100	14.357	0.100
631.200	0.180	0.100
631.300	24.522	0.100
631.400	28.220	0.100
631.500	11.611	0.100
631.600	34.205	0.100
631.700	25.674	0.100
631.800	35.710	0.100
631.900	34.220	0.100
632.000	40.428	0.100
632.100	32.992	0.100
632.200	38.694	0.100
632.300	29.588	0.100
632.400	43.079	0.100
632.500	38.332	0.100
632.600	44.273	0.100
632.700	43.659	0.100
632.800	39.635	0.100
632.900	45.778	0.100
633.000	27.628	0.100
633.100	46.557	0.100
633.200	36.901	0.100
633.300	49.523	0.100
633.400	48.448	0.100
633.500	47.490	0.100
633.600	27.280	0.100
633.700	44.071	0.100
633.800	51.196	0.100
633.900	49.334	0.100
634.000	44.515	0.100
634.100	51.425	0.100
634.200	44.740	0.100
634.300	47.544	0.100
634.400	48.930	0.100
634.500	46.666	0.100
634.600	47.944	0.100
634.700	40.398	0.100
634.800	39.198	0.100
634.900	56.171	0.100
635.000	42.206	0.100
635.100	44.953	0.100
635.200	41.636	0.100
635.300	51.601	0.100
635.400	44.986	0.100
635.500	43.240	0.100
635.600	41.963	0.100
635.700	39.049	0.100
635.800	42.656	0.100
635.900	53.672	0.100
636.000	27.589	0.100
636.100	32.516	0.100
636.200	32.063	0.100
636.300	47.211	0.100
636.400	44.041	0.100
636.500	34.116	0.100
636.600	36.002	0.100
636.700	39.932	0.100
636.800	35.252	0.100
636.900	44.733	0.100
637.000	32.170	0.100
637.100	18.087	0.100
637.200	40.321	0.100
637.300	42.930	0.100
637.400	39.505	0.100
637.500	38.747	0.100
637.600	39.027	0.100
637.700	29.376	0.100
637.800	41.033	0.100
637.900	32.029	0.100
638.000	29.779	0.100
638.100	46.027	0.100
638.200	39.980	0.100
638.300	32.881	0.100
638.400	24.663	0.100
638.500	26.243	0.100
638.600	37.190	0.100
638.700	36.653	0.100
638.800	29.542	0.100
638.900	41.210	0.100
639.000	34.253	0.100
639.100	29.663	0.100
639.200	40.247	0.100
639.300	45.144	0.100
639.400	40.122	0.100
639.500	38.518	0.100
639.600	48.711	0.100
639.700	37.164	0.100
639.800	35.139	0.100
639.900	38.313	0.100
640.000	29.264	0.100
640.100	33.408	0.100
640.200	35.939	0.100
640.300	28.372	0.100
640.400	30.206	0.100
640.500	38.613	0.100
640.600	38.533	0.100
640.700	33.355	0.100
640.800	30.464	0.100
640.900	45.359	0.100
641.000	42.336	0.100
641.100	45.101	0.100
641.200	40.945	0.100
641.300	42.102	0.100
641.400	40.911	0.100
641.500	29.618	0.100
641.600	46.299	0.100
641.700	37.098	0.100
641.800	40.162	0.100
641.900	32.085	0.100
642.000	37.502	0.100
642.100	31.709	0.100
642.200	38.203	0.100
642.300	34.910	0.100
642.400	43.724	0.100
642.500	34.359	0.100
642.600	27.846	0.100
642.700	33.075	0.100
642.800	31.091	0.100
642.900	39.395	0.100
643.000	47.078	0.100
643.100	45.629	0.100
643.200	33.279	0.100
643.300	43.829	0.100
643.400	27.662	0.100
643.500	39.588	0.100
643.600	39.232	0.100
643.700	29.644	0.100
643.800	42.641	0.100
643.900	28.160	0.100
644.000	41.723	0.100
644.100	39.674	0.100
644.200	40.032	0.100
644.300	38.129	0.100
644.400	41.706	0.100
644.500	30.610	0.100
644.600	35.524	0.100
644.700	29.929	0.100
644.800	39.103	0.100
644.900	33.026	0.100
645.000	33.010	0.100
645.100	34.062	0.100
645.200	36.155	0.100
645.300	36.656	0.100
645.400	29.931	0.100
645.500	38.286	0.100
645.600	37.885	0.100
645.700	36.229	0.100
645.800	38.140	0.100
645.900	34.059	0.100
646.000	36.443	0.100
646.100	37.229	0.100
646.200	48.639	0.100
646.300	45.746	0.100
646.400	46.723	0.100
646.500	30.302	0.100
646.600	37.280	0.100
646.700	31.115	0.100
646.800	33.147	0.100
646.900	40.589	0.100
647.000	35.211	0.100
647.100	28.850	0.100
647.200	39.159	0.100
647.300	49.996	0.100
647.400	32.127	0.100
647.500	35.010	0.100
647.600	35.645	0.100
647.700	35.682	0.100
647.800	44.247	0.100
647.900	34.472	0.100
648.000	37.229	0.100
648.100	43.260	0.100
648.200	36.691	0.100
648.300	42.562	0.100
648.400	44.681	0.100
648.500	42.609	0.100
648.600	42.534	0.100
648.700	39.637	0.100
648.800	41.684	0.100
648.900	50.856	0.100
649.000	35.855	0.100
649.100	36.051	0.100
649.200	39.933	0.100
649.300	31.735	0.100
649.400	40.090	0.100
649.500	43.668	0.100
649.600	30.452	0.100
649.700	31.973	0.100
649.800	45.807	0.100
649.900	48.866	0.100
650.000	42.325	0.100
650.100	54.503	0.100
650.200	57.078	0.100
650.300	58.797	0.100
650.400	44.358	0.100
650.500	52.295	0.100
650.600	47.129	0.100
650.700	43.155	0.100
650.800	49.683	0.100
650.900	40.869	0.100
651.000	52.623	0.100
651.100	45.802	0.100
651.200	49.115	0.100
651.300	39.843	0.100
651.400	39.695	0.100
651.500	48.161	0.100
651.600	57.628	0.100
651.700	47.818	0.100
651.800	39.531	0.100
651.900	44.004	0.100
652.000	48.405	0.100
652.100	45.370	0.100
652.200	53.954	0.100
652.300	45.294	0.100
652.400	46.056	0.100
652.500	41.952	0.100
652.600	48.587	0.100
652.700	54.121	0.100
652.800	43.301	0.100
652.900	62.885	0.100
653.000	44.547	0.100
653.100	57.752	0.100
653.200	48.549	0.100
653.300	53.287	0.100
653.400	47.394	0.100
653.500	57.263	0.100
653.600	55.619	0.100
653.700	51.503	0.100
653.800	58.939	0.100
653.900	40.433	0.100
654.000	53.409	0.100
654.100	48.595	0.100
654.200	54.860	0.100
654.300	47.108	0.100
654.400	56.049	0.100
654.500	54.038	0.100
654.600	58.181	0.100
654.700	41.125	0.100
654.800	47.668	0.100
654.900	49.170	0.100
655.000	47.854	0.100
655.100	54.295	0.100
655.200	53.200	0.100
655.300	51.396	0.100
655.400	42.491	0.100
655.500	56.397	0.100
655.600	64.893	0.100
655.700	64.074	0.100
655.800	58.233	0.100
655.900	53.994	0.100
656.000	54.167	0.100
656.100	51.117	0.100
656.200	52.388	0.100
656.300	47.692	0.100
656.400	59.959	0.100
656.500	57.446	0.100
656.600	62.666	0.100
656.700	47.018	0.100
656.800	53.309	0.100
656.900	56.651	0.100
657.000	62.525	0.100
657.100	78.038	0.100
657.200	65.027	0.100
657.300	55.504	0.100
657.400	64.535	0.100
657.500	49.553	0.100
657.600	49.939	0.100
657.700	61.005	0.100
657.800	55.642	0.100
657.900	53.155	0.100
658.000	49.421	0.100
658.100	58.381	0.100
658.200	51.700	0.100
658.300	58.371	0.100
658.400	59.632	0.100
658.500	61.733	0.100
658.600	72.803	0.100
658.700	63.726	0.100
658.800	61.148	0.100
658.900	66.505	0.100
659.000	64.711	0.100
659.100	59.560	0.100
659.200	48.949	0.100
659.300	51.905	0.100
659.400	40.419	0.100
659.500	59.691	0.100
659.600	74.959	0.100
659.700	59.448	0.100
659.800	60.548	0.100
659.900	57.865	0.100
660.000	66.889	0.100
660.100	61.169	0.100
660.200	59.912	0.100
660.300	60.335	0.100
660.400	68.716	0.100
660.500	63.017	0.100
660.600	61.132	0.100
660.700	53.493	0.100
660.800	38.524	0.100
660.900	74.433	0.100
661.000	72.414	0.100
661.100	77.026	0.100
661.200	50.266	0.100
661.300	61.986	0.100
661.400	58.445	0.100
661.500	55.460	0.100
661.600	66.340	0.100
661.700	68.864	0.100
661.800	66.930	0.100
661.900	57.516	0.100
662.000	58.432	0.100
662.100	48.843	0.100
662.200	48.494	0.100
662.300	55.931	0.100
662.400	58.837	0.100
662.500	76.844	0.100
662.600	68.504	0.100
662.700	52.549	0.100
662.800	70.162	0.100
662.900	60.294	0.100
663.000	66.454	0.100
663.100	68.973	0.100
663.200	65.824	0.100
663.300	65.667	0.100
663.400	70.229	0.100
663.500	64.791	0.100
663.600	66.130	0.100
663.700	53.304	0.100
663.800	53.923	0.100
663.900	58.615	0.100
664.000	68.238	0.100
664.100	72.028	0.100
664.200	71.888	0.100
664.300	67.681	0.100
664.400	59.721	0.100
664.500	57.765	0.100
664.600	62.197	0.100
664.700	59.601	0.100
664.800	62.677	0.100
664.900	63.852	0.100
665.000	59.257	0.100
665.100	66.942	0.100
665.200	60.459	0.100
665.300	64.821	0.100
665.400	65.724	0.100
665.500	68.951	0.100
665.600	59.788	0.100
665.700	63.558	0.100
665.800	70.220	0.100
665.900	60.349	0.100
666.000	54.006	0.100
666.100	73.463	0.100
666.200	69.673	0.100
666.300	64.845	0.100
666.400	67.391	0.100
666.500	62.474	0.100
666.600	60.253	0.100
666.700	58.886	0.100
666.800	64.389	0.100
666.900	58.719	0.100
667.000	58.825	0.100
667.100	67.083	0.100
667.200	70.002	0.100
667.300	66.200	0.100
667.400	64.278	0.100
667.500	78.196	0.100
667.600	69.454	0.100
667.700	64.442	0.100
667.800	63.338	0.100
667.900	63.370	0.100
668.000	47.409	0.100
668.100	55.062	0.100
668.200	61.247	0.100
668.300	64.295	0.100
668.400	61.756	0.100
668.500	55.871	0.100
668.600	62.640	0.100
668.700	73.271	0.100
668.800	54.248	0.100
668.900	67.242	0.100
669.000	50.414	0.100
669.100	56.164	0.100
669.200	65.173	0.100
669.300	68.936	0.100
669.400	56.275	0.100
669.500	60.188	0.100
669.600	71.153	0.100
669.700	58.746	0.100
669.800	54.899	0.100
669.900	46.265	0.100
670.000	56.941	0.100
670.100	64.948	0.100
670.200	60.198	0.100
670.300	61.850	0.100
670.400	67.636	0.100
670.500	60.551	0.100
670.600	64.219	0.100
670.700	64.810	0.100
670.800	66.606	0.100
670.900	68.557	0.100
671.000	63.221	0.100
671.100	49.271	0.100
671.200	63.982	0.100
671.300	57.666	0.100
671.400	61.761	0.100
671.500	63.509	0.100
671.600	67.718	0.100
671.700	62.074	0.100
671.800	57.498	0.100
671.900	47.796	0.100
672.000	70.404	0.100
672.100	63.691	0.100
672.200	76.929	0.100
672.300	51.352	0.100
672.400	75.389	0.100
672.500	51.522	0.100
672.600	56.295	0.100
672.700	69.189	0.100
672.800	67.267	0.100
672.900	55.837	0.100
673.000	75.030	0.100
673.100	75.484	0.100
673.200	60.818	0.100
673.300	66.278	0.100
673.400	55.781	0.100
673.500	63.896	0.100
673.600	53.264	0.100
673.700	45.036	0.100
673.800	73.320	0.100
673.900	78.993	0.100
674.000	70.545	0.100
674.100	62.482	0.100
674.200	62.383	0.100
674.300	69.677	0.100
674.400	62.746	0.100
674.500	57.862	0.100
674.600	64.232	0.100
674.700	57.631	0.100
674.800	49.879	0.100
674.900	70.658	0.100
675.000	59.456	0.100
675.100	67.087	0.100
675.200	68.208	0.100
675.300	53.176	0.100
675.400	70.566	0.100
675.500	57.407	0.100
675.600	50.251	0.100
675.700	72.962	0.100
675.800	59.456	0.100
675.900	48.923	0.100
676.000	57.135	0.100
676.100	56.084	0.100
676.200	67.070	0.100
676.300	72.351	0.100
676.400	55.098	0.100
676.500	59.771	0.100
676.600	49.948	0.100
676.700	43.106	0.100
676.800	54.829	0.100
676.900	78.422	0.100
677.000	72.188	0.100
677.100	46.576	0.100
677.200	60.572	0.100
677.300	62.862	0.100
677.400	63.441	0.100
677.500	58.135	0.100
677.600	48.043	0.100
677.700	55.596	0.100
677.800	69.747	0.100
677.900	68.819	0.100
678.000	59.597	0.100
678.100	54.998	0.100
678.200	59.553	0.100
678.300	60.849	0.100
678.400	76.030	0.100
678.500	59.001	0.100
678.600	49.622	0.100
678.700	55.115	0.100
678.800	69.444	0.100
678.900	60.562	0.100
679.000	54.010	0.100
679.100	53.842	0.100
679.200	42.248	0.100
679.300	62.207	0.100
679.400	64.475	0.100
679.500	67.326	0.100
679.600	58.887	0.100
679.700	55.057	0.100
679.800	65.342	0.100
679.900	56.246	0.100
680.000	54.361	0.100
680.100	60.744	0.100
680.200	61.748	0.100
680.300	74.332	0.100
680.400	60.202	0.100
680.500	52.318	0.100
680.600	49.879	0.100
680.700	60.633	0.100
680.800	67.295	0.100
680.900	58.046	0.100
681.000	67.005	0.100
681.100	61.858	0.100
681.200	67.645	0.100
681.300	67.819	0.100
681.400	69.130	0.100
681.500	55.590	0.100
681.600	62.603	0.100
681.700	56.742	0.100
681.800	53.013	0.100
681.900	66.274	0.100
682.000	63.189	0.100
682.100	51.844	0.100
682.200	62.497	0.100
682.300	48.263	0.100
682.400	51.980	0.100
682.500	64.421	0.100
682.600	56.178	0.100
682.700	50.654	0.100
682.800	49.916	0.100
682.900	72.751	0.100
683.000	75.928	0.100
683.100	83.160	0.100
683.200	65.248	0.100
683.300	67.684	0.100
683.400	57.136	0.100
683.500	54.166	0.100
683.600	42.962	0.100
683.700	55.072	0.100
683.800	53.536	0.100
683.900	50.394	0.100
684.000	56.513	0.100
684.100	67.718	0.100
684.200	64.798	0.100
684.300	56.793	0.100
684.400	62.262	0.100
684.500	54.177	0.100
684.600	57.628	0.100
684.700	65.599	0.100
684.800	55.997	0.100
684.900	54.486	0.100
685.000	58.554	0.100
685.100	53.369	0.100
685.200	53.646	0.100
685.300	70.757	0.100
685.400	54.952	0.100
685.500	62.308	0.100
685.600	59.277	0.100
685.700	50.416	0.100
685.800	73.759	0.100
685.900	59.757	0.100
686.000	66.090	0.100
686.100	62.345	0.100
686.200	52.285	0.100
686.300	63.326	0.100
686.400	59.449	0.100
686.500	59.564	0.100
686.600	63.013	0.100
686.700	57.292	0.100
686.800	57.295	0.100
686.900	64.166	0.100
687.000	62.456	0.100
687.100	60.416	0.100
687.200	49.690	0.100
687.300	53.642	0.100
687.400	47.342	0.100
687.500	56.239	0.100
687.600	69.562	0.100
687.700	60.949	0.100
687.800	61.233	0.100
687.900	72.211	0.100
688.000	53.526	0.100
688.100	60.416	0.100
688.200	71.773	0.100
688.300	59.822	0.100
688.400	60.028	0.100
688.500	58.997	0.100
688.600	65.306	0.100
688.700	57.492	0.100
688.800	62.121	0.100
688.900	53.081	0.100
689.000	53.882	0.100
689.100	58.322	0.100
689.200	56.111	0.100
689.300	45.158	0.100
689.400	56.934	0.100
689.500	60.319	0.100
689.600	54.243	0.100
689.700	63.763	0.100
689.800	56.359	0.100
689.900	51.273	0.100
690.000	59.438	0.100
690.100	70.356	0.100
690.200	55.215	0.100
690.300	47.722	0.100
690.400	48.685	0.100
690.500	58.057	0.100
690.600	50.308	0.100
690.700	37.894	0.100
690.800	44.315	0.100
690.900	34.821	0.100
691.000	36.582	0.100
691.100	40.404	0.100
691.200	33.563	0.100
691.300	19.894	0.100
691.400	15.296	0.100
691.500	19.013	0.100
691.600	20.659	0.100
691.700	18.789	0.100
691.800	9.961	0.100
691.900	6.747	0.100
692.000	13.167	0.100
692.100	20.937	0.100
692.200	11.838	0.100
692.300	11.054	0.100
692.400	8.343	0.100
692.500	-6.669	0.100
692.600	8.735	0.100
692.700	11.296	0.100
692.800	-16.019	0.100
692.900	-12.722	0.100
693.000	5.886	0.100
693.100	1.246	0.100
693.200	-0.486	0.100
693.300	2.508	0.100
693.400	-10.010	0.100
693.500	-2.000	0.100
693.600	14.222	0.100
693.700	0.545	0.100
693.800	-6.586	0.100
693.900	3.142	0.100
694.000	-7.603	0.100
694.100	-1.010	0.100
694.200	5.484	0.100
694.300	-2.017	0.100
694.400	-8.731	0.100
694.500	1.343	0.100
694.600	3.864	0.100
694.700	-8.696	0.100
694.800	-7.661	0.100
694.900	-15.349	0.100
695.000	-6.125	0.100
695.100	-2.565	0.100
695.200	-13.748	0.100
695.300	-2.095	0.100
695.400	9.370	0.100
695.500	-3.237	0.100
695.600	-4.922	0.100
695.700	0.448	0.100
695.800	7.570	0.100
695.900	-9.021	0.100
696.000	4.447	0.100
696.100	-12.146	0.100
696.200	10.266	0.100
696.300	-0.006	0.100
696.400	-12.591	0.100
696.500	-3.160	0.100
696.600	-4.531	0.100
696.700	-3.021	0.100
696.800	7.711	0.100
696.900	-5.222	0.100
697.000	7.547	0.100
697.100	2.343	0.100
697.200	-18.861	0.100
697.300	-18.441	0.100
697.400	-5.004	0.100
697.500	-4.048	0.100
697.600	1.905	0.100
697.700	0.174	0.100
697.800	-20.147	0.100
697.900	-2.918	0.100
698.000	-3.197	0.100
698.100	5.372	0.100
698.200	-0.276	0.100
698.300	-2.148	0.100
698.400	-13.820	0.100
698.500	-13.101	0.100
698.600	-15.648	0.100
698.700	-15.312	0.100
698.800	-7.045	0.100
698.900	-9.359	0.100
699.000	-18.807	0.100
699.100	0.491	0.100
699.200	10.188	0.100
699.300	-5.268	0.100
699.400	-7.276	0.100
699.500	1.107	0.100
699.600	-7.004	0.100
699.700	-4.546	0.100
699.800	-9.772	0.100
699.900	-5.567	0.100
700.000	0.685	0.100
700.100	-2.950	0.100
700.200	-14.032	0.100
700.300	-9.025	0.100
700.400	-0.528	0.100
700.500	-7.009	0.100
700.600	-3.929	0.100
700.700	-14.768	0.100
700.800	-5.313	0.100
700.900	5.144	0.100
701.000	-16.358	0.100
701.100	-14.948	0.100
701.200	-8.249	0.100
701.300	-5.324	0.100
701.400	-13.591	0.100
701.500	-14.708	0.100
701.600	-16.138	0.100
701.700	-6.518	0.100
701.800	1.205	0.100
701.900	-6.537	0.100
702.000	-21.974	0.100
702.100	-11.004	0.100
702.200	-2.350	0.100
702.300	-10.722	0.100
702.400	-22.888	0.100
702.500	-4.380	0.100
702.600	5.302	0.100
702.700	-5.710	0.100
702.800	-28.588	0.100
702.900	-0.240	0.100
703.000	-16.866	0.100
703.100	-2.005	0.100
703.200	-7.143	0.100
703.300	-11.722	0.100
703.400	-9.844	0.100
703.500	-13.396	0.100
703.600	-27.618	0.100
703.700	-15.097	0.100
703.800	-11.439	0.100
703.900	0.593	0.100
704.000	-9.660	0.100
704.100	-20.600	0.100
704.200	-23.942	0.100
704.300	1.833	0.100
704.400	-2.068	0.100
704.500	-7.981	0.100
704.600	-23.298	0.100
704.700	-20.243	0.100
704.800	-22.892	0.100
704.900	-10.086	0.100
705.000	-1.670	0.100
705.100	-5.450	0.100
705.200	-8.807	0.100
705.300	-7.670	0.100
705.400	-4.029	0.100
705.500	-4.419	0.100
705.600	-15.874	0.100
705.700	-17.991	0.100
705.800	-26.802	0.100
705.900	-11.320	0.100
706.000	-7.361	0.100
706.100	-11.247	0.100
706.200	-11.506	0.100
706.300	-4.858	0.100
706.400	-20.243	0.100
706.500	-9.744	0.100
706.600	-17.807	0.100
706.700	-20.778	0.100
706.800	-18.924	0.100
706.900	-33.569	0.100
707.000	-16.158	0.100
707.100	-11.962	0.100
707.200	-13.340	0.100
707.300	-15.842	0.100
707.400	-2.561	0.100
707.500	-7.156	0.100
707.600	-10.887	0.100
707.700	-23.471	0.100
707.800	-9.032	0.100
707.900	-22.521	0.100
708.000	-17.462	0.100
708.100	-20.441	0.100
708.200	-10.152	0.100
708.300	-11.566	0.100
708.400	-15.600	0.100
708.500	-15.001	0.100
708.600	-19.403	0.100
708.700	-6.248	0.100
708.800	-14.415	0.100
708.900	-12.532	0.100
709.000	-16.479	0.100
709.100	-21.951	0.100
709.200	-13.786	0.100
709.300	-18.266	0.100
709.400	-14.674	0.100
709.500	-8.633	0.100
709.600	-18.439	0.100
709.700	-20.769	0.100
709.800	-24.378	0.100
709.900	-19.164	0.100
710.000	-16.517	0.100
710.100	-15.874	0.100
710.200	-15.855	0.100
710.300	-16.317	0.100
710.400	-19.673	0.100
710.500	-16.417	0.100
710.600	-14.055	0.100
710.700	-22.887	0.100
710.800	-16.389	0.100
710.900	-16.674	0.100
711.000	-18.454	0.100
711.100	-18.810	0.100
711.200	-22.498	0.100
711.300	-17.048	0.100
711.400	-17.155	0.100
711.500	-15.275	0.100
711.600	-18.819	0.100
711.700	-17.265	0.100
711.800	-14.210	0.100
711.900	-23.465	0.100
712.000	-13.575	0.100
712.100	-21.681	0.100
712.200	-21.616	0.100
712.300	-26.232	0.100
712.400	-14.080	0.100
712.500	-32.926	0.100
712.600	-19.886	0.100
712.700	-15.107	0.100
712.800	-27.180	0.100
712.900	-16.839	0.100
713.000	-9.245	0.100
713.100	-17.781	0.100
713.200	-23.048	0.100
713.300	-12.926	0.100
713.400	-16.993	0.100
713.500	-24.477	0.100
713.600	-27.351	0.100
713.700	-21.001	0.100
713.800	-27.188	0.100
713.900	-16.540	0.100
714.000	-16.699	0.100
714.100	-23.044	0.100
714.200	-37.348	0.100
714.300	-19.369	0.100
714.400	-24.720	0.100
714.500	-19.450	0.100
714.600	-17.558	0.100
714.700	-20.794	0.100
714.800	-14.467	0.100
714.900	-18.973	0.100
715.000	-14.180	0.100
715.100	-23.809	0.100
715.200	-25.416	0.100
715.300	-23.388	0.100
715.400	-19.231	0.100
715.500	-21.493	0.100
715.600	-28.881	0.100
715.700	-23.557	0.100
715.800	-18.960	0.100
715.900	-16.140	0.100
716.000	-27.078	0.100
716.100	-23.150	0.100
716.200	-25.854	0.100
716.300	-26.217	0.100
716.400	-22.650	0.100
716.500	-17.837	0.100
716.600	-17.625	0.100
716.700	-23.432	0.100
716.800	-26.739	0.100
716.900	-27.435	0.100
717.000	-27.806	0.100
717.100	-32.409	0.100
717.200	-27.289	0.100
717.300	-17.171	0.100
717.400	-30.252	0.100
717.500	-20.413	0.100
717.600	-33.046	0.100
717.700	-19.408	0.100
717.800	-29.313	0.100
717.900	-14.867	0.100
718.000	-11.065	0.100
718.100	-26.960	0.100
718.200	-18.511	0.100
718.300	-24.212	0.100
718.400	-25.526	0.100
718.500	-27.181	0.100
718.600	-26.802	0.100
718.700	-11.239	0.100
718.800	-14.178	0.100
718.900	-2.021	0.100
719.000	-22.665	0.100
719.100	-18.634	0.100
719.200	-22.788	0.100
719.300	-31.115	0.100
719.400	-22.908	0.100
719.500	-20.874	0.100
719.600	-24.267	0.100
719.700	-25.247	0.100
719.800	-22.869	0.100
719.900	-35.782	0.100
720.000	-28.880	0.100
720.100	-27.868	0.100
720.200	-22.938	0.100
720.300	-20.039	0.100
720.400	-28.569	0.100
720.500	-26.891	0.100
720.600	-21.474	0.100
720.700	-19.068	0.100
720.800	-27.431	0.100
720.900	-35.375	0.100
721.000	-33.121	0.100
721.100	-24.055	0.100
721.200	-36.378	0.100
721.300	-23.103	0.100
721.400	-27.118	0.100
721.500	-16.266	0.100
721.600	-27.774	0.100
721.700	-18.900	0.100
721.800	-31.041	0.100
721.900	-24.742	0.100
722.000	-32.602	0.100
722.100	-19.167	0.100
722.200	-21.384	0.100
722.300	-26.675	0.100
722.400	-22.788	0.100
722.500	-27.914	0.100
722.600	-37.891	0.100
722.700	-24.626	0.100
722.800	-30.301	0.100
722.900	-31.522	0.100
723.000	-27.334	0.100
723.100	-14.625	0.100
723.200	-18.446	0.100
723.300	-26.190	0.100
723.400	-32.173	0.100
723.500	-34.030	0.100
723.600	-27.675	0.100
723.700	-25.619	0.100
723.800	-31.432	0.100
723.900	-24.128	0.100
724.000	-44.050	0.100
724.100	-28.443	0.100
724.200	-21.910	0.100
724.300	-31.217	0.100
724.400	-26.593	0.100
724.500	-33.118	0.100
724.600	-38.514	0.100
724.700	-26.371	0.100
724.800	-22.324	0.100
724.900	-43.107	0.100
725.000	-30.969	0.100
725.100	-21.805	0.100
725.200	-18.861	0.100
725.300	-32.511	0.100
725.400	-24.691	0.100
725.500	-33.355	0.100
725.600	-34.375	0.100
725.700	-43.648	0.100
725.800	-22.167	0.100
725.900	-24.644	0.100
726.000	-20.683	0.100
726.100	-23.645	0.100
726.200	-19.056	0.100
726.300	-32.117	0.100
726.400	-26.804	0.100
726.500	-33.568	0.100
726.600	-37.209	0.100
726.700	-23.623	0.100
726.800	-26.363	0.100
726.900	-31.266	0.100
727.000	-43.932	0.100
727.100	-15.732	0.100
727.200	-28.623	0.100
727.300	-26.337	0.100
727.400	-27.436	0.100
727.500	-37.058	0.100
727.600	-39.147	0.100
727.700	-28.819	0.100
727.800	-29.498	0.100
727.900	-32.937	0.100
728.000	-18.488	0.100
728.100	-23.148	0.100
728.200	-18.554	0.100
728.300	-40.554	0.100
728.400	-33.908	0.100
728.500	-34.064	0.100
728.600	-18.065	0.100
728.700	-25.144	0.100
728.800	-34.921	0.100
728.900	-29.140	0.100
729.000	-40.165	0.100
729.100	-22.922	0.100
729.200	-26.826	0.100
729.300	-24.979	0.100
729.400	-27.232	0.100
729.500	-37.445	0.100
729.600	-29.427	0.100
729.700	-11.050	0.100
729.800	-40.717	0.100
729.900	-25.788	0.100
730.000	-25.430	0.100
730.100	-22.042	0.100
730.200	-28.334	0.100
730.300	-42.364	0.100
730.400	-26.507	0.100
730.500	-37.202	0.100
730.600	-30.137	0.100
730.700	-24.542	0.100
730.800	-26.511	0.100
730.900	-36.872	0.100
731.000	-31.264	0.100
731.100	-32.885	0.100
731.200	-36.632	0.100
731.300	-28.211	0.100
731.400	-21.129	0.100
731.500	-29.134	0.100
731.600	-28.377	0.100
731.700	-34.043	0.100
731.800	-32.990	0.100
731.900	-34.658	0.100
732.000	-35.319	0.100
732.100	-29.576	0.100
732.200	-29.786	0.100
732.300	-22.310	0.100
732.400	-25.622	0.100
732.500	-29.107	0.100
732.600	-31.359	0.100
732.700	-24.414	0.100
732.800	-31.232	0.100
732.900	-30.313	0.100
733.000	-37.151	0.100
733.100	-45.651	0.100
733.200	-24.289	0.100
733.300	-27.099	0.100
733.400	-21.358	0.100
733.500	-31.065	0.100
733.600	-16.963	0.100
733.700	-39.084	0.100
733.800	-35.174	0.100
733.900	-37.421	0.100
734.000	-39.938	0.100
734.100	-30.985	0.100
734.200	-22.400	0.100
734.300	-30.060	0.100
734.400	-30.140	0.100
734.500	-27.289	0.100
734.600	-28.772	0.100
734.700	-22.253	0.100
734.800	-40.088	0.100
734.900	-23.349	0.100
735.000	-41.854	0.100
735.100	-28.226	0.100
735.200	-30.692	0.100
735.300	-27.152	0.100
735.400	-25.637	0.100
735.500	-25.778	0.100
735.600	-36.710	0.100
735.700	-33.054	0.100
735.800	-23.252	0.100
735.900	-28.567	0.100
736.000	-28.948	0.100
736.100	-50.703	0.100
736.200	-33.791	0.100
736.300	-26.896	0.100
736.400	-26.772	0.100
736.500	-25.188	0.100
736.600	-31.147	0.100
736.700	-31.665	0.100
736.800	-28.370	0.100
736.900	-33.498	0.100
737.000	-25.048	0.100
737.100	-12.798	0.100
737.200	-35.558	0.100
737.300	-26.361	0.100
737.400	-21.931	0.100
737.500	-20.507	0.100
737.600	-38.588	0.100
737.700	-31.383	0.100
737.800	-33.806	0.100
737.900	-27.695	0.100
738.000	-29.365	0.100
738.100	-31.909	0.100
738.200	-36.409	0.100
738.300	-30.719	0.100
738.400	-35.940	0.100
738.500	-42.991	0.100
738.600	-27.177	0.100
738.700	-33.064	0.100
738.800	-40.780	0.100
738.900	-24.789	0.100
739.000	-29.107	0.100
739.100	-21.020	0.100
739.200	-30.956	0.100
739.300	-37.107	0.100
739.400	-23.173	0.100
739.500	-38.581	0.100
739.600	-34.710	0.100
739.700	-49.107	0.100
739.800	-31.834	0.100
739.900	-30.918	0.100
740.000	-27.776	0.100
740.100	-30.735	0.100
740.200	-36.820	0.100
740.300	-35.273	0.100
740.400	-31.706	0.100
740.500	-32.214	0.100
740.600	-33.159	0.100
740.700	-30.504	0.100
740.800	-31.765	0.100
740.900	-33.448	0.100
741.000	-38.950	0.100
741.100	-13.631	0.100
741.200	-37.477	0.100
741.300	-23.752	0.100
741.400	-38.547	0.100
741.500	-28.340	0.100
741.600	-28.519	0.100
741.700	-32.090	0.100
741.800	-27.918	0.100
741.900	-37.330	0.100
742.000	-16.614	0.100
742.100	-27.323	0.100
742.200	-33.024	0.100
742.300	-24.659	0.100
742.400	-29.591	0.100
742.500	-23.343	0.100
742.600	-31.427	0.100
742.700	-37.010	0.100
742.800	-18.691	0.100
742.900	-31.107	0.100
743.000	-28.822	0.100
743.100	-28.759	0.100
743.200	-32.893	0.100
743.300	-36.997	0.100
743.400	-28.855	0.100
743.500	-29.035	0.100
743.600	-24.699	0.100
743.700	-25.188	0.100
743.800	-30.039	0.100
743.900	-44.380	0.100
744.000	-26.374	0.100
744.100	-35.655	0.100
744.200	-35.240	0.100
744.300	-24.208	0.100
744.400	-35.028	0.100
744.500	-21.100	0.100
744.600	-32.688	0.100
744.700	-40.931	0.100
744.800	-22.367	0.100
744.900	-28.651	0.100
745.000	-35.463	0.100
745.100	-20.614	0.100
745.200	-30.001	0.100
745.300	-29.755	0.100
745.400	-30.102	0.100
745.500	-28.772	0.100
745.600	-25.755	0.100
745.700	-28.085	0.100
745.800	-22.521	0.100
745.900	-28.321	0.100
746.000	-33.688	0.100
746.100	-32.492	0.100
746.200	-25.916	0.100
746.300	-31.431	0.100
746.400	-31.776	0.100
746.500	-23.991	0.100
746.600	-34.220	0.100
746.700	-18.760	0.100
746.800	-36.152	0.100
746.900	-36.355	0.100
747.000	-19.612	0.100
747.100	-18.461	0.100
747.200	-27.397	0.100
747.300	-31.687	0.100
747.400	-30.991	0.100
747.500	-14.984	0.100
747.600	-27.537	0.100
747.700	-26.983	0.100
747.800	-33.133	0.100
747.900	-23.734	0.100
748.000	-36.816	0.100
748.100	-28.429	0.100
748.200	-30.218	0.100
748.300	-25.014	0.100
748.400	-22.539	0.100
748.500	-18.101	0.100
748.600	-32.195	0.100
748.700	-32.228	0.100
748.800	-34.756	0.100
748.900	-37.194	0.100
749.000	-23.073	0.100
749.100	-39.128	0.100
749.200	-26.095	0.100
749.300	-18.833	0.100
749.400	-31.807	0.100
749.500	-24.976	0.100
749.600	-25.213	0.100
749.700	-30.733	0.100
749.800	-32.632	0.100
749.900	-32.063	0.100
750.000	-26.238	0.100
750.100	-28.748	0.100
750.200	-16.416	0.100
750.300	-31.723	0.100
750.400	-38.302	0.100
750.500	-25.167	0.100
750.600	-27.594	0.100
750.700	-21.782	0.100
750.800	-20.769	0.100
750.900	-22.070	0.100
751.000	-24.361	0.100
751.100	-27.991	0.100
751.200	-25.619	0.100
751.300	-31.122	0.100
751.400	-22.506	0.100
751.500	-24.698	0.100
751.600	-27.655	0.100
751.700	-29.363	0.100
751.800	-33.477	0.100
751.900	-29.913	0.100
752.000	-26.954	0.100
752.100	-20.877	0.100
752.200	-25.335	0.100
752.300	-29.065	0.100
752.400	-29.790	0.100
752.500	-31.179	0.100
752.600	-17.288	0.100
752.700	-25.010	0.100
752.800	-22.799	0.100
752.900	-23.910	0.100
753.000	-37.216	0.100
753.100	-28.863	0.100
753.200	-30.286	0.100
753.300	-29.133	0.100
753.400	-38.030	0.100
753.500	-29.852	0.100
753.600	-23.225	0.100
753.700	-27.704	0.100
753.800	-27.332	0.100
753.900	-27.875	0.100
754.000	-20.062	0.100
754.100	-29.847	0.100
754.200	-38.237	0.100
754.300	-28.210	0.100
754.400	-26.814	0.100
754.500	-18.242	0.100
754.600	-37.721	0.100
754.700	-17.631	0.100
754.800	-18.418	0.100
754.900	-35.059	0.100
755.000	-40.947	0.100
755.100	-32.107	0.100
755.200	-18.480	0.100
755.300	-18.871	0.100
755.400	-30.157	0.100
755.500	-32.211	0.100
755.600	-29.107	0.100
755.700	-14.798	0.100
755.800	-26.491	0.100
755.900	-28.607	0.100
756.000	-16.538	0.100
756.100	-26.060	0.100
756.200	-27.035	0.100
756.300	-28.678	0.100
756.400	-29.374	0.100
756.500	-25.740	0.100
756.600	-24.915	0.100
756.700	-23.495	0.100
756.800	-15.340	0.100
756.900	-20.036	0.100
757.000	-30.087	0.100
757.100	-27.150	0.100
757.200	-31.949	0.100
757.300	-28.166	0.100
757.400	-27.298	0.100
757.500	-35.690	0.100
757.600	-24.249	0.100
757.700	-20.524	0.100
757.800	-29.736	0.100
757.900	-18.474	0.100
758.000	-22.957	0.100
758.100	-22.020	0.100
758.200	-34.733	0.100
758.300	-25.628	0.100
758.400	-31.011	0.100
758.500	-17.812	0.100
758.600	-28.799	0.100
758.700	-23.891	0.100
758.800	-29.381	0.100
758.900	-21.585	0.100
759.000	-26.406	0.100
759.100	-24.003	0.100
759.200	-13.840	0.100
759.300	-33.781	0.100
759.400	-30.672	0.100
759.500	-37.994	0.100
759.600	-21.356	0.100
759.700	-20.880	0.100
759.800	-15.751	0.100
759.900	-22.627	0.100
760.000	-28.712	0.100
760.100	-26.130	0.100
760.200	-27.094	0.100
760.300	-17.863	0.100
760.400	-24.279	0.100
760.500	-24.873	0.100
760.600	-33.722	0.100
760.700	-31.841	0.100
760.800	-22.678	0.100
760.900	-29.099	0.100
761.000	-31.161	0.100
761.100	-17.096	0.100
761.200	-21.549	0.100
761.300	-27.662	0.100
761.400	-31.075	0.100
761.500	-24.658	0.100
761.600	-17.717	0.100
761.700	-28.227	0.100
761.800	-24.733	0.100
761.900	-24.750	0.100
762.000	-25.330	0.100
762.100	-20.466	0.100
762.200	-15.249	0.100
762.300	-31.790	0.100
762.400	-16.587	0.100
762.500	-28.060	0.100
762.600	-24.023	0.100
762.700	-15.277	0.100
762.800	-21.252	0.100
762.900	-26.630	0.100
763.000	-30.522	0.100
763.100	-41.870	0.100
763.200	-33.037	0.100
763.300	-25.917	0.100
763.400	-18.963	0.100
763.500	-9.039	0.100
763.600	-6.629	0.100
763.700	-22.985	0.100
763.800	-28.671	0.100
763.900	-35.385	0.100
764.000	-22.995	0.100
764.100	-31.126	0.100
764.200	-22.361	0.100
764.300	-22.893	0.100
764.400	-21.296	0.100
764.500	-18.439	0.100
764.600	-35.157	0.100
764.700	-16.031	0.100
764.800	-11.059	0.100
764.900	-27.609	0.100
765.000	-19.267	0.100
765.100	-20.526	0.100
765.200	-21.995	0.100
765.300	-14.488	0.100
765.400	-12.633	0.100
765.500	-20.042	0.100
765.600	-30.692	0.100
765.700	-29.250	0.100
765.800	-18.652	0.100
765.900	-22.242	0.100
766.000	-31.149	0.100
766.100	-23.500	0.100
766.200	-22.398	0.100
766.300	-39.551	0.100
766.400	-28.933	0.100
766.500	-27.455	0.100
766.600	-21.661	0.100
766.700	-34.448	0.100
766.800	-18.982	0.100
766.900	-19.101	0.100
767.000	-27.219	0.100
767.100	-31.123	0.100
767.200	-30.663	0.100
767.300	-9.607	0.100
767.400	-6.965	0.100
767.500	-15.995	0.100
767.600	-27.953	0.100
767.700	-34.283	0.100
767.800	-25.409	0.100
767.900	-17.635	0.100
768.000	-17.582	0.100
768.100	-24.606	0.100
768.200	-22.288	0.100
768.300	-30.667	0.100
768.400	-28.922	0.100
768.500	-38.232	0.100
768.600	-25.972	0.100
768.700	-22.788	0.100
768.800	-24.674	0.100
768.900	-23.696	0.100
769.000	-12.308	0.100
769.100	-15.480	0.100
769.200	-22.607	0.100
769.300	-14.520	0.100
769.400	-40.289	0.100
769.500	-33.678	0.100
769.600	-21.103	0.100
769.700	-19.851	0.100
769.800	-20.997	0.100
769.900	-36.780	0.100
770.000	-20.526	0.100
770.100	-22.497	0.100
770.200	-8.023	0.100
770.300	-24.351	0.100
770.400	-33.036	0.100
770.500	-12.672	0.100
770.600	-22.017	0.100
770.700	-21.158	0.100
770.800	-27.137	0.100
770.900	-31.508	0.100
771.000	-34.227	0.100
771.100	-8.570	0.100
771.200	-20.114	0.100
771.300	-22.311	0.100
771.400	-13.331	0.100
771.500	-20.992	0.100
771.600	-15.882	0.100
771.700	-21.153	0.100
771.800	-27.499	0.100
771.900	-30.911	0.100
772.000	-27.156	0.100
772.100	-28.105	0.100
772.200	-29.918	0.100
772.300	-16.470	0.100
772.400	-16.522	0.100
772.500	-29.119	0.100
772.600	-8.713	0.100
772.700	-15.943	0.100
772.800	-21.931	0.100
772.900	-18.799	0.100
773.000	-32.156	0.100
773.100	-27.084	0.100
773.200	-27.070	0.100
773.300	-25.654	0.100
773.400	-23.725	0.100
773.500	-14.422	0.100
773.600	-11.553	0.100
773.700	-15.292	0.100
773.800	-16.890	0.100
773.900	-21.148	0.100
774.000	-25.929	0.100
774.100	-41.087	0.100
774.200	-21.126	0.100
774.300	-16.601	0.100
774.400	-14.133	0.100
774.500	-14.962	0.100
774.600	-20.958	0.100
774.700	-12.196	0.100
774.800	-23.919	0.100
774.900	-22.681	0.100
775.000	-20.823	0.100
775.100	-21.852	0.100
775.200	-25.466	0.100
775.300	-20.535	0.100
775.400	-16.312	0.100
775.500	-22.734	0.100
775.600	-30.138	0.100
775.700	-41.097	0.100
775.800	-19.145	0.100
775.900	-16.548	0.100
776.000	-27.945	0.100
776.100	-37.419	0.100
776.200	-21.175	0.100
776.300	-8.604	0.100
776.400	-25.019	0.100
776.500	-14.308	0.100
776.600	-18.423	0.100
776.700	-28.473	0.100
776.800	-32.761	0.100
776.900	-22.123	0.100
777.000	-23.702	0.100
777.100	-3.912	0.100
777.200	-8.192	0.100
777.300	-8.785	0.100
777.400	-29.297	0.100
777.500	-21.318	0.100
777.600	-21.949	0.100
777.700	-28.695	0.099
777.800	-22.061	0.100
777.900	-22.886	0.099
778.000	-30.075	0.099
778.100	-30.123	0.099
778.200	-17.552	0.100
778.300	-24.156	0.100
778.400	-21.516	0.100
778.500	-16.169	0.099
778.600	-28.475	0.099
778.700	-25.456	0.099
778.800	-22.368	0.100
778.900	-9.208	0.100
779.000	-20.738	0.100
779.100	-33.601	0.100
779.200	-15.765	0.099
779.300	-34.281	0.099
779.400	-23.482	0.099
779.500	-28.011	0.099
779.600	-16.446	0.099
779.700	-21.435	0.099
779.800	-18.420	0.100
779.900	-20.843	0.099
780.000	-28.823	0.099
780.100	-20.953	0.099
780.200	-20.676	0.099
780.300	-20.156	0.099
780.400	-18.404	0.100
780.500	-12.417	0.099
780.600	-13.252	0.099
780.700	-11.447	0.099
780.800	-5.716	0.099
780.900	5.878	0.099
781.000	5.252	0.099
781.100	4.769	0.099
781.200	12.863	0.099
781.300	20.250	0.100
781.400	24.527	0.099
781.500	24.879	0.100
781.600	32.873	0.099
781.700	31.555	0.100
781.800	32.706	0.099
781.900	30.997	0.099
782.000	36.287	0.100
782.100	47.237	0.099
782.200	35.678	0.099
782.300	26.680	0.099
782.400	37.938	0.099
782.500	29.722	0.099
782.600	42.405	0.099
782.700	46.341	0.100
782.800	50.631	0.099
782.900	29.224	0.099
783.000	45.604	0.099
783.100	45.062	0.099
783.200	44.319	0.100
783.300	39.576	0.099
783.400	48.696	0.099
783.500	43.080	0.099
783.600	45.109	0.099
783.700	52.536	0.099
783.800	40.042	0.099
783.900	43.175	0.099
784.000	43.147	0.099
784.100	50.243	0.099
784.200	33.444	0.099
784.300	51.493	0.099
784.400	56.591	0.099
784.500	50.244	0.099
784.600	39.901	0.099
784.700	43.535	0.099
784.800	31.375	0.099
784.900	39.622	0.099
785.000	49.296	0.099
785.100	42.695	0.099
785.200	47.195	0.099
785.300	36.730	0.099
785.400	41.949	0.099
785.500	41.105	0.099
785.600	43.258	0.099
785.700	30.098	0.099
785.800	36.738	0.099
785.900	52.490	0.099
786.000	42.079	0.099
786.100	58.287	0.099
786.200	46.139	0.099
786.300	35.872	0.099
786.400	35.793	0.099
786.500	37.344	0.099
786.600	25.368	0.099
786.700	17.065	0.099
786.800	29.179	0.099
786.900	43.428	0.099
787.000	52.752	0.099
787.100	45.275	0.099
787.200	36.819	0.099
787.300	44.070	0.099
787.400	33.757	0.099
787.500	30.148	0.099
787.600	36.525	0.099
787.700	50.163	0.099
787.800	28.898	0.099
787.900	31.597	0.099
788.000	32.526	0.099
788.100	31.696	0.099
788.200	40.761	0.099
788.300	28.931	0.099
788.400	22.758	0.099
788.500	34.767	0.099
788.600	32.987	0.099
788.700	43.935	0.099
788.800	46.139	0.099
788.900	35.285	0.099
789.000	26.601	0.099
789.100	34.625	0.099
789.200	24.301	0.099
789.300	19.025	0.099
789.400	39.628	0.099
789.500	45.925	0.099
789.600	51.258	0.099
789.700	47.234	0.099
789.800	21.731	0.099
789.900	38.151	0.099
790.000	41.734	0.099
790.100	40.227	0.099
790.200	31.910	0.099
790.300	33.776	0.099
790.400	37.040	0.099
790.500	36.435	0.099
790.600	22.326	0.099
790.700	25.399	0.099
790.800	43.223	0.099
790.900	27.469	0.099
791.000	42.845	0.099
791.100	47.137	0.099
791.200	37.660	0.099
791.300	27.954	0.099
791.400	39.562	0.099
791.500	27.917	0.099
791.600	28.656	0.099
791.700	39.305	0.099
791.800	48.303	0.099
791.900	43.015	0.099
792.000	41.834	0.099
792.100	14.817	0.099
792.200	29.830	0.099
792.300	28.884	0.099
792.400	34.043	0.099
792.500	37.678	0.099
792.600	36.522	0.099
792.700	32.984	0.099
792.800	30.404	0.099
792.900	42.670	0.099
793.000	32.053	0.099
793.100	35.165	0.099
793.200	34.275	0.099
793.300	32.212	0.099
793.400	35.462	0.099
793.500	32.423	0.099
793.600	42.710	0.099
793.700	41.872	0.099
793.800	37.645	0.099
793.900	30.536	0.099
794.000	24.281	0.099
794.100	26.932	0.099
794.200	24.514	0.099
794.300	42.798	0.099
794.400	42.031	0.099
794.500	31.207	0.099
794.600	40.017	0.099
794.700	31.052	0.099
794.800	34.103	0.099
794.900	40.702	0.099
795.000	30.663	0.099
795.100	45.521	0.099
795.200	46.718	0.099
795.300	34.331	0.099
795.400	35.937	0.099
795.500	23.824	0.099
795.600	31.180	0.099
795.700	49.311	0.099
795.800	30.781	0.099
795.900	34.098	0.099
796.000	48.394	0.099
796.100	45.448	0.099
796.200	36.963	0.099
796.300	15.937	0.099
796.400	40.780	0.099
796.500	37.489	0.099
796.600	28.546	0.099
796.700	34.949	0.099
796.800	33.847	0.099
796.900	38.019	0.099
797.000	45.480	0.099
797.100	46.004	0.099
797.200	19.360	0.099
797.300	35.814	0.099
797.400	46.015	0.099
797.500	38.143	0.099
797.600	35.664	0.099
797.700	37.576	0.099
797.800	38.728	0.099
797.900	27.769	0.099
798.000	34.871	0.099
798.100	33.225	0.099
798.200	46.326	0.099
798.300	53.405	0.099
798.400	41.885	0.099
798.500	34.176	0.099
798.600	39.153	0.099
798.700	44.724	0.099
798.800	37.307	0.099
798.900	44.941	0.099
799.000	41.481	0.099
799.100	34.359	0.099
799.200	40.752	0.099
799.300	37.097	0.099
799.400	45.711	0.099
799.500	46.218	0.099
799.600	32.143	0.099
799.700	39.861	0.099
799.800	44.857	0.099
799.900	33.313	0.099
800.000	39.535	0.099
