time /s	I /nA	E /V
0.100	9.120	0.099
0.200	1.537	0.099
0.300	-9.973	0.099
0.400	-3.750	0.099
0.500	-7.163	0.099
0.600	-4.937	0.099
0.700	-1.107	0.099
0.800	-19.603	0.099
0.900	-12.987	0.099
1.000	2.688	0.099
1.100	3.716	0.099
1.200	-18.791	0.099
1.300	-24.251	0.099
1.400	-6.373	0.099
1.500	-4.356	0.099
1.600	-17.213	0.099
1.700	-5.527	0.099
1.800	-7.481	0.099
1.900	-5.216	0.099
2.000	-2.248	0.099
2.100	-11.257	0.099
2.200	-8.465	0.099
2.300	-1.362	0.099
2.400	-11.801	0.099
2.500	-13.005	0.099
2.600	-2.272	0.099
2.700	-2.945	0.099
2.800	-17.187	0.099
2.900	-8.555	0.099
3.000	-7.313	0.099
3.100	-0.901	0.099
3.200	-9.880	0.099
3.300	-12.634	0.099
3.400	-11.382	0.099
3.500	-4.668	0.099
3.600	-14.766	0.099
3.700	2.321	0.099
3.800	-2.625	0.099
3.900	-5.209	0.099
4.000	0.947	0.099
4.100	-10.439	0.099
4.200	-22.921	0.099
4.300	-7.762	0.099
4.400	-1.407	0.099
4.500	-1.809	0.099
4.600	-13.790	0.099
4.700	-5.909	0.099
4.800	-8.311	0.099
4.900	-11.966	0.099
5.000	-19.138	0.099
5.100	-15.385	0.099
5.200	5.843	0.099
5.300	-4.082	0.099
5.400	-23.181	0.099
5.500	-9.160	0.099
5.600	-4.700	0.099
5.700	-11.941	0.099
5.800	-3.117	0.099
5.900	-11.462	0.099
6.000	3.357	0.099
6.100	-6.802	0.099
6.200	-11.360	0.099
6.300	-0.527	0.099
6.400	4.794	0.099
6.500	-11.874	0.099
6.600	-4.903	0.099
6.700	-16.925	0.099
6.800	-0.577	0.099
6.900	-1.950	0.099
7.000	-9.660	0.099
7.100	-15.800	0.099
7.200	-9.049	0.099
7.300	-1.403	0.099
7.400	6.086	0.099
7.500	-5.753	0.099
7.600	-6.638	0.099
7.700	-7.953	0.099
7.800	-23.536	0.099
7.900	-0.078	0.099
8.000	-12.486	0.099
8.100	-2.324	0.099
8.200	-6.964	0.099
8.300	-19.836	0.099
8.400	0.841	0.099
8.500	-16.393	0.099
8.600	-0.032	0.099
8.700	-4.983	0.099
8.800	-6.087	0.099
8.900	-11.494	0.099
9.000	-10.650	0.099
9.100	2.648	0.099
9.200	7.306	0.099
9.300	-3.050	0.099
9.400	2.145	0.099
9.500	-12.677	0.099
9.600	-1.984	0.099
9.700	-6.998	0.100
9.800	-6.806	0.100
9.900	-17.989	0.099
10.000	0.675	0.100
10.100	-16.261	0.100
10.200	0.729	0.100
10.300	-12.494	0.100
10.400	-8.250	0.100
10.500	-1.824	0.100
10.600	-4.726	0.100
10.700	-2.468	0.100
10.800	-16.078	0.100
10.900	-5.843	0.100
11.000	-13.074	0.100
11.100	3.346	0.100
11.200	-7.378	0.100
11.300	-10.473	0.100
11.400	-9.822	0.100
11.500	-5.194	0.100
11.600	-15.122	0.100
11.700	-3.915	0.100
11.800	6.465	0.100
11.900	-12.010	0.100
12.000	-13.072	0.100
12.100	-9.480	0.100
12.200	-2.052	0.100
12.300	4.484	0.100
12.400	5.781	0.100
12.500	-4.959	0.100
12.600	-12.191	0.100
12.700	-12.765	0.100
12.800	-15.862	0.100
12.900	-14.038	0.100
13.000	1.887	0.100
13.100	-9.340	0.100
13.200	-2.851	0.100
13.300	-9.089	0.100
13.400	0.034	0.100
13.500	-19.350	0.100
13.600	-9.142	0.100
13.700	-4.600	0.100
13.800	-5.108	0.100
13.900	-8.179	0.100
14.000	-0.290	0.100
14.100	-11.898	0.100
14.200	-13.607	0.100
14.300	-1.349	0.100
14.400	-2.199	0.100
14.500	-14.498	0.100
14.600	-16.468	0.100
14.700	5.631	0.100
14.800	9.487	0.100
14.900	-4.339	0.100
15.000	-4.819	0.100
15.100	-1.665	0.100
15.200	-0.776	0.100
15.300	-11.023	0.100
15.400	-11.572	0.100
15.500	-5.588	0.100
15.600	9.958	0.100
15.700	5.725	0.100
15.800	1.029	0.100
15.900	-11.592	0.100
16.000	-8.777	0.100
16.100	-5.228	0.100
16.200	-18.436	0.100
16.300	-9.529	0.100
16.400	-5.413	0.100
16.500	6.498	0.100
16.600	-3.953	0.100
16.700	-15.724	0.100
16.800	6.085	0.100
16.900	-10.318	0.100
17.000	-4.573	0.100
17.100	1.741	0.100
17.200	-6.337	0.100
17.300	-1.073	0.100
17.400	-3.253	0.100
17.500	-4.425	0.100
17.600	-12.209	0.100
17.700	-17.955	0.100
17.800	-8.311	0.100
17.900	-7.127	0.100
18.000	-16.764	0.100
18.100	-5.026	0.100
18.200	-10.265	0.100
18.300	0.912	0.100
18.400	-11.511	0.100
18.500	-2.263	0.100
18.600	6.502	0.100
18.700	-5.134	0.100
18.800	-3.040	0.100
18.900	-4.356	0.100
19.000	-2.945	0.100
19.100	-33.003	0.100
19.200	-5.049	0.100
19.300	-1.788	0.100
19.400	-2.442	0.100
19.500	-15.543	0.100
19.600	-12.921	0.100
19.700	2.150	0.100
19.800	-0.250	0.100
19.900	-10.395	0.100
20.000	6.836	0.100
20.100	-7.857	0.100
20.200	-5.349	0.100
20.300	9.971	0.100
20.400	-10.360	0.100
20.500	2.543	0.100
20.600	-9.009	0.100
20.700	-3.097	0.100
20.800	-7.184	0.100
20.900	-19.686	0.099
21.000	-2.678	0.099
21.100	5.447	0.099
21.200	-9.132	0.099
21.300	-21.574	0.099
21.400	-6.815	0.099
21.500	-4.024	0.099
21.600	-10.922	0.099
21.700	-8.483	0.099
21.800	7.354	0.099
21.900	-0.562	0.099
22.000	-19.261	0.099
22.100	-4.300	0.099
22.200	3.158	0.099
22.300	-24.243	0.099
22.400	-23.070	0.099
22.500	-1.501	0.099
22.600	0.650	0.099
22.700	-3.522	0.099
22.800	-6.777	0.099
22.900	2.992	0.099
23.000	-11.589	0.099
23.100	-9.200	0.099
23.200	-2.749	0.099
23.300	3.285	0.099
23.400	-14.429	0.099
23.500	4.896	0.099
23.600	-1.379	0.099
23.700	-13.657	0.099
23.800	-10.585	0.099
23.900	-6.249	0.099
24.000	6.436	0.099
24.100	-0.337	0.099
24.200	-0.668	0.099
24.300	-3.378	0.099
24.400	-12.746	0.099
24.500	-0.707	0.099
24.600	-4.438	0.099
24.700	-1.424	0.099
24.800	-21.334	0.099
24.900	3.921	0.099
25.000	-9.490	0.099
25.100	-7.136	0.099
25.200	-10.310	0.099
25.300	-4.273	0.099
25.400	-4.212	0.099
25.500	0.679	0.099
25.600	4.282	0.099
25.700	-13.555	0.099
25.800	-13.998	0.099
25.900	-5.220	0.099
26.000	-10.198	0.099
26.100	2.245	0.099
26.200	0.806	0.099
26.300	-3.422	0.099
26.400	-11.419	0.099
26.500	-1.994	0.099
26.600	-6.529	0.099
26.700	-12.448	0.099
26.800	7.366	0.099
26.900	-11.790	0.099
27.000	-12.301	0.099
27.100	-14.878	0.099
27.200	-9.843	0.099
27.300	-8.517	0.099
27.400	-3.200	0.099
27.500	6.937	0.099
27.600	-9.352	0.099
27.700	-6.582	0.099
27.800	-7.572	0.099
27.900	-8.002	0.099
28.000	-8.368	0.099
28.100	10.641	0.099
28.200	-14.912	0.099
28.300	-2.375	0.099
28.400	-9.506	0.099
28.500	-1.973	0.099
28.600	10.923	0.099
28.700	-2.366	0.099
28.800	-9.396	0.099
28.900	-3.868	0.099
29.000	1.681	0.099
29.100	2.191	0.099
29.200	-11.462	0.099
29.300	-4.712	0.099
29.400	-8.365	0.099
29.500	-5.971	0.099
29.600	-7.543	0.099
29.700	-2.777	0.099
29.800	-1.922	0.099
29.900	-7.772	0.099
30.000	-3.704	0.099
30.100	-6.156	0.099
30.200	5.279	0.099
30.300	-7.227	0.099
30.400	12.929	0.099
30.500	-11.608	0.099
30.600	-4.369	0.099
30.700	7.136	0.099
30.800	7.907	0.099
30.900	-0.830	0.099
31.000	9.935	0.099
31.100	9.723	0.099
31.200	16.531	0.099
31.300	15.379	0.099
31.400	10.734	0.099
31.500	15.407	0.099
31.600	18.972	0.099
31.700	16.574	0.099
31.800	25.691	0.099
31.900	19.938	0.099
32.000	30.072	0.099
32.100	24.341	0.099
32.200	19.490	0.099
32.300	26.885	0.099
32.400	32.860	0.099
32.500	32.340	0.099
32.600	25.524	0.099
32.700	22.312	0.099
32.800	15.719	0.099
32.900	28.829	0.099
33.000	22.178	0.099
33.100	28.517	0.099
33.200	29.793	0.099
33.300	31.413	0.099
33.400	25.354	0.099
33.500	30.313	0.099
33.600	21.992	0.099
33.700	22.265	0.099
33.800	21.358	0.099
33.900	22.597	0.099
34.000	20.542	0.099
34.100	29.336	0.099
34.200	18.191	0.099
34.300	25.612	0.099
34.400	37.094	0.099
34.500	29.163	0.099
34.600	27.421	0.099
34.700	29.695	0.099
34.800	24.684	0.099
34.900	10.895	0.099
35.000	5.673	0.099
35.100	9.463	0.099
35.200	32.647	0.099
35.300	36.053	0.099
35.400	31.213	0.100
35.500	14.156	0.099
35.600	21.775	0.100
35.700	18.051	0.099
35.800	16.548	0.099
35.900	26.430	0.099
36.000	17.125	0.100
36.100	18.128	0.099
36.200	34.228	0.100
36.300	22.924	0.100
36.400	20.961	0.099
36.500	10.105	0.100
36.600	12.720	0.099
36.700	24.510	0.099
36.800	22.914	0.100
36.900	23.754	0.100
37.000	2.576	0.099
37.100	28.027	0.100
37.200	24.349	0.100
37.300	13.220	0.100
37.400	15.371	0.099
37.500	36.209	0.099
37.600	22.777	0.099
37.700	21.498	0.100
37.800	27.437	0.100
37.900	28.903	0.100
38.000	34.051	0.100
38.100	28.920	0.100
38.200	13.997	0.100
38.300	26.527	0.100
38.400	28.814	0.100
38.500	25.115	0.100
38.600	17.948	0.100
38.700	12.231	0.100
38.800	33.000	0.100
38.900	31.296	0.100
39.000	14.831	0.100
39.100	23.686	0.100
39.200	33.703	0.100
39.300	31.234	0.100
39.400	39.084	0.100
39.500	29.789	0.100
39.600	14.941	0.100
39.700	37.480	0.100
39.800	15.076	0.100
39.900	29.683	0.100
40.000	27.204	0.100
40.100	27.396	0.100
40.200	23.386	0.100
40.300	27.616	0.100
40.400	29.862	0.100
40.500	31.181	0.100
40.600	17.271	0.100
40.700	23.634	0.100
40.800	22.510	0.100
40.900	19.277	0.100
41.000	42.115	0.100
41.100	30.597	0.100
41.200	38.877	0.100
41.300	28.075	0.100
41.400	24.241	0.100
41.500	25.528	0.100
41.600	25.273	0.100
41.700	39.192	0.100
41.800	28.979	0.100
41.900	33.314	0.100
42.000	29.058	0.100
42.100	34.309	0.100
42.200	39.669	0.100
42.300	39.946	0.100
42.400	32.421	0.100
42.500	37.342	0.100
42.600	41.654	0.100
42.700	25.039	0.100
42.800	35.682	0.100
42.900	20.218	0.100
43.000	28.996	0.100
43.100	36.835	0.100
43.200	52.116	0.100
43.300	18.980	0.100
43.400	34.164	0.100
43.500	25.921	0.100
43.600	38.040	0.100
43.700	31.836	0.100
43.800	38.919	0.100
43.900	35.269	0.100
44.000	30.274	0.100
44.100	40.049	0.100
44.200	40.506	0.100
44.300	36.377	0.100
44.400	20.177	0.100
44.500	33.611	0.100
44.600	43.461	0.100
44.700	31.094	0.100
44.800	34.247	0.100
44.900	26.698	0.100
45.000	49.242	0.100
45.100	32.692	0.100
45.200	51.352	0.100
45.300	33.364	0.100
45.400	50.091	0.100
45.500	29.899	0.100
45.600	31.791	0.100
45.700	41.887	0.100
45.800	22.775	0.100
45.900	38.960	0.100
46.000	42.011	0.100
46.100	33.388	0.100
46.200	31.049	0.100
46.300	32.665	0.100
46.400	46.842	0.100
46.500	28.065	0.100
46.600	39.065	0.100
46.700	45.893	0.100
46.800	35.235	0.100
46.900	37.391	0.100
47.000	50.244	0.100
47.100	28.120	0.100
47.200	51.536	0.100
47.300	35.529	0.100
47.400	52.200	0.100
47.500	48.516	0.100
47.600	37.395	0.100
47.700	34.099	0.100
47.800	43.491	0.100
47.900	39.281	0.100
48.000	44.077	0.100
48.100	35.639	0.100
48.200	30.694	0.100
48.300	37.507	0.100
48.400	45.598	0.100
48.500	39.263	0.100
48.600	42.365	0.100
48.700	39.182	0.100
48.800	47.369	0.100
48.900	45.159	0.100
49.000	38.854	0.100
49.100	37.494	0.100
49.200	41.727	0.100
49.300	52.495	0.100
49.400	47.636	0.100
49.500	34.543	0.100
49.600	38.024	0.100
49.700	44.036	0.100
49.800	28.531	0.100
49.900	64.129	0.100
50.000	48.238	0.100
50.100	34.907	0.100
50.200	48.818	0.100
50.300	57.009	0.100
50.400	52.986	0.100
50.500	43.951	0.100
50.600	31.844	0.100
50.700	39.835	0.100
50.800	49.135	0.100
50.900	42.208	0.100
51.000	43.268	0.100
51.100	42.016	0.100
51.200	31.222	0.100
51.300	34.760	0.100
51.400	48.612	0.100
51.500	31.503	0.100
51.600	32.877	0.100
51.700	47.918	0.100
51.800	40.758	0.100
51.900	46.408	0.100
52.000	50.002	0.100
52.100	51.506	0.100
52.200	60.342	0.100
52.300	43.483	0.100
52.400	49.200	0.100
52.500	40.059	0.100
52.600	50.216	0.100
52.700	48.473	0.100
52.800	37.241	0.100
52.900	41.881	0.100
53.000	35.667	0.100
53.100	39.139	0.100
53.200	44.085	0.100
53.300	44.553	0.100
53.400	25.464	0.100
53.500	36.728	0.100
53.600	49.163	0.100
53.700	50.087	0.100
53.800	47.000	0.100
53.900	50.198	0.100
54.000	50.199	0.100
54.100	47.262	0.100
54.200	44.155	0.100
54.300	36.164	0.100
54.400	47.784	0.100
54.500	53.488	0.100
54.600	41.658	0.100
54.700	47.046	0.100
54.800	39.875	0.100
54.900	41.374	0.100
55.000	39.919	0.100
55.100	44.148	0.100
55.200	48.430	0.100
55.300	40.559	0.100
55.400	39.611	0.100
55.500	53.672	0.100
55.600	43.312	0.100
55.700	54.677	0.100
55.800	48.455	0.100
55.900	56.150	0.100
56.000	45.342	0.100
56.100	48.746	0.100
56.200	40.549	0.100
56.300	38.069	0.100
56.400	44.619	0.100
56.500	49.185	0.100
56.600	49.544	0.100
56.700	57.951	0.100
56.800	54.327	0.100
56.900	57.707	0.100
57.000	45.118	0.100
57.100	52.373	0.100
57.200	41.837	0.100
57.300	42.023	0.100
57.400	47.658	0.100
57.500	57.637	0.100
57.600	45.759	0.100
57.700	39.554	0.100
57.800	50.859	0.100
57.900	57.566	0.100
58.000	48.115	0.100
58.100	51.262	0.100
58.200	38.332	0.100
58.300	50.514	0.100
58.400	45.210	0.100
58.500	38.556	0.100
58.600	63.736	0.100
58.700	46.653	0.100
58.800	34.160	0.100
58.900	58.837	0.100
59.000	61.826	0.100
59.100	50.924	0.100
59.200	48.572	0.100
59.300	37.279	0.100
59.400	38.165	0.100
59.500	40.961	0.100
59.600	39.693	0.100
59.700	54.026	0.100
59.800	49.621	0.100
59.900	57.306	0.100
60.000	54.629	0.100
60.100	39.780	0.100
60.200	44.544	0.100
60.300	43.866	0.100
60.400	44.137	0.100
60.500	36.152	0.100
60.600	43.572	0.100
60.700	62.843	0.100
60.800	53.299	0.100
60.900	44.414	0.100
61.000	46.252	0.100
61.100	52.584	0.100
61.200	37.263	0.100
61.300	46.579	0.100
61.400	43.284	0.100
61.500	48.890	0.100
61.600	37.751	0.100
61.700	46.729	0.100
61.800	51.529	0.100
61.900	54.375	0.100
62.000	63.735	0.100
62.100	59.728	0.100
62.200	52.674	0.100
62.300	46.442	0.100
62.400	50.612	0.100
62.500	56.693	0.100
62.600	55.216	0.100
62.700	52.832	0.100
62.800	42.481	0.100
62.900	47.779	0.100
63.000	47.232	0.100
63.100	47.134	0.100
63.200	44.915	0.100
63.300	46.043	0.100
63.400	50.445	0.100
63.500	53.485	0.100
63.600	43.994	0.100
63.700	51.452	0.100
63.800	60.212	0.100
63.900	58.577	0.100
64.000	48.908	0.100
64.100	53.570	0.100
64.200	38.194	0.100
64.300	42.858	0.100
64.400	50.908	0.100
64.500	40.561	0.100
64.600	44.021	0.100
64.700	50.933	0.100
64.800	46.996	0.100
64.900	50.722	0.100
65.000	46.550	0.100
65.100	45.599	0.100
65.200	46.739	0.100
65.300	56.075	0.100
65.400	55.106	0.100
65.500	52.232	0.100
65.600	63.803	0.100
65.700	58.109	0.100
65.800	50.343	0.100
65.900	60.279	0.100
66.000	44.637	0.100
66.100	62.554	0.100
66.200	48.049	0.100
66.300	38.446	0.100
66.400	40.880	0.100
66.500	54.252	0.100
66.600	56.635	0.100
66.700	58.866	0.100
66.800	46.715	0.100
66.900	42.617	0.100
67.000	51.494	0.100
67.100	46.588	0.100
67.200	57.788	0.100
67.300	55.770	0.100
67.400	47.990	0.100
67.500	60.471	0.100
67.600	40.846	0.100
67.700	46.237	0.100
67.800	53.425	0.100
67.900	51.516	0.100
68.000	45.860	0.100
68.100	48.170	0.100
68.200	48.208	0.100
68.300	45.124	0.100
68.400	60.582	0.100
68.500	51.052	0.100
68.600	43.107	0.100
68.700	53.811	0.100
68.800	45.785	0.100
68.900	48.175	0.100
69.000	50.167	0.100
69.100	44.985	0.100
69.200	50.496	0.100
69.300	47.736	0.100
69.400	57.174	0.100
69.500	49.656	0.100
69.600	52.990	0.100
69.700	58.835	0.100
69.800	47.277	0.100
69.900	54.509	0.100
70.000	45.689	0.100
70.100	48.131	0.100
70.200	57.647	0.100
70.300	49.018	0.100
70.400	32.703	0.100
70.500	57.820	0.100
70.600	64.617	0.100
70.700	57.588	0.100
70.800	63.149	0.100
70.900	51.790	0.100
71.000	48.571	0.100
71.100	46.622	0.100
71.200	48.492	0.100
71.300	41.275	0.100
71.400	59.301	0.100
71.500	52.567	0.100
71.600	61.709	0.100
71.700	47.912	0.100
71.800	62.719	0.100
71.900	51.633	0.100
72.000	64.407	0.100
72.100	54.293	0.100
72.200	35.287	0.100
72.300	55.976	0.100
72.400	55.825	0.100
72.500	56.656	0.100
72.600	46.839	0.100
72.700	61.039	0.100
72.800	54.840	0.100
72.900	37.994	0.100
73.000	41.051	0.100
73.100	59.563	0.100
73.200	50.536	0.100
73.300	44.010	0.100
73.400	46.069	0.100
73.500	49.734	0.100
73.600	54.187	0.100
73.700	58.887	0.100
73.800	41.714	0.100
73.900	58.278	0.100
74.000	54.699	0.100
74.100	54.998	0.100
74.200	51.091	0.100
74.300	54.717	0.100
74.400	51.544	0.100
74.500	56.532	0.100
74.600	44.931	0.100
74.700	46.654	0.100
74.800	43.936	0.100
74.900	49.524	0.100
75.000	55.634	0.100
75.100	39.768	0.100
75.200	57.123	0.100
75.300	59.989	0.100
75.400	51.092	0.100
75.500	53.829	0.100
75.600	55.969	0.100
75.700	59.568	0.100
75.800	46.696	0.100
75.900	57.148	0.100
76.000	46.455	0.100
76.100	47.190	0.100
76.200	45.581	0.100
76.300	44.322	0.100
76.400	51.052	0.100
76.500	46.008	0.100
76.600	54.198	0.100
76.700	52.728	0.100
76.800	56.937	0.100
76.900	49.711	0.100
77.000	48.136	0.100
77.100	54.658	0.100
77.200	51.533	0.100
77.300	52.081	0.100
77.400	61.166	0.100
77.500	49.706	0.100
77.600	58.910	0.100
77.700	57.995	0.100
77.800	53.023	0.100
77.900	38.467	0.100
78.000	66.368	0.100
78.100	53.076	0.100
78.200	51.523	0.100
78.300	56.373	0.100
78.400	54.216	0.100
78.500	52.080	0.100
78.600	50.600	0.100
78.700	52.192	0.100
78.800	48.021	0.100
78.900	62.574	0.100
79.000	54.188	0.100
79.100	55.649	0.100
79.200	57.836	0.100
79.300	57.044	0.100
79.400	52.798	0.100
79.500	50.243	0.100
79.600	47.202	0.100
79.700	51.073	0.100
79.800	44.261	0.100
79.900	51.498	0.100
80.000	55.527	0.100
80.100	49.027	0.100
80.200	49.785	0.100
80.300	53.909	0.100
80.400	57.197	0.100
80.500	51.743	0.100
80.600	58.548	0.100
80.700	46.908	0.100
80.800	36.203	0.100
80.900	62.495	0.100
81.000	59.368	0.100
81.100	55.630	0.100
81.200	62.613	0.100
81.300	49.272	0.100
81.400	65.997	0.100
81.500	52.796	0.100
81.600	48.594	0.100
81.700	61.701	0.100
81.800	54.128	0.100
81.900	56.218	0.100
82.000	47.331	0.100
82.100	47.969	0.100
82.200	57.789	0.100
82.300	50.583	0.100
82.400	53.155	0.100
82.500	63.312	0.100
82.600	49.467	0.100
82.700	56.045	0.100
82.800	59.657	0.100
82.900	44.348	0.100
83.000	54.797	0.100
83.100	39.831	0.100
83.200	72.790	0.100
83.300	50.392	0.100
83.400	58.169	0.100
83.500	42.698	0.100
83.600	55.496	0.100
83.700	60.725	0.100
83.800	50.598	0.100
83.900	55.265	0.100
84.000	62.059	0.100
84.100	63.325	0.100
84.200	57.228	0.100
84.300	55.480	0.100
84.400	55.378	0.100
84.500	59.675	0.100
84.600	50.676	0.100
84.700	48.788	0.100
84.800	43.659	0.100
84.900	50.485	0.100
85.000	52.644	0.100
85.100	51.347	0.100
85.200	59.532	0.100
85.300	67.395	0.100
85.400	65.070	0.100
85.500	54.483	0.100
85.600	49.602	0.100
85.700	66.872	0.100
85.800	60.540	0.100
85.900	62.601	0.100
86.000	44.232	0.100
86.100	54.780	0.100
86.200	55.302	0.100
86.300	55.512	0.100
86.400	54.904	0.100
86.500	52.295	0.100
86.600	56.033	0.100
86.700	48.706	0.100
86.800	43.458	0.100
86.900	46.710	0.100
87.000	59.568	0.100
87.100	60.824	0.100
87.200	51.112	0.100
87.300	53.327	0.100
87.400	61.861	0.100
87.500	47.629	0.100
87.600	51.992	0.100
87.700	66.106	0.100
87.800	59.198	0.100
87.900	51.289	0.100
88.000	56.329	0.100
88.100	43.827	0.100
88.200	56.874	0.100
88.300	65.329	0.100
88.400	58.126	0.100
88.500	43.681	0.100
88.600	61.452	0.100
88.700	65.013	0.100
88.800	76.436	0.100
88.900	44.726	0.100
89.000	50.414	0.100
89.100	49.809	0.100
89.200	61.286	0.100
89.300	41.355	0.100
89.400	50.967	0.100
89.500	54.870	0.100
89.600	63.776	0.100
89.700	59.715	0.100
89.800	41.228	0.100
89.900	43.502	0.100
90.000	50.660	0.100
90.100	66.170	0.100
90.200	60.880	0.100
90.300	51.378	0.100
90.400	51.873	0.100
90.500	44.910	0.100
90.600	54.968	0.100
90.700	51.217	0.100
90.800	55.721	0.100
90.900	32.693	0.100
91.000	41.549	0.100
91.100	40.494	0.100
91.200	35.464	0.100
91.300	46.021	0.100
91.400	42.574	0.100
91.500	37.095	0.100
91.600	30.186	0.100
91.700	44.975	0.100
91.800	32.192	0.100
91.900	31.487	0.100
92.000	44.408	0.100
92.100	39.093	0.100
92.200	22.005	0.100
92.300	25.695	0.100
92.400	32.247	0.100
92.500	38.021	0.100
92.600	35.826	0.100
92.700	22.910	0.100
92.800	18.671	0.100
92.900	26.065	0.100
93.000	47.866	0.100
93.100	38.762	0.100
93.200	26.413	0.100
93.300	17.439	0.100
93.400	20.618	0.100
93.500	31.446	0.100
93.600	32.046	0.100
93.700	19.540	0.100
93.800	19.450	0.100
93.900	21.623	0.100
94.000	22.073	0.100
94.100	25.055	0.100
94.200	21.462	0.100
94.300	18.118	0.100
94.400	27.780	0.100
94.500	27.538	0.100
94.600	25.902	0.100
94.700	12.830	0.100
94.800	9.244	0.100
94.900	16.989	0.100
95.000	13.095	0.100
95.100	40.160	0.100
95.200	40.967	0.100
95.300	23.185	0.100
95.400	26.931	0.100
95.500	24.017	0.100
95.600	15.815	0.100
95.700	15.235	0.100
95.800	26.036	0.100
95.900	22.145	0.100
96.000	25.201	0.100
96.100	17.734	0.100
96.200	15.371	0.100
96.300	16.897	0.100
96.400	10.073	0.100
96.500	27.295	0.100
96.600	20.030	0.100
96.700	22.154	0.100
96.800	27.283	0.100
96.900	21.406	0.100
97.000	22.384	0.100
97.100	27.066	0.100
97.200	10.003	0.100
97.300	20.481	0.100
97.400	22.952	0.100
97.500	11.823	0.100
97.600	27.855	0.100
97.700	16.873	0.100
97.800	19.442	0.100
97.900	14.398	0.100
98.000	16.691	0.100
98.100	17.255	0.100
98.200	23.010	0.100
98.300	24.083	0.100
98.400	13.430	0.100
98.500	11.884	0.100
98.600	14.794	0.100
98.700	13.341	0.100
98.800	10.674	0.100
98.900	18.588	0.100
99.000	17.496	0.100
99.100	18.082	0.100
99.200	21.521	0.100
99.300	23.846	0.100
99.400	18.292	0.100
99.500	19.645	0.100
99.600	4.750	0.100
99.700	13.867	0.100
99.800	17.269	0.100
99.900	20.787	0.100
100.000	3.240	0.100
100.100	12.119	0.100
100.200	15.784	0.100
100.300	22.102	0.100
100.400	13.265	0.100
100.500	24.426	0.100
100.600	10.449	0.100
100.700	19.828	0.100
100.800	22.053	0.100
100.900	14.559	0.100
101.000	20.869	0.100
101.100	17.175	0.100
101.200	19.435	0.100
101.300	16.759	0.100
101.400	4.802	0.100
101.500	18.017	0.100
101.600	19.688	0.100
101.700	21.244	0.100
101.800	10.182	0.100
101.900	7.870	0.100
102.000	15.807	0.100
102.100	16.699	0.100
102.200	28.526	0.100
102.300	16.715	0.100
102.400	21.250	0.100
102.500	11.134	0.100
102.600	21.111	0.100
102.700	-2.461	0.100
102.800	15.790	0.100
102.900	3.535	0.100
103.000	19.831	0.100
103.100	15.232	0.100
103.200	19.633	0.100
103.300	26.781	0.100
103.400	9.476	0.100
103.500	9.019	0.100
103.600	8.143	0.100
103.700	16.947	0.100
103.800	17.821	0.100
103.900	8.107	0.100
104.000	-0.971	0.100
104.100	16.273	0.100
104.200	16.997	0.100
104.300	6.940	0.100
104.400	22.535	0.100
104.500	6.639	0.100
104.600	13.236	0.100
104.700	2.683	0.100
104.800	4.261	0.100
104.900	19.489	0.100
105.000	18.900	0.100
105.100	14.662	0.100
105.200	26.570	0.100
105.300	2.134	0.100
105.400	3.754	0.100
105.500	4.530	0.100
105.600	7.617	0.100
105.700	15.901	0.100
105.800	21.760	0.100
105.900	20.716	0.100
106.000	7.279	0.100
106.100	7.400	0.100
106.200	4.353	0.100
106.300	1.673	0.100
106.400	8.645	0.100
106.500	14.552	0.100
106.600	4.021	0.100
106.700	10.657	0.100
106.800	10.001	0.100
106.900	6.759	0.100
107.000	9.378	0.100
107.100	16.658	0.100
107.200	13.349	0.100
107.300	14.514	0.100
107.400	15.046	0.100
107.500	5.959	0.100
107.600	6.869	0.100
107.700	10.620	0.100
107.800	14.295	0.100
107.900	4.936	0.100
108.000	7.974	0.100
108.100	1.653	0.100
108.200	3.945	0.100
108.300	13.263	0.100
108.400	16.426	0.100
108.500	6.366	0.100
108.600	22.519	0.100
108.700	0.526	0.100
108.800	5.090	0.100
108.900	2.593	0.100
109.000	4.280	0.100
109.100	1.658	0.100
109.200	9.643	0.100
109.300	26.153	0.100
109.400	24.148	0.100
109.500	7.004	0.100
109.600	9.791	0.100
109.700	0.716	0.100
109.800	-3.145	0.100
109.900	7.716	0.100
110.000	4.597	0.100
110.100	4.586	0.100
110.200	-0.456	0.100
110.300	13.229	0.100
110.400	3.585	0.100
110.500	7.672	0.100
110.600	11.078	0.100
110.700	6.076	0.100
110.800	-2.509	0.100
110.900	1.898	0.100
111.000	13.111	0.100
111.100	5.217	0.100
111.200	4.858	0.100
111.300	5.014	0.100
111.400	12.034	0.100
111.500	9.421	0.100
111.600	15.714	0.100
111.700	1.245	0.100
111.800	0.415	0.100
111.900	14.672	0.100
112.000	7.908	0.100
112.100	10.156	0.100
112.200	7.215	0.100
112.300	-4.362	0.100
112.400	3.293	0.100
112.500	4.582	0.100
112.600	11.593	0.100
112.700	-1.513	0.100
112.800	13.550	0.100
112.900	11.876	0.100
113.000	-1.875	0.100
113.100	3.412	0.100
113.200	3.283	0.100
113.300	-0.041	0.100
113.400	0.774	0.100
113.500	-2.163	0.100
113.600	0.925	0.100
113.700	3.703	0.100
113.800	2.498	0.100
113.900	0.900	0.100
114.000	5.034	0.100
114.100	-4.697	0.100
114.200	15.500	0.100
114.300	-4.083	0.100
114.400	5.796	0.100
114.500	9.561	0.100
114.600	-1.814	0.100
114.700	1.406	0.100
114.800	4.358	0.100
114.900	-3.422	0.100
115.000	-0.570	0.100
115.100	10.193	0.100
115.200	12.206	0.100
115.300	3.145	0.100
115.400	-6.174	0.100
115.500	-2.623	0.100
115.600	2.796	0.100
115.700	6.480	0.100
115.800	-2.427	0.100
115.900	-2.282	0.100
116.000	-1.664	0.100
116.100	11.675	0.100
116.200	-7.564	0.100
116.300	5.930	0.100
116.400	5.029	0.100
116.500	0.609	0.100
116.600	11.260	0.100
116.700	-3.205	0.100
116.800	0.861	0.100
116.900	-7.315	0.100
117.000	8.710	0.100
117.100	3.382	0.100
117.200	-2.648	0.100
117.300	-8.396	0.100
117.400	-6.091	0.100
117.500	6.841	0.100
117.600	-3.199	0.100
117.700	-11.202	0.100
117.800	0.511	0.100
117.900	-5.348	0.100
118.000	7.610	0.100
118.100	1.819	0.100
118.200	-13.573	0.100
118.300	-7.560	0.100
118.400	2.378	0.100
118.500	8.291	0.100
118.600	-1.850	0.100
118.700	0.865	0.100
118.800	0.905	0.100
118.900	-1.705	0.100
119.000	5.853	0.100
119.100	-10.087	0.100
119.200	-6.101	0.100
119.300	11.146	0.099
119.400	-4.625	0.099
119.500	-0.473	0.099
119.600	-5.386	0.099
119.700	-7.901	0.099
119.800	2.058	0.099
119.900	0.507	0.099
120.000	-0.368	0.099
120.100	-5.417	0.099
120.200	-21.483	0.100
120.300	0.359	0.099
120.400	-7.022	0.099
120.500	7.494	0.099
120.600	0.698	0.099
120.700	-13.065	0.099
120.800	-1.998	0.099
120.900	8.920	0.099
121.000	2.037	0.099
121.100	5.199	0.099
121.200	-11.735	0.099
121.300	-4.844	0.099
121.400	9.787	0.099
121.500	-8.444	0.099
121.600	-0.911	0.099
121.700	-7.010	0.099
121.800	-4.090	0.099
121.900	-0.146	0.099
122.000	3.653	0.099
122.100	-3.226	0.099
122.200	-2.345	0.099
122.300	-11.113	0.099
122.400	-13.885	0.099
122.500	-11.895	0.099
122.600	-4.252	0.099
122.700	1.472	0.099
122.800	5.789	0.099
122.900	-8.129	0.099
123.000	-8.065	0.099
123.100	4.562	0.099
123.200	-7.420	0.099
123.300	3.858	0.099
123.400	4.132	0.099
123.500	-10.023	0.099
123.600	-8.324	0.099
123.700	9.227	0.099
123.800	-4.984	0.099
123.900	3.270	0.099
124.000	6.047	0.099
124.100	-8.633	0.099
124.200	1.393	0.099
124.300	-18.907	0.099
124.400	-8.701	0.099
124.500	-14.877	0.099
124.600	3.269	0.099
124.700	0.061	0.099
124.800	1.036	0.099
124.900	2.373	0.099
125.000	-4.729	0.099
125.100	-15.473	0.099
125.200	-0.381	0.099
125.300	-4.195	0.099
125.400	-1.589	0.099
125.500	-13.202	0.099
125.600	-16.671	0.099
125.700	-2.499	0.099
125.800	-9.693	0.099
125.900	-3.367	0.099
126.000	-2.985	0.099
126.100	-3.216	0.099
126.200	4.395	0.099
126.300	-12.767	0.099
126.400	-12.025	0.099
126.500	-3.763	0.099
126.600	-3.790	0.099
126.700	-6.353	0.099
126.800	-5.344	0.099
126.900	-14.138	0.099
127.000	0.965	0.099
127.100	-11.284	0.099
127.200	-9.821	0.099
127.300	2.452	0.099
127.400	4.249	0.099
127.500	-3.910	0.099
127.600	-11.157	0.099
127.700	-9.506	0.099
127.800	-14.900	0.099
127.900	-15.836	0.099
128.000	2.475	0.099
128.100	-7.036	0.099
128.200	-11.669	0.099
128.300	3.438	0.099
128.400	-8.719	0.099
128.500	-12.729	0.099
128.600	-4.829	0.099
128.700	-4.119	0.099
128.800	-8.026	0.099
128.900	-13.785	0.099
129.000	-5.388	0.099
129.100	-8.323	0.099
129.200	-13.095	0.099
129.300	-1.557	0.099
129.400	-3.609	0.099
129.500	-20.463	0.099
129.600	-14.412	0.099
129.700	-7.989	0.099
129.800	-6.768	0.099
129.900	-5.906	0.099
130.000	-8.818	0.099
130.100	3.417	0.099
130.200	2.793	0.099
130.300	-12.869	0.099
130.400	-7.750	0.099
130.500	-19.454	0.099
130.600	-0.589	0.099
130.700	-11.454	0.099
130.800	-3.652	0.099
130.900	4.547	0.099
131.000	-3.275	0.099
131.100	-17.642	0.099
131.200	-22.417	0.099
131.300	-11.508	0.099
131.400	-4.414	0.099
131.500	3.388	0.099
131.600	-4.414	0.099
131.700	-9.788	0.099
131.800	-10.554	0.099
131.900	-4.033	0.099
132.000	-18.114	0.099
132.100	-16.129	0.099
132.200	0.865	0.099
132.300	-8.119	0.099
132.400	-13.317	0.099
132.500	-10.435	0.099
132.600	-10.553	0.099
132.700	-4.461	0.099
132.800	-18.678	0.099
132.900	-0.235	0.099
133.000	-13.347	0.099
133.100	-2.695	0.099
133.200	-7.232	0.099
133.300	-9.142	0.099
133.400	-16.612	0.100
133.500	-5.399	0.099
133.600	-14.388	0.100
133.700	-22.981	0.100
133.800	7.427	0.099
133.900	-1.947	0.099
134.000	-6.489	0.099
134.100	-11.731	0.099
134.200	-13.881	0.100
134.300	-8.964	0.099
134.400	-6.748	0.100
134.500	-14.434	0.100
134.600	-10.056	0.099
134.700	-16.652	0.100
134.800	-0.391	0.099
134.900	1.990	0.099
135.000	3.211	0.099
135.100	-11.363	0.100
135.200	-26.077	0.100
135.300	-3.661	0.099
135.400	-0.528	0.100
135.500	-22.488	0.100
135.600	-18.830	0.100
135.700	5.783	0.100
135.800	-6.285	0.100
135.900	-9.488	0.100
136.000	-9.320	0.100
136.100	-8.932	0.100
136.200	-0.242	0.100
136.300	-9.937	0.100
136.400	-16.645	0.100
136.500	-14.015	0.100
136.600	-20.849	0.100
136.700	-10.767	0.100
136.800	-3.914	0.100
136.900	-8.787	0.100
137.000	-0.548	0.100
137.100	-8.483	0.100
137.200	-19.212	0.100
137.300	-16.730	0.100
137.400	-10.709	0.100
137.500	-11.655	0.100
137.600	-10.904	0.100
137.700	-7.187	0.100
137.800	-14.517	0.100
137.900	-18.347	0.100
138.000	-3.234	0.100
138.100	-5.085	0.100
138.200	-7.517	0.100
138.300	-13.366	0.100
138.400	-4.387	0.100
138.500	-10.975	0.100
138.600	-9.891	0.100
138.700	-8.838	0.100
138.800	-12.398	0.100
138.900	-20.369	0.100
139.000	-10.145	0.100
139.100	-13.248	0.100
139.200	-13.118	0.100
139.300	-20.866	0.100
139.400	-5.132	0.100
139.500	-7.300	0.100
139.600	-8.940	0.100
139.700	-20.180	0.100
139.800	-9.708	0.100
139.900	-14.772	0.100
140.000	-23.183	0.100
140.100	-9.283	0.100
140.200	-15.709	0.100
140.300	-13.014	0.100
140.400	-5.997	0.100
140.500	1.586	0.100
140.600	-17.950	0.100
140.700	2.349	0.100
140.800	-2.374	0.100
140.900	-13.896	0.100
141.000	-15.476	0.100
141.100	-12.769	0.100
141.200	-19.094	0.100
141.300	-8.730	0.100
141.400	-5.892	0.100
141.500	-3.189	0.100
141.600	-0.378	0.100
141.700	-0.835	0.100
141.800	-9.683	0.100
141.900	-8.383	0.100
142.000	-14.166	0.100
142.100	-27.341	0.100
142.200	-16.176	0.100
142.300	-13.827	0.100
142.400	-15.309	0.100
142.500	-6.423	0.100
142.600	-16.426	0.100
142.700	-16.639	0.100
142.800	-7.184	0.100
142.900	-5.521	0.100
143.000	-4.848	0.100
143.100	-5.596	0.100
143.200	-19.656	0.100
143.300	-17.541	0.100
143.400	-12.554	0.100
143.500	-11.819	0.100
143.600	-9.819	0.100
143.700	-18.178	0.100
143.800	-19.482	0.100
143.900	-17.603	0.100
144.000	-3.990	0.100
144.100	-3.751	0.100
144.200	-12.844	0.100
144.300	-7.010	0.100
144.400	1.205	0.100
144.500	-2.179	0.100
144.600	-14.915	0.100
144.700	-16.682	0.100
144.800	-14.330	0.100
144.900	-14.633	0.100
145.000	-14.766	0.100
145.100	-3.469	0.100
145.200	-12.560	0.100
145.300	-14.826	0.100
145.400	-24.973	0.100
145.500	-13.852	0.100
145.600	-11.154	0.100
145.700	-16.281	0.100
145.800	-13.158	0.100
145.900	-26.605	0.100
146.000	-17.481	0.100
146.100	-2.483	0.100
146.200	-1.630	0.100
146.300	-16.792	0.100
146.400	-8.863	0.100
146.500	-11.172	0.100
146.600	-27.829	0.100
146.700	-12.653	0.100
146.800	-10.028	0.100
146.900	-11.202	0.100
147.000	-29.648	0.100
147.100	-20.170	0.100
147.200	-4.670	0.100
147.300	-9.870	0.100
147.400	2.587	0.100
147.500	-12.965	0.100
147.600	-32.688	0.100
147.700	-5.569	0.100
147.800	-14.993	0.100
147.900	-11.833	0.100
148.000	-7.641	0.100
148.100	-22.799	0.100
148.200	-17.720	0.100
148.300	-12.075	0.100
148.400	-9.548	0.100
148.500	-19.506	0.100
148.600	-18.191	0.100
148.700	-2.079	0.100
148.800	-24.084	0.100
148.900	-20.652	0.100
149.000	-7.284	0.100
149.100	-13.555	0.100
149.200	-18.270	0.100
149.300	-17.357	0.100
149.400	-8.476	0.100
149.500	-7.669	0.100
149.600	-2.389	0.100
149.700	-6.817	0.100
149.800	-17.063	0.100
149.900	-13.373	0.100
150.000	-7.519	0.100
150.100	-7.203	0.100
150.200	-20.618	0.100
150.300	-21.786	0.100
150.400	-16.441	0.100
150.500	-3.940	0.100
150.600	-5.709	0.100
150.700	-1.656	0.100
150.800	-13.898	0.100
150.900	-17.993	0.100
151.000	-13.101	0.100
151.100	-14.141	0.100
151.200	-13.332	0.100
151.300	-15.868	0.100
151.400	-8.361	0.100
151.500	-8.787	0.100
151.600	-14.356	0.100
151.700	-19.117	0.100
151.800	-13.512	0.100
151.900	-18.825	0.100
152.000	-17.613	0.100
152.100	-9.407	0.100
152.200	-13.593	0.100
152.300	-4.004	0.100
152.400	-22.037	0.100
152.500	-13.451	0.100
152.600	-8.143	0.100
152.700	-8.855	0.100
152.800	-11.575	0.100
152.900	-6.169	0.100
153.000	-18.525	0.100
153.100	-10.242	0.100
153.200	-14.512	0.100
153.300	-7.299	0.100
153.400	-14.004	0.100
153.500	-4.512	0.100
153.600	-18.185	0.100
153.700	-22.250	0.100
153.800	-23.022	0.100
153.900	-15.583	0.100
154.000	-12.808	0.100
154.100	-17.775	0.100
154.200	-12.652	0.100
154.300	-10.470	0.100
154.400	-25.433	0.100
154.500	-20.330	0.100
154.600	-11.737	0.100
154.700	-9.779	0.100
154.800	-13.533	0.100
154.900	-13.751	0.100
155.000	-20.683	0.100
155.100	-27.044	0.100
155.200	0.196	0.100
155.300	-6.524	0.100
155.400	-2.619	0.100
155.500	-8.705	0.100
155.600	-7.047	0.100
155.700	-11.643	0.100
155.800	-10.164	0.100
155.900	-6.561	0.100
156.000	-16.408	0.100
156.100	-19.297	0.100
156.200	-12.085	0.100
156.300	-7.538	0.100
156.400	-5.950	0.100
156.500	-10.531	0.100
156.600	-18.164	0.100
156.700	-22.590	0.100
156.800	-6.260	0.100
156.900	-15.237	0.100
157.000	-13.906	0.100
157.100	-15.589	0.100
157.200	-12.602	0.100
157.300	-9.724	0.100
157.400	-1.710	0.100
157.500	-12.025	0.100
157.600	-11.390	0.100
157.700	-14.699	0.100
157.800	-13.593	0.100
157.900	-12.077	0.100
158.000	-22.482	0.100
158.100	-16.911	0.100
158.200	-9.445	0.100
158.300	-10.748	0.100
158.400	-11.242	0.100
158.500	-8.771	0.100
158.600	-6.590	0.100
158.700	-1.416	0.100
158.800	-22.513	0.100
158.900	-13.099	0.100
159.000	-17.637	0.100
159.100	-8.100	0.100
159.200	-4.617	0.100
159.300	-3.864	0.100
159.400	-25.218	0.100
159.500	-12.382	0.100
159.600	-2.914	0.100
159.700	-22.491	0.100
159.800	-16.743	0.100
159.900	-5.329	0.100
160.000	-11.567	0.100
160.100	-12.456	0.100
160.200	-31.084	0.100
160.300	-15.730	0.100
160.400	3.464	0.100
160.500	-7.105	0.100
160.600	-5.969	0.100
160.700	-14.166	0.100
160.800	-17.249	0.100
160.900	-15.856	0.100
161.000	-17.009	0.100
161.100	-4.542	0.100
161.200	-8.615	0.100
161.300	-5.369	0.100
161.400	-26.883	0.100
161.500	-16.072	0.100
161.600	-20.902	0.100
161.700	-14.771	0.100
161.800	-7.967	0.100
161.900	-11.028	0.100
162.000	-15.471	0.100
162.100	5.210	0.100
162.200	-10.057	0.100
162.300	-18.699	0.100
162.400	-6.671	0.100
162.500	-13.134	0.100
162.600	-13.482	0.100
162.700	-16.298	0.100
162.800	-14.419	0.100
162.900	-9.631	0.100
163.000	-21.832	0.100
163.100	-8.107	0.100
163.200	-6.536	0.100
163.300	-4.791	0.100
163.400	-13.703	0.100
163.500	-19.281	0.100
163.600	-9.137	0.100
163.700	-10.587	0.100
163.800	-15.336	0.100
163.900	-9.514	0.100
164.000	-6.939	0.100
164.100	-15.848	0.100
164.200	-4.033	0.100
164.300	-10.823	0.100
164.400	-6.468	0.100
164.500	-17.007	0.100
164.600	-18.759	0.100
164.700	-13.300	0.100
164.800	5.851	0.100
164.900	-6.774	0.100
165.000	-7.664	0.100
165.100	-10.097	0.100
165.200	-11.737	0.100
165.300	-11.899	0.100
165.400	-7.583	0.100
165.500	-21.949	0.100
165.600	-13.772	0.100
165.700	-11.441	0.100
165.800	2.722	0.100
165.900	-18.661	0.100
166.000	-13.149	0.100
166.100	-9.345	0.100
166.200	-26.923	0.100
166.300	-13.246	0.100
166.400	-12.752	0.100
166.500	-16.780	0.100
166.600	-4.979	0.100
166.700	-11.222	0.100
166.800	-24.003	0.100
166.900	-17.263	0.100
167.000	-5.661	0.100
167.100	-4.236	0.100
167.200	-4.875	0.100
167.300	-17.018	0.100
167.400	-26.412	0.100
167.500	-15.585	0.100
167.600	-3.080	0.100
167.700	-12.831	0.100
167.800	-2.707	0.100
167.900	-22.752	0.100
168.000	-21.897	0.100
168.100	-6.222	0.100
168.200	-10.297	0.100
168.300	1.851	0.100
168.400	-1.508	0.100
168.500	-16.337	0.100
168.600	-12.895	0.100
168.700	-10.448	0.100
168.800	-13.716	0.100
168.900	-10.444	0.100
169.000	-10.124	0.100
169.100	-3.774	0.100
169.200	-20.124	0.100
169.300	-16.788	0.100
169.400	-16.744	0.100
169.500	-13.321	0.100
169.600	-14.930	0.100
169.700	-4.555	0.100
169.800	-9.181	0.100
169.900	-30.987	0.100
170.000	-19.524	0.100
170.100	-18.021	0.100
170.200	-2.562	0.100
170.300	1.780	0.100
170.400	-12.283	0.100
170.500	-7.707	0.100
170.600	-20.605	0.100
170.700	-19.554	0.100
170.800	-3.321	0.100
170.900	-3.418	0.100
171.000	-11.816	0.100
171.100	-11.659	0.100
171.200	-18.054	0.100
171.300	-16.358	0.100
171.400	-3.922	0.100
171.500	-15.709	0.100
171.600	-10.136	0.100
171.700	-22.960	0.100
171.800	-12.683	0.100
171.900	-5.400	0.100
172.000	-0.029	0.100
172.100	3.090	0.100
172.200	-3.126	0.100
172.300	-16.486	0.100
172.400	-24.776	0.100
172.500	0.394	0.100
172.600	-13.469	0.100
172.700	-7.506	0.100
172.800	-14.821	0.100
172.900	-10.298	0.100
173.000	-9.904	0.100
173.100	-11.507	0.100
173.200	-0.252	0.100
173.300	-19.943	0.100
173.400	-17.941	0.100
173.500	-18.278	0.100
173.600	-12.090	0.100
173.700	-7.200	0.100
173.800	4.549	0.100
173.900	-1.960	0.100
174.000	-17.411	0.100
174.100	-26.190	0.100
174.200	-26.743	0.100
174.300	-8.999	0.100
174.400	-11.566	0.100
174.500	1.952	0.100
174.600	-6.097	0.100
174.700	-9.908	0.099
174.800	-16.345	0.099
174.900	-9.935	0.099
175.000	-16.553	0.099
175.100	-17.297	0.099
175.200	-11.382	0.099
175.300	2.302	0.099
175.400	-14.145	0.099
175.500	-6.977	0.099
175.600	-19.021	0.099
175.700	-18.021	0.099
175.800	-21.780	0.099
175.900	-6.817	0.099
176.000	-9.545	0.099
176.100	-12.687	0.099
176.200	-16.183	0.099
176.300	-15.000	0.099
176.400	-11.273	0.099
176.500	-9.327	0.099
176.600	-6.750	0.099
176.700	-9.330	0.099
176.800	-10.360	0.099
176.900	-7.405	0.099
177.000	-10.203	0.099
177.100	-16.992	0.099
177.200	-14.607	0.099
177.300	-17.028	0.099
177.400	-9.801	0.099
177.500	-5.561	0.099
177.600	-17.595	0.099
177.700	-12.025	0.099
177.800	-26.610	0.099
177.900	-18.929	0.099
178.000	4.614	0.099
178.100	-4.361	0.099
178.200	-19.049	0.099
178.300	-25.016	0.099
178.400	-9.378	0.099
178.500	0.514	0.099
178.600	6.192	0.099
178.700	-5.995	0.099
178.800	-6.051	0.099
178.900	-12.493	0.099
179.000	-11.743	0.099
179.100	-22.273	0.099
179.200	-22.216	0.099
179.300	-8.670	0.099
179.400	-18.199	0.099
179.500	-14.130	0.099
179.600	-15.018	0.099
179.700	-6.579	0.099
179.800	-10.720	0.099
179.900	-12.098	0.099
180.000	-17.506	0.099
180.100	1.235	0.099
180.200	-7.442	0.099
180.300	-9.447	0.099
180.400	-10.362	0.099
180.500	-2.926	0.099
180.600	6.616	0.099
180.700	4.873	0.099
180.800	13.206	0.099
180.900	2.507	0.099
181.000	8.966	0.099
181.100	1.904	0.099
181.200	5.767	0.099
181.300	13.322	0.099
181.400	12.645	0.099
181.500	24.642	0.099
181.600	13.474	0.099
181.700	18.328	0.099
181.800	17.604	0.099
181.900	6.602	0.099
182.000	31.063	0.099
182.100	20.276	0.099
182.200	17.136	0.099
182.300	39.306	0.099
182.400	35.007	0.099
182.500	28.421	0.099
182.600	27.513	0.099
182.700	41.033	0.099
182.800	30.957	0.099
182.900	25.578	0.099
183.000	37.943	0.099
183.100	31.569	0.099
183.200	22.936	0.099
183.300	31.718	0.099
183.400	30.476	0.099
183.500	40.306	0.099
183.600	31.047	0.099
183.700	36.974	0.099
183.800	30.283	0.099
183.900	21.795	0.099
184.000	35.196	0.099
184.100	30.804	0.099
184.200	32.782	0.099
184.300	41.694	0.099
184.400	40.651	0.099
184.500	43.171	0.099
184.600	27.773	0.099
184.700	43.821	0.099
184.800	42.224	0.099
184.900	25.967	0.099
185.000	20.330	0.099
185.100	48.053	0.099
185.200	43.643	0.099
185.300	32.869	0.099
185.400	33.737	0.099
185.500	46.986	0.099
185.600	36.225	0.099
185.700	34.682	0.099
185.800	16.464	0.099
185.900	40.389	0.099
186.000	39.010	0.099
186.100	41.375	0.099
186.200	38.492	0.099
186.300	35.753	0.099
186.400	37.451	0.099
186.500	39.320	0.099
186.600	18.069	0.099
186.700	40.328	0.099
186.800	39.439	0.099
186.900	43.692	0.099
187.000	30.517	0.099
187.100	28.405	0.099
187.200	29.236	0.099
187.300	29.043	0.099
187.400	35.852	0.099
187.500	40.291	0.099
187.600	31.595	0.099
187.700	34.457	0.099
187.800	32.904	0.099
187.900	36.860	0.099
188.000	34.833	0.099
188.100	21.284	0.099
188.200	39.613	0.099
188.300	37.485	0.099
188.400	32.513	0.099
188.500	37.983	0.099
188.600	11.082	0.099
188.700	32.605	0.099
188.800	29.167	0.099
188.900	26.076	0.099
189.000	33.275	0.099
189.100	43.325	0.099
189.200	40.418	0.099
189.300	32.402	0.099
189.400	39.948	0.099
189.500	51.281	0.099
189.600	43.169	0.099
189.700	44.236	0.099
189.800	33.414	0.099
189.900	32.583	0.099
190.000	25.435	0.099
190.100	37.603	0.099
190.200	42.800	0.099
190.300	33.916	0.099
190.400	33.593	0.099
190.500	31.565	0.099
190.600	32.786	0.099
190.700	23.683	0.099
190.800	34.597	0.099
190.900	41.841	0.099
191.000	41.227	0.099
191.100	38.075	0.099
191.200	43.687	0.099
191.300	42.135	0.099
191.400	24.441	0.099
191.500	38.732	0.099
191.600	34.448	0.099
191.700	48.306	0.099
191.800	40.434	0.099
191.900	31.779	0.099
192.000	34.204	0.100
192.100	38.963	0.100
192.200	31.105	0.100
192.300	36.472	0.100
192.400	34.594	0.100
192.500	32.965	0.100
192.600	20.154	0.100
192.700	28.888	0.100
192.800	46.501	0.100
192.900	33.469	0.100
193.000	54.649	0.100
193.100	36.623	0.100
193.200	49.227	0.100
193.300	43.367	0.100
193.400	34.946	0.100
193.500	28.259	0.100
193.600	38.360	0.100
193.700	43.152	0.100
193.800	40.142	0.100
193.900	44.841	0.100
194.000	37.674	0.100
194.100	35.158	0.100
194.200	38.812	0.100
194.300	44.323	0.100
194.400	40.713	0.100
194.500	48.691	0.100
194.600	33.507	0.100
194.700	44.616	0.100
194.800	40.407	0.100
194.900	35.781	0.100
195.000	41.979	0.100
195.100	46.363	0.100
195.200	35.448	0.100
195.300	31.426	0.100
195.400	42.709	0.100
195.500	46.822	0.100
195.600	43.130	0.100
195.700	42.238	0.100
195.800	46.397	0.100
195.900	47.242	0.100
196.000	32.375	0.100
196.100	29.792	0.100
196.200	52.944	0.100
196.300	42.202	0.100
196.400	39.527	0.100
196.500	50.069	0.100
196.600	32.831	0.100
196.700	39.177	0.100
196.800	42.120	0.100
196.900	44.834	0.100
197.000	44.602	0.100
197.100	48.344	0.100
197.200	40.485	0.100
197.300	30.095	0.100
197.400	37.731	0.100
197.500	49.792	0.100
197.600	48.356	0.100
197.700	35.868	0.100
197.800	40.181	0.100
197.900	50.793	0.100
198.000	32.412	0.100
198.100	38.213	0.100
198.200	53.014	0.100
198.300	50.657	0.100
198.400	41.005	0.100
198.500	30.125	0.100
198.600	16.503	0.100
198.700	41.270	0.100
198.800	47.406	0.100
198.900	45.118	0.100
199.000	52.515	0.100
199.100	40.428	0.100
199.200	43.007	0.100
199.300	41.277	0.100
199.400	60.219	0.100
199.500	52.451	0.100
199.600	43.375	0.100
199.700	50.495	0.100
199.800	44.149	0.100
199.900	39.179	0.100
200.000	47.827	0.100
200.100	35.496	0.100
200.200	41.404	0.100
200.300	44.558	0.100
200.400	42.683	0.100
200.500	42.459	0.100
200.600	49.898	0.100
200.700	39.903	0.100
200.800	47.138	0.100
200.900	55.283	0.100
201.000	51.788	0.100
201.100	56.257	0.100
201.200	45.532	0.100
201.300	50.079	0.100
201.400	50.608	0.100
201.500	34.732	0.100
201.600	46.072	0.100
201.700	44.005	0.100
201.800	55.011	0.100
201.900	52.832	0.100
202.000	46.950	0.100
202.100	44.792	0.100
202.200	41.397	0.100
202.300	45.443	0.100
202.400	41.183	0.100
202.500	43.194	0.100
202.600	40.461	0.100
202.700	44.513	0.100
202.800	41.698	0.100
202.900	44.799	0.100
203.000	32.882	0.100
203.100	50.807	0.100
203.200	50.359	0.100
203.300	50.581	0.100
203.400	38.031	0.100
203.500	40.036	0.100
203.600	52.196	0.100
203.700	51.733	0.100
203.800	42.500	0.100
203.900	40.850	0.100
204.000	47.419	0.100
204.100	51.115	0.100
204.200	57.319	0.100
204.300	44.489	0.100
204.400	35.248	0.100
204.500	57.523	0.100
204.600	42.815	0.100
204.700	43.260	0.100
204.800	57.072	0.100
204.900	60.748	0.100
205.000	58.431	0.100
205.100	32.726	0.100
205.200	49.071	0.100
205.300	58.014	0.100
205.400	65.268	0.100
205.500	35.558	0.100
205.600	28.208	0.100
205.700	54.123	0.100
205.800	53.768	0.100
205.900	50.602	0.100
206.000	50.758	0.100
206.100	56.910	0.100
206.200	53.778	0.100
206.300	49.074	0.100
206.400	49.347	0.100
206.500	70.845	0.100
206.600	50.399	0.100
206.700	46.786	0.100
206.800	52.582	0.100
206.900	52.717	0.100
207.000	51.857	0.100
207.100	40.429	0.100
207.200	44.887	0.100
207.300	46.704	0.100
207.400	52.351	0.100
207.500	57.779	0.100
207.600	49.550	0.100
207.700	51.234	0.100
207.800	52.279	0.100
207.900	52.023	0.100
208.000	44.650	0.100
208.100	46.192	0.100
208.200	45.213	0.100
208.300	55.598	0.100
208.400	47.532	0.100
208.500	52.777	0.100
208.600	52.055	0.100
208.700	43.438	0.100
208.800	58.834	0.100
208.900	50.370	0.100
209.000	53.622	0.100
209.100	48.264	0.100
209.200	51.393	0.100
209.300	52.421	0.100
209.400	45.252	0.100
209.500	61.926	0.100
209.600	44.579	0.100
209.700	48.734	0.100
209.800	49.457	0.100
209.900	57.807	0.100
210.000	50.489	0.100
210.100	43.794	0.100
210.200	43.213	0.100
210.300	48.134	0.100
210.400	48.347	0.100
210.500	57.726	0.100
210.600	44.017	0.100
210.700	65.844	0.100
210.800	55.503	0.100
210.900	47.373	0.100
211.000	43.338	0.100
211.100	68.222	0.100
211.200	57.094	0.100
211.300	33.406	0.100
211.400	46.971	0.100
211.500	74.153	0.100
211.600	52.571	0.100
211.700	52.960	0.100
211.800	54.405	0.100
211.900	48.665	0.100
212.000	47.857	0.100
212.100	65.625	0.100
212.200	52.048	0.100
212.300	54.718	0.100
212.400	61.674	0.100
212.500	60.796	0.100
212.600	52.752	0.100
212.700	54.983	0.100
212.800	46.842	0.100
212.900	56.958	0.100
213.000	64.035	0.100
213.100	48.151	0.100
213.200	49.265	0.100
213.300	48.614	0.100
213.400	61.233	0.100
213.500	41.868	0.100
213.600	72.778	0.100
213.700	68.095	0.100
213.800	58.412	0.100
213.900	48.164	0.100
214.000	59.060	0.100
214.100	54.494	0.100
214.200	56.684	0.100
214.300	57.110	0.100
214.400	58.906	0.100
214.500	52.598	0.100
214.600	54.597	0.100
214.700	52.283	0.100
214.800	58.732	0.100
214.900	53.733	0.100
215.000	61.656	0.100
215.100	56.877	0.100
215.200	59.648	0.100
215.300	55.179	0.100
215.400	52.100	0.100
215.500	61.786	0.100
215.600	45.543	0.100
215.700	68.875	0.100
215.800	68.397	0.100
215.900	62.269	0.100
216.000	50.224	0.100
216.100	52.008	0.100
216.200	59.044	0.100
216.300	53.801	0.100
216.400	63.055	0.100
216.500	52.597	0.100
216.600	59.458	0.100
216.700	60.326	0.100
216.800	59.419	0.100
216.900	57.901	0.100
217.000	49.036	0.100
217.100	65.443	0.100
217.200	53.642	0.100
217.300	69.807	0.100
217.400	58.388	0.100
217.500	56.672	0.100
217.600	49.243	0.100
217.700	60.546	0.100
217.800	54.257	0.100
217.900	63.238	0.100
218.000	58.626	0.100
218.100	60.590	0.100
218.200	48.414	0.100
218.300	59.123	0.100
218.400	64.127	0.100
218.500	58.009	0.100
218.600	63.419	0.100
218.700	62.463	0.100
218.800	63.035	0.100
218.900	51.340	0.100
219.000	52.292	0.100
219.100	56.352	0.100
219.200	59.630	0.100
219.300	62.685	0.100
219.400	59.085	0.100
219.500	57.282	0.100
219.600	62.408	0.100
219.700	58.482	0.100
219.800	53.394	0.100
219.900	52.037	0.100
220.000	71.093	0.100
220.100	61.604	0.100
220.200	50.739	0.100
220.300	48.943	0.100
220.400	60.511	0.100
220.500	71.121	0.100
220.600	65.827	0.100
220.700	65.287	0.100
220.800	56.700	0.100
220.900	50.786	0.100
221.000	62.682	0.100
221.100	58.202	0.100
221.200	50.983	0.100
221.300	62.542	0.100
221.400	64.210	0.100
221.500	65.796	0.100
221.600	60.497	0.100
221.700	56.079	0.100
221.800	62.759	0.100
221.900	63.156	0.100
222.000	64.015	0.100
222.100	64.336	0.100
222.200	58.411	0.100
222.300	59.592	0.100
222.400	62.118	0.100
222.500	64.507	0.100
222.600	67.314	0.100
222.700	53.473	0.100
222.800	57.898	0.100
222.900	43.935	0.100
223.000	46.794	0.100
223.100	65.234	0.100
223.200	52.870	0.100
223.300	66.691	0.100
223.400	59.903	0.100
223.500	63.553	0.100
223.600	51.609	0.100
223.700	63.008	0.100
223.800	63.974	0.100
223.900	60.813	0.100
224.000	68.627	0.100
224.100	60.278	0.100
224.200	56.043	0.100
224.300	56.835	0.100
224.400	60.102	0.100
224.500	65.600	0.100
224.600	64.329	0.100
224.700	68.193	0.100
224.800	67.321	0.100
224.900	56.853	0.100
225.000	52.767	0.100
225.100	60.194	0.100
225.200	61.377	0.100
225.300	68.498	0.100
225.400	63.191	0.100
225.500	50.177	0.100
225.600	53.900	0.100
225.700	65.489	0.100
225.800	51.970	0.100
225.900	50.331	0.100
226.000	76.280	0.100
226.100	63.770	0.100
226.200	56.627	0.100
226.300	68.301	0.100
226.400	68.898	0.100
226.500	48.233	0.100
226.600	66.583	0.100
226.700	71.063	0.100
226.800	61.513	0.100
226.900	57.217	0.100
227.000	51.926	0.100
227.100	58.077	0.100
227.200	49.075	0.100
227.300	63.345	0.100
227.400	62.639	0.100
227.500	65.043	0.100
227.600	58.024	0.100
227.700	55.080	0.100
227.800	63.923	0.100
227.900	51.031	0.100
228.000	61.262	0.100
228.100	74.250	0.100
228.200	65.843	0.100
228.300	52.985	0.100
228.400	69.601	0.100
228.500	65.895	0.100
228.600	66.935	0.100
228.700	67.615	0.100
228.800	56.606	0.100
228.900	64.341	0.100
229.000	62.666	0.100
229.100	56.832	0.100
229.200	67.366	0.100
229.300	60.032	0.100
229.400	59.176	0.100
229.500	66.083	0.100
229.600	68.073	0.100
229.700	64.721	0.100
229.800	70.565	0.100
229.900	61.933	0.100
230.000	56.064	0.100
230.100	67.740	0.100
230.200	70.769	0.100
230.300	59.757	0.100
230.400	70.422	0.100
230.500	70.446	0.100
230.600	61.720	0.100
230.700	65.891	0.100
230.800	62.656	0.100
230.900	59.751	0.100
231.000	62.020	0.100
231.100	51.877	0.100
231.200	58.592	0.100
231.300	61.853	0.100
231.400	58.597	0.100
231.500	68.625	0.100
231.600	60.204	0.100
231.700	65.070	0.100
231.800	63.513	0.100
231.900	65.628	0.100
232.000	65.956	0.100
232.100	54.020	0.100
232.200	60.551	0.100
232.300	62.301	0.100
232.400	70.549	0.100
232.500	64.779	0.100
232.600	64.855	0.100
232.700	54.467	0.100
232.800	73.242	0.100
232.900	70.013	0.100
233.000	70.960	0.100
233.100	47.565	0.100
233.200	61.550	0.100
233.300	65.045	0.100
233.400	57.717	0.100
233.500	65.547	0.100
233.600	56.171	0.100
233.700	57.679	0.100
233.800	63.519	0.100
233.900	65.481	0.100
234.000	58.039	0.100
234.100	70.957	0.100
234.200	64.880	0.100
234.300	49.772	0.100
234.400	47.240	0.100
234.500	62.140	0.100
234.600	66.175	0.100
234.700	77.415	0.100
234.800	66.818	0.100
234.900	57.750	0.100
235.000	58.227	0.100
235.100	52.088	0.100
235.200	59.519	0.100
235.300	65.429	0.100
235.400	72.944	0.100
235.500	50.574	0.100
235.600	56.474	0.100
235.700	65.248	0.100
235.800	53.749	0.100
235.900	64.239	0.100
236.000	68.314	0.100
236.100	75.002	0.100
236.200	72.415	0.100
236.300	64.528	0.100
236.400	56.704	0.100
236.500	61.061	0.100
236.600	67.666	0.100
236.700	80.303	0.100
236.800	80.983	0.100
236.900	59.699	0.100
237.000	60.860	0.100
237.100	61.360	0.100
237.200	68.896	0.100
237.300	67.660	0.100
237.400	60.670	0.100
237.500	43.600	0.100
237.600	50.274	0.100
237.700	49.373	0.100
237.800	63.867	0.100
237.900	71.663	0.100
238.000	69.595	0.100
238.100	65.374	0.100
238.200	63.143	0.100
238.300	59.045	0.100
238.400	58.334	0.100
238.500	53.925	0.100
238.600	55.174	0.100
238.700	68.856	0.100
238.800	58.935	0.100
238.900	60.204	0.100
239.000	66.923	0.100
239.100	58.065	0.100
239.200	65.232	0.100
239.300	57.299	0.100
239.400	52.822	0.100
239.500	75.532	0.100
239.600	63.725	0.100
239.700	69.588	0.100
239.800	67.115	0.100
239.900	54.594	0.100
240.000	49.348	0.100
240.100	56.919	0.100
240.200	67.620	0.100
240.300	58.849	0.100
240.400	68.057	0.100
240.500	55.169	0.100
240.600	51.240	0.100
240.700	53.050	0.100
240.800	41.808	0.100
240.900	43.722	0.100
241.000	48.995	0.100
241.100	52.086	0.100
241.200	29.278	0.100
241.300	46.372	0.100
241.400	40.745	0.100
241.500	38.433	0.100
241.600	37.418	0.100
241.700	30.500	0.100
241.800	25.210	0.100
241.900	24.797	0.100
242.000	19.797	0.100
242.100	37.519	0.100
242.200	32.109	0.100
242.300	25.195	0.100
242.400	24.408	0.100
242.500	20.576	0.100
242.600	26.557	0.100
242.700	27.556	0.100
242.800	16.504	0.100
242.900	26.841	0.100
243.000	32.181	0.100
243.100	15.905	0.100
243.200	12.219	0.100
243.300	10.781	0.100
243.400	14.783	0.100
243.500	17.790	0.100
243.600	16.003	0.100
243.700	31.275	0.100
243.800	28.503	0.100
243.900	18.128	0.100
244.000	17.547	0.100
244.100	1.069	0.100
244.200	10.743	0.100
244.300	27.494	0.100
244.400	22.144	0.100
244.500	9.913	0.100
244.600	16.766	0.100
244.700	19.076	0.100
244.800	19.365	0.100
244.900	17.128	0.100
245.000	11.706	0.100
245.100	15.171	0.100
245.200	0.881	0.100
245.300	16.307	0.100
245.400	15.654	0.100
245.500	12.842	0.100
245.600	25.556	0.100
245.700	19.088	0.100
245.800	13.023	0.100
245.900	1.806	0.100
246.000	16.468	0.100
246.100	17.880	0.100
246.200	23.504	0.100
246.300	18.235	0.100
246.400	15.319	0.100
246.500	16.095	0.100
246.600	12.999	0.100
246.700	13.978	0.100
246.800	24.088	0.100
246.900	23.165	0.100
247.000	7.477	0.100
247.100	13.142	0.100
247.200	12.882	0.100
247.300	27.667	0.100
247.400	26.542	0.100
247.500	8.409	0.100
247.600	12.843	0.100
247.700	23.845	0.100
247.800	20.338	0.100
247.900	18.314	0.100
248.000	9.628	0.100
248.100	16.006	0.100
248.200	-7.367	0.100
248.300	8.106	0.100
248.400	20.473	0.100
248.500	0.247	0.100
248.600	10.926	0.100
248.700	24.826	0.100
248.800	20.356	0.100
248.900	6.529	0.100
249.000	11.761	0.100
249.100	2.876	0.100
249.200	10.824	0.100
249.300	11.085	0.100
249.400	5.594	0.100
249.500	15.031	0.100
249.600	16.685	0.100
249.700	9.734	0.100
249.800	9.766	0.100
249.900	13.646	0.100
250.000	11.372	0.100
250.100	15.383	0.100
250.200	7.962	0.100
250.300	11.514	0.100
250.400	3.735	0.100
250.500	17.530	0.100
250.600	6.280	0.100
250.700	3.113	0.100
250.800	10.081	0.100
250.900	13.337	0.100
251.000	10.874	0.100
251.100	6.073	0.100
251.200	13.089	0.100
251.300	4.226	0.100
251.400	23.678	0.100
251.500	0.876	0.100
251.600	16.468	0.100
251.700	13.236	0.100
251.800	14.873	0.100
251.900	2.102	0.100
252.000	21.022	0.100
252.100	-5.016	0.100
252.200	13.391	0.100
252.300	17.993	0.100
252.400	-2.461	0.100
252.500	5.330	0.100
252.600	2.346	0.100
252.700	15.896	0.100
252.800	8.793	0.100
252.900	1.069	0.100
253.000	7.647	0.100
253.100	-9.492	0.100
253.200	-1.811	0.100
253.300	23.069	0.100
253.400	-1.526	0.100
253.500	7.234	0.100
253.600	4.130	0.100
253.700	10.048	0.100
253.800	5.699	0.100
253.900	-0.835	0.100
254.000	2.452	0.100
254.100	0.943	0.100
254.200	0.782	0.100
254.300	0.954	0.100
254.400	-0.895	0.100
254.500	2.040	0.100
254.600	3.073	0.100
254.700	0.074	0.100
254.800	4.436	0.100
254.900	4.777	0.100
255.000	8.890	0.100
255.100	7.807	0.100
255.200	-3.811	0.100
255.300	9.076	0.100
255.400	7.686	0.100
255.500	10.685	0.100
255.600	5.279	0.100
255.700	9.261	0.100
255.800	10.252	0.100
255.900	1.108	0.100
256.000	5.093	0.100
256.100	5.173	0.100
256.200	-9.342	0.100
256.300	-1.532	0.100
256.400	8.747	0.100
256.500	4.461	0.100
256.600	17.185	0.100
256.700	-2.294	0.100
256.800	19.767	0.100
256.900	9.942	0.100
257.000	5.052	0.100
257.100	0.537	0.100
257.200	3.070	0.100
257.300	2.324	0.100
257.400	-19.696	0.100
257.500	0.819	0.100
257.600	5.563	0.100
257.700	5.826	0.100
257.800	-1.422	0.100
257.900	-7.011	0.100
258.000	4.492	0.100
258.100	8.358	0.100
258.200	8.445	0.100
258.300	2.931	0.100
258.400	1.782	0.100
258.500	10.071	0.100
258.600	-7.748	0.100
258.700	6.737	0.100
258.800	1.780	0.100
258.900	-3.412	0.100
259.000	7.089	0.100
259.100	-4.352	0.100
259.200	8.165	0.100
259.300	-0.396	0.100
259.400	-6.561	0.100
259.500	3.792	0.100
259.600	3.248	0.100
259.700	-1.894	0.100
259.800	7.590	0.100
259.900	-1.586	0.100
260.000	-4.350	0.100
260.100	-6.495	0.100
260.200	-15.043	0.100
260.300	-0.698	0.100
260.400	-4.141	0.100
260.500	-6.429	0.100
260.600	-5.221	0.100
260.700	-5.800	0.100
260.800	-10.652	0.100
260.900	-4.703	0.100
261.000	-0.897	0.100
261.100	9.203	0.100
261.200	-15.778	0.100
261.300	-4.545	0.100
261.400	-0.242	0.100
261.500	-3.020	0.100
261.600	-0.997	0.100
261.700	1.269	0.100
261.800	-15.178	0.100
261.900	-13.134	0.100
262.000	-9.911	0.100
262.100	-5.134	0.100
262.200	1.417	0.100
262.300	4.203	0.100
262.400	-5.352	0.100
262.500	-13.191	0.100
262.600	-10.757	0.100
262.700	-3.111	0.100
262.800	-5.076	0.100
262.900	-8.164	0.100
263.000	-5.965	0.100
263.100	-4.583	0.100
263.200	-13.863	0.100
263.300	-23.348	0.100
263.400	-9.421	0.100
263.500	4.111	0.100
263.600	4.807	0.100
263.700	-8.087	0.100
263.800	-11.180	0.100
263.900	-8.277	0.100
264.000	-0.609	0.100
264.100	-0.975	0.100
264.200	-12.518	0.100
264.300	-9.866	0.100
264.400	-2.762	0.100
264.500	-10.639	0.100
264.600	-16.586	0.100
264.700	-2.897	0.100
264.800	-2.617	0.100
264.900	13.201	0.100
265.000	-8.081	0.100
265.100	-8.609	0.100
265.200	-3.921	0.100
265.300	0.755	0.100
265.400	-13.641	0.100
265.500	-7.607	0.100
265.600	-4.782	0.100
265.700	-9.556	0.100
265.800	-1.668	0.100
265.900	-10.753	0.100
266.000	1.736	0.100
266.100	-7.485	0.100
266.200	-5.982	0.100
266.300	-9.499	0.100
266.400	-11.958	0.100
266.500	-10.243	0.100
266.600	-31.282	0.100
266.700	-10.873	0.100
266.800	1.650	0.100
266.900	-1.358	0.100
267.000	-12.655	0.100
267.100	-7.436	0.100
267.200	-7.003	0.100
267.300	-4.046	0.100
267.400	-12.197	0.100
267.500	-12.573	0.100
267.600	-3.416	0.100
267.700	-3.003	0.100
267.800	-21.247	0.100
267.900	-13.794	0.100
268.000	-9.764	0.100
268.100	-8.443	0.100
268.200	-13.802	0.100
268.300	-7.711	0.100
268.400	-9.047	0.100
268.500	-16.379	0.100
268.600	-0.876	0.100
268.700	-23.012	0.100
268.800	-23.221	0.100
268.900	-20.539	0.100
269.000	-3.911	0.100
269.100	-4.679	0.100
269.200	-15.399	0.100
269.300	-14.725	0.100
269.400	-7.870	0.100
269.500	-12.151	0.100
269.600	-0.121	0.100
269.700	-14.347	0.100
269.800	-6.663	0.100
269.900	-25.987	0.100
270.000	-21.315	0.100
270.100	-16.926	0.100
270.200	-7.852	0.100
270.300	-8.051	0.100
270.400	2.085	0.100
270.500	-7.090	0.100
270.600	1.847	0.100
270.700	-11.119	0.100
270.800	-16.120	0.100
270.900	-11.724	0.100
271.000	-8.007	0.100
271.100	-12.484	0.100
271.200	-10.681	0.100
271.300	-18.176	0.100
271.400	-21.082	0.100
271.500	-9.857	0.100
271.600	-14.900	0.100
271.700	-5.852	0.100
271.800	-23.182	0.100
271.900	-13.866	0.100
272.000	-15.289	0.100
272.100	-3.599	0.100
272.200	-13.182	0.100
272.300	-5.670	0.100
272.400	-5.358	0.100
272.500	-14.575	0.100
272.600	-23.033	0.100
272.700	-22.049	0.100
272.800	-23.417	0.100
272.900	-4.917	0.100
273.000	-12.118	0.100
273.100	-8.526	0.100
273.200	-16.939	0.100
273.300	-16.157	0.100
273.400	-7.891	0.100
273.500	-26.087	0.100
273.600	-14.978	0.100
273.700	-7.368	0.100
273.800	-12.446	0.100
273.900	-17.604	0.100
274.000	-12.548	0.100
274.100	-19.276	0.100
274.200	-10.024	0.100
274.300	-17.491	0.100
274.400	-18.812	0.100
274.500	-30.690	0.100
274.600	-10.397	0.100
274.700	-14.913	0.100
274.800	-8.546	0.100
274.900	0.884	0.100
275.000	-19.657	0.100
275.100	-16.428	0.100
275.200	-11.991	0.100
275.300	-12.178	0.100
275.400	-10.053	0.100
275.500	-8.443	0.100
275.600	-11.964	0.100
275.700	-14.066	0.100
275.800	-20.855	0.100
275.900	-22.029	0.100
276.000	-14.906	0.100
276.100	-16.710	0.100
276.200	-25.671	0.100
276.300	-9.853	0.100
276.400	-11.762	0.100
276.500	-23.327	0.100
276.600	-15.302	0.100
276.700	-22.778	0.100
276.800	-28.002	0.100
276.900	-29.297	0.100
277.000	-9.516	0.100
277.100	-18.719	0.100
277.200	-2.265	0.100
277.300	-8.522	0.100
277.400	-17.531	0.100
277.500	-33.943	0.100
277.600	-16.099	0.100
277.700	-12.926	0.100
277.800	-29.813	0.100
277.900	-40.688	0.100
278.000	-23.299	0.100
278.100	-15.693	0.100
278.200	-2.856	0.100
278.300	-7.647	0.100
278.400	-0.924	0.100
278.500	-13.981	0.100
278.600	-30.699	0.100
278.700	-22.202	0.100
278.800	-10.824	0.100
278.900	-22.440	0.100
279.000	-26.015	0.100
279.100	-24.981	0.100
279.200	-16.748	0.100
279.300	-19.177	0.100
279.400	-13.243	0.100
279.500	-23.949	0.100
279.600	-25.370	0.100
279.700	-15.824	0.100
279.800	-20.268	0.100
279.900	-23.646	0.100
280.000	-22.622	0.100
280.100	-18.350	0.100
280.200	-18.949	0.100
280.300	-30.032	0.100
280.400	-16.862	0.100
280.500	-13.556	0.100
280.600	-24.546	0.100
280.700	-21.733	0.100
280.800	-14.875	0.100
280.900	-19.126	0.100
281.000	-24.410	0.100
281.100	-27.188	0.100
281.200	-22.742	0.100
281.300	-23.462	0.100
281.400	-30.853	0.100
281.500	-12.194	0.100
281.600	-12.121	0.100
281.700	-20.151	0.100
281.800	-21.802	0.100
281.900	-31.611	0.100
282.000	-10.989	0.100
282.100	-27.388	0.100
282.200	-12.887	0.100
282.300	-18.565	0.100
282.400	-29.774	0.100
282.500	-19.935	0.100
282.600	-18.213	0.100
282.700	-21.271	0.100
282.800	-23.904	0.100
282.900	-14.994	0.100
283.000	-20.654	0.100
283.100	-19.545	0.100
283.200	-12.950	0.100
283.300	-16.230	0.100
283.400	-13.914	0.100
283.500	-21.753	0.100
283.600	-11.150	0.100
283.700	-22.150	0.100
283.800	-20.042	0.100
283.900	-29.724	0.100
284.000	-21.514	0.100
284.100	-25.033	0.100
284.200	-23.695	0.100
284.300	-9.843	0.100
284.400	-17.307	0.100
284.500	-25.837	0.100
284.600	-26.450	0.100
284.700	-21.448	0.100
284.800	-27.401	0.100
284.900	-10.191	0.100
285.000	-27.671	0.100
285.100	-13.123	0.100
285.200	-21.583	0.100
285.300	-12.616	0.100
285.400	-12.347	0.100
285.500	-5.067	0.100
285.600	-15.589	0.100
285.700	-41.967	0.100
285.800	-30.745	0.100
285.900	-21.463	0.100
286.000	-31.891	0.100
286.100	-20.202	0.100
286.200	-10.265	0.100
286.300	-15.983	0.100
286.400	-26.166	0.100
286.500	-25.198	0.100
286.600	-19.676	0.100
286.700	-23.441	0.100
286.800	-17.785	0.100
286.900	-23.406	0.100
287.000	-35.792	0.100
287.100	-18.051	0.100
287.200	-25.205	0.100
287.300	-20.119	0.100
287.400	-27.591	0.100
287.500	-30.471	0.100
287.600	-30.828	0.100
287.700	-11.523	0.100
287.800	-10.240	0.100
287.900	-27.781	0.100
288.000	-18.531	0.100
288.100	-33.647	0.100
288.200	-30.354	0.100
288.300	-10.547	0.100
288.400	-23.872	0.100
288.500	-26.706	0.100
288.600	-21.429	0.100
288.700	-22.005	0.100
288.800	-22.039	0.100
288.900	-20.384	0.100
289.000	-31.692	0.100
289.100	-17.627	0.100
289.200	-14.717	0.100
289.300	-35.335	0.100
289.400	-34.499	0.100
289.500	-24.265	0.100
289.600	-25.295	0.100
289.700	-24.953	0.100
289.800	-10.107	0.100
289.900	-25.952	0.100
290.000	-20.159	0.100
290.100	-30.551	0.100
290.200	-17.499	0.100
290.300	-12.755	0.100
290.400	-22.986	0.100
290.500	-11.080	0.100
290.600	-19.826	0.100
290.700	-14.891	0.100
290.800	-18.313	0.100
290.900	-32.757	0.100
291.000	-29.052	0.100
291.100	-32.198	0.100
291.200	-19.211	0.100
291.300	-17.474	0.100
291.400	-15.511	0.100
291.500	-16.895	0.100
291.600	-30.873	0.100
291.700	-18.339	0.100
291.800	-24.769	0.100
291.900	-11.316	0.100
292.000	-14.513	0.100
292.100	-12.785	0.100
292.200	-17.006	0.100
292.300	-18.111	0.100
292.400	-21.016	0.100
292.500	-19.885	0.100
292.600	-18.432	0.100
292.700	-21.212	0.100
292.800	-17.798	0.100
292.900	-22.524	0.100
293.000	-21.468	0.100
293.100	-21.787	0.100
293.200	-24.550	0.100
293.300	-17.122	0.100
293.400	-7.165	0.100
293.500	-29.976	0.100
293.600	-11.960	0.100
293.700	-38.295	0.100
293.800	-27.418	0.100
293.900	-41.476	0.100
294.000	-19.739	0.100
294.100	-35.679	0.100
294.200	-25.936	0.100
294.300	-15.652	0.100
294.400	-18.066	0.100
294.500	-23.241	0.100
294.600	-19.239	0.100
294.700	-14.962	0.100
294.800	-33.108	0.100
294.900	-23.498	0.100
295.000	-17.290	0.100
295.100	-21.545	0.100
295.200	-18.029	0.100
295.300	-18.681	0.100
295.400	-34.849	0.100
295.500	-13.198	0.100
295.600	-23.202	0.100
295.700	-28.077	0.100
295.800	-39.985	0.100
295.900	-23.257	0.100
296.000	-19.749	0.100
296.100	-12.626	0.100
296.200	-9.558	0.100
296.300	-33.843	0.100
296.400	-18.574	0.100
296.500	-23.220	0.100
296.600	-20.573	0.100
296.700	-23.307	0.100
296.800	-26.332	0.100
296.900	-32.528	0.100
297.000	-25.691	0.100
297.100	-15.903	0.100
297.200	-24.654	0.100
297.300	-27.434	0.100
297.400	-20.414	0.100
297.500	-15.228	0.100
297.600	-23.141	0.100
297.700	-21.232	0.100
297.800	-31.489	0.100
297.900	-19.896	0.100
298.000	-20.703	0.100
298.100	-19.531	0.100
298.200	-23.359	0.100
298.300	-31.800	0.100
298.400	-19.701	0.100
298.500	-35.835	0.100
298.600	-22.518	0.100
298.700	-9.453	0.100
298.800	-24.711	0.100
298.900	-15.649	0.100
299.000	-31.713	0.100
299.100	-15.455	0.100
299.200	-16.317	0.100
299.300	-30.274	0.100
299.400	-16.342	0.100
299.500	-20.121	0.100
299.600	-32.870	0.100
299.700	-30.533	0.100
299.800	-32.073	0.100
299.900	-14.502	0.100
300.000	-2.652	0.100
300.100	-9.884	0.100
300.200	-22.589	0.100
300.300	-21.042	0.100
300.400	-23.965	0.100
300.500	-21.691	0.100
300.600	-21.811	0.100
300.700	-30.876	0.100
300.800	-25.369	0.100
300.900	-23.444	0.100
301.000	-22.275	0.100
301.100	-16.292	0.100
301.200	-13.731	0.100
301.300	-30.244	0.100
301.400	-27.456	0.100
301.500	-18.933	0.100
301.600	-12.562	0.100
301.700	-17.764	0.100
301.800	-17.033	0.100
301.900	-30.419	0.100
302.000	-29.063	0.100
302.100	-21.959	0.100
302.200	-16.602	0.100
302.300	-22.564	0.100
302.400	-19.357	0.100
302.500	-2.168	0.100
302.600	-15.818	0.100
302.700	-37.963	0.100
302.800	-26.622	0.100
302.900	-26.043	0.100
303.000	-6.324	0.100
303.100	-22.213	0.100
303.200	-16.986	0.100
303.300	-25.160	0.100
303.400	-30.619	0.100
303.500	-35.079	0.100
303.600	-19.277	0.100
303.700	-12.895	0.100
303.800	-12.441	0.100
303.900	-23.703	0.100
304.000	-23.403	0.100
304.100	-18.336	0.100
304.200	-22.457	0.100
304.300	-17.691	0.100
304.400	-25.092	0.100
304.500	-15.591	0.100
304.600	-13.847	0.100
304.700	-20.330	0.100
304.800	-28.889	0.100
304.900	-24.514	0.100
305.000	-29.816	0.100
305.100	-24.792	0.100
305.200	-1.562	0.100
305.300	-18.588	0.100
305.400	-16.251	0.100
305.500	-22.413	0.100
305.600	-10.116	0.100
305.700	-20.535	0.100
305.800	-25.591	0.100
305.900	-17.726	0.100
306.000	-28.088	0.100
306.100	-12.172	0.100
306.200	-26.133	0.100
306.300	-26.136	0.100
306.400	-29.822	0.100
306.500	-12.581	0.100
306.600	-23.169	0.100
306.700	-15.132	0.100
306.800	-25.276	0.100
306.900	-15.267	0.100
307.000	-22.696	0.100
307.100	-30.420	0.100
307.200	-30.324	0.100
307.300	-17.387	0.100
307.400	-34.307	0.100
307.500	-14.639	0.100
307.600	-26.655	0.100
307.700	-15.014	0.100
307.800	-8.717	0.100
307.900	-22.758	0.100
308.000	-13.748	0.100
308.100	-32.121	0.100
308.200	-20.698	0.100
308.300	-23.615	0.100
308.400	-20.429	0.100
308.500	-17.154	0.100
308.600	-8.728	0.100
308.700	-20.822	0.100
308.800	-20.675	0.100
308.900	-22.971	0.100
309.000	-22.422	0.100
309.100	-27.777	0.100
309.200	-29.282	0.100
309.300	-12.328	0.100
309.400	-26.393	0.100
309.500	-25.032	0.100
309.600	-20.816	0.100
309.700	-17.184	0.100
309.800	-14.433	0.100
309.900	-15.565	0.100
310.000	-25.853	0.100
310.100	-21.020	0.100
310.200	-20.036	0.100
310.300	-13.555	0.100
310.400	-27.239	0.100
310.500	-14.744	0.100
310.600	-16.233	0.100
310.700	-18.147	0.100
310.800	-22.114	0.100
310.900	-24.989	0.100
311.000	-26.851	0.100
311.100	-26.132	0.100
311.200	-24.171	0.100
311.300	-30.462	0.100
311.400	-24.114	0.100
311.500	-20.287	0.100
311.600	-24.325	0.100
311.700	-26.708	0.100
311.800	-22.581	0.100
311.900	-19.985	0.100
312.000	-20.377	0.100
312.100	-13.350	0.100
312.200	-9.993	0.100
312.300	-15.679	0.100
312.400	-25.728	0.100
312.500	-21.270	0.100
312.600	-22.537	0.100
312.700	-28.343	0.100
312.800	-22.987	0.100
312.900	-10.635	0.100
313.000	-26.968	0.100
313.100	-28.641	0.100
313.200	-23.154	0.100
313.300	-24.626	0.100
313.400	-14.131	0.100
313.500	-17.579	0.100
313.600	-22.946	0.100
313.700	-8.047	0.100
313.800	-16.090	0.100
313.900	-17.508	0.100
314.000	-17.344	0.100
314.100	-15.006	0.100
314.200	-32.230	0.100
314.300	-17.915	0.100
314.400	-26.332	0.100
314.500	-23.969	0.100
314.600	-20.425	0.100
314.700	-16.933	0.100
314.800	-32.963	0.100
314.900	-12.942	0.100
315.000	-27.414	0.100
315.100	-15.160	0.100
315.200	-15.122	0.100
315.300	-21.111	0.100
315.400	-29.645	0.100
315.500	-17.659	0.100
315.600	-27.290	0.100
315.700	-20.643	0.100
315.800	-15.794	0.100
315.900	-25.887	0.100
316.000	-23.277	0.100
316.100	-16.837	0.100
316.200	-10.304	0.100
316.300	-13.320	0.100
316.400	-19.779	0.100
316.500	-23.969	0.100
316.600	-25.477	0.100
316.700	-26.837	0.100
316.800	-13.965	0.100
316.900	-9.830	0.100
317.000	-8.535	0.100
317.100	-14.622	0.100
317.200	-21.406	0.100
317.300	-27.972	0.100
317.400	-24.800	0.100
317.500	-14.381	0.100
317.600	-19.096	0.100
317.700	-13.033	0.100
317.800	-22.801	0.100
317.900	-18.634	0.100
318.000	-27.345	0.100
318.100	-16.767	0.100
318.200	-18.251	0.100
318.300	-13.229	0.100
318.400	-22.515	0.100
318.500	-8.611	0.100
318.600	-23.636	0.100
318.700	-28.260	0.100
318.800	-30.037	0.100
318.900	-13.106	0.100
319.000	-21.647	0.100
319.100	-16.470	0.100
319.200	-23.988	0.100
319.300	-27.468	0.100
319.400	-21.090	0.100
319.500	-26.224	0.100
319.600	-26.890	0.100
319.700	-18.747	0.100
319.800	-20.164	0.100
319.900	-13.592	0.100
320.000	-23.152	0.100
320.100	-23.788	0.100
320.200	-11.446	0.100
320.300	-30.993	0.100
320.400	-33.881	0.100
320.500	-13.389	0.100
320.600	-12.825	0.100
320.700	-25.447	0.100
320.800	-18.269	0.100
320.900	-27.017	0.100
321.000	-20.474	0.100
321.100	-20.318	0.100
321.200	-20.384	0.100
321.300	-16.999	0.100
321.400	-7.418	0.100
321.500	-20.491	0.100
321.600	-29.759	0.100
321.700	-13.821	0.100
321.800	-16.703	0.100
321.900	-23.341	0.100
322.000	-16.734	0.100
322.100	-18.419	0.100
322.200	-12.873	0.100
322.300	-21.620	0.100
322.400	-41.064	0.100
322.500	-20.690	0.100
322.600	-14.570	0.100
322.700	-8.185	0.100
322.800	-12.094	0.100
322.900	-19.836	0.100
323.000	-18.683	0.100
323.100	-27.697	0.100
323.200	-9.599	0.100
323.300	-19.448	0.100
323.400	-24.956	0.100
323.500	-32.337	0.100
323.600	-16.793	0.100
323.700	-22.865	0.100
323.800	-14.195	0.100
323.900	-15.549	0.100
324.000	-26.926	0.100
324.100	-5.456	0.100
324.200	-11.260	0.100
324.300	-14.981	0.100
324.400	-10.002	0.100
324.500	-32.759	0.100
324.600	-24.314	0.100
324.700	-25.842	0.100
324.800	-16.156	0.100
324.900	-19.528	0.100
325.000	-17.355	0.100
325.100	-37.312	0.100
325.200	-19.709	0.100
325.300	-12.815	0.100
325.400	-8.783	0.100
325.500	-10.810	0.100
325.600	-12.405	0.100
325.700	-30.687	0.100
325.800	-17.619	0.100
325.900	-23.483	0.100
326.000	-16.692	0.100
326.100	-24.361	0.100
326.200	-8.784	0.100
326.300	-28.717	0.100
326.400	-10.594	0.100
326.500	-3.739	0.100
326.600	-4.634	0.100
326.700	-25.475	0.100
326.800	-33.343	0.100
326.900	-21.399	0.100
327.000	-9.291	0.100
327.100	-32.278	0.100
327.200	-18.499	0.100
327.300	-18.908	0.100
327.400	-16.865	0.100
327.500	-10.917	0.100
327.600	-6.935	0.100
327.700	-17.415	0.100
327.800	-21.728	0.100
327.900	-12.378	0.100
328.000	-17.198	0.100
328.100	-27.167	0.100
328.200	-13.768	0.100
328.300	-21.568	0.100
328.400	-25.534	0.100
328.500	-30.114	0.100
328.600	-18.543	0.100
328.700	-5.224	0.100
328.800	-4.340	0.100
328.900	-16.018	0.100
329.000	-22.758	0.100
329.100	-22.767	0.100
329.200	-19.153	0.100
329.300	-24.866	0.100
329.400	-12.962	0.100
329.500	-24.795	0.100
329.600	-5.658	0.100
329.700	-8.141	0.100
329.800	-24.157	0.100
329.900	-21.974	0.100
330.000	-35.161	0.100
330.100	-13.568	0.100
330.200	-15.018	0.100
330.300	-12.507	0.100
330.400	-10.652	0.100
330.500	-11.340	0.100
330.600	-1.576	0.100
330.700	-9.787	0.100
330.800	-7.509	0.100
330.900	4.550	0.100
331.000	12.056	0.100
331.100	12.813	0.100
331.200	7.123	0.100
331.300	-1.718	0.100
331.400	19.394	0.100
331.500	12.494	0.100
331.600	25.823	0.100
331.700	30.064	0.100
331.800	21.786	0.100
331.900	24.291	0.100
332.000	30.793	0.100
332.100	20.717	0.100
332.200	20.863	0.100
332.300	25.746	0.100
332.400	26.091	0.100
332.500	25.609	0.100
332.600	27.100	0.100
332.700	32.826	0.100
332.800	24.958	0.100
332.900	22.178	0.100
333.000	29.030	0.100
333.100	37.620	0.100
333.200	37.739	0.100
333.300	34.764	0.100
333.400	28.618	0.100
333.500	23.365	0.100
333.600	35.845	0.100
333.700	24.283	0.100
333.800	37.487	0.100
333.900	41.067	0.100
334.000	19.675	0.100
334.100	42.487	0.100
334.200	29.208	0.100
334.300	33.610	0.100
334.400	52.798	0.100
334.500	37.828	0.100
334.600	37.057	0.100
334.700	39.394	0.100
334.800	34.056	0.100
334.900	37.509	0.100
335.000	30.582	0.100
335.100	50.903	0.100
335.200	25.783	0.100
335.300	25.513	0.100
335.400	24.651	0.100
335.500	36.225	0.100
335.600	40.911	0.100
335.700	36.732	0.100
335.800	26.159	0.100
335.900	43.787	0.100
336.000	28.463	0.100
336.100	34.573	0.100
336.200	32.969	0.100
336.300	27.460	0.100
336.400	32.475	0.100
336.500	25.158	0.100
336.600	24.262	0.100
336.700	28.364	0.100
336.800	36.676	0.100
336.900	33.235	0.100
337.000	28.235	0.100
337.100	32.810	0.100
337.200	26.551	0.100
337.300	36.054	0.100
337.400	28.900	0.100
337.500	42.916	0.100
337.600	33.042	0.100
337.700	32.563	0.100
337.800	32.626	0.100
337.900	31.257	0.100
338.000	28.960	0.100
338.100	35.277	0.100
338.200	15.877	0.100
338.300	28.830	0.100
338.400	39.471	0.100
338.500	31.030	0.100
338.600	41.833	0.100
338.700	37.043	0.100
338.800	34.558	0.100
338.900	24.625	0.100
339.000	28.350	0.100
339.100	26.632	0.100
339.200	28.428	0.100
339.300	37.453	0.100
339.400	27.403	0.100
339.500	36.046	0.100
339.600	36.622	0.100
339.700	38.966	0.100
339.800	48.692	0.100
339.900	41.672	0.100
340.000	27.304	0.100
340.100	32.686	0.100
340.200	30.174	0.100
340.300	37.199	0.100
340.400	24.809	0.100
340.500	24.759	0.100
340.600	32.173	0.100
340.700	51.600	0.100
340.800	44.780	0.100
340.900	28.973	0.100
341.000	28.202	0.100
341.100	33.005	0.100
341.200	32.639	0.100
341.300	47.103	0.100
341.400	48.623	0.100
341.500	39.827	0.100
341.600	31.267	0.100
341.700	23.244	0.100
341.800	41.829	0.100
341.900	29.382	0.100
342.000	42.510	0.100
342.100	33.630	0.100
342.200	43.812	0.100
342.300	39.562	0.100
342.400	30.265	0.100
342.500	41.187	0.100
342.600	38.217	0.100
342.700	22.671	0.100
342.800	34.189	0.100
342.900	24.286	0.100
343.000	46.418	0.100
343.100	38.783	0.100
343.200	36.190	0.100
343.300	36.479	0.100
343.400	48.486	0.100
343.500	48.169	0.100
343.600	38.010	0.100
343.700	36.567	0.100
343.800	48.719	0.100
343.900	33.914	0.100
344.000	31.911	0.100
344.100	33.873	0.100
344.200	42.070	0.100
344.300	48.823	0.100
344.400	32.423	0.100
344.500	31.155	0.100
344.600	33.819	0.100
344.700	45.041	0.100
344.800	33.780	0.100
344.900	40.513	0.100
345.000	38.167	0.100
345.100	36.359	0.100
345.200	43.280	0.100
345.300	42.003	0.100
345.400	31.045	0.100
345.500	32.664	0.100
345.600	36.046	0.100
345.700	38.088	0.100
345.800	23.502	0.100
345.900	35.692	0.100
346.000	44.129	0.100
346.100	55.133	0.100
346.200	48.674	0.100
346.300	51.080	0.100
346.400	40.306	0.100
346.500	49.364	0.100
346.600	43.123	0.100
346.700	42.623	0.100
346.800	32.215	0.100
346.900	38.469	0.100
347.000	39.934	0.100
347.100	42.515	0.100
347.200	31.509	0.100
347.300	33.193	0.100
347.400	37.960	0.100
347.500	38.257	0.100
347.600	38.685	0.100
347.700	33.254	0.100
347.800	40.434	0.100
347.900	34.850	0.100
348.000	34.297	0.100
348.100	35.626	0.100
348.200	51.567	0.100
348.300	45.511	0.100
348.400	54.011	0.100
348.500	45.270	0.100
348.600	49.192	0.100
348.700	51.402	0.100
348.800	43.919	0.100
348.900	23.661	0.100
349.000	34.912	0.100
349.100	37.614	0.100
349.200	52.952	0.100
349.300	41.734	0.100
349.400	37.428	0.100
349.500	42.084	0.100
349.600	37.134	0.100
349.700	42.835	0.100
349.800	38.173	0.100
349.900	41.865	0.100
350.000	39.658	0.100
350.100	34.718	0.100
350.200	35.330	0.100
350.300	44.822	0.100
350.400	35.774	0.100
350.500	44.533	0.100
350.600	40.886	0.100
350.700	40.582	0.100
350.800	50.631	0.100
350.900	41.294	0.100
351.000	40.017	0.100
351.100	36.380	0.100
351.200	53.161	0.100
351.300	41.330	0.100
351.400	37.789	0.100
351.500	47.630	0.100
351.600	45.851	0.100
351.700	48.322	0.100
351.800	42.360	0.100
351.900	45.425	0.100
352.000	43.207	0.100
352.100	47.339	0.100
352.200	52.823	0.100
352.300	37.827	0.100
352.400	48.734	0.100
352.500	44.059	0.100
352.600	41.833	0.100
352.700	41.102	0.100
352.800	55.849	0.100
352.900	52.801	0.100
353.000	60.266	0.100
353.100	49.471	0.100
353.200	45.330	0.100
353.300	49.763	0.100
353.400	41.075	0.100
353.500	43.269	0.100
353.600	52.696	0.100
353.700	49.502	0.100
353.800	62.119	0.100
353.900	56.997	0.100
354.000	51.719	0.100
354.100	39.634	0.100
354.200	39.747	0.100
354.300	50.010	0.100
354.400	44.258	0.100
354.500	57.114	0.100
354.600	36.794	0.100
354.700	45.688	0.100
354.800	51.891	0.100
354.900	48.422	0.100
355.000	61.474	0.100
355.100	55.085	0.100
355.200	46.531	0.100
355.300	47.207	0.100
355.400	47.756	0.100
355.500	56.845	0.100
355.600	50.612	0.100
355.700	43.720	0.100
355.800	38.938	0.100
355.900	43.617	0.100
356.000	53.029	0.100
356.100	53.278	0.100
356.200	60.991	0.100
356.300	47.597	0.100
356.400	53.203	0.100
356.500	66.272	0.100
356.600	50.188	0.100
356.700	47.128	0.100
356.800	52.892	0.100
356.900	50.607	0.100
357.000	49.382	0.100
357.100	45.962	0.100
357.200	50.270	0.100
357.300	58.335	0.100
357.400	57.017	0.100
357.500	37.201	0.100
357.600	50.905	0.100
357.700	56.238	0.100
357.800	62.534	0.100
357.900	56.802	0.100
358.000	52.063	0.100
358.100	68.924	0.100
358.200	49.290	0.100
358.300	56.346	0.100
358.400	49.355	0.100
358.500	49.733	0.100
358.600	62.418	0.100
358.700	46.380	0.100
358.800	56.548	0.100
358.900	43.688	0.100
359.000	57.916	0.100
359.100	47.298	0.100
359.200	49.038	0.100
359.300	55.124	0.100
359.400	63.932	0.100
359.500	65.199	0.100
359.600	60.726	0.100
359.700	47.912	0.100
359.800	55.889	0.100
359.900	49.012	0.100
360.000	63.651	0.100
360.100	55.101	0.100
360.200	56.209	0.100
360.300	61.365	0.100
360.400	55.853	0.100
360.500	68.701	0.100
360.600	53.173	0.100
360.700	44.084	0.100
360.800	51.784	0.100
360.900	49.560	0.100
361.000	69.619	0.100
361.100	62.604	0.100
361.200	61.341	0.100
361.300	62.557	0.100
361.400	63.426	0.100
361.500	48.619	0.100
361.600	50.271	0.100
361.700	39.596	0.100
361.800	58.866	0.100
361.900	57.484	0.100
362.000	64.309	0.100
362.100	63.443	0.100
362.200	47.638	0.100
362.300	65.143	0.100
362.400	51.373	0.100
362.500	63.445	0.100
362.600	55.894	0.100
362.700	60.800	0.100
362.800	53.628	0.100
362.900	61.473	0.100
363.000	54.074	0.100
363.100	65.437	0.100
363.200	59.126	0.100
363.300	64.855	0.100
363.400	54.290	0.100
363.500	69.228	0.100
363.600	52.548	0.100
363.700	60.126	0.100
363.800	63.857	0.100
363.900	70.053	0.100
364.000	66.830	0.100
364.100	62.574	0.100
364.200	54.661	0.100
364.300	56.362	0.100
364.400	57.502	0.100
364.500	66.260	0.100
364.600	68.911	0.100
364.700	59.687	0.100
364.800	62.468	0.100
364.900	71.301	0.100
365.000	52.103	0.100
365.100	65.355	0.100
365.200	56.273	0.100
365.300	56.958	0.100
365.400	53.092	0.100
365.500	48.033	0.100
365.600	71.546	0.100
365.700	68.262	0.100
365.800	52.843	0.100
365.900	69.976	0.100
366.000	62.672	0.100
366.100	72.439	0.100
366.200	62.160	0.100
366.300	54.708	0.100
366.400	53.919	0.100
366.500	55.780	0.100
366.600	59.812	0.100
366.700	76.014	0.100
366.800	55.354	0.100
366.900	52.405	0.100
367.000	64.642	0.100
367.100	44.035	0.100
367.200	61.423	0.100
367.300	66.305	0.100
367.400	76.552	0.100
367.500	63.655	0.100
367.600	69.273	0.100
367.700	76.125	0.100
367.800	67.545	0.100
367.900	47.996	0.100
368.000	52.561	0.100
368.100	60.631	0.100
368.200	69.553	0.100
368.300	71.013	0.100
368.400	62.593	0.100
368.500	56.851	0.100
368.600	64.471	0.100
368.700	65.982	0.100
368.800	70.781	0.100
368.900	65.072	0.100
369.000	66.724	0.100
369.100	58.797	0.100
369.200	55.308	0.100
369.300	58.881	0.100
369.400	61.543	0.100
369.500	54.812	0.100
369.600	69.403	0.100
369.700	65.596	0.100
369.800	63.178	0.100
369.900	65.114	0.100
370.000	48.964	0.100
370.100	55.810	0.100
370.200	64.427	0.100
370.300	69.542	0.100
370.400	61.867	0.100
370.500	73.210	0.100
370.600	70.216	0.100
370.700	63.467	0.100
370.800	61.409	0.100
370.900	72.200	0.100
371.000	66.693	0.100
371.100	58.703	0.100
371.200	61.400	0.100
371.300	66.786	0.100
371.400	66.751	0.100
371.500	65.662	0.100
371.600	65.067	0.100
371.700	63.097	0.100
371.800	72.370	0.100
371.900	64.196	0.100
372.000	60.795	0.100
372.100	60.913	0.100
372.200	65.220	0.100
372.300	64.578	0.100
372.400	57.248	0.100
372.500	52.758	0.100
372.600	64.079	0.100
372.700	62.367	0.100
372.800	59.455	0.100
372.900	70.466	0.100
373.000	67.963	0.100
373.100	68.397	0.100
373.200	65.727	0.100
373.300	57.306	0.100
373.400	54.462	0.100
373.500	69.131	0.100
373.600	65.459	0.100
373.700	63.392	0.100
373.800	64.722	0.100
373.900	62.239	0.100
374.000	59.590	0.100
374.100	64.832	0.100
374.200	78.812	0.100
374.300	64.225	0.100
374.400	76.389	0.100
374.500	65.562	0.100
374.600	63.755	0.100
374.700	63.057	0.100
374.800	72.292	0.100
374.900	63.922	0.100
375.000	67.447	0.100
375.100	64.072	0.100
375.200	75.883	0.100
375.300	60.134	0.100
375.400	62.786	0.100
375.500	57.464	0.100
375.600	62.840	0.100
375.700	64.734	0.100
375.800	68.411	0.100
375.900	66.014	0.100
376.000	80.686	0.100
376.100	74.741	0.100
376.200	55.203	0.100
376.300	62.238	0.100
376.400	68.581	0.100
376.500	61.466	0.100
376.600	77.490	0.100
376.700	62.184	0.100
376.800	66.812	0.100
376.900	70.669	0.100
377.000	70.206	0.100
377.100	58.972	0.100
377.200	57.608	0.100
377.300	58.895	0.100
377.400	63.849	0.100
377.500	61.650	0.100
377.600	66.388	0.100
377.700	92.225	0.100
377.800	75.654	0.100
377.900	53.997	0.100
378.000	47.809	0.100
378.100	74.063	0.100
378.200	70.520	0.100
378.300	70.715	0.100
378.400	55.852	0.100
378.500	67.004	0.100
378.600	68.023	0.100
378.700	51.406	0.100
378.800	65.152	0.100
378.900	52.777	0.100
379.000	55.309	0.100
379.100	73.951	0.100
379.200	62.440	0.100
379.300	54.233	0.100
379.400	75.406	0.100
379.500	61.673	0.100
379.600	63.079	0.100
379.700	63.106	0.100
379.800	58.891	0.100
379.900	73.119	0.100
380.000	60.466	0.100
380.100	53.945	0.100
380.200	65.888	0.100
380.300	69.037	0.100
380.400	61.407	0.100
380.500	62.894	0.100
380.600	61.100	0.100
380.700	73.084	0.100
380.800	71.317	0.100
380.900	61.517	0.100
381.000	65.959	0.100
381.100	66.207	0.100
381.200	54.664	0.100
381.300	50.734	0.100
381.400	62.331	0.100
381.500	66.955	0.100
381.600	68.469	0.100
381.700	65.598	0.100
381.800	67.547	0.100
381.900	52.717	0.100
382.000	65.964	0.100
382.100	69.847	0.100
382.200	58.893	0.100
382.300	53.171	0.100
382.400	68.622	0.100
382.500	66.511	0.100
382.600	65.790	0.100
382.700	69.675	0.100
382.800	69.416	0.100
382.900	59.000	0.100
383.000	72.657	0.100
383.100	64.375	0.100
383.200	72.809	0.100
383.300	65.319	0.100
383.400	69.523	0.100
383.500	52.849	0.100
383.600	65.019	0.100
383.700	54.316	0.100
383.800	63.711	0.100
383.900	70.785	0.100
384.000	74.485	0.100
384.100	65.455	0.100
384.200	59.660	0.100
384.300	61.241	0.100
384.400	63.645	0.100
384.500	64.740	0.100
384.600	64.140	0.100
384.700	74.922	0.100
384.800	64.732	0.100
384.900	64.601	0.100
385.000	56.839	0.100
385.100	61.983	0.100
385.200	68.210	0.100
385.300	62.066	0.100
385.400	64.851	0.100
385.500	82.951	0.100
385.600	51.981	0.100
385.700	61.562	0.100
385.800	64.978	0.100
385.900	67.297	0.100
386.000	69.009	0.100
386.100	67.627	0.100
386.200	68.707	0.100
386.300	68.234	0.100
386.400	73.095	0.100
386.500	59.658	0.100
386.600	62.729	0.100
386.700	55.255	0.100
386.800	69.964	0.100
386.900	65.584	0.100
387.000	54.624	0.100
387.100	62.050	0.100
387.200	64.871	0.100
387.300	50.053	0.100
387.400	60.029	0.100
387.500	71.467	0.100
387.600	62.310	0.100
387.700	66.235	0.100
387.800	69.556	0.100
387.900	61.097	0.100
388.000	56.517	0.100
388.100	71.885	0.100
388.200	55.673	0.100
388.300	71.153	0.100
388.400	70.562	0.100
388.500	68.904	0.100
388.600	61.988	0.100
388.700	52.609	0.100
388.800	64.474	0.100
388.900	47.384	0.100
389.000	69.056	0.100
389.100	67.813	0.100
389.200	57.284	0.100
389.300	56.909	0.100
389.400	52.912	0.100
389.500	69.696	0.100
389.600	84.268	0.100
389.700	76.603	0.100
389.800	60.207	0.100
389.900	64.260	0.100
390.000	67.747	0.100
390.100	71.513	0.100
390.200	61.105	0.100
390.300	75.271	0.100
390.400	55.052	0.100
390.500	49.599	0.100
390.600	47.585	0.100
390.700	59.714	0.100
390.800	49.508	0.100
390.900	26.046	0.100
391.000	48.697	0.100
391.100	23.790	0.100
391.200	42.074	0.100
391.300	44.676	0.100
391.400	31.246	0.100
391.500	42.746	0.100
391.600	29.307	0.100
391.700	32.839	0.100
391.800	28.948	0.100
391.900	15.753	0.100
392.000	25.809	0.100
392.100	25.671	0.100
392.200	13.800	0.100
392.300	29.993	0.100
392.400	15.216	0.100
392.500	33.505	0.100
392.600	18.187	0.100
392.700	12.963	0.100
392.800	8.152	0.100
392.900	18.136	0.100
393.000	18.173	0.100
393.100	27.896	0.100
393.200	20.537	0.100
393.300	27.262	0.100
393.400	26.029	0.100
393.500	9.420	0.100
393.600	11.447	0.100
393.700	6.708	0.100
393.800	14.928	0.100
393.900	15.903	0.100
394.000	14.959	0.100
394.100	9.135	0.100
394.200	-0.587	0.100
394.300	13.703	0.100
394.400	6.965	0.100
394.500	24.931	0.100
394.600	12.384	0.100
394.700	15.382	0.100
394.800	13.700	0.100
394.900	17.621	0.100
395.000	9.546	0.100
395.100	14.491	0.100
395.200	14.829	0.100
395.300	9.068	0.100
395.400	4.121	0.100
395.500	0.559	0.100
395.600	13.792	0.100
395.700	9.296	0.100
395.800	24.294	0.100
395.900	4.953	0.100
396.000	10.119	0.100
396.100	8.658	0.100
396.200	2.980	0.100
396.300	9.800	0.100
396.400	13.312	0.100
396.500	11.086	0.100
396.600	9.747	0.100
396.700	25.051	0.100
396.800	15.761	0.100
396.900	19.882	0.100
397.000	1.514	0.100
397.100	3.682	0.100
397.200	8.426	0.100
397.300	6.468	0.100
397.400	9.648	0.100
397.500	5.857	0.100
397.600	10.369	0.100
397.700	9.561	0.100
397.800	11.857	0.100
397.900	11.252	0.100
398.000	9.175	0.100
398.100	12.412	0.100
398.200	7.586	0.100
398.300	2.875	0.100
398.400	10.664	0.100
398.500	4.851	0.100
398.600	15.503	0.100
398.700	1.599	0.100
398.800	1.180	0.100
398.900	9.236	0.100
399.000	3.627	0.100
399.100	9.979	0.100
399.200	3.351	0.100
399.300	19.665	0.100
399.400	13.930	0.100
399.500	17.309	0.100
399.600	8.667	0.100
399.700	-8.169	0.100
399.800	0.155	0.100
399.900	5.872	0.100
400.000	6.848	0.100
400.100	6.152	0.100
400.200	10.379	0.100
400.300	11.933	0.100
400.400	-5.316	0.100
400.500	2.454	0.100
400.600	7.705	0.100
400.700	6.993	0.100
400.800	11.109	0.100
400.900	-4.837	0.100
401.000	14.001	0.100
401.100	6.200	0.100
401.200	2.909	0.100
401.300	3.701	0.100
401.400	-3.771	0.100
401.500	0.501	0.100
401.600	3.075	0.100
401.700	4.458	0.100
401.800	5.029	0.100
401.900	8.133	0.100
402.000	-0.208	0.100
402.100	-0.272	0.100
402.200	2.662	0.100
402.300	13.811	0.100
402.400	5.194	0.100
402.500	-5.411	0.100
402.600	2.739	0.100
402.700	-3.177	0.100
402.800	0.391	0.100
402.900	20.286	0.100
403.000	-1.557	0.100
403.100	4.501	0.100
403.200	6.055	0.100
403.300	-3.061	0.100
403.400	-2.287	0.100
403.500	6.355	0.100
403.600	6.652	0.100
403.700	0.319	0.100
403.800	-4.201	0.100
403.900	-5.776	0.100
404.000	0.206	0.100
404.100	-1.183	0.100
404.200	-9.773	0.100
404.300	-6.582	0.100
404.400	-11.230	0.100
404.500	-1.937	0.100
404.600	14.967	0.100
404.700	-2.329	0.100
404.800	13.402	0.100
404.900	-3.961	0.100
405.000	-13.682	0.100
405.100	-4.009	0.100
405.200	2.250	0.100
405.300	12.222	0.100
405.400	5.163	0.100
405.500	2.971	0.100
405.600	-11.569	0.100
405.700	-7.118	0.100
405.800	-8.911	0.100
405.900	2.415	0.100
406.000	-6.734	0.100
406.100	10.516	0.100
406.200	-3.788	0.100
406.300	-7.843	0.100
406.400	-11.537	0.100
406.500	-10.291	0.100
406.600	7.204	0.100
406.700	-6.046	0.100
406.800	2.505	0.100
406.900	-1.691	0.100
407.000	-15.592	0.100
407.100	2.470	0.100
407.200	-2.434	0.100
407.300	6.484	0.100
407.400	-1.870	0.100
407.500	-2.148	0.100
407.600	-12.885	0.100
407.700	-27.182	0.100
407.800	-2.961	0.100
407.900	-4.456	0.100
408.000	-2.672	0.100
408.100	0.653	0.100
408.200	-9.094	0.100
408.300	-12.340	0.100
408.400	9.687	0.100
408.500	-7.071	0.100
408.600	-8.413	0.100
408.700	-10.223	0.100
408.800	1.686	0.100
408.900	4.504	0.100
409.000	-6.888	0.100
409.100	-14.854	0.100
409.200	-10.027	0.100
409.300	-15.064	0.100
409.400	-4.925	0.100
409.500	9.883	0.100
409.600	-2.931	0.100
409.700	-5.721	0.100
409.800	-8.981	0.100
409.900	-5.452	0.100
410.000	11.391	0.100
410.100	-4.419	0.100
410.200	-4.694	0.100
410.300	-14.587	0.100
410.400	-10.077	0.100
410.500	-0.237	0.100
410.600	-1.953	0.100
410.700	-10.437	0.100
410.800	-13.995	0.100
410.900	-17.776	0.100
411.000	-13.015	0.100
411.100	-12.732	0.100
411.200	-10.797	0.100
411.300	-6.876	0.100
411.400	-1.577	0.100
411.500	-10.449	0.100
411.600	-7.511	0.100
411.700	-8.718	0.100
411.800	-14.728	0.100
411.900	-11.373	0.100
412.000	-13.947	0.100
412.100	-0.566	0.100
412.200	-10.976	0.100
412.300	-18.608	0.100
412.400	-0.120	0.100
412.500	-0.415	0.100
412.600	-0.439	0.100
412.700	-19.216	0.100
412.800	-17.629	0.100
412.900	-0.376	0.100
413.000	-15.505	0.100
413.100	-6.992	0.100
413.200	-21.265	0.100
413.300	-7.566	0.100
413.400	-15.719	0.100
413.500	2.831	0.100
413.600	-21.303	0.100
413.700	-2.606	0.100
413.800	-8.010	0.100
413.900	-10.085	0.100
414.000	-11.668	0.100
414.100	-22.858	0.100
414.200	-6.492	0.100
414.300	-20.673	0.100
414.400	-9.024	0.100
414.500	-12.639	0.100
414.600	-11.026	0.100
414.700	-13.375	0.100
414.800	-4.704	0.100
414.900	-17.914	0.100
415.000	-22.855	0.100
415.100	-9.505	0.100
415.200	-15.088	0.100
415.300	-16.296	0.100
415.400	-16.236	0.100
415.500	-9.821	0.100
415.600	-15.457	0.100
415.700	-11.577	0.100
415.800	-8.631	0.100
415.900	-12.490	0.100
416.000	-23.081	0.100
416.100	-14.181	0.100
416.200	2.371	0.100
416.300	-11.452	0.100
416.400	-30.215	0.100
416.500	-9.238	0.100
416.600	-13.812	0.100
416.700	-18.714	0.100
416.800	-15.915	0.100
416.900	-17.611	0.100
417.000	-5.388	0.100
417.100	-7.440	0.100
417.200	-34.721	0.100
417.300	-27.503	0.100
417.400	-12.122	0.100
417.500	-12.005	0.100
417.600	-19.308	0.100
417.700	-16.393	0.100
417.800	-6.153	0.100
417.900	-4.176	0.100
418.000	-21.813	0.100
418.100	-4.725	0.100
418.200	-21.415	0.100
418.300	-17.487	0.100
418.400	-9.368	0.100
418.500	-10.412	0.100
418.600	-13.874	0.100
418.700	-5.151	0.100
418.800	-11.854	0.100
418.900	-20.710	0.100
419.000	-9.208	0.100
419.100	-15.518	0.100
419.200	-27.307	0.100
419.300	-11.204	0.100
419.400	-11.332	0.100
419.500	-14.845	0.100
419.600	-14.772	0.100
419.700	-20.154	0.100
419.800	-22.394	0.100
419.900	-17.049	0.100
420.000	-18.299	0.100
420.100	-21.544	0.100
420.200	-21.635	0.100
420.300	-15.991	0.100
420.400	-14.165	0.100
420.500	-13.962	0.100
420.600	-29.442	0.100
420.700	-21.126	0.100
420.800	-15.942	0.100
420.900	-22.233	0.100
421.000	-13.013	0.100
421.100	-22.052	0.100
421.200	-12.928	0.100
421.300	-18.566	0.100
421.400	-13.702	0.100
421.500	-15.934	0.100
421.600	-18.398	0.100
421.700	-25.015	0.100
421.800	-27.884	0.100
421.900	-13.206	0.100
422.000	-18.825	0.100
422.100	-28.369	0.100
422.200	-23.880	0.100
422.300	-22.564	0.100
422.400	-14.389	0.100
422.500	-18.902	0.100
422.600	-26.977	0.100
422.700	-19.443	0.100
422.800	-24.225	0.100
422.900	-18.288	0.100
423.000	-7.984	0.100
423.100	-22.093	0.100
423.200	-27.789	0.100
423.300	-23.761	0.100
423.400	-18.874	0.100
423.500	-24.417	0.100
423.600	-38.139	0.100
423.700	-8.246	0.100
423.800	-12.451	0.100
423.900	-17.202	0.100
424.000	-22.364	0.100
424.100	-14.973	0.100
424.200	-18.124	0.100
424.300	-30.372	0.100
424.400	-18.002	0.100
424.500	-27.766	0.100
424.600	-23.840	0.100
424.700	-27.812	0.100
424.800	-26.410	0.100
424.900	-30.311	0.100
425.000	-19.817	0.100
425.100	-22.194	0.100
425.200	-31.206	0.100
425.300	-21.260	0.100
425.400	-28.965	0.100
425.500	-26.313	0.100
425.600	-25.219	0.100
425.700	-26.089	0.100
425.800	-21.989	0.100
425.900	-29.195	0.100
426.000	-30.805	0.100
426.100	-22.991	0.100
426.200	-24.044	0.100
426.300	-33.465	0.100
426.400	-14.503	0.100
426.500	-20.916	0.100
426.600	-20.016	0.100
426.700	-38.258	0.100
426.800	-7.463	0.100
426.900	-29.892	0.100
427.000	-21.863	0.100
427.100	-22.449	0.100
427.200	-17.570	0.100
427.300	-24.266	0.100
427.400	-16.439	0.100
427.500	-33.955	0.100
427.600	-17.797	0.100
427.700	-24.585	0.100
427.800	-22.724	0.100
427.900	-26.268	0.100
428.000	-29.049	0.100
428.100	-15.570	0.100
428.200	-20.933	0.100
428.300	-28.365	0.100
428.400	-29.444	0.100
428.500	-24.745	0.100
428.600	-27.753	0.100
428.700	-28.186	0.100
428.800	-28.821	0.100
428.900	-12.142	0.100
429.000	-17.694	0.100
429.100	-34.864	0.100
429.200	-28.185	0.100
429.300	-28.209	0.100
429.400	-12.157	0.100
429.500	-27.037	0.100
429.600	-21.277	0.100
429.700	-23.596	0.100
429.800	-18.568	0.100
429.900	-20.195	0.100
430.000	-29.681	0.100
430.100	-18.900	0.100
430.200	-22.566	0.100
430.300	-23.992	0.100
430.400	-22.342	0.100
430.500	-15.469	0.100
430.600	-24.188	0.100
430.700	-22.621	0.100
430.800	-13.609	0.100
430.900	-30.079	0.100
431.000	-27.003	0.100
431.100	-20.958	0.100
431.200	-13.385	0.100
431.300	-28.966	0.100
431.400	-28.780	0.100
431.500	-18.087	0.100
431.600	-31.238	0.100
431.700	-19.954	0.100
431.800	-22.990	0.100
431.900	-31.443	0.100
432.000	-32.983	0.100
432.100	-28.760	0.100
432.200	-30.176	0.100
432.300	-31.180	0.100
432.400	-22.830	0.100
432.500	-23.996	0.100
432.600	-23.911	0.100
432.700	-29.785	0.100
432.800	-24.607	0.100
432.900	-31.644	0.100
433.000	-38.386	0.100
433.100	-35.772	0.100
433.200	-27.312	0.100
433.300	-20.923	0.100
433.400	-28.621	0.100
433.500	-26.364	0.100
433.600	-15.432	0.100
433.700	-34.018	0.100
433.800	-13.117	0.100
433.900	-20.665	0.100
434.000	-33.740	0.100
434.100	-33.838	0.100
434.200	-32.308	0.100
434.300	-29.909	0.100
434.400	-40.917	0.100
434.500	-23.404	0.100
434.600	-18.706	0.100
434.700	-25.434	0.100
434.800	-20.342	0.100
434.900	-35.675	0.100
435.000	-22.890	0.100
435.100	-26.052	0.100
435.200	-16.144	0.100
435.300	-15.474	0.100
435.400	-29.793	0.100
435.500	-18.911	0.100
435.600	-35.562	0.100
435.700	-33.712	0.100
435.800	-19.312	0.100
435.900	-24.636	0.100
436.000	-27.366	0.100
436.100	-35.726	0.100
436.200	-21.656	0.100
436.300	-21.220	0.100
436.400	-29.791	0.100
436.500	-24.040	0.100
436.600	-24.884	0.100
436.700	-24.175	0.100
436.800	-21.660	0.100
436.900	-36.269	0.100
437.000	-30.774	0.100
437.100	-16.424	0.100
437.200	-26.475	0.100
437.300	-31.439	0.100
437.400	-34.628	0.100
437.500	-37.361	0.100
437.600	-32.954	0.100
437.700	-23.037	0.100
437.800	-38.461	0.100
437.900	-22.577	0.100
438.000	-20.933	0.100
438.100	-15.218	0.100
438.200	-23.474	0.100
438.300	-20.856	0.100
438.400	-25.906	0.100
438.500	-24.943	0.100
438.600	-21.383	0.100
438.700	-24.739	0.100
438.800	-21.588	0.100
438.900	-37.704	0.100
439.000	-41.363	0.100
439.100	-20.482	0.100
439.200	-25.504	0.100
439.300	-32.640	0.100
439.400	-29.578	0.100
439.500	-29.175	0.100
439.600	-29.133	0.100
439.700	-22.235	0.100
439.800	-25.901	0.100
439.900	-29.119	0.100
440.000	-38.079	0.100
440.100	-22.777	0.100
440.200	-19.499	0.100
440.300	-22.494	0.100
440.400	-39.613	0.100
440.500	-19.494	0.100
440.600	-23.089	0.100
440.700	-25.490	0.100
440.800	-23.840	0.100
440.900	-25.732	0.100
441.000	-30.456	0.100
441.100	-31.066	0.100
441.200	-23.166	0.100
441.300	-24.971	0.100
441.400	-32.772	0.100
441.500	-17.792	0.100
441.600	-28.396	0.100
441.700	-28.070	0.100
441.800	-32.008	0.100
441.900	-27.645	0.100
442.000	-35.218	0.100
442.100	-31.077	0.100
442.200	-31.197	0.100
442.300	-13.901	0.100
442.400	-30.552	0.100
442.500	-23.747	0.100
442.600	-28.210	0.100
442.700	-25.074	0.100
442.800	-26.636	0.100
442.900	-33.999	0.100
443.000	-25.056	0.100
443.100	-30.668	0.100
443.200	-24.826	0.100
443.300	-29.070	0.100
443.400	-27.235	0.100
443.500	-30.577	0.100
443.600	-31.928	0.100
443.700	-12.660	0.100
443.800	-26.616	0.100
443.900	-26.513	0.100
444.000	-26.117	0.100
444.100	-20.610	0.100
444.200	-28.955	0.100
444.300	-31.533	0.100
444.400	-24.860	0.100
444.500	-19.944	0.100
444.600	-16.346	0.100
444.700	-30.602	0.100
444.800	-26.580	0.100
444.900	-23.053	0.100
445.000	-14.205	0.100
445.100	-31.236	0.100
445.200	-24.245	0.100
445.300	-11.292	0.100
445.400	-10.482	0.100
445.500	-37.346	0.100
445.600	-30.448	0.100
445.700	-32.536	0.100
445.800	-41.649	0.100
445.900	-45.252	0.100
446.000	-24.551	0.100
446.100	-27.267	0.100
446.200	-23.836	0.100
446.300	-20.712	0.100
446.400	-22.243	0.100
446.500	-37.169	0.100
446.600	-19.929	0.100
446.700	-43.559	0.100
446.800	-32.502	0.100
446.900	-35.735	0.100
447.000	-28.659	0.100
447.100	-25.640	0.100
447.200	-31.078	0.100
447.300	-28.535	0.100
447.400	-26.166	0.100
447.500	-23.603	0.100
447.600	-22.493	0.100
447.700	-31.415	0.100
447.800	-26.247	0.100
447.900	-14.431	0.100
448.000	-12.624	0.100
448.100	-20.970	0.100
448.200	-10.494	0.100
448.300	-16.188	0.100
448.400	-20.941	0.100
448.500	-22.543	0.100
448.600	-34.130	0.100
448.700	-37.902	0.100
448.800	-32.309	0.100
448.900	-24.358	0.100
449.000	-14.700	0.100
449.100	-28.944	0.100
449.200	-33.662	0.100
449.300	-32.572	0.100
449.400	-17.356	0.100
449.500	-21.706	0.100
449.600	-23.818	0.100
449.700	-23.112	0.100
449.800	-32.449	0.100
449.900	-24.742	0.100
450.000	-27.652	0.100
450.100	-23.403	0.100
450.200	-32.524	0.100
450.300	-17.117	0.100
450.400	-29.263	0.100
450.500	-29.163	0.100
450.600	-20.817	0.100
450.700	-33.142	0.100
450.800	-26.448	0.100
450.900	-16.170	0.100
451.000	-18.974	0.100
451.100	-20.475	0.100
451.200	-23.845	0.100
451.300	-36.732	0.100
451.400	-26.199	0.100
451.500	-31.809	0.100
451.600	-33.498	0.100
451.700	-23.471	0.100
451.800	-29.474	0.100
451.900	-25.224	0.100
452.000	-25.717	0.100
452.100	-25.216	0.100
452.200	-27.809	0.100
452.300	-33.130	0.100
452.400	-29.503	0.100
452.500	-19.419	0.100
452.600	-26.009	0.100
452.700	-30.592	0.100
452.800	-28.348	0.100
452.900	-20.548	0.100
453.000	-22.622	0.100
453.100	-31.852	0.100
453.200	-26.709	0.100
453.300	-27.482	0.100
453.400	-36.226	0.100
453.500	-25.603	0.100
453.600	-16.402	0.100
453.700	-23.434	0.100
453.800	-25.318	0.100
453.900	-22.485	0.100
454.000	-16.199	0.100
454.100	-29.833	0.100
454.200	-33.951	0.100
454.300	-23.267	0.100
454.400	-31.224	0.100
454.500	-18.975	0.100
454.600	-23.342	0.100
454.700	-26.359	0.100
454.800	-28.632	0.100
454.900	-18.003	0.100
455.000	-26.486	0.100
455.100	-35.420	0.100
455.200	-32.626	0.100
455.300	-10.136	0.100
455.400	-19.487	0.100
455.500	-31.512	0.100
455.600	-33.198	0.100
455.700	-15.047	0.100
455.800	-26.767	0.100
455.900	-39.272	0.100
456.000	-16.908	0.100
456.100	-31.248	0.100
456.200	-16.688	0.100
456.300	-14.838	0.100
456.400	-29.770	0.100
456.500	-26.404	0.100
456.600	-32.092	0.100
456.700	-22.696	0.100
456.800	-37.669	0.100
456.900	-19.824	0.100
457.000	-27.440	0.100
457.100	-26.582	0.100
457.200	-31.597	0.100
457.300	-35.025	0.100
457.400	-26.191	0.100
457.500	-25.996	0.100
457.600	-20.138	0.100
457.700	-22.860	0.100
457.800	-31.476	0.100
457.900	-33.141	0.100
458.000	-15.814	0.100
458.100	-21.850	0.100
458.200	-17.885	0.100
458.300	-18.056	0.100
458.400	-34.963	0.100
458.500	-18.744	0.100
458.600	-20.537	0.100
458.700	-28.761	0.100
458.800	-33.748	0.100
458.900	-24.448	0.100
459.000	-26.362	0.100
459.100	-30.308	0.100
459.200	-10.215	0.100
459.300	-33.352	0.100
459.400	-35.401	0.100
459.500	-23.016	0.100
459.600	-22.667	0.100
459.700	-12.446	0.100
459.800	-20.345	0.100
459.900	-19.944	0.100
460.000	-11.589	0.100
460.100	-18.698	0.100
460.200	-25.725	0.100
460.300	-31.573	0.100
460.400	-21.679	0.100
460.500	-12.936	0.100
460.600	-40.037	0.100
460.700	-25.712	0.100
460.800	-16.631	0.100
460.900	-33.851	0.100
461.000	-21.979	0.100
461.100	-30.442	0.100
461.200	-26.500	0.100
461.300	-22.247	0.100
461.400	-14.229	0.100
461.500	-26.030	0.100
461.600	-35.705	0.100
461.700	-30.675	0.100
461.800	-22.067	0.100
461.900	-20.227	0.100
462.000	-21.205	0.100
462.100	-23.494	0.100
462.200	-26.516	0.100
462.300	-32.288	0.100
462.400	-23.204	0.100
462.500	-27.931	0.100
462.600	-22.702	0.100
462.700	-18.086	0.100
462.800	-27.704	0.100
462.900	-15.775	0.100
463.000	-11.852	0.100
463.100	-22.366	0.100
463.200	-35.946	0.100
463.300	-31.212	0.100
463.400	-17.848	0.100
463.500	-21.664	0.100
463.600	-25.383	0.100
463.700	-21.228	0.100
463.800	-28.509	0.100
463.900	-23.102	0.100
464.000	-12.834	0.100
464.100	-12.344	0.100
464.200	-15.535	0.100
464.300	-26.039	0.100
464.400	-24.858	0.100
464.500	-23.657	0.100
464.600	-33.741	0.100
464.700	-19.152	0.100
464.800	-9.123	0.100
464.900	-20.787	0.100
465.000	-17.927	0.100
465.100	-18.654	0.100
465.200	-34.225	0.100
465.300	-19.797	0.100
465.400	-11.628	0.100
465.500	-28.484	0.100
465.600	-39.040	0.100
465.700	-24.851	0.100
465.800	-23.570	0.100
465.900	-11.012	0.100
466.000	-22.510	0.100
466.100	-25.308	0.100
466.200	-16.449	0.100
466.300	-25.545	0.100
466.400	-22.718	0.100
466.500	-22.019	0.100
466.600	-33.119	0.100
466.700	-13.858	0.100
466.800	-15.354	0.100
466.900	-19.278	0.100
467.000	-18.328	0.100
467.100	-36.648	0.100
467.200	-21.555	0.100
467.300	-30.759	0.100
467.400	-22.250	0.100
467.500	-26.975	0.100
467.600	-18.617	0.100
467.700	-25.045	0.100
467.800	-23.195	0.100
467.900	-19.470	0.100
468.000	-23.307	0.100
468.100	-28.087	0.100
468.200	-27.754	0.100
468.300	-25.349	0.100
468.400	-26.019	0.100
468.500	-31.925	0.100
468.600	-13.362	0.100
468.700	-31.024	0.100
468.800	-39.678	0.100
468.900	-29.821	0.100
469.000	-0.506	0.100
469.100	-18.827	0.100
469.200	-18.884	0.100
469.300	-11.476	0.100
469.400	-18.127	0.100
469.500	-25.956	0.100
469.600	-17.658	0.100
469.700	-23.481	0.100
469.800	-32.019	0.100
469.900	-26.927	0.100
470.000	-26.996	0.100
470.100	-16.294	0.100
470.200	-20.102	0.100
470.300	-26.964	0.100
470.400	-16.137	0.100
470.500	-19.328	0.100
470.600	-18.768	0.100
470.700	-15.966	0.100
470.800	-28.605	0.100
470.900	-31.839	0.100
471.000	-16.608	0.100
471.100	-24.262	0.100
471.200	-25.917	0.100
471.300	-24.371	0.100
471.400	-24.865	0.100
471.500	-24.774	0.100
471.600	-17.485	0.100
471.700	-12.727	0.100
471.800	-24.441	0.100
471.900	-27.822	0.100
472.000	-33.579	0.100
472.100	-33.593	0.100
472.200	-11.848	0.100
472.300	-20.900	0.100
472.400	-11.031	0.100
472.500	-27.619	0.100
472.600	-26.153	0.100
472.700	-24.038	0.100
472.800	-31.473	0.100
472.900	-22.299	0.100
473.000	-17.945	0.100
473.100	-33.145	0.100
473.200	-25.433	0.100
473.300	-20.979	0.100
473.400	-14.818	0.100
473.500	-21.938	0.100
473.600	-25.813	0.100
473.700	-23.098	0.100
473.800	-15.497	0.100
473.900	-23.633	0.100
474.000	-28.324	0.100
474.100	-19.255	0.100
474.200	-20.538	0.100
474.300	-31.939	0.100
474.400	-22.746	0.100
474.500	-23.716	0.100
474.600	-24.781	0.100
474.700	-14.801	0.100
474.800	-15.232	0.100
474.900	-19.168	0.100
475.000	-21.232	0.100
475.100	-30.124	0.100
475.200	-30.009	0.100
475.300	-22.508	0.100
475.400	-21.945	0.100
475.500	-17.811	0.100
475.600	-21.843	0.100
475.700	-16.529	0.100
475.800	-24.847	0.100
475.900	-25.745	0.100
476.000	-30.800	0.100
476.100	-28.360	0.100
476.200	-33.442	0.100
476.300	-25.294	0.100
476.400	-16.304	0.100
476.500	-11.151	0.100
476.600	-19.980	0.100
476.700	-24.405	0.100
476.800	-14.537	0.100
476.900	-27.517	0.100
477.000	-30.267	0.100
477.100	-27.629	0.100
477.200	-12.427	0.100
477.300	-3.547	0.100
477.400	-33.220	0.100
477.500	-23.085	0.100
477.600	-19.603	0.100
477.700	-24.656	0.100
477.800	-14.827	0.100
477.900	-20.163	0.100
478.000	-24.532	0.100
478.100	-24.545	0.100
478.200	-23.110	0.100
478.300	-14.166	0.100
478.400	-25.155	0.100
478.500	-23.288	0.100
478.600	-22.560	0.100
478.700	-16.996	0.100
478.800	-15.837	0.100
478.900	-21.920	0.100
479.000	-34.177	0.100
479.100	-9.727	0.100
479.200	-25.750	0.100
479.300	-27.406	0.100
479.400	-29.571	0.100
479.500	-28.861	0.100
479.600	-23.715	0.100
479.700	-9.726	0.100
479.800	-19.418	0.100
479.900	-22.752	0.100
480.000	-35.103	0.100
480.100	-25.948	0.100
480.200	-20.388	0.100
480.300	-16.777	0.100
480.400	-14.954	0.100
480.500	-13.313	0.100
480.600	-15.273	0.100
480.700	-0.417	0.100
480.800	-1.685	0.100
480.900	-10.768	0.100
481.000	13.690	0.100
481.100	24.816	0.100
481.200	9.485	0.100
481.300	11.455	0.100
481.400	7.841	0.100
481.500	15.506	0.100
481.600	6.859	0.100
481.700	28.132	0.100
481.800	25.221	0.100
481.900	25.559	0.100
482.000	10.395	0.100
482.100	22.059	0.100
482.200	30.441	0.100
482.300	36.504	0.100
482.400	22.534	0.100
482.500	31.677	0.100
482.600	33.899	0.100
482.700	28.739	0.100
482.800	34.618	0.100
482.900	31.174	0.100
483.000	35.804	0.100
483.100	29.052	0.100
483.200	38.167	0.100
483.300	38.823	0.100
483.400	34.016	0.100
483.500	35.483	0.100
483.600	34.056	0.100
483.700	26.990	0.100
483.800	25.333	0.100
483.900	36.409	0.100
484.000	31.969	0.100
484.100	24.202	0.100
484.200	27.544	0.100
484.300	40.866	0.100
484.400	36.075	0.100
484.500	40.649	0.100
484.600	50.571	0.100
484.700	39.336	0.100
484.800	28.201	0.100
484.900	31.768	0.100
485.000	26.486	0.100
485.100	34.152	0.100
485.200	28.271	0.100
485.300	25.910	0.100
485.400	41.203	0.100
485.500	43.496	0.100
485.600	26.927	0.100
485.700	25.758	0.100
485.800	19.841	0.100
485.900	33.077	0.100
486.000	19.250	0.100
486.100	37.439	0.100
486.200	36.901	0.100
486.300	28.067	0.100
486.400	34.125	0.100
486.500	31.379	0.100
486.600	30.904	0.100
486.700	35.198	0.100
486.800	30.649	0.100
486.900	25.196	0.100
487.000	28.979	0.100
487.100	26.858	0.100
487.200	39.359	0.100
487.300	24.742	0.100
487.400	31.458	0.100
487.500	38.399	0.100
487.600	28.148	0.100
487.700	35.873	0.100
487.800	32.771	0.100
487.900	21.446	0.100
488.000	32.342	0.100
488.100	34.511	0.100
488.200	23.351	0.100
488.300	25.631	0.100
488.400	36.418	0.100
488.500	28.382	0.100
488.600	23.974	0.100
488.700	24.773	0.100
488.800	26.242	0.100
488.900	29.178	0.100
489.000	34.085	0.100
489.100	40.018	0.100
489.200	32.525	0.100
489.300	21.049	0.100
489.400	26.127	0.100
489.500	38.488	0.100
489.600	38.008	0.100
489.700	17.270	0.100
489.800	22.916	0.100
489.900	39.520	0.100
490.000	30.948	0.100
490.100	34.593	0.100
490.200	27.049	0.100
490.300	28.741	0.100
490.400	39.426	0.100
490.500	42.308	0.100
490.600	34.936	0.100
490.700	34.063	0.100
490.800	35.813	0.100
490.900	30.822	0.100
491.000	31.003	0.100
491.100	39.829	0.100
491.200	34.519	0.100
491.300	37.906	0.100
491.400	42.338	0.100
491.500	32.113	0.100
491.600	22.138	0.100
491.700	50.502	0.100
491.800	30.486	0.100
491.900	38.701	0.100
492.000	43.438	0.100
492.100	36.108	0.100
492.200	42.080	0.100
492.300	26.805	0.100
492.400	35.439	0.100
492.500	25.771	0.100
492.600	29.416	0.100
492.700	32.120	0.100
492.800	39.491	0.100
492.900	36.615	0.100
493.000	39.827	0.100
493.100	41.032	0.100
493.200	42.011	0.100
493.300	39.890	0.100
493.400	26.477	0.100
493.500	40.102	0.100
493.600	18.917	0.100
493.700	35.675	0.100
493.800	40.429	0.100
493.900	31.316	0.100
494.000	32.458	0.100
494.100	36.847	0.100
494.200	37.184	0.100
494.300	33.746	0.100
494.400	41.976	0.100
494.500	37.453	0.100
494.600	41.407	0.100
494.700	23.872	0.100
494.800	35.330	0.100
494.900	33.260	0.100
495.000	38.498	0.100
495.100	49.844	0.100
495.200	35.928	0.100
495.300	32.554	0.100
495.400	27.392	0.100
495.500	34.407	0.100
495.600	36.364	0.100
495.700	31.103	0.100
495.800	44.105	0.100
495.900	45.309	0.100
496.000	30.959	0.100
496.100	39.325	0.100
496.200	35.561	0.100
496.300	29.955	0.100
496.400	43.484	0.100
496.500	36.468	0.100
496.600	49.091	0.100
496.700	40.394	0.100
496.800	22.050	0.100
496.900	38.838	0.100
497.000	38.101	0.100
497.100	40.422	0.100
497.200	48.698	0.100
497.300	39.863	0.100
497.400	27.723	0.100
497.500	33.031	0.100
497.600	34.510	0.100
497.700	46.783	0.100
497.800	51.388	0.100
497.900	35.708	0.100
498.000	43.958	0.100
498.100	39.604	0.100
498.200	33.406	0.100
498.300	42.451	0.100
498.400	44.517	0.100
498.500	29.759	0.100
498.600	33.558	0.100
498.700	48.161	0.100
498.800	42.351	0.100
498.900	27.862	0.100
499.000	27.997	0.100
499.100	43.311	0.100
499.200	37.812	0.100
499.300	39.595	0.100
499.400	41.975	0.100
499.500	27.273	0.100
499.600	29.703	0.100
499.700	35.775	0.100
499.800	36.261	0.100
499.900	55.346	0.100
500.000	38.913	0.100
500.100	41.910	0.100
500.200	48.002	0.100
500.300	48.221	0.100
500.400	33.600	0.100
500.500	24.696	0.100
500.600	44.909	0.100
500.700	46.603	0.100
500.800	51.011	0.100
500.900	48.194	0.100
501.000	35.444	0.100
501.100	35.267	0.100
501.200	28.875	0.100
501.300	41.175	0.100
501.400	43.746	0.100
501.500	51.312	0.100
501.600	50.624	0.100
501.700	41.871	0.100
501.800	39.063	0.100
501.900	47.591	0.100
502.000	49.133	0.100
502.100	38.991	0.100
502.200	35.406	0.100
502.300	46.742	0.100
502.400	46.230	0.100
502.500	41.321	0.100
502.600	38.701	0.100
502.700	47.044	0.100
502.800	46.513	0.100
502.900	43.567	0.100
503.000	46.347	0.100
503.100	45.242	0.100
503.200	43.991	0.100
503.300	38.433	0.100
503.400	41.470	0.100
503.500	45.506	0.100
503.600	46.334	0.100
503.700	45.844	0.100
503.800	44.671	0.100
503.900	49.097	0.100
504.000	40.187	0.100
504.100	47.504	0.100
504.200	45.556	0.100
504.300	49.950	0.100
504.400	55.708	0.100
504.500	56.966	0.100
504.600	33.835	0.100
504.700	29.420	0.100
504.800	53.370	0.100
504.900	30.843	0.100
505.000	51.461	0.100
505.100	43.630	0.100
505.200	56.104	0.100
505.300	57.542	0.100
505.400	48.094	0.100
505.500	56.601	0.100
505.600	48.572	0.100
505.700	43.291	0.100
505.800	47.473	0.100
505.900	50.557	0.100
506.000	41.011	0.100
506.100	44.538	0.100
506.200	56.380	0.100
506.300	34.105	0.100
506.400	54.130	0.100
506.500	58.829	0.100
506.600	49.177	0.100
506.700	53.882	0.100
506.800	58.337	0.100
506.900	60.511	0.100
507.000	54.609	0.100
507.100	56.317	0.100
507.200	67.275	0.100
507.300	60.266	0.100
507.400	49.992	0.100
507.500	51.878	0.100
507.600	45.922	0.100
507.700	35.753	0.100
507.800	60.298	0.100
507.900	54.257	0.100
508.000	55.318	0.100
508.100	65.325	0.100
508.200	56.350	0.100
508.300	48.096	0.100
508.400	53.027	0.100
508.500	55.735	0.100
508.600	56.486	0.100
508.700	55.822	0.100
508.800	58.778	0.100
508.900	60.265	0.100
509.000	44.378	0.100
509.100	57.469	0.100
509.200	48.353	0.100
509.300	58.310	0.100
509.400	63.093	0.100
509.500	58.935	0.100
509.600	55.743	0.100
509.700	50.996	0.100
509.800	54.366	0.100
509.900	60.639	0.100
510.000	58.363	0.100
510.100	50.627	0.100
510.200	59.905	0.100
510.300	49.924	0.100
510.400	58.203	0.100
510.500	50.416	0.100
510.600	57.804	0.100
510.700	62.233	0.100
510.800	61.637	0.100
510.900	70.964	0.100
511.000	58.607	0.100
511.100	64.419	0.100
511.200	65.006	0.100
511.300	51.948	0.100
511.400	56.648	0.100
511.500	53.242	0.100
511.600	53.217	0.100
511.700	54.477	0.100
511.800	59.086	0.100
511.900	53.545	0.100
512.000	47.366	0.100
512.100	59.514	0.100
512.200	59.160	0.100
512.300	62.421	0.100
512.400	70.700	0.100
512.500	69.536	0.100
512.600	59.208	0.100
512.700	61.230	0.100
512.800	49.713	0.100
512.900	73.793	0.100
513.000	63.486	0.100
513.100	72.649	0.100
513.200	78.877	0.100
513.300	68.016	0.100
513.400	50.128	0.100
513.500	59.086	0.100
513.600	64.871	0.100
513.700	54.661	0.100
513.800	53.662	0.100
513.900	44.423	0.100
514.000	56.751	0.100
514.100	75.421	0.100
514.200	63.606	0.100
514.300	62.605	0.100
514.400	64.298	0.100
514.500	63.326	0.100
514.600	51.525	0.100
514.700	65.037	0.100
514.800	49.943	0.100
514.900	59.176	0.100
515.000	65.001	0.100
515.100	77.284	0.100
515.200	58.665	0.100
515.300	70.615	0.100
515.400	65.481	0.100
515.500	64.118	0.100
515.600	66.016	0.100
515.700	72.031	0.100
515.800	61.374	0.100
515.900	60.824	0.100
516.000	56.715	0.100
516.100	66.993	0.100
516.200	62.548	0.100
516.300	64.529	0.100
516.400	58.809	0.100
516.500	63.585	0.100
516.600	58.146	0.100
516.700	61.718	0.100
516.800	67.526	0.100
516.900	71.375	0.100
517.000	64.317	0.100
517.100	64.353	0.100
517.200	62.396	0.100
517.300	55.895	0.100
517.400	52.209	0.100
517.500	70.424	0.100
517.600	72.433	0.100
517.700	68.023	0.100
517.800	46.617	0.100
517.900	65.857	0.100
518.000	62.630	0.100
518.100	65.382	0.100
518.200	77.077	0.100
518.300	57.554	0.100
518.400	60.081	0.100
518.500	65.784	0.100
518.600	67.432	0.100
518.700	63.561	0.100
518.800	70.149	0.100
518.900	60.728	0.100
519.000	64.253	0.100
519.100	76.456	0.100
519.200	68.460	0.100
519.300	59.865	0.100
519.400	72.307	0.100
519.500	61.128	0.100
519.600	65.339	0.100
519.700	61.941	0.100
519.800	74.339	0.100
519.900	68.601	0.100
520.000	54.084	0.100
520.100	59.797	0.100
520.200	51.396	0.100
520.300	68.572	0.100
520.400	68.010	0.100
520.500	72.661	0.100
520.600	57.850	0.100
520.700	67.439	0.100
520.800	67.071	0.100
520.900	60.567	0.100
521.000	59.525	0.100
521.100	68.595	0.100
521.200	73.751	0.100
521.300	64.571	0.100
521.400	55.733	0.100
521.500	60.397	0.100
521.600	71.127	0.100
521.700	67.535	0.100
521.800	67.738	0.100
521.900	62.450	0.100
522.000	66.035	0.100
522.100	68.489	0.100
522.200	70.243	0.100
522.300	63.466	0.100
522.400	56.870	0.100
522.500	67.881	0.100
522.600	62.579	0.100
522.700	76.614	0.100
522.800	63.641	0.100
522.900	66.462	0.100
523.000	62.837	0.100
523.100	71.898	0.100
523.200	69.114	0.100
523.300	65.703	0.100
523.400	60.733	0.100
523.500	66.387	0.100
523.600	68.876	0.100
523.700	70.343	0.100
523.800	48.548	0.100
523.900	71.402	0.100
524.000	67.988	0.100
524.100	61.789	0.100
524.200	78.648	0.100
524.300	79.108	0.100
524.400	67.180	0.100
524.500	53.233	0.100
524.600	58.343	0.100
524.700	61.575	0.100
524.800	66.684	0.100
524.900	65.940	0.100
525.000	52.445	0.100
525.100	60.955	0.100
525.200	58.738	0.100
525.300	82.005	0.100
525.400	68.281	0.100
525.500	78.611	0.100
525.600	77.862	0.100
525.700	62.181	0.100
525.800	65.163	0.100
525.900	58.628	0.100
526.000	60.830	0.100
526.100	65.535	0.100
526.200	74.864	0.100
526.300	58.758	0.100
526.400	58.828	0.100
526.500	67.698	0.100
526.600	67.793	0.100
526.700	62.739	0.100
526.800	73.942	0.100
526.900	65.852	0.100
527.000	61.412	0.100
527.100	79.993	0.100
527.200	70.724	0.100
527.300	63.010	0.100
527.400	54.065	0.100
527.500	67.860	0.100
527.600	71.062	0.100
527.700	73.186	0.100
527.800	64.586	0.100
527.900	61.270	0.100
528.000	60.844	0.100
528.100	64.497	0.100
528.200	63.167	0.100
528.300	64.826	0.100
528.400	65.228	0.100
528.500	68.042	0.100
528.600	74.454	0.100
528.700	77.537	0.100
528.800	75.237	0.100
528.900	70.222	0.100
529.000	66.372	0.100
529.100	70.540	0.100
529.200	57.489	0.100
529.300	73.895	0.100
529.400	64.484	0.100
529.500	61.338	0.100
529.600	62.792	0.100
529.700	66.607	0.100
529.800	63.282	0.100
529.900	69.753	0.100
530.000	67.392	0.100
530.100	62.750	0.100
530.200	66.119	0.100
530.300	75.308	0.100
530.400	74.457	0.100
530.500	56.995	0.100
530.600	60.604	0.100
530.700	61.756	0.100
530.800	67.328	0.100
530.900	75.432	0.100
531.000	76.752	0.100
531.100	67.582	0.100
531.200	68.944	0.100
531.300	60.899	0.100
531.400	61.654	0.100
531.500	72.095	0.100
531.600	56.987	0.100
531.700	71.834	0.100
531.800	67.651	0.100
531.900	56.194	0.100
532.000	64.947	0.100
532.100	73.551	0.100
532.200	63.649	0.100
532.300	67.367	0.100
532.400	65.206	0.100
532.500	68.925	0.100
532.600	62.580	0.100
532.700	68.504	0.100
532.800	69.356	0.100
532.900	62.572	0.100
533.000	58.260	0.100
533.100	81.076	0.100
533.200	66.010	0.100
533.300	58.471	0.100
533.400	56.142	0.100
533.500	66.195	0.100
533.600	76.074	0.100
533.700	45.240	0.100
533.800	70.555	0.100
533.900	71.497	0.100
534.000	79.319	0.100
534.100	59.824	0.100
534.200	52.552	0.100
534.300	74.797	0.100
534.400	72.145	0.100
534.500	62.068	0.100
534.600	59.607	0.100
534.700	70.190	0.100
534.800	54.468	0.100
534.900	59.616	0.100
535.000	70.605	0.100
535.100	71.037	0.100
535.200	63.574	0.100
535.300	69.215	0.100
535.400	76.168	0.100
535.500	67.214	0.100
535.600	68.207	0.100
535.700	44.225	0.100
535.800	66.040	0.100
535.900	66.404	0.100
536.000	49.146	0.100
536.100	69.682	0.100
536.200	68.568	0.100
536.300	72.267	0.100
536.400	63.305	0.100
536.500	73.097	0.100
536.600	63.138	0.100
536.700	66.538	0.100
536.800	72.306	0.100
536.900	69.800	0.100
537.000	60.836	0.100
537.100	59.285	0.100
537.200	60.833	0.100
537.300	63.486	0.100
537.400	66.616	0.100
537.500	58.347	0.100
537.600	74.085	0.100
537.700	66.763	0.100
537.800	58.375	0.100
537.900	75.855	0.100
538.000	67.679	0.100
538.100	64.973	0.100
538.200	76.727	0.100
538.300	68.686	0.100
538.400	53.992	0.100
538.500	67.740	0.100
538.600	64.262	0.100
538.700	64.402	0.100
538.800	72.518	0.100
538.900	57.217	0.100
539.000	51.714	0.100
539.100	74.495	0.100
539.200	69.966	0.100
539.300	61.586	0.100
539.400	64.416	0.100
539.500	69.813	0.100
539.600	65.084	0.100
539.700	64.953	0.100
539.800	54.646	0.100
539.900	63.585	0.100
540.000	51.999	0.100
540.100	64.623	0.100
540.200	64.007	0.100
540.300	75.837	0.100
540.400	52.372	0.100
540.500	53.289	0.100
540.600	47.348	0.100
540.700	46.433	0.100
540.800	39.904	0.100
540.900	35.485	0.100
541.000	36.506	0.100
541.100	35.996	0.100
541.200	34.986	0.100
541.300	38.835	0.100
541.400	24.887	0.100
541.500	33.960	0.100
541.600	33.579	0.100
541.700	22.491	0.100
541.800	34.810	0.100
541.900	8.535	0.100
542.000	8.178	0.100
542.100	17.177	0.100
542.200	21.681	0.100
542.300	25.575	0.100
542.400	23.511	0.100
542.500	7.006	0.100
542.600	20.040	0.100
542.700	19.688	0.100
542.800	11.661	0.100
542.900	22.839	0.100
543.000	5.490	0.100
543.100	6.265	0.100
543.200	12.247	0.100
543.300	18.370	0.100
543.400	12.956	0.100
543.500	14.837	0.100
543.600	7.547	0.100
543.700	13.937	0.100
543.800	-2.802	0.100
543.900	9.469	0.100
544.000	21.266	0.100
544.100	17.834	0.100
544.200	5.719	0.100
544.300	12.006	0.100
544.400	-4.268	0.100
544.500	6.862	0.100
544.600	1.873	0.100
544.700	11.722	0.100
544.800	15.659	0.100
544.900	0.615	0.100
545.000	3.249	0.100
545.100	10.980	0.100
545.200	6.507	0.100
545.300	-2.102	0.100
545.400	8.108	0.100
545.500	17.514	0.100
545.600	6.342	0.100
545.700	10.955	0.100
545.800	-2.793	0.100
545.900	-0.039	0.100
546.000	9.896	0.100
546.100	3.088	0.100
546.200	12.771	0.100
546.300	11.081	0.100
546.400	10.049	0.100
546.500	4.011	0.100
546.600	13.147	0.100
546.700	9.227	0.100
546.800	5.123	0.100
546.900	5.219	0.100
547.000	-7.843	0.100
547.100	12.478	0.100
547.200	0.325	0.100
547.300	-12.650	0.100
547.400	7.445	0.100
547.500	10.621	0.100
547.600	15.991	0.100
547.700	6.957	0.100
547.800	4.182	0.100
547.900	3.535	0.100
548.000	7.000	0.100
548.100	4.427	0.100
548.200	1.787	0.100
548.300	0.993	0.100
548.400	10.858	0.100
548.500	13.010	0.100
548.600	0.864	0.100
548.700	-2.143	0.100
548.800	-6.953	0.100
548.900	-3.515	0.100
549.000	13.444	0.100
549.100	2.377	0.100
549.200	13.969	0.100
549.300	2.253	0.100
549.400	5.454	0.100
549.500	6.976	0.100
549.600	13.050	0.100
549.700	19.348	0.100
549.800	6.258	0.100
549.900	-1.176	0.100
550.000	11.264	0.100
550.100	9.642	0.100
550.200	-13.162	0.100
550.300	4.243	0.100
550.400	8.706	0.100
550.500	7.011	0.100
550.600	2.827	0.100
550.700	-0.371	0.100
550.800	-4.202	0.100
550.900	-8.623	0.100
551.000	-13.486	0.100
551.100	5.382	0.100
551.200	5.339	0.100
551.300	-0.580	0.100
551.400	1.573	0.100
551.500	-0.819	0.100
551.600	-1.208	0.100
551.700	10.352	0.100
551.800	-2.690	0.100
551.900	-1.871	0.100
552.000	0.896	0.100
552.100	5.004	0.100
552.200	3.791	0.100
552.300	-7.134	0.100
552.400	-5.257	0.100
552.500	-5.077	0.100
552.600	-3.718	0.100
552.700	-10.121	0.100
552.800	-4.143	0.100
552.900	10.537	0.100
553.000	1.935	0.100
553.100	1.487	0.100
553.200	1.892	0.100
553.300	-2.310	0.100
553.400	-5.950	0.100
553.500	10.117	0.100
553.600	1.359	0.100
553.700	-8.106	0.100
553.800	-9.553	0.100
553.900	-20.469	0.100
554.000	-5.270	0.100
554.100	0.926	0.100
554.200	-9.318	0.100
554.300	-3.277	0.100
554.400	-10.341	0.100
554.500	-15.056	0.100
554.600	6.230	0.100
554.700	8.853	0.100
554.800	-6.493	0.100
554.900	-13.818	0.100
555.000	0.099	0.100
555.100	-4.027	0.100
555.200	-6.976	0.100
555.300	-2.073	0.100
555.400	-20.207	0.100
555.500	3.283	0.100
555.600	1.972	0.100
555.700	-9.880	0.100
555.800	-5.211	0.100
555.900	-16.813	0.100
556.000	-7.583	0.100
556.100	11.461	0.100
556.200	-2.242	0.100
556.300	-2.212	0.100
556.400	-9.273	0.100
556.500	-13.485	0.100
556.600	-9.550	0.100
556.700	-17.177	0.100
556.800	-0.864	0.100
556.900	-1.475	0.100
557.000	-12.063	0.100
557.100	-16.955	0.100
557.200	0.972	0.100
557.300	-8.157	0.100
557.400	-0.212	0.100
557.500	-18.502	0.100
557.600	-14.102	0.100
557.700	-8.754	0.100
557.800	-8.475	0.100
557.900	-6.865	0.100
558.000	-6.170	0.100
558.100	-7.539	0.100
558.200	3.312	0.100
558.300	-14.780	0.100
558.400	-9.384	0.100
558.500	-7.593	0.100
558.600	0.002	0.100
558.700	-8.262	0.100
558.800	-7.285	0.100
558.900	-15.757	0.100
559.000	-0.135	0.100
559.100	-9.510	0.100
559.200	-0.672	0.100
559.300	-11.645	0.100
559.400	-17.287	0.100
559.500	-16.342	0.100
559.600	-19.167	0.100
559.700	-9.400	0.100
559.800	-8.819	0.100
559.900	-14.326	0.100
560.000	-15.114	0.100
560.100	-7.899	0.100
560.200	-3.316	0.100
560.300	-17.525	0.100
560.400	-18.359	0.100
560.500	-17.590	0.100
560.600	-8.523	0.100
560.700	-17.074	0.100
560.800	-8.173	0.100
560.900	-10.650	0.100
561.000	-3.105	0.100
561.100	-6.585	0.100
561.200	-12.387	0.100
561.300	-7.943	0.100
561.400	-6.272	0.100
561.500	-11.582	0.100
561.600	-23.067	0.100
561.700	-15.203	0.100
561.800	-18.092	0.100
561.900	-18.333	0.100
562.000	-17.740	0.100
562.100	-20.655	0.100
562.200	-3.798	0.100
562.300	1.281	0.100
562.400	-17.240	0.100
562.500	-31.088	0.100
562.600	-11.091	0.100
562.700	-12.286	0.100
562.800	-14.022	0.100
562.900	-11.523	0.100
563.000	0.777	0.100
563.100	-17.133	0.100
563.200	-15.835	0.100
563.300	-1.694	0.100
563.400	-7.926	0.100
563.500	-24.542	0.100
563.600	-19.701	0.100
563.700	-21.909	0.100
563.800	-14.177	0.100
563.900	-23.025	0.100
564.000	-19.308	0.100
564.100	-6.732	0.100
564.200	-22.324	0.100
564.300	-18.457	0.100
564.400	-15.250	0.100
564.500	-5.302	0.100
564.600	-14.980	0.100
564.700	-5.099	0.100
564.800	-29.786	0.100
564.900	-23.165	0.100
565.000	-6.882	0.100
565.100	-12.003	0.100
565.200	-14.647	0.100
565.300	-23.207	0.100
565.400	-16.120	0.100
565.500	-8.905	0.100
565.600	-18.761	0.100
565.700	-16.627	0.100
565.800	-13.817	0.100
565.900	-8.114	0.100
566.000	-25.108	0.100
566.100	-29.143	0.100
566.200	-26.647	0.100
566.300	-19.494	0.100
566.400	-25.696	0.100
566.500	-4.783	0.100
566.600	-14.406	0.100
566.700	-9.123	0.100
566.800	-21.324	0.100
566.900	-14.341	0.100
567.000	-19.551	0.100
567.100	-21.106	0.100
567.200	-25.101	0.100
567.300	-10.189	0.100
567.400	-7.679	0.100
567.500	-14.644	0.100
567.600	-23.047	0.100
567.700	-29.354	0.100
567.800	-26.229	0.100
567.900	-16.261	0.100
568.000	-8.181	0.100
568.100	-16.869	0.100
568.200	-20.416	0.100
568.300	-17.476	0.100
568.400	-18.705	0.100
568.500	-13.518	0.100
568.600	-30.676	0.100
568.700	-20.104	0.100
568.800	-20.340	0.100
568.900	-11.157	0.100
569.000	-23.940	0.100
569.100	-8.444	0.100
569.200	-23.808	0.100
569.300	-30.991	0.100
569.400	-14.829	0.100
569.500	-33.135	0.100
569.600	-30.134	0.100
569.700	-30.836	0.100
569.800	-18.234	0.100
569.900	-26.783	0.100
570.000	-25.828	0.100
570.100	-17.226	0.100
570.200	-26.030	0.100
570.300	-14.931	0.100
570.400	-11.527	0.100
570.500	-23.034	0.100
570.600	-26.408	0.100
570.700	-27.335	0.100
570.800	-29.255	0.100
570.900	-23.932	0.100
571.000	-17.118	0.100
571.100	-19.248	0.100
571.200	-17.331	0.100
571.300	-26.437	0.100
571.400	-15.006	0.100
571.500	-24.154	0.100
571.600	-35.113	0.100
571.700	-16.707	0.100
571.800	-29.028	0.100
571.900	-26.635	0.100
572.000	-20.113	0.100
572.100	-26.384	0.100
572.200	-23.630	0.100
572.300	-25.013	0.100
572.400	-16.571	0.100
572.500	-24.878	0.100
572.600	-25.799	0.100
572.700	-24.001	0.100
572.800	-19.096	0.100
572.900	-15.930	0.100
573.000	-17.577	0.100
573.100	-20.546	0.100
573.200	-20.352	0.100
573.300	-29.924	0.100
573.400	-28.021	0.100
573.500	-26.061	0.100
573.600	-18.318	0.100
573.700	-31.445	0.100
573.800	-21.986	0.100
573.900	-26.506	0.100
574.000	-26.121	0.100
574.100	-17.770	0.100
574.200	-26.017	0.100
574.300	-25.810	0.100
574.400	-21.980	0.100
574.500	-20.420	0.100
574.600	-17.553	0.100
574.700	-30.218	0.100
574.800	-23.941	0.100
574.900	-27.997	0.100
575.000	-27.922	0.100
575.100	-20.617	0.100
575.200	-33.462	0.100
575.300	-19.321	0.100
575.400	-38.492	0.100
575.500	-34.641	0.100
575.600	-23.497	0.100
575.700	-18.144	0.100
575.800	-25.280	0.100
575.900	-34.924	0.100
576.000	-31.529	0.100
576.100	-31.597	0.100
576.200	-23.890	0.100
576.300	-27.103	0.100
576.400	-27.107	0.100
576.500	-15.524	0.100
576.600	-11.485	0.100
576.700	-25.525	0.100
576.800	-20.976	0.100
576.900	-33.925	0.100
577.000	-33.082	0.100
577.100	-34.893	0.100
577.200	-35.383	0.100
577.300	-18.733	0.100
577.400	-35.961	0.100
577.500	-30.080	0.100
577.600	-26.633	0.100
577.700	-31.925	0.100
577.800	-36.284	0.100
577.900	-22.531	0.100
578.000	-21.794	0.100
578.100	-22.363	0.100
578.200	-21.462	0.100
578.300	-25.123	0.100
578.400	-27.076	0.100
578.500	-22.010	0.100
578.600	-28.815	0.100
578.700	-26.400	0.100
578.800	-28.771	0.100
578.900	-34.834	0.100
579.000	-32.405	0.100
579.100	-29.286	0.100
579.200	-24.022	0.100
579.300	-28.459	0.100
579.400	-26.116	0.100
579.500	-28.197	0.100
579.600	-26.519	0.100
579.700	-26.017	0.100
579.800	-22.529	0.100
579.900	-22.218	0.100
580.000	-29.420	0.100
580.100	-39.220	0.100
580.200	-30.853	0.100
580.300	-22.581	0.100
580.400	-24.609	0.100
580.500	-35.021	0.100
580.600	-29.360	0.100
580.700	-32.293	0.100
580.800	-19.535	0.100
580.900	-20.511	0.100
581.000	-39.018	0.100
581.100	-23.975	0.100
581.200	-33.542	0.100
581.300	-29.486	0.100
581.400	-28.979	0.100
581.500	-43.029	0.100
581.600	-39.998	0.100
581.700	-26.716	0.100
581.800	-28.149	0.100
581.900	-23.906	0.100
582.000	-23.892	0.100
582.100	-27.927	0.100
582.200	-27.589	0.100
582.300	-33.130	0.100
582.400	-36.736	0.100
582.500	-21.048	0.100
582.600	-40.950	0.100
582.700	-30.945	0.100
582.800	-13.753	0.100
582.900	-25.598	0.100
583.000	-33.247	0.100
583.100	-33.362	0.100
583.200	-26.682	0.100
583.300	-24.059	0.100
583.400	-40.725	0.100
583.500	-34.634	0.100
583.600	-32.650	0.100
583.700	-38.675	0.100
583.800	-20.930	0.100
583.900	-24.485	0.100
584.000	-28.398	0.100
584.100	-27.046	0.100
584.200	-24.632	0.100
584.300	-27.303	0.100
584.400	-33.368	0.100
584.500	-27.563	0.100
584.600	-34.120	0.100
584.700	-31.019	0.100
584.800	-29.078	0.100
584.900	-23.940	0.100
585.000	-33.476	0.100
585.100	-41.835	0.100
585.200	-33.196	0.100
585.300	-20.669	0.100
585.400	-14.850	0.100
585.500	-8.974	0.100
585.600	-27.538	0.100
585.700	-36.223	0.100
585.800	-40.983	0.100
585.900	-13.873	0.100
586.000	-34.675	0.100
586.100	-28.118	0.100
586.200	-11.758	0.100
586.300	-20.262	0.100
586.400	-43.555	0.100
586.500	-39.234	0.100
586.600	-30.258	0.100
586.700	-21.880	0.100
586.800	-30.980	0.100
586.900	-27.319	0.100
587.000	-39.425	0.100
587.100	-33.081	0.100
587.200	-19.608	0.100
587.300	-26.980	0.100
587.400	-23.538	0.100
587.500	-23.654	0.100
587.600	-35.117	0.100
587.700	-22.408	0.100
587.800	-34.772	0.100
587.900	-35.647	0.100
588.000	-29.242	0.100
588.100	-29.818	0.100
588.200	-22.197	0.100
588.300	-39.401	0.100
588.400	-31.158	0.100
588.500	-28.871	0.100
588.600	-38.991	0.100
588.700	-24.331	0.100
588.800	-28.058	0.100
588.900	-35.936	0.100
589.000	-25.325	0.100
589.100	-36.420	0.100
589.200	-25.571	0.100
589.300	-28.639	0.100
589.400	-28.419	0.100
589.500	-31.531	0.100
589.600	-30.494	0.100
589.700	-32.941	0.100
589.800	-32.309	0.100
589.900	-36.716	0.100
590.000	-30.292	0.100
590.100	-27.829	0.100
590.200	-33.697	0.100
590.300	-25.496	0.100
590.400	-36.464	0.100
590.500	-19.390	0.100
590.600	-25.211	0.100
590.700	-24.245	0.100
590.800	-25.486	0.100
590.900	-27.897	0.100
591.000	-34.997	0.100
591.100	-37.858	0.100
591.200	-32.846	0.100
591.300	-31.258	0.100
591.400	-41.766	0.100
591.500	-19.487	0.100
591.600	-27.694	0.100
591.700	-26.520	0.100
591.800	-38.199	0.100
591.900	-10.461	0.100
592.000	-19.141	0.100
592.100	-38.858	0.100
592.200	-22.434	0.100
592.300	-45.056	0.100
592.400	-24.100	0.100
592.500	-17.851	0.100
592.600	-34.409	0.100
592.700	-30.332	0.100
592.800	-32.927	0.100
592.900	-29.529	0.100
593.000	-27.227	0.100
593.100	-22.159	0.100
593.200	-26.860	0.100
593.300	-32.180	0.100
593.400	-27.104	0.100
593.500	-34.614	0.100
593.600	-21.759	0.100
593.700	-38.546	0.100
593.800	-21.573	0.100
593.900	-22.551	0.100
594.000	-33.308	0.100
594.100	-28.436	0.100
594.200	-37.110	0.100
594.300	-19.202	0.100
594.400	-33.346	0.100
594.500	-34.532	0.100
594.600	-45.203	0.100
594.700	-16.015	0.100
594.800	-21.386	0.100
594.900	-22.071	0.100
595.000	-45.697	0.100
595.100	-22.713	0.100
595.200	-29.432	0.100
595.300	-22.237	0.100
595.400	-32.849	0.100
595.500	-30.232	0.100
595.600	-31.670	0.100
595.700	-20.359	0.100
595.800	-34.240	0.100
595.900	-36.430	0.100
596.000	-25.163	0.100
596.100	-39.059	0.100
596.200	-40.018	0.100
596.300	-22.501	0.100
596.400	-20.713	0.100
596.500	-24.046	0.100
596.600	-25.762	0.100
596.700	-31.367	0.100
596.800	-33.329	0.100
596.900	-44.713	0.100
597.000	-21.965	0.100
597.100	-39.078	0.100
597.200	-17.517	0.100
597.300	-32.315	0.100
597.400	-28.527	0.100
597.500	-22.757	0.100
597.600	-24.751	0.100
597.700	-23.212	0.100
597.800	-30.923	0.100
597.900	-30.317	0.100
598.000	-36.274	0.100
598.100	-18.321	0.100
598.200	-33.472	0.100
598.300	-29.778	0.100
598.400	-24.948	0.100
598.500	-27.533	0.100
598.600	-25.734	0.100
598.700	-30.923	0.100
598.800	-22.045	0.100
598.900	-24.646	0.100
599.000	-24.621	0.100
599.100	-30.783	0.100
599.200	-31.409	0.100
599.300	-34.879	0.100
599.400	-27.486	0.100
599.500	-19.943	0.100
599.600	-21.926	0.100
599.700	-27.149	0.100
599.800	-24.959	0.100
599.900	-25.924	0.100
600.000	-30.550	0.100
600.100	-33.860	0.100
600.200	-24.261	0.100
600.300	-34.181	0.100
600.400	-33.304	0.100
600.500	-35.496	0.100
600.600	-37.945	0.100
600.700	-21.983	0.100
600.800	-33.383	0.100
600.900	-20.174	0.100
601.000	-19.433	0.100
601.100	-18.401	0.100
601.200	-30.272	0.100
601.300	-25.857	0.100
601.400	-23.491	0.100
601.500	-26.399	0.100
601.600	-27.919	0.100
601.700	-25.059	0.100
601.800	-28.643	0.100
601.900	-31.971	0.100
602.000	-36.984	0.100
602.100	-28.969	0.100
602.200	-23.059	0.100
602.300	-26.135	0.100
602.400	-34.125	0.100
602.500	-29.720	0.100
602.600	-34.042	0.100
602.700	-30.148	0.100
602.800	-33.851	0.100
602.900	-35.293	0.100
603.000	-22.241	0.100
603.100	-28.464	0.100
603.200	-33.257	0.100
603.300	-20.804	0.100
603.400	-30.830	0.100
603.500	-38.387	0.100
603.600	-19.663	0.100
603.700	-26.160	0.100
603.800	-18.567	0.100
603.900	-14.407	0.100
604.000	-31.182	0.100
604.100	-27.381	0.100
604.200	-22.348	0.100
604.300	-36.358	0.100
604.400	-36.030	0.100
604.500	-28.690	0.100
604.600	-22.857	0.100
604.700	-31.784	0.100
604.800	-25.291	0.100
604.900	-24.046	0.100
605.000	-20.937	0.100
605.100	-21.925	0.100
605.200	-22.506	0.100
605.300	-33.481	0.100
605.400	-37.147	0.100
605.500	-22.064	0.100
605.600	-25.476	0.100
605.700	-25.038	0.100
605.800	-26.239	0.100
605.900	-28.224	0.100
606.000	-23.980	0.100
606.100	-27.302	0.100
606.200	-27.567	0.100
606.300	-36.713	0.100
606.400	-26.421	0.100
606.500	-19.163	0.100
606.600	-20.448	0.100
606.700	-22.888	0.100
606.800	-27.018	0.100
606.900	-28.093	0.100
607.000	-34.409	0.100
607.100	-38.529	0.100
607.200	-28.302	0.100
607.300	-25.390	0.100
607.400	-32.864	0.100
607.500	-26.872	0.100
607.600	-40.431	0.100
607.700	-26.674	0.100
607.800	-25.847	0.100
607.900	-30.726	0.100
608.000	-20.884	0.100
608.100	-24.549	0.100
608.200	-29.697	0.100
608.300	-22.858	0.100
608.400	-14.297	0.100
608.500	-25.029	0.100
608.600	-30.460	0.100
608.700	-29.556	0.100
608.800	-27.670	0.100
608.900	-19.080	0.100
609.000	-34.727	0.100
609.100	-21.092	0.100
609.200	-27.214	0.100
609.300	-20.687	0.100
609.400	-31.312	0.100
609.500	-29.714	0.100
609.600	-24.546	0.100
609.700	-20.066	0.100
609.800	-24.395	0.100
609.900	-36.345	0.100
610.000	-35.445	0.100
610.100	-30.380	0.100
610.200	-37.393	0.100
610.300	-32.326	0.100
610.400	-29.223	0.100
610.500	-10.215	0.100
610.600	-19.443	0.100
610.700	-32.465	0.100
610.800	-20.614	0.100
610.900	-18.592	0.100
611.000	-21.698	0.100
611.100	-35.918	0.100
611.200	-30.364	0.100
611.300	-17.912	0.100
611.400	-15.700	0.100
611.500	-19.219	0.100
611.600	-31.319	0.100
611.700	-18.528	0.100
611.800	-28.421	0.100
611.900	-27.633	0.100
612.000	-23.725	0.100
612.100	-33.287	0.100
612.200	-25.467	0.100
612.300	-21.004	0.100
612.400	-24.801	0.100
612.500	-30.594	0.100
612.600	-29.574	0.100
612.700	-24.357	0.100
612.800	-28.408	0.100
612.900	-31.570	0.100
613.000	-25.277	0.100
613.100	-23.721	0.100
613.200	-19.538	0.100
613.300	-14.245	0.100
613.400	-18.237	0.100
613.500	-31.516	0.100
613.600	-30.167	0.100
613.700	-32.977	0.100
613.800	-22.304	0.100
613.900	-18.059	0.100
614.000	-25.562	0.100
614.100	-23.003	0.100
614.200	-27.690	0.100
614.300	-24.840	0.100
614.400	-26.357	0.100
614.500	-19.450	0.100
614.600	-24.987	0.100
614.700	-20.910	0.100
614.800	-22.629	0.100
614.900	-18.923	0.100
615.000	-22.628	0.100
615.100	-28.727	0.100
615.200	-39.062	0.100
615.300	-22.705	0.100
615.400	-32.202	0.100
615.500	-26.958	0.100
615.600	-27.179	0.100
615.700	-25.963	0.100
615.800	-20.593	0.100
615.900	-36.265	0.100
616.000	-43.818	0.100
616.100	-20.421	0.100
616.200	-16.097	0.100
616.300	-21.981	0.100
616.400	-17.975	0.100
616.500	-24.426	0.100
616.600	-21.800	0.100
616.700	-35.142	0.100
616.800	-16.183	0.100
616.900	-37.777	0.100
617.000	-22.532	0.100
617.100	-13.547	0.100
617.200	-25.069	0.100
617.300	-34.601	0.100
617.400	-29.769	0.100
617.500	-20.396	0.100
617.600	-25.387	0.100
617.700	-20.797	0.100
617.800	-20.789	0.100
617.900	-31.083	0.100
618.000	-21.932	0.100
618.100	-29.105	0.100
618.200	-26.160	0.100
618.300	-25.727	0.100
618.400	-28.382	0.100
618.500	-33.122	0.100
618.600	-26.199	0.100
618.700	-19.634	0.100
618.800	-22.360	0.100
618.900	-17.103	0.100
619.000	-16.288	0.100
619.100	-21.053	0.100
619.200	-31.470	0.100
619.300	-27.596	0.100
619.400	-22.828	0.100
619.500	-19.061	0.100
619.600	-20.078	0.100
619.700	-20.192	0.100
619.800	-32.121	0.100
619.900	-27.831	0.100
620.000	-37.438	0.100
620.100	-20.779	0.100
620.200	-31.053	0.100
620.300	-21.140	0.100
620.400	-18.176	0.100
620.500	-23.615	0.100
620.600	-24.031	0.100
620.700	-26.300	0.100
620.800	-12.091	0.100
620.900	-18.981	0.100
621.000	-17.774	0.100
621.100	-26.535	0.100
621.200	-27.563	0.100
621.300	-23.996	0.100
621.400	-18.599	0.100
621.500	-23.175	0.100
621.600	-33.114	0.100
621.700	-22.441	0.100
621.800	-28.117	0.100
621.900	-19.427	0.100
622.000	-14.565	0.100
622.100	-19.039	0.100
622.200	-25.526	0.100
622.300	-19.701	0.100
622.400	-24.184	0.100
622.500	-23.815	0.100
622.600	-30.806	0.100
622.700	-29.063	0.100
622.800	-23.724	0.100
622.900	-25.796	0.100
623.000	-26.655	0.100
623.100	-18.664	0.100
623.200	-28.592	0.100
623.300	-22.471	0.100
623.400	-22.838	0.100
623.500	-29.141	0.100
623.600	-23.248	0.100
623.700	-29.914	0.100
623.800	-24.584	0.100
623.900	-21.829	0.100
624.000	-18.676	0.100
624.100	-13.362	0.100
624.200	-33.153	0.100
624.300	-32.932	0.100
624.400	-34.191	0.100
624.500	-16.913	0.100
624.600	-17.084	0.100
624.700	-14.549	0.100
624.800	-30.152	0.100
624.900	-15.257	0.100
625.000	-16.348	0.100
625.100	-23.685	0.100
625.200	-29.422	0.100
625.300	-34.182	0.100
625.400	-23.798	0.100
625.500	-14.961	0.100
625.600	-27.725	0.100
625.700	-20.742	0.100
625.800	-27.857	0.100
625.900	-24.180	0.100
626.000	-10.685	0.100
626.100	-27.489	0.100
626.200	-34.508	0.100
626.300	-25.391	0.100
626.400	-15.703	0.100
626.500	-23.014	0.100
626.600	-23.607	0.100
626.700	-23.805	0.100
626.800	-30.222	0.100
626.900	-19.623	0.100
627.000	-16.725	0.100
627.100	-24.817	0.100
627.200	-27.362	0.100
627.300	-25.408	0.100
627.400	-18.421	0.100
627.500	-24.288	0.100
627.600	-30.431	0.100
627.700	-37.130	0.100
627.800	-30.593	0.100
627.900	-8.114	0.100
628.000	-25.439	0.100
628.100	-37.050	0.100
628.200	-30.186	0.100
628.300	-19.102	0.100
628.400	-24.615	0.100
628.500	-24.944	0.100
628.600	-22.568	0.100
628.700	-16.319	0.100
628.800	-19.217	0.100
628.900	-25.679	0.100
629.000	-19.943	0.100
629.100	-32.223	0.100
629.200	-9.772	0.100
629.300	-22.740	0.100
629.400	-31.580	0.100
629.500	-30.290	0.100
629.600	-7.738	0.100
629.700	-25.801	0.100
629.800	-29.447	0.100
629.900	-30.871	0.100
630.000	-16.519	0.100
630.100	-25.296	0.100
630.200	-11.987	0.100
630.300	-25.002	0.100
630.400	-22.546	0.100
630.500	-23.897	0.100
630.600	-6.401	0.100
630.700	-12.067	0.100
630.800	4.388	0.100
630.900	6.286	0.100
631.000	5.281	0.100
631.100	0.536	0.100
631.200	-2.325	0.100
631.300	8.954	0.100
631.400	6.193	0.100
631.500	18.473	0.100
631.600	21.557	0.100
631.700	21.909	0.100
631.800	18.345	0.100
631.900	17.518	0.100
632.000	30.755	0.100
632.100	27.310	0.100
632.200	36.056	0.100
632.300	28.520	0.100
632.400	20.013	0.100
632.500	33.510	0.100
632.600	31.398	0.100
632.700	27.981	0.100
632.800	29.978	0.100
632.900	53.088	0.100
633.000	44.481	0.100
633.100	35.039	0.100
633.200	33.782	0.100
633.300	20.584	0.100
633.400	33.001	0.100
633.500	32.196	0.100
633.600	34.104	0.100
633.700	23.879	0.100
633.800	27.753	0.100
633.900	47.378	0.100
634.000	33.589	0.100
634.100	35.217	0.100
634.200	31.042	0.100
634.300	29.827	0.100
634.400	28.935	0.100
634.500	31.198	0.100
634.600	37.992	0.100
634.700	42.338	0.100
634.800	29.615	0.100
634.900	34.698	0.100
635.000	35.789	0.100
635.100	24.350	0.100
635.200	37.284	0.100
635.300	33.863	0.100
635.400	31.477	0.100
635.500	27.307	0.100
635.600	21.825	0.100
635.700	36.573	0.100
635.800	27.418	0.100
635.900	34.431	0.100
636.000	24.054	0.100
636.100	17.802	0.100
636.200	20.766	0.100
636.300	35.479	0.100
636.400	41.525	0.100
636.500	28.626	0.100
636.600	44.017	0.100
636.700	31.450	0.100
636.800	25.020	0.100
636.900	20.155	0.100
637.000	39.536	0.100
637.100	40.876	0.100
637.200	35.922	0.100
637.300	25.383	0.100
637.400	24.676	0.100
637.500	15.515	0.100
637.600	18.094	0.100
637.700	18.152	0.100
637.800	27.884	0.100
637.900	22.595	0.100
638.000	24.579	0.100
638.100	36.996	0.100
638.200	34.428	0.100
638.300	33.222	0.100
638.400	32.734	0.100
638.500	27.468	0.100
638.600	38.030	0.100
638.700	32.450	0.100
638.800	28.231	0.100
638.900	24.592	0.100
639.000	30.171	0.100
639.100	27.921	0.100
639.200	34.299	0.100
639.300	18.652	0.100
639.400	14.777	0.100
639.500	26.294	0.100
639.600	33.313	0.100
639.700	40.200	0.100
639.800	36.338	0.100
639.900	26.066	0.100
640.000	44.583	0.100
640.100	29.592	0.100
640.200	23.815	0.100
640.300	30.306	0.100
640.400	16.986	0.100
640.500	29.300	0.100
640.600	40.989	0.100
640.700	34.317	0.100
640.800	32.817	0.100
640.900	34.966	0.100
641.000	40.434	0.100
641.100	35.152	0.100
641.200	22.976	0.100
641.300	33.660	0.100
641.400	42.592	0.100
641.500	32.830	0.100
641.600	31.136	0.100
641.700	24.788	0.100
641.800	49.615	0.100
641.900	27.935	0.100
642.000	34.716	0.100
642.100	24.752	0.100
642.200	27.780	0.100
642.300	37.892	0.100
642.400	30.611	0.100
642.500	32.118	0.100
642.600	32.875	0.100
642.700	36.128	0.100
642.800	33.446	0.100
642.900	30.973	0.100
643.000	36.006	0.100
643.100	40.058	0.100
643.200	41.489	0.100
643.300	34.223	0.100
643.400	34.227	0.100
643.500	24.674	0.100
643.600	42.733	0.100
643.700	18.000	0.100
643.800	38.737	0.100
643.900	32.982	0.100
644.000	32.123	0.100
644.100	20.678	0.100
644.200	37.026	0.100
644.300	36.193	0.100
644.400	36.715	0.100
644.500	32.700	0.100
644.600	33.450	0.100
644.700	42.644	0.100
644.800	41.045	0.100
644.900	32.521	0.100
645.000	32.986	0.100
645.100	32.060	0.100
645.200	35.643	0.100
645.300	23.515	0.100
645.400	41.481	0.100
645.500	31.887	0.100
645.600	45.982	0.100
645.700	40.264	0.100
645.800	41.825	0.100
645.900	31.986	0.100
646.000	37.341	0.100
646.100	46.758	0.100
646.200	29.406	0.100
646.300	27.788	0.100
646.400	33.626	0.100
646.500	29.659	0.100
646.600	39.376	0.100
646.700	31.277	0.100
646.800	25.534	0.100
646.900	23.927	0.100
647.000	46.533	0.100
647.100	33.665	0.100
647.200	35.977	0.100
647.300	42.122	0.100
647.400	22.220	0.100
647.500	34.253	0.100
647.600	29.525	0.100
647.700	46.183	0.100
647.800	43.501	0.100
647.900	44.795	0.100
648.000	32.886	0.100
648.100	34.841	0.100
648.200	43.191	0.100
648.300	36.308	0.100
648.400	46.582	0.100
648.500	34.795	0.100
648.600	45.385	0.100
648.700	32.192	0.100
648.800	29.535	0.100
648.900	31.385	0.100
649.000	42.060	0.100
649.100	42.154	0.100
649.200	29.642	0.100
649.300	41.348	0.100
649.400	35.073	0.100
649.500	34.716	0.100
649.600	31.066	0.100
649.700	50.466	0.100
649.800	41.975	0.100
649.900	22.109	0.100
650.000	41.811	0.100
650.100	44.724	0.100
650.200	41.706	0.100
650.300	45.183	0.100
650.400	38.028	0.100
650.500	41.846	0.100
650.600	40.436	0.100
650.700	30.544	0.100
650.800	43.485	0.100
650.900	53.594	0.100
651.000	30.124	0.100
651.100	29.525	0.100
651.200	56.214	0.100
651.300	43.530	0.100
651.400	43.713	0.100
651.500	39.151	0.100
651.600	40.547	0.100
651.700	34.739	0.100
651.800	37.636	0.100
651.900	38.347	0.100
652.000	40.280	0.100
652.100	33.632	0.100
652.200	51.736	0.100
652.300	36.580	0.100
652.400	40.441	0.100
652.500	43.750	0.100
652.600	38.272	0.100
652.700	37.216	0.100
652.800	42.384	0.100
652.900	42.230	0.100
653.000	50.290	0.100
653.100	44.673	0.100
653.200	52.713	0.100
653.300	49.237	0.100
653.400	52.217	0.100
653.500	49.996	0.100
653.600	50.679	0.100
653.700	43.983	0.100
653.800	37.591	0.100
653.900	47.350	0.100
654.000	51.370	0.100
654.100	57.709	0.100
654.200	46.937	0.100
654.300	45.192	0.100
654.400	50.567	0.100
654.500	43.120	0.100
654.600	48.640	0.100
654.700	43.351	0.100
654.800	51.798	0.100
654.900	50.106	0.100
655.000	53.973	0.100
655.100	57.650	0.100
655.200	52.898	0.100
655.300	51.523	0.100
655.400	55.475	0.100
655.500	52.956	0.100
655.600	57.217	0.100
655.700	57.547	0.100
655.800	54.391	0.100
655.900	50.137	0.100
656.000	43.995	0.100
656.100	51.523	0.100
656.200	54.799	0.100
656.300	51.525	0.100
656.400	49.875	0.100
656.500	40.410	0.100
656.600	63.444	0.100
656.700	47.814	0.100
656.800	45.182	0.100
656.900	58.505	0.100
657.000	42.946	0.100
657.100	56.071	0.100
657.200	48.263	0.100
657.300	51.126	0.100
657.400	58.531	0.100
657.500	50.759	0.100
657.600	47.806	0.100
657.700	52.846	0.100
657.800	50.071	0.100
657.900	50.065	0.100
658.000	52.839	0.100
658.100	56.661	0.100
658.200	51.100	0.100
658.300	50.708	0.100
658.400	62.209	0.100
658.500	62.320	0.100
658.600	57.523	0.100
658.700	56.819	0.100
658.800	57.448	0.100
658.900	57.227	0.100
659.000	58.409	0.100
659.100	51.840	0.100
659.200	53.673	0.100
659.300	44.677	0.100
659.400	58.158	0.100
659.500	63.108	0.100
659.600	68.043	0.100
659.700	63.522	0.100
659.800	52.415	0.100
659.900	43.549	0.100
660.000	55.503	0.100
660.100	56.227	0.100
660.200	59.131	0.100
660.300	59.231	0.100
660.400	65.377	0.100
660.500	67.688	0.100
660.600	52.365	0.100
660.700	40.959	0.100
660.800	71.747	0.100
660.900	62.320	0.100
661.000	53.305	0.100
661.100	61.479	0.100
661.200	64.983	0.100
661.300	53.883	0.100
661.400	45.279	0.100
661.500	49.751	0.100
661.600	64.530	0.100
661.700	67.701	0.100
661.800	66.285	0.100
661.900	50.915	0.100
662.000	64.023	0.100
662.100	63.291	0.100
662.200	69.114	0.100
662.300	48.725	0.100
662.400	60.746	0.100
662.500	61.401	0.100
662.600	49.784	0.100
662.700	55.338	0.100
662.800	67.070	0.100
662.900	68.364	0.100
663.000	64.893	0.100
663.100	63.397	0.100
663.200	68.704	0.100
663.300	66.335	0.100
663.400	59.439	0.100
663.500	53.855	0.100
663.600	45.671	0.100
663.700	64.214	0.100
663.800	61.495	0.100
663.900	65.301	0.100
664.000	58.693	0.100
664.100	71.953	0.100
664.200	71.301	0.100
664.300	64.248	0.100
664.400	50.997	0.100
664.500	57.165	0.100
664.600	69.671	0.100
664.700	72.364	0.100
664.800	63.516	0.100
664.900	61.669	0.100
665.000	62.435	0.100
665.100	70.999	0.100
665.200	70.062	0.100
665.300	71.987	0.100
665.400	46.994	0.100
665.500	71.241	0.100
665.600	70.440	0.100
665.700	53.677	0.100
665.800	55.277	0.100
665.900	66.507	0.100
666.000	79.393	0.100
666.100	69.455	0.100
666.200	61.502	0.100
666.300	68.344	0.100
666.400	68.094	0.100
666.500	60.732	0.100
666.600	72.855	0.100
666.700	69.611	0.100
666.800	58.797	0.100
666.900	58.210	0.100
667.000	63.497	0.100
667.100	68.217	0.100
667.200	56.441	0.100
667.300	62.902	0.100
667.400	75.279	0.100
667.500	78.083	0.100
667.600	71.531	0.100
667.700	75.631	0.100
667.800	67.065	0.100
667.900	74.328	0.100
668.000	66.362	0.100
668.100	50.210	0.100
668.200	50.657	0.100
668.300	73.943	0.100
668.400	60.202	0.100
668.500	71.055	0.100
668.600	63.973	0.100
668.700	69.496	0.100
668.800	58.032	0.100
668.900	63.795	0.100
669.000	73.839	0.100
669.100	62.470	0.100
669.200	66.731	0.100
669.300	69.164	0.100
669.400	75.718	0.100
669.500	63.773	0.100
669.600	55.601	0.100
669.700	82.899	0.100
669.800	67.968	0.100
669.900	64.885	0.100
670.000	66.135	0.100
670.100	73.696	0.100
670.200	63.762	0.100
670.300	67.406	0.100
670.400	70.962	0.100
670.500	55.696	0.100
670.600	62.386	0.100
670.700	65.481	0.100
670.800	56.930	0.100
670.900	72.230	0.100
671.000	65.825	0.100
671.100	69.643	0.100
671.200	69.086	0.100
671.300	70.818	0.100
671.400	66.710	0.100
671.500	66.929	0.100
671.600	70.528	0.100
671.700	61.897	0.100
671.800	69.914	0.100
671.900	63.864	0.100
672.000	58.981	0.100
672.100	68.346	0.100
672.200	68.255	0.100
672.300	55.283	0.100
672.400	74.772	0.100
672.500	60.331	0.100
672.600	68.585	0.100
672.700	66.768	0.100
672.800	65.531	0.100
672.900	66.594	0.100
673.000	62.209	0.100
673.100	56.084	0.100
673.200	50.175	0.100
673.300	71.397	0.100
673.400	70.198	0.100
673.500	67.000	0.100
673.600	64.238	0.100
673.700	67.685	0.100
673.800	61.359	0.100
673.900	59.907	0.100
674.000	68.185	0.100
674.100	72.807	0.100
674.200	61.674	0.100
674.300	79.152	0.100
674.400	67.930	0.100
674.500	60.070	0.100
674.600	62.889	0.100
674.700	69.874	0.100
674.800	72.127	0.100
674.900	69.653	0.100
675.000	62.795	0.100
675.100	60.248	0.100
675.200	67.951	0.100
675.300	61.673	0.100
675.400	70.489	0.100
675.500	66.950	0.100
675.600	56.566	0.100
675.700	75.085	0.100
675.800	59.665	0.100
675.900	65.959	0.100
676.000	49.092	0.100
676.100	58.204	0.100
676.200	57.093	0.100
676.300	65.430	0.100
676.400	76.799	0.100
676.500	71.787	0.100
676.600	75.839	0.100
676.700	68.352	0.100
676.800	60.110	0.100
676.900	64.883	0.100
677.000	61.089	0.100
677.100	54.773	0.100
677.200	78.934	0.100
677.300	87.274	0.100
677.400	61.185	0.100
677.500	70.150	0.100
677.600	79.932	0.100
677.700	68.138	0.100
677.800	70.579	0.100
677.900	65.690	0.100
678.000	65.195	0.100
678.100	61.525	0.100
678.200	68.111	0.100
678.300	54.377	0.100
678.400	65.672	0.100
678.500	85.596	0.100
678.600	64.766	0.100
678.700	62.713	0.100
678.800	75.996	0.100
678.900	65.738	0.100
679.000	61.468	0.100
679.100	56.963	0.100
679.200	75.209	0.100
679.300	72.458	0.100
679.400	64.549	0.100
679.500	68.214	0.100
679.600	62.010	0.100
679.700	65.793	0.100
679.800	64.114	0.100
679.900	60.745	0.100
680.000	59.725	0.100
680.100	70.585	0.100
680.200	60.480	0.100
680.300	68.786	0.100
680.400	72.517	0.100
680.500	63.202	0.100
680.600	74.766	0.100
680.700	71.407	0.100
680.800	68.333	0.100
680.900	72.470	0.100
681.000	58.588	0.100
681.100	68.373	0.100
681.200	54.011	0.100
681.300	61.435	0.100
681.400	61.655	0.100
681.500	59.218	0.100
681.600	72.877	0.100
681.700	78.455	0.100
681.800	64.597	0.100
681.900	68.468	0.100
682.000	70.886	0.100
682.100	57.594	0.100
682.200	70.137	0.100
682.300	61.142	0.100
682.400	57.667	0.100
682.500	45.697	0.100
682.600	57.421	0.100
682.700	71.277	0.100
682.800	89.084	0.100
682.900	60.575	0.100
683.000	67.288	0.100
683.100	64.635	0.100
683.200	69.220	0.100
683.300	67.381	0.100
683.400	69.967	0.100
683.500	81.889	0.100
683.600	63.670	0.100
683.700	61.274	0.100
683.800	60.586	0.100
683.900	54.525	0.100
684.000	55.552	0.100
684.100	72.148	0.100
684.200	81.602	0.100
684.300	55.688	0.100
684.400	64.284	0.100
684.500	71.182	0.100
684.600	59.931	0.100
684.700	47.037	0.100
684.800	61.884	0.100
684.900	74.552	0.100
685.000	65.089	0.100
685.100	57.011	0.100
685.200	67.325	0.100
685.300	55.960	0.100
685.400	68.978	0.100
685.500	68.566	0.100
685.600	66.369	0.100
685.700	62.777	0.100
685.800	67.987	0.100
685.900	63.150	0.100
686.000	76.135	0.100
686.100	63.557	0.100
686.200	75.339	0.100
686.300	63.777	0.100
686.400	59.691	0.100
686.500	61.195	0.100
686.600	64.156	0.100
686.700	66.213	0.100
686.800	59.799	0.100
686.900	78.818	0.100
687.000	70.565	0.100
687.100	60.073	0.100
687.200	57.347	0.100
687.300	59.086	0.100
687.400	63.347	0.100
687.500	67.712	0.100
687.600	63.117	0.100
687.700	66.213	0.100
687.800	67.309	0.100
687.900	55.810	0.100
688.000	64.200	0.100
688.100	73.692	0.100
688.200	69.358	0.100
688.300	59.833	0.100
688.400	75.418	0.100
688.500	75.055	0.100
688.600	56.678	0.100
688.700	54.191	0.100
688.800	59.623	0.100
688.900	61.621	0.100
689.000	63.715	0.100
689.100	70.046	0.100
689.200	66.384	0.100
689.300	50.855	0.100
689.400	68.525	0.100
689.500	54.842	0.100
689.600	73.651	0.100
689.700	75.970	0.100
689.800	72.178	0.100
689.900	68.143	0.100
690.000	68.425	0.100
690.100	59.466	0.100
690.200	56.449	0.100
690.300	62.552	0.100
690.400	54.111	0.100
690.500	62.993	0.100
690.600	55.768	0.100
690.700	55.241	0.100
690.800	41.758	0.100
690.900	41.210	0.100
691.000	38.524	0.100
691.100	31.417	0.100
691.200	20.763	0.100
691.300	30.632	0.100
691.400	21.657	0.100
691.500	25.982	0.100
691.600	27.830	0.100
691.700	22.246	0.100
691.800	28.241	0.100
691.900	24.567	0.100
692.000	21.487	0.100
692.100	21.282	0.100
692.200	22.547	0.100
692.300	11.557	0.100
692.400	12.878	0.100
692.500	8.474	0.100
692.600	16.386	0.100
692.700	2.885	0.099
692.800	7.529	0.100
692.900	17.508	0.100
693.000	3.859	0.100
693.100	14.457	0.100
693.200	12.067	0.100
693.300	10.097	0.100
693.400	-4.089	0.100
693.500	7.122	0.099
693.600	12.595	0.100
693.700	4.152	0.100
693.800	7.808	0.100
693.900	-1.381	0.099
694.000	3.232	0.100
694.100	15.179	0.099
694.200	10.655	0.100
694.300	11.439	0.099
694.400	-4.465	0.099
694.500	9.952	0.099
694.600	1.559	0.100
694.700	3.918	0.099
694.800	9.612	0.099
694.900	-0.635	0.100
695.000	-4.600	0.100
695.100	17.428	0.100
695.200	18.481	0.100
695.300	12.370	0.100
695.400	6.430	0.100
695.500	0.143	0.100
695.600	6.954	0.099
695.700	1.445	0.100
695.800	1.315	0.100
695.900	0.268	0.099
696.000	5.604	0.100
696.100	0.517	0.100
696.200	7.942	0.100
696.300	-4.999	0.099
696.400	3.836	0.099
696.500	4.203	0.099
696.600	-3.984	0.099
696.700	4.166	0.100
696.800	5.570	0.099
696.900	-4.450	0.099
697.000	1.327	0.099
697.100	1.788	0.099
697.200	17.128	0.099
697.300	14.403	0.099
697.400	12.049	0.099
697.500	-9.445	0.099
697.600	0.772	0.099
697.700	0.189	0.100
697.800	8.685	0.099
697.900	9.851	0.099
698.000	0.633	0.099
698.100	9.023	0.099
698.200	-4.308	0.099
698.300	-6.730	0.099
698.400	-0.030	0.099
698.500	1.749	0.100
698.600	20.689	0.099
698.700	-6.880	0.099
698.800	-7.139	0.099
698.900	21.374	0.099
699.000	-1.258	0.099
699.100	-5.161	0.099
699.200	-4.638	0.099
699.300	4.824	0.099
699.400	0.244	0.099
699.500	5.936	0.099
699.600	13.587	0.099
699.700	-5.199	0.099
699.800	5.701	0.099
699.900	-2.186	0.099
700.000	-3.129	0.099
700.100	-7.879	0.099
700.200	8.474	0.099
700.300	-3.157	0.099
700.400	7.675	0.099
700.500	-12.342	0.099
700.600	-6.830	0.099
700.700	-3.724	0.099
700.800	-3.078	0.099
700.900	5.829	0.099
701.000	5.621	0.099
701.100	-6.527	0.099
701.200	-7.641	0.099
701.300	3.688	0.099
701.400	-6.799	0.099
701.500	-2.148	0.099
701.600	0.198	0.099
701.700	-1.161	0.099
701.800	13.347	0.099
701.900	0.718	0.099
702.000	-4.800	0.099
702.100	-4.422	0.099
702.200	-12.363	0.099
702.300	-5.689	0.099
702.400	-7.188	0.099
702.500	-5.862	0.099
702.600	-13.721	0.099
702.700	-6.330	0.099
702.800	-0.521	0.099
702.900	0.086	0.099
703.000	-7.874	0.099
703.100	-8.852	0.099
703.200	0.467	0.099
703.300	-4.153	0.099
703.400	-4.722	0.099
703.500	-3.659	0.099
703.600	1.925	0.099
703.700	-7.714	0.099
703.800	-1.978	0.099
703.900	-8.830	0.099
704.000	-6.993	0.099
704.100	-14.475	0.099
704.200	-2.216	0.099
704.300	-6.800	0.099
704.400	-6.427	0.099
704.500	-0.413	0.099
704.600	-9.147	0.099
704.700	-2.007	0.099
704.800	-6.917	0.099
704.900	-6.137	0.099
705.000	-15.090	0.099
705.100	-4.779	0.099
705.200	-13.632	0.099
705.300	-10.563	0.099
705.400	-8.914	0.099
705.500	-5.243	0.099
705.600	-4.147	0.099
705.700	-7.881	0.099
705.800	-7.309	0.099
705.900	-11.327	0.099
706.000	-11.140	0.099
706.100	-17.770	0.099
706.200	-7.247	0.099
706.300	-12.556	0.099
706.400	-19.284	0.099
706.500	-9.621	0.099
706.600	-4.688	0.099
706.700	-11.841	0.099
706.800	-14.609	0.099
706.900	-6.060	0.099
707.000	-8.538	0.099
707.100	-9.768	0.099
707.200	-13.378	0.099
707.300	-18.801	0.099
707.400	-20.009	0.099
707.500	-6.373	0.099
707.600	-10.753	0.099
707.700	-18.440	0.099
707.800	-1.327	0.099
707.900	-15.132	0.099
708.000	-18.819	0.099
708.100	-5.029	0.099
708.200	-2.414	0.099
708.300	1.585	0.099
708.400	-18.242	0.099
708.500	-8.621	0.099
708.600	-7.417	0.099
708.700	-10.211	0.099
708.800	-10.335	0.099
708.900	-19.423	0.099
709.000	-18.013	0.099
709.100	-6.278	0.099
709.200	-12.974	0.099
709.300	-11.515	0.099
709.400	-14.286	0.099
709.500	-16.371	0.099
709.600	-6.117	0.099
709.700	-17.682	0.099
709.800	-4.468	0.099
709.900	-17.066	0.099
710.000	-22.432	0.099
710.100	-10.118	0.099
710.200	-22.336	0.099
710.300	-11.715	0.099
710.400	-3.659	0.099
710.500	-15.502	0.099
710.600	-29.742	0.099
710.700	-7.224	0.099
710.800	-15.938	0.099
710.900	-19.932	0.099
711.000	-14.317	0.099
711.100	-8.928	0.099
711.200	-8.308	0.099
711.300	-12.948	0.099
711.400	-23.869	0.099
711.500	-10.480	0.099
711.600	-14.600	0.099
711.700	-14.356	0.099
711.800	-21.039	0.099
711.900	-23.152	0.099
712.000	-25.901	0.099
712.100	-28.580	0.099
712.200	0.328	0.099
712.300	-11.253	0.099
712.400	-20.686	0.099
712.500	-21.987	0.099
712.600	-23.666	0.099
712.700	-11.137	0.099
712.800	-15.914	0.099
712.900	-19.285	0.099
713.000	-16.803	0.099
713.100	-14.637	0.099
713.200	-16.441	0.099
713.300	-10.491	0.099
713.400	-16.844	0.099
713.500	-24.421	0.099
713.600	-21.662	0.099
713.700	-14.865	0.099
713.800	-12.322	0.099
713.900	-10.988	0.099
714.000	-24.038	0.099
714.100	-24.882	0.099
714.200	-7.338	0.099
714.300	-15.320	0.099
714.400	-18.498	0.099
714.500	-22.855	0.099
714.600	-15.166	0.099
714.700	-26.000	0.099
714.800	-18.873	0.099
714.900	-20.497	0.099
715.000	-27.522	0.099
715.100	-19.876	0.099
715.200	-18.509	0.099
715.300	-18.287	0.099
715.400	-5.128	0.099
715.500	-24.156	0.099
715.600	-20.924	0.099
715.700	-18.346	0.099
715.800	-22.691	0.099
715.900	-34.462	0.099
716.000	-32.807	0.099
716.100	-29.766	0.099
716.200	-5.589	0.099
716.300	-14.041	0.099
716.400	-17.421	0.099
716.500	-25.820	0.099
716.600	-14.747	0.099
716.700	-27.691	0.099
716.800	-21.368	0.099
716.900	-16.287	0.099
717.000	-15.892	0.099
717.100	-21.261	0.099
717.200	-22.183	0.099
717.300	-26.428	0.099
717.400	-22.945	0.099
717.500	-19.503	0.099
717.600	-26.516	0.099
717.700	-22.020	0.099
717.800	-24.265	0.099
717.900	-37.353	0.099
718.000	-21.716	0.099
718.100	-23.157	0.099
718.200	-9.645	0.099
718.300	-16.188	0.099
718.400	-30.661	0.099
718.500	-32.711	0.099
718.600	-26.724	0.099
718.700	-11.497	0.099
718.800	-31.393	0.099
718.900	-28.595	0.099
719.000	-23.280	0.099
719.100	-22.904	0.099
719.200	-33.623	0.099
719.300	-17.349	0.099
719.400	-33.520	0.099
719.500	-35.982	0.099
719.600	-30.706	0.099
719.700	-23.003	0.099
719.800	-20.564	0.099
719.900	-29.585	0.099
720.000	-16.523	0.099
720.100	-17.690	0.099
720.200	-25.390	0.099
720.300	-26.957	0.099
720.400	-23.302	0.099
720.500	-13.721	0.099
720.600	-39.803	0.099
720.700	-25.023	0.099
720.800	-16.384	0.099
720.900	-25.547	0.099
721.000	-24.085	0.099
721.100	-29.041	0.099
721.200	-25.553	0.099
721.300	-17.165	0.099
721.400	-23.992	0.099
721.500	-27.215	0.099
721.600	-23.321	0.099
721.700	-22.638	0.099
721.800	-32.288	0.099
721.900	-34.334	0.099
722.000	-18.048	0.099
722.100	-22.424	0.099
722.200	-34.001	0.099
722.300	-30.169	0.099
722.400	-22.855	0.099
722.500	-34.197	0.099
722.600	-30.091	0.099
722.700	-18.584	0.099
722.800	-27.990	0.099
722.900	-36.544	0.099
723.000	-35.235	0.099
723.100	-31.409	0.099
723.200	-17.614	0.099
723.300	-21.876	0.099
723.400	-20.233	0.099
723.500	-27.458	0.099
723.600	-42.085	0.099
723.700	-20.817	0.099
723.800	-24.647	0.099
723.900	-14.854	0.099
724.000	-23.765	0.099
724.100	-28.539	0.099
724.200	-36.368	0.099
724.300	-25.676	0.099
724.400	-19.147	0.099
724.500	-29.838	0.099
724.600	-23.478	0.099
724.700	-23.513	0.099
724.800	-33.128	0.099
724.900	-42.186	0.099
725.000	-25.177	0.099
725.100	-18.291	0.099
725.200	-30.049	0.099
725.300	-22.024	0.099
725.400	-35.658	0.099
725.500	-25.311	0.099
725.600	-13.932	0.099
725.700	-21.194	0.099
725.800	-21.610	0.099
725.900	-32.115	0.099
726.000	-21.160	0.099
726.100	-28.744	0.099
726.200	-34.788	0.099
726.300	-30.038	0.099
726.400	-36.858	0.099
726.500	-31.012	0.099
726.600	-35.803	0.099
726.700	-31.471	0.099
726.800	-36.400	0.099
726.900	-15.921	0.099
727.000	-18.933	0.099
727.100	-31.592	0.099
727.200	-30.908	0.099
727.300	-24.451	0.099
727.400	-35.259	0.099
727.500	-22.594	0.099
727.600	-31.358	0.099
727.700	-17.776	0.099
727.800	-21.705	0.099
727.900	-37.170	0.099
728.000	-32.593	0.099
728.100	-26.793	0.099
728.200	-33.034	0.099
728.300	-29.877	0.099
728.400	-38.233	0.099
728.500	-39.293	0.099
728.600	-26.947	0.099
728.700	-27.832	0.099
728.800	-26.765	0.099
728.900	-26.065	0.099
729.000	-30.035	0.099
729.100	-36.445	0.099
729.200	-28.655	0.099
729.300	-41.091	0.099
729.400	-33.802	0.099
729.500	-31.231	0.099
729.600	-26.202	0.099
729.700	-31.727	0.099
729.800	-31.447	0.099
729.900	-30.197	0.099
730.000	-38.875	0.099
730.100	-33.899	0.099
730.200	-28.106	0.099
730.300	-41.281	0.099
730.400	-29.137	0.099
730.500	-24.735	0.099
730.600	-27.662	0.099
730.700	-18.614	0.099
730.800	-23.359	0.099
730.900	-22.960	0.099
731.000	-38.339	0.099
731.100	-22.743	0.099
731.200	-42.265	0.099
731.300	-28.827	0.099
731.400	-35.069	0.099
731.500	-41.762	0.099
731.600	-20.594	0.099
731.700	-30.076	0.099
731.800	-21.103	0.099
731.900	-39.316	0.099
732.000	-31.593	0.099
732.100	-32.004	0.099
732.200	-32.473	0.099
732.300	-29.595	0.099
732.400	-32.639	0.099
732.500	-32.012	0.099
732.600	-38.162	0.099
732.700	-38.567	0.099
732.800	-32.243	0.099
732.900	-46.500	0.099
733.000	-25.988	0.099
733.100	-25.623	0.099
733.200	-26.978	0.099
733.300	-30.604	0.099
733.400	-28.775	0.099
733.500	-41.286	0.099
733.600	-37.150	0.099
733.700	-37.693	0.099
733.800	-26.618	0.099
733.900	-25.743	0.099
734.000	-31.556	0.099
734.100	-23.889	0.099
734.200	-39.082	0.099
734.300	-36.570	0.099
734.400	-25.893	0.099
734.500	-26.448	0.099
734.600	-29.665	0.099
734.700	-37.210	0.099
734.800	-29.750	0.099
734.900	-31.532	0.099
735.000	-45.845	0.099
735.100	-28.305	0.099
735.200	-32.956	0.099
735.300	-31.193	0.099
735.400	-36.696	0.099
735.500	-34.851	0.099
735.600	-39.374	0.099
735.700	-32.332	0.099
735.800	-36.380	0.099
735.900	-34.330	0.099
736.000	-20.473	0.099
736.100	-33.599	0.099
736.200	-27.334	0.099
736.300	-26.068	0.099
736.400	-41.185	0.099
736.500	-18.428	0.099
736.600	-21.710	0.099
736.700	-36.266	0.099
736.800	-35.819	0.099
736.900	-34.050	0.099
737.000	-39.294	0.099
737.100	-19.141	0.099
737.200	-34.388	0.099
737.300	-37.552	0.099
737.400	-33.553	0.099
737.500	-42.024	0.099
737.600	-40.858	0.099
737.700	-30.812	0.099
737.800	-41.152	0.099
737.900	-42.457	0.099
738.000	-29.509	0.099
738.100	-27.256	0.099
738.200	-27.306	0.099
738.300	-31.423	0.099
738.400	-37.426	0.099
738.500	-24.888	0.099
738.600	-42.946	0.099
738.700	-34.851	0.099
738.800	-24.674	0.099
738.900	-29.858	0.099
739.000	-31.352	0.099
739.100	-25.180	0.099
739.200	-27.844	0.099
739.300	-40.140	0.099
739.400	-29.726	0.099
739.500	-34.525	0.099
739.600	-33.492	0.099
739.700	-31.240	0.099
739.800	-24.906	0.099
739.900	-23.268	0.099
740.000	-25.084	0.099
740.100	-27.290	0.099
740.200	-40.023	0.099
740.300	-40.532	0.099
740.400	-38.911	0.099
740.500	-24.193	0.099
740.600	-36.937	0.099
740.700	-36.214	0.099
740.800	-27.299	0.099
740.900	-32.473	0.099
741.000	-36.498	0.099
741.100	-36.600	0.099
741.200	-27.559	0.099
741.300	-36.808	0.099
741.400	-33.962	0.099
741.500	-25.289	0.099
741.600	-41.589	0.099
741.700	-39.469	0.099
741.800	-26.043	0.099
741.900	-30.036	0.099
742.000	-24.847	0.099
742.100	-27.275	0.099
742.200	-15.760	0.099
742.300	-27.899	0.099
742.400	-33.425	0.099
742.500	-27.420	0.099
742.600	-16.885	0.099
742.700	-33.802	0.099
742.800	-51.813	0.099
742.900	-36.334	0.099
743.000	-27.142	0.099
743.100	-26.669	0.099
743.200	-35.265	0.099
743.300	-44.105	0.099
743.400	-27.571	0.099
743.500	-36.269	0.099
743.600	-30.110	0.099
743.700	-33.917	0.099
743.800	-31.655	0.099
743.900	-35.928	0.099
744.000	-30.709	0.099
744.100	-28.065	0.099
744.200	-38.082	0.099
744.300	-29.716	0.099
744.400	-43.079	0.099
744.500	-29.560	0.099
744.600	-15.931	0.099
744.700	-23.226	0.099
744.800	-37.490	0.099
744.900	-31.140	0.099
745.000	-22.611	0.099
745.100	-26.094	0.099
745.200	-30.612	0.099
745.300	-34.197	0.099
745.400	-34.611	0.099
745.500	-41.665	0.099
745.600	-37.417	0.099
745.700	-30.579	0.099
745.800	-18.664	0.099
745.900	-22.308	0.099
746.000	-52.536	0.099
746.100	-31.740	0.099
746.200	-30.067	0.099
746.300	-27.529	0.099
746.400	-29.811	0.099
746.500	-22.879	0.099
746.600	-29.674	0.100
746.700	-44.356	0.100
746.800	-35.696	0.100
746.900	-35.031	0.100
747.000	-25.931	0.100
747.100	-34.273	0.100
747.200	-33.686	0.100
747.300	-36.677	0.100
747.400	-30.390	0.100
747.500	-30.102	0.100
747.600	-28.229	0.100
747.700	-24.159	0.100
747.800	-38.345	0.100
747.900	-35.452	0.100
748.000	-38.275	0.100
748.100	-34.015	0.100
748.200	-29.905	0.100
748.300	-20.141	0.100
748.400	-23.045	0.100
748.500	-23.650	0.100
748.600	-22.515	0.100
748.700	-27.870	0.100
748.800	-36.641	0.100
748.900	-36.761	0.100
749.000	-27.585	0.100
749.100	-29.464	0.100
749.200	-32.065	0.100
749.300	-29.514	0.100
749.400	-22.937	0.100
749.500	-28.399	0.100
749.600	-22.789	0.100
749.700	-47.174	0.100
749.800	-43.003	0.100
749.900	-27.850	0.100
750.000	-24.258	0.100
750.100	-19.241	0.100
750.200	-29.616	0.100
750.300	-35.233	0.100
750.400	-27.138	0.100
750.500	-44.475	0.100
750.600	-26.161	0.100
750.700	-23.240	0.100
750.800	-19.888	0.100
750.900	-45.365	0.100
751.000	-36.824	0.100
751.100	-27.799	0.100
751.200	-33.766	0.100
751.300	-33.063	0.100
751.400	-20.879	0.100
751.500	-29.761	0.100
751.600	-36.172	0.100
751.700	-23.047	0.100
751.800	-31.122	0.100
751.900	-38.522	0.100
752.000	-18.547	0.100
752.100	-31.928	0.100
752.200	-38.435	0.100
752.300	-39.078	0.100
752.400	-50.390	0.100
752.500	-36.559	0.100
752.600	-12.346	0.100
752.700	-27.954	0.100
752.800	-31.167	0.100
752.900	-31.709	0.100
753.000	-43.394	0.100
753.100	-29.161	0.100
753.200	-26.598	0.100
753.300	-20.072	0.100
753.400	-25.072	0.100
753.500	-27.470	0.100
753.600	-36.167	0.100
753.700	-31.977	0.100
753.800	-35.998	0.100
753.900	-28.774	0.100
754.000	-21.980	0.100
754.100	-26.612	0.100
754.200	-33.495	0.100
754.300	-32.562	0.100
754.400	-30.939	0.100
754.500	-25.762	0.100
754.600	-24.329	0.100
754.700	-29.402	0.100
754.800	-36.845	0.100
754.900	-22.275	0.100
755.000	-22.456	0.100
755.100	-21.671	0.100
755.200	-28.387	0.100
755.300	-32.457	0.100
755.400	-35.189	0.100
755.500	-34.269	0.100
755.600	-24.284	0.100
755.700	-24.075	0.100
755.800	-33.101	0.100
755.900	-34.327	0.100
756.000	-26.115	0.100
756.100	-26.980	0.100
756.200	-33.839	0.100
756.300	-25.233	0.100
756.400	-31.320	0.100
756.500	-31.094	0.100
756.600	-26.997	0.100
756.700	-6.024	0.100
756.800	-22.990	0.100
756.900	-11.638	0.100
757.000	-24.136	0.100
757.100	-37.833	0.100
757.200	-40.869	0.100
757.300	-39.069	0.100
757.400	-40.698	0.100
757.500	-20.656	0.100
757.600	-5.742	0.100
757.700	-35.674	0.100
757.800	-35.697	0.100
757.900	-29.780	0.100
758.000	-39.433	0.100
758.100	-29.946	0.100
758.200	-26.459	0.100
758.300	-35.351	0.100
758.400	-19.628	0.100
758.500	-23.932	0.100
758.600	-30.610	0.100
758.700	-21.029	0.100
758.800	-36.881	0.100
758.900	-27.710	0.100
759.000	-28.438	0.100
759.100	-30.733	0.100
759.200	-36.112	0.100
759.300	-23.332	0.100
759.400	-22.530	0.100
759.500	-17.761	0.100
759.600	-33.081	0.100
759.700	-15.860	0.100
759.800	-26.359	0.100
759.900	-26.405	0.100
760.000	-25.340	0.100
760.100	-26.526	0.100
760.200	-25.042	0.100
760.300	-27.936	0.100
760.400	-37.793	0.100
760.500	-19.909	0.100
760.600	-16.094	0.100
760.700	-24.404	0.100
760.800	-29.140	0.100
760.900	-29.238	0.100
761.000	-32.344	0.100
761.100	-18.632	0.100
761.200	-32.562	0.100
761.300	-24.514	0.100
761.400	-41.065	0.100
761.500	-25.822	0.100
761.600	-24.160	0.100
761.700	-20.872	0.100
761.800	-9.391	0.100
761.900	-47.255	0.100
762.000	-47.460	0.100
762.100	-20.051	0.100
762.200	-22.899	0.100
762.300	-26.876	0.100
762.400	-37.381	0.100
762.500	-34.913	0.100
762.600	-27.759	0.100
762.700	-13.344	0.100
762.800	-22.457	0.100
762.900	-23.404	0.100
763.000	-24.499	0.100
763.100	-12.155	0.100
763.200	-27.652	0.100
763.300	-38.067	0.100
763.400	-25.776	0.100
763.500	-23.113	0.100
763.600	-31.330	0.100
763.700	-25.929	0.100
763.800	-30.937	0.100
763.900	-15.929	0.100
764.000	-29.287	0.100
764.100	-31.839	0.100
764.200	-38.214	0.100
764.300	-29.192	0.100
764.400	-26.460	0.100
764.500	-26.990	0.100
764.600	-13.996	0.100
764.700	-37.637	0.100
764.800	-23.021	0.100
764.900	-20.593	0.100
765.000	-15.682	0.100
765.100	-17.646	0.100
765.200	-28.311	0.100
765.300	-29.810	0.100
765.400	-32.540	0.100
765.500	-23.628	0.100
765.600	-26.273	0.100
765.700	-31.376	0.100
765.800	-40.863	0.100
765.900	-27.872	0.100
766.000	-24.081	0.100
766.100	-24.491	0.100
766.200	-17.221	0.100
766.300	-32.691	0.100
766.400	-24.187	0.100
766.500	-27.965	0.100
766.600	-33.482	0.100
766.700	-25.949	0.100
766.800	-23.481	0.100
766.900	-31.846	0.100
767.000	-20.298	0.100
767.100	-27.879	0.100
767.200	-27.411	0.100
767.300	-25.374	0.100
767.400	-17.120	0.100
767.500	-35.813	0.100
767.600	-25.564	0.100
767.700	-25.163	0.100
767.800	-30.937	0.100
767.900	-18.728	0.100
768.000	-22.027	0.100
768.100	-22.366	0.100
768.200	-25.503	0.100
768.300	-28.807	0.100
768.400	-24.931	0.100
768.500	-24.279	0.100
768.600	-28.086	0.100
768.700	-22.366	0.100
768.800	-43.138	0.100
768.900	-32.396	0.100
769.000	-30.336	0.100
769.100	-23.629	0.100
769.200	-26.957	0.100
769.300	-25.298	0.100
769.400	-25.668	0.100
769.500	-21.585	0.100
769.600	-33.637	0.100
769.700	-30.432	0.100
769.800	-28.128	0.100
769.900	-18.244	0.100
770.000	-39.242	0.100
770.100	-9.143	0.100
770.200	-27.100	0.100
770.300	-29.539	0.100
770.400	-27.088	0.100
770.500	-24.125	0.100
770.600	-29.416	0.100
770.700	-35.672	0.100
770.800	-30.070	0.100
770.900	-32.333	0.100
771.000	-27.869	0.100
771.100	-20.160	0.100
771.200	-20.996	0.100
771.300	-22.825	0.100
771.400	-21.720	0.100
771.500	-17.818	0.100
771.600	-24.252	0.100
771.700	-25.265	0.100
771.800	-22.185	0.100
771.900	-25.872	0.100
772.000	-26.573	0.100
772.100	-16.507	0.100
772.200	-30.570	0.100
772.300	-31.106	0.100
772.400	-23.800	0.100
772.500	-25.143	0.100
772.600	-26.854	0.100
772.700	-30.745	0.100
772.800	-39.745	0.100
772.900	-29.089	0.100
773.000	-19.338	0.100
773.100	-29.578	0.100
773.200	-28.156	0.100
773.300	-20.136	0.100
773.400	-23.780	0.100
773.500	-19.847	0.100
773.600	-4.709	0.100
773.700	-26.936	0.100
773.800	-31.309	0.100
773.900	-29.685	0.100
774.000	-27.886	0.100
774.100	-31.000	0.100
774.200	-28.654	0.100
774.300	-24.300	0.100
774.400	-26.952	0.100
774.500	-18.203	0.100
774.600	-21.530	0.100
774.700	-20.359	0.100
774.800	-39.927	0.100
774.900	-30.431	0.100
775.000	-26.417	0.100
775.100	-41.255	0.100
775.200	-24.441	0.100
775.300	-12.416	0.100
775.400	-21.235	0.100
775.500	-20.464	0.100
775.600	-25.661	0.100
775.700	-32.075	0.100
775.800	-19.242	0.100
775.900	-22.065	0.100
776.000	-18.194	0.100
776.100	-24.056	0.100
776.200	-12.153	0.100
776.300	-32.000	0.100
776.400	-34.735	0.100
776.500	-15.100	0.100
776.600	-22.986	0.100
776.700	-19.515	0.100
776.800	-28.283	0.100
776.900	-15.762	0.100
777.000	-9.087	0.100
777.100	-25.367	0.100
777.200	-22.115	0.100
777.300	-21.946	0.100
777.400	-28.214	0.100
777.500	-34.555	0.100
777.600	-22.635	0.100
777.700	-35.633	0.100
777.800	-24.495	0.100
777.900	-14.017	0.100
778.000	-24.811	0.100
778.100	-31.181	0.100
778.200	-24.956	0.100
778.300	-13.768	0.100
778.400	-22.844	0.100
778.500	-28.838	0.100
778.600	-15.886	0.100
778.700	-33.324	0.100
778.800	-23.146	0.100
778.900	-30.626	0.100
779.000	-25.478	0.100
779.100	-31.109	0.100
779.200	-10.153	0.100
779.300	-26.792	0.100
779.400	-33.461	0.100
779.500	-28.333	0.100
779.600	-17.391	0.100
779.700	-7.890	0.100
779.800	-40.075	0.100
779.900	-23.345	0.100
780.000	-24.252	0.100
780.100	-27.983	0.100
780.200	-34.604	0.100
780.300	-19.080	0.100
780.400	-16.831	0.100
780.500	-20.760	0.100
780.600	-0.103	0.100
780.700	-7.955	0.100
780.800	0.969	0.100
780.900	5.855	0.100
781.000	-2.564	0.100
781.100	15.442	0.100
781.200	13.218	0.100
781.300	1.482	0.100
781.400	9.723	0.100
781.500	18.284	0.100
781.600	18.120	0.100
781.700	25.536	0.100
781.800	25.609	0.100
781.900	5.493	0.100
782.000	33.762	0.100
782.100	44.355	0.100
782.200	28.340	0.100
782.300	32.951	0.100
782.400	20.075	0.100
782.500	36.972	0.100
782.600	26.128	0.100
782.700	25.563	0.100
782.800	36.616	0.100
782.900	26.801	0.100
783.000	29.310	0.100
783.100	39.692	0.100
783.200	28.872	0.100
783.300	20.976	0.100
783.400	30.673	0.100
783.500	39.102	0.100
783.600	38.555	0.100
783.700	30.317	0.100
783.800	30.995	0.100
783.900	28.948	0.100
784.000	38.139	0.100
784.100	42.112	0.100
784.200	33.068	0.100
784.300	31.540	0.100
784.400	32.549	0.100
784.500	40.515	0.100
784.600	30.506	0.100
784.700	27.477	0.100
784.800	34.005	0.100
784.900	23.315	0.100
785.000	29.887	0.100
785.100	26.580	0.100
785.200	35.460	0.100
785.300	30.790	0.100
785.400	29.200	0.100
785.500	33.349	0.100
785.600	36.410	0.100
785.700	32.487	0.100
785.800	36.286	0.100
785.900	38.907	0.100
786.000	31.752	0.100
786.100	30.927	0.100
786.200	29.565	0.100
786.300	33.943	0.100
786.400	19.100	0.100
786.500	30.137	0.100
786.600	36.175	0.100
786.700	24.189	0.100
786.800	30.985	0.100
786.900	29.486	0.100
787.000	23.840	0.100
787.100	31.610	0.100
787.200	28.256	0.100
787.300	26.077	0.100
787.400	13.454	0.100
787.500	31.936	0.100
787.600	27.403	0.100
787.700	23.578	0.100
787.800	35.944	0.100
787.900	26.003	0.100
788.000	34.979	0.100
788.100	34.341	0.100
788.200	26.658	0.100
788.300	19.769	0.100
788.400	20.984	0.100
788.500	35.882	0.100
788.600	31.502	0.100
788.700	18.024	0.100
788.800	32.922	0.100
788.900	38.758	0.100
789.000	25.115	0.100
789.100	29.723	0.100
789.200	37.264	0.100
789.300	43.342	0.100
789.400	22.501	0.100
789.500	19.362	0.100
789.600	26.171	0.100
789.700	37.876	0.100
789.800	30.059	0.100
789.900	26.283	0.100
790.000	23.963	0.100
790.100	22.653	0.100
790.200	40.487	0.100
790.300	23.274	0.100
790.400	37.335	0.100
790.500	33.528	0.100
790.600	19.061	0.100
790.700	48.554	0.100
790.800	32.775	0.100
790.900	31.841	0.100
791.000	24.266	0.100
791.100	28.797	0.100
791.200	23.054	0.100
791.300	28.136	0.100
791.400	23.311	0.100
791.500	36.992	0.100
791.600	25.081	0.100
791.700	29.037	0.100
791.800	34.966	0.100
791.900	18.875	0.100
792.000	32.777	0.100
792.100	30.807	0.100
792.200	24.546	0.100
792.300	25.954	0.100
792.400	34.587	0.100
792.500	29.941	0.100
792.600	23.346	0.100
792.700	31.803	0.100
792.800	34.854	0.100
792.900	27.815	0.100
793.000	25.076	0.100
793.100	24.534	0.100
793.200	39.614	0.100
793.300	37.433	0.100
793.400	30.537	0.100
793.500	47.144	0.100
793.600	43.535	0.100
793.700	46.596	0.100
793.800	34.728	0.100
793.900	29.168	0.100
794.000	33.446	0.100
794.100	34.907	0.100
794.200	41.643	0.100
794.300	35.091	0.100
794.400	30.332	0.100
794.500	26.597	0.100
794.600	27.792	0.100
794.700	43.043	0.100
794.800	32.891	0.100
794.900	32.608	0.100
795.000	40.159	0.100
795.100	33.574	0.100
795.200	37.178	0.100
795.300	31.952	0.100
795.400	35.454	0.100
795.500	43.954	0.100
795.600	31.573	0.100
795.700	33.754	0.100
795.800	35.193	0.100
795.900	35.763	0.100
796.000	33.920	0.100
796.100	29.992	0.100
796.200	29.813	0.100
796.300	28.084	0.100
796.400	34.141	0.100
796.500	38.609	0.100
796.600	28.054	0.100
796.700	28.545	0.100
796.800	39.526	0.100
796.900	31.188	0.100
797.000	28.697	0.100
797.100	40.815	0.100
797.200	36.293	0.100
797.300	40.135	0.100
797.400	33.134	0.100
797.500	37.232	0.100
797.600	23.676	0.100
797.700	36.067	0.100
797.800	38.818	0.100
797.900	26.365	0.100
798.000	44.682	0.100
798.100	36.204	0.100
798.200	38.305	0.100
798.300	38.055	0.100
798.400	45.786	0.100
798.500	29.081	0.100
798.600	36.926	0.100
798.700	33.225	0.100
798.800	31.061	0.100
798.900	55.162	0.100
799.000	36.578	0.100
799.100	38.221	0.100
799.200	38.041	0.100
799.300	34.054	0.100
799.400	38.538	0.100
799.500	29.096	0.100
799.600	23.367	0.100
799.700	46.242	0.100
799.800	45.792	0.100
799.900	31.886	0.100
800.000	44.731	0.100
