time /s	I /nA	E /V
0.100	-18.642	0.100
0.200	-9.094	0.100
0.300	-21.128	0.100
0.400	-27.278	0.100
0.500	-22.388	0.100
0.600	-23.615	0.100
0.700	-26.413	0.100
0.800	-29.277	0.100
0.900	-20.641	0.100
1.000	-17.586	0.100
1.100	-22.178	0.100
1.200	-27.265	0.100
1.300	-23.488	0.100
1.400	-38.791	0.100
1.500	-26.333	0.100
1.600	-18.454	0.100
1.700	-12.152	0.100
1.800	-13.975	0.100
1.900	-15.919	0.100
2.000	-21.875	0.100
2.100	-13.847	0.100
2.200	-25.475	0.100
2.300	-23.087	0.100
2.400	-22.624	0.100
2.500	-24.015	0.100
2.600	-17.727	0.100
2.700	-19.561	0.100
2.800	-30.333	0.100
2.900	-20.964	0.100
3.000	-15.163	0.100
3.100	-19.249	0.100
3.200	-26.223	0.100
3.300	-19.574	0.100
3.400	-25.674	0.100
3.500	-11.307	0.100
3.600	-18.289	0.100
3.700	-17.542	0.100
3.800	-14.538	0.100
3.900	-27.640	0.100
4.000	-15.202	0.100
4.100	-13.799	0.100
4.200	-31.245	0.100
4.300	-35.624	0.100
4.400	-19.577	0.100
4.500	-16.502	0.100
4.600	-14.067	0.100
4.700	-20.919	0.100
4.800	-13.049	0.100
4.900	-21.139	0.100
5.000	-22.464	0.100
5.100	-24.875	0.100
5.200	-20.393	0.100
5.300	-19.217	0.100
5.400	-14.989	0.100
5.500	-18.333	0.100
5.600	-19.409	0.100
5.700	-23.342	0.100
5.800	-21.348	0.100
5.900	-12.871	0.100
6.000	-25.991	0.100
6.100	-32.952	0.100
6.200	-19.058	0.100
6.300	-14.468	0.100
6.400	-6.539	0.100
6.500	-24.184	0.100
6.600	-29.898	0.100
6.700	-15.267	0.100
6.800	-21.122	0.100
6.900	-13.319	0.100
7.000	-15.705	0.100
7.100	-29.652	0.100
7.200	-29.932	0.100
7.300	-24.305	0.100
7.400	-8.970	0.100
7.500	-28.969	0.100
7.600	-25.426	0.100
7.700	-25.674	0.100
7.800	-24.402	0.100
7.900	-29.420	0.100
8.000	-13.122	0.100
8.100	-16.193	0.100
8.200	-26.179	0.100
8.300	-19.062	0.100
8.400	-22.711	0.100
8.500	-8.840	0.100
8.600	-21.594	0.100
8.700	-14.710	0.100
8.800	-20.022	0.100
8.900	-21.379	0.100
9.000	-14.243	0.100
9.100	-20.295	0.100
9.200	-14.219	0.100
9.300	-8.208	0.100
9.400	-14.280	0.100
9.500	-17.361	0.100
9.600	-17.383	0.100
9.700	-15.770	0.100
9.800	-21.930	0.100
9.900	-21.141	0.100
10.000	-17.008	0.100
10.100	-14.650	0.100
10.200	-22.881	0.100
10.300	-29.798	0.100
10.400	-16.558	0.100
10.500	-15.762	0.100
10.600	-17.477	0.100
10.700	-14.656	0.100
10.800	-19.109	0.100
10.900	-17.276	0.100
11.000	-15.966	0.100
11.100	-15.988	0.100
11.200	-23.995	0.100
11.300	-13.940	0.100
11.400	-25.607	0.100
11.500	-35.283	0.100
11.600	-28.727	0.100
11.700	-18.825	0.100
11.800	-28.861	0.100
11.900	-23.120	0.100
12.000	-21.575	0.100
12.100	-28.244	0.100
12.200	-19.881	0.100
12.300	-19.479	0.100
12.400	-26.304	0.100
12.500	-19.288	0.100
12.600	-26.234	0.100
12.700	-21.065	0.100
12.800	-13.595	0.100
12.900	-19.165	0.100
13.000	-19.222	0.100
13.100	-5.108	0.100
13.200	-12.367	0.100
13.300	-25.436	0.100
13.400	-14.598	0.100
13.500	-17.412	0.100
13.600	-40.687	0.100
13.700	-10.803	0.100
13.800	-7.454	0.100
13.900	-12.220	0.100
14.000	-18.905	0.100
14.100	-8.261	0.100
14.200	-3.811	0.100
14.300	-22.357	0.100
14.400	-15.192	0.100
14.500	-26.845	0.100
14.600	-19.648	0.100
14.700	-8.567	0.100
14.800	-21.265	0.100
14.900	-14.928	0.100
15.000	-24.980	0.100
15.100	-17.183	0.100
15.200	-7.090	0.100
15.300	-16.736	0.100
15.400	-16.753	0.100
15.500	-18.613	0.100
15.600	-27.436	0.100
15.700	-18.960	0.100
15.800	-22.694	0.100
15.900	-11.997	0.100
16.000	-23.113	0.100
16.100	-17.289	0.100
16.200	-19.248	0.100
16.300	-14.263	0.100
16.400	-14.782	0.100
16.500	-17.128	0.100
16.600	-27.052	0.100
16.700	-22.606	0.100
16.800	-8.606	0.100
16.900	-37.223	0.100
17.000	-33.362	0.100
17.100	-18.267	0.100
17.200	-6.617	0.100
17.300	-23.422	0.100
17.400	-20.945	0.100
17.500	-11.071	0.100
17.600	-18.492	0.100
17.700	-18.754	0.100
17.800	-12.905	0.100
17.900	-13.122	0.100
18.000	-8.357	0.100
18.100	-4.417	0.100
18.200	-29.145	0.100
18.300	-13.856	0.100
18.400	-21.418	0.100
18.500	-6.233	0.100
18.600	-12.837	0.100
18.700	-23.273	0.100
18.800	-36.334	0.100
18.900	-20.026	0.100
19.000	-17.766	0.100
19.100	-9.652	0.100
19.200	-11.101	0.100
19.300	-19.771	0.100
19.400	-16.867	0.100
19.500	-22.019	0.100
19.600	-20.692	0.100
19.700	-23.695	0.100
19.800	-21.555	0.100
19.900	-31.509	0.100
20.000	-17.370	0.100
20.100	-17.425	0.100
20.200	-13.252	0.100
20.300	-18.004	0.100
20.400	-19.198	0.100
20.500	-28.658	0.100
20.600	0.882	0.100
20.700	-8.166	0.100
20.800	-16.672	0.100
20.900	-20.027	0.100
21.000	-24.471	0.100
21.100	-20.901	0.100
21.200	-9.050	0.100
21.300	-32.471	0.100
21.400	-22.753	0.100
21.500	-15.392	0.100
21.600	-6.842	0.100
21.700	-17.985	0.100
21.800	-20.388	0.100
21.900	-21.485	0.100
22.000	-26.467	0.100
22.100	-16.060	0.100
22.200	1.945	0.100
22.300	-10.406	0.100
22.400	-9.664	0.100
22.500	-28.884	0.100
22.600	-29.319	0.100
22.700	-5.559	0.100
22.800	-22.141	0.100
22.900	-6.701	0.100
23.000	0.961	0.100
23.100	-20.445	0.100
23.200	-10.641	0.100
23.300	-24.451	0.100
23.400	-19.876	0.100
23.500	-12.223	0.100
23.600	-20.085	0.100
23.700	-19.638	0.100
23.800	-12.602	0.100
23.900	-17.926	0.100
24.000	-21.164	0.100
24.100	-6.700	0.100
24.200	-13.777	0.100
24.300	-27.390	0.100
24.400	-28.137	0.100
24.500	-25.017	0.100
24.600	-19.813	0.100
24.700	-17.414	0.100
24.800	-21.210	0.100
24.900	-22.781	0.100
25.000	-18.495	0.100
25.100	-11.984	0.100
25.200	-24.991	0.100
25.300	-10.027	0.100
25.400	-16.919	0.100
25.500	-12.575	0.100
25.600	-31.267	0.100
25.700	-22.078	0.100
25.800	-27.674	0.100
25.900	-10.649	0.100
26.000	-3.260	0.100
26.100	-25.657	0.100
26.200	-13.893	0.100
26.300	-19.676	0.100
26.400	-13.078	0.100
26.500	-22.090	0.100
26.600	-24.028	0.100
26.700	-7.740	0.100
26.800	-27.070	0.100
26.900	-14.390	0.100
27.000	-23.873	0.100
27.100	-17.886	0.100
27.200	-14.783	0.100
27.300	-3.945	0.100
27.400	-10.372	0.100
27.500	-18.514	0.100
27.600	-29.949	0.100
27.700	-9.846	0.100
27.800	-14.252	0.100
27.900	-18.435	0.100
28.000	-16.119	0.100
28.100	-15.064	0.100
28.200	-13.666	0.100
28.300	-28.270	0.100
28.400	-22.046	0.100
28.500	-5.822	0.100
28.600	-20.743	0.100
28.700	-7.950	0.100
28.800	-12.483	0.100
28.900	-12.893	0.100
29.000	-17.875	0.100
29.100	-9.014	0.100
29.200	-14.248	0.100
29.300	-13.743	0.100
29.400	-23.596	0.100
29.500	-9.418	0.100
29.600	-19.824	0.100
29.700	-21.335	0.100
29.800	-14.286	0.100
29.900	-14.832	0.100
30.000	-16.148	0.100
30.100	-12.605	0.100
30.200	-13.622	0.100
30.300	-30.735	0.100
30.400	-12.555	0.100
30.500	-14.762	0.100
30.600	-10.499	0.100
30.700	-15.234	0.100
30.800	-8.528	0.100
30.900	-16.903	0.100
31.000	-28.176	0.100
31.100	-20.691	0.100
31.200	-3.784	0.100
31.300	-11.381	0.100
31.400	-5.519	0.100
31.500	-7.844	0.100
31.600	-13.928	0.100
31.700	-1.057	0.100
31.800	-3.247	0.100
31.900	-2.824	0.100
32.000	1.881	0.100
32.100	-3.850	0.100
32.200	11.430	0.100
32.300	8.695	0.100
32.400	2.040	0.100
32.500	6.031	0.100
32.600	0.596	0.100
32.700	-6.225	0.100
32.800	5.310	0.100
32.900	12.366	0.100
33.000	12.829	0.100
33.100	-6.782	0.100
33.200	14.486	0.100
33.300	25.076	0.100
33.400	9.327	0.100
33.500	7.259	0.100
33.600	-13.715	0.100
33.700	6.978	0.100
33.800	11.070	0.100
33.900	6.718	0.100
34.000	10.544	0.100
34.100	17.082	0.100
34.200	18.918	0.100
34.300	1.749	0.100
34.400	-2.127	0.100
34.500	-1.500	0.100
34.600	2.721	0.100
34.700	26.433	0.100
34.800	17.953	0.100
34.900	21.387	0.100
35.000	10.542	0.100
35.100	10.847	0.100
35.200	1.473	0.100
35.300	9.857	0.100
35.400	18.191	0.100
35.500	4.514	0.100
35.600	9.618	0.100
35.700	16.000	0.100
35.800	10.897	0.100
35.900	8.354	0.100
36.000	3.810	0.100
36.100	13.471	0.100
36.200	14.182	0.100
36.300	8.727	0.100
36.400	15.679	0.100
36.500	7.123	0.100
36.600	13.321	0.100
36.700	9.952	0.100
36.800	10.877	0.100
36.900	21.176	0.100
37.000	19.758	0.100
37.100	10.377	0.100
37.200	3.715	0.100
37.300	12.386	0.100
37.400	11.226	0.100
37.500	13.026	0.100
37.600	19.941	0.100
37.700	22.854	0.100
37.800	14.999	0.100
37.900	0.510	0.100
38.000	1.492	0.100
38.100	7.137	0.100
38.200	14.702	0.100
38.300	7.420	0.100
38.400	10.755	0.100
38.500	21.684	0.100
38.600	23.840	0.100
38.700	-1.750	0.100
38.800	2.153	0.100
38.900	27.721	0.100
39.000	17.590	0.100
39.100	17.394	0.100
39.200	10.725	0.100
39.300	9.605	0.100
39.400	12.885	0.100
39.500	5.804	0.100
39.600	13.865	0.100
39.700	17.504	0.100
39.800	8.012	0.100
39.900	14.400	0.100
40.000	13.611	0.100
40.100	9.907	0.100
40.200	21.780	0.100
40.300	3.117	0.100
40.400	11.305	0.100
40.500	23.946	0.100
40.600	17.649	0.100
40.700	20.914	0.100
40.800	17.601	0.100
40.900	5.914	0.100
41.000	12.406	0.100
41.100	19.926	0.100
41.200	1.469	0.100
41.300	23.814	0.100
41.400	26.721	0.100
41.500	18.499	0.100
41.600	19.478	0.100
41.700	17.658	0.100
41.800	17.763	0.100
41.900	23.874	0.100
42.000	16.740	0.100
42.100	7.121	0.100
42.200	18.003	0.100
42.300	32.218	0.100
42.400	29.211	0.100
42.500	13.899	0.100
42.600	20.686	0.100
42.700	12.338	0.100
42.800	11.879	0.100
42.900	8.007	0.100
43.000	26.761	0.100
43.100	21.755	0.100
43.200	27.327	0.100
43.300	15.331	0.100
43.400	22.631	0.100
43.500	12.071	0.100
43.600	29.869	0.100
43.700	15.970	0.100
43.800	9.973	0.100
43.900	25.607	0.100
44.000	22.606	0.100
44.100	28.426	0.100
44.200	27.321	0.100
44.300	18.020	0.100
44.400	27.658	0.100
44.500	29.205	0.100
44.600	18.832	0.100
44.700	23.800	0.100
44.800	27.375	0.100
44.900	31.402	0.100
45.000	33.777	0.100
45.100	27.135	0.100
45.200	30.883	0.100
45.300	22.247	0.100
45.400	33.225	0.100
45.500	9.712	0.100
45.600	21.326	0.100
45.700	31.899	0.100
45.800	24.134	0.100
45.900	23.127	0.100
46.000	14.119	0.100
46.100	11.211	0.100
46.200	29.231	0.100
46.300	30.953	0.100
46.400	30.923	0.100
46.500	26.311	0.100
46.600	4.506	0.100
46.700	21.452	0.100
46.800	27.107	0.100
46.900	39.934	0.100
47.000	24.497	0.100
47.100	16.528	0.100
47.200	28.006	0.100
47.300	23.452	0.100
47.400	32.975	0.100
47.500	20.166	0.100
47.600	28.172	0.100
47.700	36.214	0.100
47.800	36.278	0.100
47.900	34.924	0.100
48.000	19.453	0.100
48.100	20.538	0.100
48.200	31.538	0.100
48.300	19.089	0.100
48.400	26.932	0.100
48.500	30.273	0.100
48.600	26.547	0.100
48.700	15.160	0.100
48.800	40.204	0.100
48.900	28.972	0.100
49.000	28.856	0.100
49.100	31.259	0.100
49.200	33.944	0.100
49.300	18.839	0.100
49.400	29.785	0.100
49.500	23.997	0.100
49.600	11.439	0.100
49.700	39.000	0.100
49.800	27.510	0.100
49.900	22.478	0.100
50.000	32.712	0.100
50.100	31.868	0.100
50.200	32.860	0.100
50.300	35.981	0.100
50.400	31.038	0.100
50.500	33.438	0.100
50.600	25.019	0.100
50.700	47.605	0.100
50.800	33.684	0.100
50.900	22.384	0.100
51.000	30.855	0.100
51.100	37.844	0.100
51.200	34.660	0.100
51.300	28.373	0.100
51.400	34.234	0.100
51.500	32.148	0.100
51.600	21.834	0.100
51.700	23.452	0.100
51.800	20.348	0.100
51.900	30.187	0.100
52.000	32.760	0.100
52.100	38.602	0.100
52.200	34.180	0.100
52.300	21.212	0.100
52.400	34.436	0.100
52.500	42.815	0.100
52.600	39.788	0.100
52.700	27.128	0.100
52.800	34.562	0.100
52.900	41.009	0.100
53.000	21.510	0.100
53.100	26.298	0.100
53.200	38.194	0.100
53.300	22.844	0.100
53.400	36.373	0.100
53.500	30.485	0.100
53.600	30.799	0.100
53.700	38.342	0.100
53.800	39.896	0.100
53.900	10.808	0.100
54.000	25.206	0.100
54.100	38.333	0.100
54.200	31.968	0.100
54.300	40.080	0.100
54.400	32.982	0.100
54.500	36.764	0.100
54.600	29.922	0.100
54.700	29.903	0.100
54.800	34.506	0.100
54.900	45.235	0.100
55.000	28.222	0.100
55.100	39.979	0.100
55.200	39.806	0.100
55.300	38.022	0.100
55.400	46.606	0.100
55.500	26.742	0.100
55.600	28.887	0.100
55.700	42.248	0.100
55.800	27.997	0.100
55.900	20.153	0.100
56.000	29.291	0.100
56.100	29.291	0.100
56.200	30.305	0.100
56.300	48.323	0.100
56.400	31.289	0.100
56.500	43.420	0.100
56.600	52.945	0.100
56.700	32.973	0.100
56.800	32.316	0.100
56.900	42.307	0.100
57.000	32.670	0.100
57.100	41.520	0.100
57.200	34.874	0.100
57.300	42.355	0.100
57.400	46.727	0.100
57.500	26.527	0.100
57.600	25.410	0.100
57.700	45.001	0.100
57.800	52.220	0.100
57.900	33.398	0.100
58.000	47.098	0.100
58.100	40.372	0.100
58.200	36.881	0.100
58.300	38.889	0.100
58.400	41.482	0.100
58.500	36.398	0.100
58.600	28.348	0.100
58.700	31.220	0.100
58.800	52.338	0.100
58.900	34.358	0.100
59.000	40.378	0.100
59.100	34.437	0.100
59.200	45.865	0.100
59.300	30.974	0.100
59.400	42.207	0.100
59.500	35.100	0.100
59.600	47.694	0.100
59.700	50.369	0.100
59.800	52.797	0.100
59.900	42.495	0.100
60.000	41.975	0.100
60.100	34.889	0.100
60.200	45.967	0.100
60.300	44.484	0.100
60.400	31.096	0.100
60.500	33.771	0.100
60.600	35.363	0.100
60.700	50.502	0.100
60.800	39.467	0.100
60.900	46.253	0.100
61.000	47.772	0.100
61.100	35.043	0.100
61.200	48.551	0.100
61.300	33.235	0.100
61.400	38.226	0.100
61.500	48.401	0.100
61.600	43.807	0.100
61.700	34.165	0.100
61.800	49.692	0.100
61.900	42.235	0.100
62.000	51.478	0.100
62.100	40.398	0.100
62.200	54.573	0.100
62.300	50.020	0.100
62.400	36.187	0.100
62.500	32.530	0.100
62.600	46.528	0.100
62.700	37.962	0.100
62.800	38.593	0.100
62.900	30.572	0.100
63.000	49.606	0.100
63.100	47.880	0.100
63.200	38.081	0.100
63.300	57.733	0.100
63.400	39.410	0.100
63.500	29.498	0.100
63.600	53.508	0.100
63.700	46.130	0.100
63.800	52.690	0.100
63.900	38.887	0.100
64.000	55.507	0.100
64.100	38.450	0.100
64.200	31.162	0.100
64.300	30.152	0.100
64.400	50.176	0.100
64.500	51.994	0.100
64.600	49.716	0.100
64.700	53.992	0.100
64.800	53.728	0.100
64.900	36.073	0.100
65.000	41.232	0.100
65.100	53.132	0.100
65.200	46.575	0.100
65.300	29.309	0.100
65.400	36.348	0.100
65.500	55.957	0.100
65.600	58.328	0.100
65.700	47.405	0.100
65.800	49.149	0.100
65.900	35.819	0.100
66.000	44.167	0.100
66.100	54.610	0.100
66.200	46.911	0.100
66.300	41.827	0.100
66.400	62.090	0.100
66.500	48.183	0.100
66.600	47.666	0.100
66.700	43.881	0.100
66.800	38.362	0.100
66.900	51.935	0.100
67.000	54.758	0.100
67.100	46.374	0.100
67.200	31.680	0.100
67.300	44.681	0.100
67.400	52.114	0.100
67.500	41.607	0.100
67.600	42.777	0.100
67.700	41.885	0.100
67.800	48.738	0.100
67.900	44.106	0.100
68.000	49.909	0.100
68.100	45.351	0.100
68.200	47.909	0.100
68.300	42.076	0.100
68.400	45.506	0.100
68.500	57.710	0.100
68.600	62.984	0.100
68.700	46.127	0.100
68.800	48.725	0.100
68.900	47.309	0.100
69.000	64.458	0.100
69.100	53.979	0.100
69.200	39.294	0.100
69.300	43.844	0.100
69.400	54.900	0.100
69.500	58.564	0.100
69.600	40.547	0.100
69.700	43.445	0.100
69.800	58.674	0.100
69.900	49.921	0.100
70.000	44.141	0.100
70.100	50.165	0.100
70.200	40.067	0.100
70.300	51.326	0.100
70.400	59.667	0.100
70.500	42.728	0.100
70.600	49.957	0.100
70.700	40.627	0.100
70.800	32.145	0.100
70.900	47.259	0.100
71.000	61.198	0.100
71.100	49.598	0.100
71.200	61.627	0.100
71.300	48.652	0.100
71.400	56.805	0.100
71.500	51.454	0.100
71.600	57.668	0.100
71.700	48.255	0.100
71.800	34.352	0.100
71.900	50.531	0.100
72.000	58.757	0.100
72.100	64.071	0.100
72.200	43.722	0.100
72.300	48.147	0.100
72.400	57.667	0.100
72.500	45.685	0.100
72.600	52.128	0.100
72.700	52.130	0.100
72.800	52.396	0.100
72.900	35.297	0.100
73.000	54.711	0.100
73.100	43.470	0.100
73.200	59.439	0.100
73.300	53.947	0.100
73.400	64.181	0.100
73.500	49.007	0.100
73.600	43.707	0.100
73.700	38.044	0.100
73.800	49.255	0.100
73.900	43.020	0.100
74.000	58.529	0.100
74.100	42.163	0.100
74.200	48.861	0.100
74.300	59.833	0.100
74.400	52.390	0.100
74.500	69.384	0.100
74.600	57.407	0.100
74.700	49.738	0.100
74.800	47.388	0.100
74.900	53.838	0.100
75.000	55.800	0.100
75.100	50.681	0.100
75.200	57.799	0.100
75.300	69.176	0.100
75.400	46.794	0.100
75.500	45.265	0.100
75.600	57.300	0.100
75.700	56.882	0.100
75.800	67.369	0.100
75.900	48.968	0.100
76.000	56.661	0.100
76.100	40.807	0.100
76.200	55.545	0.100
76.300	61.394	0.100
76.400	46.566	0.100
76.500	53.851	0.100
76.600	42.987	0.100
76.700	59.758	0.100
76.800	56.081	0.100
76.900	51.671	0.100
77.000	48.696	0.100
77.100	54.357	0.100
77.200	47.268	0.100
77.300	59.059	0.100
77.400	59.465	0.100
77.500	40.140	0.100
77.600	41.307	0.100
77.700	64.797	0.100
77.800	42.531	0.100
77.900	53.254	0.100
78.000	57.464	0.100
78.100	48.561	0.100
78.200	59.632	0.100
78.300	54.966	0.100
78.400	55.170	0.100
78.500	49.548	0.100
78.600	46.327	0.100
78.700	46.281	0.100
78.800	45.531	0.100
78.900	60.955	0.100
79.000	56.053	0.100
79.100	57.477	0.100
79.200	68.169	0.100
79.300	84.152	0.100
79.400	66.705	0.100
79.500	51.939	0.100
79.600	56.077	0.100
79.700	47.663	0.100
79.800	52.417	0.100
79.900	51.080	0.100
80.000	67.209	0.100
80.100	59.962	0.100
80.200	60.889	0.100
80.300	59.003	0.100
80.400	45.113	0.100
80.500	49.454	0.100
80.600	55.940	0.100
80.700	57.326	0.100
80.800	53.595	0.100
80.900	54.907	0.100
81.000	64.133	0.100
81.100	57.127	0.100
81.200	59.022	0.100
81.300	54.132	0.100
81.400	58.956	0.100
81.500	61.232	0.100
81.600	55.737	0.100
81.700	64.339	0.100
81.800	57.186	0.100
81.900	54.240	0.100
82.000	53.165	0.100
82.100	44.586	0.100
82.200	53.171	0.100
82.300	68.195	0.100
82.400	67.328	0.100
82.500	63.300	0.100
82.600	66.927	0.100
82.700	51.792	0.100
82.800	60.533	0.100
82.900	56.443	0.100
83.000	59.166	0.100
83.100	61.608	0.100
83.200	58.030	0.100
83.300	48.170	0.100
83.400	47.277	0.100
83.500	50.200	0.100
83.600	55.072	0.100
83.700	60.195	0.100
83.800	62.241	0.100
83.900	49.969	0.100
84.000	54.788	0.100
84.100	55.213	0.100
84.200	54.307	0.100
84.300	61.508	0.100
84.400	49.222	0.100
84.500	52.483	0.100
84.600	71.153	0.100
84.700	55.215	0.100
84.800	66.520	0.100
84.900	63.069	0.100
85.000	49.691	0.100
85.100	46.117	0.100
85.200	42.161	0.100
85.300	69.146	0.100
85.400	57.179	0.100
85.500	51.941	0.100
85.600	54.074	0.100
85.700	58.264	0.100
85.800	62.593	0.100
85.900	66.607	0.100
86.000	57.146	0.100
86.100	48.563	0.100
86.200	56.596	0.100
86.300	53.569	0.100
86.400	54.723	0.100
86.500	63.758	0.100
86.600	53.079	0.100
86.700	62.300	0.100
86.800	60.793	0.100
86.900	58.336	0.100
87.000	68.207	0.100
87.100	56.520	0.100
87.200	58.893	0.100
87.300	58.764	0.100
87.400	68.486	0.100
87.500	61.959	0.100
87.600	55.457	0.100
87.700	48.736	0.100
87.800	45.125	0.100
87.900	48.605	0.100
88.000	68.614	0.100
88.100	57.825	0.100
88.200	56.454	0.100
88.300	55.260	0.100
88.400	38.154	0.100
88.500	51.695	0.100
88.600	57.151	0.100
88.700	57.895	0.100
88.800	56.019	0.100
88.900	59.771	0.100
89.000	65.943	0.100
89.100	76.499	0.100
89.200	53.525	0.100
89.300	58.388	0.100
89.400	66.310	0.100
89.500	52.604	0.100
89.600	72.562	0.100
89.700	52.062	0.100
89.800	51.748	0.100
89.900	52.453	0.100
90.000	62.035	0.100
90.100	60.977	0.100
90.200	61.926	0.100
90.300	62.155	0.100
90.400	50.304	0.100
90.500	67.344	0.100
90.600	60.825	0.100
90.700	60.976	0.100
90.800	55.557	0.100
90.900	56.773	0.100
91.000	45.476	0.100
91.100	54.661	0.100
91.200	48.798	0.100
91.300	47.446	0.100
91.400	59.739	0.100
91.500	46.820	0.100
91.600	42.630	0.100
91.700	49.016	0.100
91.800	40.057	0.100
91.900	52.413	0.100
92.000	48.372	0.100
92.100	46.189	0.100
92.200	42.467	0.100
92.300	36.519	0.100
92.400	41.182	0.100
92.500	37.851	0.100
92.600	49.412	0.100
92.700	39.423	0.100
92.800	40.013	0.100
92.900	45.190	0.100
93.000	40.257	0.100
93.100	42.093	0.100
93.200	38.712	0.100
93.300	33.909	0.100
93.400	45.056	0.100
93.500	40.165	0.100
93.600	38.477	0.100
93.700	39.359	0.100
93.800	42.345	0.100
93.900	30.297	0.100
94.000	25.755	0.100
94.100	32.235	0.100
94.200	26.854	0.100
94.300	45.248	0.100
94.400	48.078	0.100
94.500	38.551	0.100
94.600	34.626	0.100
94.700	27.778	0.100
94.800	40.273	0.100
94.900	39.745	0.100
95.000	35.049	0.100
95.100	34.236	0.100
95.200	27.293	0.100
95.300	21.440	0.100
95.400	41.946	0.100
95.500	20.923	0.100
95.600	43.091	0.100
95.700	29.036	0.100
95.800	34.440	0.100
95.900	39.041	0.100
96.000	29.194	0.100
96.100	26.899	0.100
96.200	30.274	0.100
96.300	23.628	0.100
96.400	27.045	0.100
96.500	35.300	0.100
96.600	27.779	0.100
96.700	34.152	0.100
96.800	13.598	0.100
96.900	24.121	0.100
97.000	22.167	0.100
97.100	29.543	0.100
97.200	34.506	0.100
97.300	27.418	0.100
97.400	31.436	0.100
97.500	32.461	0.100
97.600	28.210	0.100
97.700	33.808	0.100
97.800	26.955	0.100
97.900	19.020	0.100
98.000	28.922	0.100
98.100	31.837	0.100
98.200	21.426	0.100
98.300	17.228	0.100
98.400	26.790	0.100
98.500	30.256	0.100
98.600	8.648	0.100
98.700	22.615	0.100
98.800	19.967	0.100
98.900	24.907	0.100
99.000	33.995	0.100
99.100	31.999	0.100
99.200	27.664	0.100
99.300	21.898	0.100
99.400	24.464	0.100
99.500	32.934	0.100
99.600	27.584	0.100
99.700	10.246	0.100
99.800	23.048	0.100
99.900	34.414	0.100
100.000	24.988	0.100
100.100	34.938	0.100
100.200	35.444	0.100
100.300	31.601	0.100
100.400	22.902	0.100
100.500	23.745	0.100
100.600	26.804	0.100
100.700	29.420	0.100
100.800	22.038	0.100
100.900	13.353	0.100
101.000	20.560	0.100
101.100	20.475	0.100
101.200	19.311	0.100
101.300	25.139	0.100
101.400	35.398	0.100
101.500	23.815	0.100
101.600	21.248	0.100
101.700	20.666	0.100
101.800	28.814	0.100
101.900	24.292	0.100
102.000	9.012	0.100
102.100	29.088	0.100
102.200	14.301	0.100
102.300	11.382	0.100
102.400	14.704	0.100
102.500	20.034	0.100
102.600	21.166	0.100
102.700	25.648	0.100
102.800	21.290	0.100
102.900	7.322	0.100
103.000	19.647	0.100
103.100	10.517	0.100
103.200	21.601	0.100
103.300	6.723	0.100
103.400	10.656	0.100
103.500	27.299	0.100
103.600	29.557	0.100
103.700	21.677	0.100
103.800	12.658	0.100
103.900	20.375	0.100
104.000	10.334	0.100
104.100	32.675	0.100
104.200	25.384	0.100
104.300	27.350	0.100
104.400	17.967	0.100
104.500	18.465	0.100
104.600	16.734	0.100
104.700	19.927	0.100
104.800	15.691	0.100
104.900	27.206	0.100
105.000	9.685	0.100
105.100	3.279	0.100
105.200	6.682	0.100
105.300	20.773	0.100
105.400	12.032	0.100
105.500	16.781	0.100
105.600	19.648	0.100
105.700	8.359	0.100
105.800	-3.786	0.100
105.900	16.869	0.100
106.000	21.443	0.100
106.100	25.035	0.100
106.200	21.370	0.100
106.300	20.405	0.100
106.400	13.067	0.100
106.500	14.275	0.100
106.600	16.470	0.100
106.700	9.895	0.100
106.800	2.280	0.100
106.900	2.555	0.100
107.000	24.406	0.100
107.100	18.840	0.100
107.200	17.986	0.100
107.300	9.155	0.100
107.400	17.363	0.100
107.500	5.983	0.100
107.600	0.171	0.100
107.700	20.883	0.100
107.800	25.088	0.100
107.900	7.209	0.100
108.000	11.093	0.100
108.100	27.905	0.100
108.200	10.012	0.100
108.300	9.540	0.100
108.400	4.145	0.100
108.500	22.502	0.100
108.600	13.707	0.100
108.700	4.742	0.100
108.800	4.795	0.100
108.900	5.574	0.100
109.000	18.822	0.100
109.100	13.631	0.100
109.200	18.830	0.100
109.300	18.019	0.100
109.400	13.855	0.100
109.500	-2.830	0.100
109.600	24.554	0.100
109.700	9.045	0.100
109.800	8.366	0.100
109.900	9.847	0.100
110.000	4.134	0.100
110.100	25.664	0.100
110.200	22.801	0.100
110.300	0.214	0.100
110.400	3.690	0.100
110.500	11.069	0.100
110.600	12.769	0.100
110.700	18.392	0.100
110.800	-4.809	0.100
110.900	2.767	0.100
111.000	6.652	0.100
111.100	17.393	0.100
111.200	15.512	0.100
111.300	10.804	0.100
111.400	5.299	0.100
111.500	7.662	0.100
111.600	4.053	0.100
111.700	12.836	0.100
111.800	2.284	0.100
111.900	5.664	0.100
112.000	3.406	0.100
112.100	11.960	0.100
112.200	2.671	0.100
112.300	3.636	0.100
112.400	11.642	0.100
112.500	9.152	0.100
112.600	23.559	0.100
112.700	13.543	0.100
112.800	-8.359	0.100
112.900	13.850	0.100
113.000	13.893	0.100
113.100	-9.441	0.100
113.200	7.467	0.100
113.300	18.622	0.100
113.400	1.280	0.100
113.500	0.297	0.100
113.600	10.224	0.100
113.700	3.069	0.100
113.800	3.883	0.100
113.900	1.657	0.100
114.000	4.017	0.100
114.100	6.313	0.100
114.200	9.999	0.100
114.300	10.297	0.100
114.400	-9.044	0.100
114.500	13.397	0.100
114.600	9.214	0.100
114.700	15.887	0.100
114.800	7.013	0.100
114.900	9.085	0.100
115.000	-1.544	0.100
115.100	0.143	0.100
115.200	8.724	0.100
115.300	10.220	0.100
115.400	2.298	0.100
115.500	-6.639	0.100
115.600	-8.885	0.100
115.700	3.919	0.100
115.800	5.749	0.100
115.900	9.577	0.100
116.000	8.024	0.100
116.100	9.462	0.100
116.200	6.700	0.100
116.300	1.810	0.100
116.400	5.544	0.100
116.500	10.861	0.100
116.600	4.630	0.100
116.700	9.443	0.100
116.800	2.602	0.100
116.900	8.664	0.100
117.000	5.864	0.100
117.100	4.633	0.100
117.200	6.393	0.100
117.300	9.831	0.100
117.400	-9.027	0.100
117.500	6.143	0.100
117.600	9.215	0.100
117.700	-10.713	0.100
117.800	11.765	0.100
117.900	4.909	0.100
118.000	-10.184	0.100
118.100	-3.007	0.100
118.200	-0.765	0.100
118.300	-6.727	0.100
118.400	0.193	0.100
118.500	-0.725	0.100
118.600	5.539	0.100
118.700	15.279	0.100
118.800	9.428	0.100
118.900	-1.374	0.100
119.000	0.366	0.100
119.100	-6.668	0.100
119.200	-1.332	0.100
119.300	-13.701	0.100
119.400	-3.876	0.100
119.500	-10.713	0.100
119.600	4.576	0.100
119.700	-3.097	0.100
119.800	13.466	0.100
119.900	-7.603	0.100
120.000	5.811	0.100
120.100	-1.018	0.100
120.200	2.857	0.100
120.300	1.348	0.100
120.400	2.329	0.100
120.500	-18.392	0.100
120.600	0.392	0.100
120.700	7.226	0.100
120.800	0.554	0.100
120.900	-2.043	0.100
121.000	-11.218	0.100
121.100	-19.207	0.100
121.200	-2.058	0.100
121.300	-0.035	0.100
121.400	8.570	0.100
121.500	1.603	0.100
121.600	-18.112	0.100
121.700	12.602	0.100
121.800	8.471	0.100
121.900	1.113	0.100
122.000	-9.110	0.100
122.100	-8.932	0.100
122.200	-13.991	0.100
122.300	5.342	0.100
122.400	7.523	0.100
122.500	-6.096	0.100
122.600	-14.994	0.100
122.700	-13.561	0.100
122.800	0.754	0.100
122.900	0.432	0.100
123.000	-8.614	0.100
123.100	-11.224	0.100
123.200	-2.111	0.100
123.300	-13.392	0.100
123.400	-8.578	0.100
123.500	0.876	0.100
123.600	-4.577	0.100
123.700	-9.592	0.100
123.800	10.706	0.100
123.900	-3.804	0.100
124.000	-3.020	0.100
124.100	-6.398	0.100
124.200	-15.390	0.100
124.300	3.512	0.100
124.400	-8.307	0.100
124.500	-6.672	0.100
124.600	-18.264	0.100
124.700	-6.726	0.100
124.800	-4.507	0.100
124.900	-5.107	0.100
125.000	-3.902	0.100
125.100	3.449	0.100
125.200	-11.046	0.100
125.300	-1.947	0.100
125.400	-8.333	0.100
125.500	-3.946	0.100
125.600	-8.481	0.100
125.700	-8.857	0.100
125.800	-5.967	0.100
125.900	5.231	0.100
126.000	7.474	0.100
126.100	-13.390	0.100
126.200	0.119	0.100
126.300	-4.637	0.100
126.400	-3.004	0.100
126.500	-1.950	0.100
126.600	-5.808	0.100
126.700	-10.568	0.100
126.800	-16.648	0.100
126.900	9.278	0.100
127.000	1.934	0.100
127.100	-15.361	0.100
127.200	-8.192	0.100
127.300	-6.355	0.100
127.400	-5.717	0.100
127.500	-6.216	0.100
127.600	1.443	0.100
127.700	-3.206	0.100
127.800	-5.142	0.100
127.900	-8.166	0.100
128.000	-11.376	0.100
128.100	-6.374	0.100
128.200	-10.538	0.100
128.300	1.885	0.100
128.400	-5.696	0.100
128.500	-10.425	0.100
128.600	-7.941	0.100
128.700	-15.106	0.100
128.800	-18.737	0.100
128.900	-6.931	0.100
129.000	1.615	0.100
129.100	-3.940	0.100
129.200	-10.248	0.100
129.300	-12.685	0.100
129.400	0.671	0.100
129.500	-19.044	0.100
129.600	-11.183	0.100
129.700	-15.792	0.100
129.800	-11.410	0.100
129.900	-2.869	0.100
130.000	-10.293	0.100
130.100	-18.572	0.100
130.200	-12.682	0.100
130.300	-16.422	0.100
130.400	1.134	0.100
130.500	-13.160	0.100
130.600	-16.495	0.100
130.700	-5.805	0.100
130.800	-2.332	0.100
130.900	-11.973	0.100
131.000	-6.486	0.100
131.100	-14.801	0.100
131.200	-7.610	0.100
131.300	-16.326	0.100
131.400	-9.489	0.100
131.500	-15.082	0.100
131.600	-3.382	0.100
131.700	-12.033	0.100
131.800	-11.066	0.100
131.900	-10.079	0.100
132.000	-9.846	0.100
132.100	4.361	0.100
132.200	-10.754	0.100
132.300	-12.592	0.100
132.400	-5.189	0.100
132.500	-7.456	0.100
132.600	1.369	0.100
132.700	-14.367	0.100
132.800	-3.602	0.100
132.900	-23.027	0.100
133.000	-4.617	0.100
133.100	-7.984	0.100
133.200	-18.388	0.100
133.300	-8.956	0.100
133.400	-1.995	0.100
133.500	-7.955	0.100
133.600	-16.255	0.100
133.700	-10.599	0.100
133.800	-21.550	0.100
133.900	-5.656	0.100
134.000	-5.691	0.100
134.100	-19.752	0.100
134.200	-4.397	0.100
134.300	-11.541	0.100
134.400	-30.017	0.100
134.500	2.132	0.100
134.600	-9.666	0.100
134.700	-16.215	0.100
134.800	-17.636	0.100
134.900	2.800	0.100
135.000	-15.976	0.100
135.100	-16.913	0.100
135.200	-17.602	0.100
135.300	-20.380	0.100
135.400	-23.546	0.100
135.500	-17.142	0.100
135.600	-4.511	0.100
135.700	-5.273	0.100
135.800	-15.843	0.100
135.900	-3.823	0.100
136.000	-9.706	0.100
136.100	-18.087	0.100
136.200	-23.384	0.100
136.300	-27.895	0.100
136.400	-5.937	0.100
136.500	-8.857	0.100
136.600	-11.919	0.100
136.700	-5.998	0.100
136.800	-10.860	0.100
136.900	-22.916	0.100
137.000	-17.797	0.100
137.100	-16.903	0.100
137.200	-11.467	0.100
137.300	-13.870	0.100
137.400	-19.950	0.100
137.500	-17.859	0.100
137.600	-19.818	0.100
137.700	-5.657	0.100
137.800	-19.377	0.100
137.900	-4.663	0.100
138.000	-10.936	0.100
138.100	-8.281	0.100
138.200	-3.324	0.100
138.300	-15.022	0.100
138.400	-16.293	0.100
138.500	-11.591	0.100
138.600	-14.618	0.100
138.700	-22.114	0.100
138.800	-19.438	0.100
138.900	-13.940	0.100
139.000	-11.891	0.100
139.100	-9.140	0.100
139.200	-11.087	0.100
139.300	-13.593	0.100
139.400	-8.404	0.100
139.500	-16.823	0.100
139.600	-13.400	0.100
139.700	-20.265	0.100
139.800	-11.211	0.100
139.900	-4.621	0.100
140.000	-25.433	0.100
140.100	-18.605	0.100
140.200	-16.125	0.100
140.300	-20.787	0.100
140.400	-21.935	0.100
140.500	-3.080	0.100
140.600	-8.105	0.100
140.700	-21.252	0.100
140.800	-17.162	0.100
140.900	-21.102	0.100
141.000	-14.809	0.100
141.100	-4.024	0.100
141.200	-11.364	0.100
141.300	-9.998	0.100
141.400	-10.685	0.100
141.500	-20.796	0.100
141.600	-11.398	0.100
141.700	-14.503	0.100
141.800	-22.931	0.100
141.900	-16.190	0.100
142.000	-15.413	0.100
142.100	-23.273	0.100
142.200	-18.410	0.100
142.300	-22.089	0.100
142.400	-13.129	0.100
142.500	-13.981	0.100
142.600	-4.170	0.100
142.700	-7.242	0.100
142.800	-8.969	0.100
142.900	-13.379	0.100
143.000	-16.751	0.100
143.100	-24.519	0.100
143.200	-14.594	0.100
143.300	-14.305	0.100
143.400	-9.472	0.100
143.500	-18.637	0.100
143.600	-19.730	0.100
143.700	-14.639	0.100
143.800	-23.079	0.100
143.900	-6.408	0.100
144.000	-20.445	0.100
144.100	-15.496	0.100
144.200	-0.301	0.100
144.300	-11.036	0.100
144.400	-23.074	0.100
144.500	-12.858	0.100
144.600	-5.959	0.100
144.700	-3.578	0.100
144.800	-20.350	0.100
144.900	-18.521	0.100
145.000	-23.598	0.100
145.100	-18.362	0.100
145.200	-17.354	0.100
145.300	-16.378	0.100
145.400	-6.720	0.100
145.500	-23.672	0.100
145.600	-6.881	0.100
145.700	-23.932	0.100
145.800	-5.304	0.100
145.900	-8.795	0.100
146.000	-11.185	0.100
146.100	-13.534	0.100
146.200	-14.512	0.100
146.300	-25.851	0.100
146.400	-22.353	0.100
146.500	-17.243	0.100
146.600	-17.109	0.100
146.700	-11.471	0.100
146.800	-12.934	0.100
146.900	-28.084	0.100
147.000	-21.858	0.100
147.100	-15.400	0.100
147.200	-20.414	0.100
147.300	-27.543	0.100
147.400	-20.894	0.100
147.500	-10.319	0.100
147.600	-15.200	0.100
147.700	-17.665	0.100
147.800	-26.702	0.100
147.900	-20.874	0.100
148.000	-19.614	0.100
148.100	-5.515	0.100
148.200	-17.398	0.100
148.300	-13.095	0.100
148.400	-11.361	0.100
148.500	-1.012	0.100
148.600	-7.460	0.100
148.700	-12.740	0.100
148.800	-9.708	0.100
148.900	-16.090	0.100
149.000	-21.559	0.100
149.100	-20.578	0.100
149.200	-23.385	0.100
149.300	-18.533	0.100
149.400	-17.374	0.100
149.500	-12.990	0.100
149.600	-23.364	0.100
149.700	-5.325	0.100
149.800	-14.610	0.100
149.900	-22.744	0.100
150.000	-20.568	0.100
150.100	-7.237	0.100
150.200	-15.806	0.100
150.300	-25.208	0.100
150.400	-9.740	0.100
150.500	-19.128	0.100
150.600	-10.062	0.100
150.700	-15.522	0.100
150.800	-18.564	0.100
150.900	-11.450	0.100
151.000	-13.343	0.100
151.100	-11.944	0.100
151.200	-18.281	0.100
151.300	-24.300	0.100
151.400	-28.111	0.100
151.500	-12.934	0.100
151.600	-7.924	0.100
151.700	-9.018	0.100
151.800	-15.190	0.100
151.900	-19.504	0.100
152.000	-7.902	0.100
152.100	-0.337	0.100
152.200	-10.397	0.100
152.300	-26.513	0.100
152.400	-13.664	0.100
152.500	-19.958	0.100
152.600	-30.436	0.100
152.700	-13.316	0.100
152.800	-5.742	0.100
152.900	-21.506	0.100
153.000	-25.711	0.100
153.100	-10.879	0.100
153.200	-27.505	0.100
153.300	-21.974	0.100
153.400	-13.963	0.100
153.500	-11.186	0.100
153.600	-21.860	0.100
153.700	-10.580	0.100
153.800	-18.785	0.100
153.900	-15.368	0.100
154.000	-28.571	0.100
154.100	-4.301	0.100
154.200	-16.818	0.100
154.300	-17.497	0.100
154.400	-34.532	0.100
154.500	-12.996	0.100
154.600	-7.260	0.100
154.700	-4.762	0.100
154.800	-26.342	0.100
154.900	-8.940	0.100
155.000	-12.829	0.100
155.100	-15.180	0.100
155.200	-9.264	0.100
155.300	-24.277	0.100
155.400	-14.465	0.100
155.500	-38.971	0.100
155.600	-29.975	0.100
155.700	2.566	0.100
155.800	-4.615	0.100
155.900	-14.083	0.100
156.000	-11.415	0.100
156.100	-16.022	0.100
156.200	-18.714	0.100
156.300	-10.149	0.100
156.400	-9.295	0.100
156.500	-5.870	0.100
156.600	-12.944	0.100
156.700	-18.921	0.100
156.800	-10.300	0.100
156.900	-24.254	0.100
157.000	-27.970	0.100
157.100	-16.596	0.100
157.200	-7.639	0.100
157.300	-9.461	0.100
157.400	-13.756	0.100
157.500	-10.262	0.100
157.600	-22.532	0.100
157.700	-19.069	0.100
157.800	-23.872	0.100
157.900	-14.142	0.100
158.000	-10.915	0.100
158.100	-14.866	0.100
158.200	-14.974	0.100
158.300	-16.154	0.100
158.400	-15.719	0.100
158.500	-17.657	0.100
158.600	-22.327	0.100
158.700	-14.489	0.100
158.800	-19.563	0.100
158.900	-18.005	0.100
159.000	-14.010	0.100
159.100	-17.388	0.100
159.200	-15.657	0.100
159.300	-15.098	0.100
159.400	-19.227	0.100
159.500	-11.493	0.100
159.600	-18.340	0.100
159.700	-24.201	0.100
159.800	-8.426	0.100
159.900	-12.330	0.100
160.000	-20.574	0.100
160.100	-18.642	0.100
160.200	-12.082	0.100
160.300	-10.814	0.100
160.400	-11.727	0.100
160.500	-15.085	0.100
160.600	-22.762	0.100
160.700	-19.088	0.100
160.800	-15.628	0.100
160.900	-14.166	0.100
161.000	-16.283	0.100
161.100	-23.823	0.100
161.200	-21.254	0.100
161.300	-34.815	0.100
161.400	-14.199	0.100
161.500	-11.744	0.100
161.600	-22.429	0.100
161.700	-22.188	0.100
161.800	-15.077	0.100
161.900	-9.421	0.100
162.000	-2.885	0.100
162.100	-9.334	0.100
162.200	-26.318	0.100
162.300	-17.986	0.100
162.400	-19.140	0.100
162.500	-13.348	0.100
162.600	-23.701	0.100
162.700	-22.014	0.100
162.800	-18.861	0.100
162.900	-17.785	0.100
163.000	-5.202	0.100
163.100	-6.345	0.100
163.200	-11.075	0.100
163.300	-13.361	0.100
163.400	-9.853	0.100
163.500	-14.019	0.100
163.600	-9.629	0.100
163.700	-19.059	0.100
163.800	-20.905	0.100
163.900	-25.443	0.100
164.000	-12.169	0.100
164.100	-15.113	0.100
164.200	-11.527	0.100
164.300	-18.982	0.100
164.400	-25.024	0.100
164.500	-20.260	0.100
164.600	-14.180	0.100
164.700	-8.351	0.100
164.800	-24.978	0.100
164.900	-21.116	0.100
165.000	-20.743	0.100
165.100	-23.318	0.100
165.200	-11.144	0.100
165.300	-16.944	0.100
165.400	-7.084	0.100
165.500	-17.526	0.100
165.600	-15.485	0.100
165.700	-8.927	0.100
165.800	-18.878	0.100
165.900	-26.872	0.100
166.000	-14.354	0.100
166.100	-18.730	0.100
166.200	-18.730	0.100
166.300	-17.867	0.100
166.400	-14.857	0.100
166.500	-15.039	0.100
166.600	-27.566	0.099
166.700	-21.777	0.099
166.800	-20.970	0.100
166.900	-17.273	0.100
167.000	-17.292	0.099
167.100	-13.508	0.100
167.200	-9.070	0.100
167.300	-19.296	0.100
167.400	-17.039	0.100
167.500	-22.746	0.099
167.600	-9.955	0.100
167.700	-13.161	0.099
167.800	-9.066	0.100
167.900	-30.035	0.100
168.000	-17.974	0.100
168.100	-7.300	0.099
168.200	-15.221	0.099
168.300	-16.792	0.100
168.400	-9.365	0.100
168.500	-19.710	0.100
168.600	-24.864	0.099
168.700	-17.356	0.100
168.800	-12.913	0.100
168.900	-21.067	0.100
169.000	-11.233	0.100
169.100	-10.398	0.099
169.200	-22.748	0.100
169.300	-22.401	0.100
169.400	-25.680	0.099
169.500	-10.082	0.099
169.600	-15.227	0.099
169.700	-17.146	0.099
169.800	-17.195	0.099
169.900	-19.450	0.099
170.000	-10.682	0.099
170.100	-6.567	0.099
170.200	-14.832	0.099
170.300	-12.232	0.100
170.400	-23.558	0.099
170.500	-8.154	0.099
170.600	-13.915	0.099
170.700	-20.686	0.099
170.800	-19.952	0.099
170.900	1.497	0.099
171.000	-18.015	0.099
171.100	-10.381	0.099
171.200	-20.412	0.099
171.300	-26.760	0.099
171.400	-29.438	0.099
171.500	-8.503	0.099
171.600	-24.013	0.099
171.700	-22.839	0.099
171.800	-4.922	0.099
171.900	-19.161	0.099
172.000	-20.520	0.099
172.100	-22.731	0.099
172.200	-23.401	0.099
172.300	-25.474	0.099
172.400	-24.201	0.099
172.500	-13.266	0.099
172.600	-17.962	0.099
172.700	-4.480	0.099
172.800	4.181	0.099
172.900	-12.632	0.099
173.000	-13.767	0.099
173.100	-13.653	0.099
173.200	-11.792	0.099
173.300	-9.938	0.099
173.400	-14.547	0.099
173.500	-8.951	0.099
173.600	-17.823	0.099
173.700	-26.012	0.099
173.800	-8.591	0.099
173.900	0.026	0.099
174.000	-22.228	0.099
174.100	-18.391	0.099
174.200	-14.537	0.099
174.300	-9.950	0.099
174.400	-20.821	0.099
174.500	-12.471	0.099
174.600	-12.960	0.099
174.700	-12.354	0.099
174.800	-21.683	0.099
174.900	-26.520	0.099
175.000	-9.169	0.099
175.100	-20.416	0.099
175.200	-17.243	0.099
175.300	-14.365	0.099
175.400	-25.917	0.099
175.500	-33.183	0.099
175.600	-20.527	0.099
175.700	-24.233	0.099
175.800	-16.048	0.099
175.900	-16.691	0.099
176.000	-16.378	0.099
176.100	-13.120	0.099
176.200	-14.737	0.099
176.300	-22.654	0.099
176.400	-2.036	0.099
176.500	-10.681	0.099
176.600	-10.812	0.099
176.700	-17.258	0.099
176.800	-24.320	0.099
176.900	-14.991	0.099
177.000	-22.287	0.099
177.100	-19.748	0.099
177.200	-18.950	0.099
177.300	-23.053	0.099
177.400	-18.307	0.099
177.500	-9.180	0.099
177.600	-21.852	0.099
177.700	-15.741	0.099
177.800	-21.484	0.099
177.900	-22.588	0.099
178.000	-21.646	0.099
178.100	-27.642	0.099
178.200	-18.228	0.099
178.300	-12.865	0.099
178.400	-17.270	0.099
178.500	-19.022	0.099
178.600	-20.303	0.099
178.700	-18.281	0.099
178.800	-23.002	0.099
178.900	-13.617	0.099
179.000	-25.225	0.099
179.100	-14.235	0.099
179.200	-18.566	0.099
179.300	-19.568	0.099
179.400	-28.071	0.099
179.500	-18.285	0.099
179.600	-4.200	0.099
179.700	-18.179	0.099
179.800	-25.122	0.099
179.900	-19.290	0.099
180.000	-11.007	0.099
180.100	-22.281	0.099
180.200	-18.680	0.099
180.300	-16.096	0.099
180.400	-16.012	0.099
180.500	-18.645	0.099
180.600	-12.774	0.099
180.700	-30.184	0.099
180.800	-29.924	0.099
180.900	-14.088	0.099
181.000	0.423	0.099
181.100	-8.260	0.099
181.200	-12.243	0.099
181.300	-1.929	0.099
181.400	-7.738	0.099
181.500	-1.290	0.099
181.600	-10.838	0.099
181.700	-16.374	0.099
181.800	-0.189	0.099
181.900	2.546	0.099
182.000	-9.119	0.099
182.100	-3.347	0.099
182.200	9.906	0.099
182.300	-11.643	0.099
182.400	13.547	0.099
182.500	7.434	0.099
182.600	9.054	0.099
182.700	10.807	0.099
182.800	2.306	0.099
182.900	3.181	0.099
183.000	4.982	0.099
183.100	9.596	0.099
183.200	9.657	0.099
183.300	7.392	0.099
183.400	9.314	0.099
183.500	14.250	0.099
183.600	20.090	0.099
183.700	15.774	0.099
183.800	9.968	0.099
183.900	15.071	0.099
184.000	2.958	0.099
184.100	22.184	0.099
184.200	11.675	0.099
184.300	15.679	0.099
184.400	-2.288	0.099
184.500	15.509	0.099
184.600	12.347	0.099
184.700	6.675	0.099
184.800	16.014	0.099
184.900	3.436	0.099
185.000	7.118	0.099
185.100	16.008	0.099
185.200	18.332	0.099
185.300	12.229	0.099
185.400	8.723	0.099
185.500	20.066	0.099
185.600	35.525	0.099
185.700	23.817	0.099
185.800	13.246	0.099
185.900	10.972	0.099
186.000	25.112	0.099
186.100	10.425	0.099
186.200	13.599	0.099
186.300	8.442	0.099
186.400	15.011	0.099
186.500	23.420	0.099
186.600	20.435	0.099
186.700	22.215	0.099
186.800	23.215	0.099
186.900	22.213	0.099
187.000	16.089	0.099
187.100	11.368	0.099
187.200	16.429	0.099
187.300	12.447	0.099
187.400	18.695	0.099
187.500	15.563	0.099
187.600	15.863	0.099
187.700	25.664	0.099
187.800	7.049	0.099
187.900	25.078	0.099
188.000	21.697	0.099
188.100	11.753	0.099
188.200	17.928	0.099
188.300	12.083	0.099
188.400	7.290	0.099
188.500	26.968	0.099
188.600	14.257	0.099
188.700	19.817	0.099
188.800	27.275	0.099
188.900	18.853	0.099
189.000	22.252	0.099
189.100	22.661	0.099
189.200	11.346	0.099
189.300	27.137	0.099
189.400	11.973	0.099
189.500	20.020	0.099
189.600	24.218	0.099
189.700	15.851	0.099
189.800	16.736	0.099
189.900	12.088	0.099
190.000	15.733	0.099
190.100	23.282	0.099
190.200	22.461	0.099
190.300	20.548	0.099
190.400	15.059	0.099
190.500	24.598	0.099
190.600	23.504	0.099
190.700	25.366	0.099
190.800	17.463	0.099
190.900	19.981	0.099
191.000	20.705	0.099
191.100	24.416	0.099
191.200	20.114	0.099
191.300	16.773	0.099
191.400	22.295	0.099
191.500	28.617	0.099
191.600	31.947	0.099
191.700	16.263	0.099
191.800	27.154	0.099
191.900	25.864	0.099
192.000	9.034	0.099
192.100	16.897	0.099
192.200	20.173	0.099
192.300	19.543	0.099
192.400	22.983	0.099
192.500	28.702	0.099
192.600	30.254	0.099
192.700	29.002	0.099
192.800	19.543	0.099
192.900	30.580	0.099
193.000	24.873	0.099
193.100	32.888	0.099
193.200	21.135	0.099
193.300	27.261	0.099
193.400	7.861	0.099
193.500	16.650	0.099
193.600	20.955	0.099
193.700	35.759	0.099
193.800	32.884	0.099
193.900	23.178	0.099
194.000	14.763	0.099
194.100	27.318	0.099
194.200	20.752	0.099
194.300	37.233	0.099
194.400	43.131	0.099
194.500	19.660	0.099
194.600	35.160	0.099
194.700	27.001	0.099
194.800	25.856	0.099
194.900	34.131	0.099
195.000	27.668	0.099
195.100	31.216	0.099
195.200	23.680	0.099
195.300	28.024	0.099
195.400	33.397	0.099
195.500	14.866	0.099
195.600	23.475	0.099
195.700	21.873	0.099
195.800	23.011	0.099
195.900	21.974	0.099
196.000	34.306	0.099
196.100	30.106	0.099
196.200	16.819	0.099
196.300	24.269	0.099
196.400	32.905	0.099
196.500	31.658	0.099
196.600	36.190	0.099
196.700	28.477	0.099
196.800	28.471	0.099
196.900	35.883	0.099
197.000	33.166	0.099
197.100	29.028	0.099
197.200	30.289	0.099
197.300	29.527	0.099
197.400	24.681	0.099
197.500	33.549	0.099
197.600	33.474	0.099
197.700	35.620	0.099
197.800	26.174	0.099
197.900	23.462	0.099
198.000	24.515	0.099
198.100	48.052	0.099
198.200	40.905	0.099
198.300	26.702	0.099
198.400	30.643	0.099
198.500	32.777	0.099
198.600	31.255	0.099
198.700	24.488	0.099
198.800	25.852	0.099
198.900	34.020	0.099
199.000	38.190	0.099
199.100	42.120	0.099
199.200	23.774	0.099
199.300	24.026	0.099
199.400	34.477	0.099
199.500	28.211	0.099
199.600	37.125	0.099
199.700	24.341	0.099
199.800	46.213	0.099
199.900	27.341	0.099
200.000	39.380	0.099
200.100	35.838	0.099
200.200	43.844	0.099
200.300	29.234	0.099
200.400	36.478	0.099
200.500	32.087	0.099
200.600	29.859	0.099
200.700	38.939	0.099
200.800	34.151	0.099
200.900	43.311	0.099
201.000	27.490	0.099
201.100	40.808	0.099
201.200	33.691	0.099
201.300	36.875	0.099
201.400	42.172	0.099
201.500	39.213	0.099
201.600	23.924	0.099
201.700	39.668	0.099
201.800	33.809	0.099
201.900	38.717	0.099
202.000	37.965	0.099
202.100	46.532	0.099
202.200	32.671	0.099
202.300	39.133	0.099
202.400	41.201	0.099
202.500	40.220	0.099
202.600	37.321	0.099
202.700	39.606	0.099
202.800	40.745	0.099
202.900	33.777	0.099
203.000	31.945	0.099
203.100	24.395	0.099
203.200	44.823	0.099
203.300	41.277	0.099
203.400	40.602	0.099
203.500	42.971	0.099
203.600	27.162	0.099
203.700	42.428	0.099
203.800	26.698	0.099
203.900	34.456	0.099
204.000	41.163	0.099
204.100	31.517	0.099
204.200	34.004	0.099
204.300	43.037	0.099
204.400	45.300	0.099
204.500	50.066	0.099
204.600	43.883	0.099
204.700	37.829	0.099
204.800	44.064	0.099
204.900	28.381	0.099
205.000	42.301	0.099
205.100	24.699	0.099
205.200	36.750	0.099
205.300	54.108	0.099
205.400	55.594	0.099
205.500	45.194	0.099
205.600	35.289	0.099
205.700	32.907	0.099
205.800	39.740	0.099
205.900	46.772	0.099
206.000	31.861	0.099
206.100	32.734	0.099
206.200	38.332	0.099
206.300	40.580	0.099
206.400	43.634	0.099
206.500	48.922	0.099
206.600	45.719	0.099
206.700	32.171	0.099
206.800	38.555	0.099
206.900	56.753	0.099
207.000	50.068	0.099
207.100	39.695	0.099
207.200	34.796	0.099
207.300	45.799	0.099
207.400	41.814	0.099
207.500	39.310	0.099
207.600	44.822	0.099
207.700	40.031	0.099
207.800	44.127	0.099
207.900	49.340	0.099
208.000	42.328	0.099
208.100	35.598	0.099
208.200	43.518	0.099
208.300	51.004	0.099
208.400	49.812	0.099
208.500	39.836	0.099
208.600	42.188	0.099
208.700	23.725	0.099
208.800	41.643	0.099
208.900	38.264	0.099
209.000	43.376	0.099
209.100	31.801	0.099
209.200	49.259	0.099
209.300	52.699	0.099
209.400	47.471	0.099
209.500	36.222	0.099
209.600	41.043	0.099
209.700	59.235	0.099
209.800	42.169	0.099
209.900	42.298	0.099
210.000	56.739	0.099
210.100	37.735	0.099
210.200	40.241	0.099
210.300	47.720	0.099
210.400	54.406	0.099
210.500	37.162	0.099
210.600	52.730	0.099
210.700	50.119	0.099
210.800	50.015	0.099
210.900	48.057	0.099
211.000	55.160	0.099
211.100	40.992	0.099
211.200	40.476	0.099
211.300	46.454	0.099
211.400	37.531	0.099
211.500	48.812	0.099
211.600	45.411	0.099
211.700	45.732	0.099
211.800	53.661	0.099
211.900	60.883	0.099
212.000	50.748	0.099
212.100	42.769	0.099
212.200	53.587	0.099
212.300	52.239	0.099
212.400	45.415	0.099
212.500	41.469	0.099
212.600	51.618	0.099
212.700	48.190	0.099
212.800	52.018	0.099
212.900	45.017	0.099
213.000	44.409	0.099
213.100	55.578	0.099
213.200	48.021	0.099
213.300	48.240	0.099
213.400	32.606	0.099
213.500	55.849	0.099
213.600	52.067	0.099
213.700	56.965	0.099
213.800	50.219	0.099
213.900	55.666	0.099
214.000	46.785	0.099
214.100	54.861	0.099
214.200	49.575	0.099
214.300	41.794	0.099
214.400	53.629	0.099
214.500	44.683	0.099
214.600	45.351	0.099
214.700	52.247	0.099
214.800	52.777	0.099
214.900	45.179	0.099
215.000	42.459	0.099
215.100	40.058	0.099
215.200	53.261	0.099
215.300	51.873	0.099
215.400	61.844	0.099
215.500	48.989	0.099
215.600	48.387	0.099
215.700	55.164	0.099
215.800	55.118	0.099
215.900	48.304	0.099
216.000	48.366	0.099
216.100	45.348	0.099
216.200	50.779	0.099
216.300	39.797	0.099
216.400	56.916	0.099
216.500	64.754	0.099
216.600	51.876	0.099
216.700	47.369	0.099
216.800	56.791	0.099
216.900	48.528	0.099
217.000	61.646	0.099
217.100	51.754	0.099
217.200	53.742	0.099
217.300	43.357	0.099
217.400	48.932	0.099
217.500	48.031	0.099
217.600	54.283	0.099
217.700	48.612	0.099
217.800	53.772	0.099
217.900	50.462	0.099
218.000	46.482	0.099
218.100	59.778	0.099
218.200	63.441	0.099
218.300	53.411	0.099
218.400	52.199	0.099
218.500	53.345	0.099
218.600	52.328	0.099
218.700	42.604	0.099
218.800	58.419	0.099
218.900	45.732	0.099
219.000	57.968	0.099
219.100	68.476	0.099
219.200	55.297	0.099
219.300	60.239	0.099
219.400	61.046	0.099
219.500	45.597	0.099
219.600	51.600	0.099
219.700	46.499	0.099
219.800	51.552	0.100
219.900	67.704	0.100
220.000	67.392	0.100
220.100	63.378	0.100
220.200	56.588	0.100
220.300	50.604	0.100
220.400	48.232	0.100
220.500	61.264	0.100
220.600	53.899	0.100
220.700	48.918	0.100
220.800	44.212	0.100
220.900	56.662	0.100
221.000	62.037	0.100
221.100	56.714	0.100
221.200	55.586	0.100
221.300	54.938	0.100
221.400	56.682	0.100
221.500	63.234	0.100
221.600	54.284	0.100
221.700	45.265	0.100
221.800	54.531	0.100
221.900	68.757	0.100
222.000	50.613	0.100
222.100	60.777	0.100
222.200	57.389	0.100
222.300	54.736	0.100
222.400	53.847	0.100
222.500	41.202	0.100
222.600	61.374	0.100
222.700	57.229	0.100
222.800	62.716	0.100
222.900	55.047	0.100
223.000	45.088	0.100
223.100	50.982	0.100
223.200	67.128	0.100
223.300	42.133	0.100
223.400	60.264	0.100
223.500	50.422	0.100
223.600	60.264	0.100
223.700	62.901	0.100
223.800	70.416	0.100
223.900	52.443	0.100
224.000	51.837	0.100
224.100	60.966	0.100
224.200	77.307	0.100
224.300	62.920	0.100
224.400	57.224	0.100
224.500	61.177	0.100
224.600	48.716	0.100
224.700	64.001	0.100
224.800	63.380	0.100
224.900	44.508	0.100
225.000	55.698	0.100
225.100	54.151	0.100
225.200	71.773	0.100
225.300	61.141	0.100
225.400	56.390	0.100
225.500	50.575	0.100
225.600	54.061	0.100
225.700	66.387	0.100
225.800	55.851	0.100
225.900	59.726	0.100
226.000	51.424	0.100
226.100	68.823	0.100
226.200	69.229	0.100
226.300	66.737	0.100
226.400	55.324	0.100
226.500	67.866	0.100
226.600	60.762	0.100
226.700	55.605	0.100
226.800	65.350	0.100
226.900	55.886	0.100
227.000	58.789	0.100
227.100	64.007	0.100
227.200	64.958	0.100
227.300	71.812	0.100
227.400	62.354	0.100
227.500	64.579	0.100
227.600	47.104	0.100
227.700	53.209	0.100
227.800	63.447	0.100
227.900	57.562	0.100
228.000	70.179	0.100
228.100	61.626	0.100
228.200	62.050	0.100
228.300	72.722	0.100
228.400	57.899	0.100
228.500	62.854	0.100
228.600	71.102	0.100
228.700	57.041	0.100
228.800	62.532	0.100
228.900	54.155	0.100
229.000	57.366	0.100
229.100	55.408	0.100
229.200	60.911	0.100
229.300	61.843	0.100
229.400	57.208	0.100
229.500	54.086	0.100
229.600	50.437	0.100
229.700	59.467	0.100
229.800	54.947	0.100
229.900	58.006	0.100
230.000	69.629	0.100
230.100	64.359	0.100
230.200	59.994	0.100
230.300	58.186	0.100
230.400	80.966	0.100
230.500	65.730	0.100
230.600	62.125	0.100
230.700	55.877	0.100
230.800	72.810	0.100
230.900	58.787	0.100
231.000	49.874	0.100
231.100	64.250	0.100
231.200	68.946	0.100
231.300	68.855	0.100
231.400	56.431	0.100
231.500	48.602	0.100
231.600	55.126	0.100
231.700	66.327	0.100
231.800	55.528	0.100
231.900	66.825	0.100
232.000	72.196	0.100
232.100	54.074	0.100
232.200	67.334	0.100
232.300	62.909	0.100
232.400	65.524	0.100
232.500	67.191	0.100
232.600	67.917	0.100
232.700	62.181	0.100
232.800	59.529	0.100
232.900	53.419	0.100
233.000	63.051	0.100
233.100	59.151	0.100
233.200	53.415	0.100
233.300	59.718	0.100
233.400	71.179	0.100
233.500	62.712	0.100
233.600	60.617	0.100
233.700	64.660	0.100
233.800	63.786	0.100
233.900	44.928	0.100
234.000	64.846	0.100
234.100	53.077	0.100
234.200	75.715	0.100
234.300	69.180	0.100
234.400	65.666	0.100
234.500	50.063	0.100
234.600	63.642	0.100
234.700	69.330	0.100
234.800	72.918	0.100
234.900	70.331	0.100
235.000	59.085	0.100
235.100	61.757	0.100
235.200	72.823	0.100
235.300	46.988	0.100
235.400	61.770	0.100
235.500	59.297	0.100
235.600	64.366	0.100
235.700	73.042	0.100
235.800	68.336	0.100
235.900	70.254	0.100
236.000	58.866	0.100
236.100	60.091	0.100
236.200	67.210	0.100
236.300	68.325	0.100
236.400	64.110	0.100
236.500	57.661	0.100
236.600	58.374	0.100
236.700	65.585	0.100
236.800	55.749	0.100
236.900	65.397	0.100
237.000	58.306	0.100
237.100	70.259	0.100
237.200	65.885	0.100
237.300	62.338	0.100
237.400	57.067	0.100
237.500	67.951	0.100
237.600	77.048	0.100
237.700	64.195	0.100
237.800	62.788	0.100
237.900	59.703	0.100
238.000	64.156	0.100
238.100	58.762	0.100
238.200	56.157	0.100
238.300	61.629	0.100
238.400	62.183	0.100
238.500	72.081	0.100
238.600	60.096	0.100
238.700	59.826	0.100
238.800	63.922	0.100
238.900	64.336	0.100
239.000	61.824	0.100
239.100	51.718	0.100
239.200	70.409	0.100
239.300	64.386	0.100
239.400	48.988	0.100
239.500	57.542	0.100
239.600	57.447	0.100
239.700	79.766	0.100
239.800	71.042	0.100
239.900	74.332	0.100
240.000	70.717	0.100
240.100	69.060	0.100
240.200	64.922	0.100
240.300	61.802	0.100
240.400	62.058	0.100
240.500	67.333	0.100
240.600	56.139	0.100
240.700	60.784	0.100
240.800	55.500	0.100
240.900	45.044	0.100
241.000	59.827	0.100
241.100	50.611	0.100
241.200	60.986	0.100
241.300	60.939	0.100
241.400	53.368	0.100
241.500	46.357	0.100
241.600	63.862	0.100
241.700	50.947	0.100
241.800	48.659	0.100
241.900	54.517	0.100
242.000	48.009	0.100
242.100	41.952	0.100
242.200	34.555	0.100
242.300	47.880	0.100
242.400	45.741	0.100
242.500	40.868	0.100
242.600	37.747	0.100
242.700	50.718	0.100
242.800	37.788	0.100
242.900	41.761	0.100
243.000	40.211	0.100
243.100	47.553	0.100
243.200	28.419	0.100
243.300	46.897	0.100
243.400	39.416	0.100
243.500	45.438	0.100
243.600	25.912	0.100
243.700	28.368	0.100
243.800	26.415	0.100
243.900	41.837	0.100
244.000	41.274	0.100
244.100	37.228	0.100
244.200	32.574	0.100
244.300	32.362	0.100
244.400	53.003	0.100
244.500	47.819	0.100
244.600	26.884	0.100
244.700	28.350	0.100
244.800	30.553	0.100
244.900	39.625	0.100
245.000	33.841	0.100
245.100	45.951	0.100
245.200	33.531	0.100
245.300	42.824	0.100
245.400	24.058	0.100
245.500	38.647	0.100
245.600	33.605	0.100
245.700	24.699	0.100
245.800	33.244	0.100
245.900	27.802	0.100
246.000	30.450	0.100
246.100	41.843	0.100
246.200	26.728	0.100
246.300	30.067	0.100
246.400	26.938	0.100
246.500	31.408	0.100
246.600	31.404	0.100
246.700	34.019	0.100
246.800	32.660	0.100
246.900	20.873	0.100
247.000	25.345	0.100
247.100	27.333	0.100
247.200	28.876	0.100
247.300	31.835	0.100
247.400	22.700	0.100
247.500	27.835	0.100
247.600	9.602	0.100
247.700	26.196	0.100
247.800	24.391	0.100
247.900	28.833	0.100
248.000	25.824	0.100
248.100	20.554	0.100
248.200	30.391	0.100
248.300	26.067	0.100
248.400	32.727	0.100
248.500	33.955	0.100
248.600	28.165	0.100
248.700	31.836	0.100
248.800	22.000	0.100
248.900	27.112	0.100
249.000	28.934	0.100
249.100	26.551	0.100
249.200	18.320	0.100
249.300	39.086	0.100
249.400	22.361	0.100
249.500	25.526	0.100
249.600	20.437	0.100
249.700	23.316	0.100
249.800	19.029	0.100
249.900	14.794	0.100
250.000	20.688	0.100
250.100	22.254	0.100
250.200	26.455	0.100
250.300	21.547	0.100
250.400	30.182	0.100
250.500	28.214	0.100
250.600	21.317	0.100
250.700	13.976	0.100
250.800	17.109	0.100
250.900	26.081	0.100
251.000	27.619	0.100
251.100	22.565	0.100
251.200	18.242	0.100
251.300	12.053	0.100
251.400	35.110	0.100
251.500	9.190	0.100
251.600	29.379	0.100
251.700	22.450	0.100
251.800	22.634	0.100
251.900	33.369	0.100
252.000	20.254	0.100
252.100	20.511	0.100
252.200	18.508	0.100
252.300	21.683	0.100
252.400	10.626	0.100
252.500	16.293	0.100
252.600	12.199	0.100
252.700	13.304	0.100
252.800	18.172	0.100
252.900	17.293	0.100
253.000	11.124	0.100
253.100	23.461	0.100
253.200	22.926	0.100
253.300	20.920	0.100
253.400	15.639	0.100
253.500	28.170	0.100
253.600	7.951	0.100
253.700	20.422	0.100
253.800	15.954	0.100
253.900	19.112	0.100
254.000	15.795	0.100
254.100	18.002	0.100
254.200	32.719	0.100
254.300	17.215	0.100
254.400	9.357	0.100
254.500	17.229	0.100
254.600	28.282	0.100
254.700	24.050	0.100
254.800	9.640	0.100
254.900	17.959	0.100
255.000	14.905	0.100
255.100	13.579	0.100
255.200	10.591	0.100
255.300	18.276	0.100
255.400	11.073	0.100
255.500	6.163	0.100
255.600	31.921	0.100
255.700	16.480	0.100
255.800	22.081	0.100
255.900	27.850	0.100
256.000	11.738	0.100
256.100	4.787	0.100
256.200	-3.925	0.100
256.300	27.759	0.100
256.400	11.108	0.100
256.500	2.948	0.100
256.600	20.311	0.100
256.700	18.114	0.100
256.800	22.209	0.100
256.900	8.462	0.100
257.000	-3.909	0.100
257.100	20.661	0.100
257.200	17.862	0.100
257.300	19.416	0.100
257.400	3.136	0.100
257.500	2.579	0.100
257.600	-0.798	0.100
257.700	12.625	0.100
257.800	12.199	0.100
257.900	30.478	0.100
258.000	9.568	0.100
258.100	12.829	0.100
258.200	4.380	0.100
258.300	2.818	0.100
258.400	21.489	0.100
258.500	14.175	0.100
258.600	15.183	0.100
258.700	15.345	0.100
258.800	12.314	0.100
258.900	1.887	0.100
259.000	7.545	0.100
259.100	16.757	0.100
259.200	-1.982	0.100
259.300	3.864	0.100
259.400	12.286	0.100
259.500	25.789	0.100
259.600	5.232	0.100
259.700	15.601	0.100
259.800	19.640	0.100
259.900	13.797	0.100
260.000	14.908	0.100
260.100	0.486	0.100
260.200	7.089	0.100
260.300	23.352	0.100
260.400	10.707	0.100
260.500	9.535	0.100
260.600	8.721	0.100
260.700	4.265	0.100
260.800	6.734	0.100
260.900	-7.983	0.100
261.000	-4.674	0.100
261.100	13.407	0.100
261.200	3.128	0.100
261.300	-3.349	0.100
261.400	10.550	0.100
261.500	9.071	0.100
261.600	-4.530	0.100
261.700	7.694	0.100
261.800	10.994	0.100
261.900	7.392	0.100
262.000	1.561	0.100
262.100	15.987	0.100
262.200	0.221	0.100
262.300	5.149	0.100
262.400	10.460	0.100
262.500	9.353	0.100
262.600	6.059	0.100
262.700	9.958	0.100
262.800	11.570	0.100
262.900	-1.097	0.100
263.000	-0.888	0.100
263.100	-13.846	0.100
263.200	-8.056	0.100
263.300	11.806	0.100
263.400	6.240	0.100
263.500	7.836	0.100
263.600	6.556	0.100
263.700	-2.838	0.100
263.800	-3.869	0.100
263.900	2.964	0.100
264.000	-2.055	0.100
264.100	9.012	0.100
264.200	-4.669	0.100
264.300	-2.763	0.100
264.400	12.414	0.100
264.500	-0.959	0.100
264.600	8.300	0.100
264.700	2.695	0.100
264.800	4.019	0.100
264.900	2.045	0.100
265.000	11.744	0.100
265.100	-2.354	0.100
265.200	-0.824	0.100
265.300	-4.758	0.100
265.400	2.573	0.100
265.500	-5.178	0.100
265.600	1.542	0.100
265.700	-3.201	0.100
265.800	-0.160	0.100
265.900	2.027	0.100
266.000	15.289	0.100
266.100	5.641	0.100
266.200	-3.022	0.100
266.300	-0.223	0.100
266.400	-4.342	0.100
266.500	1.661	0.100
266.600	0.105	0.100
266.700	-5.288	0.100
266.800	12.941	0.100
266.900	6.637	0.100
267.000	2.809	0.100
267.100	-2.154	0.100
267.200	-12.156	0.100
267.300	-7.245	0.100
267.400	-3.042	0.100
267.500	-1.500	0.100
267.600	-0.657	0.100
267.700	0.100	0.100
267.800	2.225	0.100
267.900	1.073	0.100
268.000	-3.558	0.100
268.100	12.143	0.100
268.200	-4.765	0.100
268.300	-16.581	0.100
268.400	-0.660	0.100
268.500	-7.012	0.100
268.600	-3.949	0.100
268.700	10.682	0.100
268.800	1.757	0.100
268.900	-1.474	0.100
269.000	-6.197	0.100
269.100	-0.851	0.100
269.200	4.866	0.100
269.300	-4.890	0.100
269.400	3.683	0.100
269.500	-5.246	0.100
269.600	3.355	0.100
269.700	-3.221	0.100
269.800	-3.259	0.100
269.900	-7.320	0.100
270.000	-6.261	0.100
270.100	-7.910	0.100
270.200	-6.401	0.100
270.300	-3.054	0.100
270.400	-11.599	0.100
270.500	-2.386	0.100
270.600	-3.900	0.100
270.700	-9.862	0.100
270.800	-6.668	0.100
270.900	-0.675	0.100
271.000	-6.567	0.100
271.100	-1.702	0.100
271.200	-6.924	0.100
271.300	-5.640	0.100
271.400	-6.059	0.100
271.500	-2.310	0.100
271.600	0.051	0.100
271.700	-15.414	0.100
271.800	-10.705	0.100
271.900	-9.792	0.100
272.000	-5.594	0.100
272.100	-1.953	0.100
272.200	-12.036	0.100
272.300	-6.903	0.100
272.400	-2.171	0.100
272.500	-3.959	0.100
272.600	-3.527	0.100
272.700	-14.311	0.100
272.800	-7.519	0.100
272.900	-18.543	0.100
273.000	-20.222	0.100
273.100	-7.118	0.100
273.200	-3.876	0.100
273.300	-10.987	0.100
273.400	0.870	0.100
273.500	-6.723	0.100
273.600	-19.580	0.100
273.700	-18.111	0.100
273.800	-2.544	0.100
273.900	10.372	0.100
274.000	-3.406	0.100
274.100	-22.513	0.100
274.200	-15.800	0.100
274.300	-12.309	0.100
274.400	-0.657	0.100
274.500	1.475	0.100
274.600	-7.752	0.100
274.700	-14.877	0.100
274.800	0.223	0.100
274.900	-1.669	0.100
275.000	-5.650	0.100
275.100	-18.795	0.100
275.200	-16.189	0.100
275.300	-16.895	0.100
275.400	-9.650	0.100
275.500	-20.935	0.100
275.600	-11.846	0.100
275.700	-9.679	0.100
275.800	-12.845	0.100
275.900	-12.214	0.100
276.000	-1.998	0.100
276.100	-4.312	0.100
276.200	-1.046	0.100
276.300	-1.708	0.100
276.400	-7.575	0.100
276.500	-14.919	0.100
276.600	-17.735	0.100
276.700	-6.838	0.100
276.800	-8.819	0.100
276.900	-8.228	0.100
277.000	-3.961	0.100
277.100	-20.579	0.100
277.200	-6.064	0.100
277.300	-7.157	0.100
277.400	-7.545	0.100
277.500	-5.982	0.100
277.600	-0.180	0.100
277.700	-3.751	0.100
277.800	-15.474	0.100
277.900	-3.464	0.100
278.000	-15.503	0.100
278.100	-10.758	0.100
278.200	-18.172	0.100
278.300	-10.479	0.100
278.400	-9.682	0.100
278.500	-14.075	0.100
278.600	-23.416	0.100
278.700	-34.794	0.100
278.800	-11.443	0.100
278.900	0.500	0.100
279.000	0.344	0.100
279.100	-12.065	0.100
279.200	-16.566	0.100
279.300	-16.872	0.100
279.400	-18.445	0.100
279.500	-13.750	0.100
279.600	-20.108	0.100
279.700	-20.281	0.100
279.800	-15.119	0.100
279.900	-21.171	0.100
280.000	-13.709	0.100
280.100	-12.271	0.100
280.200	-17.591	0.100
280.300	-15.105	0.100
280.400	-0.642	0.100
280.500	-2.849	0.100
280.600	-6.814	0.100
280.700	-12.819	0.100
280.800	-28.936	0.100
280.900	-27.610	0.100
281.000	-13.589	0.100
281.100	-11.058	0.100
281.200	-22.254	0.100
281.300	-13.450	0.100
281.400	-11.862	0.100
281.500	-27.789	0.100
281.600	-0.739	0.100
281.700	-8.151	0.100
281.800	-21.191	0.100
281.900	-30.245	0.100
282.000	-19.826	0.100
282.100	-7.966	0.100
282.200	-20.032	0.100
282.300	-23.750	0.100
282.400	-13.603	0.100
282.500	-21.772	0.100
282.600	-17.558	0.100
282.700	-13.490	0.100
282.800	-14.157	0.100
282.900	-11.549	0.100
283.000	-24.493	0.100
283.100	0.666	0.100
283.200	-16.214	0.100
283.300	-18.579	0.100
283.400	-17.963	0.100
283.500	-7.787	0.100
283.600	-7.269	0.100
283.700	-20.656	0.100
283.800	-13.219	0.100
283.900	-30.938	0.100
284.000	-11.417	0.100
284.100	-18.788	0.100
284.200	-16.947	0.100
284.300	-17.343	0.100
284.400	-8.386	0.100
284.500	-15.648	0.100
284.600	-21.110	0.100
284.700	-18.666	0.100
284.800	-16.115	0.100
284.900	-17.496	0.100
285.000	-13.244	0.100
285.100	-9.878	0.100
285.200	-9.418	0.100
285.300	-11.770	0.100
285.400	-27.464	0.100
285.500	-18.996	0.100
285.600	-18.747	0.100
285.700	-5.966	0.100
285.800	-15.749	0.100
285.900	-29.417	0.100
286.000	-18.252	0.100
286.100	-7.428	0.100
286.200	-13.530	0.100
286.300	-7.603	0.100
286.400	-25.488	0.100
286.500	-12.544	0.100
286.600	-10.316	0.100
286.700	-17.820	0.100
286.800	-13.856	0.100
286.900	-14.702	0.100
287.000	-21.894	0.100
287.100	-16.353	0.100
287.200	-12.115	0.100
287.300	-16.937	0.100
287.400	-27.605	0.100
287.500	-18.878	0.100
287.600	-20.404	0.100
287.700	-18.848	0.100
287.800	-19.798	0.100
287.900	-9.836	0.100
288.000	-12.462	0.100
288.100	-24.243	0.100
288.200	-19.214	0.100
288.300	-27.018	0.100
288.400	-2.970	0.100
288.500	-21.276	0.100
288.600	-24.647	0.100
288.700	-22.053	0.100
288.800	-20.273	0.100
288.900	-25.400	0.100
289.000	-20.853	0.100
289.100	-20.000	0.100
289.200	-0.560	0.100
289.300	-15.508	0.100
289.400	-16.418	0.100
289.500	-28.786	0.100
289.600	-24.715	0.100
289.700	-21.417	0.100
289.800	-24.733	0.100
289.900	-21.618	0.100
290.000	-12.883	0.100
290.100	-22.823	0.100
290.200	-9.797	0.100
290.300	-11.174	0.100
290.400	-32.023	0.100
290.500	-14.860	0.100
290.600	-17.411	0.100
290.700	-14.074	0.100
290.800	-18.762	0.100
290.900	-20.799	0.100
291.000	-14.669	0.100
291.100	-18.182	0.100
291.200	-17.698	0.100
291.300	-16.630	0.100
291.400	-24.083	0.100
291.500	-14.425	0.100
291.600	-19.685	0.100
291.700	-28.902	0.100
291.800	-23.668	0.100
291.900	-10.099	0.100
292.000	-6.620	0.100
292.100	-9.393	0.100
292.200	-10.104	0.100
292.300	-22.848	0.100
292.400	-21.464	0.100
292.500	-27.667	0.100
292.600	-27.565	0.100
292.700	-27.339	0.100
292.800	-17.056	0.100
292.900	-25.273	0.100
293.000	-3.175	0.100
293.100	-18.547	0.100
293.200	-20.953	0.100
293.300	-17.086	0.100
293.400	-11.093	0.100
293.500	-5.894	0.100
293.600	-18.515	0.100
293.700	-23.774	0.100
293.800	-25.445	0.100
293.900	-22.167	0.100
294.000	-15.624	0.100
294.100	-23.814	0.100
294.200	-16.759	0.100
294.300	-17.962	0.100
294.400	-27.876	0.100
294.500	-16.566	0.100
294.600	-21.758	0.100
294.700	-18.477	0.100
294.800	-21.279	0.100
294.900	-25.054	0.100
295.000	-21.615	0.100
295.100	-6.525	0.100
295.200	-5.798	0.100
295.300	-23.857	0.100
295.400	-20.048	0.100
295.500	-16.837	0.100
295.600	-11.062	0.100
295.700	-26.446	0.100
295.800	-19.963	0.100
295.900	-17.515	0.100
296.000	-7.686	0.100
296.100	-19.647	0.100
296.200	-13.187	0.100
296.300	-23.311	0.100
296.400	-15.244	0.100
296.500	-33.913	0.100
296.600	-23.196	0.100
296.700	-23.740	0.100
296.800	-27.253	0.100
296.900	-23.614	0.100
297.000	-15.307	0.100
297.100	-14.015	0.100
297.200	-11.875	0.100
297.300	-17.308	0.100
297.400	-32.258	0.100
297.500	-27.114	0.100
297.600	-28.575	0.100
297.700	-27.674	0.100
297.800	-8.542	0.100
297.900	-22.978	0.100
298.000	-22.800	0.100
298.100	-15.671	0.100
298.200	-20.208	0.100
298.300	-25.072	0.100
298.400	-16.378	0.100
298.500	-26.786	0.100
298.600	-13.898	0.100
298.700	-18.912	0.100
298.800	-25.581	0.100
298.900	-25.365	0.100
299.000	-21.182	0.100
299.100	-20.834	0.100
299.200	-23.121	0.100
299.300	-19.169	0.100
299.400	-3.485	0.100
299.500	-26.866	0.100
299.600	-13.562	0.100
299.700	-3.965	0.100
299.800	-24.403	0.100
299.900	-33.626	0.100
300.000	-24.385	0.100
300.100	-22.860	0.100
300.200	-23.424	0.100
300.300	-22.267	0.100
300.400	-15.101	0.100
300.500	-26.065	0.100
300.600	-6.106	0.100
300.700	-15.031	0.100
300.800	-15.009	0.100
300.900	-20.847	0.100
301.000	-33.850	0.100
301.100	-5.948	0.100
301.200	-17.111	0.100
301.300	-23.468	0.100
301.400	-27.207	0.100
301.500	-26.647	0.100
301.600	-20.528	0.100
301.700	-32.098	0.100
301.800	-24.844	0.100
301.900	-13.397	0.100
302.000	-19.655	0.100
302.100	-25.980	0.100
302.200	-13.899	0.100
302.300	-15.306	0.100
302.400	-20.597	0.100
302.500	-6.467	0.100
302.600	-20.705	0.100
302.700	-26.881	0.100
302.800	-30.827	0.100
302.900	-17.021	0.100
303.000	-27.156	0.100
303.100	-15.159	0.100
303.200	-16.169	0.100
303.300	-19.560	0.100
303.400	-28.297	0.100
303.500	-20.300	0.100
303.600	-21.665	0.100
303.700	-32.323	0.100
303.800	-5.826	0.100
303.900	-21.295	0.100
304.000	-18.743	0.100
304.100	-35.259	0.100
304.200	-16.202	0.100
304.300	-22.692	0.100
304.400	-12.035	0.100
304.500	2.411	0.100
304.600	-27.506	0.100
304.700	-27.637	0.100
304.800	-30.693	0.100
304.900	-20.738	0.100
305.000	-12.026	0.100
305.100	-17.469	0.100
305.200	-18.175	0.100
305.300	-22.119	0.100
305.400	-21.248	0.100
305.500	-18.496	0.100
305.600	-30.559	0.100
305.700	-26.593	0.100
305.800	-24.035	0.100
305.900	-15.090	0.100
306.000	-22.669	0.100
306.100	-16.801	0.100
306.200	-22.610	0.100
306.300	-2.871	0.100
306.400	-15.373	0.100
306.500	-25.753	0.100
306.600	-25.205	0.100
306.700	-33.593	0.100
306.800	-16.691	0.100
306.900	-18.355	0.100
307.000	-20.844	0.100
307.100	-25.658	0.100
307.200	-16.476	0.100
307.300	-11.334	0.100
307.400	-19.179	0.100
307.500	-15.910	0.100
307.600	-19.698	0.100
307.700	-15.355	0.100
307.800	-26.727	0.100
307.900	-24.168	0.100
308.000	-21.518	0.100
308.100	-17.616	0.100
308.200	-10.565	0.100
308.300	-9.969	0.100
308.400	-15.782	0.100
308.500	-24.701	0.100
308.600	-15.230	0.100
308.700	-26.060	0.100
308.800	-24.150	0.100
308.900	-31.296	0.100
309.000	-21.603	0.100
309.100	-16.098	0.100
309.200	-19.018	0.100
309.300	-31.612	0.100
309.400	-11.692	0.100
309.500	-22.514	0.100
309.600	-16.529	0.100
309.700	-20.524	0.100
309.800	-28.502	0.100
309.900	-11.012	0.100
310.000	-18.638	0.100
310.100	-17.969	0.100
310.200	-17.691	0.100
310.300	-22.804	0.100
310.400	-28.163	0.100
310.500	-17.677	0.100
310.600	-16.590	0.100
310.700	-21.150	0.100
310.800	-21.321	0.100
310.900	-27.874	0.100
311.000	-18.684	0.100
311.100	-24.495	0.100
311.200	-29.293	0.100
311.300	-28.373	0.100
311.400	-20.842	0.100
311.500	-23.734	0.100
311.600	-19.490	0.100
311.700	-21.370	0.100
311.800	-21.873	0.100
311.900	-20.248	0.100
312.000	-27.400	0.100
312.100	-10.410	0.100
312.200	-11.987	0.100
312.300	-31.584	0.100
312.400	-16.131	0.100
312.500	-11.816	0.100
312.600	-23.246	0.100
312.700	-13.103	0.100
312.800	-32.339	0.100
312.900	-14.232	0.100
313.000	-33.101	0.100
313.100	-27.785	0.100
313.200	-25.130	0.100
313.300	-18.080	0.100
313.400	-28.862	0.100
313.500	-21.714	0.100
313.600	-11.497	0.100
313.700	-28.036	0.100
313.800	-16.466	0.100
313.900	-16.159	0.100
314.000	-30.616	0.100
314.100	-35.384	0.100
314.200	-15.781	0.100
314.300	-30.877	0.100
314.400	-25.796	0.100
314.500	-12.117	0.100
314.600	-16.853	0.100
314.700	-23.382	0.100
314.800	-14.280	0.100
314.900	-16.408	0.100
315.000	-17.404	0.100
315.100	-37.770	0.100
315.200	-18.611	0.100
315.300	-18.540	0.100
315.400	-8.514	0.100
315.500	-15.651	0.100
315.600	-29.515	0.100
315.700	-8.653	0.100
315.800	-12.805	0.100
315.900	-21.517	0.100
316.000	-18.611	0.100
316.100	-26.558	0.100
316.200	-30.516	0.100
316.300	-28.866	0.100
316.400	-13.480	0.100
316.500	-24.572	0.100
316.600	-15.059	0.100
316.700	-21.030	0.100
316.800	-21.283	0.100
316.900	-11.458	0.100
317.000	-29.237	0.100
317.100	-16.396	0.100
317.200	-21.594	0.100
317.300	-26.484	0.100
317.400	-32.395	0.100
317.500	-25.508	0.100
317.600	-12.549	0.100
317.700	-26.553	0.100
317.800	-16.884	0.100
317.900	-12.330	0.100
318.000	-17.911	0.100
318.100	-21.800	0.100
318.200	-20.582	0.100
318.300	-21.284	0.100
318.400	-23.077	0.100
318.500	-20.792	0.100
318.600	-9.433	0.100
318.700	-21.380	0.100
318.800	-20.390	0.100
318.900	-33.118	0.100
319.000	-25.833	0.100
319.100	-21.825	0.100
319.200	-13.095	0.100
319.300	-22.043	0.100
319.400	-19.621	0.100
319.500	-21.723	0.100
319.600	-17.010	0.100
319.700	-8.029	0.100
319.800	-17.314	0.100
319.900	-36.319	0.100
320.000	-19.189	0.100
320.100	-32.934	0.100
320.200	-27.340	0.100
320.300	-19.605	0.100
320.400	-23.433	0.100
320.500	-21.300	0.100
320.600	-15.434	0.100
320.700	-10.631	0.100
320.800	-20.764	0.100
320.900	-31.916	0.100
321.000	-23.665	0.100
321.100	-28.146	0.100
321.200	-24.366	0.100
321.300	-20.051	0.100
321.400	-9.102	0.100
321.500	-20.618	0.100
321.600	-14.666	0.100
321.700	-20.685	0.100
321.800	-14.339	0.100
321.900	-22.672	0.100
322.000	-12.928	0.100
322.100	-20.435	0.100
322.200	-19.709	0.100
322.300	-25.001	0.100
322.400	-30.209	0.100
322.500	-26.454	0.100
322.600	-19.357	0.100
322.700	-29.366	0.100
322.800	-26.048	0.100
322.900	-11.193	0.100
323.000	-10.423	0.100
323.100	-12.593	0.100
323.200	-28.547	0.100
323.300	-22.985	0.100
323.400	-23.050	0.100
323.500	-18.793	0.100
323.600	-29.128	0.100
323.700	-30.308	0.100
323.800	-25.771	0.100
323.900	-22.570	0.100
324.000	-19.794	0.100
324.100	-16.268	0.100
324.200	-5.288	0.100
324.300	-5.645	0.100
324.400	-23.063	0.100
324.500	-27.022	0.100
324.600	-27.285	0.100
324.700	-27.732	0.100
324.800	-31.019	0.100
324.900	-20.195	0.100
325.000	-15.827	0.100
325.100	-12.866	0.100
325.200	-27.962	0.100
325.300	-20.979	0.100
325.400	-23.523	0.100
325.500	-18.096	0.100
325.600	-17.626	0.100
325.700	-19.342	0.100
325.800	-16.872	0.100
325.900	-20.579	0.100
326.000	-25.140	0.100
326.100	-18.732	0.100
326.200	-20.104	0.100
326.300	-23.720	0.100
326.400	-17.646	0.100
326.500	-9.044	0.100
326.600	-25.933	0.100
326.700	-20.661	0.100
326.800	-19.667	0.100
326.900	-25.734	0.100
327.000	-21.368	0.100
327.100	-28.864	0.100
327.200	-30.890	0.100
327.300	-23.764	0.100
327.400	-30.107	0.100
327.500	-13.132	0.100
327.600	-21.910	0.100
327.700	-20.933	0.100
327.800	-16.580	0.100
327.900	-18.139	0.100
328.000	-12.367	0.100
328.100	-11.006	0.100
328.200	-24.866	0.100
328.300	-10.328	0.100
328.400	-31.973	0.100
328.500	-14.506	0.100
328.600	-20.280	0.100
328.700	-23.860	0.100
328.800	-20.102	0.100
328.900	-21.364	0.100
329.000	-23.965	0.100
329.100	-15.845	0.100
329.200	-22.846	0.100
329.300	-12.857	0.100
329.400	-30.975	0.100
329.500	-15.524	0.100
329.600	-24.474	0.100
329.700	-24.887	0.100
329.800	-19.906	0.100
329.900	-14.878	0.100
330.000	-28.213	0.100
330.100	-12.990	0.100
330.200	-20.002	0.100
330.300	-38.681	0.100
330.400	-25.246	0.100
330.500	-23.590	0.100
330.600	-26.262	0.100
330.700	-15.135	0.100
330.800	-18.476	0.100
330.900	-6.348	0.100
331.000	-23.529	0.100
331.100	-21.916	0.100
331.200	-14.589	0.100
331.300	-16.937	0.100
331.400	-8.991	0.100
331.500	4.956	0.100
331.600	-15.927	0.100
331.700	3.880	0.100
331.800	-2.907	0.100
331.900	-1.102	0.100
332.000	2.615	0.100
332.100	-22.703	0.100
332.200	-6.299	0.100
332.300	1.359	0.100
332.400	-4.880	0.100
332.500	6.618	0.100
332.600	15.587	0.100
332.700	-0.091	0.100
332.800	15.757	0.100
332.900	19.633	0.100
333.000	8.229	0.100
333.100	10.196	0.100
333.200	13.554	0.100
333.300	8.091	0.100
333.400	-4.334	0.100
333.500	13.901	0.100
333.600	4.517	0.100
333.700	5.781	0.100
333.800	13.625	0.100
333.900	23.596	0.100
334.000	6.955	0.100
334.100	9.656	0.100
334.200	14.916	0.100
334.300	16.543	0.100
334.400	22.963	0.100
334.500	17.566	0.100
334.600	18.856	0.100
334.700	24.143	0.100
334.800	12.913	0.100
334.900	11.682	0.100
335.000	14.539	0.100
335.100	21.430	0.100
335.200	6.395	0.100
335.300	17.243	0.100
335.400	11.307	0.100
335.500	25.777	0.100
335.600	18.864	0.100
335.700	14.930	0.100
335.800	12.727	0.100
335.900	10.274	0.100
336.000	7.806	0.100
336.100	15.419	0.100
336.200	24.921	0.100
336.300	17.326	0.100
336.400	19.438	0.100
336.500	21.403	0.100
336.600	16.639	0.100
336.700	20.489	0.100
336.800	5.183	0.100
336.900	16.640	0.100
337.000	12.342	0.100
337.100	24.288	0.100
337.200	23.689	0.100
337.300	28.898	0.100
337.400	16.762	0.100
337.500	15.832	0.100
337.600	19.086	0.100
337.700	12.779	0.100
337.800	13.074	0.100
337.900	-6.419	0.100
338.000	12.729	0.100
338.100	19.791	0.100
338.200	25.888	0.100
338.300	15.549	0.100
338.400	6.110	0.100
338.500	19.464	0.100
338.600	20.900	0.100
338.700	17.287	0.100
338.800	19.679	0.100
338.900	18.921	0.100
339.000	5.776	0.100
339.100	8.172	0.100
339.200	17.614	0.100
339.300	21.321	0.100
339.400	19.010	0.100
339.500	20.286	0.100
339.600	11.431	0.100
339.700	9.502	0.100
339.800	11.020	0.100
339.900	10.862	0.100
340.000	28.755	0.100
340.100	21.324	0.100
340.200	14.635	0.100
340.300	21.222	0.100
340.400	18.932	0.100
340.500	19.818	0.100
340.600	28.595	0.100
340.700	29.540	0.100
340.800	25.429	0.100
340.900	21.907	0.100
341.000	21.847	0.100
341.100	16.859	0.100
341.200	20.310	0.100
341.300	18.885	0.100
341.400	19.404	0.100
341.500	9.733	0.100
341.600	23.485	0.100
341.700	19.880	0.100
341.800	25.122	0.100
341.900	24.783	0.100
342.000	27.209	0.100
342.100	22.410	0.100
342.200	31.216	0.100
342.300	42.056	0.100
342.400	31.242	0.100
342.500	23.412	0.100
342.600	25.505	0.100
342.700	9.985	0.100
342.800	3.241	0.100
342.900	33.949	0.100
343.000	30.520	0.100
343.100	25.548	0.100
343.200	22.987	0.100
343.300	24.239	0.100
343.400	18.001	0.100
343.500	22.480	0.100
343.600	36.184	0.100
343.700	31.208	0.100
343.800	32.142	0.100
343.900	24.221	0.100
344.000	23.725	0.100
344.100	21.790	0.100
344.200	33.082	0.100
344.300	35.699	0.100
344.400	27.193	0.100
344.500	16.514	0.100
344.600	25.636	0.100
344.700	31.391	0.100
344.800	24.416	0.100
344.900	12.340	0.100
345.000	24.727	0.100
345.100	26.569	0.100
345.200	34.292	0.100
345.300	26.712	0.100
345.400	46.997	0.100
345.500	39.554	0.100
345.600	13.634	0.100
345.700	15.627	0.100
345.800	24.130	0.100
345.900	18.966	0.100
346.000	28.605	0.100
346.100	34.823	0.100
346.200	33.953	0.100
346.300	32.701	0.100
346.400	29.789	0.100
346.500	36.776	0.100
346.600	16.644	0.100
346.700	25.754	0.100
346.800	27.778	0.100
346.900	26.419	0.100
347.000	24.400	0.100
347.100	38.570	0.100
347.200	15.946	0.100
347.300	20.816	0.100
347.400	31.681	0.100
347.500	28.248	0.100
347.600	25.324	0.100
347.700	19.432	0.100
347.800	34.019	0.100
347.900	38.245	0.100
348.000	21.139	0.100
348.100	28.693	0.100
348.200	28.338	0.100
348.300	24.046	0.100
348.400	28.001	0.100
348.500	26.951	0.100
348.600	31.442	0.100
348.700	30.806	0.100
348.800	39.262	0.100
348.900	35.031	0.100
349.000	31.988	0.100
349.100	33.672	0.100
349.200	23.148	0.100
349.300	26.876	0.100
349.400	28.026	0.100
349.500	41.341	0.100
349.600	32.139	0.100
349.700	34.844	0.100
349.800	26.699	0.100
349.900	30.572	0.100
350.000	27.431	0.100
350.100	30.121	0.100
350.200	29.538	0.100
350.300	36.496	0.100
350.400	29.528	0.100
350.500	37.429	0.100
350.600	31.674	0.100
350.700	26.533	0.100
350.800	42.204	0.100
350.900	41.728	0.100
351.000	38.528	0.100
351.100	35.372	0.100
351.200	33.685	0.100
351.300	26.666	0.100
351.400	38.059	0.100
351.500	23.108	0.100
351.600	21.689	0.100
351.700	36.357	0.100
351.800	37.499	0.100
351.900	29.350	0.100
352.000	37.131	0.100
352.100	46.292	0.100
352.200	43.391	0.100
352.300	25.762	0.100
352.400	23.213	0.100
352.500	31.764	0.100
352.600	32.355	0.100
352.700	29.273	0.100
352.800	43.035	0.100
352.900	34.016	0.100
353.000	27.393	0.100
353.100	50.371	0.100
353.200	44.965	0.100
353.300	25.467	0.100
353.400	42.061	0.100
353.500	42.206	0.100
353.600	34.713	0.100
353.700	36.723	0.100
353.800	47.840	0.100
353.900	43.676	0.100
354.000	29.686	0.100
354.100	32.753	0.100
354.200	24.768	0.100
354.300	37.771	0.100
354.400	34.869	0.100
354.500	31.402	0.100
354.600	23.300	0.100
354.700	43.287	0.100
354.800	43.324	0.100
354.900	40.350	0.100
355.000	40.781	0.100
355.100	37.074	0.100
355.200	35.583	0.100
355.300	38.586	0.100
355.400	33.876	0.100
355.500	50.667	0.100
355.600	49.905	0.100
355.700	32.170	0.100
355.800	33.092	0.100
355.900	38.973	0.100
356.000	38.444	0.100
356.100	41.337	0.100
356.200	32.849	0.100
356.300	46.768	0.100
356.400	42.711	0.100
356.500	51.267	0.100
356.600	33.209	0.100
356.700	31.930	0.100
356.800	38.098	0.100
356.900	41.925	0.100
357.000	39.252	0.100
357.100	39.865	0.100
357.200	48.897	0.100
357.300	47.743	0.100
357.400	36.542	0.100
357.500	35.227	0.100
357.600	51.917	0.100
357.700	45.716	0.100
357.800	41.640	0.100
357.900	37.946	0.100
358.000	31.405	0.100
358.100	43.439	0.100
358.200	46.040	0.100
358.300	49.659	0.100
358.400	50.614	0.100
358.500	42.294	0.100
358.600	48.021	0.100
358.700	48.451	0.100
358.800	46.408	0.100
358.900	39.888	0.100
359.000	34.570	0.100
359.100	46.762	0.100
359.200	46.523	0.100
359.300	42.048	0.100
359.400	45.887	0.100
359.500	44.023	0.100
359.600	42.256	0.100
359.700	46.262	0.100
359.800	37.995	0.100
359.900	49.561	0.100
360.000	42.510	0.100
360.100	54.129	0.100
360.200	41.690	0.100
360.300	45.517	0.100
360.400	44.706	0.100
360.500	37.652	0.100
360.600	40.169	0.100
360.700	35.279	0.100
360.800	49.044	0.100
360.900	49.530	0.100
361.000	42.139	0.100
361.100	53.471	0.100
361.200	46.715	0.100
361.300	46.267	0.100
361.400	45.289	0.100
361.500	47.267	0.100
361.600	52.653	0.100
361.700	55.948	0.100
361.800	44.765	0.100
361.900	37.245	0.100
362.000	47.230	0.100
362.100	58.008	0.100
362.200	38.580	0.100
362.300	46.168	0.100
362.400	55.958	0.100
362.500	44.446	0.100
362.600	39.370	0.100
362.700	44.736	0.100
362.800	62.274	0.100
362.900	53.241	0.100
363.000	45.303	0.100
363.100	54.234	0.100
363.200	41.707	0.100
363.300	39.438	0.100
363.400	49.129	0.100
363.500	66.260	0.100
363.600	55.583	0.100
363.700	57.439	0.100
363.800	46.396	0.100
363.900	47.236	0.100
364.000	47.144	0.100
364.100	48.520	0.100
364.200	54.363	0.100
364.300	41.333	0.100
364.400	52.049	0.100
364.500	60.854	0.100
364.600	55.673	0.100
364.700	55.048	0.100
364.800	53.181	0.100
364.900	55.518	0.100
365.000	46.679	0.100
365.100	56.003	0.100
365.200	52.603	0.100
365.300	50.170	0.100
365.400	48.051	0.100
365.500	60.640	0.100
365.600	47.770	0.100
365.700	48.244	0.100
365.800	50.866	0.100
365.900	53.000	0.100
366.000	58.653	0.100
366.100	43.940	0.100
366.200	39.749	0.100
366.300	49.945	0.100
366.400	56.138	0.100
366.500	58.140	0.100
366.600	53.136	0.100
366.700	45.457	0.100
366.800	56.443	0.100
366.900	48.503	0.100
367.000	54.839	0.100
367.100	49.115	0.100
367.200	56.271	0.100
367.300	54.010	0.100
367.400	54.884	0.100
367.500	63.905	0.100
367.600	65.040	0.100
367.700	52.495	0.100
367.800	47.756	0.100
367.900	49.793	0.100
368.000	47.014	0.100
368.100	48.982	0.100
368.200	62.293	0.100
368.300	51.959	0.100
368.400	43.078	0.100
368.500	68.009	0.100
368.600	62.043	0.100
368.700	55.553	0.100
368.800	60.678	0.100
368.900	54.926	0.100
369.000	42.573	0.100
369.100	59.709	0.100
369.200	56.466	0.100
369.300	56.037	0.100
369.400	55.336	0.100
369.500	60.797	0.100
369.600	44.608	0.100
369.700	67.830	0.100
369.800	53.598	0.100
369.900	43.822	0.100
370.000	57.527	0.100
370.100	60.393	0.100
370.200	64.397	0.100
370.300	49.522	0.100
370.400	60.033	0.100
370.500	56.900	0.100
370.600	59.040	0.100
370.700	61.914	0.100
370.800	58.634	0.100
370.900	64.481	0.100
371.000	59.940	0.100
371.100	58.067	0.100
371.200	57.117	0.100
371.300	61.068	0.100
371.400	53.922	0.100
371.500	69.415	0.100
371.600	68.021	0.100
371.700	56.545	0.100
371.800	41.351	0.100
371.900	48.052	0.100
372.000	60.028	0.100
372.100	69.433	0.100
372.200	65.396	0.100
372.300	68.118	0.100
372.400	52.867	0.100
372.500	47.875	0.100
372.600	70.897	0.100
372.700	62.923	0.100
372.800	64.912	0.100
372.900	71.152	0.100
373.000	63.619	0.100
373.100	61.046	0.100
373.200	63.098	0.100
373.300	61.990	0.100
373.400	61.178	0.100
373.500	54.413	0.100
373.600	55.989	0.100
373.700	54.364	0.100
373.800	51.974	0.100
373.900	54.985	0.100
374.000	55.726	0.100
374.100	53.850	0.100
374.200	61.294	0.100
374.300	65.503	0.100
374.400	56.143	0.100
374.500	63.380	0.100
374.600	54.195	0.100
374.700	56.962	0.100
374.800	74.256	0.100
374.900	54.970	0.100
375.000	62.377	0.100
375.100	61.635	0.100
375.200	66.625	0.100
375.300	67.255	0.100
375.400	60.123	0.100
375.500	60.518	0.100
375.600	66.089	0.100
375.700	69.212	0.100
375.800	63.259	0.100
375.900	63.767	0.100
376.000	62.467	0.100
376.100	65.629	0.100
376.200	71.005	0.100
376.300	58.261	0.100
376.400	51.765	0.100
376.500	66.186	0.100
376.600	67.295	0.100
376.700	58.447	0.100
376.800	67.220	0.100
376.900	60.733	0.100
377.000	56.207	0.100
377.100	67.550	0.100
377.200	62.644	0.100
377.300	58.170	0.100
377.400	62.007	0.100
377.500	58.290	0.100
377.600	57.067	0.100
377.700	64.055	0.100
377.800	66.479	0.100
377.900	51.785	0.100
378.000	60.490	0.100
378.100	58.188	0.100
378.200	52.217	0.100
378.300	51.208	0.100
378.400	69.938	0.100
378.500	54.373	0.100
378.600	72.637	0.100
378.700	68.133	0.100
378.800	62.400	0.100
378.900	70.251	0.100
379.000	75.524	0.100
379.100	53.921	0.100
379.200	54.972	0.100
379.300	68.900	0.100
379.400	48.997	0.100
379.500	62.666	0.100
379.600	75.140	0.100
379.700	61.605	0.100
379.800	51.705	0.100
379.900	54.356	0.100
380.000	58.372	0.100
380.100	59.388	0.100
380.200	68.856	0.100
380.300	69.255	0.100
380.400	66.706	0.100
380.500	53.457	0.100
380.600	56.883	0.100
380.700	69.106	0.100
380.800	57.070	0.100
380.900	61.190	0.100
381.000	73.621	0.100
381.100	73.340	0.100
381.200	60.307	0.100
381.300	51.184	0.100
381.400	62.487	0.100
381.500	68.026	0.100
381.600	66.411	0.100
381.700	57.689	0.100
381.800	56.799	0.100
381.900	54.817	0.100
382.000	77.702	0.100
382.100	61.807	0.100
382.200	51.272	0.100
382.300	68.447	0.100
382.400	69.281	0.100
382.500	72.367	0.100
382.600	71.441	0.100
382.700	75.352	0.100
382.800	75.549	0.100
382.900	58.827	0.100
383.000	55.819	0.100
383.100	83.859	0.100
383.200	65.381	0.100
383.300	73.196	0.100
383.400	66.886	0.100
383.500	57.354	0.100
383.600	74.809	0.100
383.700	58.470	0.100
383.800	69.806	0.100
383.900	71.869	0.100
384.000	71.517	0.100
384.100	56.633	0.100
384.200	68.607	0.100
384.300	52.916	0.100
384.400	64.272	0.100
384.500	76.250	0.100
384.600	57.317	0.100
384.700	66.085	0.100
384.800	62.971	0.100
384.900	62.234	0.100
385.000	55.409	0.100
385.100	71.301	0.100
385.200	51.047	0.100
385.300	74.370	0.100
385.400	70.646	0.100
385.500	70.587	0.100
385.600	68.075	0.100
385.700	69.072	0.100
385.800	69.865	0.100
385.900	79.757	0.100
386.000	54.799	0.100
386.100	70.326	0.100
386.200	70.539	0.100
386.300	66.420	0.100
386.400	60.727	0.100
386.500	66.955	0.100
386.600	67.271	0.100
386.700	63.600	0.100
386.800	62.360	0.100
386.900	67.282	0.100
387.000	61.743	0.100
387.100	74.401	0.100
387.200	60.111	0.100
387.300	51.203	0.100
387.400	65.298	0.100
387.500	59.436	0.100
387.600	54.850	0.100
387.700	80.942	0.100
387.800	65.494	0.100
387.900	67.486	0.100
388.000	65.420	0.100
388.100	57.353	0.100
388.200	71.904	0.100
388.300	76.574	0.100
388.400	64.455	0.100
388.500	62.134	0.100
388.600	49.791	0.100
388.700	62.142	0.100
388.800	71.749	0.100
388.900	72.997	0.100
389.000	68.264	0.100
389.100	64.836	0.100
389.200	66.862	0.100
389.300	64.663	0.100
389.400	58.086	0.100
389.500	69.412	0.100
389.600	51.782	0.100
389.700	50.850	0.100
389.800	72.176	0.100
389.900	66.423	0.100
390.000	70.252	0.100
390.100	74.030	0.100
390.200	70.669	0.100
390.300	67.011	0.100
390.400	50.122	0.100
390.500	72.249	0.100
390.600	64.981	0.100
390.700	72.392	0.100
390.800	57.185	0.100
390.900	57.656	0.100
391.000	52.945	0.100
391.100	53.440	0.100
391.200	65.944	0.100
391.300	54.444	0.100
391.400	60.767	0.100
391.500	47.139	0.100
391.600	52.394	0.100
391.700	45.078	0.100
391.800	51.728	0.100
391.900	56.993	0.100
392.000	54.441	0.100
392.100	61.757	0.100
392.200	32.350	0.100
392.300	36.244	0.100
392.400	42.445	0.100
392.500	45.156	0.100
392.600	45.255	0.100
392.700	42.032	0.100
392.800	39.450	0.100
392.900	44.905	0.100
393.000	34.643	0.100
393.100	43.456	0.100
393.200	46.430	0.100
393.300	20.488	0.100
393.400	30.993	0.100
393.500	28.838	0.100
393.600	25.025	0.100
393.700	28.021	0.100
393.800	48.784	0.100
393.900	38.845	0.100
394.000	47.485	0.100
394.100	43.856	0.100
394.200	22.134	0.100
394.300	29.066	0.100
394.400	30.542	0.100
394.500	18.351	0.100
394.600	18.775	0.100
394.700	33.955	0.100
394.800	25.145	0.100
394.900	21.531	0.100
395.000	34.727	0.100
395.100	40.880	0.100
395.200	35.707	0.100
395.300	19.639	0.100
395.400	33.568	0.100
395.500	41.473	0.100
395.600	33.921	0.100
395.700	21.231	0.100
395.800	31.291	0.100
395.900	29.220	0.100
396.000	22.727	0.100
396.100	20.113	0.100
396.200	36.611	0.100
396.300	30.907	0.100
396.400	34.477	0.100
396.500	34.179	0.100
396.600	18.329	0.100
396.700	23.446	0.100
396.800	33.004	0.100
396.900	22.662	0.100
397.000	21.838	0.100
397.100	21.123	0.100
397.200	30.848	0.100
397.300	20.098	0.100
397.400	21.425	0.100
397.500	37.186	0.100
397.600	24.826	0.100
397.700	32.826	0.100
397.800	28.066	0.100
397.900	17.631	0.100
398.000	15.718	0.100
398.100	25.310	0.100
398.200	32.134	0.100
398.300	27.553	0.100
398.400	27.442	0.100
398.500	15.901	0.100
398.600	14.177	0.100
398.700	33.249	0.100
398.800	24.171	0.100
398.900	26.620	0.100
399.000	15.731	0.100
399.100	18.736	0.100
399.200	8.585	0.100
399.300	12.939	0.100
399.400	22.050	0.100
399.500	17.521	0.100
399.600	12.941	0.100
399.700	26.892	0.100
399.800	23.840	0.100
399.900	24.859	0.100
400.000	25.937	0.100
400.100	28.761	0.100
400.200	18.288	0.100
400.300	28.975	0.100
400.400	21.474	0.100
400.500	24.386	0.100
400.600	19.763	0.100
400.700	5.924	0.100
400.800	9.365	0.100
400.900	15.899	0.100
401.000	12.497	0.100
401.100	17.694	0.100
401.200	12.983	0.100
401.300	29.970	0.100
401.400	23.956	0.100
401.500	19.997	0.100
401.600	16.236	0.100
401.700	22.121	0.100
401.800	14.726	0.100
401.900	13.122	0.100
402.000	19.530	0.100
402.100	13.276	0.100
402.200	11.909	0.100
402.300	16.005	0.100
402.400	18.808	0.100
402.500	-3.559	0.100
402.600	14.403	0.100
402.700	21.020	0.100
402.800	14.289	0.100
402.900	9.084	0.100
403.000	22.493	0.100
403.100	15.484	0.100
403.200	20.147	0.100
403.300	6.091	0.100
403.400	29.815	0.100
403.500	18.700	0.100
403.600	8.265	0.100
403.700	10.341	0.100
403.800	16.235	0.100
403.900	22.059	0.100
404.000	11.574	0.100
404.100	16.628	0.100
404.200	8.320	0.100
404.300	4.325	0.100
404.400	17.697	0.100
404.500	20.739	0.100
404.600	17.666	0.100
404.700	5.517	0.100
404.800	27.454	0.100
404.900	-5.076	0.100
405.000	3.760	0.100
405.100	9.610	0.100
405.200	6.413	0.100
405.300	6.489	0.100
405.400	17.187	0.100
405.500	13.104	0.100
405.600	23.865	0.100
405.700	25.272	0.100
405.800	-0.235	0.100
405.900	4.471	0.100
406.000	21.035	0.100
406.100	4.462	0.100
406.200	18.768	0.100
406.300	5.680	0.100
406.400	10.570	0.100
406.500	11.716	0.100
406.600	20.824	0.100
406.700	16.447	0.100
406.800	12.363	0.100
406.900	12.233	0.100
407.000	12.267	0.100
407.100	3.685	0.100
407.200	16.667	0.100
407.300	14.192	0.100
407.400	9.964	0.100
407.500	1.316	0.100
407.600	8.346	0.100
407.700	16.613	0.100
407.800	15.845	0.100
407.900	0.023	0.100
408.000	23.265	0.100
408.100	9.389	0.100
408.200	9.821	0.100
408.300	0.456	0.100
408.400	3.515	0.100
408.500	5.709	0.100
408.600	-5.843	0.100
408.700	1.529	0.100
408.800	8.155	0.100
408.900	7.468	0.100
409.000	9.730	0.100
409.100	15.801	0.100
409.200	3.368	0.100
409.300	3.556	0.100
409.400	13.031	0.100
409.500	3.898	0.100
409.600	2.348	0.100
409.700	6.446	0.100
409.800	4.134	0.100
409.900	5.393	0.100
410.000	-1.166	0.100
410.100	-3.479	0.100
410.200	-0.253	0.100
410.300	7.419	0.100
410.400	2.162	0.100
410.500	7.293	0.100
410.600	13.111	0.100
410.700	12.097	0.100
410.800	0.539	0.100
410.900	8.405	0.100
411.000	2.835	0.100
411.100	5.200	0.100
411.200	5.651	0.100
411.300	-5.388	0.100
411.400	-5.490	0.100
411.500	9.622	0.100
411.600	-2.525	0.100
411.700	1.141	0.100
411.800	16.070	0.100
411.900	-0.153	0.100
412.000	7.308	0.100
412.100	3.617	0.100
412.200	-0.254	0.100
412.300	13.040	0.100
412.400	12.231	0.100
412.500	2.138	0.100
412.600	-4.834	0.100
412.700	-6.031	0.100
412.800	-0.316	0.100
412.900	-1.380	0.100
413.000	0.485	0.100
413.100	13.342	0.100
413.200	-0.043	0.100
413.300	-6.615	0.100
413.400	10.879	0.100
413.500	-1.007	0.100
413.600	2.996	0.100
413.700	5.068	0.100
413.800	-4.282	0.100
413.900	6.200	0.100
414.000	-2.739	0.100
414.100	-7.805	0.100
414.200	0.328	0.100
414.300	-2.715	0.100
414.400	0.692	0.100
414.500	-1.799	0.100
414.600	3.572	0.100
414.700	-0.068	0.100
414.800	13.594	0.100
414.900	12.084	0.100
415.000	-4.691	0.100
415.100	0.978	0.100
415.200	-8.072	0.100
415.300	1.135	0.100
415.400	-11.808	0.100
415.500	1.939	0.100
415.600	1.810	0.100
415.700	0.064	0.100
415.800	-4.192	0.100
415.900	-11.314	0.100
416.000	-5.312	0.100
416.100	-10.076	0.100
416.200	-7.955	0.100
416.300	8.707	0.100
416.400	-1.571	0.100
416.500	6.468	0.100
416.600	12.179	0.100
416.700	1.618	0.100
416.800	-8.935	0.100
416.900	-2.746	0.100
417.000	-4.498	0.100
417.100	5.178	0.100
417.200	-12.235	0.100
417.300	-10.236	0.100
417.400	-0.361	0.100
417.500	-2.108	0.100
417.600	-12.005	0.100
417.700	-14.287	0.100
417.800	3.326	0.100
417.900	-3.263	0.100
418.000	-4.122	0.100
418.100	-8.157	0.100
418.200	-5.947	0.100
418.300	-0.065	0.100
418.400	-5.346	0.100
418.500	-1.602	0.100
418.600	-9.414	0.100
418.700	10.957	0.100
418.800	10.075	0.100
418.900	5.764	0.100
419.000	-7.247	0.100
419.100	-11.636	0.100
419.200	14.831	0.100
419.300	-3.789	0.100
419.400	-11.452	0.100
419.500	-9.795	0.100
419.600	-21.119	0.100
419.700	0.105	0.100
419.800	3.650	0.100
419.900	-10.217	0.100
420.000	-4.470	0.100
420.100	-4.528	0.100
420.200	-15.303	0.100
420.300	-12.032	0.100
420.400	-0.476	0.100
420.500	-0.632	0.100
420.600	-4.764	0.100
420.700	1.449	0.100
420.800	-2.337	0.100
420.900	-10.447	0.100
421.000	-12.092	0.100
421.100	-37.023	0.100
421.200	-3.391	0.100
421.300	-7.824	0.100
421.400	-10.459	0.100
421.500	-0.238	0.100
421.600	-16.478	0.100
421.700	-13.386	0.100
421.800	1.342	0.100
421.900	10.853	0.100
422.000	3.991	0.100
422.100	-6.139	0.100
422.200	-16.965	0.100
422.300	-22.712	0.100
422.400	-7.620	0.100
422.500	0.064	0.100
422.600	-19.802	0.100
422.700	-11.482	0.100
422.800	-6.147	0.100
422.900	-3.936	0.100
423.000	-12.259	0.100
423.100	-2.829	0.100
423.200	-11.714	0.100
423.300	-6.989	0.100
423.400	-2.882	0.100
423.500	-9.358	0.100
423.600	-17.391	0.100
423.700	-12.087	0.100
423.800	-15.427	0.100
423.900	-12.226	0.100
424.000	-13.342	0.100
424.100	-8.888	0.100
424.200	-12.722	0.100
424.300	-16.661	0.100
424.400	-1.808	0.100
424.500	-14.334	0.100
424.600	-19.456	0.100
424.700	-6.823	0.100
424.800	-10.170	0.100
424.900	-1.359	0.100
425.000	-11.019	0.100
425.100	-6.204	0.100
425.200	-12.720	0.100
425.300	-16.674	0.100
425.400	-9.867	0.100
425.500	-10.236	0.100
425.600	1.608	0.100
425.700	1.618	0.100
425.800	-16.298	0.100
425.900	-9.296	0.100
426.000	-21.248	0.100
426.100	-10.045	0.100
426.200	-11.604	0.100
426.300	-7.505	0.100
426.400	-15.345	0.100
426.500	-13.777	0.100
426.600	-17.095	0.100
426.700	-17.545	0.100
426.800	-8.026	0.100
426.900	-11.750	0.100
427.000	-0.675	0.100
427.100	-7.855	0.100
427.200	-19.375	0.100
427.300	-29.600	0.100
427.400	-14.809	0.100
427.500	-15.761	0.100
427.600	-28.792	0.100
427.700	-23.052	0.100
427.800	-9.866	0.100
427.900	-8.835	0.100
428.000	-13.086	0.100
428.100	-13.886	0.100
428.200	-17.178	0.100
428.300	-16.395	0.100
428.400	-22.443	0.100
428.500	-25.937	0.100
428.600	-8.224	0.100
428.700	-7.071	0.100
428.800	-10.035	0.100
428.900	-5.562	0.100
429.000	2.982	0.100
429.100	-13.737	0.100
429.200	-4.920	0.100
429.300	-18.601	0.100
429.400	-15.272	0.100
429.500	-10.211	0.100
429.600	-28.123	0.100
429.700	-33.176	0.100
429.800	-22.676	0.100
429.900	-13.729	0.100
430.000	-13.989	0.100
430.100	-7.940	0.100
430.200	-21.418	0.100
430.300	-8.560	0.100
430.400	-10.611	0.100
430.500	-20.699	0.100
430.600	-17.587	0.100
430.700	-14.529	0.100
430.800	-15.602	0.100
430.900	-16.845	0.100
431.000	-25.801	0.100
431.100	-15.946	0.100
431.200	-36.626	0.100
431.300	-13.647	0.100
431.400	3.805	0.100
431.500	-9.974	0.100
431.600	-22.778	0.100
431.700	-21.606	0.100
431.800	-8.800	0.100
431.900	-13.924	0.100
432.000	-8.945	0.100
432.100	-15.328	0.100
432.200	-22.136	0.100
432.300	-9.909	0.100
432.400	-18.257	0.100
432.500	-9.888	0.100
432.600	-12.835	0.100
432.700	-7.094	0.100
432.800	-12.074	0.100
432.900	-25.312	0.100
433.000	-20.073	0.100
433.100	-21.401	0.100
433.200	-22.810	0.100
433.300	-20.488	0.100
433.400	-32.567	0.100
433.500	-29.684	0.100
433.600	-3.734	0.100
433.700	-23.059	0.100
433.800	-11.317	0.100
433.900	-20.983	0.100
434.000	-18.159	0.100
434.100	-16.110	0.100
434.200	-23.863	0.100
434.300	-10.851	0.100
434.400	-9.047	0.100
434.500	-9.758	0.100
434.600	-13.821	0.100
434.700	-17.321	0.100
434.800	-17.815	0.100
434.900	-15.029	0.100
435.000	-13.266	0.100
435.100	-34.026	0.100
435.200	-30.063	0.100
435.300	-20.098	0.100
435.400	-6.691	0.100
435.500	1.341	0.100
435.600	-8.632	0.100
435.700	-13.145	0.100
435.800	-15.958	0.100
435.900	-6.938	0.100
436.000	-15.126	0.100
436.100	-21.875	0.100
436.200	-24.998	0.100
436.300	-18.646	0.100
436.400	-29.267	0.100
436.500	-32.611	0.100
436.600	-24.507	0.100
436.700	-9.578	0.100
436.800	-17.716	0.100
436.900	-21.014	0.100
437.000	-13.162	0.100
437.100	-19.909	0.100
437.200	-15.101	0.100
437.300	-12.365	0.100
437.400	-23.333	0.100
437.500	-8.790	0.100
437.600	-24.263	0.100
437.700	-25.098	0.100
437.800	-17.864	0.100
437.900	-28.689	0.100
438.000	-19.898	0.100
438.100	-35.466	0.100
438.200	-17.539	0.100
438.300	-17.205	0.100
438.400	-13.156	0.100
438.500	-18.728	0.100
438.600	-25.492	0.100
438.700	-24.607	0.100
438.800	-28.860	0.100
438.900	-32.049	0.100
439.000	-21.215	0.100
439.100	-17.090	0.100
439.200	-13.732	0.100
439.300	-13.678	0.100
439.400	-26.187	0.100
439.500	-23.662	0.100
439.600	-6.600	0.100
439.700	-20.779	0.100
439.800	-25.516	0.100
439.900	-18.721	0.100
440.000	-5.804	0.100
440.100	-8.314	0.100
440.200	-20.007	0.100
440.300	-21.576	0.100
440.400	-21.957	0.100
440.500	-21.528	0.100
440.600	-32.402	0.100
440.700	-15.846	0.100
440.800	-10.902	0.100
440.900	-18.489	0.100
441.000	-17.399	0.100
441.100	-18.267	0.100
441.200	-13.447	0.100
441.300	-26.616	0.100
441.400	-21.836	0.100
441.500	-31.025	0.100
441.600	-23.132	0.100
441.700	-13.017	0.100
441.800	-14.080	0.100
441.900	-31.399	0.100
442.000	-24.387	0.100
442.100	-21.747	0.100
442.200	-31.366	0.100
442.300	-22.870	0.100
442.400	-33.092	0.100
442.500	-21.473	0.100
442.600	-19.849	0.100
442.700	-11.201	0.100
442.800	-13.943	0.100
442.900	-13.743	0.100
443.000	-1.899	0.100
443.100	-9.954	0.100
443.200	-17.861	0.100
443.300	-12.938	0.100
443.400	-32.277	0.100
443.500	-22.227	0.100
443.600	-23.755	0.100
443.700	-18.417	0.100
443.800	-25.822	0.100
443.900	-19.838	0.100
444.000	-16.902	0.100
444.100	-27.075	0.100
444.200	-17.535	0.100
444.300	-17.916	0.100
444.400	-32.005	0.100
444.500	-19.255	0.100
444.600	-23.832	0.100
444.700	-12.196	0.100
444.800	-20.363	0.100
444.900	-29.376	0.100
445.000	-23.932	0.100
445.100	-21.170	0.100
445.200	-8.654	0.100
445.300	-17.600	0.100
445.400	-11.263	0.100
445.500	-31.628	0.100
445.600	-21.569	0.100
445.700	-30.751	0.100
445.800	-13.553	0.100
445.900	-13.855	0.100
446.000	-23.300	0.100
446.100	-25.678	0.100
446.200	-27.886	0.100
446.300	-29.526	0.100
446.400	-24.794	0.100
446.500	-8.730	0.100
446.600	-21.185	0.100
446.700	-15.897	0.100
446.800	-17.048	0.100
446.900	-26.474	0.100
447.000	-36.974	0.100
447.100	-7.930	0.100
447.200	-12.497	0.100
447.300	-14.763	0.100
447.400	-23.433	0.100
447.500	-18.122	0.100
447.600	-25.701	0.100
447.700	-26.297	0.100
447.800	-31.442	0.100
447.900	-17.470	0.100
448.000	-15.818	0.100
448.100	-15.976	0.100
448.200	-15.311	0.100
448.300	-20.523	0.100
448.400	-25.798	0.100
448.500	-19.806	0.100
448.600	-32.604	0.100
448.700	-17.637	0.100
448.800	-22.458	0.100
448.900	-15.796	0.100
449.000	-29.825	0.100
449.100	-21.627	0.100
449.200	-32.990	0.100
449.300	-24.409	0.100
449.400	-23.812	0.100
449.500	-22.172	0.100
449.600	-25.525	0.100
449.700	-28.547	0.100
449.800	-25.528	0.100
449.900	-10.535	0.100
450.000	-23.493	0.100
450.100	-27.039	0.100
450.200	-36.057	0.100
450.300	-17.953	0.100
450.400	-23.827	0.100
450.500	-14.089	0.100
450.600	-20.716	0.100
450.700	-14.084	0.100
450.800	-19.437	0.100
450.900	-22.826	0.100
451.000	-25.984	0.100
451.100	-21.039	0.100
451.200	-18.083	0.100
451.300	-20.658	0.100
451.400	-16.943	0.100
451.500	-25.970	0.100
451.600	-29.077	0.100
451.700	-35.701	0.100
451.800	-24.506	0.100
451.900	-24.370	0.100
452.000	-31.863	0.100
452.100	-20.405	0.100
452.200	-11.621	0.100
452.300	-12.595	0.100
452.400	-20.720	0.100
452.500	-23.462	0.100
452.600	-31.132	0.100
452.700	-29.330	0.100
452.800	-31.741	0.100
452.900	-35.813	0.100
453.000	-22.965	0.100
453.100	-11.162	0.100
453.200	-28.635	0.100
453.300	-21.289	0.100
453.400	-21.463	0.100
453.500	-35.500	0.100
453.600	-8.309	0.100
453.700	-17.289	0.100
453.800	-20.420	0.100
453.900	-31.218	0.100
454.000	-18.315	0.100
454.100	-12.256	0.100
454.200	-19.714	0.100
454.300	-21.649	0.100
454.400	-15.907	0.100
454.500	-21.963	0.100
454.600	-27.515	0.100
454.700	-22.725	0.100
454.800	-34.773	0.100
454.900	-16.710	0.100
455.000	-18.343	0.100
455.100	-23.335	0.100
455.200	-19.640	0.100
455.300	-19.627	0.100
455.400	-26.332	0.100
455.500	-19.839	0.100
455.600	-32.724	0.100
455.700	-7.644	0.100
455.800	-24.025	0.100
455.900	-16.684	0.100
456.000	-29.379	0.100
456.100	-26.283	0.100
456.200	-25.445	0.100
456.300	-31.033	0.100
456.400	-22.408	0.100
456.500	-19.273	0.100
456.600	-16.474	0.100
456.700	-15.295	0.100
456.800	-26.050	0.100
456.900	-29.035	0.100
457.000	-27.934	0.100
457.100	-20.895	0.100
457.200	-23.021	0.100
457.300	-30.069	0.100
457.400	-30.029	0.100
457.500	-21.248	0.100
457.600	-17.207	0.100
457.700	-22.339	0.100
457.800	-18.810	0.100
457.900	-7.718	0.100
458.000	-26.525	0.100
458.100	-27.960	0.100
458.200	-29.292	0.100
458.300	-24.417	0.100
458.400	-18.400	0.100
458.500	-12.501	0.100
458.600	-14.800	0.100
458.700	-23.794	0.100
458.800	-29.704	0.100
458.900	-34.633	0.100
459.000	-33.578	0.100
459.100	-16.806	0.100
459.200	-17.067	0.100
459.300	-12.273	0.100
459.400	-23.694	0.100
459.500	-26.394	0.100
459.600	-16.265	0.100
459.700	-24.579	0.100
459.800	-20.477	0.100
459.900	-30.122	0.100
460.000	-22.434	0.100
460.100	-20.158	0.100
460.200	-35.407	0.100
460.300	-32.170	0.100
460.400	-22.545	0.100
460.500	-12.652	0.100
460.600	-30.374	0.100
460.700	-21.334	0.100
460.800	-30.919	0.100
460.900	-21.567	0.100
461.000	-22.727	0.100
461.100	-29.921	0.100
461.200	-31.457	0.100
461.300	-23.059	0.100
461.400	-27.289	0.100
461.500	-9.119	0.100
461.600	-19.787	0.100
461.700	-33.710	0.100
461.800	-12.162	0.100
461.900	-15.876	0.100
462.000	-29.699	0.100
462.100	-22.118	0.100
462.200	-17.313	0.100
462.300	-18.549	0.100
462.400	-14.764	0.100
462.500	-22.052	0.100
462.600	-16.427	0.100
462.700	-23.344	0.100
462.800	-40.399	0.100
462.900	-20.864	0.100
463.000	-15.612	0.100
463.100	-23.792	0.100
463.200	-26.587	0.100
463.300	-33.811	0.100
463.400	-22.310	0.100
463.500	-17.292	0.100
463.600	-18.454	0.100
463.700	-25.927	0.100
463.800	-22.339	0.100
463.900	-24.462	0.100
464.000	-23.473	0.100
464.100	-25.304	0.100
464.200	-23.480	0.100
464.300	-25.609	0.100
464.400	-24.524	0.100
464.500	-23.208	0.100
464.600	-24.794	0.100
464.700	-12.665	0.100
464.800	-24.387	0.100
464.900	-26.549	0.100
465.000	-15.752	0.100
465.100	-21.662	0.100
465.200	-31.711	0.100
465.300	-23.814	0.100
465.400	-34.941	0.100
465.500	-28.104	0.100
465.600	-21.373	0.100
465.700	-13.274	0.100
465.800	-24.671	0.100
465.900	-16.281	0.100
466.000	-5.809	0.100
466.100	-28.453	0.100
466.200	-19.476	0.100
466.300	-26.995	0.100
466.400	-30.112	0.100
466.500	-14.036	0.100
466.600	-32.917	0.100
466.700	-22.011	0.100
466.800	-24.152	0.100
466.900	-22.899	0.100
467.000	-22.690	0.100
467.100	-22.119	0.100
467.200	-18.090	0.100
467.300	-23.694	0.100
467.400	-19.563	0.100
467.500	-13.307	0.100
467.600	-21.960	0.100
467.700	-31.507	0.100
467.800	-27.493	0.100
467.900	-19.845	0.100
468.000	-17.846	0.100
468.100	-27.435	0.100
468.200	-20.817	0.100
468.300	-27.177	0.100
468.400	-25.807	0.100
468.500	-26.890	0.100
468.600	-27.731	0.100
468.700	-18.750	0.100
468.800	-17.733	0.100
468.900	-21.721	0.100
469.000	-22.948	0.100
469.100	-19.187	0.100
469.200	-19.973	0.100
469.300	-29.193	0.100
469.400	-27.574	0.100
469.500	-16.694	0.100
469.600	-20.612	0.100
469.700	-29.017	0.100
469.800	-21.494	0.100
469.900	-23.584	0.100
470.000	-24.820	0.100
470.100	-29.427	0.100
470.200	-19.842	0.100
470.300	-24.270	0.100
470.400	-16.471	0.100
470.500	-12.167	0.100
470.600	-26.543	0.100
470.700	-20.014	0.100
470.800	-23.235	0.100
470.900	-21.780	0.100
471.000	-26.618	0.100
471.100	-33.205	0.100
471.200	-18.083	0.100
471.300	-19.123	0.100
471.400	-37.688	0.100
471.500	-18.376	0.100
471.600	-22.578	0.100
471.700	-20.367	0.100
471.800	-18.683	0.100
471.900	-27.525	0.100
472.000	-20.509	0.100
472.100	-24.037	0.100
472.200	-19.222	0.100
472.300	-17.268	0.100
472.400	-27.527	0.100
472.500	-33.344	0.100
472.600	-9.957	0.100
472.700	-29.792	0.100
472.800	-26.180	0.100
472.900	-19.132	0.100
473.000	-19.133	0.100
473.100	-33.455	0.100
473.200	-29.033	0.100
473.300	-24.262	0.100
473.400	-22.990	0.100
473.500	-21.035	0.100
473.600	-26.485	0.100
473.700	-18.282	0.100
473.800	-22.620	0.100
473.900	-17.840	0.100
474.000	-19.947	0.100
474.100	-3.145	0.100
474.200	-18.703	0.100
474.300	-34.633	0.100
474.400	-23.229	0.100
474.500	-18.004	0.100
474.600	-11.264	0.100
474.700	-16.635	0.100
474.800	-26.303	0.100
474.900	-25.787	0.100
475.000	-16.321	0.100
475.100	-16.704	0.100
475.200	-20.212	0.100
475.300	-12.690	0.100
475.400	-22.990	0.100
475.500	-29.120	0.100
475.600	-22.770	0.100
475.700	-29.065	0.100
475.800	-14.304	0.100
475.900	-11.269	0.100
476.000	-24.212	0.100
476.100	-32.051	0.100
476.200	-26.983	0.100
476.300	-17.286	0.100
476.400	-21.212	0.100
476.500	-15.861	0.100
476.600	-20.420	0.100
476.700	-14.949	0.100
476.800	-21.741	0.100
476.900	-36.030	0.100
477.000	-27.997	0.100
477.100	-23.664	0.100
477.200	-21.634	0.100
477.300	-32.884	0.100
477.400	-28.209	0.100
477.500	-13.967	0.100
477.600	-18.617	0.100
477.700	-19.607	0.100
477.800	-16.485	0.100
477.900	-16.135	0.100
478.000	-17.705	0.100
478.100	-16.186	0.100
478.200	-29.872	0.100
478.300	-32.787	0.100
478.400	-24.668	0.100
478.500	-24.037	0.100
478.600	-15.875	0.100
478.700	-28.091	0.100
478.800	-26.157	0.100
478.900	-23.527	0.100
479.000	-27.220	0.100
479.100	-22.680	0.100
479.200	-26.283	0.100
479.300	-16.717	0.100
479.400	-17.217	0.100
479.500	-17.324	0.100
479.600	-17.704	0.100
479.700	-17.485	0.100
479.800	-17.437	0.100
479.900	-27.198	0.100
480.000	-23.698	0.100
480.100	-14.709	0.100
480.200	-30.613	0.100
480.300	-26.026	0.100
480.400	-27.032	0.100
480.500	-19.840	0.100
480.600	-21.485	0.100
480.700	-18.089	0.100
480.800	-19.395	0.100
480.900	-16.378	0.100
481.000	-16.874	0.100
481.100	-20.833	0.100
481.200	-10.397	0.100
481.300	-8.479	0.100
481.400	-18.416	0.100
481.500	-4.584	0.100
481.600	-13.069	0.100
481.700	0.102	0.100
481.800	0.604	0.100
481.900	-9.058	0.100
482.000	-9.208	0.100
482.100	-2.408	0.100
482.200	0.172	0.100
482.300	8.644	0.100
482.400	15.270	0.100
482.500	-8.976	0.100
482.600	4.873	0.100
482.700	6.767	0.100
482.800	-0.245	0.100
482.900	9.810	0.100
483.000	14.017	0.100
483.100	12.206	0.100
483.200	24.303	0.100
483.300	17.878	0.100
483.400	1.277	0.100
483.500	14.135	0.100
483.600	31.097	0.100
483.700	23.996	0.100
483.800	-5.706	0.100
483.900	8.447	0.100
484.000	25.856	0.100
484.100	15.379	0.100
484.200	5.101	0.100
484.300	12.687	0.100
484.400	22.947	0.100
484.500	17.322	0.100
484.600	5.311	0.100
484.700	-5.360	0.100
484.800	25.399	0.100
484.900	24.816	0.100
485.000	16.321	0.100
485.100	13.356	0.100
485.200	18.068	0.100
485.300	8.225	0.100
485.400	15.446	0.100
485.500	24.540	0.100
485.600	18.779	0.100
485.700	11.741	0.100
485.800	3.278	0.100
485.900	10.953	0.100
486.000	14.011	0.100
486.100	19.774	0.100
486.200	19.081	0.100
486.300	20.881	0.100
486.400	13.629	0.100
486.500	7.763	0.100
486.600	13.686	0.100
486.700	12.441	0.100
486.800	17.155	0.100
486.900	5.602	0.100
487.000	0.363	0.100
487.100	7.225	0.100
487.200	24.451	0.100
487.300	20.053	0.100
487.400	22.573	0.100
487.500	8.148	0.100
487.600	12.395	0.100
487.700	9.453	0.100
487.800	14.575	0.100
487.900	14.071	0.100
488.000	30.333	0.100
488.100	20.580	0.100
488.200	19.107	0.100
488.300	24.131	0.100
488.400	-9.001	0.100
488.500	22.160	0.100
488.600	16.062	0.100
488.700	15.415	0.100
488.800	16.450	0.100
488.900	16.505	0.100
489.000	23.189	0.100
489.100	18.437	0.100
489.200	10.448	0.100
489.300	11.486	0.100
489.400	18.835	0.100
489.500	6.948	0.100
489.600	15.393	0.100
489.700	25.913	0.100
489.800	23.898	0.100
489.900	13.139	0.100
490.000	5.986	0.100
490.100	15.342	0.100
490.200	40.055	0.100
490.300	25.837	0.100
490.400	18.001	0.100
490.500	26.862	0.100
490.600	32.288	0.100
490.700	24.508	0.100
490.800	13.480	0.100
490.900	9.451	0.100
491.000	22.380	0.100
491.100	20.457	0.100
491.200	20.622	0.100
491.300	23.800	0.100
491.400	15.938	0.100
491.500	22.487	0.100
491.600	28.553	0.100
491.700	18.947	0.100
491.800	17.427	0.100
491.900	25.039	0.100
492.000	22.019	0.100
492.100	2.636	0.100
492.200	25.775	0.100
492.300	27.240	0.100
492.400	8.877	0.100
492.500	23.808	0.100
492.600	38.357	0.100
492.700	18.488	0.100
492.800	10.950	0.100
492.900	10.549	0.100
493.000	21.082	0.100
493.100	17.521	0.100
493.200	20.237	0.100
493.300	16.881	0.100
493.400	24.856	0.100
493.500	23.496	0.100
493.600	23.076	0.100
493.700	20.941	0.100
493.800	19.840	0.100
493.900	23.345	0.100
494.000	20.066	0.100
494.100	26.618	0.100
494.200	20.998	0.100
494.300	28.662	0.100
494.400	13.677	0.100
494.500	20.000	0.100
494.600	20.893	0.100
494.700	22.081	0.100
494.800	37.389	0.100
494.900	21.926	0.100
495.000	40.118	0.100
495.100	14.660	0.100
495.200	26.454	0.100
495.300	27.696	0.100
495.400	32.794	0.100
495.500	27.283	0.100
495.600	29.858	0.100
495.700	21.321	0.100
495.800	17.380	0.100
495.900	26.329	0.100
496.000	36.989	0.100
496.100	34.919	0.100
496.200	30.677	0.100
496.300	19.663	0.100
496.400	23.381	0.100
496.500	29.197	0.100
496.600	17.069	0.100
496.700	16.440	0.100
496.800	29.053	0.100
496.900	19.942	0.100
497.000	25.012	0.100
497.100	30.817	0.100
497.200	27.977	0.100
497.300	25.298	0.100
497.400	30.205	0.100
497.500	24.827	0.100
497.600	23.386	0.100
497.700	30.053	0.100
497.800	26.261	0.100
497.900	19.929	0.100
498.000	39.335	0.100
498.100	29.244	0.100
498.200	21.641	0.100
498.300	28.991	0.100
498.400	34.882	0.100
498.500	29.787	0.100
498.600	12.407	0.100
498.700	28.612	0.100
498.800	25.678	0.100
498.900	28.245	0.100
499.000	29.076	0.100
499.100	39.393	0.100
499.200	33.580	0.100
499.300	24.711	0.100
499.400	38.863	0.100
499.500	38.335	0.100
499.600	35.497	0.100
499.700	29.359	0.100
499.800	29.712	0.100
499.900	33.438	0.100
500.000	33.979	0.100
500.100	34.280	0.100
500.200	18.934	0.100
500.300	31.106	0.100
500.400	36.878	0.100
500.500	31.777	0.100
500.600	21.239	0.100
500.700	40.544	0.100
500.800	29.812	0.100
500.900	16.584	0.100
501.000	24.027	0.100
501.100	29.664	0.100
501.200	44.766	0.100
501.300	23.238	0.100
501.400	24.580	0.100
501.500	32.142	0.100
501.600	42.034	0.100
501.700	41.880	0.100
501.800	37.112	0.100
501.900	38.516	0.100
502.000	28.710	0.100
502.100	34.325	0.100
502.200	28.969	0.100
502.300	23.803	0.100
502.400	24.620	0.100
502.500	35.818	0.100
502.600	32.187	0.100
502.700	38.249	0.100
502.800	33.843	0.100
502.900	37.366	0.100
503.000	31.632	0.100
503.100	40.826	0.100
503.200	22.965	0.100
503.300	38.608	0.100
503.400	26.859	0.100
503.500	29.896	0.100
503.600	42.486	0.100
503.700	38.658	0.100
503.800	36.265	0.100
503.900	39.024	0.100
504.000	27.729	0.100
504.100	36.063	0.100
504.200	34.963	0.100
504.300	33.710	0.100
504.400	39.751	0.100
504.500	39.220	0.100
504.600	43.635	0.100
504.700	38.817	0.100
504.800	41.847	0.100
504.900	36.248	0.100
505.000	31.772	0.100
505.100	34.850	0.100
505.200	34.919	0.100
505.300	34.509	0.100
505.400	46.755	0.100
505.500	39.457	0.100
505.600	27.853	0.100
505.700	39.700	0.100
505.800	36.275	0.100
505.900	35.864	0.100
506.000	45.005	0.100
506.100	38.153	0.100
506.200	24.557	0.100
506.300	27.366	0.100
506.400	51.443	0.100
506.500	43.057	0.100
506.600	27.374	0.100
506.700	41.243	0.100
506.800	35.374	0.100
506.900	35.671	0.100
507.000	39.035	0.100
507.100	46.263	0.100
507.200	36.050	0.100
507.300	42.244	0.100
507.400	44.791	0.100
507.500	49.672	0.100
507.600	48.023	0.100
507.700	25.492	0.100
507.800	39.364	0.100
507.900	43.618	0.100
508.000	39.859	0.100
508.100	41.486	0.100
508.200	39.507	0.100
508.300	41.934	0.100
508.400	48.928	0.100
508.500	44.834	0.100
508.600	41.721	0.100
508.700	33.577	0.100
508.800	31.761	0.100
508.900	53.658	0.100
509.000	42.191	0.100
509.100	25.982	0.100
509.200	52.642	0.100
509.300	44.934	0.100
509.400	37.892	0.100
509.500	39.138	0.100
509.600	49.221	0.100
509.700	46.995	0.100
509.800	41.034	0.100
509.900	45.855	0.100
510.000	57.128	0.100
510.100	39.554	0.100
510.200	36.729	0.100
510.300	47.082	0.100
510.400	50.588	0.100
510.500	38.969	0.100
510.600	38.084	0.100
510.700	39.803	0.100
510.800	53.771	0.100
510.900	50.238	0.100
511.000	47.064	0.100
511.100	52.853	0.100
511.200	32.247	0.100
511.300	36.983	0.100
511.400	55.251	0.100
511.500	42.696	0.100
511.600	54.304	0.100
511.700	52.990	0.100
511.800	52.314	0.100
511.900	49.383	0.100
512.000	49.526	0.100
512.100	46.704	0.100
512.200	46.787	0.100
512.300	46.155	0.100
512.400	38.554	0.100
512.500	46.938	0.100
512.600	44.442	0.100
512.700	50.859	0.100
512.800	47.509	0.100
512.900	49.513	0.100
513.000	44.651	0.100
513.100	38.347	0.100
513.200	46.918	0.100
513.300	53.459	0.100
513.400	54.840	0.100
513.500	40.380	0.100
513.600	55.353	0.100
513.700	61.803	0.100
513.800	55.023	0.100
513.900	54.435	0.100
514.000	35.707	0.100
514.100	44.096	0.100
514.200	46.624	0.100
514.300	53.741	0.100
514.400	54.526	0.100
514.500	53.475	0.100
514.600	47.164	0.100
514.700	47.046	0.100
514.800	48.689	0.100
514.900	55.080	0.100
515.000	51.688	0.100
515.100	52.567	0.100
515.200	29.468	0.100
515.300	58.615	0.100
515.400	52.120	0.100
515.500	56.267	0.100
515.600	50.264	0.100
515.700	55.061	0.100
515.800	67.829	0.100
515.900	56.972	0.100
516.000	55.187	0.100
516.100	55.265	0.100
516.200	67.086	0.100
516.300	49.452	0.100
516.400	44.807	0.100
516.500	62.055	0.100
516.600	52.674	0.100
516.700	56.143	0.100
516.800	60.243	0.100
516.900	50.323	0.100
517.000	41.820	0.100
517.100	41.801	0.100
517.200	57.152	0.100
517.300	68.771	0.100
517.400	66.649	0.100
517.500	52.608	0.100
517.600	48.501	0.100
517.700	44.652	0.100
517.800	57.949	0.100
517.900	58.719	0.100
518.000	59.020	0.100
518.100	49.413	0.100
518.200	57.214	0.100
518.300	46.788	0.100
518.400	43.851	0.100
518.500	56.903	0.100
518.600	61.965	0.100
518.700	62.452	0.100
518.800	56.894	0.100
518.900	56.615	0.100
519.000	53.412	0.100
519.100	54.055	0.100
519.200	56.131	0.100
519.300	58.423	0.100
519.400	66.913	0.100
519.500	75.393	0.100
519.600	56.013	0.100
519.700	45.546	0.100
519.800	54.477	0.100
519.900	55.824	0.100
520.000	52.776	0.100
520.100	67.565	0.100
520.200	72.615	0.100
520.300	62.442	0.100
520.400	52.480	0.100
520.500	60.444	0.100
520.600	52.340	0.100
520.700	60.178	0.100
520.800	67.029	0.100
520.900	54.495	0.100
521.000	53.992	0.100
521.100	58.549	0.100
521.200	51.915	0.100
521.300	55.107	0.100
521.400	58.590	0.100
521.500	64.828	0.100
521.600	66.358	0.100
521.700	72.136	0.100
521.800	64.201	0.100
521.900	68.121	0.100
522.000	67.122	0.100
522.100	45.674	0.100
522.200	53.933	0.100
522.300	58.665	0.100
522.400	51.361	0.100
522.500	52.265	0.100
522.600	66.172	0.100
522.700	65.799	0.100
522.800	71.707	0.100
522.900	72.559	0.100
523.000	62.914	0.100
523.100	50.340	0.100
523.200	65.293	0.100
523.300	70.273	0.100
523.400	50.401	0.100
523.500	56.282	0.100
523.600	69.198	0.100
523.700	69.073	0.100
523.800	66.533	0.100
523.900	63.577	0.100
524.000	63.847	0.100
524.100	70.371	0.100
524.200	61.565	0.100
524.300	55.193	0.100
524.400	59.124	0.100
524.500	59.741	0.100
524.600	62.967	0.100
524.700	68.441	0.100
524.800	66.416	0.100
524.900	61.247	0.100
525.000	54.645	0.100
525.100	69.315	0.100
525.200	58.952	0.100
525.300	63.052	0.100
525.400	55.852	0.100
525.500	49.867	0.100
525.600	66.408	0.100
525.700	70.964	0.100
525.800	71.282	0.100
525.900	61.517	0.100
526.000	69.012	0.100
526.100	59.305	0.100
526.200	66.399	0.100
526.300	67.242	0.100
526.400	59.353	0.100
526.500	64.647	0.100
526.600	60.810	0.100
526.700	62.028	0.100
526.800	67.493	0.100
526.900	68.879	0.100
527.000	58.664	0.100
527.100	77.345	0.100
527.200	58.240	0.100
527.300	65.820	0.100
527.400	53.852	0.100
527.500	65.175	0.100
527.600	65.549	0.100
527.700	57.542	0.100
527.800	61.387	0.100
527.900	68.968	0.100
528.000	63.387	0.100
528.100	54.790	0.100
528.200	60.104	0.100
528.300	69.450	0.100
528.400	65.285	0.100
528.500	66.221	0.100
528.600	64.685	0.100
528.700	60.665	0.100
528.800	63.556	0.100
528.900	79.772	0.100
529.000	64.273	0.100
529.100	64.857	0.100
529.200	67.813	0.100
529.300	71.214	0.100
529.400	72.343	0.100
529.500	62.925	0.100
529.600	67.103	0.100
529.700	60.502	0.100
529.800	61.159	0.100
529.900	64.275	0.100
530.000	61.972	0.100
530.100	62.872	0.100
530.200	57.914	0.100
530.300	59.403	0.100
530.400	56.955	0.100
530.500	58.251	0.100
530.600	73.023	0.100
530.700	78.954	0.100
530.800	65.284	0.100
530.900	71.598	0.100
531.000	71.684	0.100
531.100	68.128	0.100
531.200	61.152	0.100
531.300	53.864	0.100
531.400	80.375	0.100
531.500	61.318	0.100
531.600	53.479	0.100
531.700	79.934	0.100
531.800	67.903	0.100
531.900	62.459	0.100
532.000	58.863	0.100
532.100	59.211	0.100
532.200	59.997	0.100
532.300	63.425	0.100
532.400	65.186	0.100
532.500	70.750	0.100
532.600	61.499	0.100
532.700	72.546	0.100
532.800	59.516	0.100
532.900	62.694	0.100
533.000	62.541	0.100
533.100	69.920	0.100
533.200	62.385	0.100
533.300	67.728	0.100
533.400	54.862	0.100
533.500	52.817	0.100
533.600	54.652	0.100
533.700	67.656	0.100
533.800	72.935	0.100
533.900	77.354	0.100
534.000	58.697	0.100
534.100	76.162	0.100
534.200	74.691	0.100
534.300	65.230	0.100
534.400	65.435	0.100
534.500	60.952	0.100
534.600	58.316	0.100
534.700	50.337	0.100
534.800	72.476	0.100
534.900	71.370	0.100
535.000	74.081	0.100
535.100	69.759	0.100
535.200	64.483	0.100
535.300	68.989	0.100
535.400	72.998	0.100
535.500	67.050	0.100
535.600	67.595	0.100
535.700	59.590	0.100
535.800	64.991	0.100
535.900	52.008	0.100
536.000	63.405	0.100
536.100	66.858	0.100
536.200	75.523	0.100
536.300	69.819	0.100
536.400	77.514	0.100
536.500	59.276	0.100
536.600	59.472	0.100
536.700	69.471	0.100
536.800	63.164	0.100
536.900	61.930	0.100
537.000	69.198	0.100
537.100	56.155	0.100
537.200	56.388	0.100
537.300	61.941	0.100
537.400	74.272	0.100
537.500	65.555	0.100
537.600	64.830	0.100
537.700	69.010	0.100
537.800	65.476	0.100
537.900	61.220	0.100
538.000	66.513	0.100
538.100	65.073	0.100
538.200	62.780	0.100
538.300	56.937	0.100
538.400	68.782	0.100
538.500	65.816	0.100
538.600	59.675	0.100
538.700	64.060	0.100
538.800	60.381	0.100
538.900	56.618	0.100
539.000	61.821	0.100
539.100	63.552	0.100
539.200	62.361	0.100
539.300	70.589	0.100
539.400	70.475	0.100
539.500	57.116	0.100
539.600	65.645	0.100
539.700	74.182	0.100
539.800	63.650	0.100
539.900	75.376	0.100
540.000	73.872	0.100
540.100	54.975	0.100
540.200	73.603	0.100
540.300	65.712	0.100
540.400	58.971	0.100
540.500	59.052	0.100
540.600	60.206	0.100
540.700	54.924	0.100
540.800	71.848	0.100
540.900	73.355	0.100
541.000	62.675	0.100
541.100	66.039	0.100
541.200	38.172	0.100
541.300	51.144	0.100
541.400	60.259	0.100
541.500	61.946	0.100
541.600	59.166	0.100
541.700	50.721	0.100
541.800	51.547	0.100
541.900	45.400	0.100
542.000	43.774	0.100
542.100	52.479	0.100
542.200	41.236	0.100
542.300	34.457	0.100
542.400	42.366	0.100
542.500	47.600	0.100
542.600	35.557	0.100
542.700	29.079	0.100
542.800	45.156	0.100
542.900	41.460	0.100
543.000	50.408	0.100
543.100	38.138	0.100
543.200	42.590	0.100
543.300	31.024	0.100
543.400	40.022	0.100
543.500	31.547	0.100
543.600	28.255	0.100
543.700	29.943	0.100
543.800	33.408	0.100
543.900	41.987	0.100
544.000	20.435	0.100
544.100	17.448	0.100
544.200	48.184	0.100
544.300	37.767	0.100
544.400	36.464	0.100
544.500	27.782	0.100
544.600	30.676	0.100
544.700	23.012	0.100
544.800	18.340	0.100
544.900	28.556	0.100
545.000	37.161	0.100
545.100	42.491	0.100
545.200	27.765	0.100
545.300	15.426	0.100
545.400	22.280	0.100
545.500	7.822	0.100
545.600	30.581	0.100
545.700	11.246	0.100
545.800	36.721	0.100
545.900	20.358	0.100
546.000	24.195	0.100
546.100	25.712	0.100
546.200	22.552	0.100
546.300	29.420	0.100
546.400	30.753	0.100
546.500	28.822	0.100
546.600	30.961	0.100
546.700	26.390	0.100
546.800	29.502	0.100
546.900	12.654	0.100
547.000	18.437	0.100
547.100	35.009	0.100
547.200	25.731	0.100
547.300	31.035	0.100
547.400	27.465	0.100
547.500	35.249	0.100
547.600	22.796	0.100
547.700	13.960	0.100
547.800	21.572	0.100
547.900	9.431	0.100
548.000	24.469	0.100
548.100	26.424	0.100
548.200	15.666	0.100
548.300	10.355	0.100
548.400	16.548	0.100
548.500	34.478	0.100
548.600	14.470	0.100
548.700	31.140	0.100
548.800	21.436	0.100
548.900	24.561	0.100
549.000	27.422	0.100
549.100	26.923	0.100
549.200	19.746	0.100
549.300	23.619	0.100
549.400	23.008	0.100
549.500	4.994	0.100
549.600	20.322	0.100
549.700	22.540	0.100
549.800	24.764	0.100
549.900	17.085	0.100
550.000	17.560	0.100
550.100	20.812	0.100
550.200	8.757	0.100
550.300	19.041	0.100
550.400	11.658	0.100
550.500	8.218	0.100
550.600	25.044	0.100
550.700	22.982	0.100
550.800	16.482	0.100
550.900	6.194	0.100
551.000	19.902	0.100
551.100	21.195	0.100
551.200	15.179	0.100
551.300	3.021	0.100
551.400	29.542	0.100
551.500	23.998	0.100
551.600	15.669	0.100
551.700	10.475	0.100
551.800	22.006	0.100
551.900	17.990	0.100
552.000	14.814	0.100
552.100	16.229	0.100
552.200	19.660	0.100
552.300	13.456	0.100
552.400	2.287	0.100
552.500	5.277	0.100
552.600	16.824	0.100
552.700	11.827	0.100
552.800	7.847	0.100
552.900	6.897	0.100
553.000	23.076	0.100
553.100	10.821	0.100
553.200	30.365	0.100
553.300	11.163	0.100
553.400	21.029	0.100
553.500	7.321	0.100
553.600	22.483	0.100
553.700	13.869	0.100
553.800	10.378	0.100
553.900	5.670	0.100
554.000	11.548	0.100
554.100	10.858	0.100
554.200	7.044	0.100
554.300	11.783	0.100
554.400	7.928	0.100
554.500	20.311	0.100
554.600	10.279	0.100
554.700	3.162	0.100
554.800	10.254	0.100
554.900	9.684	0.100
555.000	15.613	0.100
555.100	12.286	0.100
555.200	-1.694	0.100
555.300	6.577	0.100
555.400	19.754	0.100
555.500	15.933	0.100
555.600	7.375	0.100
555.700	-1.193	0.100
555.800	6.104	0.100
555.900	15.883	0.100
556.000	1.500	0.100
556.100	6.082	0.100
556.200	9.608	0.100
556.300	2.176	0.100
556.400	8.647	0.100
556.500	1.810	0.100
556.600	11.997	0.100
556.700	15.179	0.100
556.800	8.607	0.100
556.900	6.301	0.100
557.000	16.154	0.100
557.100	4.911	0.100
557.200	3.044	0.100
557.300	7.197	0.100
557.400	-2.109	0.100
557.500	13.098	0.100
557.600	10.136	0.100
557.700	1.759	0.100
557.800	25.399	0.100
557.900	9.587	0.100
558.000	13.930	0.100
558.100	9.660	0.100
558.200	10.778	0.100
558.300	1.330	0.100
558.400	-4.699	0.100
558.500	1.439	0.100
558.600	4.151	0.100
558.700	6.116	0.100
558.800	5.399	0.100
558.900	6.362	0.100
559.000	6.436	0.100
559.100	-8.701	0.100
559.200	-3.308	0.100
559.300	12.798	0.100
559.400	-6.115	0.100
559.500	5.739	0.100
559.600	-0.198	0.100
559.700	13.395	0.100
559.800	3.230	0.100
559.900	-0.781	0.100
560.000	-4.516	0.100
560.100	9.521	0.100
560.200	3.395	0.100
560.300	0.399	0.100
560.400	-3.875	0.100
560.500	5.867	0.100
560.600	-4.422	0.100
560.700	-0.765	0.100
560.800	3.652	0.100
560.900	1.131	0.100
561.000	-3.026	0.100
561.100	15.407	0.100
561.200	8.374	0.100
561.300	-0.471	0.100
561.400	-7.845	0.100
561.500	-8.689	0.100
561.600	4.146	0.100
561.700	3.028	0.100
561.800	2.519	0.100
561.900	8.549	0.100
562.000	-4.829	0.100
562.100	-13.980	0.100
562.200	1.640	0.100
562.300	4.022	0.100
562.400	11.302	0.100
562.500	7.026	0.100
562.600	-1.393	0.100
562.700	2.468	0.100
562.800	5.469	0.100
562.900	-3.807	0.100
563.000	6.918	0.100
563.100	-4.555	0.100
563.200	3.313	0.100
563.300	3.736	0.100
563.400	-11.854	0.100
563.500	-8.702	0.100
563.600	-10.311	0.100
563.700	-0.267	0.100
563.800	1.704	0.100
563.900	3.678	0.100
564.000	-3.247	0.100
564.100	-2.687	0.100
564.200	-0.269	0.100
564.300	-4.028	0.100
564.400	-5.369	0.100
564.500	-12.341	0.100
564.600	-7.904	0.100
564.700	-0.251	0.100
564.800	1.514	0.100
564.900	-2.436	0.100
565.000	-12.795	0.100
565.100	12.652	0.100
565.200	-1.093	0.100
565.300	-10.966	0.100
565.400	-2.868	0.100
565.500	-4.072	0.100
565.600	-2.166	0.100
565.700	-20.525	0.100
565.800	-9.684	0.100
565.900	-12.695	0.100
566.000	-1.052	0.100
566.100	4.906	0.100
566.200	4.100	0.100
566.300	-17.156	0.100
566.400	-18.691	0.100
566.500	-14.062	0.100
566.600	-9.240	0.100
566.700	-14.086	0.100
566.800	-0.331	0.100
566.900	-0.706	0.100
567.000	-5.267	0.100
567.100	-19.152	0.100
567.200	4.678	0.100
567.300	-2.593	0.100
567.400	-8.792	0.100
567.500	-2.452	0.100
567.600	-5.556	0.100
567.700	-1.880	0.100
567.800	-14.357	0.100
567.900	-14.995	0.100
568.000	-0.587	0.100
568.100	-3.449	0.100
568.200	-7.925	0.100
568.300	-13.637	0.100
568.400	-9.748	0.100
568.500	-10.478	0.100
568.600	-6.331	0.100
568.700	2.508	0.100
568.800	-3.158	0.100
568.900	-5.084	0.100
569.000	-13.769	0.100
569.100	-16.686	0.100
569.200	-3.228	0.100
569.300	-5.203	0.100
569.400	-4.689	0.100
569.500	-11.698	0.100
569.600	-13.880	0.100
569.700	2.256	0.100
569.800	1.985	0.100
569.900	-12.095	0.100
570.000	-4.502	0.100
570.100	-4.526	0.100
570.200	-9.112	0.100
570.300	-0.381	0.100
570.400	-7.614	0.100
570.500	-9.803	0.100
570.600	-14.948	0.100
570.700	-12.683	0.100
570.800	-30.220	0.100
570.900	-10.024	0.100
571.000	-8.600	0.100
571.100	-4.755	0.100
571.200	-2.952	0.100
571.300	-5.346	0.100
571.400	-11.480	0.100
571.500	-13.525	0.100
571.600	-6.962	0.100
571.700	-9.263	0.100
571.800	-16.444	0.100
571.900	-10.804	0.100
572.000	-14.262	0.100
572.100	-10.089	0.100
572.200	-14.067	0.100
572.300	-7.844	0.100
572.400	-10.532	0.100
572.500	-5.017	0.100
572.600	-5.544	0.100
572.700	-19.421	0.100
572.800	-17.800	0.100
572.900	-2.609	0.100
573.000	-18.658	0.100
573.100	-19.507	0.100
573.200	-12.864	0.100
573.300	-18.362	0.100
573.400	-11.558	0.100
573.500	-12.475	0.100
573.600	-12.270	0.100
573.700	6.567	0.100
573.800	-18.479	0.100
573.900	-26.820	0.100
574.000	-20.101	0.100
574.100	-2.319	0.100
574.200	-6.113	0.100
574.300	-10.659	0.100
574.400	-3.475	0.100
574.500	-14.418	0.100
574.600	-17.959	0.100
574.700	-19.108	0.100
574.800	-23.727	0.100
574.900	-23.573	0.100
575.000	-14.206	0.100
575.100	-18.797	0.100
575.200	-16.431	0.100
575.300	-9.277	0.100
575.400	-2.479	0.100
575.500	-22.080	0.100
575.600	-18.461	0.100
575.700	-14.578	0.100
575.800	-19.792	0.100
575.900	-25.213	0.100
576.000	-16.315	0.100
576.100	-4.234	0.100
576.200	-16.581	0.100
576.300	2.039	0.100
576.400	-16.966	0.100
576.500	-19.390	0.100
576.600	-11.434	0.100
576.700	-11.065	0.100
576.800	-15.474	0.100
576.900	-19.533	0.100
577.000	-21.579	0.100
577.100	-14.905	0.100
577.200	-16.053	0.100
577.300	-8.713	0.100
577.400	-25.203	0.100
577.500	-20.297	0.100
577.600	-31.823	0.100
577.700	-15.652	0.100
577.800	-12.211	0.100
577.900	-0.339	0.100
578.000	-13.610	0.100
578.100	-12.707	0.100
578.200	-10.646	0.100
578.300	-6.588	0.100
578.400	-11.528	0.100
578.500	-12.550	0.100
578.600	-16.760	0.100
578.700	-20.947	0.100
578.800	-3.320	0.100
578.900	-19.355	0.100
579.000	-16.822	0.100
579.100	-12.821	0.100
579.200	-23.467	0.100
579.300	-20.646	0.100
579.400	-16.575	0.100
579.500	-13.778	0.100
579.600	-19.642	0.100
579.700	-20.926	0.100
579.800	-21.811	0.100
579.900	-21.977	0.100
580.000	-22.329	0.100
580.100	-11.347	0.100
580.200	-13.041	0.100
580.300	-23.842	0.100
580.400	-14.159	0.100
580.500	-27.967	0.100
580.600	-23.557	0.100
580.700	-18.210	0.100
580.800	-17.900	0.100
580.900	-16.938	0.100
581.000	-9.150	0.100
581.100	-24.081	0.100
581.200	-15.610	0.100
581.300	-19.297	0.100
581.400	-24.567	0.100
581.500	-11.999	0.100
581.600	-19.890	0.100
581.700	-15.574	0.100
581.800	-11.983	0.100
581.900	-15.052	0.100
582.000	-21.980	0.100
582.100	-20.629	0.100
582.200	-35.286	0.100
582.300	-17.663	0.100
582.400	-12.318	0.100
582.500	-33.269	0.100
582.600	-16.046	0.100
582.700	-21.560	0.100
582.800	-13.096	0.100
582.900	-23.371	0.100
583.000	-16.785	0.100
583.100	-23.994	0.100
583.200	-25.457	0.100
583.300	-16.016	0.100
583.400	-17.912	0.100
583.500	-12.926	0.100
583.600	-10.879	0.100
583.700	-20.150	0.100
583.800	-21.604	0.100
583.900	-24.765	0.100
584.000	-14.267	0.100
584.100	-16.475	0.100
584.200	-14.905	0.100
584.300	-25.382	0.100
584.400	-15.840	0.100
584.500	-16.981	0.100
584.600	-25.239	0.100
584.700	-15.962	0.100
584.800	-30.839	0.100
584.900	-29.684	0.100
585.000	-30.507	0.100
585.100	-24.802	0.100
585.200	-9.874	0.100
585.300	-10.987	0.100
585.400	-26.594	0.100
585.500	-23.655	0.100
585.600	-29.303	0.100
585.700	-17.313	0.100
585.800	-30.209	0.100
585.900	-14.246	0.100
586.000	-15.079	0.100
586.100	-17.355	0.100
586.200	-11.036	0.100
586.300	-17.002	0.100
586.400	-32.318	0.100
586.500	-27.718	0.100
586.600	-18.379	0.100
586.700	-20.407	0.100
586.800	-22.133	0.100
586.900	-17.309	0.100
587.000	-26.065	0.100
587.100	-24.004	0.100
587.200	-20.214	0.100
587.300	-29.912	0.100
587.400	-32.113	0.100
587.500	-17.099	0.100
587.600	-24.606	0.100
587.700	-10.839	0.100
587.800	-17.946	0.100
587.900	-23.364	0.100
588.000	-27.297	0.100
588.100	-19.630	0.100
588.200	-19.864	0.100
588.300	-26.427	0.100
588.400	-32.990	0.100
588.500	-20.971	0.100
588.600	-27.380	0.100
588.700	-23.483	0.100
588.800	-24.669	0.100
588.900	-26.335	0.100
589.000	-11.234	0.100
589.100	-20.404	0.100
589.200	-22.639	0.100
589.300	-18.977	0.100
589.400	-21.478	0.100
589.500	-29.532	0.100
589.600	-23.799	0.100
589.700	-24.473	0.100
589.800	-23.054	0.100
589.900	-13.048	0.100
590.000	-18.445	0.100
590.100	-27.599	0.100
590.200	-18.637	0.100
590.300	-18.416	0.100
590.400	-31.373	0.100
590.500	-23.309	0.100
590.600	-10.193	0.100
590.700	-9.029	0.100
590.800	-31.447	0.100
590.900	-16.378	0.100
591.000	-25.241	0.100
591.100	-16.640	0.100
591.200	-18.920	0.100
591.300	-29.176	0.100
591.400	-28.197	0.100
591.500	-18.784	0.100
591.600	-18.155	0.100
591.700	-29.949	0.100
591.800	-32.222	0.100
591.900	-20.082	0.100
592.000	-19.576	0.100
592.100	-21.828	0.100
592.200	-18.652	0.100
592.300	-22.248	0.100
592.400	-37.112	0.100
592.500	-14.285	0.100
592.600	-12.484	0.100
592.700	-15.055	0.100
592.800	-18.470	0.100
592.900	-20.762	0.100
593.000	-21.222	0.100
593.100	-20.346	0.100
593.200	-16.786	0.100
593.300	-27.287	0.100
593.400	-24.753	0.100
593.500	-24.842	0.100
593.600	-18.488	0.100
593.700	-14.662	0.100
593.800	-30.143	0.100
593.900	-31.555	0.100
594.000	-20.114	0.100
594.100	-19.314	0.100
594.200	-21.523	0.100
594.300	-19.873	0.100
594.400	-30.809	0.100
594.500	-28.902	0.100
594.600	-29.882	0.100
594.700	-22.257	0.100
594.800	-17.328	0.100
594.900	-16.288	0.100
595.000	-22.686	0.100
595.100	-39.409	0.100
595.200	-20.687	0.100
595.300	-39.570	0.100
595.400	-24.219	0.100
595.500	-16.698	0.100
595.600	-23.633	0.100
595.700	-24.674	0.100
595.800	-18.303	0.100
595.900	-14.979	0.100
596.000	-24.460	0.100
596.100	-22.341	0.100
596.200	-21.190	0.100
596.300	-25.595	0.100
596.400	-35.152	0.100
596.500	-22.067	0.100
596.600	-18.810	0.100
596.700	-31.155	0.100
596.800	-23.384	0.100
596.900	-22.558	0.100
597.000	-11.082	0.100
597.100	-15.948	0.100
597.200	-26.894	0.100
597.300	-33.829	0.100
597.400	-20.124	0.100
597.500	-34.910	0.100
597.600	-32.666	0.100
597.700	-33.931	0.100
597.800	-31.052	0.100
597.900	-20.474	0.100
598.000	-34.652	0.100
598.100	-25.571	0.100
598.200	-22.724	0.100
598.300	-12.800	0.100
598.400	-20.737	0.100
598.500	-28.189	0.100
598.600	-26.803	0.100
598.700	-31.994	0.100
598.800	-34.006	0.100
598.900	-24.100	0.100
599.000	-20.460	0.100
599.100	-18.774	0.100
599.200	-23.241	0.100
599.300	-25.487	0.100
599.400	-28.294	0.100
599.500	-33.917	0.100
599.600	-23.003	0.100
599.700	-18.058	0.100
599.800	-19.696	0.100
599.900	-27.119	0.100
600.000	-12.459	0.100
600.100	-14.700	0.100
600.200	-15.189	0.100
600.300	-28.009	0.100
600.400	-23.403	0.100
600.500	-16.577	0.100
600.600	-23.286	0.100
600.700	-27.002	0.100
600.800	-23.356	0.100
600.900	-23.112	0.100
601.000	-25.455	0.100
601.100	-20.511	0.100
601.200	-24.022	0.100
601.300	-41.357	0.100
601.400	-26.428	0.100
601.500	-13.650	0.100
601.600	-27.703	0.100
601.700	-34.097	0.100
601.800	-18.986	0.100
601.900	-17.269	0.100
602.000	-27.637	0.100
602.100	-34.996	0.100
602.200	-20.451	0.100
602.300	-35.029	0.100
602.400	-17.874	0.100
602.500	-16.126	0.100
602.600	-24.256	0.100
602.700	-41.713	0.100
602.800	-23.833	0.100
602.900	-17.946	0.100
603.000	-30.667	0.100
603.100	-26.572	0.100
603.200	-12.663	0.100
603.300	-21.689	0.100
603.400	-23.978	0.100
603.500	-26.132	0.100
603.600	-28.527	0.100
603.700	-24.487	0.100
603.800	-32.109	0.100
603.900	-27.910	0.100
604.000	-30.729	0.100
604.100	-21.084	0.100
604.200	-14.012	0.100
604.300	-30.629	0.100
604.400	-22.364	0.100
604.500	-17.674	0.100
604.600	-29.674	0.100
604.700	-29.849	0.100
604.800	-27.391	0.100
604.900	-21.034	0.100
605.000	-24.632	0.100
605.100	-19.938	0.100
605.200	-35.110	0.100
605.300	-25.196	0.100
605.400	-14.468	0.100
605.500	-28.943	0.100
605.600	-35.338	0.100
605.700	-27.979	0.100
605.800	-25.662	0.100
605.900	-24.009	0.100
606.000	-14.392	0.100
606.100	-32.009	0.100
606.200	-31.552	0.100
606.300	-36.419	0.100
606.400	-16.954	0.100
606.500	-28.256	0.100
606.600	-18.056	0.100
606.700	-25.691	0.100
606.800	-38.241	0.100
606.900	-20.468	0.100
607.000	-28.890	0.100
607.100	-21.384	0.100
607.200	-30.538	0.100
607.300	-19.220	0.100
607.400	-22.947	0.100
607.500	-25.889	0.100
607.600	-17.599	0.100
607.700	-22.262	0.100
607.800	-26.822	0.100
607.900	-22.347	0.100
608.000	-21.777	0.100
608.100	-17.546	0.100
608.200	-28.870	0.100
608.300	-18.886	0.100
608.400	-26.158	0.100
608.500	-29.519	0.100
608.600	-29.164	0.100
608.700	-19.712	0.100
608.800	-30.519	0.100
608.900	-11.740	0.100
609.000	-33.756	0.100
609.100	-26.747	0.100
609.200	-29.717	0.100
609.300	-25.493	0.100
609.400	-23.705	0.100
609.500	-30.063	0.100
609.600	-27.868	0.100
609.700	-29.244	0.100
609.800	-30.283	0.100
609.900	-23.279	0.100
610.000	-24.152	0.100
610.100	-32.829	0.100
610.200	-30.961	0.100
610.300	-14.717	0.100
610.400	-24.896	0.100
610.500	-32.570	0.100
610.600	-17.596	0.100
610.700	-28.518	0.100
610.800	-17.645	0.100
610.900	-22.372	0.100
611.000	-21.878	0.100
611.100	-34.850	0.100
611.200	-40.551	0.100
611.300	-13.116	0.100
611.400	-24.479	0.100
611.500	-21.630	0.100
611.600	-19.910	0.100
611.700	-28.936	0.100
611.800	-34.436	0.100
611.900	-25.616	0.100
612.000	-23.770	0.100
612.100	-17.273	0.100
612.200	-19.727	0.100
612.300	-26.057	0.100
612.400	-29.505	0.100
612.500	-18.661	0.100
612.600	-23.357	0.100
612.700	-32.042	0.100
612.800	-17.137	0.100
612.900	-25.321	0.100
613.000	-14.763	0.100
613.100	-18.676	0.100
613.200	-25.383	0.100
613.300	-39.628	0.100
613.400	-31.470	0.100
613.500	-26.919	0.100
613.600	-29.044	0.100
613.700	-20.326	0.100
613.800	-20.195	0.100
613.900	-16.700	0.100
614.000	-28.041	0.100
614.100	-44.147	0.100
614.200	-26.426	0.100
614.300	-32.529	0.100
614.400	-6.531	0.100
614.500	-18.635	0.100
614.600	-25.248	0.100
614.700	-23.456	0.100
614.800	-23.820	0.100
614.900	-27.574	0.100
615.000	-29.800	0.100
615.100	-17.904	0.100
615.200	-29.311	0.100
615.300	-27.411	0.100
615.400	-28.049	0.100
615.500	-17.504	0.100
615.600	-25.719	0.100
615.700	-29.396	0.100
615.800	-23.650	0.100
615.900	-19.540	0.100
616.000	-36.001	0.100
616.100	-16.818	0.100
616.200	-15.362	0.100
616.300	-8.795	0.100
616.400	-14.654	0.100
616.500	-26.252	0.100
616.600	-17.064	0.100
616.700	-32.871	0.100
616.800	-29.231	0.100
616.900	-19.110	0.100
617.000	-18.937	0.100
617.100	-30.049	0.100
617.200	-27.310	0.100
617.300	-21.394	0.100
617.400	-27.555	0.100
617.500	-15.594	0.100
617.600	-29.581	0.100
617.700	-30.157	0.100
617.800	-36.351	0.100
617.900	-18.542	0.100
618.000	-10.788	0.100
618.100	-24.395	0.100
618.200	-23.595	0.100
618.300	-32.947	0.100
618.400	-21.806	0.100
618.500	-23.054	0.100
618.600	-22.940	0.100
618.700	-18.141	0.100
618.800	-23.739	0.100
618.900	-32.171	0.100
619.000	-27.894	0.100
619.100	-17.916	0.100
619.200	-18.594	0.100
619.300	-22.303	0.100
619.400	-20.841	0.100
619.500	-22.391	0.100
619.600	-21.969	0.100
619.700	-30.095	0.100
619.800	-31.686	0.100
619.900	-35.838	0.100
620.000	-33.261	0.100
620.100	-15.212	0.100
620.200	-17.590	0.100
620.300	-34.291	0.100
620.400	-30.716	0.100
620.500	-30.474	0.100
620.600	-28.548	0.100
620.700	-16.343	0.100
620.800	-17.544	0.100
620.900	-30.497	0.100
621.000	-24.444	0.100
621.100	-28.457	0.100
621.200	-33.404	0.100
621.300	-23.229	0.100
621.400	-27.050	0.100
621.500	-21.444	0.100
621.600	-20.014	0.100
621.700	-23.723	0.100
621.800	-31.707	0.100
621.900	-29.675	0.100
622.000	-26.422	0.100
622.100	-21.575	0.100
622.200	-27.237	0.100
622.300	-20.060	0.100
622.400	-31.000	0.100
622.500	-25.081	0.100
622.600	-17.842	0.100
622.700	-29.584	0.100
622.800	-21.758	0.100
622.900	-16.507	0.100
623.000	-20.305	0.100
623.100	-20.982	0.100
623.200	-18.769	0.100
623.300	-8.647	0.100
623.400	-28.016	0.100
623.500	-26.573	0.100
623.600	-31.561	0.100
623.700	-34.795	0.100
623.800	-27.193	0.100
623.900	-19.822	0.100
624.000	-39.991	0.100
624.100	-26.860	0.100
624.200	-13.581	0.100
624.300	-19.075	0.100
624.400	-27.250	0.100
624.500	-29.861	0.100
624.600	-17.868	0.100
624.700	-32.256	0.100
624.800	-28.409	0.100
624.900	-19.593	0.100
625.000	-26.186	0.100
625.100	-11.157	0.100
625.200	-12.344	0.100
625.300	-24.950	0.100
625.400	-25.656	0.100
625.500	-21.847	0.100
625.600	-22.331	0.100
625.700	-13.025	0.100
625.800	-41.053	0.100
625.900	-31.997	0.100
626.000	-23.807	0.100
626.100	-10.407	0.100
626.200	-16.657	0.100
626.300	-30.694	0.100
626.400	-34.888	0.100
626.500	-24.271	0.100
626.600	-26.519	0.100
626.700	-19.790	0.100
626.800	-28.197	0.100
626.900	-25.129	0.100
627.000	-15.561	0.100
627.100	-28.595	0.100
627.200	-25.418	0.100
627.300	-26.427	0.100
627.400	-21.845	0.100
627.500	-30.005	0.100
627.600	-15.356	0.100
627.700	-36.328	0.100
627.800	-19.875	0.100
627.900	-25.854	0.100
628.000	-25.182	0.100
628.100	-12.830	0.100
628.200	-25.586	0.100
628.300	-20.935	0.100
628.400	-26.662	0.100
628.500	-44.036	0.100
628.600	-34.332	0.100
628.700	-38.138	0.100
628.800	-27.400	0.100
628.900	-9.744	0.100
629.000	-15.145	0.100
629.100	-17.574	0.100
629.200	-19.720	0.100
629.300	-30.451	0.100
629.400	-21.385	0.100
629.500	-23.181	0.100
629.600	-28.914	0.100
629.700	-39.580	0.100
629.800	-26.412	0.100
629.900	-15.924	0.100
630.000	-18.407	0.100
630.100	-16.518	0.100
630.200	-17.420	0.100
630.300	-24.803	0.100
630.400	-29.072	0.100
630.500	-23.271	0.100
630.600	-11.447	0.100
630.700	-31.346	0.100
630.800	-21.682	0.100
630.900	-24.128	0.100
631.000	-23.587	0.100
631.100	-17.083	0.100
631.200	-15.799	0.100
631.300	-19.949	0.100
631.400	-29.543	0.100
631.500	-7.971	0.100
631.600	-12.728	0.100
631.700	-9.700	0.100
631.800	-15.507	0.100
631.900	-13.060	0.100
632.000	-0.838	0.100
632.100	10.541	0.100
632.200	0.985	0.100
632.300	5.556	0.100
632.400	0.220	0.100
632.500	-7.629	0.100
632.600	10.797	0.100
632.700	2.734	0.100
632.800	10.030	0.100
632.900	6.866	0.100
633.000	-1.431	0.100
633.100	16.125	0.100
633.200	5.821	0.100
633.300	7.651	0.100
633.400	12.313	0.100
633.500	20.585	0.100
633.600	13.821	0.100
633.700	11.654	0.100
633.800	14.598	0.100
633.900	12.255	0.100
634.000	14.649	0.100
634.100	13.704	0.100
634.200	5.357	0.100
634.300	5.175	0.100
634.400	12.602	0.100
634.500	0.751	0.100
634.600	11.692	0.100
634.700	11.303	0.100
634.800	19.843	0.100
634.900	13.541	0.100
635.000	4.634	0.100
635.100	5.820	0.100
635.200	15.706	0.100
635.300	6.127	0.100
635.400	19.129	0.100
635.500	16.477	0.100
635.600	18.846	0.100
635.700	8.011	0.100
635.800	18.690	0.100
635.900	5.551	0.100
636.000	6.807	0.100
636.100	17.649	0.100
636.200	16.365	0.100
636.300	14.926	0.100
636.400	7.755	0.100
636.500	3.327	0.100
636.600	11.427	0.100
636.700	9.103	0.100
636.800	19.252	0.100
636.900	33.550	0.100
637.000	22.284	0.100
637.100	10.328	0.100
637.200	18.532	0.100
637.300	1.736	0.100
637.400	12.606	0.100
637.500	12.146	0.100
637.600	22.901	0.100
637.700	8.667	0.100
637.800	3.552	0.100
637.900	16.048	0.100
638.000	11.042	0.100
638.100	-2.060	0.100
638.200	11.743	0.100
638.300	10.130	0.100
638.400	18.147	0.100
638.500	19.232	0.100
638.600	15.506	0.100
638.700	-0.794	0.100
638.800	3.333	0.100
638.900	23.390	0.100
639.000	18.952	0.100
639.100	4.266	0.100
639.200	14.910	0.100
639.300	13.089	0.100
639.400	20.103	0.100
639.500	12.407	0.100
639.600	17.370	0.100
639.700	11.834	0.100
639.800	13.844	0.100
639.900	18.298	0.100
640.000	10.753	0.100
640.100	13.655	0.100
640.200	16.527	0.100
640.300	22.328	0.100
640.400	20.807	0.100
640.500	21.595	0.100
640.600	22.271	0.100
640.700	22.082	0.100
640.800	11.198	0.100
640.900	8.071	0.100
641.000	20.136	0.100
641.100	23.245	0.100
641.200	10.896	0.100
641.300	19.621	0.100
641.400	22.025	0.100
641.500	39.448	0.100
641.600	25.871	0.100
641.700	22.328	0.100
641.800	13.346	0.100
641.900	8.525	0.100
642.000	28.431	0.100
642.100	19.947	0.100
642.200	14.967	0.100
642.300	30.794	0.100
642.400	31.958	0.100
642.500	18.136	0.100
642.600	24.780	0.100
642.700	30.915	0.100
642.800	14.710	0.100
642.900	25.754	0.100
643.000	30.285	0.100
643.100	12.098	0.100
643.200	28.766	0.100
643.300	17.230	0.100
643.400	10.812	0.100
643.500	16.506	0.100
643.600	15.883	0.100
643.700	14.515	0.100
643.800	23.259	0.100
643.900	27.719	0.100
644.000	28.010	0.100
644.100	10.630	0.100
644.200	26.280	0.100
644.300	25.670	0.100
644.400	16.429	0.100
644.500	25.747	0.100
644.600	16.031	0.100
644.700	18.180	0.100
644.800	25.122	0.100
644.900	30.291	0.100
645.000	11.046	0.100
645.100	17.759	0.100
645.200	29.011	0.100
645.300	22.536	0.100
645.400	13.239	0.100
645.500	31.860	0.100
645.600	31.642	0.100
645.700	28.384	0.100
645.800	16.126	0.100
645.900	16.850	0.100
646.000	39.378	0.100
646.100	30.222	0.100
646.200	23.405	0.100
646.300	24.892	0.100
646.400	36.697	0.100
646.500	29.046	0.100
646.600	20.432	0.100
646.700	10.892	0.100
646.800	35.928	0.100
646.900	43.919	0.100
647.000	22.015	0.100
647.100	19.654	0.100
647.200	30.786	0.100
647.300	31.668	0.100
647.400	25.610	0.100
647.500	31.187	0.100
647.600	23.521	0.100
647.700	15.352	0.100
647.800	20.622	0.100
647.900	11.687	0.100
648.000	26.657	0.100
648.100	32.369	0.100
648.200	17.862	0.100
648.300	39.442	0.100
648.400	39.188	0.100
648.500	28.392	0.100
648.600	6.986	0.100
648.700	28.204	0.100
648.800	20.773	0.100
648.900	25.571	0.100
649.000	17.492	0.100
649.100	17.967	0.100
649.200	29.075	0.100
649.300	32.519	0.100
649.400	29.582	0.100
649.500	23.269	0.100
649.600	31.451	0.100
649.700	26.596	0.100
649.800	29.783	0.100
649.900	33.683	0.100
650.000	32.128	0.100
650.100	32.912	0.100
650.200	27.617	0.100
650.300	27.713	0.100
650.400	26.986	0.100
650.500	27.650	0.100
650.600	47.557	0.100
650.700	44.896	0.100
650.800	23.615	0.100
650.900	22.378	0.100
651.000	48.167	0.100
651.100	39.996	0.100
651.200	23.233	0.100
651.300	16.720	0.100
651.400	33.663	0.100
651.500	34.964	0.100
651.600	30.848	0.100
651.700	39.657	0.100
651.800	32.272	0.100
651.900	34.429	0.100
652.000	42.425	0.100
652.100	29.527	0.100
652.200	45.741	0.100
652.300	23.745	0.100
652.400	28.298	0.100
652.500	36.239	0.100
652.600	43.302	0.100
652.700	35.342	0.100
652.800	33.132	0.100
652.900	35.503	0.100
653.000	39.605	0.100
653.100	18.583	0.100
653.200	25.673	0.100
653.300	32.516	0.100
653.400	21.575	0.100
653.500	24.854	0.100
653.600	21.811	0.100
653.700	36.855	0.100
653.800	51.003	0.100
653.900	32.737	0.100
654.000	36.150	0.100
654.100	31.008	0.100
654.200	46.272	0.100
654.300	28.063	0.100
654.400	31.753	0.100
654.500	30.872	0.100
654.600	26.166	0.100
654.700	36.778	0.100
654.800	40.931	0.100
654.900	38.213	0.100
655.000	33.081	0.100
655.100	35.730	0.100
655.200	39.971	0.100
655.300	33.417	0.100
655.400	37.888	0.100
655.500	32.177	0.100
655.600	40.532	0.100
655.700	34.578	0.100
655.800	38.580	0.100
655.900	27.728	0.100
656.000	29.896	0.100
656.100	30.129	0.100
656.200	35.859	0.100
656.300	35.283	0.100
656.400	35.310	0.100
656.500	31.656	0.100
656.600	43.352	0.100
656.700	29.300	0.100
656.800	43.196	0.100
656.900	33.513	0.100
657.000	38.931	0.100
657.100	32.990	0.100
657.200	37.494	0.100
657.300	53.897	0.100
657.400	33.225	0.100
657.500	43.074	0.100
657.600	43.358	0.100
657.700	33.891	0.100
657.800	41.952	0.100
657.900	54.128	0.100
658.000	41.066	0.100
658.100	36.534	0.100
658.200	36.937	0.100
658.300	39.041	0.100
658.400	45.754	0.100
658.500	50.245	0.100
658.600	48.056	0.100
658.700	42.493	0.100
658.800	40.030	0.100
658.900	30.011	0.100
659.000	39.745	0.100
659.100	51.488	0.100
659.200	43.484	0.100
659.300	47.442	0.100
659.400	43.633	0.100
659.500	44.121	0.100
659.600	41.717	0.100
659.700	37.277	0.100
659.800	40.704	0.100
659.900	45.186	0.100
660.000	49.585	0.100
660.100	49.423	0.100
660.200	35.398	0.100
660.300	49.842	0.100
660.400	44.638	0.100
660.500	41.996	0.100
660.600	49.073	0.100
660.700	55.390	0.100
660.800	40.353	0.100
660.900	41.674	0.100
661.000	40.718	0.100
661.100	56.265	0.100
661.200	43.474	0.100
661.300	52.021	0.100
661.400	44.441	0.100
661.500	36.306	0.100
661.600	47.690	0.100
661.700	52.580	0.100
661.800	42.122	0.100
661.900	46.038	0.100
662.000	53.181	0.100
662.100	50.168	0.100
662.200	49.212	0.100
662.300	56.036	0.100
662.400	44.984	0.100
662.500	46.740	0.100
662.600	39.377	0.100
662.700	56.197	0.100
662.800	43.068	0.100
662.900	62.104	0.100
663.000	47.664	0.100
663.100	59.329	0.100
663.200	64.737	0.100
663.300	45.628	0.100
663.400	51.323	0.100
663.500	37.145	0.100
663.600	41.171	0.100
663.700	52.473	0.100
663.800	57.528	0.100
663.900	53.240	0.100
664.000	56.353	0.100
664.100	48.038	0.100
664.200	50.423	0.100
664.300	50.731	0.100
664.400	53.678	0.100
664.500	48.615	0.100
664.600	51.320	0.100
664.700	47.252	0.100
664.800	55.131	0.100
664.900	65.022	0.100
665.000	53.373	0.100
665.100	49.497	0.100
665.200	38.262	0.100
665.300	57.546	0.100
665.400	56.354	0.100
665.500	62.357	0.100
665.600	59.789	0.100
665.700	44.819	0.100
665.800	56.810	0.100
665.900	55.936	0.100
666.000	50.313	0.100
666.100	48.385	0.100
666.200	58.433	0.100
666.300	70.924	0.100
666.400	62.084	0.100
666.500	43.930	0.100
666.600	48.178	0.100
666.700	56.149	0.100
666.800	52.538	0.100
666.900	61.586	0.100
667.000	53.700	0.100
667.100	48.369	0.100
667.200	48.586	0.100
667.300	49.067	0.100
667.400	57.276	0.100
667.500	51.077	0.100
667.600	45.893	0.100
667.700	67.714	0.100
667.800	62.980	0.100
667.900	47.560	0.100
668.000	60.228	0.100
668.100	60.835	0.100
668.200	54.355	0.100
668.300	57.548	0.100
668.400	49.880	0.100
668.500	58.072	0.100
668.600	56.196	0.100
668.700	58.589	0.100
668.800	58.044	0.100
668.900	55.091	0.100
669.000	57.067	0.100
669.100	56.318	0.100
669.200	53.833	0.100
669.300	57.057	0.100
669.400	60.914	0.100
669.500	71.867	0.100
669.600	51.012	0.100
669.700	69.911	0.100
669.800	57.934	0.100
669.900	55.329	0.100
670.000	49.429	0.100
670.100	52.787	0.100
670.200	55.963	0.100
670.300	57.828	0.100
670.400	56.819	0.100
670.500	51.045	0.100
670.600	64.754	0.100
670.700	60.419	0.100
670.800	61.328	0.100
670.900	56.294	0.100
671.000	65.376	0.100
671.100	69.942	0.100
671.200	53.328	0.100
671.300	47.231	0.100
671.400	58.120	0.100
671.500	62.371	0.100
671.600	55.285	0.100
671.700	52.139	0.100
671.800	58.442	0.100
671.900	64.542	0.100
672.000	63.546	0.100
672.100	61.695	0.100
672.200	64.455	0.100
672.300	61.256	0.100
672.400	68.682	0.100
672.500	61.769	0.100
672.600	61.415	0.100
672.700	61.290	0.100
672.800	52.229	0.100
672.900	65.888	0.100
673.000	50.101	0.100
673.100	56.086	0.100
673.200	66.523	0.100
673.300	63.985	0.100
673.400	63.235	0.100
673.500	54.746	0.100
673.600	74.901	0.100
673.700	65.451	0.100
673.800	57.407	0.100
673.900	64.817	0.100
674.000	55.599	0.100
674.100	58.912	0.100
674.200	52.741	0.100
674.300	61.505	0.100
674.400	66.332	0.100
674.500	71.151	0.100
674.600	67.587	0.100
674.700	73.869	0.100
674.800	76.093	0.100
674.900	63.077	0.100
675.000	54.533	0.100
675.100	57.996	0.100
675.200	60.936	0.100
675.300	55.695	0.100
675.400	60.571	0.100
675.500	68.631	0.100
675.600	60.572	0.100
675.700	60.130	0.100
675.800	68.990	0.100
675.900	60.378	0.100
676.000	67.017	0.100
676.100	67.756	0.100
676.200	65.347	0.100
676.300	59.598	0.100
676.400	76.672	0.100
676.500	64.981	0.100
676.600	75.437	0.100
676.700	68.156	0.100
676.800	73.815	0.100
676.900	65.468	0.100
677.000	54.288	0.100
677.100	56.943	0.100
677.200	61.312	0.100
677.300	59.989	0.100
677.400	69.320	0.100
677.500	76.105	0.100
677.600	69.120	0.100
677.700	59.379	0.100
677.800	69.791	0.100
677.900	70.432	0.100
678.000	71.044	0.100
678.100	60.247	0.100
678.200	62.776	0.100
678.300	64.754	0.100
678.400	66.161	0.100
678.500	66.900	0.100
678.600	64.179	0.100
678.700	63.917	0.100
678.800	56.547	0.100
678.900	56.816	0.100
679.000	55.677	0.100
679.100	58.959	0.100
679.200	72.825	0.100
679.300	73.449	0.100
679.400	58.882	0.100
679.500	67.050	0.100
679.600	65.478	0.100
679.700	67.246	0.100
679.800	63.892	0.100
679.900	56.243	0.100
680.000	69.486	0.100
680.100	63.814	0.100
680.200	61.718	0.100
680.300	64.252	0.100
680.400	72.380	0.100
680.500	69.549	0.100
680.600	59.656	0.100
680.700	61.173	0.100
680.800	66.455	0.100
680.900	64.480	0.100
681.000	54.677	0.100
681.100	42.659	0.100
681.200	75.827	0.100
681.300	69.228	0.100
681.400	52.458	0.100
681.500	73.435	0.100
681.600	73.687	0.100
681.700	64.958	0.100
681.800	70.779	0.100
681.900	50.839	0.100
682.000	72.865	0.100
682.100	60.426	0.100
682.200	62.931	0.100
682.300	65.268	0.100
682.400	62.150	0.100
682.500	70.474	0.100
682.600	62.056	0.100
682.700	73.434	0.100
682.800	62.019	0.100
682.900	63.103	0.100
683.000	75.911	0.100
683.100	52.891	0.100
683.200	56.311	0.100
683.300	68.992	0.100
683.400	62.222	0.100
683.500	69.193	0.100
683.600	72.044	0.100
683.700	65.623	0.100
683.800	65.664	0.100
683.900	71.252	0.100
684.000	67.375	0.100
684.100	48.028	0.100
684.200	57.660	0.100
684.300	67.417	0.100
684.400	50.998	0.100
684.500	60.115	0.100
684.600	66.776	0.100
684.700	62.477	0.100
684.800	67.467	0.100
684.900	72.883	0.100
685.000	68.892	0.100
685.100	67.111	0.100
685.200	65.160	0.100
685.300	54.433	0.100
685.400	66.738	0.100
685.500	73.975	0.100
685.600	67.846	0.100
685.700	67.489	0.100
685.800	79.237	0.100
685.900	72.244	0.100
686.000	61.741	0.100
686.100	48.894	0.100
686.200	58.518	0.100
686.300	74.959	0.100
686.400	70.946	0.100
686.500	62.879	0.100
686.600	62.556	0.100
686.700	66.343	0.100
686.800	69.357	0.100
686.900	63.719	0.100
687.000	62.389	0.100
687.100	68.196	0.100
687.200	69.992	0.100
687.300	77.548	0.100
687.400	60.648	0.100
687.500	57.895	0.100
687.600	70.747	0.100
687.700	70.739	0.100
687.800	66.971	0.100
687.900	57.710	0.100
688.000	59.948	0.100
688.100	65.648	0.100
688.200	65.239	0.100
688.300	62.377	0.100
688.400	60.659	0.100
688.500	69.067	0.100
688.600	77.252	0.100
688.700	73.490	0.100
688.800	64.898	0.100
688.900	53.276	0.100
689.000	75.199	0.100
689.100	62.996	0.100
689.200	67.229	0.100
689.300	67.409	0.100
689.400	61.754	0.100
689.500	65.391	0.100
689.600	65.038	0.100
689.700	61.396	0.100
689.800	61.709	0.100
689.900	63.279	0.100
690.000	62.936	0.100
690.100	71.098	0.100
690.200	66.116	0.100
690.300	62.528	0.100
690.400	61.686	0.100
690.500	74.642	0.100
690.600	62.436	0.100
690.700	64.941	0.100
690.800	63.296	0.100
690.900	54.171	0.100
691.000	70.388	0.100
691.100	55.220	0.100
691.200	60.400	0.100
691.300	52.925	0.100
691.400	45.899	0.100
691.500	51.014	0.100
691.600	51.055	0.100
691.700	44.047	0.100
691.800	43.183	0.100
691.900	49.788	0.100
692.000	44.950	0.100
692.100	48.646	0.100
692.200	50.822	0.100
692.300	37.110	0.100
692.400	34.525	0.100
692.500	39.745	0.100
692.600	34.608	0.100
692.700	35.477	0.100
692.800	32.733	0.100
692.900	39.483	0.100
693.000	44.462	0.100
693.100	33.774	0.100
693.200	36.992	0.100
693.300	32.452	0.100
693.400	31.668	0.100
693.500	45.166	0.100
693.600	34.097	0.100
693.700	11.036	0.100
693.800	17.066	0.100
693.900	23.040	0.100
694.000	26.970	0.100
694.100	39.677	0.100
694.200	31.861	0.100
694.300	36.702	0.100
694.400	28.665	0.100
694.500	36.945	0.100
694.600	26.238	0.100
694.700	18.044	0.100
694.800	31.674	0.100
694.900	25.697	0.100
695.000	18.522	0.100
695.100	12.115	0.100
695.200	13.087	0.100
695.300	27.356	0.100
695.400	4.572	0.100
695.500	14.429	0.100
695.600	20.948	0.100
695.700	29.739	0.100
695.800	25.163	0.100
695.900	29.443	0.100
696.000	30.677	0.100
696.100	27.261	0.100
696.200	29.687	0.100
696.300	0.920	0.100
696.400	15.684	0.100
696.500	36.135	0.100
696.600	23.113	0.100
696.700	25.909	0.100
696.800	22.725	0.100
696.900	21.274	0.100
697.000	24.476	0.100
697.100	23.352	0.100
697.200	11.717	0.100
697.300	9.572	0.100
697.400	26.834	0.100
697.500	22.515	0.100
697.600	21.962	0.100
697.700	24.593	0.100
697.800	23.586	0.100
697.900	15.881	0.100
698.000	14.201	0.100
698.100	17.103	0.100
698.200	28.116	0.100
698.300	21.930	0.100
698.400	0.880	0.100
698.500	17.079	0.100
698.600	20.248	0.100
698.700	19.140	0.100
698.800	14.273	0.100
698.900	19.931	0.100
699.000	11.556	0.100
699.100	22.723	0.100
699.200	19.646	0.100
699.300	15.991	0.100
699.400	3.956	0.100
699.500	19.242	0.100
699.600	17.388	0.100
699.700	21.190	0.100
699.800	23.182	0.100
699.900	2.564	0.100
700.000	21.453	0.100
700.100	20.947	0.100
700.200	22.506	0.100
700.300	22.010	0.100
700.400	21.851	0.100
700.500	15.385	0.100
700.600	8.482	0.100
700.700	6.949	0.100
700.800	15.407	0.100
700.900	-0.079	0.100
701.000	17.778	0.100
701.100	15.003	0.100
701.200	10.395	0.100
701.300	11.057	0.100
701.400	22.472	0.100
701.500	13.358	0.100
701.600	4.972	0.100
701.700	8.039	0.100
701.800	8.382	0.100
701.900	-3.039	0.100
702.000	11.535	0.100
702.100	9.534	0.100
702.200	7.379	0.100
702.300	2.906	0.100
702.400	12.637	0.100
702.500	22.185	0.100
702.600	12.385	0.100
702.700	11.066	0.100
702.800	-6.951	0.100
702.900	14.321	0.100
703.000	10.788	0.100
703.100	22.717	0.100
703.200	2.194	0.100
703.300	8.399	0.100
703.400	7.245	0.100
703.500	3.852	0.100
703.600	21.508	0.100
703.700	5.205	0.100
703.800	7.118	0.100
703.900	7.998	0.100
704.000	23.393	0.100
704.100	8.110	0.100
704.200	4.351	0.100
704.300	13.359	0.100
704.400	17.809	0.100
704.500	-0.658	0.100
704.600	-0.135	0.100
704.700	8.373	0.100
704.800	11.096	0.100
704.900	6.811	0.100
705.000	2.563	0.100
705.100	22.111	0.100
705.200	6.295	0.100
705.300	4.866	0.100
705.400	-2.399	0.100
705.500	1.941	0.100
705.600	-5.359	0.100
705.700	1.344	0.100
705.800	14.054	0.100
705.900	1.585	0.100
706.000	13.312	0.100
706.100	6.711	0.100
706.200	-0.185	0.100
706.300	0.963	0.100
706.400	-1.643	0.100
706.500	6.962	0.100
706.600	12.592	0.100
706.700	15.907	0.100
706.800	8.846	0.100
706.900	4.336	0.100
707.000	4.409	0.100
707.100	11.428	0.100
707.200	7.806	0.100
707.300	8.288	0.100
707.400	10.083	0.100
707.500	3.280	0.100
707.600	-8.154	0.100
707.700	11.385	0.100
707.800	8.810	0.100
707.900	7.297	0.100
708.000	-0.318	0.100
708.100	-1.821	0.100
708.200	-3.799	0.100
708.300	-1.268	0.100
708.400	-1.018	0.100
708.500	-2.098	0.100
708.600	16.936	0.100
708.700	2.404	0.100
708.800	-2.400	0.100
708.900	-0.503	0.100
709.000	4.942	0.100
709.100	3.401	0.100
709.200	4.642	0.100
709.300	4.598	0.100
709.400	-7.445	0.100
709.500	0.050	0.100
709.600	-1.233	0.100
709.700	0.526	0.100
709.800	11.321	0.100
709.900	-6.919	0.100
710.000	4.897	0.100
710.100	7.797	0.100
710.200	0.667	0.100
710.300	-6.553	0.100
710.400	-11.798	0.100
710.500	8.469	0.100
710.600	9.645	0.100
710.700	-5.140	0.100
710.800	-8.915	0.100
710.900	0.359	0.100
711.000	7.134	0.100
711.100	4.213	0.100
711.200	-1.202	0.100
711.300	-1.045	0.100
711.400	4.670	0.100
711.500	-12.004	0.100
711.600	-11.948	0.100
711.700	1.915	0.100
711.800	11.372	0.100
711.900	-17.488	0.100
712.000	9.980	0.100
712.100	-0.175	0.100
712.200	10.191	0.100
712.300	-17.296	0.100
712.400	-2.526	0.100
712.500	-0.528	0.100
712.600	-3.690	0.100
712.700	-10.135	0.100
712.800	-19.258	0.100
712.900	3.887	0.100
713.000	7.927	0.100
713.100	2.046	0.100
713.200	-14.449	0.100
713.300	7.342	0.100
713.400	-11.523	0.100
713.500	-2.565	0.100
713.600	-10.268	0.100
713.700	-4.184	0.100
713.800	-3.687	0.100
713.900	0.454	0.100
714.000	-15.070	0.100
714.100	-8.844	0.100
714.200	-3.816	0.100
714.300	9.089	0.100
714.400	-1.731	0.100
714.500	-10.523	0.100
714.600	-3.378	0.100
714.700	4.264	0.100
714.800	-11.226	0.100
714.900	-11.572	0.100
715.000	1.506	0.100
715.100	-3.157	0.100
715.200	-20.866	0.100
715.300	-6.491	0.100
715.400	-10.851	0.100
715.500	-3.378	0.100
715.600	-2.801	0.100
715.700	-7.979	0.100
715.800	-14.595	0.100
715.900	-15.377	0.100
716.000	-8.123	0.100
716.100	-9.555	0.100
716.200	-3.232	0.100
716.300	-15.139	0.100
716.400	-2.516	0.100
716.500	-10.458	0.100
716.600	-3.153	0.100
716.700	-4.277	0.100
716.800	-21.793	0.100
716.900	-19.267	0.100
717.000	1.945	0.100
717.100	-5.397	0.100
717.200	-9.520	0.100
717.300	-11.207	0.100
717.400	-13.881	0.100
717.500	-19.426	0.100
717.600	-7.871	0.100
717.700	-0.662	0.100
717.800	0.092	0.100
717.900	-10.296	0.100
718.000	-15.201	0.100
718.100	-8.873	0.100
718.200	-9.802	0.100
718.300	-4.699	0.100
718.400	-7.301	0.100
718.500	-7.178	0.100
718.600	-10.530	0.100
718.700	-19.464	0.100
718.800	-8.638	0.100
718.900	-9.928	0.100
719.000	-8.133	0.100
719.100	-17.572	0.100
719.200	-10.099	0.100
719.300	-16.418	0.100
719.400	-1.864	0.100
719.500	-3.780	0.100
719.600	-11.964	0.100
719.700	-5.597	0.100
719.800	-9.862	0.100
719.900	-23.116	0.100
720.000	-5.530	0.100
720.100	-14.210	0.100
720.200	1.171	0.100
720.300	-15.856	0.100
720.400	-15.467	0.100
720.500	-15.249	0.100
720.600	-17.349	0.100
720.700	-16.995	0.100
720.800	-4.672	0.100
720.900	-7.547	0.100
721.000	-10.988	0.100
721.100	-11.000	0.100
721.200	-2.852	0.100
721.300	-16.831	0.100
721.400	-14.187	0.100
721.500	-8.915	0.100
721.600	-18.984	0.100
721.700	-22.632	0.100
721.800	-7.459	0.100
721.900	-7.748	0.100
722.000	-14.652	0.100
722.100	-6.122	0.100
722.200	-24.186	0.100
722.300	-14.067	0.100
722.400	-12.125	0.100
722.500	-15.802	0.100
722.600	-12.683	0.100
722.700	-3.412	0.100
722.800	-12.237	0.100
722.900	-8.069	0.100
723.000	-15.263	0.100
723.100	-7.565	0.100
723.200	-27.711	0.100
723.300	-20.039	0.100
723.400	-21.936	0.100
723.500	-20.696	0.100
723.600	-11.849	0.100
723.700	-11.328	0.100
723.800	-5.631	0.100
723.900	-30.436	0.100
724.000	-12.121	0.100
724.100	-10.780	0.100
724.200	-16.270	0.100
724.300	-9.767	0.100
724.400	-15.053	0.100
724.500	-27.393	0.100
724.600	-5.510	0.100
724.700	-20.985	0.100
724.800	-8.062	0.100
724.900	-10.305	0.100
725.000	-18.876	0.100
725.100	-21.381	0.100
725.200	-20.569	0.100
725.300	-14.129	0.100
725.400	-10.610	0.100
725.500	-15.754	0.100
725.600	-23.641	0.100
725.700	-19.988	0.100
725.800	-14.766	0.100
725.900	-17.502	0.100
726.000	-15.092	0.100
726.100	-15.462	0.100
726.200	-4.383	0.100
726.300	-11.729	0.100
726.400	-13.839	0.100
726.500	-13.491	0.100
726.600	-24.686	0.100
726.700	-21.205	0.100
726.800	-18.499	0.100
726.900	-28.098	0.100
727.000	-23.144	0.100
727.100	-19.067	0.100
727.200	-15.487	0.100
727.300	-18.995	0.100
727.400	-25.810	0.100
727.500	-17.352	0.100
727.600	-17.111	0.100
727.700	-12.963	0.100
727.800	-19.026	0.100
727.900	-22.499	0.100
728.000	-20.199	0.100
728.100	-15.934	0.100
728.200	-21.731	0.100
728.300	-20.735	0.100
728.400	-14.599	0.100
728.500	-18.314	0.100
728.600	-20.399	0.100
728.700	-13.045	0.100
728.800	-12.208	0.100
728.900	-31.071	0.100
729.000	-32.703	0.100
729.100	-21.766	0.100
729.200	-9.957	0.100
729.300	-15.443	0.100
729.400	-26.636	0.100
729.500	-26.416	0.100
729.600	-15.821	0.100
729.700	-20.371	0.100
729.800	-21.392	0.100
729.900	-22.983	0.100
730.000	-16.543	0.100
730.100	-16.910	0.100
730.200	-20.588	0.100
730.300	-17.870	0.100
730.400	-17.060	0.100
730.500	-24.036	0.100
730.600	-13.837	0.100
730.700	-18.807	0.100
730.800	-16.582	0.100
730.900	-31.362	0.100
731.000	-17.619	0.100
731.100	-21.639	0.100
731.200	-6.640	0.100
731.300	-22.545	0.100
731.400	-46.413	0.100
731.500	-20.555	0.100
731.600	-25.064	0.100
731.700	-18.581	0.100
731.800	-16.385	0.100
731.900	-1.205	0.100
732.000	-23.244	0.100
732.100	-21.784	0.100
732.200	-25.708	0.100
732.300	-12.290	0.100
732.400	-15.054	0.100
732.500	-25.875	0.100
732.600	-37.094	0.100
732.700	-20.058	0.100
732.800	-10.326	0.100
732.900	-14.373	0.100
733.000	-14.862	0.100
733.100	-23.889	0.100
733.200	-11.416	0.100
733.300	-11.405	0.100
733.400	-17.301	0.100
733.500	-22.662	0.100
733.600	-28.425	0.100
733.700	-23.568	0.100
733.800	-21.542	0.100
733.900	-31.411	0.100
734.000	-20.133	0.100
734.100	-13.920	0.100
734.200	-34.331	0.100
734.300	-21.888	0.100
734.400	-24.046	0.100
734.500	-22.002	0.100
734.600	-31.223	0.100
734.700	-26.872	0.100
734.800	-24.258	0.100
734.900	-17.520	0.100
735.000	-20.033	0.100
735.100	-33.467	0.100
735.200	-22.804	0.100
735.300	-21.970	0.100
735.400	-29.471	0.100
735.500	-31.465	0.100
735.600	-23.207	0.100
735.700	-10.503	0.100
735.800	-17.303	0.100
735.900	-26.654	0.100
736.000	-25.641	0.100
736.100	-16.916	0.100
736.200	-14.072	0.100
736.300	-21.325	0.100
736.400	-19.082	0.100
736.500	-25.485	0.100
736.600	-23.869	0.100
736.700	-31.715	0.100
736.800	-15.517	0.100
736.900	-11.968	0.100
737.000	-26.237	0.100
737.100	-32.251	0.100
737.200	-31.493	0.100
737.300	-29.391	0.100
737.400	-24.510	0.100
737.500	-19.545	0.100
737.600	-21.515	0.100
737.700	-20.842	0.100
737.800	-15.758	0.100
737.900	-30.818	0.100
738.000	-22.390	0.100
738.100	-27.486	0.100
738.200	-15.360	0.100
738.300	-13.825	0.100
738.400	-25.714	0.100
738.500	-28.852	0.100
738.600	-32.467	0.100
738.700	-24.893	0.100
738.800	-33.582	0.100
738.900	-22.038	0.100
739.000	-24.190	0.100
739.100	-30.731	0.100
739.200	-20.447	0.100
739.300	-45.121	0.100
739.400	-24.950	0.100
739.500	-9.624	0.100
739.600	-16.953	0.100
739.700	-20.488	0.100
739.800	-22.877	0.100
739.900	-6.655	0.100
740.000	-30.296	0.100
740.100	-36.296	0.100
740.200	-30.020	0.100
740.300	-40.687	0.100
740.400	-25.748	0.100
740.500	-18.054	0.100
740.600	-32.512	0.100
740.700	-38.664	0.100
740.800	-24.102	0.100
740.900	-40.345	0.100
741.000	-34.446	0.100
741.100	-17.134	0.100
741.200	-22.340	0.100
741.300	-18.812	0.100
741.400	-14.309	0.100
741.500	-24.084	0.100
741.600	-28.326	0.100
741.700	-20.762	0.100
741.800	-23.447	0.100
741.900	-23.265	0.100
742.000	-26.834	0.100
742.100	-28.832	0.100
742.200	-26.592	0.100
742.300	-30.797	0.100
742.400	-30.261	0.100
742.500	-20.181	0.100
742.600	-28.466	0.100
742.700	-32.967	0.100
742.800	-14.541	0.100
742.900	-22.549	0.100
743.000	-26.831	0.100
743.100	-26.606	0.100
743.200	-22.712	0.100
743.300	-36.043	0.100
743.400	-28.143	0.100
743.500	-27.667	0.100
743.600	-21.431	0.100
743.700	-24.909	0.100
743.800	-27.951	0.100
743.900	-34.830	0.100
744.000	-23.377	0.100
744.100	-32.986	0.100
744.200	-26.322	0.100
744.300	-25.052	0.100
744.400	-23.079	0.100
744.500	-18.427	0.100
744.600	-28.970	0.100
744.700	-24.385	0.100
744.800	-27.366	0.100
744.900	-36.116	0.100
745.000	-29.043	0.100
745.100	-32.874	0.100
745.200	-19.069	0.100
745.300	-22.259	0.100
745.400	-27.437	0.100
745.500	-26.215	0.100
745.600	-17.208	0.100
745.700	-33.747	0.100
745.800	-17.839	0.100
745.900	-28.829	0.100
746.000	-33.395	0.100
746.100	-23.986	0.100
746.200	-16.495	0.100
746.300	-33.770	0.100
746.400	-26.689	0.100
746.500	-26.711	0.100
746.600	-29.232	0.100
746.700	-25.876	0.100
746.800	-19.637	0.100
746.900	-22.127	0.100
747.000	-27.110	0.100
747.100	-22.520	0.100
747.200	-23.755	0.100
747.300	-24.814	0.100
747.400	-35.745	0.100
747.500	-29.507	0.100
747.600	-26.337	0.100
747.700	-30.020	0.100
747.800	-24.596	0.100
747.900	-22.056	0.100
748.000	-28.057	0.100
748.100	-37.218	0.100
748.200	-27.978	0.100
748.300	-11.688	0.100
748.400	-26.152	0.100
748.500	-23.153	0.100
748.600	-43.055	0.100
748.700	-19.366	0.100
748.800	-21.480	0.100
748.900	-23.188	0.100
749.000	-23.729	0.100
749.100	-28.234	0.100
749.200	-23.909	0.100
749.300	-20.936	0.100
749.400	-30.840	0.100
749.500	-23.266	0.100
749.600	-31.230	0.100
749.700	-44.159	0.100
749.800	-37.767	0.100
749.900	-10.629	0.100
750.000	-22.996	0.100
750.100	-31.219	0.100
750.200	-20.123	0.100
750.300	-27.111	0.100
750.400	-19.469	0.100
750.500	-28.120	0.100
750.600	-21.477	0.100
750.700	-34.262	0.100
750.800	-38.594	0.100
750.900	-11.436	0.100
751.000	-30.432	0.100
751.100	-25.182	0.100
751.200	-22.812	0.100
751.300	-35.778	0.100
751.400	-28.479	0.100
751.500	-29.644	0.100
751.600	-35.772	0.100
751.700	-25.755	0.100
751.800	-16.419	0.100
751.900	-24.117	0.100
752.000	-35.044	0.100
752.100	-32.910	0.100
752.200	-16.201	0.100
752.300	-27.488	0.100
752.400	-21.447	0.100
752.500	-32.554	0.100
752.600	-23.426	0.100
752.700	-26.572	0.100
752.800	-26.727	0.100
752.900	-23.247	0.100
753.000	-35.998	0.100
753.100	-19.724	0.100
753.200	-25.328	0.100
753.300	-23.988	0.100
753.400	-29.604	0.100
753.500	-18.219	0.100
753.600	-40.450	0.100
753.700	-24.830	0.100
753.800	-27.881	0.100
753.900	-35.672	0.100
754.000	-35.308	0.100
754.100	-27.434	0.100
754.200	-33.278	0.100
754.300	-22.031	0.100
754.400	-29.829	0.100
754.500	-20.758	0.100
754.600	-29.039	0.100
754.700	-23.777	0.100
754.800	-20.812	0.100
754.900	-25.641	0.100
755.000	-19.158	0.100
755.100	-28.802	0.100
755.200	-26.777	0.100
755.300	-30.774	0.100
755.400	-33.870	0.100
755.500	-25.997	0.100
755.600	-22.702	0.100
755.700	-21.151	0.100
755.800	-42.432	0.100
755.900	-23.039	0.100
756.000	-28.249	0.100
756.100	-27.453	0.100
756.200	-35.514	0.100
756.300	-28.534	0.100
756.400	-28.120	0.100
756.500	-19.777	0.100
756.600	-24.579	0.100
756.700	-32.539	0.100
756.800	-34.430	0.100
756.900	-33.722	0.100
757.000	-19.741	0.100
757.100	-29.838	0.100
757.200	-20.677	0.100
757.300	-33.889	0.100
757.400	-19.849	0.100
757.500	-24.422	0.100
757.600	-25.425	0.100
757.700	-16.466	0.100
757.800	-24.235	0.100
757.900	-24.672	0.100
758.000	-29.721	0.100
758.100	-26.616	0.100
758.200	-18.934	0.100
758.300	-31.427	0.100
758.400	-40.705	0.100
758.500	-18.347	0.100
758.600	-27.859	0.100
758.700	-27.154	0.100
758.800	-28.260	0.100
758.900	-17.398	0.100
759.000	-32.844	0.100
759.100	-17.228	0.100
759.200	-26.797	0.100
759.300	-28.673	0.100
759.400	-23.668	0.100
759.500	-28.844	0.100
759.600	-28.247	0.100
759.700	-28.158	0.100
759.800	-30.812	0.100
759.900	-24.800	0.100
760.000	-23.629	0.100
760.100	-23.073	0.100
760.200	-16.104	0.100
760.300	-24.255	0.100
760.400	-34.304	0.100
760.500	-30.141	0.100
760.600	-22.832	0.100
760.700	-28.976	0.100
760.800	-40.875	0.100
760.900	-21.693	0.100
761.000	-37.830	0.100
761.100	-21.476	0.100
761.200	-18.785	0.100
761.300	-25.872	0.100
761.400	-25.738	0.100
761.500	-18.941	0.100
761.600	-34.877	0.100
761.700	-44.860	0.100
761.800	-19.200	0.100
761.900	-27.393	0.100
762.000	-27.348	0.100
762.100	-25.792	0.100
762.200	-28.316	0.100
762.300	-20.185	0.100
762.400	-26.453	0.100
762.500	-38.436	0.100
762.600	-25.308	0.100
762.700	-29.294	0.100
762.800	-15.936	0.100
762.900	-24.471	0.100
763.000	-17.198	0.100
763.100	-25.891	0.100
763.200	-40.663	0.100
763.300	-35.752	0.100
763.400	-21.532	0.100
763.500	-16.184	0.100
763.600	-23.960	0.100
763.700	-20.681	0.100
763.800	-30.983	0.100
763.900	-26.137	0.100
764.000	-22.749	0.100
764.100	-29.931	0.100
764.200	-23.860	0.100
764.300	-26.163	0.100
764.400	-26.252	0.100
764.500	-18.283	0.100
764.600	-26.293	0.100
764.700	-27.058	0.100
764.800	-33.972	0.100
764.900	-30.463	0.100
765.000	-34.136	0.100
765.100	-16.563	0.100
765.200	-27.495	0.100
765.300	-36.284	0.100
765.400	-27.186	0.100
765.500	-28.184	0.100
765.600	-25.156	0.100
765.700	-31.443	0.100
765.800	-31.488	0.100
765.900	-15.943	0.100
766.000	-24.420	0.100
766.100	-27.443	0.100
766.200	-21.091	0.100
766.300	-31.833	0.100
766.400	-31.053	0.100
766.500	-34.614	0.100
766.600	-27.716	0.100
766.700	-28.256	0.100
766.800	-28.327	0.100
766.900	-17.229	0.100
767.000	-26.096	0.100
767.100	-25.989	0.100
767.200	-21.802	0.100
767.300	-32.676	0.100
767.400	-21.171	0.100
767.500	-28.413	0.100
767.600	-28.151	0.100
767.700	-24.970	0.100
767.800	-34.941	0.100
767.900	-39.357	0.100
768.000	-18.200	0.100
768.100	-19.651	0.100
768.200	-29.371	0.100
768.300	-7.124	0.100
768.400	-27.695	0.100
768.500	-26.139	0.100
768.600	-35.397	0.100
768.700	-21.304	0.100
768.800	-16.287	0.100
768.900	-26.832	0.100
769.000	-17.039	0.100
769.100	-37.480	0.100
769.200	-28.495	0.100
769.300	-25.726	0.100
769.400	-29.141	0.100
769.500	-20.684	0.100
769.600	-31.554	0.100
769.700	-27.232	0.100
769.800	-26.667	0.100
769.900	-24.782	0.100
770.000	-26.462	0.100
770.100	-31.449	0.100
770.200	-22.958	0.100
770.300	-18.568	0.100
770.400	-19.795	0.100
770.500	-32.865	0.100
770.600	-24.785	0.100
770.700	-39.718	0.100
770.800	-15.791	0.100
770.900	-19.494	0.100
771.000	-23.780	0.100
771.100	-27.526	0.100
771.200	-30.288	0.100
771.300	-21.509	0.100
771.400	-21.317	0.100
771.500	-25.653	0.100
771.600	-28.979	0.100
771.700	-29.174	0.100
771.800	-27.965	0.100
771.900	-39.899	0.100
772.000	-37.148	0.100
772.100	-23.448	0.100
772.200	-19.917	0.100
772.300	-11.978	0.100
772.400	-26.153	0.100
772.500	-31.866	0.100
772.600	-24.641	0.100
772.700	-19.472	0.100
772.800	-24.585	0.100
772.900	-24.309	0.100
773.000	-31.262	0.100
773.100	-25.735	0.100
773.200	-26.360	0.100
773.300	-28.110	0.100
773.400	-31.643	0.100
773.500	-37.053	0.100
773.600	-22.298	0.100
773.700	-21.488	0.100
773.800	-21.866	0.100
773.900	-13.492	0.100
774.000	-23.960	0.100
774.100	-32.113	0.100
774.200	-27.303	0.100
774.300	-27.241	0.100
774.400	-32.602	0.100
774.500	-23.978	0.100
774.600	-37.827	0.100
774.700	-33.296	0.100
774.800	-18.390	0.100
774.900	-27.773	0.100
775.000	-30.052	0.100
775.100	-15.336	0.100
775.200	-26.602	0.100
775.300	-32.601	0.100
775.400	-29.468	0.100
775.500	-18.926	0.100
775.600	-39.078	0.100
775.700	-26.827	0.100
775.800	-30.710	0.100
775.900	-21.938	0.100
776.000	-31.253	0.100
776.100	-31.773	0.100
776.200	-6.077	0.100
776.300	-24.117	0.100
776.400	-33.745	0.100
776.500	-27.882	0.100
776.600	-26.186	0.100
776.700	-24.349	0.100
776.800	-12.870	0.100
776.900	-24.154	0.100
777.000	-26.131	0.100
777.100	-16.328	0.100
777.200	-18.980	0.100
777.300	-22.831	0.100
777.400	-19.309	0.100
777.500	-36.368	0.100
777.600	-35.047	0.100
777.700	-26.196	0.100
777.800	-14.823	0.100
777.900	-26.120	0.100
778.000	-43.974	0.100
778.100	-18.682	0.100
778.200	-21.336	0.100
778.300	-20.729	0.100
778.400	-20.814	0.100
778.500	-12.486	0.100
778.600	-25.308	0.100
778.700	-26.627	0.100
778.800	-37.053	0.100
778.900	-24.691	0.100
779.000	-28.826	0.100
779.100	-31.140	0.100
779.200	-27.785	0.100
779.300	-32.781	0.100
779.400	-27.692	0.100
779.500	-18.419	0.100
779.600	-28.090	0.100
779.700	-28.085	0.100
779.800	-27.737	0.100
779.900	-23.495	0.100
780.000	-33.116	0.100
780.100	-28.233	0.100
780.200	-20.722	0.100
780.300	-27.165	0.100
780.400	-24.356	0.100
780.500	-31.654	0.100
780.600	-21.200	0.100
780.700	-16.848	0.100
780.800	-31.816	0.100
780.900	-28.958	0.100
781.000	-27.314	0.100
781.100	-21.041	0.100
781.200	-8.332	0.100
781.300	-6.067	0.100
781.400	-10.069	0.100
781.500	-9.693	0.100
781.600	-7.414	0.100
781.700	-5.132	0.100
781.800	-1.605	0.100
781.900	5.253	0.100
782.000	-5.439	0.100
782.100	-19.979	0.100
782.200	-0.911	0.100
782.300	-3.839	0.100
782.400	2.760	0.100
782.500	0.020	0.100
782.600	-1.393	0.100
782.700	-0.352	0.100
782.800	-1.183	0.100
782.900	-10.060	0.100
783.000	-6.354	0.100
783.100	4.489	0.100
783.200	10.480	0.100
783.300	10.977	0.100
783.400	9.967	0.100
783.500	14.595	0.100
783.600	15.373	0.100
783.700	10.633	0.100
783.800	8.556	0.100
783.900	10.967	0.100
784.000	7.371	0.100
784.100	13.655	0.100
784.200	8.565	0.100
784.300	16.308	0.100
784.400	14.146	0.100
784.500	7.270	0.100
784.600	10.141	0.100
784.700	14.297	0.100
784.800	2.207	0.100
784.900	25.060	0.100
785.000	21.105	0.100
785.100	11.422	0.100
785.200	-0.437	0.100
785.300	20.952	0.100
785.400	13.213	0.100
785.500	20.380	0.100
785.600	14.768	0.100
785.700	14.236	0.100
785.800	16.878	0.100
785.900	1.543	0.100
786.000	11.338	0.100
786.100	9.194	0.100
786.200	16.783	0.100
786.300	9.439	0.100
786.400	7.905	0.100
786.500	-5.318	0.100
786.600	-3.164	0.100
786.700	16.367	0.100
786.800	12.269	0.100
786.900	8.702	0.100
787.000	11.002	0.100
787.100	6.357	0.100
787.200	16.740	0.100
787.300	8.881	0.100
787.400	12.284	0.100
787.500	13.704	0.100
787.600	13.693	0.100
787.700	0.990	0.100
787.800	3.055	0.100
787.900	16.491	0.100
788.000	11.196	0.100
788.100	11.400	0.100
788.200	9.881	0.100
788.300	11.412	0.100
788.400	-3.003	0.100
788.500	7.523	0.100
788.600	15.114	0.100
788.700	-3.356	0.100
788.800	9.493	0.100
788.900	6.235	0.100
789.000	9.006	0.100
789.100	27.367	0.100
789.200	8.789	0.100
789.300	24.811	0.100
789.400	21.693	0.100
789.500	13.090	0.100
789.600	12.459	0.100
789.700	17.098	0.100
789.800	15.010	0.100
789.900	18.836	0.100
790.000	10.651	0.100
790.100	23.570	0.100
790.200	19.814	0.100
790.300	2.879	0.100
790.400	6.737	0.100
790.500	32.121	0.100
790.600	18.264	0.100
790.700	4.005	0.100
790.800	21.038	0.100
790.900	20.308	0.100
791.000	18.662	0.100
791.100	19.481	0.100
791.200	16.728	0.100
791.300	19.336	0.100
791.400	6.806	0.100
791.500	18.344	0.100
791.600	23.202	0.100
791.700	18.959	0.100
791.800	13.742	0.100
791.900	9.154	0.100
792.000	17.117	0.100
792.100	25.086	0.100
792.200	27.746	0.100
792.300	28.635	0.100
792.400	19.713	0.100
792.500	20.952	0.100
792.600	16.203	0.100
792.700	13.305	0.100
792.800	13.895	0.100
792.900	21.224	0.100
793.000	22.369	0.100
793.100	10.091	0.100
793.200	22.771	0.100
793.300	22.518	0.100
793.400	25.984	0.100
793.500	26.567	0.100
793.600	18.737	0.100
793.700	8.625	0.100
793.800	20.958	0.100
793.900	24.550	0.100
794.000	21.387	0.100
794.100	23.685	0.100
794.200	18.610	0.100
794.300	10.209	0.100
794.400	16.452	0.100
794.500	22.048	0.100
794.600	19.848	0.100
794.700	22.290	0.100
794.800	15.122	0.100
794.900	18.639	0.100
795.000	22.023	0.100
795.100	14.255	0.100
795.200	29.772	0.100
795.300	25.741	0.100
795.400	32.849	0.100
795.500	34.087	0.100
795.600	10.165	0.100
795.700	27.209	0.100
795.800	18.605	0.100
795.900	19.914	0.100
796.000	16.711	0.100
796.100	21.845	0.100
796.200	20.896	0.100
796.300	18.801	0.100
796.400	11.636	0.100
796.500	28.831	0.100
796.600	21.123	0.100
796.700	26.571	0.100
796.800	29.597	0.100
796.900	26.733	0.100
797.000	21.144	0.100
797.100	22.888	0.100
797.200	21.462	0.100
797.300	17.580	0.100
797.400	21.565	0.100
797.500	27.776	0.100
797.600	11.920	0.100
797.700	31.048	0.100
797.800	30.223	0.100
797.900	27.707	0.100
798.000	29.686	0.100
798.100	18.715	0.100
798.200	26.618	0.100
798.300	15.426	0.100
798.400	31.706	0.100
798.500	22.499	0.100
798.600	11.952	0.100
798.700	24.298	0.100
798.800	18.062	0.100
798.900	36.336	0.100
799.000	25.008	0.100
799.100	39.562	0.100
799.200	29.753	0.100
799.300	40.604	0.100
799.400	28.024	0.100
799.500	28.361	0.100
799.600	15.565	0.100
799.700	34.972	0.100
799.800	23.936	0.100
799.900	18.299	0.100
800.000	10.293	0.100
