time /s	I /nA	E /V
0.100	-10.998	0.101
0.200	-3.834	0.101
0.300	-0.109	0.101
0.400	-17.620	0.101
0.500	-0.582	0.101
0.600	-8.300	0.101
0.700	-14.071	0.101
0.800	-1.611	0.101
0.900	-11.366	0.101
1.000	2.935	0.101
1.100	-1.597	0.101
1.200	-12.506	0.101
1.300	-17.951	0.101
1.400	-8.297	0.101
1.500	-8.940	0.101
1.600	-14.500	0.101
1.700	4.217	0.101
1.800	12.119	0.101
1.900	-5.687	0.101
2.000	-5.216	0.101
2.100	-8.415	0.101
2.200	-4.885	0.101
2.300	-4.207	0.101
2.400	-9.299	0.101
2.500	-11.920	0.101
2.600	-2.588	0.101
2.700	-9.977	0.101
2.800	-3.952	0.101
2.900	6.791	0.101
3.000	-10.893	0.101
3.100	-11.794	0.101
3.200	-2.396	0.101
3.300	-0.179	0.101
3.400	-13.872	0.101
3.500	-2.950	0.101
3.600	-9.778	0.101
3.700	6.018	0.101
3.800	-3.377	0.101
3.900	6.840	0.101
4.000	-9.546	0.101
4.100	0.839	0.101
4.200	-10.659	0.101
4.300	-0.561	0.101
4.400	4.361	0.101
4.500	-10.414	0.101
4.600	-9.854	0.101
4.700	-6.702	0.101
4.800	2.881	0.101
4.900	-13.945	0.101
5.000	-3.162	0.101
5.100	3.167	0.101
5.200	-5.057	0.101
5.300	-1.647	0.101
5.400	-5.811	0.101
5.500	-9.054	0.101
5.600	-12.767	0.101
5.700	-5.024	0.101
5.800	-15.979	0.101
5.900	-15.954	0.101
6.000	-5.368	0.101
6.100	-6.670	0.101
6.200	-8.672	0.101
6.300	-18.173	0.101
6.400	1.313	0.101
6.500	-14.740	0.101
6.600	-16.306	0.101
6.700	-3.376	0.101
6.800	3.917	0.101
6.900	-6.982	0.101
7.000	2.549	0.101
7.100	-6.054	0.101
7.200	-12.361	0.101
7.300	-2.948	0.101
7.400	-7.135	0.101
7.500	-5.087	0.101
7.600	-4.471	0.101
7.700	-1.803	0.101
7.800	-1.284	0.101
7.900	-8.786	0.101
8.000	-1.013	0.101
8.100	-0.221	0.101
8.200	-1.653	0.101
8.300	-4.596	0.101
8.400	-15.260	0.101
8.500	-13.619	0.101
8.600	-0.506	0.101
8.700	-13.220	0.101
8.800	-11.490	0.101
8.900	-5.052	0.101
9.000	-9.092	0.101
9.100	-2.422	0.101
9.200	-7.264	0.101
9.300	-8.528	0.101
9.400	-16.464	0.101
9.500	3.769	0.101
9.600	3.897	0.101
9.700	0.350	0.101
9.800	-8.570	0.101
9.900	-6.146	0.101
10.000	6.560	0.101
10.100	-11.032	0.101
10.200	-3.066	0.101
10.300	-9.845	0.101
10.400	-0.044	0.101
10.500	-4.711	0.101
10.600	-29.052	0.101
10.700	-6.749	0.101
10.800	-8.518	0.101
10.900	-6.329	0.101
11.000	-1.253	0.101
11.100	-9.591	0.101
11.200	-9.338	0.101
11.300	3.629	0.101
11.400	-7.739	0.101
11.500	4.334	0.101
11.600	-9.025	0.101
11.700	-4.155	0.101
11.800	-17.560	0.101
11.900	3.048	0.101
12.000	-5.893	0.101
12.100	-5.489	0.101
12.200	-2.801	0.101
12.300	-9.237	0.101
12.400	-8.454	0.101
12.500	-19.709	0.101
12.600	-8.425	0.101
12.700	-13.868	0.101
12.800	-4.485	0.101
12.900	-19.185	0.101
13.000	-6.456	0.101
13.100	-9.045	0.101
13.200	0.435	0.101
13.300	-12.844	0.101
13.400	-10.750	0.101
13.500	-19.998	0.101
13.600	-1.282	0.101
13.700	1.736	0.101
13.800	-4.982	0.101
13.900	-9.629	0.101
14.000	-1.864	0.101
14.100	-6.730	0.101
14.200	-12.201	0.101
14.300	-2.482	0.101
14.400	-2.895	0.101
14.500	4.524	0.101
14.600	-8.106	0.101
14.700	0.352	0.101
14.800	-0.642	0.101
14.900	-4.448	0.101
15.000	-0.982	0.101
15.100	3.302	0.101
15.200	-17.771	0.101
15.300	-3.177	0.101
15.400	-15.054	0.101
15.500	-6.205	0.101
15.600	1.992	0.101
15.700	3.880	0.101
15.800	5.706	0.101
15.900	-34.339	0.101
16.000	-1.574	0.101
16.100	10.005	0.101
16.200	-9.405	0.101
16.300	-5.578	0.101
16.400	1.475	0.101
16.500	-2.860	0.101
16.600	-4.824	0.101
16.700	8.585	0.101
16.800	-8.506	0.101
16.900	3.935	0.101
17.000	-15.852	0.101
17.100	-13.844	0.101
17.200	-0.511	0.101
17.300	1.014	0.101
17.400	-2.148	0.101
17.500	0.452	0.101
17.600	-13.873	0.101
17.700	-4.106	0.101
17.800	-17.353	0.101
17.900	-6.456	0.101
18.000	3.974	0.101
18.100	-18.048	0.101
18.200	3.014	0.101
18.300	-10.278	0.101
18.400	-4.025	0.101
18.500	-4.807	0.101
18.600	-4.839	0.101
18.700	-8.466	0.101
18.800	-9.674	0.101
18.900	-8.210	0.101
19.000	6.722	0.101
19.100	2.363	0.101
19.200	-15.776	0.101
19.300	-17.430	0.101
19.400	-14.808	0.101
19.500	-13.471	0.101
19.600	3.477	0.101
19.700	2.796	0.101
19.800	-1.910	0.101
19.900	0.262	0.101
20.000	-2.825	0.101
20.100	-8.974	0.101
20.200	-1.391	0.101
20.300	-14.097	0.101
20.400	2.569	0.101
20.500	-19.183	0.101
20.600	-3.736	0.101
20.700	-3.881	0.101
20.800	-6.377	0.101
20.900	-3.045	0.101
21.000	-7.830	0.101
21.100	-5.852	0.101
21.200	-2.564	0.101
21.300	-9.296	0.101
21.400	-10.338	0.101
21.500	-12.786	0.101
21.600	-1.882	0.101
21.700	-1.555	0.101
21.800	-8.086	0.101
21.900	3.781	0.101
22.000	-12.689	0.101
22.100	-3.167	0.101
22.200	-18.607	0.101
22.300	-12.179	0.101
22.400	-3.679	0.101
22.500	-17.338	0.101
22.600	-15.564	0.101
22.700	10.496	0.101
22.800	5.121	0.101
22.900	-14.219	0.101
23.000	-6.884	0.101
23.100	-5.009	0.101
23.200	-8.042	0.101
23.300	-6.617	0.101
23.400	-20.316	0.101
23.500	-12.288	0.101
23.600	-2.343	0.101
23.700	1.815	0.101
23.800	1.346	0.101
23.900	-4.946	0.101
24.000	-19.899	0.101
24.100	5.530	0.101
24.200	-0.041	0.101
24.300	-11.567	0.101
24.400	-12.682	0.101
24.500	-7.048	0.101
24.600	1.456	0.101
24.700	-11.338	0.101
24.800	-3.927	0.101
24.900	-3.435	0.101
25.000	0.846	0.101
25.100	-18.873	0.101
25.200	-0.190	0.101
25.300	-11.111	0.101
25.400	0.870	0.101
25.500	-3.489	0.101
25.600	-7.302	0.101
25.700	-5.806	0.101
25.800	-6.239	0.101
25.900	-3.996	0.101
26.000	4.375	0.101
26.100	-10.435	0.101
26.200	4.529	0.101
26.300	-1.902	0.101
26.400	-3.510	0.101
26.500	-16.067	0.101
26.600	-18.149	0.101
26.700	-13.193	0.101
26.800	5.825	0.101
26.900	-8.871	0.101
27.000	-8.499	0.101
27.100	-14.643	0.101
27.200	0.625	0.101
27.300	-9.391	0.101
27.400	-2.954	0.101
27.500	1.142	0.101
27.600	4.927	0.101
27.700	4.122	0.101
27.800	5.473	0.101
27.900	-2.758	0.101
28.000	-22.778	0.101
28.100	-15.595	0.101
28.200	-2.530	0.101
28.300	-7.989	0.101
28.400	-4.988	0.101
28.500	-6.121	0.101
28.600	-16.290	0.101
28.700	5.684	0.101
28.800	-6.900	0.101
28.900	-15.765	0.101
29.000	-20.937	0.101
29.100	-1.537	0.101
29.200	-0.635	0.101
29.300	4.737	0.101
29.400	-19.964	0.101
29.500	0.652	0.101
29.600	-1.316	0.101
29.700	6.732	0.101
29.800	3.277	0.101
29.900	-22.124	0.101
30.000	-8.036	0.101
30.100	-1.059	0.101
30.200	-0.200	0.101
30.300	-5.645	0.101
30.400	-5.825	0.101
30.500	4.074	0.101
30.600	-5.559	0.101
30.700	-0.624	0.101
30.800	5.635	0.101
30.900	11.630	0.101
31.000	6.350	0.101
31.100	-4.459	0.101
31.200	5.597	0.101
31.300	-9.567	0.101
31.400	-16.646	0.101
31.500	-6.899	0.101
31.600	5.892	0.101
31.700	1.093	0.101
31.800	-1.721	0.101
31.900	-6.564	0.101
32.000	6.214	0.101
32.100	7.416	0.101
32.200	-8.600	0.101
32.300	5.765	0.101
32.400	-6.751	0.101
32.500	-5.889	0.101
32.600	-0.686	0.101
32.700	0.036	0.101
32.800	-9.918	0.101
32.900	6.110	0.101
33.000	6.783	0.101
33.100	-10.161	0.101
33.200	-9.536	0.101
33.300	-11.993	0.101
33.400	-3.774	0.101
33.500	8.034	0.101
33.600	7.573	0.101
33.700	3.570	0.101
33.800	4.785	0.101
33.900	1.892	0.101
34.000	-6.645	0.101
34.100	3.079	0.101
34.200	-5.133	0.101
34.300	11.328	0.101
34.400	11.868	0.101
34.500	1.623	0.101
34.600	4.262	0.101
34.700	-5.930	0.101
34.800	3.986	0.101
34.900	0.851	0.101
35.000	-5.490	0.101
35.100	-7.767	0.101
35.200	-5.840	0.101
35.300	13.839	0.101
35.400	-6.631	0.101
35.500	15.818	0.101
35.600	-4.493	0.101
35.700	1.788	0.101
35.800	14.397	0.101
35.900	-2.713	0.101
36.000	6.263	0.101
36.100	1.748	0.101
36.200	-3.758	0.101
36.300	2.963	0.101
36.400	-1.453	0.101
36.500	3.909	0.101
36.600	6.521	0.101
36.700	4.965	0.101
36.800	1.150	0.101
36.900	12.188	0.101
37.000	-3.248	0.101
37.100	7.208	0.101
37.200	18.351	0.101
37.300	24.826	0.101
37.400	2.174	0.101
37.500	14.569	0.101
37.600	-0.821	0.101
37.700	-8.495	0.101
37.800	3.922	0.101
37.900	3.278	0.101
38.000	14.416	0.101
38.100	27.939	0.101
38.200	2.160	0.101
38.300	-4.099	0.101
38.400	5.951	0.101
38.500	1.193	0.101
38.600	14.929	0.101
38.700	-4.052	0.101
38.800	4.011	0.101
38.900	2.797	0.101
39.000	10.308	0.101
39.100	12.585	0.101
39.200	0.353	0.101
39.300	-4.762	0.101
39.400	13.794	0.101
39.500	8.863	0.101
39.600	5.519	0.101
39.700	6.319	0.101
39.800	6.708	0.101
39.900	4.414	0.101
40.000	15.398	0.101
40.100	6.354	0.101
40.200	3.603	0.101
40.300	16.322	0.101
40.400	6.917	0.101
40.500	-0.100	0.101
40.600	9.850	0.101
40.700	4.113	0.101
40.800	12.913	0.101
40.900	16.497	0.101
41.000	9.501	0.101
41.100	-5.960	0.101
41.200	4.257	0.101
41.300	17.414	0.101
41.400	3.006	0.101
41.500	4.868	0.101
41.600	-0.283	0.101
41.700	2.907	0.101
41.800	0.776	0.101
41.900	14.532	0.101
42.000	2.608	0.101
42.100	14.946	0.101
42.200	8.422	0.101
42.300	12.368	0.101
42.400	4.363	0.101
42.500	-6.973	0.101
42.600	5.088	0.101
42.700	9.752	0.101
42.800	-1.751	0.101
42.900	7.045	0.101
43.000	7.653	0.101
43.100	6.925	0.101
43.200	4.344	0.101
43.300	-6.890	0.101
43.400	5.883	0.101
43.500	-9.942	0.101
43.600	13.372	0.101
43.700	4.935	0.101
43.800	12.643	0.101
43.900	-0.705	0.101
44.000	3.148	0.101
44.100	-9.183	0.101
44.200	4.260	0.101
44.300	-5.028	0.101
44.400	-6.589	0.101
44.500	2.890	0.101
44.600	9.316	0.101
44.700	15.043	0.101
44.800	-6.672	0.101
44.900	4.440	0.101
45.000	3.229	0.101
45.100	-2.345	0.101
45.200	7.088	0.101
45.300	3.816	0.101
45.400	9.663	0.101
45.500	10.887	0.101
45.600	5.632	0.101
45.700	8.423	0.101
45.800	10.001	0.101
45.900	-3.722	0.101
46.000	-2.327	0.101
46.100	4.143	0.101
46.200	5.331	0.101
46.300	-1.113	0.101
46.400	-3.070	0.101
46.500	2.346	0.101
46.600	-14.075	0.101
46.700	5.944	0.101
46.800	22.258	0.101
46.900	3.943	0.101
47.000	3.958	0.101
47.100	6.087	0.101
47.200	7.892	0.101
47.300	0.040	0.101
47.400	-2.903	0.101
47.500	26.821	0.101
47.600	-3.785	0.101
47.700	11.474	0.101
47.800	12.373	0.101
47.900	-0.985	0.101
48.000	10.098	0.101
48.100	12.611	0.101
48.200	-8.972	0.101
48.300	3.496	0.101
48.400	2.310	0.101
48.500	5.980	0.101
48.600	2.181	0.101
48.700	-0.507	0.101
48.800	-14.581	0.101
48.900	-0.844	0.101
49.000	9.823	0.101
49.100	9.027	0.101
49.200	8.341	0.101
49.300	-7.271	0.101
49.400	1.123	0.101
49.500	-4.377	0.101
49.600	-3.319	0.101
49.700	-2.751	0.101
49.800	9.512	0.101
49.900	8.673	0.101
50.000	15.577	0.101
50.100	-0.458	0.101
50.200	-4.451	0.101
50.300	19.396	0.101
50.400	-5.204	0.101
50.500	-9.853	0.101
50.600	2.681	0.101
50.700	17.599	0.101
50.800	-3.475	0.101
50.900	1.307	0.101
51.000	13.937	0.101
51.100	6.637	0.101
51.200	0.722	0.101
51.300	1.639	0.101
51.400	2.673	0.101
51.500	5.752	0.101
51.600	-7.590	0.101
51.700	-9.578	0.101
51.800	3.992	0.101
51.900	-10.905	0.101
52.000	14.310	0.101
52.100	1.047	0.101
52.200	-5.552	0.101
52.300	7.923	0.101
52.400	3.250	0.101
52.500	1.862	0.101
52.600	-9.075	0.101
52.700	9.782	0.101
52.800	3.977	0.101
52.900	-14.470	0.101
53.000	4.324	0.101
53.100	21.272	0.101
53.200	5.686	0.101
53.300	2.786	0.101
53.400	-1.481	0.101
53.500	-3.428	0.101
53.600	-11.650	0.101
53.700	10.756	0.101
53.800	4.511	0.101
53.900	-2.094	0.101
54.000	5.544	0.101
54.100	8.850	0.101
54.200	5.212	0.101
54.300	-1.224	0.101
54.400	1.049	0.101
54.500	-0.764	0.101
54.600	-11.609	0.101
54.700	-0.262	0.101
54.800	-2.459	0.101
54.900	-5.291	0.101
55.000	11.396	0.101
55.100	5.244	0.101
55.200	11.329	0.101
55.300	-14.849	0.101
55.400	5.971	0.101
55.500	5.786	0.101
55.600	0.392	0.101
55.700	0.870	0.101
55.800	8.938	0.101
55.900	3.423	0.101
56.000	13.129	0.101
56.100	8.899	0.101
56.200	-2.519	0.101
56.300	-15.949	0.101
56.400	1.194	0.101
56.500	16.078	0.101
56.600	0.363	0.101
56.700	7.003	0.101
56.800	3.404	0.101
56.900	5.235	0.101
57.000	-2.737	0.101
57.100	-8.353	0.101
57.200	9.823	0.101
57.300	1.517	0.101
57.400	10.121	0.101
57.500	-9.251	0.101
57.600	1.286	0.101
57.700	5.715	0.101
57.800	5.020	0.101
57.900	-5.842	0.101
58.000	-7.930	0.101
58.100	11.220	0.101
58.200	-2.515	0.101
58.300	-0.946	0.101
58.400	2.096	0.101
58.500	-1.411	0.101
58.600	4.103	0.101
58.700	-0.052	0.101
58.800	6.456	0.101
58.900	-6.050	0.101
59.000	3.519	0.101
59.100	7.200	0.101
59.200	12.596	0.101
59.300	5.796	0.101
59.400	2.246	0.101
59.500	11.470	0.101
59.600	-1.039	0.101
59.700	-10.319	0.101
59.800	-4.719	0.101
59.900	-1.724	0.101
60.000	-0.767	0.101
60.100	8.811	0.101
60.200	10.351	0.101
60.300	-8.710	0.101
60.400	1.039	0.101
60.500	2.790	0.101
60.600	8.693	0.101
60.700	5.582	0.101
60.800	-0.961	0.101
60.900	6.347	0.101
61.000	0.366	0.101
61.100	7.000	0.101
61.200	9.314	0.101
61.300	5.499	0.101
61.400	-7.563	0.101
61.500	6.212	0.101
61.600	3.275	0.101
61.700	3.043	0.101
61.800	1.472	0.101
61.900	16.151	0.101
62.000	-12.332	0.101
62.100	7.088	0.101
62.200	-4.570	0.101
62.300	3.102	0.101
62.400	-4.938	0.101
62.500	17.266	0.101
62.600	5.945	0.101
62.700	-11.850	0.101
62.800	8.276	0.101
62.900	0.020	0.101
63.000	10.014	0.101
63.100	11.029	0.101
63.200	-8.303	0.101
63.300	0.112	0.101
63.400	7.101	0.101
63.500	2.745	0.101
63.600	8.373	0.101
63.700	-1.197	0.101
63.800	2.935	0.101
63.900	5.064	0.101
64.000	0.527	0.101
64.100	9.133	0.101
64.200	7.776	0.101
64.300	16.241	0.101
64.400	3.281	0.101
64.500	-7.347	0.101
64.600	-9.687	0.101
64.700	5.863	0.101
64.800	5.945	0.101
64.900	13.585	0.101
65.000	-2.911	0.101
65.100	13.886	0.101
65.200	10.828	0.101
65.300	0.310	0.101
65.400	-12.634	0.101
65.500	-1.350	0.101
65.600	19.246	0.101
65.700	-2.759	0.101
65.800	8.536	0.101
65.900	1.991	0.101
66.000	4.457	0.101
66.100	-10.312	0.101
66.200	2.287	0.101
66.300	4.482	0.101
66.400	14.766	0.101
66.500	12.125	0.101
66.600	0.291	0.101
66.700	13.634	0.101
66.800	2.386	0.101
66.900	1.908	0.101
67.000	8.415	0.101
67.100	-7.957	0.101
67.200	15.561	0.101
67.300	3.895	0.101
67.400	2.482	0.101
67.500	-3.614	0.101
67.600	8.109	0.101
67.700	18.242	0.101
67.800	1.227	0.101
67.900	13.882	0.101
68.000	12.897	0.101
68.100	5.653	0.101
68.200	14.237	0.101
68.300	1.776	0.101
68.400	2.065	0.101
68.500	1.378	0.101
68.600	-2.305	0.101
68.700	2.398	0.101
68.800	16.984	0.101
68.900	17.211	0.101
69.000	6.785	0.101
69.100	-4.254	0.101
69.200	1.201	0.101
69.300	-4.988	0.101
69.400	-4.996	0.101
69.500	7.758	0.101
69.600	7.807	0.101
69.700	0.489	0.101
69.800	-4.706	0.101
69.900	15.945	0.101
70.000	12.469	0.101
70.100	1.066	0.101
70.200	14.124	0.101
70.300	4.291	0.101
70.400	10.514	0.101
70.500	14.524	0.101
70.600	7.351	0.101
70.700	0.187	0.101
70.800	1.985	0.101
70.900	-1.637	0.101
71.000	-0.903	0.101
71.100	-10.112	0.101
71.200	9.076	0.101
71.300	11.446	0.101
71.400	5.115	0.101
71.500	23.820	0.101
71.600	-3.906	0.101
71.700	4.116	0.101
71.800	0.954	0.101
71.900	2.348	0.101
72.000	-2.332	0.101
72.100	-2.315	0.101
72.200	5.421	0.101
72.300	3.516	0.101
72.400	6.609	0.101
72.500	7.503	0.101
72.600	8.076	0.101
72.700	1.557	0.101
72.800	20.238	0.101
72.900	-1.377	0.101
73.000	-3.452	0.101
73.100	-4.833	0.101
73.200	8.141	0.101
73.300	15.316	0.101
73.400	-5.864	0.101
73.500	13.185	0.101
73.600	3.815	0.101
73.700	14.403	0.101
73.800	3.615	0.101
73.900	2.722	0.101
74.000	-3.315	0.101
74.100	13.250	0.101
74.200	6.343	0.101
74.300	7.180	0.101
74.400	-17.920	0.101
74.500	-5.145	0.101
74.600	17.596	0.101
74.700	-7.387	0.101
74.800	6.844	0.101
74.900	21.548	0.101
75.000	-2.414	0.101
75.100	5.730	0.101
75.200	-12.293	0.101
75.300	7.486	0.101
75.400	5.258	0.101
75.500	8.027	0.101
75.600	1.003	0.101
75.700	7.903	0.101
75.800	17.392	0.101
75.900	2.740	0.101
76.000	-4.771	0.101
76.100	5.425	0.101
76.200	-3.700	0.101
76.300	3.998	0.101
76.400	5.016	0.101
76.500	3.135	0.101
76.600	-3.133	0.101
76.700	5.572	0.101
76.800	4.799	0.101
76.900	0.563	0.101
77.000	11.489	0.101
77.100	8.743	0.101
77.200	-1.450	0.101
77.300	0.653	0.101
77.400	-3.263	0.101
77.500	17.063	0.101
77.600	5.948	0.101
77.700	-0.696	0.101
77.800	5.088	0.101
77.900	19.941	0.101
78.000	5.962	0.101
78.100	-8.080	0.101
78.200	13.383	0.101
78.300	12.359	0.101
78.400	13.039	0.101
78.500	0.836	0.101
78.600	6.149	0.101
78.700	-2.968	0.101
78.800	4.791	0.101
78.900	3.308	0.101
79.000	-6.577	0.101
79.100	10.282	0.101
79.200	7.478	0.101
79.300	7.849	0.101
79.400	8.140	0.101
79.500	4.183	0.101
79.600	-9.205	0.101
79.700	2.739	0.101
79.800	-13.389	0.101
79.900	7.014	0.101
80.000	12.412	0.101
80.100	8.247	0.101
80.200	19.825	0.101
80.300	-3.035	0.101
80.400	-6.986	0.101
80.500	8.892	0.101
80.600	-1.627	0.101
80.700	12.569	0.101
80.800	10.297	0.101
80.900	11.194	0.101
81.000	2.034	0.101
81.100	0.410	0.101
81.200	12.564	0.101
81.300	6.847	0.101
81.400	9.194	0.101
81.500	5.424	0.101
81.600	5.796	0.101
81.700	1.195	0.101
81.800	8.303	0.101
81.900	3.454	0.101
82.000	-0.079	0.101
82.100	-2.756	0.101
82.200	13.694	0.101
82.300	3.762	0.101
82.400	-8.493	0.101
82.500	13.911	0.101
82.600	-2.584	0.101
82.700	-3.920	0.101
82.800	9.020	0.101
82.900	-11.680	0.101
83.000	-20.162	0.101
83.100	15.084	0.101
83.200	3.954	0.101
83.300	4.633	0.101
83.400	1.635	0.101
83.500	-3.622	0.101
83.600	11.481	0.101
83.700	10.525	0.101
83.800	13.054	0.101
83.900	8.057	0.101
84.000	13.426	0.101
84.100	5.097	0.101
84.200	3.432	0.101
84.300	-6.314	0.101
84.400	-13.041	0.101
84.500	9.551	0.101
84.600	6.264	0.101
84.700	5.693	0.101
84.800	9.554	0.101
84.900	-16.112	0.101
85.000	23.648	0.101
85.100	3.302	0.101
85.200	0.327	0.101
85.300	-2.807	0.101
85.400	12.026	0.101
85.500	-6.461	0.101
85.600	17.558	0.101
85.700	8.576	0.101
85.800	6.443	0.101
85.900	-1.719	0.101
86.000	12.985	0.101
86.100	7.581	0.101
86.200	2.371	0.101
86.300	6.447	0.101
86.400	-1.163	0.101
86.500	2.278	0.101
86.600	9.440	0.101
86.700	12.907	0.101
86.800	4.492	0.101
86.900	4.525	0.101
87.000	-3.583	0.101
87.100	20.999	0.101
87.200	15.197	0.101
87.300	4.852	0.101
87.400	6.171	0.101
87.500	-1.253	0.101
87.600	4.109	0.101
87.700	3.470	0.101
87.800	15.418	0.101
87.900	8.783	0.101
88.000	-10.808	0.101
88.100	2.622	0.101
88.200	14.923	0.101
88.300	10.014	0.101
88.400	-5.830	0.101
88.500	10.069	0.101
88.600	0.452	0.101
88.700	4.503	0.101
88.800	4.825	0.101
88.900	6.506	0.101
89.000	9.086	0.101
89.100	11.204	0.101
89.200	3.884	0.101
89.300	4.022	0.101
89.400	19.961	0.101
89.500	-1.381	0.101
89.600	-5.056	0.101
89.700	11.176	0.101
89.800	-1.127	0.101
89.900	5.923	0.101
90.000	2.321	0.101
90.100	0.525	0.101
90.200	0.559	0.101
90.300	14.310	0.101
90.400	7.668	0.101
90.500	-3.066	0.101
90.600	17.243	0.101
90.700	2.775	0.101
90.800	0.336	0.101
90.900	-8.526	0.101
91.000	-10.477	0.101
91.100	-2.506	0.101
91.200	-2.447	0.101
91.300	3.764	0.101
91.400	-6.999	0.101
91.500	-1.157	0.101
91.600	9.972	0.101
91.700	0.642	0.101
91.800	-2.832	0.101
91.900	-0.900	0.101
92.000	-6.021	0.101
92.100	-0.613	0.101
92.200	-3.643	0.101
92.300	-3.087	0.101
92.400	-10.858	0.101
92.500	-6.858	0.101
92.600	-0.407	0.101
92.700	1.685	0.101
92.800	0.002	0.101
92.900	-1.457	0.101
93.000	-9.400	0.101
93.100	-9.448	0.101
93.200	-8.092	0.101
93.300	-2.356	0.101
93.400	-3.527	0.101
93.500	-10.148	0.101
93.600	-2.833	0.101
93.700	-8.748	0.101
93.800	10.807	0.101
93.900	-7.358	0.101
94.000	-2.725	0.101
94.100	-14.890	0.101
94.200	-4.552	0.101
94.300	-5.357	0.101
94.400	0.753	0.101
94.500	-11.195	0.101
94.600	-6.546	0.101
94.700	-12.591	0.101
94.800	-11.387	0.101
94.900	-0.333	0.101
95.000	-6.326	0.101
95.100	-11.918	0.101
95.200	-2.411	0.101
95.300	2.550	0.101
95.400	-13.206	0.101
95.500	-7.080	0.101
95.600	-0.443	0.101
95.700	-9.761	0.101
95.800	-5.745	0.101
95.900	-0.897	0.101
96.000	-2.176	0.101
96.100	5.611	0.101
96.200	-4.893	0.101
96.300	-2.796	0.101
96.400	-8.176	0.101
96.500	-14.214	0.101
96.600	-11.781	0.101
96.700	-11.305	0.101
96.800	1.722	0.101
96.900	-11.331	0.101
97.000	4.497	0.101
97.100	-19.930	0.101
97.200	-10.314	0.101
97.300	-5.095	0.101
97.400	-11.421	0.101
97.500	-1.730	0.101
97.600	-8.728	0.101
97.700	-14.578	0.101
97.800	-19.256	0.101
97.900	-3.974	0.101
98.000	-12.974	0.101
98.100	1.414	0.101
98.200	0.092	0.101
98.300	-14.321	0.101
98.400	-7.994	0.101
98.500	-7.169	0.101
98.600	-15.180	0.101
98.700	-6.012	0.101
98.800	-3.655	0.101
98.900	-7.213	0.101
99.000	-9.231	0.101
99.100	-9.421	0.101
99.200	-6.501	0.101
99.300	12.634	0.101
99.400	-15.739	0.101
99.500	5.951	0.101
99.600	-0.680	0.101
99.700	-11.612	0.101
99.800	-18.014	0.101
99.900	2.103	0.101
100.000	-3.816	0.101
100.100	-3.827	0.101
100.200	7.937	0.101
100.300	-4.344	0.101
100.400	-13.266	0.101
100.500	3.918	0.101
100.600	-8.165	0.101
100.700	3.549	0.101
100.800	-15.734	0.101
100.900	-5.475	0.101
101.000	-7.374	0.101
101.100	21.343	0.101
101.200	-2.342	0.101
101.300	-6.468	0.101
101.400	-5.043	0.101
101.500	5.086	0.101
101.600	-8.028	0.101
101.700	-6.864	0.101
101.800	-6.321	0.101
101.900	-1.503	0.101
102.000	-9.457	0.101
102.100	10.142	0.101
102.200	-12.840	0.101
102.300	-0.654	0.101
102.400	5.627	0.101
102.500	-4.708	0.101
102.600	-0.540	0.101
102.700	8.208	0.101
102.800	2.576	0.101
102.900	-13.356	0.101
103.000	-16.417	0.101
103.100	-9.083	0.101
103.200	-0.245	0.101
103.300	-6.580	0.101
103.400	-0.868	0.101
103.500	-7.980	0.101
103.600	-2.168	0.101
103.700	-18.679	0.101
103.800	-1.200	0.101
103.900	15.802	0.101
104.000	-15.317	0.101
104.100	-5.698	0.101
104.200	-4.626	0.101
104.300	-1.608	0.101
104.400	-3.094	0.101
104.500	-13.204	0.101
104.600	-5.978	0.101
104.700	-5.559	0.101
104.800	-9.217	0.101
104.900	-15.412	0.101
105.000	16.201	0.101
105.100	-4.888	0.101
105.200	-5.014	0.101
105.300	-13.234	0.101
105.400	-5.113	0.101
105.500	-12.228	0.101
105.600	-16.516	0.101
105.700	4.103	0.101
105.800	-12.093	0.101
105.900	-11.595	0.101
106.000	17.955	0.101
106.100	-10.215	0.101
106.200	-2.516	0.101
106.300	14.518	0.101
106.400	4.819	0.101
106.500	-18.942	0.101
106.600	-12.155	0.101
106.700	-16.292	0.101
106.800	-12.592	0.101
106.900	-5.133	0.101
107.000	-19.680	0.101
107.100	-1.880	0.101
107.200	0.480	0.101
107.300	-2.897	0.101
107.400	5.644	0.101
107.500	-6.228	0.101
107.600	-7.203	0.101
107.700	-5.280	0.101
107.800	6.864	0.101
107.900	0.851	0.101
108.000	-4.140	0.101
108.100	3.472	0.101
108.200	-5.892	0.101
108.300	5.328	0.101
108.400	8.142	0.101
108.500	2.497	0.101
108.600	-16.681	0.101
108.700	-2.720	0.101
108.800	-8.947	0.101
108.900	-17.981	0.101
109.000	-2.873	0.101
109.100	-9.417	0.101
109.200	-11.215	0.101
109.300	-2.453	0.101
109.400	-9.117	0.101
109.500	1.305	0.101
109.600	-11.327	0.101
109.700	-12.320	0.101
109.800	-6.899	0.101
109.900	-21.074	0.101
110.000	8.954	0.101
110.100	8.194	0.101
110.200	-15.047	0.101
110.300	-13.127	0.101
110.400	-1.272	0.101
110.500	1.899	0.101
110.600	-0.571	0.101
110.700	-17.362	0.101
110.800	-21.091	0.101
110.900	-4.670	0.101
111.000	-8.049	0.101
111.100	-5.312	0.101
111.200	-5.775	0.101
111.300	-2.470	0.101
111.400	-6.388	0.101
111.500	-5.801	0.101
111.600	-1.506	0.101
111.700	-1.804	0.101
111.800	5.776	0.101
111.900	-6.551	0.101
112.000	-9.987	0.101
112.100	-1.035	0.101
112.200	-14.504	0.101
112.300	-1.307	0.101
112.400	-5.275	0.101
112.500	-9.400	0.101
112.600	-10.758	0.101
112.700	-3.796	0.101
112.800	-4.601	0.101
112.900	9.925	0.101
113.000	-20.244	0.101
113.100	-11.669	0.101
113.200	-13.636	0.101
113.300	-0.343	0.101
113.400	-2.413	0.101
113.500	-3.204	0.101
113.600	0.660	0.101
113.700	13.864	0.101
113.800	10.060	0.101
113.900	-7.345	0.101
114.000	-11.768	0.101
114.100	-8.831	0.101
114.200	5.695	0.101
114.300	-9.540	0.101
114.400	-5.107	0.101
114.500	1.365	0.101
114.600	-11.741	0.101
114.700	-1.585	0.101
114.800	-6.084	0.101
114.900	2.574	0.101
115.000	-1.869	0.101
115.100	-1.187	0.101
115.200	-12.001	0.101
115.300	-5.589	0.101
115.400	-12.387	0.101
115.500	-4.453	0.101
115.600	0.976	0.101
115.700	-17.559	0.101
115.800	-12.451	0.101
115.900	-18.392	0.101
116.000	5.413	0.101
116.100	-11.742	0.101
116.200	-2.913	0.101
116.300	-4.805	0.101
116.400	-7.148	0.101
116.500	-8.352	0.101
116.600	-5.214	0.101
116.700	1.218	0.101
116.800	-4.176	0.101
116.900	4.827	0.101
117.000	-11.254	0.101
117.100	-19.506	0.101
117.200	-4.283	0.101
117.300	3.534	0.101
117.400	-1.262	0.101
117.500	-1.059	0.101
117.600	-4.453	0.101
117.700	-22.292	0.101
117.800	-16.877	0.101
117.900	-2.906	0.101
118.000	-4.246	0.101
118.100	-7.417	0.101
118.200	-7.764	0.101
118.300	-5.130	0.101
118.400	-20.404	0.101
118.500	-2.307	0.101
118.600	-7.859	0.101
118.700	-1.082	0.101
118.800	-4.061	0.101
118.900	-14.663	0.101
119.000	-4.243	0.101
119.100	1.442	0.101
119.200	-0.229	0.101
119.300	6.525	0.101
119.400	-9.380	0.101
119.500	-6.415	0.101
119.600	-11.522	0.101
119.700	-5.088	0.101
119.800	-0.422	0.101
119.900	4.110	0.101
120.000	-13.839	0.101
120.100	-7.707	0.101
120.200	-10.199	0.101
120.300	3.988	0.101
120.400	-3.254	0.101
120.500	-6.072	0.101
120.600	-2.376	0.101
120.700	1.112	0.101
120.800	-18.989	0.101
120.900	-7.205	0.101
121.000	-7.332	0.101
121.100	-3.119	0.101
121.200	-1.606	0.101
121.300	8.155	0.101
121.400	-12.921	0.101
121.500	3.714	0.101
121.600	-11.329	0.101
121.700	-3.023	0.101
121.800	0.922	0.101
121.900	8.486	0.101
122.000	-12.780	0.101
122.100	-5.961	0.101
122.200	-3.709	0.101
122.300	-2.168	0.101
122.400	-13.479	0.101
122.500	-5.324	0.101
122.600	-6.233	0.101
122.700	-2.320	0.101
122.800	10.346	0.101
122.900	-10.931	0.101
123.000	-15.384	0.101
123.100	-0.026	0.101
123.200	-5.936	0.101
123.300	4.161	0.101
123.400	-0.697	0.101
123.500	-4.796	0.101
123.600	-9.654	0.101
123.700	-2.233	0.101
123.800	-17.951	0.101
123.900	-7.836	0.101
124.000	-9.415	0.101
124.100	-2.145	0.101
124.200	-11.912	0.101
124.300	-10.259	0.101
124.400	-10.406	0.101
124.500	-8.385	0.101
124.600	-14.251	0.101
124.700	-9.392	0.101
124.800	7.012	0.101
124.900	-12.238	0.101
125.000	0.643	0.101
125.100	-13.318	0.101
125.200	-9.237	0.101
125.300	-3.444	0.101
125.400	6.415	0.101
125.500	-2.958	0.101
125.600	-1.734	0.101
125.700	-4.819	0.101
125.800	6.161	0.101
125.900	4.241	0.101
126.000	-10.615	0.101
126.100	-8.159	0.101
126.200	7.237	0.101
126.300	-7.606	0.101
126.400	-9.090	0.101
126.500	4.717	0.101
126.600	-10.180	0.101
126.700	-18.402	0.101
126.800	-9.483	0.101
126.900	-0.168	0.101
127.000	-12.896	0.101
127.100	-8.589	0.101
127.200	-1.693	0.101
127.300	-8.848	0.101
127.400	-6.815	0.101
127.500	-11.089	0.101
127.600	-18.797	0.101
127.700	1.559	0.101
127.800	-13.213	0.101
127.900	-10.818	0.101
128.000	4.028	0.101
128.100	-0.005	0.101
128.200	-8.725	0.101
128.300	-3.600	0.101
128.400	-6.663	0.101
128.500	0.581	0.101
128.600	3.532	0.101
128.700	-4.033	0.101
128.800	-4.186	0.101
128.900	-11.895	0.101
129.000	-5.111	0.101
129.100	1.300	0.101
129.200	1.824	0.101
129.300	-11.510	0.101
129.400	0.874	0.101
129.500	-0.550	0.101
129.600	4.972	0.101
129.700	-8.601	0.101
129.800	2.989	0.101
129.900	-1.966	0.101
130.000	-10.728	0.101
130.100	-3.775	0.101
130.200	-13.024	0.101
130.300	-10.570	0.101
130.400	4.063	0.101
130.500	-10.470	0.101
130.600	-6.183	0.101
130.700	-1.223	0.101
130.800	-10.127	0.101
130.900	-0.603	0.101
131.000	-4.275	0.101
131.100	-22.885	0.101
131.200	0.213	0.101
131.300	-3.920	0.101
131.400	-2.571	0.101
131.500	-9.921	0.101
131.600	-4.433	0.101
131.700	-4.197	0.101
131.800	-6.259	0.101
131.900	-0.595	0.101
132.000	-10.397	0.101
132.100	2.825	0.101
132.200	-11.888	0.101
132.300	-5.889	0.101
132.400	3.775	0.101
132.500	-6.277	0.101
132.600	-15.717	0.101
132.700	-8.739	0.101
132.800	-10.168	0.101
132.900	10.321	0.101
133.000	-11.658	0.101
133.100	-6.299	0.101
133.200	-6.194	0.101
133.300	-10.628	0.101
133.400	-16.451	0.101
133.500	-7.030	0.101
133.600	-13.693	0.101
133.700	-6.362	0.101
133.800	6.334	0.101
133.900	-13.124	0.101
134.000	-17.420	0.101
134.100	-14.755	0.101
134.200	-4.089	0.101
134.300	5.236	0.101
134.400	2.536	0.101
134.500	-13.746	0.101
134.600	-9.384	0.101
134.700	6.486	0.101
134.800	-4.540	0.101
134.900	-3.011	0.101
135.000	-1.431	0.101
135.100	-22.817	0.101
135.200	-7.340	0.101
135.300	-10.516	0.101
135.400	-12.497	0.101
135.500	4.541	0.101
135.600	-6.760	0.101
135.700	-7.770	0.101
135.800	-4.757	0.101
135.900	-14.451	0.101
136.000	-7.586	0.101
136.100	-6.242	0.101
136.200	-17.567	0.101
136.300	-5.073	0.101
136.400	-4.740	0.101
136.500	-4.704	0.101
136.600	-12.120	0.101
136.700	-0.539	0.101
136.800	-4.772	0.101
136.900	-5.296	0.101
137.000	5.517	0.101
137.100	-10.649	0.101
137.200	-9.460	0.101
137.300	5.769	0.101
137.400	3.852	0.101
137.500	-7.010	0.101
137.600	4.393	0.101
137.700	-9.470	0.101
137.800	-15.387	0.101
137.900	-9.607	0.101
138.000	-10.874	0.101
138.100	-9.948	0.101
138.200	1.191	0.101
138.300	-6.626	0.101
138.400	-0.228	0.101
138.500	-15.456	0.101
138.600	-0.233	0.101
138.700	-2.203	0.101
138.800	-8.380	0.101
138.900	-9.330	0.101
139.000	-9.113	0.101
139.100	-5.028	0.101
139.200	5.458	0.101
139.300	-16.144	0.101
139.400	-1.633	0.101
139.500	-2.791	0.101
139.600	-13.213	0.101
139.700	-6.521	0.101
139.800	-2.636	0.101
139.900	-4.310	0.101
140.000	-18.353	0.101
140.100	-14.449	0.101
140.200	4.645	0.101
140.300	-12.353	0.101
140.400	-12.705	0.101
140.500	-7.282	0.101
140.600	-3.705	0.101
140.700	-2.148	0.101
140.800	-9.151	0.101
140.900	-17.065	0.101
141.000	-6.488	0.101
141.100	-2.976	0.101
141.200	6.591	0.101
141.300	-18.862	0.101
141.400	-3.972	0.101
141.500	-9.322	0.101
141.600	-4.271	0.101
141.700	-4.318	0.101
141.800	-4.294	0.101
141.900	-6.338	0.101
142.000	-15.829	0.101
142.100	-10.439	0.101
142.200	3.727	0.101
142.300	-16.580	0.101
142.400	-8.870	0.101
142.500	-4.934	0.101
142.600	1.464	0.101
142.700	6.027	0.101
142.800	2.579	0.101
142.900	-4.638	0.101
143.000	-9.624	0.101
143.100	-2.561	0.101
143.200	-7.692	0.101
143.300	-6.110	0.101
143.400	-8.959	0.101
143.500	0.674	0.101
143.600	-15.635	0.101
143.700	9.205	0.101
143.800	-0.677	0.101
143.900	-6.481	0.101
144.000	-0.302	0.101
144.100	-14.811	0.101
144.200	-0.359	0.101
144.300	4.092	0.101
144.400	-9.180	0.101
144.500	1.425	0.101
144.600	-14.001	0.101
144.700	-6.039	0.101
144.800	-0.169	0.101
144.900	-12.108	0.101
145.000	-9.982	0.101
145.100	-6.107	0.101
145.200	-1.647	0.101
145.300	-0.692	0.101
145.400	-4.469	0.101
145.500	-5.021	0.101
145.600	-5.527	0.101
145.700	-6.833	0.101
145.800	12.245	0.101
145.900	-5.693	0.101
146.000	-6.435	0.101
146.100	-1.341	0.101
146.200	-20.504	0.101
146.300	2.602	0.101
146.400	4.754	0.101
146.500	-4.609	0.101
146.600	-6.973	0.101
146.700	-13.168	0.101
146.800	-7.368	0.101
146.900	-22.850	0.101
147.000	-1.683	0.101
147.100	-6.114	0.101
147.200	0.103	0.101
147.300	-11.917	0.101
147.400	-3.385	0.101
147.500	-7.095	0.101
147.600	-14.801	0.101
147.700	-7.597	0.101
147.800	-15.447	0.101
147.900	-5.319	0.101
148.000	-14.065	0.101
148.100	-11.123	0.101
148.200	-1.197	0.101
148.300	-10.738	0.101
148.400	1.526	0.101
148.500	-6.531	0.101
148.600	7.972	0.101
148.700	-5.230	0.101
148.800	-13.816	0.101
148.900	-14.090	0.101
149.000	-5.827	0.101
149.100	5.947	0.101
149.200	-4.458	0.101
149.300	-10.015	0.101
149.400	-4.279	0.101
149.500	-2.696	0.101
149.600	-7.329	0.101
149.700	-11.035	0.101
149.800	-0.807	0.101
149.900	-19.792	0.101
150.000	8.836	0.101
150.100	0.429	0.101
150.200	-3.568	0.101
150.300	-20.488	0.101
150.400	-5.019	0.101
150.500	-6.650	0.101
150.600	-10.854	0.101
150.700	5.157	0.101
150.800	-13.125	0.101
150.900	-2.463	0.101
151.000	-8.289	0.101
151.100	-10.007	0.101
151.200	-9.016	0.101
151.300	-13.027	0.101
151.400	-14.227	0.101
151.500	-7.088	0.101
151.600	2.959	0.101
151.700	-1.536	0.101
151.800	2.818	0.101
151.900	-10.605	0.101
152.000	-11.858	0.101
152.100	0.334	0.101
152.200	1.000	0.101
152.300	1.152	0.101
152.400	0.008	0.101
152.500	-4.182	0.101
152.600	-3.591	0.101
152.700	-15.760	0.101
152.800	-6.764	0.101
152.900	1.262	0.101
153.000	-24.110	0.101
153.100	-15.300	0.101
153.200	-0.466	0.101
153.300	-0.630	0.101
153.400	-0.942	0.101
153.500	-3.188	0.101
153.600	4.616	0.101
153.700	-3.954	0.101
153.800	-3.699	0.101
153.900	-4.015	0.101
154.000	-14.544	0.101
154.100	-6.913	0.101
154.200	3.073	0.101
154.300	-22.154	0.101
154.400	-2.152	0.101
154.500	-9.232	0.101
154.600	7.752	0.101
154.700	-4.784	0.101
154.800	-5.824	0.101
154.900	-5.907	0.101
155.000	-8.824	0.101
155.100	-0.817	0.101
155.200	-3.907	0.101
155.300	-1.882	0.101
155.400	-19.696	0.101
155.500	-9.381	0.101
155.600	-8.844	0.101
155.700	0.852	0.101
155.800	-9.197	0.101
155.900	-4.432	0.101
156.000	-12.676	0.101
156.100	-0.401	0.101
156.200	-2.820	0.101
156.300	-10.370	0.101
156.400	-5.285	0.101
156.500	-0.985	0.101
156.600	-13.035	0.101
156.700	-11.653	0.101
156.800	-6.119	0.101
156.900	-4.589	0.101
157.000	-17.275	0.101
157.100	-7.385	0.101
157.200	-7.840	0.101
157.300	-0.664	0.101
157.400	-1.889	0.101
157.500	-10.127	0.101
157.600	-0.182	0.101
157.700	-0.179	0.101
157.800	8.030	0.101
157.900	-7.130	0.101
158.000	6.035	0.101
158.100	-4.914	0.101
158.200	-17.403	0.101
158.300	-13.919	0.101
158.400	11.857	0.101
158.500	-10.916	0.101
158.600	-1.390	0.101
158.700	-4.707	0.101
158.800	-14.770	0.101
158.900	-6.455	0.101
159.000	-11.616	0.101
159.100	5.102	0.101
159.200	2.403	0.101
159.300	-11.840	0.101
159.400	-9.040	0.101
159.500	-6.601	0.101
159.600	-3.736	0.101
159.700	-0.622	0.101
159.800	-7.071	0.101
159.900	1.689	0.101
160.000	-6.516	0.101
160.100	-4.925	0.101
160.200	4.783	0.101
160.300	-10.542	0.101
160.400	-5.086	0.101
160.500	-4.829	0.101
160.600	-18.355	0.101
160.700	-7.164	0.101
160.800	1.002	0.101
160.900	-1.828	0.101
161.000	-6.164	0.101
161.100	4.574	0.101
161.200	-17.376	0.101
161.300	-16.075	0.101
161.400	-10.174	0.101
161.500	-2.121	0.101
161.600	-9.516	0.101
161.700	-10.103	0.101
161.800	-12.609	0.101
161.900	-10.266	0.101
162.000	8.339	0.101
162.100	8.676	0.101
162.200	-1.623	0.101
162.300	4.677	0.101
162.400	-4.446	0.101
162.500	-9.119	0.101
162.600	-6.967	0.101
162.700	3.356	0.101
162.800	-11.616	0.101
162.900	10.021	0.101
163.000	-9.336	0.101
163.100	-9.271	0.101
163.200	-1.077	0.101
163.300	7.498	0.101
163.400	-15.255	0.101
163.500	-2.836	0.101
163.600	10.487	0.101
163.700	-24.913	0.101
163.800	-11.232	0.101
163.900	7.971	0.101
164.000	-7.968	0.101
164.100	-10.950	0.101
164.200	-4.445	0.101
164.300	-17.431	0.101
164.400	-1.997	0.101
164.500	-4.748	0.101
164.600	1.598	0.101
164.700	-2.288	0.101
164.800	-4.984	0.101
164.900	-12.205	0.101
165.000	-14.926	0.101
165.100	-5.765	0.101
165.200	-7.460	0.101
165.300	-1.422	0.101
165.400	-6.510	0.101
165.500	-2.008	0.101
165.600	1.292	0.101
165.700	-7.736	0.101
165.800	-4.458	0.101
165.900	-12.451	0.101
166.000	-2.163	0.101
166.100	8.955	0.101
166.200	6.978	0.101
166.300	-20.252	0.101
166.400	-8.206	0.101
166.500	-3.490	0.101
166.600	-17.081	0.101
166.700	9.087	0.101
166.800	-11.080	0.101
166.900	-14.372	0.101
167.000	-14.315	0.101
167.100	-3.348	0.101
167.200	-2.092	0.101
167.300	-11.640	0.101
167.400	-4.556	0.101
167.500	1.251	0.101
167.600	8.469	0.101
167.700	6.314	0.101
167.800	-5.294	0.101
167.900	-17.793	0.101
168.000	-7.633	0.101
168.100	-13.445	0.101
168.200	-0.174	0.101
168.300	20.859	0.101
168.400	-4.993	0.101
168.500	-8.944	0.101
168.600	-15.945	0.101
168.700	-9.134	0.101
168.800	6.083	0.101
168.900	-11.982	0.101
169.000	0.353	0.101
169.100	-3.928	0.101
169.200	-11.020	0.101
169.300	-9.225	0.101
169.400	7.416	0.101
169.500	-1.277	0.101
169.600	8.173	0.101
169.700	-15.803	0.101
169.800	-6.351	0.101
169.900	-12.003	0.101
170.000	-3.025	0.101
170.100	-2.162	0.101
170.200	-11.574	0.101
170.300	-10.787	0.101
170.400	-0.650	0.101
170.500	-2.888	0.101
170.600	-2.421	0.101
170.700	-6.364	0.101
170.800	-1.730	0.101
170.900	-13.261	0.101
171.000	1.305	0.101
171.100	-8.466	0.101
171.200	2.560	0.101
171.300	-9.109	0.101
171.400	-9.116	0.101
171.500	-5.070	0.101
171.600	-7.661	0.101
171.700	-1.844	0.101
171.800	-25.740	0.101
171.900	10.375	0.101
172.000	-4.038	0.101
172.100	-11.591	0.101
172.200	-9.524	0.101
172.300	-22.830	0.101
172.400	-10.998	0.101
172.500	1.781	0.101
172.600	-6.155	0.101
172.700	-7.291	0.101
172.800	-7.545	0.101
172.900	-18.544	0.101
173.000	13.478	0.101
173.100	-7.675	0.101
173.200	-10.847	0.101
173.300	-2.073	0.101
173.400	-11.043	0.101
173.500	0.586	0.101
173.600	-10.337	0.101
173.700	-19.413	0.101
173.800	-4.299	0.101
173.900	2.495	0.101
174.000	0.489	0.101
174.100	-13.523	0.101
174.200	-5.448	0.101
174.300	-12.571	0.101
174.400	-1.061	0.101
174.500	-1.457	0.101
174.600	3.106	0.101
174.700	-8.784	0.101
174.800	-2.651	0.101
174.900	-12.058	0.101
175.000	-10.378	0.101
175.100	-3.554	0.101
175.200	-3.300	0.101
175.300	7.832	0.101
175.400	5.775	0.101
175.500	-4.191	0.101
175.600	-20.116	0.101
175.700	3.911	0.101
175.800	-13.503	0.101
175.900	-10.527	0.101
176.000	2.214	0.101
176.100	7.234	0.101
176.200	-3.881	0.101
176.300	-6.716	0.101
176.400	9.672	0.101
176.500	-8.819	0.101
176.600	-11.216	0.101
176.700	0.089	0.101
176.800	-6.457	0.101
176.900	-4.107	0.101
177.000	6.878	0.101
177.100	-6.295	0.101
177.200	-4.364	0.101
177.300	-11.145	0.101
177.400	-20.520	0.101
177.500	-0.111	0.101
177.600	-1.450	0.101
177.700	-16.526	0.101
177.800	0.553	0.101
177.900	0.292	0.101
178.000	-0.556	0.101
178.100	-11.431	0.101
178.200	-2.995	0.101
178.300	-0.959	0.101
178.400	5.017	0.101
178.500	-11.672	0.101
178.600	-10.456	0.101
178.700	-10.420	0.101
178.800	-8.711	0.101
178.900	12.881	0.101
179.000	-4.286	0.101
179.100	-20.021	0.101
179.200	2.086	0.101
179.300	-6.359	0.101
179.400	3.742	0.101
179.500	-7.271	0.101
179.600	-20.968	0.101
179.700	-18.865	0.101
179.800	3.349	0.101
179.900	7.434	0.101
180.000	-3.270	0.101
180.100	-15.008	0.101
180.200	9.725	0.101
180.300	11.844	0.101
180.400	-3.924	0.101
180.500	-14.979	0.101
180.600	-8.628	0.101
180.700	-7.499	0.101
180.800	0.094	0.101
180.900	2.886	0.101
181.000	-1.761	0.101
181.100	-3.763	0.101
181.200	11.552	0.101
181.300	-3.351	0.101
181.400	2.720	0.101
181.500	-3.267	0.101
181.600	-6.667	0.101
181.700	-0.700	0.101
181.800	7.047	0.101
181.900	-4.063	0.101
182.000	9.622	0.101
182.100	1.487	0.101
182.200	-5.332	0.101
182.300	6.313	0.101
182.400	9.034	0.101
182.500	1.473	0.101
182.600	8.783	0.101
182.700	8.468	0.101
182.800	7.488	0.101
182.900	15.383	0.101
183.000	3.879	0.101
183.100	1.714	0.101
183.200	-0.424	0.101
183.300	-0.648	0.101
183.400	5.271	0.101
183.500	13.405	0.101
183.600	-3.489	0.101
183.700	1.556	0.101
183.800	1.399	0.101
183.900	-2.441	0.101
184.000	14.356	0.101
184.100	4.857	0.101
184.200	-2.745	0.101
184.300	-0.546	0.101
184.400	9.156	0.101
184.500	1.573	0.101
184.600	-13.601	0.101
184.700	1.447	0.101
184.800	10.137	0.101
184.900	5.957	0.101
185.000	3.420	0.101
185.100	0.532	0.101
185.200	5.986	0.101
185.300	-5.411	0.101
185.400	-1.229	0.101
185.500	1.631	0.101
185.600	7.347	0.101
185.700	15.790	0.101
185.800	4.794	0.101
185.900	-2.701	0.101
186.000	-13.432	0.101
186.100	0.509	0.101
186.200	12.418	0.101
186.300	-3.551	0.101
186.400	2.440	0.101
186.500	20.224	0.101
186.600	-3.337	0.101
186.700	6.847	0.101
186.800	3.242	0.101
186.900	-13.956	0.101
187.000	-4.741	0.101
187.100	5.346	0.101
187.200	5.214	0.101
187.300	10.994	0.101
187.400	0.486	0.101
187.500	-11.068	0.101
187.600	3.425	0.101
187.700	16.100	0.101
187.800	-9.871	0.101
187.900	-9.339	0.101
188.000	2.771	0.101
188.100	1.734	0.101
188.200	2.330	0.101
188.300	7.456	0.101
188.400	4.038	0.101
188.500	-1.768	0.101
188.600	-2.990	0.101
188.700	11.610	0.101
188.800	4.011	0.101
188.900	5.761	0.101
189.000	-0.925	0.101
189.100	11.895	0.101
189.200	-3.146	0.101
189.300	7.193	0.101
189.400	-2.862	0.101
189.500	22.158	0.101
189.600	8.214	0.101
189.700	19.736	0.101
189.800	4.492	0.101
189.900	-3.535	0.101
190.000	-2.801	0.101
190.100	12.161	0.101
190.200	1.701	0.101
190.300	16.816	0.101
190.400	4.130	0.101
190.500	-1.570	0.101
190.600	3.088	0.101
190.700	5.733	0.101
190.800	2.960	0.101
190.900	-1.394	0.101
191.000	6.298	0.101
191.100	2.733	0.101
191.200	16.266	0.101
191.300	9.353	0.101
191.400	6.737	0.101
191.500	-4.767	0.101
191.600	-5.858	0.101
191.700	15.451	0.101
191.800	-2.271	0.101
191.900	14.733	0.101
192.000	5.287	0.101
192.100	3.862	0.101
192.200	6.328	0.101
192.300	4.441	0.101
192.400	3.986	0.101
192.500	10.956	0.101
192.600	4.851	0.101
192.700	3.790	0.101
192.800	6.782	0.101
192.900	1.647	0.101
193.000	9.486	0.101
193.100	4.330	0.101
193.200	9.039	0.101
193.300	15.406	0.101
193.400	8.788	0.101
193.500	6.799	0.101
193.600	3.091	0.101
193.700	5.298	0.101
193.800	6.078	0.101
193.900	7.041	0.101
194.000	10.851	0.101
194.100	-4.371	0.101
194.200	14.141	0.101
194.300	8.825	0.101
194.400	0.188	0.101
194.500	8.316	0.101
194.600	3.909	0.101
194.700	-0.672	0.101
194.800	3.209	0.101
194.900	-8.354	0.101
195.000	16.088	0.101
195.100	12.618	0.101
195.200	15.221	0.101
195.300	18.182	0.101
195.400	11.131	0.101
195.500	3.643	0.101
195.600	-8.797	0.101
195.700	-5.796	0.101
195.800	10.356	0.101
195.900	3.883	0.101
196.000	2.699	0.101
196.100	-0.218	0.101
196.200	11.641	0.101
196.300	5.477	0.101
196.400	-5.673	0.101
196.500	16.515	0.101
196.600	2.613	0.101
196.700	17.862	0.101
196.800	7.360	0.101
196.900	10.278	0.101
197.000	17.535	0.101
197.100	6.065	0.101
197.200	-5.661	0.101
197.300	10.534	0.101
197.400	17.764	0.101
197.500	18.881	0.101
197.600	0.908	0.101
197.700	5.527	0.101
197.800	-3.267	0.101
197.900	5.954	0.101
198.000	10.092	0.101
198.100	2.767	0.101
198.200	8.176	0.101
198.300	-9.455	0.101
198.400	-3.356	0.101
198.500	17.125	0.101
198.600	12.180	0.101
198.700	26.118	0.101
198.800	11.343	0.101
198.900	0.060	0.101
199.000	9.597	0.101
199.100	3.452	0.101
199.200	15.222	0.101
199.300	-1.885	0.101
199.400	7.075	0.101
199.500	14.115	0.101
199.600	3.865	0.101
199.700	-5.923	0.101
199.800	-16.333	0.101
199.900	20.358	0.101
200.000	18.119	0.101
200.100	-7.326	0.101
200.200	2.544	0.101
200.300	19.618	0.101
200.400	6.468	0.101
200.500	6.684	0.101
200.600	14.700	0.101
200.700	0.773	0.101
200.800	17.857	0.101
200.900	0.065	0.101
201.000	18.157	0.101
201.100	11.374	0.101
201.200	1.074	0.101
201.300	9.836	0.101
201.400	2.579	0.101
201.500	5.064	0.101
201.600	-12.264	0.101
201.700	4.792	0.101
201.800	2.778	0.101
201.900	8.002	0.101
202.000	13.640	0.101
202.100	11.775	0.101
202.200	14.858	0.101
202.300	8.317	0.101
202.400	3.842	0.101
202.500	-0.818	0.101
202.600	-5.198	0.101
202.700	11.939	0.101
202.800	6.066	0.101
202.900	4.786	0.101
203.000	-8.267	0.101
203.100	1.064	0.101
203.200	0.214	0.101
203.300	14.542	0.101
203.400	-1.319	0.101
203.500	3.833	0.101
203.600	1.235	0.101
203.700	20.408	0.101
203.800	-3.888	0.101
203.900	4.806	0.101
204.000	22.156	0.101
204.100	10.915	0.101
204.200	20.870	0.101
204.300	-0.358	0.101
204.400	6.781	0.101
204.500	16.860	0.101
204.600	11.225	0.101
204.700	-0.731	0.101
204.800	6.227	0.101
204.900	20.431	0.101
205.000	3.315	0.101
205.100	4.755	0.101
205.200	5.681	0.101
205.300	-1.684	0.101
205.400	14.392	0.101
205.500	14.928	0.101
205.600	17.108	0.101
205.700	2.035	0.101
205.800	-3.437	0.101
205.900	-1.258	0.101
206.000	-8.072	0.101
206.100	9.430	0.101
206.200	8.389	0.101
206.300	5.794	0.101
206.400	8.425	0.101
206.500	16.295	0.101
206.600	8.711	0.101
206.700	15.320	0.101
206.800	-6.394	0.101
206.900	-8.603	0.101
207.000	10.188	0.101
207.100	3.253	0.101
207.200	9.089	0.101
207.300	-1.105	0.101
207.400	15.924	0.101
207.500	6.455	0.101
207.600	26.551	0.101
207.700	10.407	0.101
207.800	12.038	0.101
207.900	0.581	0.101
208.000	23.958	0.101
208.100	8.270	0.101
208.200	6.666	0.101
208.300	2.705	0.101
208.400	3.778	0.101
208.500	5.875	0.101
208.600	13.514	0.101
208.700	18.888	0.101
208.800	21.032	0.101
208.900	7.994	0.101
209.000	-1.896	0.101
209.100	4.403	0.101
209.200	5.441	0.101
209.300	0.347	0.101
209.400	13.112	0.101
209.500	1.439	0.101
209.600	14.317	0.101
209.700	19.181	0.101
209.800	4.419	0.101
209.900	10.138	0.101
210.000	0.214	0.101
210.100	7.474	0.101
210.200	-0.928	0.101
210.300	22.444	0.101
210.400	-1.572	0.101
210.500	-3.612	0.101
210.600	7.310	0.101
210.700	6.052	0.101
210.800	4.046	0.101
210.900	3.360	0.101
211.000	0.725	0.101
211.100	15.452	0.101
211.200	14.459	0.101
211.300	5.348	0.101
211.400	-0.728	0.101
211.500	-2.254	0.101
211.600	14.756	0.101
211.700	7.332	0.101
211.800	14.159	0.101
211.900	1.466	0.101
212.000	-3.848	0.101
212.100	9.074	0.101
212.200	9.745	0.101
212.300	1.235	0.101
212.400	16.396	0.101
212.500	8.416	0.101
212.600	3.943	0.101
212.700	4.903	0.101
212.800	15.418	0.101
212.900	5.728	0.101
213.000	15.358	0.101
213.100	-0.582	0.101
213.200	7.340	0.101
213.300	7.967	0.101
213.400	8.812	0.101
213.500	-2.080	0.101
213.600	-5.315	0.101
213.700	23.744	0.101
213.800	-11.107	0.101
213.900	7.271	0.101
214.000	7.071	0.101
214.100	10.005	0.101
214.200	13.283	0.101
214.300	7.962	0.101
214.400	6.540	0.101
214.500	11.798	0.101
214.600	4.562	0.101
214.700	-1.364	0.101
214.800	15.314	0.101
214.900	6.130	0.101
215.000	-1.803	0.101
215.100	16.213	0.101
215.200	18.594	0.101
215.300	4.746	0.101
215.400	17.180	0.101
215.500	0.213	0.101
215.600	5.468	0.101
215.700	8.680	0.101
215.800	4.114	0.101
215.900	6.114	0.101
216.000	17.101	0.101
216.100	8.508	0.101
216.200	0.634	0.101
216.300	22.665	0.101
216.400	20.678	0.101
216.500	-2.799	0.101
216.600	7.656	0.101
216.700	7.239	0.101
216.800	7.628	0.101
216.900	-2.238	0.101
217.000	11.411	0.101
217.100	4.159	0.101
217.200	-6.658	0.101
217.300	9.480	0.101
217.400	9.476	0.101
217.500	9.891	0.101
217.600	19.450	0.101
217.700	-4.601	0.101
217.800	13.542	0.101
217.900	13.662	0.101
218.000	18.725	0.101
218.100	11.257	0.101
218.200	8.683	0.101
218.300	-0.888	0.101
218.400	2.543	0.101
218.500	-1.872	0.101
218.600	11.583	0.101
218.700	23.174	0.101
218.800	1.150	0.101
218.900	2.329	0.101
219.000	3.125	0.101
219.100	7.464	0.101
219.200	21.457	0.101
219.300	1.023	0.101
219.400	8.323	0.101
219.500	9.499	0.101
219.600	-1.884	0.101
219.700	8.245	0.101
219.800	0.637	0.101
219.900	7.505	0.101
220.000	8.965	0.101
220.100	-0.442	0.101
220.200	19.459	0.101
220.300	16.420	0.101
220.400	7.181	0.101
220.500	7.905	0.101
220.600	-7.333	0.101
220.700	16.192	0.101
220.800	3.253	0.101
220.900	8.653	0.101
221.000	18.672	0.101
221.100	0.060	0.101
221.200	13.846	0.101
221.300	10.784	0.101
221.400	-2.737	0.101
221.500	14.134	0.101
221.600	12.935	0.101
221.700	10.661	0.101
221.800	2.371	0.101
221.900	6.926	0.101
222.000	5.131	0.101
222.100	10.684	0.101
222.200	7.911	0.101
222.300	1.001	0.101
222.400	18.656	0.101
222.500	14.435	0.101
222.600	-4.693	0.101
222.700	6.727	0.101
222.800	8.254	0.101
222.900	5.941	0.101
223.000	3.403	0.101
223.100	17.133	0.101
223.200	2.862	0.101
223.300	20.387	0.101
223.400	14.073	0.101
223.500	-8.416	0.101
223.600	7.664	0.101
223.700	8.216	0.101
223.800	-2.080	0.101
223.900	-8.831	0.101
224.000	9.499	0.101
224.100	15.799	0.101
224.200	24.901	0.101
224.300	-2.243	0.101
224.400	4.449	0.101
224.500	-5.985	0.101
224.600	13.105	0.101
224.700	9.044	0.101
224.800	30.651	0.101
224.900	18.194	0.101
225.000	13.698	0.101
225.100	14.019	0.101
225.200	0.522	0.101
225.300	10.347	0.101
225.400	6.761	0.101
225.500	8.824	0.101
225.600	4.208	0.101
225.700	17.282	0.101
225.800	5.973	0.101
225.900	-1.603	0.101
226.000	-0.849	0.101
226.100	13.300	0.101
226.200	11.451	0.101
226.300	20.935	0.101
226.400	-13.163	0.101
226.500	-6.537	0.101
226.600	20.593	0.101
226.700	14.364	0.101
226.800	-4.320	0.101
226.900	15.088	0.101
227.000	25.955	0.101
227.100	0.058	0.101
227.200	15.399	0.101
227.300	12.840	0.101
227.400	10.587	0.101
227.500	9.231	0.101
227.600	2.606	0.101
227.700	-0.273	0.101
227.800	21.192	0.101
227.900	6.292	0.101
228.000	5.795	0.101
228.100	3.033	0.101
228.200	2.622	0.101
228.300	11.136	0.101
228.400	13.873	0.101
228.500	3.993	0.101
228.600	4.966	0.101
228.700	-12.989	0.101
228.800	16.993	0.101
228.900	9.004	0.101
229.000	11.613	0.101
229.100	2.274	0.101
229.200	16.395	0.101
229.300	0.694	0.101
229.400	-2.452	0.101
229.500	-5.708	0.101
229.600	0.930	0.101
229.700	2.593	0.101
229.800	7.140	0.101
229.900	7.116	0.101
230.000	9.761	0.101
230.100	11.988	0.101
230.200	-0.066	0.101
230.300	14.089	0.101
230.400	6.128	0.101
230.500	5.304	0.101
230.600	25.882	0.101
230.700	5.412	0.101
230.800	2.725	0.101
230.900	21.889	0.101
231.000	9.488	0.101
231.100	14.805	0.101
231.200	2.450	0.101
231.300	-11.159	0.101
231.400	-9.085	0.101
231.500	10.296	0.101
231.600	10.511	0.101
231.700	26.809	0.101
231.800	-0.361	0.101
231.900	-2.996	0.101
232.000	18.708	0.101
232.100	6.123	0.101
232.200	-8.431	0.101
232.300	5.639	0.101
232.400	0.860	0.101
232.500	10.197	0.101
232.600	11.801	0.101
232.700	3.818	0.101
232.800	-2.210	0.101
232.900	-4.243	0.101
233.000	13.354	0.101
233.100	19.270	0.101
233.200	5.745	0.101
233.300	3.642	0.101
233.400	6.808	0.101
233.500	1.178	0.101
233.600	20.830	0.101
233.700	7.467	0.101
233.800	-0.551	0.101
233.900	10.228	0.101
234.000	-2.843	0.101
234.100	20.535	0.101
234.200	5.815	0.101
234.300	10.789	0.101
234.400	4.891	0.101
234.500	-5.545	0.101
234.600	15.847	0.101
234.700	12.252	0.101
234.800	18.083	0.101
234.900	-10.336	0.101
235.000	-1.781	0.101
235.100	-2.223	0.101
235.200	13.573	0.101
235.300	4.259	0.101
235.400	13.175	0.101
235.500	-3.869	0.101
235.600	10.978	0.101
235.700	20.534	0.101
235.800	1.714	0.101
235.900	24.354	0.101
236.000	7.874	0.101
236.100	1.389	0.101
236.200	5.864	0.101
236.300	3.264	0.101
236.400	11.788	0.101
236.500	14.374	0.101
236.600	3.100	0.101
236.700	3.423	0.101
236.800	3.466	0.101
236.900	9.553	0.101
237.000	10.587	0.101
237.100	10.898	0.101
237.200	4.171	0.101
237.300	6.770	0.101
237.400	1.464	0.101
237.500	6.686	0.101
237.600	11.075	0.101
237.700	21.416	0.101
237.800	-4.000	0.101
237.900	12.337	0.101
238.000	-1.190	0.101
238.100	-3.786	0.101
238.200	-2.029	0.101
238.300	-5.162	0.101
238.400	13.191	0.101
238.500	20.380	0.101
238.600	-4.273	0.101
238.700	12.913	0.101
238.800	13.683	0.101
238.900	6.379	0.101
239.000	20.508	0.101
239.100	-0.841	0.101
239.200	-0.834	0.101
239.300	4.791	0.101
239.400	14.631	0.101
239.500	-9.106	0.101
239.600	12.744	0.101
239.700	-3.568	0.101
239.800	10.796	0.101
239.900	17.623	0.101
240.000	8.560	0.101
240.100	4.634	0.101
240.200	8.069	0.101
240.300	1.243	0.101
240.400	1.499	0.101
240.500	5.833	0.101
240.600	-0.922	0.101
240.700	-4.219	0.101
240.800	5.725	0.101
240.900	13.131	0.101
241.000	12.177	0.101
241.100	-15.655	0.101
241.200	4.118	0.101
241.300	-3.000	0.101
241.400	0.610	0.101
241.500	-0.810	0.101
241.600	-3.274	0.101
241.700	-4.714	0.101
241.800	-6.568	0.101
241.900	3.392	0.101
242.000	-8.358	0.101
242.100	8.694	0.101
242.200	16.941	0.101
242.300	5.142	0.101
242.400	-8.231	0.101
242.500	5.066	0.101
242.600	-3.184	0.101
242.700	-3.447	0.101
242.800	-9.237	0.101
242.900	10.001	0.101
243.000	0.355	0.101
243.100	-0.596	0.101
243.200	0.789	0.100
243.300	7.962	0.100
243.400	6.690	0.101
243.500	-3.770	0.100
243.600	-3.080	0.100
243.700	9.702	0.100
243.800	-2.847	0.100
243.900	-9.370	0.100
244.000	-9.232	0.100
244.100	-14.895	0.100
244.200	3.141	0.100
244.300	-5.749	0.100
244.400	-2.441	0.100
244.500	-15.957	0.100
244.600	-1.160	0.100
244.700	-2.687	0.100
244.800	-15.102	0.100
244.900	-2.841	0.100
245.000	-8.501	0.100
245.100	-20.323	0.100
245.200	-6.274	0.100
245.300	-1.473	0.100
245.400	0.152	0.100
245.500	7.019	0.100
245.600	4.886	0.100
245.700	-15.489	0.100
245.800	-7.548	0.100
245.900	-6.844	0.100
246.000	-4.318	0.100
246.100	-6.784	0.100
246.200	-7.152	0.100
246.300	-3.285	0.100
246.400	-0.055	0.100
246.500	-7.533	0.100
246.600	10.582	0.100
246.700	-15.337	0.100
246.800	0.347	0.100
246.900	-7.865	0.100
247.000	8.139	0.100
247.100	-0.349	0.100
247.200	4.931	0.100
247.300	1.779	0.100
247.400	-6.046	0.100
247.500	-3.144	0.100
247.600	-6.265	0.100
247.700	-8.119	0.100
247.800	4.426	0.100
247.900	-2.989	0.100
248.000	-5.297	0.100
248.100	-4.789	0.100
248.200	2.432	0.100
248.300	-2.621	0.100
248.400	-2.868	0.100
248.500	11.052	0.100
248.600	-10.279	0.100
248.700	-11.510	0.100
248.800	-3.904	0.100
248.900	-2.995	0.100
249.000	3.571	0.100
249.100	-5.746	0.100
249.200	0.242	0.100
249.300	1.729	0.100
249.400	-7.441	0.100
249.500	8.190	0.100
249.600	-15.971	0.100
249.700	-12.746	0.100
249.800	-3.350	0.100
249.900	1.389	0.100
250.000	-14.197	0.100
250.100	-7.284	0.100
250.200	8.349	0.100
250.300	-6.924	0.100
250.400	5.150	0.100
250.500	-0.776	0.100
250.600	-6.465	0.100
250.700	-6.517	0.100
250.800	-7.106	0.100
250.900	-3.083	0.100
251.000	-4.759	0.100
251.100	11.693	0.100
251.200	-3.325	0.100
251.300	5.505	0.100
251.400	-7.162	0.100
251.500	-5.537	0.100
251.600	-3.711	0.100
251.700	3.806	0.100
251.800	-18.833	0.100
251.900	-4.689	0.100
252.000	7.352	0.100
252.100	-3.169	0.100
252.200	1.538	0.100
252.300	-17.740	0.100
252.400	16.954	0.100
252.500	-7.545	0.100
252.600	-2.558	0.100
252.700	9.804	0.100
252.800	-2.105	0.100
252.900	0.528	0.100
253.000	-16.054	0.100
253.100	-11.098	0.100
253.200	-10.581	0.100
253.300	13.868	0.100
253.400	-9.444	0.100
253.500	-5.324	0.100
253.600	4.478	0.100
253.700	8.332	0.100
253.800	-8.409	0.100
253.900	10.310	0.100
254.000	3.510	0.100
254.100	3.508	0.100
254.200	-12.610	0.100
254.300	-0.006	0.100
254.400	-5.242	0.101
254.500	6.118	0.101
254.600	-11.390	0.100
254.700	-11.233	0.101
254.800	-3.872	0.101
254.900	6.173	0.101
255.000	-11.781	0.101
255.100	3.354	0.101
255.200	-15.071	0.101
255.300	-16.011	0.101
255.400	-1.863	0.101
255.500	-4.357	0.101
255.600	-6.255	0.101
255.700	8.154	0.101
255.800	-15.444	0.101
255.900	-7.889	0.101
256.000	0.326	0.101
256.100	4.267	0.101
256.200	8.355	0.101
256.300	-2.195	0.101
256.400	-8.370	0.101
256.500	-0.709	0.101
256.600	-6.056	0.101
256.700	-3.041	0.101
256.800	-2.604	0.101
256.900	-12.386	0.101
257.000	1.180	0.101
257.100	-4.251	0.101
257.200	7.164	0.101
257.300	-1.033	0.101
257.400	-5.801	0.101
257.500	-5.866	0.101
257.600	-10.981	0.101
257.700	-6.988	0.101
257.800	-14.265	0.101
257.900	3.560	0.101
258.000	-3.995	0.101
258.100	-11.576	0.101
258.200	-1.445	0.101
258.300	-13.747	0.101
258.400	-9.172	0.101
258.500	3.478	0.101
258.600	-3.019	0.101
258.700	3.286	0.101
258.800	0.876	0.101
258.900	-12.313	0.101
259.000	-13.174	0.101
259.100	-5.469	0.101
259.200	3.088	0.101
259.300	-14.049	0.101
259.400	3.217	0.101
259.500	-11.087	0.101
259.600	3.701	0.101
259.700	-0.348	0.101
259.800	-9.419	0.101
259.900	-14.826	0.101
260.000	-0.581	0.101
260.100	-6.863	0.101
260.200	-4.422	0.101
260.300	2.567	0.101
260.400	2.459	0.101
260.500	-6.957	0.101
260.600	-7.571	0.101
260.700	-7.464	0.101
260.800	-2.940	0.101
260.900	0.228	0.101
261.000	5.045	0.101
261.100	-5.273	0.101
261.200	-0.457	0.101
261.300	-23.321	0.101
261.400	-7.177	0.101
261.500	-2.907	0.101
261.600	-0.569	0.101
261.700	-11.793	0.101
261.800	-10.366	0.101
261.900	-2.596	0.101
262.000	0.444	0.101
262.100	-18.830	0.101
262.200	-5.376	0.101
262.300	-9.033	0.101
262.400	-6.775	0.101
262.500	1.363	0.101
262.600	-10.937	0.101
262.700	-1.590	0.101
262.800	-1.984	0.101
262.900	-8.953	0.101
263.000	-0.621	0.101
263.100	-5.559	0.101
263.200	-0.013	0.101
263.300	-6.504	0.101
263.400	-4.601	0.101
263.500	-11.907	0.101
263.600	11.083	0.101
263.700	-1.201	0.101
263.800	-7.872	0.101
263.900	1.794	0.101
264.000	7.908	0.101
264.100	-12.409	0.101
264.200	-14.730	0.101
264.300	-16.563	0.101
264.400	1.568	0.101
264.500	-4.646	0.101
264.600	-7.659	0.101
264.700	-2.698	0.101
264.800	-5.529	0.101
264.900	-7.209	0.101
265.000	-5.069	0.101
265.100	-2.256	0.101
265.200	8.120	0.101
265.300	-8.380	0.101
265.400	-11.177	0.101
265.500	-7.550	0.101
265.600	7.201	0.101
265.700	-14.063	0.101
265.800	-2.857	0.101
265.900	-3.496	0.101
266.000	-4.357	0.101
266.100	-0.374	0.101
266.200	5.759	0.101
266.300	-14.387	0.101
266.400	-8.958	0.101
266.500	-8.704	0.101
266.600	-1.621	0.101
266.700	-7.619	0.101
266.800	0.025	0.101
266.900	-12.755	0.101
267.000	-1.067	0.101
267.100	-7.608	0.101
267.200	1.899	0.101
267.300	-5.174	0.101
267.400	-2.181	0.101
267.500	6.391	0.101
267.600	-8.847	0.101
267.700	-2.891	0.101
267.800	-15.863	0.101
267.900	-11.107	0.101
268.000	-5.685	0.101
268.100	-6.502	0.101
268.200	-12.789	0.101
268.300	-8.229	0.101
268.400	-1.760	0.101
268.500	-2.805	0.101
268.600	11.114	0.101
268.700	-14.460	0.101
268.800	-12.807	0.101
268.900	-3.949	0.101
269.000	-11.595	0.101
269.100	-7.134	0.101
269.200	7.617	0.101
269.300	-7.828	0.101
269.400	-8.492	0.101
269.500	-0.280	0.101
269.600	-0.804	0.101
269.700	-9.631	0.101
269.800	-7.688	0.101
269.900	1.515	0.101
270.000	-7.813	0.101
270.100	-16.040	0.101
270.200	-3.131	0.101
270.300	-12.259	0.101
270.400	-4.611	0.101
270.500	10.171	0.101
270.600	8.712	0.101
270.700	-11.467	0.101
270.800	-5.772	0.101
270.900	-12.078	0.101
271.000	-20.276	0.101
271.100	-1.662	0.101
271.200	-4.045	0.101
271.300	-3.670	0.101
271.400	-2.914	0.101
271.500	-1.006	0.101
271.600	4.448	0.101
271.700	-7.148	0.101
271.800	-3.072	0.101
271.900	-6.970	0.101
272.000	-9.962	0.101
272.100	-6.525	0.101
272.200	-18.000	0.101
272.300	-0.835	0.101
272.400	-16.040	0.101
272.500	-4.788	0.101
272.600	-2.289	0.101
272.700	-5.311	0.101
272.800	-10.445	0.101
272.900	-1.947	0.101
273.000	-7.920	0.101
273.100	-7.490	0.101
273.200	-5.823	0.101
273.300	-3.475	0.101
273.400	4.842	0.101
273.500	-10.738	0.101
273.600	-9.383	0.101
273.700	0.962	0.101
273.800	-11.846	0.101
273.900	-10.857	0.101
274.000	-8.727	0.101
274.100	-11.995	0.101
274.200	-3.988	0.101
274.300	-2.769	0.101
274.400	-11.571	0.101
274.500	-7.341	0.101
274.600	-16.250	0.101
274.700	-7.700	0.101
274.800	2.851	0.101
274.900	3.224	0.101
275.000	-6.024	0.101
275.100	-8.565	0.101
275.200	-6.528	0.101
275.300	-2.350	0.101
275.400	-8.191	0.101
275.500	0.599	0.101
275.600	1.831	0.101
275.700	-17.039	0.101
275.800	7.951	0.101
275.900	-4.751	0.101
276.000	-2.843	0.101
276.100	-11.327	0.101
276.200	-9.526	0.101
276.300	-2.046	0.101
276.400	-9.094	0.101
276.500	0.427	0.101
276.600	4.748	0.101
276.700	1.414	0.101
276.800	-15.806	0.101
276.900	1.496	0.101
277.000	-5.037	0.101
277.100	-3.260	0.101
277.200	-5.261	0.101
277.300	-9.758	0.101
277.400	0.811	0.101
277.500	-1.830	0.101
277.600	-15.935	0.101
277.700	1.658	0.101
277.800	-1.864	0.101
277.900	-2.442	0.101
278.000	-7.670	0.101
278.100	-0.370	0.101
278.200	-7.736	0.101
278.300	-15.794	0.101
278.400	-2.605	0.101
278.500	-1.655	0.101
278.600	-8.894	0.101
278.700	-16.287	0.101
278.800	-10.697	0.101
278.900	0.338	0.101
279.000	3.183	0.101
279.100	2.256	0.101
279.200	3.317	0.101
279.300	-24.751	0.101
279.400	-12.361	0.101
279.500	-14.132	0.101
279.600	-0.933	0.101
279.700	-11.026	0.101
279.800	-9.646	0.101
279.900	-2.679	0.101
280.000	-16.145	0.101
280.100	-0.502	0.101
280.200	-17.256	0.101
280.300	-16.028	0.101
280.400	-0.288	0.101
280.500	0.365	0.101
280.600	3.773	0.101
280.700	-2.821	0.101
280.800	-11.175	0.101
280.900	-15.608	0.101
281.000	6.914	0.101
281.100	-5.531	0.101
281.200	-14.702	0.101
281.300	8.778	0.101
281.400	1.791	0.101
281.500	0.719	0.101
281.600	-11.833	0.101
281.700	-10.057	0.101
281.800	-1.110	0.101
281.900	-7.293	0.101
282.000	-12.251	0.101
282.100	7.834	0.101
282.200	-7.224	0.101
282.300	-15.922	0.101
282.400	-14.370	0.101
282.500	-6.870	0.101
282.600	-4.140	0.101
282.700	-10.491	0.101
282.800	-1.296	0.101
282.900	-11.959	0.101
283.000	9.194	0.101
283.100	-6.672	0.101
283.200	-19.644	0.101
283.300	-1.186	0.101
283.400	-0.702	0.101
283.500	0.098	0.101
283.600	-5.870	0.101
283.700	-1.128	0.101
283.800	-8.378	0.101
283.900	-4.506	0.101
284.000	-5.843	0.101
284.100	-6.174	0.101
284.200	-2.124	0.101
284.300	-6.891	0.101
284.400	5.460	0.101
284.500	-6.462	0.101
284.600	-9.166	0.101
284.700	-7.948	0.101
284.800	5.344	0.101
284.900	-6.552	0.101
285.000	-4.764	0.101
285.100	-1.823	0.101
285.200	-8.611	0.101
285.300	-18.503	0.101
285.400	-6.934	0.101
285.500	-1.797	0.101
285.600	-28.382	0.101
285.700	-14.516	0.101
285.800	-1.119	0.101
285.900	7.333	0.101
286.000	-20.675	0.101
286.100	1.577	0.101
286.200	-5.038	0.101
286.300	-11.814	0.101
286.400	-1.375	0.101
286.500	2.322	0.101
286.600	-1.904	0.101
286.700	-8.625	0.101
286.800	7.339	0.101
286.900	-13.915	0.101
287.000	-6.902	0.101
287.100	-0.906	0.101
287.200	-8.141	0.101
287.300	-15.162	0.101
287.400	4.118	0.101
287.500	-9.978	0.101
287.600	-10.144	0.101
287.700	-14.569	0.101
287.800	-8.645	0.101
287.900	-13.612	0.101
288.000	-3.162	0.101
288.100	4.568	0.101
288.200	-8.653	0.101
288.300	-14.993	0.101
288.400	7.411	0.101
288.500	2.401	0.101
288.600	-9.170	0.101
288.700	-6.227	0.101
288.800	-8.096	0.101
288.900	-19.022	0.101
289.000	6.219	0.101
289.100	-3.643	0.101
289.200	-7.626	0.101
289.300	-10.343	0.101
289.400	2.678	0.101
289.500	-15.447	0.101
289.600	1.880	0.101
289.700	0.028	0.101
289.800	-12.684	0.101
289.900	-21.380	0.101
290.000	-0.107	0.101
290.100	-4.176	0.101
290.200	-5.863	0.101
290.300	1.002	0.101
290.400	-1.572	0.101
290.500	-4.083	0.101
290.600	-11.270	0.101
290.700	-3.021	0.101
290.800	4.203	0.101
290.900	-4.345	0.101
291.000	-7.551	0.101
291.100	-9.050	0.101
291.200	-22.708	0.101
291.300	-8.772	0.101
291.400	-1.652	0.101
291.500	9.900	0.101
291.600	-17.384	0.101
291.700	1.546	0.101
291.800	-0.904	0.101
291.900	-10.802	0.101
292.000	-4.956	0.101
292.100	-9.742	0.101
292.200	-1.644	0.101
292.300	-14.731	0.101
292.400	-8.754	0.101
292.500	-6.861	0.101
292.600	-11.277	0.101
292.700	-4.025	0.101
292.800	-24.954	0.101
292.900	4.904	0.101
293.000	-4.695	0.101
293.100	-10.525	0.101
293.200	-7.164	0.101
293.300	-3.796	0.101
293.400	-1.993	0.101
293.500	-4.663	0.101
293.600	0.188	0.101
293.700	-9.070	0.101
293.800	-24.298	0.101
293.900	1.054	0.101
294.000	9.540	0.101
294.100	8.531	0.101
294.200	-14.995	0.101
294.300	-9.681	0.101
294.400	-12.651	0.101
294.500	-6.113	0.101
294.600	0.195	0.101
294.700	-16.318	0.101
294.800	5.349	0.101
294.900	-8.824	0.101
295.000	2.441	0.101
295.100	-6.882	0.101
295.200	2.366	0.101
295.300	3.425	0.101
295.400	2.885	0.101
295.500	-12.390	0.101
295.600	-8.695	0.101
295.700	-3.561	0.101
295.800	-9.026	0.101
295.900	-7.249	0.101
296.000	6.915	0.101
296.100	-11.035	0.101
296.200	-2.661	0.101
296.300	0.645	0.101
296.400	-11.777	0.101
296.500	-2.947	0.101
296.600	-11.616	0.101
296.700	-7.736	0.101
296.800	-2.545	0.101
296.900	-9.291	0.101
297.000	-17.406	0.101
297.100	9.443	0.101
297.200	-2.794	0.101
297.300	-9.938	0.101
297.400	2.985	0.101
297.500	9.092	0.101
297.600	-11.334	0.101
297.700	-14.112	0.101
297.800	-0.449	0.101
297.900	-2.008	0.101
298.000	-16.472	0.101
298.100	-18.236	0.101
298.200	-13.842	0.101
298.300	0.490	0.101
298.400	-17.205	0.101
298.500	5.409	0.101
298.600	7.518	0.101
298.700	-4.655	0.101
298.800	-19.239	0.101
298.900	2.353	0.101
299.000	-12.216	0.101
299.100	-6.181	0.101
299.200	-8.985	0.101
299.300	6.379	0.101
299.400	-5.104	0.101
299.500	5.465	0.101
299.600	-18.616	0.101
299.700	-2.464	0.101
299.800	-11.340	0.101
299.900	-3.793	0.101
300.000	-11.365	0.101
300.100	-2.354	0.101
300.200	-2.194	0.101
300.300	-3.773	0.101
300.400	-3.279	0.101
300.500	-11.388	0.101
300.600	-9.153	0.101
300.700	-1.619	0.101
300.800	-4.295	0.101
300.900	-12.873	0.101
301.000	-17.474	0.101
301.100	-15.657	0.101
301.200	5.723	0.101
301.300	-12.029	0.101
301.400	8.638	0.101
301.500	1.094	0.101
301.600	-10.430	0.101
301.700	-6.431	0.101
301.800	3.351	0.101
301.900	8.853	0.101
302.000	-16.063	0.101
302.100	-9.865	0.101
302.200	-5.937	0.101
302.300	6.026	0.101
302.400	-11.782	0.101
302.500	-6.694	0.101
302.600	-2.355	0.101
302.700	9.529	0.101
302.800	-17.887	0.101
302.900	-8.613	0.101
303.000	-6.535	0.101
303.100	5.087	0.101
303.200	-10.619	0.101
303.300	2.355	0.101
303.400	-4.848	0.101
303.500	9.009	0.101
303.600	-14.818	0.101
303.700	-10.551	0.101
303.800	-1.675	0.101
303.900	-6.299	0.101
304.000	5.186	0.101
304.100	1.868	0.101
304.200	-3.388	0.101
304.300	-20.117	0.101
304.400	0.426	0.101
304.500	-14.345	0.101
304.600	-9.802	0.101
304.700	-4.646	0.101
304.800	0.105	0.101
304.900	-12.268	0.101
305.000	-4.009	0.101
305.100	-4.518	0.101
305.200	-13.037	0.101
305.300	-10.763	0.101
305.400	-5.203	0.101
305.500	-10.036	0.101
305.600	-5.259	0.101
305.700	-14.248	0.101
305.800	0.970	0.101
305.900	-1.781	0.101
306.000	-0.074	0.101
306.100	0.573	0.101
306.200	0.178	0.101
306.300	-19.969	0.101
306.400	0.255	0.101
306.500	-13.539	0.101
306.600	-13.274	0.101
306.700	4.650	0.101
306.800	-9.307	0.101
306.900	-2.022	0.101
307.000	-3.760	0.101
307.100	-12.306	0.101
307.200	-2.129	0.101
307.300	7.297	0.101
307.400	-9.903	0.101
307.500	15.662	0.101
307.600	-18.125	0.101
307.700	-13.753	0.101
307.800	-15.756	0.101
307.900	-4.401	0.101
308.000	2.458	0.101
308.100	-4.380	0.101
308.200	-3.045	0.101
308.300	-11.274	0.101
308.400	-3.855	0.101
308.500	-15.506	0.101
308.600	-1.762	0.101
308.700	-9.083	0.101
308.800	-5.336	0.101
308.900	-2.440	0.101
309.000	-12.949	0.101
309.100	-30.671	0.101
309.200	-6.491	0.101
309.300	11.348	0.101
309.400	-6.433	0.101
309.500	-18.799	0.101
309.600	-4.006	0.101
309.700	5.709	0.101
309.800	-8.284	0.101
309.900	-14.720	0.101
310.000	-11.674	0.101
310.100	-15.244	0.101
310.200	-3.304	0.101
310.300	4.702	0.101
310.400	-16.971	0.101
310.500	-2.415	0.101
310.600	-5.288	0.101
310.700	-2.095	0.101
310.800	-10.908	0.101
310.900	-8.716	0.101
311.000	-13.985	0.101
311.100	1.722	0.101
311.200	-11.911	0.101
311.300	-5.613	0.101
311.400	-2.993	0.101
311.500	-18.187	0.101
311.600	0.855	0.101
311.700	-0.864	0.101
311.800	3.419	0.101
311.900	-1.464	0.101
312.000	-11.330	0.101
312.100	-11.395	0.101
312.200	-11.836	0.101
312.300	-16.462	0.101
312.400	3.070	0.101
312.500	-2.723	0.101
312.600	2.721	0.101
312.700	-18.272	0.101
312.800	-4.445	0.101
312.900	0.592	0.101
313.000	-7.841	0.101
313.100	-7.168	0.101
313.200	0.072	0.101
313.300	-8.966	0.101
313.400	-19.538	0.101
313.500	-8.300	0.101
313.600	-0.391	0.101
313.700	2.396	0.101
313.800	-16.091	0.101
313.900	1.959	0.101
314.000	-8.476	0.101
314.100	-6.833	0.101
314.200	-7.889	0.101
314.300	-4.453	0.101
314.400	-13.271	0.101
314.500	-0.760	0.101
314.600	-9.597	0.101
314.700	-5.913	0.101
314.800	-3.907	0.101
314.900	8.030	0.101
315.000	-9.482	0.101
315.100	-9.637	0.101
315.200	-15.197	0.101
315.300	1.819	0.101
315.400	12.887	0.101
315.500	-2.332	0.101
315.600	-14.681	0.101
315.700	-5.253	0.101
315.800	0.795	0.101
315.900	-7.422	0.101
316.000	10.473	0.101
316.100	1.178	0.101
316.200	-8.984	0.101
316.300	-8.992	0.101
316.400	-4.482	0.101
316.500	7.738	0.101
316.600	-0.710	0.101
316.700	1.636	0.101
316.800	-16.640	0.101
316.900	-9.763	0.101
317.000	-5.884	0.101
317.100	1.395	0.101
317.200	-14.797	0.101
317.300	-14.298	0.101
317.400	-12.873	0.101
317.500	-12.596	0.101
317.600	-9.133	0.101
317.700	-4.143	0.101
317.800	-10.745	0.101
317.900	-2.743	0.101
318.000	-2.844	0.101
318.100	-5.057	0.101
318.200	-8.016	0.101
318.300	-8.193	0.101
318.400	-8.226	0.101
318.500	1.168	0.101
318.600	-4.188	0.101
318.700	-0.002	0.101
318.800	-6.436	0.101
318.900	-14.475	0.101
319.000	-5.227	0.101
319.100	-7.295	0.101
319.200	-14.565	0.101
319.300	-3.076	0.101
319.400	-11.050	0.101
319.500	-10.642	0.101
319.600	15.964	0.101
319.700	3.009	0.101
319.800	1.258	0.101
319.900	-4.357	0.101
320.000	-8.496	0.101
320.100	-15.478	0.101
320.200	-18.538	0.101
320.300	-13.400	0.101
320.400	-4.408	0.101
320.500	0.620	0.101
320.600	0.268	0.101
320.700	-1.874	0.101
320.800	-9.740	0.101
320.900	-9.345	0.101
321.000	-9.798	0.101
321.100	3.583	0.101
321.200	-2.569	0.101
321.300	-10.203	0.101
321.400	-2.446	0.101
321.500	-0.799	0.101
321.600	6.428	0.101
321.700	-10.619	0.101
321.800	-13.207	0.101
321.900	-4.134	0.101
322.000	-0.188	0.101
322.100	-8.881	0.101
322.200	-1.142	0.101
322.300	-4.724	0.101
322.400	-5.997	0.101
322.500	3.796	0.101
322.600	-8.343	0.101
322.700	-1.360	0.101
322.800	-8.846	0.101
322.900	-8.154	0.101
323.000	-4.912	0.101
323.100	-9.514	0.101
323.200	-5.498	0.101
323.300	-28.659	0.101
323.400	3.496	0.101
323.500	3.216	0.101
323.600	-1.200	0.101
323.700	-16.149	0.101
323.800	-1.307	0.101
323.900	-1.858	0.101
324.000	8.242	0.101
324.100	-10.030	0.101
324.200	-8.404	0.101
324.300	-7.007	0.101
324.400	2.492	0.101
324.500	-6.625	0.101
324.600	2.392	0.101
324.700	-6.017	0.101
324.800	-5.475	0.101
324.900	-11.283	0.101
325.000	9.204	0.101
325.100	-7.869	0.101
325.200	-8.836	0.101
325.300	-11.211	0.101
325.400	-0.129	0.101
325.500	-7.580	0.101
325.600	0.989	0.101
325.700	-3.142	0.101
325.800	-17.270	0.101
325.900	-7.233	0.101
326.000	-7.321	0.101
326.100	-1.035	0.101
326.200	-5.340	0.101
326.300	-12.407	0.101
326.400	-7.614	0.101
326.500	-12.329	0.101
326.600	-6.143	0.101
326.700	-8.277	0.101
326.800	-1.098	0.101
326.900	-13.512	0.101
327.000	-4.092	0.101
327.100	-5.602	0.101
327.200	-13.287	0.101
327.300	9.010	0.101
327.400	-1.202	0.101
327.500	-10.467	0.101
327.600	5.697	0.101
327.700	3.467	0.101
327.800	-15.851	0.101
327.900	-3.368	0.101
328.000	-4.140	0.101
328.100	-10.659	0.101
328.200	-8.739	0.101
328.300	-8.304	0.101
328.400	-9.829	0.101
328.500	-18.297	0.101
328.600	-0.525	0.101
328.700	14.540	0.101
328.800	-6.030	0.101
328.900	-16.099	0.101
329.000	4.438	0.101
329.100	-28.661	0.101
329.200	4.063	0.101
329.300	-7.482	0.101
329.400	-8.369	0.101
329.500	-18.716	0.101
329.600	-5.125	0.101
329.700	11.408	0.101
329.800	-8.876	0.101
329.900	-14.430	0.101
330.000	-8.165	0.101
330.100	-0.023	0.101
330.200	-1.602	0.101
330.300	-10.838	0.101
330.400	-8.435	0.101
330.500	-4.091	0.101
330.600	-1.024	0.101
330.700	4.398	0.101
330.800	9.498	0.101
330.900	2.691	0.101
331.000	-4.489	0.101
331.100	7.182	0.101
331.200	-3.259	0.101
331.300	7.225	0.101
331.400	-1.791	0.101
331.500	-4.474	0.101
331.600	3.546	0.101
331.700	8.899	0.101
331.800	3.133	0.101
331.900	18.658	0.101
332.000	-7.232	0.101
332.100	-6.127	0.101
332.200	16.266	0.101
332.300	-9.828	0.101
332.400	7.618	0.101
332.500	-2.746	0.101
332.600	12.951	0.101
332.700	-5.841	0.100
332.800	-12.742	0.100
332.900	9.987	0.100
333.000	8.983	0.100
333.100	0.566	0.100
333.200	8.443	0.100
333.300	-6.689	0.100
333.400	4.125	0.100
333.500	1.368	0.100
333.600	-0.011	0.100
333.700	0.786	0.100
333.800	6.641	0.100
333.900	0.120	0.100
334.000	-11.058	0.100
334.100	3.736	0.100
334.200	9.026	0.100
334.300	2.336	0.100
334.400	-5.014	0.100
334.500	-0.745	0.100
334.600	-19.026	0.100
334.700	8.736	0.100
334.800	-1.349	0.100
334.900	-4.180	0.100
335.000	2.728	0.100
335.100	9.104	0.100
335.200	5.897	0.100
335.300	6.002	0.100
335.400	-4.131	0.100
335.500	6.298	0.100
335.600	-2.414	0.100
335.700	11.371	0.100
335.800	-1.809	0.100
335.900	3.981	0.100
336.000	-5.912	0.100
336.100	-9.934	0.100
336.200	-1.480	0.100
336.300	11.477	0.100
336.400	11.667	0.100
336.500	-6.841	0.100
336.600	10.424	0.100
336.700	10.461	0.100
336.800	1.475	0.100
336.900	-12.931	0.100
337.000	-10.832	0.100
337.100	6.781	0.100
337.200	-1.749	0.100
337.300	-2.452	0.100
337.400	12.013	0.100
337.500	12.221	0.100
337.600	1.596	0.100
337.700	3.215	0.100
337.800	-4.557	0.100
337.900	-4.522	0.100
338.000	2.049	0.100
338.100	-2.512	0.100
338.200	14.492	0.100
338.300	1.774	0.100
338.400	-3.321	0.100
338.500	-5.325	0.100
338.600	6.877	0.100
338.700	10.939	0.100
338.800	-3.301	0.100
338.900	5.034	0.100
339.000	2.235	0.100
339.100	8.506	0.100
339.200	-3.587	0.100
339.300	1.707	0.100
339.400	7.745	0.100
339.500	-3.314	0.100
339.600	0.456	0.100
339.700	-1.410	0.100
339.800	3.202	0.100
339.900	3.118	0.100
340.000	-11.003	0.100
340.100	11.823	0.100
340.200	5.263	0.100
340.300	-0.528	0.100
340.400	11.053	0.100
340.500	3.252	0.100
340.600	-10.431	0.100
340.700	1.016	0.100
340.800	6.473	0.100
340.900	2.531	0.100
341.000	-5.165	0.100
341.100	3.252	0.100
341.200	1.440	0.100
341.300	3.068	0.100
341.400	1.519	0.100
341.500	14.202	0.100
341.600	3.190	0.100
341.700	10.667	0.100
341.800	-5.884	0.100
341.900	16.928	0.100
342.000	-1.156	0.100
342.100	1.193	0.100
342.200	-2.664	0.100
342.300	-9.178	0.100
342.400	5.790	0.100
342.500	12.650	0.100
342.600	-7.170	0.100
342.700	1.225	0.100
342.800	10.918	0.100
342.900	4.728	0.100
343.000	19.074	0.100
343.100	19.908	0.100
343.200	6.089	0.100
343.300	7.752	0.100
343.400	0.340	0.100
343.500	8.462	0.100
343.600	5.017	0.100
343.700	-3.581	0.100
343.800	-5.989	0.100
343.900	-5.919	0.101
344.000	11.745	0.101
344.100	8.958	0.100
344.200	16.665	0.101
344.300	10.413	0.101
344.400	4.845	0.101
344.500	-3.808	0.101
344.600	12.494	0.101
344.700	15.557	0.101
344.800	1.071	0.101
344.900	12.233	0.101
345.000	0.804	0.101
345.100	13.245	0.101
345.200	5.467	0.101
345.300	17.497	0.101
345.400	2.887	0.101
345.500	8.274	0.101
345.600	5.375	0.101
345.700	11.873	0.101
345.800	-2.533	0.101
345.900	5.409	0.101
346.000	-5.881	0.101
346.100	2.807	0.101
346.200	16.955	0.101
346.300	22.901	0.101
346.400	12.216	0.101
346.500	-0.952	0.101
346.600	-4.140	0.101
346.700	13.196	0.101
346.800	13.202	0.101
346.900	5.446	0.101
347.000	22.326	0.101
347.100	2.920	0.101
347.200	-0.836	0.101
347.300	18.550	0.101
347.400	3.899	0.101
347.500	-6.792	0.101
347.600	3.085	0.101
347.700	11.995	0.101
347.800	1.358	0.101
347.900	17.673	0.101
348.000	15.078	0.101
348.100	9.783	0.101
348.200	-0.765	0.101
348.300	-10.725	0.101
348.400	9.884	0.101
348.500	20.259	0.101
348.600	6.879	0.101
348.700	-3.920	0.101
348.800	17.925	0.101
348.900	10.188	0.101
349.000	3.994	0.101
349.100	14.328	0.101
349.200	16.483	0.101
349.300	19.222	0.101
349.400	10.262	0.101
349.500	5.957	0.101
349.600	10.950	0.101
349.700	9.553	0.101
349.800	10.403	0.101
349.900	9.800	0.101
350.000	6.727	0.101
350.100	14.881	0.101
350.200	14.875	0.101
350.300	21.013	0.101
350.400	0.660	0.101
350.500	2.327	0.101
350.600	5.749	0.101
350.700	-1.967	0.101
350.800	-1.009	0.101
350.900	7.475	0.101
351.000	11.145	0.101
351.100	12.102	0.101
351.200	-1.201	0.101
351.300	4.473	0.101
351.400	1.322	0.101
351.500	12.046	0.101
351.600	3.158	0.101
351.700	8.930	0.101
351.800	10.763	0.101
351.900	7.763	0.101
352.000	12.713	0.101
352.100	7.045	0.101
352.200	4.123	0.101
352.300	-5.134	0.101
352.400	2.524	0.101
352.500	7.710	0.101
352.600	10.574	0.101
352.700	11.198	0.101
352.800	2.656	0.101
352.900	12.917	0.101
353.000	8.370	0.101
353.100	12.994	0.101
353.200	9.055	0.101
353.300	1.934	0.101
353.400	14.622	0.101
353.500	8.098	0.101
353.600	-1.079	0.101
353.700	5.377	0.101
353.800	5.668	0.101
353.900	-1.262	0.101
354.000	13.700	0.101
354.100	8.829	0.101
354.200	11.105	0.101
354.300	9.095	0.101
354.400	2.241	0.101
354.500	23.344	0.101
354.600	5.580	0.101
354.700	-1.735	0.101
354.800	9.063	0.101
354.900	-0.584	0.101
355.000	10.729	0.101
355.100	4.653	0.101
355.200	4.563	0.101
355.300	0.739	0.101
355.400	22.229	0.100
355.500	11.086	0.100
355.600	6.775	0.100
355.700	-12.404	0.100
355.800	11.434	0.100
355.900	0.631	0.100
356.000	2.381	0.100
356.100	18.754	0.100
356.200	-3.635	0.100
356.300	2.472	0.100
356.400	6.736	0.100
356.500	14.816	0.100
356.600	0.700	0.101
356.700	22.183	0.100
356.800	12.806	0.100
356.900	8.339	0.101
357.000	5.911	0.100
357.100	14.857	0.100
357.200	14.820	0.100
357.300	4.913	0.100
357.400	9.372	0.100
357.500	10.977	0.100
357.600	8.363	0.100
357.700	-6.531	0.100
357.800	4.393	0.100
357.900	11.060	0.100
358.000	17.076	0.100
358.100	3.026	0.100
358.200	9.457	0.100
358.300	5.309	0.100
358.400	7.346	0.100
358.500	8.962	0.100
358.600	28.458	0.100
358.700	16.400	0.100
358.800	-12.019	0.100
358.900	-0.616	0.101
359.000	10.451	0.100
359.100	13.552	0.101
359.200	7.284	0.100
359.300	-10.314	0.100
359.400	12.752	0.100
359.500	6.935	0.100
359.600	4.254	0.101
359.700	2.909	0.100
359.800	18.222	0.100
359.900	19.357	0.101
360.000	13.745	0.100
360.100	4.202	0.100
360.200	0.170	0.100
360.300	8.299	0.101
360.400	7.486	0.101
360.500	6.754	0.101
360.600	9.514	0.100
360.700	5.722	0.100
360.800	6.073	0.100
360.900	17.564	0.100
361.000	-0.426	0.100
361.100	-0.620	0.100
361.200	2.980	0.100
361.300	-3.016	0.100
361.400	23.535	0.100
361.500	20.524	0.100
361.600	1.290	0.100
361.700	9.474	0.100
361.800	15.622	0.100
361.900	-4.658	0.100
362.000	7.884	0.100
362.100	11.796	0.100
362.200	11.414	0.100
362.300	2.904	0.100
362.400	1.234	0.100
362.500	-2.176	0.100
362.600	11.900	0.100
362.700	11.711	0.100
362.800	17.686	0.100
362.900	7.312	0.100
363.000	-1.692	0.100
363.100	11.978	0.100
363.200	5.991	0.100
363.300	20.669	0.100
363.400	5.307	0.100
363.500	2.868	0.100
363.600	5.810	0.100
363.700	11.543	0.100
363.800	4.287	0.100
363.900	9.743	0.100
364.000	15.061	0.100
364.100	12.835	0.100
364.200	8.993	0.100
364.300	16.519	0.100
364.400	22.660	0.100
364.500	0.181	0.100
364.600	3.307	0.100
364.700	6.279	0.100
364.800	1.241	0.100
364.900	20.393	0.100
365.000	11.301	0.100
365.100	-0.776	0.100
365.200	10.989	0.100
365.300	16.829	0.100
365.400	7.771	0.100
365.500	5.964	0.100
365.600	22.359	0.100
365.700	-0.346	0.100
365.800	-10.449	0.100
365.900	16.382	0.100
366.000	15.964	0.100
366.100	18.233	0.100
366.200	20.896	0.101
366.300	-12.235	0.100
366.400	2.340	0.101
366.500	3.191	0.101
366.600	2.936	0.101
366.700	22.160	0.101
366.800	8.543	0.101
366.900	7.970	0.101
367.000	-3.152	0.101
367.100	10.615	0.101
367.200	0.093	0.101
367.300	6.742	0.101
367.400	17.878	0.101
367.500	4.672	0.101
367.600	14.461	0.101
367.700	16.527	0.101
367.800	14.692	0.101
367.900	13.738	0.101
368.000	12.494	0.101
368.100	17.832	0.101
368.200	-9.149	0.101
368.300	12.852	0.101
368.400	8.811	0.101
368.500	-4.434	0.101
368.600	7.018	0.101
368.700	3.804	0.101
368.800	24.894	0.101
368.900	6.822	0.101
369.000	16.231	0.101
369.100	18.872	0.101
369.200	-5.757	0.101
369.300	0.136	0.101
369.400	4.161	0.101
369.500	13.812	0.101
369.600	23.582	0.101
369.700	1.005	0.101
369.800	15.921	0.101
369.900	9.587	0.101
370.000	12.096	0.101
370.100	-11.351	0.101
370.200	18.611	0.101
370.300	17.529	0.101
370.400	1.418	0.101
370.500	4.658	0.101
370.600	7.295	0.101
370.700	1.930	0.101
370.800	9.086	0.101
370.900	12.589	0.101
371.000	-2.008	0.101
371.100	15.180	0.101
371.200	1.851	0.101
371.300	11.935	0.101
371.400	1.285	0.101
371.500	12.663	0.101
371.600	18.785	0.101
371.700	-8.595	0.101
371.800	15.935	0.101
371.900	3.696	0.101
372.000	10.808	0.101
372.100	4.875	0.101
372.200	5.733	0.101
372.300	7.774	0.101
372.400	11.554	0.101
372.500	0.593	0.101
372.600	-0.966	0.101
372.700	15.172	0.101
372.800	5.377	0.101
372.900	11.312	0.101
373.000	-14.006	0.101
373.100	2.578	0.101
373.200	20.874	0.101
373.300	16.321	0.101
373.400	16.407	0.101
373.500	-3.901	0.101
373.600	13.338	0.101
373.700	-0.803	0.101
373.800	2.482	0.101
373.900	17.345	0.101
374.000	4.437	0.101
374.100	0.537	0.101
374.200	-2.942	0.101
374.300	1.110	0.101
374.400	-2.950	0.101
374.500	15.381	0.101
374.600	26.925	0.101
374.700	11.620	0.101
374.800	7.443	0.101
374.900	12.989	0.101
375.000	10.354	0.101
375.100	-0.926	0.101
375.200	31.113	0.101
375.300	8.008	0.101
375.400	-6.198	0.101
375.500	-6.790	0.101
375.600	1.868	0.101
375.700	15.840	0.101
375.800	12.294	0.101
375.900	-3.328	0.101
376.000	13.238	0.101
376.100	12.028	0.101
376.200	11.814	0.101
376.300	2.769	0.101
376.400	-3.479	0.101
376.500	21.110	0.101
376.600	2.115	0.101
376.700	7.988	0.101
376.800	26.325	0.101
376.900	9.711	0.101
377.000	4.919	0.101
377.100	4.049	0.101
377.200	-6.966	0.101
377.300	7.949	0.101
377.400	10.102	0.101
377.500	24.871	0.101
377.600	5.970	0.101
377.700	11.607	0.101
377.800	12.499	0.101
377.900	10.054	0.101
378.000	2.308	0.101
378.100	14.182	0.101
378.200	12.714	0.101
378.300	6.848	0.101
378.400	12.841	0.101
378.500	16.944	0.101
378.600	0.027	0.101
378.700	12.567	0.101
378.800	5.298	0.101
378.900	12.229	0.101
379.000	7.418	0.101
379.100	23.554	0.101
379.200	8.158	0.101
379.300	11.486	0.101
379.400	19.541	0.101
379.500	10.949	0.101
379.600	-10.930	0.101
379.700	9.938	0.101
379.800	11.802	0.101
379.900	12.405	0.101
380.000	15.661	0.101
380.100	12.390	0.101
380.200	6.532	0.101
380.300	-0.257	0.101
380.400	10.213	0.101
380.500	26.323	0.101
380.600	13.820	0.101
380.700	11.142	0.101
380.800	5.601	0.101
380.900	10.464	0.101
381.000	3.690	0.101
381.100	12.952	0.101
381.200	10.905	0.101
381.300	8.219	0.101
381.400	17.277	0.101
381.500	5.730	0.101
381.600	-0.049	0.101
381.700	8.807	0.101
381.800	14.434	0.101
381.900	21.212	0.101
382.000	27.553	0.101
382.100	13.364	0.101
382.200	-1.782	0.101
382.300	7.234	0.101
382.400	8.792	0.101
382.500	8.790	0.101
382.600	-7.031	0.101
382.700	7.854	0.101
382.800	14.561	0.101
382.900	10.895	0.101
383.000	-2.743	0.101
383.100	7.350	0.101
383.200	9.592	0.101
383.300	15.018	0.101
383.400	7.253	0.101
383.500	16.964	0.101
383.600	-1.176	0.101
383.700	1.579	0.101
383.800	20.130	0.101
383.900	18.532	0.101
384.000	17.912	0.101
384.100	9.460	0.101
384.200	4.959	0.101
384.300	1.904	0.101
384.400	3.531	0.101
384.500	19.329	0.101
384.600	13.909	0.101
384.700	13.675	0.101
384.800	13.945	0.101
384.900	20.061	0.101
385.000	12.704	0.101
385.100	5.900	0.101
385.200	20.326	0.101
385.300	10.731	0.101
385.400	12.750	0.101
385.500	19.703	0.101
385.600	6.438	0.101
385.700	8.369	0.101
385.800	22.746	0.101
385.900	2.079	0.101
386.000	12.208	0.101
386.100	1.212	0.101
386.200	20.091	0.101
386.300	-4.085	0.101
386.400	0.331	0.101
386.500	10.999	0.101
386.600	9.995	0.101
386.700	23.503	0.101
386.800	25.873	0.101
386.900	13.376	0.101
387.000	14.241	0.101
387.100	3.933	0.101
387.200	19.858	0.101
387.300	17.261	0.101
387.400	-8.347	0.101
387.500	1.916	0.101
387.600	20.346	0.101
387.700	6.251	0.101
387.800	6.782	0.101
387.900	3.602	0.101
388.000	8.820	0.101
388.100	17.300	0.101
388.200	6.191	0.101
388.300	7.616	0.101
388.400	2.492	0.101
388.500	12.811	0.101
388.600	15.148	0.101
388.700	13.527	0.101
388.800	16.243	0.101
388.900	5.780	0.101
389.000	15.643	0.101
389.100	3.927	0.101
389.200	27.665	0.101
389.300	1.024	0.101
389.400	10.794	0.101
389.500	9.484	0.101
389.600	7.347	0.101
389.700	11.131	0.101
389.800	6.738	0.101
389.900	10.616	0.101
390.000	3.160	0.101
390.100	23.886	0.101
390.200	6.011	0.101
390.300	13.752	0.101
390.400	-0.403	0.101
390.500	-3.268	0.101
390.600	8.695	0.101
390.700	11.775	0.101
390.800	-6.311	0.101
390.900	14.643	0.101
391.000	20.293	0.101
391.100	3.064	0.101
391.200	-6.972	0.101
391.300	6.975	0.101
391.400	-7.196	0.101
391.500	-15.726	0.101
391.600	-4.816	0.101
391.700	-6.173	0.101
391.800	-9.789	0.101
391.900	7.982	0.101
392.000	5.630	0.101
392.100	-6.531	0.101
392.200	0.517	0.101
392.300	-4.409	0.101
392.400	-4.958	0.101
392.500	-8.527	0.101
392.600	15.276	0.101
392.700	3.844	0.101
392.800	-2.449	0.101
392.900	-0.864	0.101
393.000	0.131	0.101
393.100	-16.991	0.101
393.200	-0.336	0.101
393.300	6.866	0.101
393.400	-8.684	0.101
393.500	2.311	0.101
393.600	-9.919	0.101
393.700	-2.065	0.101
393.800	-19.643	0.101
393.900	-12.321	0.101
394.000	-2.930	0.101
394.100	-14.822	0.101
394.200	-7.745	0.101
394.300	-4.556	0.101
394.400	-0.956	0.101
394.500	1.075	0.101
394.600	-5.226	0.101
394.700	-13.298	0.101
394.800	9.573	0.101
394.900	-6.964	0.101
395.000	-8.890	0.101
395.100	-7.987	0.101
395.200	-8.038	0.101
395.300	2.792	0.101
395.400	-3.083	0.101
395.500	-9.435	0.101
395.600	-15.730	0.101
395.700	-5.595	0.101
395.800	-18.607	0.101
395.900	-7.320	0.101
396.000	-2.547	0.101
396.100	-5.244	0.101
396.200	-12.945	0.101
396.300	-19.326	0.101
396.400	-8.307	0.101
396.500	-11.116	0.101
396.600	11.536	0.101
396.700	-4.705	0.101
396.800	-4.983	0.101
396.900	-22.769	0.101
397.000	12.021	0.101
397.100	0.423	0.101
397.200	-10.219	0.101
397.300	-22.353	0.101
397.400	-10.109	0.101
397.500	-14.859	0.101
397.600	-1.732	0.101
397.700	9.567	0.101
397.800	-1.658	0.101
397.900	-5.336	0.101
398.000	8.566	0.101
398.100	2.794	0.101
398.200	-6.832	0.101
398.300	0.967	0.101
398.400	-0.657	0.101
398.500	-0.228	0.101
398.600	-4.412	0.101
398.700	-6.112	0.101
398.800	2.439	0.101
398.900	-7.821	0.101
399.000	-6.539	0.101
399.100	6.547	0.101
399.200	-6.897	0.101
399.300	-5.518	0.101
399.400	-11.386	0.101
399.500	3.453	0.101
399.600	2.924	0.101
399.700	2.070	0.101
399.800	2.757	0.101
399.900	-23.746	0.101
400.000	-6.906	0.101
400.100	11.254	0.101
400.200	3.868	0.101
400.300	2.339	0.101
400.400	-14.205	0.101
400.500	-12.103	0.101
400.600	5.648	0.101
400.700	-12.280	0.101
400.800	4.778	0.101
400.900	-13.377	0.101
401.000	-10.041	0.101
401.100	-7.467	0.101
401.200	-10.322	0.101
401.300	-0.135	0.101
401.400	4.434	0.101
401.500	-2.059	0.101
401.600	-4.587	0.101
401.700	-6.164	0.101
401.800	-10.296	0.101
401.900	1.018	0.101
402.000	13.860	0.101
402.100	-4.127	0.101
402.200	-3.572	0.101
402.300	-4.001	0.101
402.400	-11.026	0.101
402.500	-5.691	0.101
402.600	4.414	0.101
402.700	-7.816	0.101
402.800	-13.748	0.101
402.900	-3.717	0.101
403.000	-6.880	0.101
403.100	-2.241	0.101
403.200	-7.313	0.101
403.300	1.762	0.101
403.400	1.930	0.101
403.500	-2.192	0.101
403.600	9.856	0.101
403.700	8.196	0.101
403.800	-6.161	0.101
403.900	-19.395	0.101
404.000	-26.090	0.101
404.100	-0.415	0.101
404.200	-1.704	0.101
404.300	11.492	0.101
404.400	2.565	0.101
404.500	2.339	0.101
404.600	-1.948	0.101
404.700	-7.040	0.101
404.800	-4.519	0.101
404.900	6.181	0.101
405.000	-7.933	0.101
405.100	-2.799	0.101
405.200	-2.654	0.101
405.300	-9.144	0.101
405.400	-4.125	0.101
405.500	-1.027	0.101
405.600	-9.308	0.101
405.700	-4.489	0.101
405.800	-0.031	0.101
405.900	-6.389	0.101
406.000	2.639	0.101
406.100	0.548	0.101
406.200	-2.368	0.101
406.300	1.283	0.101
406.400	-0.910	0.101
406.500	3.061	0.101
406.600	6.971	0.101
406.700	-7.246	0.101
406.800	-10.193	0.101
406.900	-6.792	0.101
407.000	-10.891	0.101
407.100	4.045	0.101
407.200	0.011	0.101
407.300	-20.367	0.101
407.400	-5.658	0.101
407.500	8.358	0.101
407.600	-4.800	0.101
407.700	1.148	0.101
407.800	-1.396	0.101
407.900	-9.503	0.101
408.000	-8.890	0.101
408.100	-13.377	0.101
408.200	-13.795	0.101
408.300	-9.321	0.101
408.400	0.380	0.101
408.500	-6.110	0.101
408.600	-1.356	0.101
408.700	-13.009	0.101
408.800	-15.644	0.101
408.900	-4.936	0.101
409.000	-6.994	0.101
409.100	3.197	0.101
409.200	-5.122	0.101
409.300	2.986	0.101
409.400	-1.413	0.101
409.500	-10.343	0.101
409.600	-0.954	0.101
409.700	-6.922	0.101
409.800	-10.499	0.101
409.900	-8.935	0.101
410.000	4.494	0.101
410.100	-7.018	0.101
410.200	-0.509	0.101
410.300	-0.462	0.101
410.400	-15.941	0.101
410.500	1.167	0.101
410.600	-10.180	0.101
410.700	-8.470	0.101
410.800	1.572	0.101
410.900	-11.298	0.101
411.000	-3.311	0.101
411.100	-4.456	0.101
411.200	-4.787	0.101
411.300	-6.962	0.101
411.400	2.598	0.101
411.500	-13.163	0.101
411.600	-15.275	0.101
411.700	-9.375	0.101
411.800	-1.683	0.101
411.900	9.756	0.101
412.000	0.023	0.101
412.100	-4.585	0.101
412.200	-8.924	0.101
412.300	0.973	0.101
412.400	-0.435	0.101
412.500	-6.983	0.101
412.600	-7.637	0.101
412.700	-10.844	0.101
412.800	7.900	0.101
412.900	-3.652	0.101
413.000	-12.776	0.101
413.100	-12.652	0.101
413.200	-8.080	0.101
413.300	1.465	0.101
413.400	-6.300	0.101
413.500	-0.904	0.101
413.600	-9.334	0.101
413.700	-8.127	0.101
413.800	11.911	0.101
413.900	-5.759	0.101
414.000	-19.100	0.101
414.100	9.788	0.101
414.200	-5.539	0.101
414.300	-2.781	0.101
414.400	-2.839	0.101
414.500	-5.369	0.101
414.600	-6.814	0.101
414.700	2.188	0.101
414.800	-14.688	0.101
414.900	-6.866	0.101
415.000	-15.625	0.101
415.100	-2.475	0.101
415.200	-8.628	0.101
415.300	-5.820	0.101
415.400	6.858	0.101
415.500	5.873	0.101
415.600	5.766	0.101
415.700	-14.923	0.101
415.800	-8.326	0.101
415.900	-15.782	0.101
416.000	-2.748	0.101
416.100	11.526	0.101
416.200	-22.401	0.101
416.300	-12.625	0.101
416.400	-2.903	0.101
416.500	-2.035	0.101
416.600	-2.954	0.101
416.700	-5.239	0.101
416.800	-10.321	0.101
416.900	-7.173	0.101
417.000	-4.162	0.101
417.100	-6.749	0.101
417.200	3.129	0.101
417.300	-8.161	0.101
417.400	5.999	0.101
417.500	-5.692	0.101
417.600	-4.119	0.101
417.700	-0.573	0.101
417.800	-2.495	0.101
417.900	-11.555	0.101
418.000	-19.570	0.101
418.100	-20.955	0.101
418.200	0.218	0.101
418.300	-4.471	0.101
418.400	-0.796	0.101
418.500	4.752	0.101
418.600	-3.909	0.101
418.700	-10.383	0.101
418.800	-3.351	0.101
418.900	-2.302	0.101
419.000	-0.158	0.101
419.100	-8.065	0.101
419.200	-18.366	0.101
419.300	-4.605	0.101
419.400	-10.557	0.101
419.500	4.913	0.101
419.600	4.191	0.101
419.700	-13.239	0.101
419.800	-10.016	0.101
419.900	0.329	0.101
420.000	-2.360	0.101
420.100	3.771	0.101
420.200	-7.535	0.101
420.300	-16.693	0.101
420.400	-14.193	0.101
420.500	-11.811	0.101
420.600	2.821	0.101
420.700	-9.468	0.101
420.800	-3.087	0.101
420.900	-5.653	0.101
421.000	-6.943	0.101
421.100	-8.560	0.101
421.200	-0.020	0.101
421.300	-0.551	0.101
421.400	-4.962	0.101
421.500	1.938	0.101
421.600	-5.710	0.101
421.700	-13.768	0.101
421.800	-15.949	0.101
421.900	-13.673	0.101
422.000	-6.849	0.101
422.100	-2.994	0.101
422.200	-3.084	0.101
422.300	-2.537	0.101
422.400	-14.690	0.101
422.500	-1.976	0.101
422.600	2.626	0.101
422.700	-11.094	0.101
422.800	-24.181	0.101
422.900	4.854	0.101
423.000	-4.280	0.101
423.100	-0.231	0.101
423.200	-10.738	0.101
423.300	-0.859	0.101
423.400	-6.934	0.101
423.500	-1.444	0.101
423.600	-0.602	0.101
423.700	-5.362	0.101
423.800	-16.364	0.101
423.900	-12.757	0.101
424.000	-6.376	0.101
424.100	-3.924	0.101
424.200	-13.082	0.101
424.300	4.733	0.101
424.400	-7.542	0.101
424.500	-5.256	0.101
424.600	-18.622	0.101
424.700	-12.267	0.101
424.800	-12.760	0.101
424.900	-8.990	0.101
425.000	-6.062	0.101
425.100	-9.078	0.101
425.200	-3.955	0.101
425.300	-16.619	0.101
425.400	-19.203	0.101
425.500	18.319	0.101
425.600	-8.746	0.101
425.700	0.793	0.101
425.800	-6.952	0.101
425.900	-7.205	0.101
426.000	1.640	0.101
426.100	-10.708	0.101
426.200	1.599	0.101
426.300	-10.333	0.101
426.400	-8.176	0.101
426.500	5.769	0.101
426.600	-6.716	0.101
426.700	-4.091	0.101
426.800	-0.011	0.101
426.900	-12.098	0.101
427.000	-3.832	0.101
427.100	-9.908	0.101
427.200	-2.816	0.101
427.300	-1.996	0.101
427.400	6.316	0.101
427.500	-4.209	0.101
427.600	-6.447	0.101
427.700	-3.069	0.101
427.800	-4.390	0.101
427.900	-24.642	0.101
428.000	-4.195	0.101
428.100	9.874	0.101
428.200	-7.834	0.101
428.300	-6.263	0.101
428.400	-14.039	0.101
428.500	-9.832	0.101
428.600	-6.551	0.101
428.700	2.368	0.101
428.800	-12.469	0.101
428.900	-4.811	0.101
429.000	-2.026	0.101
429.100	-5.824	0.101
429.200	-7.559	0.101
429.300	-5.564	0.101
429.400	-3.246	0.101
429.500	0.386	0.101
429.600	-4.356	0.101
429.700	-12.462	0.101
429.800	-5.441	0.101
429.900	-6.241	0.101
430.000	-2.145	0.101
430.100	3.994	0.101
430.200	-8.993	0.101
430.300	-14.539	0.101
430.400	-14.926	0.101
430.500	-8.196	0.101
430.600	-14.317	0.101
430.700	8.849	0.101
430.800	5.222	0.101
430.900	-0.773	0.101
431.000	-17.977	0.101
431.100	-14.077	0.101
431.200	2.286	0.101
431.300	-0.465	0.101
431.400	-9.147	0.101
431.500	1.327	0.101
431.600	-8.234	0.101
431.700	8.076	0.101
431.800	-17.966	0.101
431.900	-12.152	0.101
432.000	-2.021	0.101
432.100	-6.478	0.101
432.200	-11.580	0.101
432.300	-6.406	0.101
432.400	-1.206	0.101
432.500	-5.127	0.101
432.600	-7.194	0.101
432.700	-0.760	0.101
432.800	-0.072	0.101
432.900	-13.959	0.101
433.000	-10.738	0.101
433.100	-0.443	0.101
433.200	12.307	0.101
433.300	-3.945	0.101
433.400	-4.618	0.101
433.500	-4.257	0.101
433.600	3.180	0.101
433.700	-9.617	0.101
433.800	-1.575	0.101
433.900	-6.021	0.101
434.000	5.199	0.101
434.100	-0.697	0.101
434.200	-12.291	0.101
434.300	-16.610	0.101
434.400	-6.869	0.101
434.500	1.570	0.101
434.600	-4.694	0.101
434.700	-5.842	0.101
434.800	-2.986	0.101
434.900	-12.472	0.101
435.000	-11.340	0.101
435.100	-0.170	0.101
435.200	-10.960	0.101
435.300	4.040	0.101
435.400	-3.508	0.101
435.500	-5.963	0.101
435.600	-18.404	0.101
435.700	-9.043	0.101
435.800	-9.284	0.101
435.900	-11.009	0.101
436.000	-25.349	0.101
436.100	10.468	0.101
436.200	-4.487	0.101
436.300	-3.201	0.101
436.400	-7.163	0.101
436.500	-16.463	0.101
436.600	-8.513	0.101
436.700	-6.364	0.101
436.800	-13.728	0.101
436.900	-7.940	0.101
437.000	1.560	0.101
437.100	1.875	0.101
437.200	-1.170	0.101
437.300	-1.498	0.101
437.400	-2.197	0.101
437.500	1.587	0.101
437.600	-16.183	0.101
437.700	-17.505	0.101
437.800	1.201	0.101
437.900	-0.716	0.101
438.000	-1.170	0.101
438.100	-1.382	0.101
438.200	-5.462	0.101
438.300	-1.481	0.101
438.400	-8.845	0.101
438.500	-0.565	0.101
438.600	4.121	0.101
438.700	-7.680	0.101
438.800	-3.963	0.101
438.900	3.380	0.101
439.000	-7.194	0.101
439.100	-8.927	0.101
439.200	-11.528	0.101
439.300	-5.264	0.101
439.400	-3.572	0.101
439.500	-0.559	0.101
439.600	-4.895	0.101
439.700	-12.720	0.101
439.800	-4.072	0.101
439.900	-1.903	0.101
440.000	-5.357	0.101
440.100	-3.847	0.101
440.200	-0.366	0.101
440.300	-15.544	0.101
440.400	7.941	0.101
440.500	-10.583	0.101
440.600	-1.176	0.101
440.700	-11.360	0.101
440.800	-6.030	0.101
440.900	-4.117	0.101
441.000	-8.940	0.101
441.100	-3.344	0.101
441.200	-14.277	0.101
441.300	-4.810	0.101
441.400	6.413	0.101
441.500	-5.987	0.101
441.600	-4.568	0.101
441.700	-6.484	0.101
441.800	-0.426	0.101
441.900	-6.589	0.101
442.000	-5.341	0.101
442.100	-17.209	0.101
442.200	-10.835	0.101
442.300	4.175	0.101
442.400	-0.596	0.101
442.500	-13.426	0.101
442.600	10.344	0.101
442.700	-15.722	0.101
442.800	-7.099	0.101
442.900	-3.038	0.101
443.000	-15.210	0.101
443.100	-9.037	0.101
443.200	-13.467	0.101
443.300	-5.243	0.101
443.400	-10.040	0.101
443.500	-13.209	0.101
443.600	4.530	0.101
443.700	-6.755	0.101
443.800	-1.406	0.101
443.900	8.044	0.101
444.000	-13.925	0.101
444.100	-7.657	0.101
444.200	-2.453	0.101
444.300	0.871	0.101
444.400	4.084	0.101
444.500	-2.750	0.101
444.600	-8.329	0.101
444.700	-3.307	0.101
444.800	-13.246	0.101
444.900	2.317	0.101
445.000	-11.081	0.101
445.100	-5.661	0.101
445.200	-6.069	0.101
445.300	-14.923	0.101
445.400	-13.679	0.101
445.500	-10.177	0.101
445.600	8.573	0.101
445.700	-18.913	0.101
445.800	-18.631	0.101
445.900	-0.875	0.101
446.000	-4.974	0.101
446.100	-12.657	0.101
446.200	-11.451	0.101
446.300	6.575	0.101
446.400	-6.033	0.101
446.500	5.304	0.101
446.600	-2.613	0.101
446.700	-8.005	0.101
446.800	-21.919	0.101
446.900	-9.946	0.101
447.000	-12.219	0.101
447.100	-9.858	0.101
447.200	4.060	0.101
447.300	-13.632	0.101
447.400	-5.053	0.101
447.500	0.270	0.101
447.600	-11.579	0.101
447.700	-8.382	0.101
447.800	-1.115	0.101
447.900	-0.497	0.101
448.000	-1.103	0.101
448.100	-4.211	0.101
448.200	-14.204	0.101
448.300	-16.273	0.101
448.400	-3.219	0.101
448.500	5.899	0.101
448.600	-5.389	0.101
448.700	-6.014	0.101
448.800	-15.963	0.101
448.900	-14.307	0.101
449.000	-19.563	0.101
449.100	-11.949	0.101
449.200	-3.512	0.101
449.300	-5.880	0.101
449.400	-11.736	0.101
449.500	-8.941	0.101
449.600	-5.755	0.101
449.700	-16.407	0.101
449.800	5.328	0.101
449.900	-6.566	0.101
450.000	-4.028	0.101
450.100	-9.305	0.101
450.200	-6.783	0.101
450.300	-10.286	0.101
450.400	2.695	0.101
450.500	14.067	0.101
450.600	-7.429	0.101
450.700	-18.611	0.101
450.800	-8.868	0.101
450.900	-7.761	0.101
451.000	-4.285	0.101
451.100	-2.158	0.101
451.200	1.716	0.101
451.300	-5.953	0.101
451.400	-17.299	0.101
451.500	-1.843	0.101
451.600	-0.083	0.101
451.700	-19.733	0.101
451.800	-0.841	0.101
451.900	-2.418	0.101
452.000	8.000	0.101
452.100	1.670	0.101
452.200	-13.144	0.101
452.300	9.964	0.101
452.400	2.222	0.101
452.500	-1.209	0.101
452.600	-14.769	0.101
452.700	-5.348	0.101
452.800	-14.569	0.101
452.900	-10.149	0.101
453.000	-4.588	0.101
453.100	0.328	0.101
453.200	-14.261	0.101
453.300	-6.070	0.101
453.400	7.385	0.100
453.500	-19.393	0.101
453.600	13.060	0.100
453.700	0.510	0.101
453.800	-16.743	0.101
453.900	-6.149	0.101
454.000	-1.924	0.101
454.100	3.139	0.100
454.200	1.149	0.100
454.300	3.937	0.100
454.400	-5.402	0.101
454.500	-7.020	0.101
454.600	-0.559	0.101
454.700	-3.089	0.100
454.800	-4.032	0.100
454.900	-13.842	0.101
455.000	-1.091	0.100
455.100	-10.094	0.101
455.200	-15.042	0.101
455.300	-3.766	0.100
455.400	14.682	0.100
455.500	-9.348	0.100
455.600	-19.629	0.101
455.700	-3.478	0.100
455.800	-4.774	0.100
455.900	-4.242	0.100
456.000	-2.502	0.100
456.100	4.991	0.100
456.200	-6.938	0.100
456.300	-8.068	0.100
456.400	-4.406	0.100
456.500	2.380	0.100
456.600	-13.152	0.100
456.700	-18.304	0.100
456.800	-13.974	0.100
456.900	1.796	0.100
457.000	-12.701	0.100
457.100	-16.941	0.100
457.200	0.027	0.100
457.300	3.368	0.100
457.400	-2.095	0.100
457.500	-14.766	0.100
457.600	3.854	0.100
457.700	3.355	0.100
457.800	-12.843	0.100
457.900	-13.485	0.100
458.000	-6.632	0.100
458.100	-20.920	0.100
458.200	-7.813	0.100
458.300	-4.737	0.100
458.400	3.586	0.100
458.500	-15.356	0.100
458.600	-8.880	0.100
458.700	2.315	0.100
458.800	-9.649	0.100
458.900	-5.630	0.100
459.000	-10.888	0.100
459.100	-9.703	0.100
459.200	-11.985	0.100
459.300	-15.392	0.100
459.400	-0.708	0.100
459.500	-5.769	0.100
459.600	-6.183	0.100
459.700	-9.665	0.100
459.800	-7.350	0.100
459.900	-0.990	0.100
460.000	-12.047	0.100
460.100	-11.551	0.100
460.200	-13.802	0.100
460.300	2.193	0.100
460.400	-0.546	0.100
460.500	-0.123	0.100
460.600	6.688	0.100
460.700	-6.531	0.100
460.800	0.400	0.100
460.900	-0.618	0.100
461.000	-3.337	0.100
461.100	0.306	0.100
461.200	-17.919	0.100
461.300	-6.177	0.100
461.400	-9.768	0.100
461.500	-8.674	0.100
461.600	-3.389	0.100
461.700	-2.173	0.100
461.800	-8.176	0.100
461.900	1.740	0.100
462.000	-5.140	0.100
462.100	-22.839	0.100
462.200	-1.419	0.100
462.300	2.421	0.100
462.400	-2.923	0.100
462.500	-8.741	0.100
462.600	5.250	0.100
462.700	5.036	0.100
462.800	-4.768	0.100
462.900	-10.586	0.100
463.000	-5.029	0.100
463.100	7.426	0.100
463.200	-9.895	0.100
463.300	-6.848	0.100
463.400	-3.411	0.100
463.500	-3.053	0.100
463.600	-5.797	0.100
463.700	-7.538	0.100
463.800	2.557	0.100
463.900	-13.552	0.100
464.000	2.375	0.100
464.100	-9.129	0.100
464.200	-15.426	0.100
464.300	-0.807	0.100
464.400	-2.619	0.100
464.500	-6.281	0.100
464.600	-9.850	0.100
464.700	5.012	0.100
464.800	-14.635	0.100
464.900	-11.141	0.100
465.000	-13.435	0.100
465.100	-1.871	0.100
465.200	-1.462	0.100
465.300	-3.713	0.100
465.400	-9.942	0.100
465.500	-10.567	0.100
465.600	0.661	0.100
465.700	-10.920	0.101
465.800	-4.753	0.100
465.900	-12.570	0.100
466.000	4.385	0.100
466.100	3.506	0.100
466.200	4.259	0.101
466.300	-13.162	0.100
466.400	-6.459	0.100
466.500	-4.480	0.100
466.600	-0.927	0.101
466.700	-14.674	0.101
466.800	-4.185	0.101
466.900	0.589	0.101
467.000	-3.550	0.101
467.100	-5.220	0.101
467.200	-13.235	0.101
467.300	-6.080	0.101
467.400	-3.792	0.101
467.500	1.733	0.101
467.600	-4.226	0.101
467.700	1.183	0.101
467.800	-14.679	0.101
467.900	5.115	0.101
468.000	-14.076	0.101
468.100	-5.435	0.101
468.200	-5.494	0.101
468.300	-5.350	0.101
468.400	-8.905	0.101
468.500	-10.893	0.101
468.600	-3.439	0.101
468.700	6.741	0.101
468.800	-12.574	0.101
468.900	-7.520	0.101
469.000	-5.575	0.101
469.100	-5.415	0.101
469.200	-4.272	0.101
469.300	-8.252	0.101
469.400	-17.551	0.101
469.500	-4.685	0.101
469.600	-2.766	0.101
469.700	-0.880	0.101
469.800	-11.988	0.101
469.900	-8.965	0.101
470.000	-9.522	0.101
470.100	-7.846	0.101
470.200	-10.979	0.101
470.300	-0.518	0.101
470.400	1.888	0.101
470.500	-15.277	0.101
470.600	-1.948	0.101
470.700	3.546	0.101
470.800	-1.627	0.101
470.900	-1.913	0.101
471.000	-10.242	0.101
471.100	-15.942	0.101
471.200	-12.295	0.101
471.300	-12.619	0.101
471.400	-5.087	0.101
471.500	1.876	0.101
471.600	-11.282	0.101
471.700	-23.773	0.101
471.800	-12.869	0.101
471.900	-4.506	0.101
472.000	4.060	0.101
472.100	-6.061	0.101
472.200	-1.222	0.101
472.300	-7.994	0.101
472.400	-19.158	0.101
472.500	-5.112	0.101
472.600	-16.262	0.101
472.700	9.818	0.101
472.800	-3.309	0.101
472.900	-14.511	0.101
473.000	15.482	0.101
473.100	-24.424	0.101
473.200	6.305	0.101
473.300	-7.111	0.101
473.400	0.388	0.101
473.500	8.497	0.101
473.600	-1.873	0.101
473.700	-8.813	0.101
473.800	-10.103	0.101
473.900	-5.771	0.101
474.000	-5.035	0.101
474.100	-0.917	0.101
474.200	-12.429	0.101
474.300	10.194	0.101
474.400	-5.982	0.101
474.500	-7.703	0.101
474.600	-0.703	0.101
474.700	0.837	0.101
474.800	-12.235	0.101
474.900	-16.081	0.101
475.000	-9.056	0.101
475.100	7.421	0.101
475.200	-6.983	0.101
475.300	-4.606	0.101
475.400	-11.869	0.101
475.500	-5.537	0.101
475.600	1.041	0.101
475.700	-9.198	0.101
475.800	-16.767	0.101
475.900	-26.960	0.101
476.000	-1.425	0.101
476.100	-0.151	0.101
476.200	-4.051	0.101
476.300	11.170	0.101
476.400	-17.700	0.101
476.500	-3.319	0.101
476.600	-3.901	0.101
476.700	-5.178	0.101
476.800	-18.445	0.101
476.900	1.000	0.101
477.000	-21.415	0.101
477.100	-1.084	0.101
477.200	-0.087	0.101
477.300	-8.809	0.101
477.400	-6.585	0.101
477.500	-2.696	0.101
477.600	2.192	0.101
477.700	-2.001	0.101
477.800	-7.766	0.101
477.900	-11.116	0.101
478.000	-15.740	0.101
478.100	-3.213	0.101
478.200	-6.204	0.101
478.300	-1.081	0.101
478.400	17.192	0.101
478.500	-2.542	0.101
478.600	-0.321	0.101
478.700	-22.153	0.101
478.800	-0.468	0.101
478.900	9.844	0.101
479.000	-5.427	0.101
479.100	-12.512	0.101
479.200	-5.370	0.101
479.300	1.289	0.101
479.400	-9.878	0.101
479.500	-12.421	0.101
479.600	-12.512	0.101
479.700	-8.312	0.101
479.800	-2.523	0.101
479.900	-16.206	0.101
480.000	-0.004	0.101
480.100	-19.999	0.101
480.200	-11.428	0.101
480.300	-17.516	0.101
480.400	5.632	0.101
480.500	3.201	0.101
480.600	15.064	0.101
480.700	-7.096	0.101
480.800	9.759	0.101
480.900	-1.071	0.101
481.000	-1.785	0.101
481.100	4.638	0.101
481.200	0.245	0.101
481.300	-7.171	0.101
481.400	-7.111	0.101
481.500	8.696	0.101
481.600	8.689	0.101
481.700	6.073	0.101
481.800	3.494	0.101
481.900	0.839	0.101
482.000	8.881	0.101
482.100	15.047	0.101
482.200	-4.650	0.101
482.300	6.259	0.101
482.400	3.278	0.101
482.500	3.867	0.101
482.600	8.152	0.101
482.700	4.308	0.101
482.800	5.668	0.101
482.900	1.883	0.101
483.000	2.212	0.101
483.100	8.471	0.101
483.200	11.200	0.101
483.300	4.802	0.101
483.400	14.560	0.101
483.500	12.408	0.101
483.600	-2.955	0.101
483.700	-2.968	0.101
483.800	1.916	0.101
483.900	-2.307	0.101
484.000	7.123	0.101
484.100	3.509	0.101
484.200	1.596	0.101
484.300	4.405	0.101
484.400	9.015	0.101
484.500	0.995	0.101
484.600	-9.209	0.101
484.700	-1.590	0.101
484.800	-4.233	0.101
484.900	1.314	0.101
485.000	-11.376	0.101
485.100	9.829	0.101
485.200	5.134	0.101
485.300	5.145	0.101
485.400	13.836	0.101
485.500	7.334	0.101
485.600	-5.575	0.101
485.700	-0.983	0.101
485.800	-0.443	0.101
485.900	3.037	0.101
486.000	-5.411	0.101
486.100	-2.640	0.101
486.200	-2.311	0.101
486.300	0.563	0.101
486.400	13.602	0.101
486.500	-1.984	0.101
486.600	0.477	0.101
486.700	-1.058	0.101
486.800	-7.173	0.101
486.900	17.953	0.101
487.000	8.402	0.101
487.100	3.088	0.101
487.200	0.543	0.101
487.300	-0.244	0.101
487.400	19.384	0.101
487.500	1.147	0.101
487.600	3.914	0.101
487.700	1.988	0.101
487.800	8.375	0.101
487.900	7.081	0.101
488.000	2.370	0.101
488.100	-10.021	0.101
488.200	-1.124	0.101
488.300	16.450	0.101
488.400	9.529	0.101
488.500	-10.586	0.101
488.600	1.340	0.101
488.700	-0.068	0.101
488.800	1.480	0.101
488.900	-0.407	0.101
489.000	7.285	0.101
489.100	-9.189	0.101
489.200	2.960	0.101
489.300	7.323	0.101
489.400	4.738	0.101
489.500	-8.949	0.101
489.600	6.209	0.101
489.700	-2.510	0.101
489.800	-4.116	0.101
489.900	4.391	0.101
490.000	-2.977	0.101
490.100	-15.390	0.101
490.200	7.272	0.101
490.300	10.403	0.101
490.400	1.804	0.101
490.500	-4.151	0.101
490.600	-4.725	0.101
490.700	23.828	0.101
490.800	16.166	0.101
490.900	-6.011	0.101
491.000	-9.182	0.101
491.100	-12.416	0.101
491.200	3.620	0.101
491.300	6.233	0.101
491.400	14.580	0.101
491.500	0.316	0.101
491.600	3.899	0.101
491.700	7.484	0.101
491.800	-5.663	0.101
491.900	2.294	0.101
492.000	9.517	0.101
492.100	9.898	0.101
492.200	2.585	0.101
492.300	-5.625	0.101
492.400	11.536	0.101
492.500	3.854	0.101
492.600	8.052	0.101
492.700	14.449	0.101
492.800	15.423	0.101
492.900	8.222	0.101
493.000	4.831	0.101
493.100	-5.376	0.101
493.200	6.673	0.101
493.300	4.557	0.101
493.400	3.783	0.101
493.500	13.468	0.101
493.600	-8.892	0.101
493.700	6.555	0.101
493.800	1.320	0.101
493.900	-1.773	0.101
494.000	18.301	0.101
494.100	9.662	0.101
494.200	18.439	0.101
494.300	-9.306	0.101
494.400	8.478	0.101
494.500	12.289	0.101
494.600	6.080	0.101
494.700	3.758	0.101
494.800	15.864	0.101
494.900	11.458	0.101
495.000	-7.301	0.101
495.100	12.802	0.101
495.200	24.189	0.101
495.300	19.588	0.101
495.400	-4.255	0.101
495.500	17.566	0.101
495.600	21.588	0.101
495.700	3.799	0.101
495.800	5.977	0.101
495.900	10.019	0.101
496.000	11.100	0.101
496.100	-3.182	0.101
496.200	16.507	0.101
496.300	13.679	0.101
496.400	13.365	0.101
496.500	7.550	0.101
496.600	16.538	0.101
496.700	-5.440	0.101
496.800	13.956	0.101
496.900	0.955	0.101
497.000	11.961	0.101
497.100	7.981	0.101
497.200	1.537	0.101
497.300	1.483	0.101
497.400	14.706	0.101
497.500	10.408	0.101
497.600	5.700	0.101
497.700	15.494	0.101
497.800	19.400	0.101
497.900	-4.372	0.101
498.000	-0.610	0.101
498.100	0.977	0.101
498.200	3.122	0.101
498.300	7.122	0.101
498.400	19.193	0.101
498.500	9.913	0.101
498.600	-0.903	0.101
498.700	14.026	0.101
498.800	6.896	0.101
498.900	22.275	0.101
499.000	10.085	0.101
499.100	14.002	0.101
499.200	3.329	0.101
499.300	-6.059	0.101
499.400	11.311	0.101
499.500	9.892	0.101
499.600	11.173	0.101
499.700	16.200	0.101
499.800	-9.032	0.101
499.900	2.453	0.101
500.000	10.411	0.101
500.100	12.199	0.101
500.200	2.449	0.101
500.300	22.945	0.101
500.400	21.819	0.101
500.500	17.102	0.101
500.600	7.248	0.101
500.700	3.170	0.101
500.800	2.922	0.101
500.900	12.946	0.101
501.000	7.291	0.101
501.100	1.148	0.101
501.200	5.518	0.101
501.300	10.211	0.101
501.400	4.255	0.101
501.500	4.952	0.101
501.600	8.227	0.101
501.700	1.012	0.101
501.800	10.301	0.101
501.900	11.386	0.101
502.000	15.712	0.101
502.100	12.648	0.101
502.200	2.048	0.101
502.300	13.666	0.101
502.400	-9.975	0.101
502.500	16.057	0.101
502.600	2.721	0.101
502.700	5.669	0.101
502.800	5.986	0.101
502.900	14.372	0.101
503.000	18.877	0.101
503.100	0.609	0.101
503.200	11.136	0.101
503.300	7.887	0.101
503.400	-1.649	0.101
503.500	9.036	0.101
503.600	4.940	0.101
503.700	14.031	0.101
503.800	12.089	0.101
503.900	0.978	0.101
504.000	21.862	0.101
504.100	8.338	0.101
504.200	5.878	0.101
504.300	22.760	0.101
504.400	16.468	0.101
504.500	7.712	0.101
504.600	4.046	0.101
504.700	0.195	0.101
504.800	10.703	0.101
504.900	7.991	0.101
505.000	14.305	0.101
505.100	22.084	0.101
505.200	3.080	0.101
505.300	0.951	0.101
505.400	18.714	0.101
505.500	19.648	0.101
505.600	12.731	0.101
505.700	10.420	0.101
505.800	11.813	0.101
505.900	-2.775	0.101
506.000	8.315	0.101
506.100	21.332	0.101
506.200	22.237	0.101
506.300	23.619	0.101
506.400	-6.897	0.100
506.500	7.124	0.100
506.600	-2.847	0.100
506.700	20.289	0.100
506.800	29.261	0.100
506.900	-3.207	0.100
507.000	5.734	0.100
507.100	10.301	0.100
507.200	19.014	0.100
507.300	1.264	0.100
507.400	-8.007	0.100
507.500	4.094	0.100
507.600	8.854	0.100
507.700	12.570	0.100
507.800	18.500	0.100
507.900	7.197	0.100
508.000	-5.635	0.100
508.100	7.032	0.100
508.200	11.617	0.100
508.300	3.989	0.100
508.400	10.287	0.100
508.500	-2.910	0.100
508.600	8.074	0.100
508.700	7.643	0.100
508.800	7.520	0.100
508.900	14.204	0.100
509.000	2.546	0.100
509.100	14.879	0.100
509.200	2.695	0.100
509.300	0.846	0.100
509.400	3.096	0.100
509.500	-0.016	0.100
509.600	7.202	0.100
509.700	17.445	0.100
509.800	19.758	0.100
509.900	-2.675	0.100
510.000	3.507	0.100
510.100	3.983	0.100
510.200	4.888	0.100
510.300	-9.483	0.100
510.400	9.623	0.100
510.500	4.268	0.100
510.600	3.586	0.100
510.700	10.518	0.100
510.800	19.303	0.100
510.900	0.741	0.100
511.000	17.728	0.100
511.100	6.579	0.100
511.200	9.320	0.100
511.300	7.989	0.100
511.400	3.447	0.100
511.500	6.055	0.100
511.600	12.840	0.100
511.700	6.534	0.100
511.800	9.004	0.100
511.900	18.474	0.100
512.000	14.930	0.100
512.100	0.862	0.100
512.200	-1.619	0.100
512.300	30.365	0.100
512.400	11.338	0.100
512.500	15.709	0.100
512.600	5.536	0.100
512.700	17.273	0.100
512.800	-5.950	0.100
512.900	8.739	0.100
513.000	-0.312	0.100
513.100	17.458	0.100
513.200	15.146	0.100
513.300	0.551	0.100
513.400	2.096	0.100
513.500	1.044	0.100
513.600	7.435	0.100
513.700	18.750	0.100
513.800	1.461	0.100
513.900	20.612	0.100
514.000	23.025	0.100
514.100	4.562	0.100
514.200	8.862	0.100
514.300	20.500	0.100
514.400	3.576	0.100
514.500	2.033	0.100
514.600	-4.721	0.100
514.700	12.959	0.100
514.800	13.995	0.100
514.900	9.227	0.100
515.000	18.088	0.100
515.100	11.634	0.100
515.200	4.862	0.100
515.300	23.867	0.100
515.400	2.960	0.100
515.500	9.670	0.100
515.600	-7.721	0.100
515.700	12.029	0.100
515.800	2.327	0.100
515.900	4.259	0.100
516.000	15.675	0.100
516.100	4.567	0.100
516.200	3.751	0.100
516.300	15.504	0.100
516.400	-0.115	0.100
516.500	15.698	0.100
516.600	-5.137	0.100
516.700	7.274	0.100
516.800	15.285	0.100
516.900	19.474	0.100
517.000	10.956	0.100
517.100	13.502	0.100
517.200	6.005	0.100
517.300	3.313	0.100
517.400	4.854	0.100
517.500	-4.322	0.100
517.600	11.683	0.100
517.700	3.208	0.100
517.800	10.805	0.100
517.900	11.417	0.100
518.000	-0.585	0.100
518.100	9.399	0.100
518.200	-1.014	0.100
518.300	-0.786	0.100
518.400	-1.703	0.100
518.500	7.078	0.100
518.600	9.417	0.100
518.700	1.832	0.100
518.800	7.289	0.100
518.900	9.433	0.100
519.000	-2.500	0.100
519.100	10.855	0.100
519.200	13.539	0.100
519.300	8.974	0.100
519.400	13.726	0.100
519.500	3.686	0.100
519.600	10.778	0.100
519.700	16.978	0.100
519.800	-0.409	0.100
519.900	-0.127	0.100
520.000	2.416	0.100
520.100	1.553	0.100
520.200	11.398	0.100
520.300	17.089	0.100
520.400	10.213	0.100
520.500	9.984	0.100
520.600	12.697	0.100
520.700	8.231	0.100
520.800	0.075	0.100
520.900	13.678	0.100
521.000	0.319	0.100
521.100	18.523	0.100
521.200	8.085	0.100
521.300	6.551	0.100
521.400	1.464	0.100
521.500	-8.102	0.100
521.600	5.417	0.100
521.700	5.283	0.100
521.800	11.046	0.100
521.900	10.470	0.100
522.000	13.481	0.100
522.100	3.501	0.100
522.200	9.172	0.100
522.300	2.838	0.100
522.400	12.716	0.100
522.500	-5.025	0.100
522.600	17.888	0.100
522.700	20.063	0.100
522.800	17.888	0.100
522.900	11.135	0.100
523.000	18.328	0.100
523.100	-2.122	0.101
523.200	19.678	0.101
523.300	6.570	0.101
523.400	-6.679	0.101
523.500	8.198	0.101
523.600	13.834	0.101
523.700	11.861	0.101
523.800	11.451	0.101
523.900	4.239	0.101
524.000	20.491	0.101
524.100	1.781	0.101
524.200	5.275	0.101
524.300	16.090	0.101
524.400	3.669	0.101
524.500	22.316	0.101
524.600	5.737	0.101
524.700	1.513	0.101
524.800	14.780	0.101
524.900	11.230	0.101
525.000	25.101	0.101
525.100	7.039	0.101
525.200	14.135	0.101
525.300	3.466	0.101
525.400	11.941	0.101
525.500	9.350	0.101
525.600	12.659	0.101
525.700	9.862	0.101
525.800	-3.439	0.101
525.900	-0.794	0.101
526.000	21.933	0.101
526.100	18.442	0.101
526.200	5.040	0.101
526.300	-1.959	0.101
526.400	7.662	0.101
526.500	12.145	0.101
526.600	16.159	0.101
526.700	6.162	0.101
526.800	27.930	0.101
526.900	8.864	0.101
527.000	10.779	0.101
527.100	2.150	0.101
527.200	-9.325	0.101
527.300	14.727	0.101
527.400	26.584	0.101
527.500	2.722	0.101
527.600	9.634	0.101
527.700	1.797	0.101
527.800	15.367	0.101
527.900	7.514	0.101
528.000	9.345	0.101
528.100	5.697	0.101
528.200	-1.587	0.101
528.300	12.426	0.101
528.400	7.742	0.101
528.500	7.615	0.101
528.600	17.139	0.101
528.700	9.768	0.101
528.800	17.828	0.101
528.900	3.126	0.101
529.000	1.765	0.101
529.100	11.586	0.101
529.200	8.926	0.101
529.300	9.733	0.101
529.400	16.408	0.101
529.500	6.329	0.101
529.600	4.008	0.101
529.700	1.681	0.101
529.800	5.600	0.101
529.900	2.803	0.101
530.000	23.739	0.101
530.100	12.770	0.101
530.200	6.446	0.101
530.300	7.278	0.101
530.400	15.700	0.101
530.500	8.876	0.101
530.600	12.469	0.101
530.700	1.761	0.101
530.800	14.543	0.101
530.900	24.364	0.101
531.000	1.959	0.101
531.100	-1.432	0.101
531.200	8.082	0.101
531.300	3.599	0.101
531.400	19.733	0.101
531.500	6.121	0.101
531.600	8.850	0.101
531.700	15.057	0.101
531.800	7.949	0.101
531.900	4.784	0.101
532.000	14.275	0.101
532.100	2.490	0.101
532.200	-0.333	0.101
532.300	10.374	0.101
532.400	15.481	0.101
532.500	17.526	0.101
532.600	-7.458	0.101
532.700	19.638	0.101
532.800	5.464	0.101
532.900	11.654	0.101
533.000	8.379	0.101
533.100	7.738	0.101
533.200	6.027	0.101
533.300	-0.287	0.101
533.400	11.088	0.101
533.500	7.663	0.101
533.600	6.952	0.101
533.700	17.855	0.101
533.800	17.606	0.101
533.900	17.641	0.101
534.000	3.643	0.101
534.100	-3.459	0.101
534.200	14.583	0.101
534.300	11.463	0.101
534.400	19.950	0.101
534.500	2.244	0.101
534.600	2.845	0.101
534.700	5.707	0.101
534.800	20.480	0.101
534.900	22.065	0.101
535.000	13.060	0.101
535.100	18.566	0.101
535.200	15.537	0.101
535.300	11.795	0.101
535.400	-3.686	0.101
535.500	2.718	0.101
535.600	3.680	0.101
535.700	9.976	0.101
535.800	9.956	0.101
535.900	5.978	0.101
536.000	12.350	0.101
536.100	12.792	0.101
536.200	1.500	0.101
536.300	3.934	0.101
536.400	8.778	0.101
536.500	15.405	0.101
536.600	21.949	0.101
536.700	6.199	0.101
536.800	13.606	0.101
536.900	5.807	0.101
537.000	12.090	0.101
537.100	5.595	0.101
537.200	8.516	0.101
537.300	25.372	0.101
537.400	-1.092	0.101
537.500	13.740	0.101
537.600	-0.055	0.101
537.700	-1.606	0.101
537.800	5.169	0.101
537.900	-3.918	0.101
538.000	14.742	0.101
538.100	-5.924	0.101
538.200	13.438	0.101
538.300	22.860	0.101
538.400	8.123	0.101
538.500	6.022	0.101
538.600	8.253	0.101
538.700	13.568	0.101
538.800	-4.044	0.101
538.900	-5.198	0.101
539.000	7.321	0.101
539.100	19.402	0.101
539.200	3.054	0.101
539.300	9.529	0.101
539.400	9.637	0.101
539.500	-0.431	0.101
539.600	7.144	0.101
539.700	8.801	0.101
539.800	-2.976	0.101
539.900	12.972	0.101
540.000	17.077	0.101
540.100	10.373	0.101
540.200	7.552	0.101
540.300	10.810	0.101
540.400	17.049	0.101
540.500	14.545	0.101
540.600	-7.792	0.101
540.700	3.611	0.101
540.800	-0.809	0.101
540.900	5.520	0.101
541.000	2.071	0.101
541.100	6.679	0.101
541.200	-0.423	0.101
541.300	0.099	0.101
541.400	-4.615	0.101
541.500	-0.632	0.101
541.600	1.833	0.101
541.700	4.147	0.101
541.800	2.628	0.101
541.900	-10.191	0.101
542.000	7.084	0.101
542.100	-5.595	0.101
542.200	-5.614	0.101
542.300	-2.866	0.101
542.400	-10.940	0.101
542.500	-22.418	0.101
542.600	3.905	0.101
542.700	10.986	0.101
542.800	-13.959	0.101
542.900	-11.800	0.101
543.000	-6.781	0.101
543.100	5.380	0.101
543.200	-4.414	0.101
543.300	0.301	0.101
543.400	-8.023	0.101
543.500	-7.975	0.101
543.600	-5.781	0.101
543.700	5.705	0.101
543.800	-14.449	0.101
543.900	1.159	0.101
544.000	-2.938	0.101
544.100	-0.454	0.101
544.200	-10.037	0.101
544.300	-8.541	0.101
544.400	-5.717	0.101
544.500	-4.180	0.101
544.600	-1.577	0.101
544.700	-4.136	0.101
544.800	-2.438	0.101
544.900	-0.769	0.101
545.000	-0.998	0.101
545.100	-7.869	0.101
545.200	-8.792	0.101
545.300	-5.135	0.101
545.400	2.072	0.101
545.500	-11.415	0.101
545.600	1.401	0.101
545.700	-0.929	0.101
545.800	-20.582	0.101
545.900	0.280	0.101
546.000	-24.599	0.101
546.100	-2.069	0.101
546.200	8.785	0.101
546.300	-0.093	0.101
546.400	1.508	0.101
546.500	0.496	0.101
546.600	-8.043	0.101
546.700	7.357	0.101
546.800	-3.569	0.101
546.900	-2.006	0.101
547.000	-7.042	0.101
547.100	-10.336	0.101
547.200	-0.645	0.101
547.300	-6.350	0.101
547.400	7.051	0.101
547.500	-8.320	0.101
547.600	2.787	0.101
547.700	-12.349	0.101
547.800	-5.355	0.101
547.900	-2.249	0.101
548.000	-11.689	0.101
548.100	1.428	0.101
548.200	-13.149	0.101
548.300	-6.334	0.101
548.400	-0.439	0.101
548.500	-11.596	0.101
548.600	4.253	0.101
548.700	-0.966	0.101
548.800	0.792	0.101
548.900	-13.585	0.101
549.000	-0.049	0.101
549.100	-5.408	0.101
549.200	11.049	0.101
549.300	-0.717	0.101
549.400	-8.038	0.101
549.500	3.784	0.101
549.600	-5.304	0.101
549.700	-3.080	0.101
549.800	6.382	0.101
549.900	2.725	0.101
550.000	-18.967	0.101
550.100	-2.943	0.101
550.200	4.993	0.101
550.300	-5.477	0.101
550.400	-7.760	0.101
550.500	0.504	0.101
550.600	-2.284	0.101
550.700	-9.114	0.101
550.800	1.026	0.101
550.900	9.359	0.101
551.000	15.851	0.101
551.100	-6.107	0.101
551.200	-4.141	0.101
551.300	10.199	0.101
551.400	-0.308	0.101
551.500	-16.789	0.101
551.600	-6.391	0.101
551.700	-14.412	0.101
551.800	5.745	0.101
551.900	-6.403	0.101
552.000	-4.638	0.101
552.100	-13.537	0.101
552.200	-11.786	0.101
552.300	2.117	0.101
552.400	-6.085	0.101
552.500	-5.118	0.101
552.600	-11.295	0.101
552.700	12.377	0.101
552.800	-10.467	0.101
552.900	-7.737	0.101
553.000	0.267	0.101
553.100	4.918	0.101
553.200	2.049	0.101
553.300	10.372	0.101
553.400	-10.993	0.101
553.500	-3.316	0.101
553.600	4.651	0.101
553.700	-1.723	0.101
553.800	-5.978	0.101
553.900	-10.185	0.101
554.000	-2.726	0.101
554.100	-11.580	0.101
554.200	1.199	0.101
554.300	-2.010	0.101
554.400	-4.728	0.101
554.500	0.196	0.101
554.600	-8.290	0.101
554.700	-7.600	0.101
554.800	-13.934	0.101
554.900	-16.087	0.101
555.000	2.193	0.101
555.100	-5.222	0.101
555.200	2.651	0.101
555.300	-11.346	0.101
555.400	-10.032	0.101
555.500	8.164	0.101
555.600	-5.613	0.101
555.700	-11.552	0.101
555.800	0.557	0.101
555.900	-18.667	0.101
556.000	-11.433	0.101
556.100	6.228	0.101
556.200	-7.753	0.101
556.300	-26.601	0.101
556.400	5.360	0.101
556.500	-2.871	0.101
556.600	-8.173	0.101
556.700	15.628	0.101
556.800	-4.008	0.101
556.900	-4.577	0.101
557.000	-6.160	0.101
557.100	4.380	0.101
557.200	6.902	0.101
557.300	-6.157	0.101
557.400	-16.363	0.101
557.500	7.967	0.101
557.600	-10.948	0.101
557.700	-11.663	0.101
557.800	-4.949	0.101
557.900	-3.738	0.101
558.000	12.875	0.101
558.100	-16.834	0.101
558.200	-7.718	0.101
558.300	1.619	0.101
558.400	-3.915	0.101
558.500	2.585	0.101
558.600	-5.364	0.101
558.700	-19.803	0.101
558.800	5.762	0.101
558.900	-13.685	0.101
559.000	-3.096	0.101
559.100	-1.530	0.101
559.200	-0.310	0.101
559.300	-11.178	0.101
559.400	-10.832	0.101
559.500	2.071	0.101
559.600	-6.903	0.101
559.700	-6.233	0.101
559.800	-9.303	0.101
559.900	-12.841	0.101
560.000	-14.010	0.101
560.100	5.969	0.101
560.200	-8.674	0.101
560.300	-23.822	0.101
560.400	-5.807	0.101
560.500	6.527	0.101
560.600	-3.814	0.101
560.700	-9.552	0.101
560.800	-1.436	0.101
560.900	-9.491	0.101
561.000	-2.253	0.101
561.100	-5.240	0.101
561.200	-7.306	0.101
561.300	-7.681	0.101
561.400	10.476	0.101
561.500	1.569	0.101
561.600	-6.572	0.101
561.700	-1.427	0.101
561.800	-23.074	0.101
561.900	1.209	0.101
562.000	1.938	0.101
562.100	-8.317	0.101
562.200	-14.915	0.101
562.300	-14.340	0.101
562.400	-9.736	0.101
562.500	-5.279	0.101
562.600	-5.841	0.101
562.700	4.021	0.101
562.800	9.318	0.101
562.900	-6.156	0.101
563.000	8.009	0.101
563.100	-0.296	0.101
563.200	-18.259	0.101
563.300	-9.367	0.101
563.400	-2.313	0.101
563.500	2.954	0.101
563.600	2.698	0.101
563.700	-4.458	0.101
563.800	2.682	0.101
563.900	-7.995	0.101
564.000	-5.455	0.101
564.100	-9.602	0.101
564.200	0.347	0.101
564.300	-7.051	0.101
564.400	-11.852	0.101
564.500	1.979	0.101
564.600	-6.310	0.101
564.700	-6.898	0.101
564.800	-2.678	0.101
564.900	-2.853	0.101
565.000	-0.799	0.101
565.100	-11.325	0.101
565.200	-19.075	0.101
565.300	-17.899	0.101
565.400	1.584	0.101
565.500	6.794	0.101
565.600	6.035	0.101
565.700	-12.828	0.101
565.800	-0.514	0.101
565.900	-19.539	0.101
566.000	-8.049	0.101
566.100	1.632	0.101
566.200	-10.413	0.101
566.300	-11.160	0.101
566.400	-4.273	0.101
566.500	-15.799	0.101
566.600	-20.490	0.101
566.700	-2.677	0.101
566.800	5.486	0.101
566.900	-12.873	0.101
567.000	-0.501	0.101
567.100	4.449	0.101
567.200	-8.521	0.101
567.300	-10.478	0.101
567.400	9.212	0.101
567.500	-3.254	0.101
567.600	1.655	0.101
567.700	-6.751	0.101
567.800	-16.255	0.101
567.900	-3.754	0.101
568.000	-6.041	0.101
568.100	-9.300	0.101
568.200	-4.377	0.101
568.300	1.934	0.101
568.400	12.386	0.101
568.500	-15.998	0.101
568.600	-2.240	0.101
568.700	-7.706	0.101
568.800	-7.773	0.101
568.900	-19.099	0.101
569.000	-7.080	0.101
569.100	12.898	0.101
569.200	1.061	0.101
569.300	-7.385	0.101
569.400	-10.587	0.101
569.500	1.196	0.101
569.600	-7.976	0.101
569.700	12.920	0.101
569.800	-11.877	0.101
569.900	-9.482	0.101
570.000	-7.834	0.101
570.100	1.181	0.101
570.200	-9.497	0.101
570.300	-7.619	0.101
570.400	-21.491	0.101
570.500	-6.271	0.101
570.600	0.728	0.101
570.700	-4.291	0.101
570.800	-3.572	0.101
570.900	-18.254	0.101
571.000	-1.087	0.101
571.100	-14.892	0.101
571.200	4.818	0.101
571.300	-2.522	0.101
571.400	-7.635	0.101
571.500	-10.261	0.101
571.600	-11.772	0.101
571.700	1.560	0.101
571.800	-4.941	0.101
571.900	-3.403	0.101
572.000	-11.639	0.101
572.100	-7.071	0.101
572.200	-6.207	0.101
572.300	-6.557	0.101
572.400	-8.286	0.101
572.500	-17.978	0.101
572.600	-3.169	0.101
572.700	-3.042	0.101
572.800	-11.917	0.101
572.900	-7.838	0.101
573.000	-17.206	0.101
573.100	1.292	0.101
573.200	4.051	0.101
573.300	-18.689	0.101
573.400	10.107	0.101
573.500	-4.741	0.101
573.600	-12.594	0.101
573.700	-2.860	0.101
573.800	-2.932	0.101
573.900	-0.875	0.101
574.000	-2.278	0.101
574.100	-0.320	0.101
574.200	-14.406	0.101
574.300	-13.483	0.101
574.400	6.257	0.101
574.500	-10.845	0.101
574.600	-8.788	0.101
574.700	-7.567	0.101
574.800	-8.976	0.101
574.900	5.540	0.101
575.000	-15.295	0.101
575.100	-14.510	0.101
575.200	5.290	0.101
575.300	-7.036	0.101
575.400	-8.299	0.101
575.500	-16.061	0.101
575.600	-6.289	0.101
575.700	-11.166	0.101
575.800	-4.955	0.101
575.900	-12.085	0.101
576.000	-5.813	0.101
576.100	-8.184	0.101
576.200	-0.052	0.101
576.300	-12.193	0.101
576.400	-21.105	0.101
576.500	-11.741	0.101
576.600	5.970	0.101
576.700	8.912	0.101
576.800	-4.938	0.101
576.900	5.311	0.101
577.000	1.072	0.101
577.100	-14.381	0.101
577.200	2.445	0.101
577.300	-13.249	0.101
577.400	-4.042	0.101
577.500	-0.387	0.101
577.600	7.091	0.101
577.700	5.933	0.101
577.800	-5.762	0.101
577.900	-15.610	0.101
578.000	5.269	0.101
578.100	-6.747	0.101
578.200	-9.099	0.101
578.300	6.174	0.101
578.400	-4.195	0.101
578.500	-13.566	0.101
578.600	-12.021	0.101
578.700	1.234	0.101
578.800	-17.496	0.101
578.900	-4.634	0.101
579.000	3.785	0.101
579.100	-0.906	0.101
579.200	-1.835	0.101
579.300	-6.730	0.101
579.400	-15.514	0.101
579.500	-19.633	0.101
579.600	-4.464	0.101
579.700	-5.480	0.101
579.800	1.100	0.101
579.900	0.227	0.101
580.000	-17.436	0.101
580.100	5.703	0.101
580.200	4.825	0.101
580.300	-17.897	0.101
580.400	-9.841	0.101
580.500	-1.593	0.101
580.600	-6.982	0.101
580.700	-15.571	0.101
580.800	-13.297	0.101
580.900	-7.971	0.101
581.000	3.354	0.101
581.100	-16.404	0.101
581.200	-7.260	0.101
581.300	-17.450	0.101
581.400	10.119	0.101
581.500	-2.018	0.101
581.600	-9.789	0.101
581.700	-12.147	0.101
581.800	-2.675	0.101
581.900	-1.469	0.101
582.000	-2.210	0.101
582.100	-4.779	0.101
582.200	-10.298	0.101
582.300	-0.976	0.101
582.400	3.844	0.101
582.500	-4.719	0.101
582.600	-6.729	0.101
582.700	-0.507	0.101
582.800	-5.726	0.101
582.900	2.466	0.101
583.000	-14.722	0.101
583.100	-10.008	0.101
583.200	3.540	0.101
583.300	-12.358	0.101
583.400	-0.969	0.101
583.500	-12.748	0.101
583.600	-2.759	0.101
583.700	-11.239	0.101
583.800	-5.107	0.101
583.900	-9.619	0.101
584.000	-5.123	0.101
584.100	-12.172	0.101
584.200	-4.597	0.101
584.300	-5.815	0.101
584.400	7.813	0.101
584.500	1.083	0.101
584.600	-11.532	0.101
584.700	1.497	0.101
584.800	-7.818	0.101
584.900	-7.653	0.101
585.000	-0.635	0.101
585.100	-4.400	0.101
585.200	0.262	0.101
585.300	-15.766	0.101
585.400	-14.218	0.101
585.500	-2.945	0.101
585.600	-11.474	0.101
585.700	1.294	0.101
585.800	-6.605	0.101
585.900	-17.456	0.101
586.000	-9.727	0.101
586.100	-0.842	0.101
586.200	4.755	0.101
586.300	-8.418	0.101
586.400	3.982	0.101
586.500	-14.582	0.101
586.600	6.651	0.101
586.700	7.241	0.101
586.800	-25.629	0.101
586.900	-4.811	0.101
587.000	-12.070	0.101
587.100	-9.260	0.101
587.200	3.987	0.101
587.300	-5.501	0.101
587.400	2.136	0.101
587.500	-15.284	0.101
587.600	-5.300	0.101
587.700	-15.197	0.101
587.800	7.339	0.101
587.900	-12.842	0.101
588.000	-6.146	0.101
588.100	-8.156	0.101
588.200	4.538	0.101
588.300	6.869	0.101
588.400	-18.976	0.101
588.500	12.402	0.101
588.600	0.251	0.101
588.700	-2.146	0.101
588.800	-8.869	0.101
588.900	-9.168	0.101
589.000	0.163	0.101
589.100	-17.119	0.101
589.200	-15.171	0.101
589.300	-3.429	0.101
589.400	-0.841	0.101
589.500	-9.570	0.101
589.600	-21.937	0.101
589.700	-2.707	0.101
589.800	-0.997	0.101
589.900	-4.131	0.101
590.000	0.622	0.101
590.100	-19.250	0.101
590.200	-13.200	0.101
590.300	-9.045	0.101
590.400	9.901	0.101
590.500	-16.777	0.101
590.600	-3.013	0.101
590.700	-1.134	0.101
590.800	-12.608	0.101
590.900	-13.853	0.101
591.000	2.303	0.101
591.100	0.125	0.101
591.200	-5.591	0.101
591.300	0.992	0.101
591.400	-5.558	0.101
591.500	-9.567	0.101
591.600	-6.350	0.101
591.700	-10.727	0.101
591.800	-11.149	0.101
591.900	-7.553	0.101
592.000	-8.280	0.101
592.100	-14.067	0.101
592.200	-18.108	0.101
592.300	-14.442	0.101
592.400	-1.985	0.101
592.500	-3.640	0.101
592.600	-7.154	0.101
592.700	1.403	0.101
592.800	-5.227	0.101
592.900	-14.963	0.101
593.000	-18.019	0.101
593.100	7.649	0.101
593.200	2.581	0.101
593.300	-9.656	0.101
593.400	-14.862	0.101
593.500	0.656	0.101
593.600	-10.175	0.101
593.700	-5.772	0.101
593.800	-5.092	0.101
593.900	-0.472	0.101
594.000	-1.061	0.101
594.100	0.003	0.101
594.200	-12.262	0.101
594.300	-6.253	0.101
594.400	4.133	0.101
594.500	-3.143	0.101
594.600	-7.033	0.101
594.700	-16.366	0.101
594.800	-5.829	0.101
594.900	-9.168	0.101
595.000	-6.564	0.101
595.100	-10.998	0.101
595.200	-20.373	0.101
595.300	-9.737	0.101
595.400	-17.544	0.101
595.500	-4.086	0.101
595.600	-8.059	0.101
595.700	-5.269	0.101
595.800	-6.836	0.101
595.900	3.494	0.101
596.000	-2.407	0.101
596.100	-8.079	0.101
596.200	-3.538	0.101
596.300	-5.696	0.101
596.400	-23.524	0.101
596.500	-9.776	0.101
596.600	4.531	0.101
596.700	-10.348	0.101
596.800	-9.013	0.101
596.900	-3.200	0.101
597.000	-3.095	0.101
597.100	-12.988	0.101
597.200	-5.847	0.101
597.300	4.682	0.101
597.400	-5.852	0.101
597.500	-13.100	0.101
597.600	1.347	0.101
597.700	-10.979	0.101
597.800	-9.056	0.101
597.900	-3.863	0.101
598.000	1.127	0.101
598.100	-2.974	0.101
598.200	1.367	0.101
598.300	4.153	0.101
598.400	-14.468	0.101
598.500	-10.973	0.101
598.600	-5.350	0.101
598.700	-6.481	0.101
598.800	-10.903	0.101
598.900	-15.498	0.101
599.000	2.311	0.101
599.100	-5.730	0.101
599.200	4.260	0.101
599.300	-2.812	0.101
599.400	-27.977	0.101
599.500	0.416	0.101
599.600	-7.865	0.101
599.700	-12.839	0.101
599.800	-5.570	0.101
599.900	-4.325	0.101
600.000	0.014	0.101
600.100	5.089	0.101
600.200	1.619	0.101
600.300	-4.335	0.101
600.400	-10.130	0.101
600.500	5.304	0.101
600.600	-19.067	0.101
600.700	-29.089	0.101
600.800	2.417	0.101
600.900	-10.042	0.101
601.000	2.894	0.101
601.100	-16.685	0.101
601.200	2.114	0.101
601.300	-8.393	0.101
601.400	-5.556	0.101
601.500	3.251	0.101
601.600	-9.477	0.101
601.700	2.808	0.101
601.800	-15.213	0.101
601.900	-0.865	0.101
602.000	-17.796	0.101
602.100	-17.271	0.101
602.200	-9.155	0.101
602.300	0.992	0.101
602.400	7.911	0.101
602.500	-16.793	0.101
602.600	-10.617	0.101
602.700	5.898	0.101
602.800	-6.998	0.101
602.900	-13.946	0.101
603.000	-2.330	0.101
603.100	-12.074	0.101
603.200	9.534	0.101
603.300	-12.203	0.101
603.400	-3.217	0.101
603.500	-3.078	0.101
603.600	-9.935	0.101
603.700	0.399	0.101
603.800	3.378	0.101
603.900	-1.843	0.101
604.000	-6.090	0.101
604.100	-10.574	0.101
604.200	-9.311	0.101
604.300	-7.449	0.101
604.400	-8.099	0.101
604.500	-14.761	0.101
604.600	-5.703	0.101
604.700	-7.825	0.101
604.800	-15.960	0.101
604.900	1.720	0.101
605.000	0.528	0.101
605.100	-7.051	0.101
605.200	-16.002	0.101
605.300	-7.025	0.101
605.400	2.656	0.101
605.500	-9.843	0.101
605.600	9.148	0.101
605.700	-17.294	0.101
605.800	-10.747	0.101
605.900	-15.354	0.101
606.000	-8.281	0.101
606.100	-0.951	0.101
606.200	-10.217	0.101
606.300	-2.615	0.101
606.400	2.874	0.101
606.500	-14.045	0.101
606.600	-9.231	0.101
606.700	-8.111	0.101
606.800	-3.975	0.101
606.900	2.274	0.101
607.000	-9.945	0.101
607.100	8.638	0.101
607.200	-12.716	0.101
607.300	-5.642	0.101
607.400	-17.948	0.101
607.500	-12.867	0.101
607.600	-15.155	0.101
607.700	9.246	0.101
607.800	-9.445	0.101
607.900	-12.777	0.101
608.000	-1.154	0.101
608.100	5.251	0.101
608.200	-14.271	0.101
608.300	3.215	0.101
608.400	4.955	0.101
608.500	-4.139	0.101
608.600	1.447	0.101
608.700	-15.868	0.101
608.800	-6.199	0.101
608.900	-7.009	0.101
609.000	-3.279	0.101
609.100	4.322	0.101
609.200	-10.854	0.101
609.300	-17.610	0.101
609.400	2.132	0.101
609.500	-4.488	0.101
609.600	-9.159	0.101
609.700	-7.091	0.101
609.800	-21.061	0.101
609.900	-4.237	0.101
610.000	-2.964	0.101
610.100	-0.648	0.101
610.200	-20.300	0.101
610.300	-10.528	0.101
610.400	1.109	0.101
610.500	-2.836	0.101
610.600	-1.004	0.101
610.700	-0.812	0.101
610.800	-15.911	0.101
610.900	-15.096	0.101
611.000	-9.065	0.101
611.100	-5.371	0.101
611.200	-3.003	0.101
611.300	2.347	0.101
611.400	6.523	0.101
611.500	-17.650	0.101
611.600	-7.373	0.101
611.700	-7.384	0.101
611.800	-0.971	0.101
611.900	0.422	0.101
612.000	-12.984	0.101
612.100	-10.600	0.101
612.200	-10.946	0.101
612.300	-11.804	0.101
612.400	2.572	0.101
612.500	-9.383	0.101
612.600	-5.807	0.101
612.700	18.116	0.101
612.800	-2.803	0.101
612.900	-5.352	0.101
613.000	-8.489	0.101
613.100	-15.383	0.101
613.200	-9.465	0.101
613.300	0.464	0.101
613.400	-17.093	0.101
613.500	10.126	0.101
613.600	-8.364	0.101
613.700	-12.205	0.101
613.800	-19.017	0.101
613.900	-2.625	0.101
614.000	-4.689	0.101
614.100	-6.719	0.101
614.200	3.717	0.101
614.300	-14.620	0.101
614.400	-6.546	0.101
614.500	-8.154	0.101
614.600	-1.377	0.101
614.700	-4.516	0.101
614.800	1.086	0.101
614.900	-20.284	0.101
615.000	-15.847	0.101
615.100	-2.225	0.101
615.200	-4.921	0.101
615.300	2.102	0.101
615.400	-12.026	0.101
615.500	13.989	0.101
615.600	-3.428	0.101
615.700	-5.993	0.101
615.800	-4.790	0.101
615.900	-8.360	0.101
616.000	-9.526	0.101
616.100	-3.990	0.101
616.200	-2.031	0.101
616.300	16.540	0.101
616.400	-12.303	0.101
616.500	-5.662	0.101
616.600	-13.092	0.101
616.700	-1.583	0.101
616.800	-4.033	0.101
616.900	-2.831	0.101
617.000	-4.403	0.101
617.100	-4.777	0.101
617.200	-17.219	0.101
617.300	-0.739	0.101
617.400	-8.325	0.101
617.500	-6.038	0.101
617.600	-8.333	0.101
617.700	4.692	0.101
617.800	-4.403	0.101
617.900	-1.279	0.101
618.000	4.194	0.101
618.100	4.883	0.101
618.200	19.787	0.101
618.300	-22.705	0.101
618.400	-8.538	0.101
618.500	-10.353	0.101
618.600	-9.848	0.101
618.700	2.171	0.101
618.800	-4.084	0.101
618.900	-10.726	0.101
619.000	2.126	0.101
619.100	-12.080	0.101
619.200	-10.468	0.101
619.300	-6.976	0.101
619.400	-12.987	0.101
619.500	-21.989	0.101
619.600	-3.768	0.101
619.700	-17.275	0.101
619.800	-6.083	0.101
619.900	-8.864	0.101
620.000	-3.692	0.101
620.100	-0.468	0.101
620.200	8.718	0.101
620.300	-5.822	0.101
620.400	-20.105	0.101
620.500	2.915	0.101
620.600	-4.959	0.101
620.700	2.701	0.101
620.800	15.679	0.101
620.900	2.524	0.101
621.000	-15.429	0.101
621.100	-7.058	0.101
621.200	-11.226	0.101
621.300	-4.391	0.101
621.400	3.232	0.101
621.500	-1.013	0.101
621.600	-11.651	0.101
621.700	-4.398	0.101
621.800	-9.946	0.101
621.900	-7.716	0.101
622.000	-7.278	0.101
622.100	22.001	0.101
622.200	-6.115	0.101
622.300	-14.516	0.101
622.400	-11.038	0.101
622.500	7.733	0.101
622.600	-10.789	0.101
622.700	-22.429	0.101
622.800	-6.766	0.101
622.900	2.063	0.101
623.000	-5.465	0.101
623.100	-5.957	0.101
623.200	12.400	0.101
623.300	-18.880	0.101
623.400	-13.191	0.101
623.500	8.713	0.101
623.600	-1.213	0.101
623.700	-9.601	0.101
623.800	-12.241	0.101
623.900	1.870	0.101
624.000	7.074	0.101
624.100	5.581	0.101
624.200	4.086	0.101
624.300	-2.834	0.101
624.400	-8.960	0.101
624.500	-4.863	0.101
624.600	-18.072	0.101
624.700	-8.677	0.101
624.800	-13.641	0.101
624.900	-7.930	0.101
625.000	-5.479	0.101
625.100	-9.102	0.101
625.200	-2.278	0.101
625.300	-10.637	0.101
625.400	-5.446	0.101
625.500	-19.518	0.101
625.600	-2.248	0.101
625.700	7.143	0.101
625.800	-7.613	0.101
625.900	-16.361	0.101
626.000	-6.411	0.101
626.100	-3.656	0.101
626.200	-15.173	0.101
626.300	-7.163	0.101
626.400	-1.918	0.101
626.500	2.334	0.101
626.600	3.327	0.101
626.700	-14.315	0.101
626.800	2.898	0.101
626.900	-12.447	0.101
627.000	-8.200	0.101
627.100	-2.201	0.101
627.200	-16.296	0.101
627.300	4.237	0.101
627.400	11.426	0.101
627.500	-2.055	0.101
627.600	-8.269	0.101
627.700	-18.808	0.101
627.800	-12.859	0.101
627.900	1.495	0.101
628.000	-6.233	0.101
628.100	-12.728	0.101
628.200	-1.719	0.101
628.300	-7.281	0.101
628.400	-12.549	0.101
628.500	-5.161	0.101
628.600	-5.212	0.101
628.700	0.842	0.101
628.800	-3.304	0.101
628.900	-0.140	0.101
629.000	-9.136	0.101
629.100	-2.604	0.101
629.200	-8.570	0.101
629.300	1.582	0.101
629.400	-8.632	0.101
629.500	-12.729	0.101
629.600	-11.441	0.101
629.700	-6.729	0.101
629.800	4.034	0.101
629.900	-1.058	0.101
630.000	-3.172	0.101
630.100	2.880	0.101
630.200	0.478	0.101
630.300	0.204	0.101
630.400	-5.189	0.101
630.500	-3.212	0.101
630.600	10.893	0.101
630.700	-9.971	0.101
630.800	5.785	0.101
630.900	13.217	0.101
631.000	10.543	0.101
631.100	-0.929	0.101
631.200	-4.812	0.101
631.300	-9.478	0.101
631.400	1.026	0.101
631.500	5.879	0.101
631.600	-2.596	0.101
631.700	-6.146	0.101
631.800	-1.692	0.101
631.900	3.013	0.101
632.000	4.146	0.101
632.100	8.979	0.101
632.200	8.690	0.101
632.300	-2.950	0.101
632.400	13.524	0.101
632.500	-0.199	0.101
632.600	-1.703	0.101
632.700	19.418	0.101
632.800	2.992	0.101
632.900	-0.743	0.101
633.000	4.518	0.101
633.100	-1.177	0.101
633.200	-10.910	0.101
633.300	-5.700	0.101
633.400	5.501	0.101
633.500	-11.040	0.101
633.600	-8.240	0.101
633.700	7.309	0.101
633.800	17.419	0.101
633.900	-15.783	0.101
634.000	21.113	0.101
634.100	10.941	0.101
634.200	3.761	0.101
634.300	0.608	0.101
634.400	1.675	0.101
634.500	3.586	0.101
634.600	2.239	0.101
634.700	-7.665	0.101
634.800	7.601	0.101
634.900	-9.229	0.101
635.000	5.748	0.101
635.100	10.936	0.101
635.200	-3.065	0.101
635.300	3.795	0.101
635.400	9.263	0.101
635.500	5.155	0.101
635.600	-0.677	0.101
635.700	5.220	0.101
635.800	2.993	0.101
635.900	-6.960	0.101
636.000	5.268	0.101
636.100	-11.665	0.101
636.200	6.431	0.101
636.300	12.434	0.101
636.400	-10.601	0.101
636.500	13.447	0.101
636.600	5.726	0.101
636.700	-9.178	0.101
636.800	5.527	0.101
636.900	17.632	0.101
637.000	0.186	0.101
637.100	10.695	0.101
637.200	-0.965	0.101
637.300	-2.631	0.101
637.400	6.358	0.101
637.500	5.525	0.101
637.600	-0.211	0.101
637.700	-6.828	0.101
637.800	-0.741	0.101
637.900	2.084	0.101
638.000	-10.033	0.101
638.100	0.088	0.101
638.200	15.006	0.101
638.300	1.982	0.101
638.400	4.353	0.101
638.500	-5.962	0.101
638.600	4.644	0.101
638.700	-8.323	0.101
638.800	10.469	0.101
638.900	-2.068	0.101
639.000	-10.837	0.101
639.100	9.861	0.101
639.200	-6.392	0.101
639.300	19.132	0.101
639.400	4.638	0.101
639.500	-6.833	0.101
639.600	6.843	0.101
639.700	15.412	0.101
639.800	-14.875	0.101
639.900	14.344	0.101
640.000	12.282	0.101
640.100	-1.319	0.101
640.200	-15.713	0.101
640.300	15.591	0.101
640.400	0.494	0.101
640.500	-1.351	0.101
640.600	11.657	0.101
640.700	8.278	0.101
640.800	11.117	0.101
640.900	2.146	0.101
641.000	-1.994	0.101
641.100	16.890	0.101
641.200	5.664	0.101
641.300	20.369	0.101
641.400	-7.821	0.101
641.500	4.252	0.101
641.600	11.547	0.101
641.700	-3.430	0.101
641.800	2.468	0.101
641.900	-3.423	0.101
642.000	0.420	0.101
642.100	19.405	0.101
642.200	-7.978	0.101
642.300	11.459	0.101
642.400	8.857	0.101
642.500	6.918	0.101
642.600	3.634	0.101
642.700	-4.784	0.101
642.800	15.166	0.101
642.900	-2.512	0.101
643.000	9.608	0.101
643.100	6.430	0.101
643.200	-8.677	0.101
643.300	16.524	0.101
643.400	-4.447	0.101
643.500	-3.103	0.101
643.600	10.572	0.101
643.700	4.423	0.101
643.800	5.684	0.101
643.900	7.976	0.101
644.000	1.455	0.101
644.100	1.733	0.101
644.200	16.302	0.101
644.300	8.419	0.101
644.400	-0.184	0.101
644.500	10.316	0.101
644.600	10.845	0.101
644.700	4.943	0.101
644.800	4.157	0.101
644.900	2.217	0.101
645.000	-6.300	0.101
645.100	0.024	0.101
645.200	17.201	0.101
645.300	9.760	0.101
645.400	0.798	0.101
645.500	7.185	0.101
645.600	6.698	0.101
645.700	1.410	0.101
645.800	-4.547	0.101
645.900	16.482	0.101
646.000	-9.159	0.101
646.100	5.284	0.101
646.200	3.044	0.101
646.300	13.252	0.101
646.400	10.685	0.101
646.500	0.697	0.101
646.600	20.370	0.101
646.700	7.601	0.101
646.800	6.459	0.101
646.900	7.977	0.101
647.000	6.173	0.101
647.100	3.436	0.101
647.200	10.825	0.101
647.300	8.608	0.101
647.400	-6.319	0.101
647.500	16.374	0.101
647.600	3.473	0.101
647.700	13.675	0.101
647.800	19.870	0.101
647.900	-2.106	0.101
648.000	14.351	0.101
648.100	-1.940	0.101
648.200	7.176	0.101
648.300	3.360	0.101
648.400	15.937	0.101
648.500	9.732	0.101
648.600	12.354	0.101
648.700	-2.136	0.101
648.800	-1.367	0.101
648.900	18.249	0.101
649.000	7.010	0.101
649.100	15.333	0.101
649.200	1.870	0.101
649.300	24.761	0.101
649.400	0.743	0.101
649.500	23.489	0.101
649.600	17.971	0.101
649.700	0.036	0.101
649.800	16.436	0.101
649.900	4.193	0.101
650.000	11.998	0.101
650.100	4.426	0.101
650.200	0.698	0.101
650.300	12.413	0.101
650.400	9.936	0.101
650.500	13.831	0.101
650.600	-3.958	0.101
650.700	7.137	0.101
650.800	3.971	0.101
650.900	2.024	0.101
651.000	13.618	0.101
651.100	4.878	0.101
651.200	17.407	0.101
651.300	22.157	0.101
651.400	19.294	0.101
651.500	5.103	0.101
651.600	24.120	0.101
651.700	12.951	0.101
651.800	10.109	0.101
651.900	10.299	0.101
652.000	4.354	0.101
652.100	15.807	0.101
652.200	26.178	0.101
652.300	2.632	0.101
652.400	2.575	0.101
652.500	19.441	0.101
652.600	1.614	0.101
652.700	5.278	0.101
652.800	9.008	0.101
652.900	11.557	0.101
653.000	-0.471	0.101
653.100	14.069	0.101
653.200	17.165	0.101
653.300	12.745	0.101
653.400	7.818	0.101
653.500	5.035	0.101
653.600	8.662	0.101
653.700	2.075	0.101
653.800	11.629	0.101
653.900	-3.986	0.101
654.000	20.710	0.101
654.100	18.562	0.101
654.200	6.058	0.101
654.300	2.191	0.101
654.400	13.926	0.101
654.500	8.778	0.101
654.600	12.230	0.101
654.700	8.227	0.101
654.800	5.141	0.101
654.900	17.230	0.101
655.000	12.529	0.101
655.100	2.262	0.101
655.200	11.952	0.101
655.300	-0.363	0.101
655.400	3.193	0.101
655.500	21.808	0.101
655.600	17.559	0.101
655.700	21.280	0.101
655.800	-9.548	0.101
655.900	6.144	0.101
656.000	10.589	0.101
656.100	15.765	0.101
656.200	9.523	0.101
656.300	11.081	0.101
656.400	17.512	0.101
656.500	5.152	0.101
656.600	11.192	0.101
656.700	-0.360	0.101
656.800	6.068	0.101
656.900	14.903	0.101
657.000	2.843	0.101
657.100	15.084	0.101
657.200	7.508	0.101
657.300	10.360	0.101
657.400	7.482	0.101
657.500	4.171	0.101
657.600	10.394	0.101
657.700	16.509	0.101
657.800	4.641	0.101
657.900	6.761	0.101
658.000	7.843	0.101
658.100	8.101	0.101
658.200	11.950	0.101
658.300	-0.993	0.101
658.400	0.651	0.101
658.500	12.257	0.101
658.600	13.114	0.101
658.700	-2.891	0.101
658.800	11.010	0.101
658.900	5.569	0.101
659.000	23.427	0.101
659.100	6.967	0.101
659.200	-1.930	0.101
659.300	14.362	0.101
659.400	11.468	0.101
659.500	17.745	0.101
659.600	8.503	0.101
659.700	5.405	0.101
659.800	12.968	0.101
659.900	8.987	0.101
660.000	-2.527	0.101
660.100	15.675	0.101
660.200	5.310	0.101
660.300	2.783	0.101
660.400	5.654	0.101
660.500	0.769	0.101
660.600	10.089	0.101
660.700	14.908	0.101
660.800	22.451	0.101
660.900	-4.443	0.101
661.000	18.653	0.101
661.100	2.205	0.101
661.200	13.385	0.101
661.300	6.905	0.101
661.400	4.732	0.101
661.500	-3.528	0.101
661.600	4.312	0.101
661.700	32.898	0.101
661.800	10.011	0.101
661.900	-8.758	0.101
662.000	20.849	0.101
662.100	12.174	0.101
662.200	7.304	0.101
662.300	11.240	0.101
662.400	9.999	0.101
662.500	11.597	0.101
662.600	4.008	0.101
662.700	4.055	0.101
662.800	7.681	0.101
662.900	9.995	0.101
663.000	7.806	0.101
663.100	21.607	0.101
663.200	13.534	0.101
663.300	20.960	0.101
663.400	1.992	0.101
663.500	2.064	0.101
663.600	21.100	0.101
663.700	16.504	0.101
663.800	24.962	0.101
663.900	4.985	0.101
664.000	20.544	0.101
664.100	-0.686	0.101
664.200	8.932	0.101
664.300	15.402	0.101
664.400	4.872	0.101
664.500	23.141	0.101
664.600	9.435	0.101
664.700	7.196	0.101
664.800	0.011	0.101
664.900	0.140	0.101
665.000	9.614	0.101
665.100	8.621	0.101
665.200	7.532	0.101
665.300	12.387	0.101
665.400	9.595	0.101
665.500	22.875	0.101
665.600	11.041	0.101
665.700	-2.692	0.101
665.800	5.422	0.101
665.900	9.503	0.101
666.000	8.144	0.101
666.100	17.329	0.101
666.200	16.826	0.101
666.300	12.357	0.101
666.400	8.119	0.101
666.500	7.435	0.101
666.600	16.409	0.101
666.700	9.203	0.101
666.800	-2.280	0.101
666.900	2.923	0.101
667.000	13.165	0.101
667.100	9.159	0.101
667.200	-0.232	0.101
667.300	12.395	0.101
667.400	10.512	0.101
667.500	9.746	0.101
667.600	5.966	0.101
667.700	21.294	0.101
667.800	18.452	0.101
667.900	22.180	0.101
668.000	3.087	0.101
668.100	2.419	0.101
668.200	11.145	0.101
668.300	17.722	0.101
668.400	4.445	0.101
668.500	17.630	0.101
668.600	2.927	0.101
668.700	13.273	0.101
668.800	13.535	0.101
668.900	8.716	0.101
669.000	8.430	0.101
669.100	1.546	0.101
669.200	16.121	0.101
669.300	13.331	0.101
669.400	14.548	0.101
669.500	15.809	0.101
669.600	-3.166	0.101
669.700	9.803	0.101
669.800	15.181	0.101
669.900	-4.752	0.101
670.000	3.563	0.101
670.100	11.911	0.101
670.200	5.366	0.101
670.300	7.116	0.101
670.400	9.006	0.101
670.500	10.131	0.101
670.600	13.215	0.101
670.700	-6.994	0.101
670.800	25.442	0.101
670.900	16.952	0.101
671.000	16.068	0.101
671.100	10.515	0.101
671.200	12.452	0.101
671.300	-4.028	0.101
671.400	13.366	0.101
671.500	12.177	0.101
671.600	16.275	0.101
671.700	16.237	0.101
671.800	10.355	0.101
671.900	-3.000	0.101
672.000	12.925	0.101
672.100	14.695	0.101
672.200	7.258	0.101
672.300	10.643	0.101
672.400	4.352	0.101
672.500	20.646	0.101
672.600	0.142	0.101
672.700	0.182	0.101
672.800	16.565	0.101
672.900	21.149	0.101
673.000	5.576	0.101
673.100	-1.563	0.101
673.200	2.347	0.101
673.300	8.799	0.101
673.400	17.868	0.101
673.500	14.124	0.101
673.600	1.530	0.101
673.700	-1.490	0.101
673.800	2.289	0.101
673.900	30.823	0.101
674.000	5.710	0.101
674.100	4.567	0.101
674.200	16.428	0.101
674.300	11.038	0.101
674.400	8.101	0.101
674.500	16.835	0.101
674.600	6.940	0.101
674.700	11.213	0.101
674.800	20.503	0.101
674.900	1.236	0.101
675.000	2.751	0.101
675.100	5.091	0.101
675.200	9.610	0.101
675.300	14.599	0.101
675.400	24.874	0.101
675.500	-1.441	0.101
675.600	1.777	0.101
675.700	-7.041	0.101
675.800	13.654	0.101
675.900	12.496	0.101
676.000	6.575	0.101
676.100	15.536	0.101
676.200	7.774	0.101
676.300	6.584	0.101
676.400	16.952	0.101
676.500	-5.296	0.101
676.600	26.489	0.101
676.700	4.799	0.101
676.800	-2.514	0.101
676.900	1.600	0.101
677.000	18.535	0.101
677.100	3.724	0.101
677.200	16.739	0.101
677.300	-5.546	0.101
677.400	13.289	0.101
677.500	4.753	0.101
677.600	7.426	0.101
677.700	16.736	0.101
677.800	6.316	0.101
677.900	6.502	0.101
678.000	24.133	0.101
678.100	8.279	0.101
678.200	14.127	0.101
678.300	3.797	0.101
678.400	7.071	0.101
678.500	13.169	0.101
678.600	12.118	0.101
678.700	9.633	0.101
678.800	8.686	0.101
678.900	7.333	0.101
679.000	-1.000	0.101
679.100	8.642	0.101
679.200	20.813	0.101
679.300	13.564	0.101
679.400	16.889	0.101
679.500	2.333	0.101
679.600	9.291	0.101
679.700	14.425	0.101
679.800	16.406	0.101
679.900	-1.694	0.101
680.000	17.995	0.101
680.100	25.029	0.101
680.200	11.398	0.101
680.300	-0.645	0.101
680.400	16.136	0.101
680.500	-1.106	0.101
680.600	16.121	0.101
680.700	-1.434	0.101
680.800	7.476	0.101
680.900	18.197	0.101
681.000	10.854	0.101
681.100	4.428	0.101
681.200	11.643	0.101
681.300	17.558	0.101
681.400	2.335	0.101
681.500	17.611	0.101
681.600	26.186	0.101
681.700	3.272	0.101
681.800	9.461	0.101
681.900	7.757	0.101
682.000	8.635	0.101
682.100	9.890	0.101
682.200	11.145	0.101
682.300	22.147	0.101
682.400	9.357	0.101
682.500	8.350	0.101
682.600	24.995	0.101
682.700	13.078	0.101
682.800	7.666	0.101
682.900	10.739	0.101
683.000	8.427	0.101
683.100	7.304	0.101
683.200	13.491	0.101
683.300	12.811	0.101
683.400	8.678	0.101
683.500	12.775	0.101
683.600	7.841	0.101
683.700	21.371	0.101
683.800	7.755	0.101
683.900	16.709	0.101
684.000	9.268	0.101
684.100	16.333	0.101
684.200	7.899	0.101
684.300	12.365	0.101
684.400	22.907	0.101
684.500	9.928	0.101
684.600	11.779	0.101
684.700	5.091	0.101
684.800	14.328	0.101
684.900	-11.375	0.101
685.000	13.872	0.101
685.100	9.832	0.101
685.200	0.242	0.101
685.300	8.097	0.101
685.400	8.781	0.101
685.500	22.468	0.101
685.600	12.541	0.101
685.700	-2.757	0.101
685.800	25.204	0.101
685.900	12.814	0.101
686.000	12.068	0.101
686.100	10.111	0.101
686.200	12.315	0.101
686.300	1.870	0.101
686.400	10.569	0.101
686.500	8.821	0.101
686.600	11.462	0.101
686.700	9.910	0.101
686.800	-0.979	0.101
686.900	14.391	0.101
687.000	21.964	0.101
687.100	7.744	0.101
687.200	10.735	0.101
687.300	26.263	0.101
687.400	12.180	0.101
687.500	1.953	0.101
687.600	21.323	0.101
687.700	13.461	0.101
687.800	10.260	0.101
687.900	7.731	0.101
688.000	7.686	0.101
688.100	14.732	0.101
688.200	14.086	0.101
688.300	3.360	0.101
688.400	5.758	0.101
688.500	-7.232	0.101
688.600	2.360	0.101
688.700	9.249	0.101
688.800	18.164	0.101
688.900	3.250	0.101
689.000	2.340	0.101
689.100	6.719	0.101
689.200	5.824	0.101
689.300	7.206	0.101
689.400	22.372	0.101
689.500	6.196	0.101
689.600	21.808	0.101
689.700	13.196	0.101
689.800	4.355	0.101
689.900	20.313	0.101
690.000	8.752	0.101
690.100	2.306	0.101
690.200	4.079	0.101
690.300	-3.820	0.101
690.400	7.656	0.101
690.500	1.670	0.101
690.600	1.753	0.101
690.700	8.452	0.101
690.800	2.502	0.101
690.900	14.828	0.101
691.000	7.740	0.101
691.100	3.655	0.101
691.200	6.908	0.101
691.300	-4.297	0.101
691.400	11.815	0.101
691.500	-17.419	0.101
691.600	9.806	0.101
691.700	7.605	0.101
691.800	-2.711	0.101
691.900	-5.761	0.101
692.000	-13.771	0.101
692.100	2.400	0.101
692.200	-6.963	0.101
692.300	-0.325	0.101
692.400	6.712	0.101
692.500	-6.665	0.101
692.600	-1.296	0.101
692.700	8.209	0.101
692.800	-12.258	0.101
692.900	-8.087	0.101
693.000	8.419	0.101
693.100	-5.720	0.101
693.200	-20.891	0.101
693.300	-4.783	0.101
693.400	4.166	0.101
693.500	-5.593	0.101
693.600	-9.331	0.101
693.700	-13.869	0.101
693.800	-5.668	0.101
693.900	-1.075	0.101
694.000	-21.205	0.101
694.100	-9.956	0.101
694.200	-13.636	0.101
694.300	-9.805	0.101
694.400	0.513	0.101
694.500	1.901	0.101
694.600	-2.099	0.101
694.700	-8.976	0.101
694.800	-4.506	0.101
694.900	-14.944	0.101
695.000	1.309	0.101
695.100	-22.187	0.101
695.200	1.128	0.101
695.300	1.403	0.101
695.400	-22.575	0.101
695.500	-9.043	0.101
695.600	-2.053	0.101
695.700	0.906	0.101
695.800	-13.434	0.101
695.900	4.759	0.101
696.000	-16.579	0.101
696.100	-0.356	0.101
696.200	-0.113	0.101
696.300	6.519	0.101
696.400	-7.285	0.101
696.500	-12.664	0.101
696.600	-4.173	0.101
696.700	1.290	0.101
696.800	-6.461	0.101
696.900	-8.564	0.101
697.000	-15.231	0.101
697.100	5.149	0.101
697.200	-0.647	0.101
697.300	-2.041	0.101
697.400	-0.337	0.101
697.500	-8.972	0.101
697.600	-6.233	0.101
697.700	-9.166	0.101
697.800	3.587	0.101
697.900	1.557	0.101
698.000	5.826	0.101
698.100	1.034	0.101
698.200	-15.091	0.101
698.300	-9.757	0.101
698.400	3.130	0.101
698.500	-8.199	0.101
698.600	9.964	0.101
698.700	-8.463	0.101
698.800	7.730	0.101
698.900	3.651	0.101
699.000	3.781	0.101
699.100	5.210	0.101
699.200	-2.044	0.101
699.300	-12.656	0.101
699.400	-4.709	0.101
699.500	-20.956	0.101
699.600	-3.514	0.101
699.700	-9.929	0.101
699.800	1.333	0.101
699.900	5.351	0.101
700.000	-1.021	0.101
700.100	-4.746	0.101
700.200	-4.427	0.101
700.300	3.700	0.101
700.400	-8.410	0.101
700.500	-16.377	0.101
700.600	-7.920	0.101
700.700	-1.528	0.101
700.800	2.261	0.101
700.900	7.209	0.101
701.000	-0.044	0.101
701.100	7.675	0.101
701.200	-8.296	0.101
701.300	-15.120	0.101
701.400	-9.573	0.101
701.500	-5.015	0.101
701.600	0.644	0.101
701.700	-2.284	0.101
701.800	-4.775	0.101
701.900	3.436	0.101
702.000	-0.073	0.101
702.100	-2.563	0.101
702.200	0.316	0.101
702.300	-4.785	0.101
702.400	-3.621	0.101
702.500	-14.011	0.101
702.600	6.214	0.101
702.700	-20.989	0.101
702.800	-0.585	0.101
702.900	12.198	0.101
703.000	-3.531	0.101
703.100	-11.515	0.101
703.200	4.329	0.101
703.300	-12.024	0.101
703.400	-9.138	0.101
703.500	-8.059	0.101
703.600	-5.509	0.101
703.700	6.180	0.101
703.800	-1.324	0.101
703.900	3.626	0.101
704.000	-15.102	0.101
704.100	-8.637	0.101
704.200	-2.356	0.101
704.300	-0.344	0.101
704.400	-6.712	0.101
704.500	-5.624	0.101
704.600	0.891	0.101
704.700	-6.393	0.101
704.800	-14.584	0.101
704.900	-10.010	0.101
705.000	-0.265	0.101
705.100	1.250	0.101
705.200	-1.199	0.101
705.300	-21.758	0.101
705.400	13.692	0.101
705.500	-4.011	0.101
705.600	-17.195	0.101
705.700	-7.212	0.101
705.800	-6.175	0.101
705.900	1.617	0.101
706.000	1.220	0.101
706.100	-5.044	0.101
706.200	-9.210	0.101
706.300	0.553	0.101
706.400	-9.325	0.101
706.500	-3.668	0.101
706.600	21.817	0.101
706.700	1.857	0.101
706.800	-11.714	0.101
706.900	2.341	0.101
707.000	2.265	0.101
707.100	5.733	0.101
707.200	-13.343	0.101
707.300	-10.950	0.101
707.400	6.670	0.101
707.500	-5.029	0.101
707.600	-7.574	0.101
707.700	-5.976	0.101
707.800	-9.911	0.101
707.900	-5.201	0.101
708.000	-9.865	0.101
708.100	3.903	0.101
708.200	-6.243	0.101
708.300	-0.554	0.101
708.400	4.142	0.101
708.500	-13.671	0.101
708.600	-6.201	0.101
708.700	-19.499	0.101
708.800	-13.568	0.101
708.900	14.879	0.101
709.000	-4.140	0.101
709.100	14.631	0.101
709.200	-13.093	0.101
709.300	-15.668	0.101
709.400	-7.442	0.101
709.500	-11.361	0.101
709.600	-3.273	0.101
709.700	-0.016	0.101
709.800	-1.086	0.101
709.900	2.212	0.101
710.000	1.404	0.101
710.100	-14.277	0.101
710.200	-0.712	0.101
710.300	-9.066	0.101
710.400	-18.995	0.101
710.500	7.502	0.101
710.600	-18.363	0.101
710.700	9.115	0.101
710.800	-7.871	0.101
710.900	-13.852	0.101
711.000	-12.828	0.101
711.100	2.347	0.101
711.200	-3.153	0.101
711.300	6.671	0.101
711.400	-11.942	0.101
711.500	-20.063	0.101
711.600	-2.761	0.101
711.700	-0.522	0.101
711.800	1.136	0.101
711.900	-0.234	0.101
712.000	-5.799	0.101
712.100	0.851	0.101
712.200	-3.948	0.101
712.300	-2.235	0.101
712.400	1.749	0.101
712.500	-3.092	0.101
712.600	-13.693	0.101
712.700	4.022	0.101
712.800	-5.601	0.101
712.900	-14.195	0.101
713.000	-0.821	0.101
713.100	-12.718	0.101
713.200	-5.233	0.101
713.300	2.464	0.101
713.400	0.102	0.101
713.500	-8.469	0.101
713.600	3.948	0.101
713.700	7.625	0.101
713.800	-13.001	0.101
713.900	-7.911	0.101
714.000	-14.835	0.101
714.100	-2.522	0.101
714.200	6.237	0.101
714.300	-8.962	0.101
714.400	-5.371	0.101
714.500	-3.676	0.101
714.600	-3.592	0.101
714.700	-12.126	0.101
714.800	9.775	0.101
714.900	-10.980	0.101
715.000	-6.229	0.101
715.100	0.776	0.101
715.200	5.022	0.101
715.300	1.740	0.101
715.400	9.867	0.101
715.500	-13.340	0.101
715.600	-11.960	0.101
715.700	-3.810	0.101
715.800	-4.718	0.101
715.900	-16.430	0.101
716.000	-4.632	0.101
716.100	-6.430	0.101
716.200	-0.523	0.101
716.300	-30.367	0.101
716.400	-11.767	0.101
716.500	0.305	0.101
716.600	-8.860	0.101
716.700	-2.374	0.101
716.800	-5.579	0.101
716.900	3.776	0.101
717.000	-14.110	0.101
717.100	-8.390	0.101
717.200	0.475	0.101
717.300	-0.926	0.101
717.400	-5.038	0.101
717.500	-6.240	0.101
717.600	-12.828	0.101
717.700	2.214	0.101
717.800	-0.674	0.101
717.900	-13.892	0.101
718.000	-3.896	0.101
718.100	-4.393	0.101
718.200	-8.144	0.101
718.300	-4.880	0.101
718.400	-0.401	0.101
718.500	-2.013	0.101
718.600	5.731	0.101
718.700	-8.164	0.101
718.800	-5.666	0.101
718.900	-15.703	0.101
719.000	-0.174	0.101
719.100	-3.603	0.101
719.200	-1.431	0.101
719.300	-3.003	0.101
719.400	0.279	0.101
719.500	-12.009	0.101
719.600	-10.507	0.101
719.700	-5.004	0.101
719.800	1.876	0.101
719.900	1.765	0.101
720.000	-2.415	0.101
720.100	-11.661	0.101
720.200	-16.436	0.101
720.300	-7.141	0.101
720.400	2.689	0.101
720.500	-3.589	0.101
720.600	-9.176	0.101
720.700	-10.444	0.101
720.800	4.015	0.101
720.900	-9.781	0.101
721.000	-2.934	0.101
721.100	-19.901	0.101
721.200	1.258	0.101
721.300	-10.689	0.101
721.400	-1.348	0.101
721.500	2.990	0.101
721.600	-11.070	0.101
721.700	-5.712	0.101
721.800	-14.146	0.101
721.900	-2.292	0.101
722.000	-8.848	0.101
722.100	-8.125	0.101
722.200	-3.795	0.101
722.300	-11.013	0.101
722.400	0.617	0.101
722.500	-8.364	0.101
722.600	-6.865	0.101
722.700	-12.484	0.101
722.800	-13.622	0.101
722.900	-2.537	0.101
723.000	1.347	0.101
723.100	-1.777	0.101
723.200	-9.314	0.101
723.300	-10.941	0.101
723.400	-16.890	0.101
723.500	-6.237	0.101
723.600	-0.903	0.101
723.700	-12.213	0.101
723.800	-10.598	0.101
723.900	-16.114	0.101
724.000	-8.125	0.101
724.100	-3.189	0.101
724.200	-7.448	0.101
724.300	6.734	0.101
724.400	-12.947	0.101
724.500	8.873	0.101
724.600	-9.486	0.101
724.700	-0.069	0.101
724.800	8.453	0.101
724.900	-7.480	0.101
725.000	-9.664	0.101
725.100	0.741	0.101
725.200	-24.688	0.101
725.300	-5.490	0.101
725.400	-11.916	0.101
725.500	1.187	0.101
725.600	-9.456	0.101
725.700	-10.601	0.101
725.800	1.718	0.101
725.900	-9.292	0.101
726.000	8.966	0.101
726.100	-15.647	0.101
726.200	-5.068	0.101
726.300	-5.190	0.101
726.400	-12.671	0.101
726.500	-3.570	0.101
726.600	-8.061	0.101
726.700	-21.116	0.101
726.800	-0.114	0.101
726.900	-3.149	0.101
727.000	1.001	0.101
727.100	-4.937	0.101
727.200	13.054	0.101
727.300	-7.703	0.101
727.400	-24.926	0.101
727.500	0.395	0.101
727.600	-5.590	0.101
727.700	3.844	0.101
727.800	1.005	0.101
727.900	-19.465	0.101
728.000	-12.840	0.101
728.100	-17.429	0.101
728.200	1.191	0.101
728.300	-2.378	0.101
728.400	-5.370	0.101
728.500	-5.975	0.101
728.600	-10.907	0.101
728.700	-9.328	0.101
728.800	-3.860	0.101
728.900	-1.167	0.101
729.000	-7.437	0.101
729.100	-2.941	0.101
729.200	-20.264	0.101
729.300	-11.611	0.101
729.400	0.565	0.101
729.500	-7.781	0.101
729.600	-9.689	0.101
729.700	-5.959	0.101
729.800	-3.747	0.101
729.900	5.965	0.101
730.000	5.639	0.101
730.100	-12.447	0.101
730.200	-14.234	0.101
730.300	-13.993	0.101
730.400	-6.149	0.101
730.500	4.013	0.101
730.600	-6.114	0.101
730.700	-9.950	0.101
730.800	2.593	0.101
730.900	0.346	0.101
731.000	-8.585	0.101
731.100	-2.956	0.101
731.200	2.164	0.101
731.300	-6.031	0.101
731.400	-8.771	0.101
731.500	-9.264	0.101
731.600	-10.068	0.101
731.700	-19.336	0.101
731.800	-13.705	0.101
731.900	-6.442	0.101
732.000	-5.435	0.101
732.100	-1.053	0.101
732.200	5.623	0.101
732.300	5.872	0.101
732.400	-8.402	0.101
732.500	-5.653	0.101
732.600	-3.521	0.101
732.700	-2.539	0.101
732.800	4.666	0.101
732.900	-19.095	0.101
733.000	-4.657	0.101
733.100	-10.276	0.101
733.200	-4.971	0.101
733.300	-9.483	0.101
733.400	-1.136	0.101
733.500	-16.054	0.101
733.600	-11.458	0.101
733.700	-4.405	0.101
733.800	-1.461	0.101
733.900	-12.194	0.101
734.000	1.271	0.101
734.100	-8.178	0.101
734.200	-3.969	0.101
734.300	-14.711	0.101
734.400	11.238	0.101
734.500	-2.442	0.101
734.600	3.039	0.101
734.700	-6.410	0.101
734.800	-15.561	0.101
734.900	-8.166	0.101
735.000	-22.514	0.101
735.100	-0.176	0.101
735.200	-12.723	0.101
735.300	-4.046	0.101
735.400	-5.766	0.101
735.500	-11.164	0.101
735.600	-13.785	0.101
735.700	-10.534	0.101
735.800	-7.567	0.101
735.900	7.905	0.101
736.000	-12.036	0.101
736.100	-27.814	0.101
736.200	4.733	0.101
736.300	3.518	0.101
736.400	-11.614	0.101
736.500	-11.672	0.101
736.600	0.574	0.101
736.700	-2.594	0.101
736.800	-8.849	0.101
736.900	-8.290	0.101
737.000	-0.058	0.101
737.100	-7.121	0.101
737.200	-6.596	0.101
737.300	-7.690	0.101
737.400	-2.471	0.101
737.500	6.311	0.101
737.600	-8.910	0.101
737.700	-0.335	0.101
737.800	-6.387	0.101
737.900	-10.528	0.101
738.000	-17.369	0.101
738.100	-6.328	0.101
738.200	3.044	0.101
738.300	-13.054	0.101
738.400	0.509	0.101
738.500	-9.375	0.101
738.600	-12.574	0.101
738.700	-5.230	0.101
738.800	4.718	0.101
738.900	-19.388	0.101
739.000	-4.689	0.101
739.100	-1.918	0.101
739.200	-4.487	0.101
739.300	0.064	0.101
739.400	-13.266	0.101
739.500	-5.322	0.101
739.600	-14.236	0.101
739.700	-5.607	0.101
739.800	-12.788	0.101
739.900	3.890	0.101
740.000	-1.026	0.101
740.100	-0.931	0.101
740.200	-17.857	0.101
740.300	-9.663	0.101
740.400	1.117	0.101
740.500	-4.842	0.101
740.600	-22.234	0.101
740.700	-10.511	0.101
740.800	-1.907	0.101
740.900	1.441	0.101
741.000	-6.011	0.101
741.100	-2.361	0.101
741.200	-14.873	0.101
741.300	1.906	0.101
741.400	-2.485	0.101
741.500	-21.436	0.101
741.600	-1.881	0.101
741.700	-5.978	0.101
741.800	-2.409	0.101
741.900	-6.044	0.101
742.000	6.005	0.101
742.100	-17.361	0.101
742.200	-6.008	0.101
742.300	-17.830	0.101
742.400	-4.315	0.101
742.500	-6.094	0.101
742.600	-10.048	0.101
742.700	0.295	0.101
742.800	-0.061	0.101
742.900	-12.731	0.101
743.000	-19.930	0.101
743.100	-8.848	0.101
743.200	-2.365	0.101
743.300	-17.571	0.101
743.400	-23.396	0.101
743.500	-5.173	0.101
743.600	6.944	0.101
743.700	0.313	0.101
743.800	-7.671	0.101
743.900	-3.215	0.101
744.000	-22.914	0.101
744.100	-10.649	0.101
744.200	1.568	0.101
744.300	5.219	0.101
744.400	-4.901	0.101
744.500	-17.509	0.101
744.600	9.821	0.101
744.700	-14.405	0.101
744.800	-2.494	0.101
744.900	-3.478	0.101
745.000	7.130	0.101
745.100	-3.808	0.101
745.200	-8.110	0.101
745.300	0.713	0.101
745.400	-8.227	0.101
745.500	0.951	0.101
745.600	-7.823	0.101
745.700	-9.400	0.101
745.800	-14.074	0.101
745.900	-10.104	0.101
746.000	3.315	0.101
746.100	2.771	0.101
746.200	-10.711	0.101
746.300	-13.292	0.101
746.400	-0.032	0.101
746.500	-6.719	0.101
746.600	12.465	0.101
746.700	0.354	0.101
746.800	0.963	0.101
746.900	-21.607	0.101
747.000	-6.791	0.101
747.100	-2.983	0.101
747.200	-12.603	0.101
747.300	-6.176	0.101
747.400	1.552	0.101
747.500	-8.953	0.101
747.600	-2.932	0.101
747.700	-8.600	0.101
747.800	-11.121	0.101
747.900	-6.970	0.101
748.000	-9.866	0.101
748.100	-2.797	0.101
748.200	-7.871	0.101
748.300	-6.041	0.101
748.400	-8.394	0.101
748.500	-5.682	0.101
748.600	-8.976	0.101
748.700	6.942	0.101
748.800	-10.582	0.101
748.900	-8.354	0.101
749.000	3.143	0.101
749.100	-10.999	0.101
749.200	-0.863	0.101
749.300	3.107	0.101
749.400	-7.323	0.101
749.500	-2.586	0.101
749.600	-7.751	0.101
749.700	2.154	0.101
749.800	-18.466	0.101
749.900	-12.056	0.101
750.000	1.002	0.101
750.100	-7.645	0.101
750.200	-11.302	0.101
750.300	-1.442	0.101
750.400	-8.410	0.101
750.500	3.170	0.101
750.600	-5.268	0.101
750.700	-2.087	0.101
750.800	-0.435	0.101
750.900	-14.019	0.101
751.000	-6.058	0.101
751.100	-3.500	0.101
751.200	-9.005	0.101
751.300	-2.192	0.101
751.400	-14.461	0.101
751.500	7.492	0.101
751.600	1.755	0.101
751.700	-2.434	0.101
751.800	-4.725	0.101
751.900	-12.959	0.101
752.000	-20.266	0.101
752.100	-6.967	0.101
752.200	-6.702	0.101
752.300	-13.478	0.101
752.400	-10.406	0.101
752.500	-3.992	0.101
752.600	0.042	0.101
752.700	-10.485	0.101
752.800	-4.904	0.101
752.900	-8.520	0.101
753.000	-3.771	0.101
753.100	-9.011	0.101
753.200	-5.724	0.101
753.300	-9.359	0.101
753.400	-14.673	0.101
753.500	3.655	0.101
753.600	-8.889	0.101
753.700	-17.507	0.101
753.800	-0.025	0.101
753.900	-1.448	0.101
754.000	-1.301	0.101
754.100	0.798	0.101
754.200	-3.524	0.101
754.300	-8.958	0.101
754.400	-8.543	0.101
754.500	-3.094	0.101
754.600	-9.301	0.101
754.700	4.088	0.101
754.800	-2.967	0.101
754.900	-17.046	0.101
755.000	-15.998	0.101
755.100	-8.959	0.101
755.200	11.100	0.101
755.300	-9.850	0.101
755.400	0.045	0.101
755.500	7.141	0.101
755.600	-7.401	0.101
755.700	6.947	0.101
755.800	-3.388	0.101
755.900	-7.037	0.101
756.000	-0.888	0.101
756.100	3.217	0.101
756.200	-5.604	0.101
756.300	-8.496	0.101
756.400	-5.680	0.101
756.500	2.960	0.101
756.600	-8.481	0.101
756.700	-2.782	0.101
756.800	-1.074	0.101
756.900	-5.752	0.101
757.000	-2.898	0.101
757.100	-6.700	0.101
757.200	-6.085	0.101
757.300	2.270	0.101
757.400	2.459	0.101
757.500	-1.090	0.101
757.600	-7.456	0.101
757.700	-14.935	0.101
757.800	-13.727	0.101
757.900	-12.466	0.101
758.000	-9.670	0.101
758.100	3.212	0.101
758.200	-7.640	0.101
758.300	-13.620	0.101
758.400	-0.678	0.101
758.500	-9.978	0.101
758.600	1.901	0.101
758.700	2.163	0.101
758.800	-12.159	0.101
758.900	-10.440	0.101
759.000	3.591	0.101
759.100	-12.901	0.101
759.200	-1.141	0.101
759.300	-3.652	0.101
759.400	-3.392	0.101
759.500	0.805	0.101
759.600	-4.284	0.101
759.700	-2.171	0.101
759.800	-8.342	0.101
759.900	-15.068	0.101
760.000	-4.973	0.101
760.100	-7.722	0.101
760.200	-6.108	0.101
760.300	-12.642	0.101
760.400	-9.932	0.101
760.500	2.398	0.101
760.600	-2.106	0.101
760.700	-5.068	0.101
760.800	0.315	0.101
760.900	-14.276	0.101
761.000	-12.495	0.101
761.100	-16.826	0.101
761.200	-3.039	0.101
761.300	-1.913	0.101
761.400	-4.742	0.101
761.500	-7.142	0.101
761.600	-17.854	0.101
761.700	0.481	0.101
761.800	-10.524	0.101
761.900	-11.861	0.101
762.000	-10.699	0.101
762.100	-15.029	0.101
762.200	7.863	0.101
762.300	4.500	0.101
762.400	-16.223	0.101
762.500	-15.734	0.101
762.600	-16.457	0.101
762.700	0.934	0.101
762.800	-7.379	0.101
762.900	-7.530	0.101
763.000	-7.195	0.101
763.100	5.073	0.101
763.200	-4.427	0.101
763.300	-7.764	0.101
763.400	-12.009	0.101
763.500	-5.735	0.101
763.600	5.495	0.101
763.700	-10.953	0.101
763.800	-2.210	0.101
763.900	1.247	0.101
764.000	-15.218	0.101
764.100	-11.576	0.101
764.200	-1.926	0.101
764.300	-3.180	0.101
764.400	-0.207	0.101
764.500	-4.045	0.101
764.600	-4.194	0.101
764.700	-11.285	0.101
764.800	3.706	0.101
764.900	-3.549	0.101
765.000	-8.641	0.101
765.100	-11.872	0.101
765.200	-0.063	0.101
765.300	-20.709	0.101
765.400	-9.833	0.101
765.500	10.825	0.101
765.600	8.719	0.101
765.700	-6.407	0.101
765.800	6.602	0.101
765.900	-12.037	0.101
766.000	1.547	0.101
766.100	2.570	0.101
766.200	-17.075	0.101
766.300	-12.713	0.101
766.400	-2.936	0.101
766.500	-12.187	0.101
766.600	-3.045	0.101
766.700	-9.013	0.101
766.800	-13.649	0.101
766.900	-8.646	0.101
767.000	-17.194	0.101
767.100	2.844	0.101
767.200	1.807	0.101
767.300	-0.807	0.101
767.400	-12.130	0.101
767.500	10.235	0.101
767.600	-14.192	0.101
767.700	-10.277	0.101
767.800	-16.008	0.101
767.900	-2.683	0.101
768.000	10.034	0.101
768.100	-17.918	0.101
768.200	2.429	0.101
768.300	0.973	0.101
768.400	-1.677	0.101
768.500	-0.626	0.101
768.600	-14.768	0.101
768.700	-7.760	0.101
768.800	-10.673	0.101
768.900	3.973	0.101
769.000	-2.220	0.101
769.100	-6.398	0.101
769.200	-2.657	0.101
769.300	4.140	0.101
769.400	-8.953	0.101
769.500	-4.833	0.101
769.600	-2.744	0.101
769.700	2.822	0.101
769.800	-5.652	0.101
769.900	1.379	0.101
770.000	-6.233	0.101
770.100	-13.562	0.101
770.200	-4.726	0.101
770.300	-13.693	0.101
770.400	-0.795	0.101
770.500	-8.935	0.101
770.600	2.773	0.101
770.700	2.891	0.101
770.800	-15.510	0.101
770.900	-13.706	0.101
771.000	1.939	0.101
771.100	-5.175	0.101
771.200	-10.682	0.101
771.300	5.652	0.101
771.400	-3.602	0.101
771.500	-17.844	0.101
771.600	-6.001	0.101
771.700	-4.971	0.101
771.800	-17.871	0.101
771.900	-2.376	0.101
772.000	-5.403	0.101
772.100	-16.240	0.101
772.200	-16.019	0.101
772.300	5.276	0.101
772.400	-2.499	0.101
772.500	-12.251	0.101
772.600	-2.796	0.101
772.700	-13.227	0.101
772.800	1.402	0.101
772.900	-9.431	0.101
773.000	-19.465	0.101
773.100	-1.741	0.101
773.200	6.290	0.101
773.300	2.365	0.101
773.400	1.653	0.101
773.500	-1.083	0.101
773.600	-19.293	0.101
773.700	-23.902	0.101
773.800	-15.286	0.101
773.900	-3.155	0.101
774.000	-0.803	0.101
774.100	3.641	0.101
774.200	20.681	0.101
774.300	-3.109	0.101
774.400	-14.580	0.101
774.500	-14.467	0.101
774.600	-7.675	0.101
774.700	4.444	0.101
774.800	9.866	0.101
774.900	-3.935	0.101
775.000	-10.330	0.101
775.100	-13.426	0.101
775.200	2.933	0.101
775.300	6.247	0.101
775.400	-11.172	0.101
775.500	-1.931	0.101
775.600	-21.652	0.101
775.700	12.984	0.101
775.800	-13.940	0.101
775.900	-11.620	0.101
776.000	-2.575	0.101
776.100	-10.527	0.101
776.200	-4.726	0.101
776.300	1.679	0.101
776.400	-15.762	0.101
776.500	-0.205	0.101
776.600	-3.641	0.101
776.700	-17.313	0.101
776.800	3.141	0.101
776.900	-9.258	0.101
777.000	-1.714	0.101
777.100	-2.395	0.101
777.200	0.416	0.101
777.300	-5.461	0.101
777.400	-12.362	0.101
777.500	-10.598	0.101
777.600	-1.637	0.101
777.700	3.670	0.101
777.800	-14.400	0.101
777.900	-10.719	0.101
778.000	-5.952	0.101
778.100	0.598	0.101
778.200	-2.768	0.101
778.300	-9.307	0.101
778.400	-1.007	0.101
778.500	-6.892	0.101
778.600	-17.396	0.101
778.700	-5.673	0.101
778.800	-12.660	0.101
778.900	-6.967	0.101
779.000	-0.555	0.101
779.100	6.402	0.101
779.200	0.342	0.101
779.300	-10.696	0.101
779.400	-7.978	0.101
779.500	4.786	0.101
779.600	-0.351	0.101
779.700	-8.386	0.101
779.800	-12.776	0.101
779.900	-5.337	0.101
780.000	-6.624	0.101
780.100	-5.124	0.101
780.200	-3.903	0.101
780.300	1.627	0.101
780.400	-8.391	0.101
780.500	0.536	0.101
780.600	-1.849	0.101
780.700	-2.421	0.101
780.800	-4.617	0.101
780.900	-0.255	0.101
781.000	-11.740	0.101
781.100	8.318	0.101
781.200	1.558	0.101
781.300	-19.577	0.101
781.400	-1.711	0.101
781.500	-5.611	0.101
781.600	10.147	0.101
781.700	7.478	0.101
781.800	11.210	0.101
781.900	1.504	0.101
782.000	-20.969	0.101
782.100	14.175	0.101
782.200	-3.428	0.101
782.300	-1.272	0.101
782.400	4.015	0.101
782.500	-10.838	0.101
782.600	-1.693	0.101
782.700	20.749	0.101
782.800	11.833	0.101
782.900	4.662	0.101
783.000	9.410	0.101
783.100	-13.747	0.101
783.200	0.832	0.101
783.300	0.023	0.101
783.400	13.764	0.101
783.500	7.452	0.101
783.600	-3.067	0.101
783.700	6.337	0.101
783.800	10.814	0.101
783.900	0.993	0.101
784.000	4.863	0.101
784.100	4.694	0.101
784.200	4.867	0.101
784.300	-11.336	0.101
784.400	2.670	0.101
784.500	8.622	0.101
784.600	-6.907	0.101
784.700	-5.461	0.101
784.800	21.875	0.101
784.900	4.563	0.101
785.000	2.167	0.101
785.100	3.832	0.101
785.200	4.268	0.101
785.300	-5.051	0.101
785.400	7.240	0.101
785.500	12.691	0.101
785.600	0.737	0.101
785.700	-0.456	0.101
785.800	6.043	0.101
785.900	-6.699	0.101
786.000	6.276	0.101
786.100	-3.041	0.101
786.200	14.033	0.101
786.300	4.777	0.101
786.400	1.240	0.101
786.500	12.287	0.101
786.600	-0.561	0.101
786.700	10.485	0.101
786.800	3.469	0.101
786.900	-10.566	0.101
787.000	4.019	0.101
787.100	0.752	0.101
787.200	-8.548	0.101
787.300	-0.063	0.101
787.400	10.888	0.101
787.500	12.926	0.101
787.600	-1.694	0.101
787.700	0.778	0.101
787.800	4.168	0.101
787.900	-7.278	0.101
788.000	-7.212	0.101
788.100	8.692	0.101
788.200	7.430	0.101
788.300	3.822	0.101
788.400	7.806	0.101
788.500	-4.047	0.101
788.600	5.482	0.101
788.700	-19.808	0.101
788.800	6.914	0.101
788.900	-6.223	0.101
789.000	5.543	0.101
789.100	-1.390	0.101
789.200	-4.417	0.101
789.300	5.277	0.101
789.400	4.339	0.101
789.500	-6.273	0.101
789.600	12.217	0.101
789.700	-5.138	0.101
789.800	5.753	0.101
789.900	7.131	0.101
790.000	19.472	0.101
790.100	2.549	0.101
790.200	0.205	0.101
790.300	8.737	0.101
790.400	11.396	0.101
790.500	3.556	0.101
790.600	-2.153	0.101
790.700	12.447	0.101
790.800	-11.101	0.101
790.900	25.473	0.101
791.000	-10.848	0.101
791.100	0.796	0.101
791.200	-5.355	0.101
791.300	9.592	0.101
791.400	9.139	0.101
791.500	12.631	0.101
791.600	6.496	0.101
791.700	-11.557	0.101
791.800	4.036	0.101
791.900	6.317	0.101
792.000	8.009	0.101
792.100	-3.398	0.101
792.200	4.438	0.101
792.300	6.773	0.101
792.400	10.126	0.101
792.500	-3.459	0.101
792.600	5.686	0.101
792.700	10.294	0.101
792.800	3.446	0.101
792.900	0.737	0.101
793.000	6.756	0.101
793.100	8.091	0.101
793.200	6.088	0.101
793.300	13.068	0.101
793.400	-2.583	0.101
793.500	0.216	0.101
793.600	-3.036	0.101
793.700	-0.295	0.101
793.800	22.883	0.101
793.900	-0.785	0.101
794.000	16.232	0.101
794.100	6.749	0.101
794.200	-6.810	0.101
794.300	3.359	0.101
794.400	14.726	0.101
794.500	0.532	0.101
794.600	-2.547	0.101
794.700	5.665	0.101
794.800	12.900	0.101
794.900	3.252	0.101
795.000	3.929	0.101
795.100	2.987	0.101
795.200	13.122	0.101
795.300	8.809	0.101
795.400	1.388	0.101
795.500	9.663	0.101
795.600	12.118	0.101
795.700	4.117	0.101
795.800	-4.543	0.101
795.900	2.798	0.101
796.000	25.866	0.101
796.100	5.151	0.101
796.200	20.209	0.101
796.300	17.543	0.101
796.400	-1.516	0.101
796.500	3.221	0.101
796.600	13.640	0.101
796.700	3.903	0.101
796.800	13.970	0.101
796.900	19.249	0.101
797.000	16.257	0.101
797.100	9.323	0.101
797.200	-15.656	0.101
797.300	22.262	0.101
797.400	1.877	0.101
797.500	-3.068	0.101
797.600	7.071	0.101
797.700	13.516	0.101
797.800	3.597	0.101
797.900	-10.532	0.101
798.000	11.576	0.101
798.100	17.280	0.101
798.200	14.209	0.101
798.300	12.964	0.101
798.400	4.718	0.101
798.500	12.009	0.101
798.600	6.906	0.101
798.700	-2.237	0.101
798.800	6.400	0.101
798.900	9.004	0.101
799.000	18.343	0.101
799.100	10.651	0.101
799.200	6.323	0.101
799.300	-3.184	0.101
799.400	5.722	0.101
799.500	-0.215	0.101
799.600	5.797	0.101
799.700	5.126	0.101
799.800	14.155	0.101
799.900	14.576	0.101
800.000	-9.881	0.101
