time /s	I /nA	E /V
0.100	18.144	0.101
0.200	-44.571	0.100
0.300	-4.282	0.100
0.400	-9.899	0.100
0.500	11.059	0.100
0.600	3.690	0.100
0.700	-65.529	0.100
0.800	-18.308	0.100
0.900	15.355	0.100
1.000	11.057	0.100
1.100	2.429	0.100
1.200	-16.846	0.101
1.300	-1.838	0.100
1.400	-2.481	0.100
1.500	0.073	0.100
1.600	-41.163	0.100
1.700	17.869	0.100
1.800	-1.386	0.100
1.900	-22.150	0.100
2.000	3.568	0.100
2.100	-4.483	0.100
2.200	25.879	0.100
2.300	-32.170	0.100
2.400	-15.936	0.100
2.500	-4.323	0.100
2.600	-14.474	0.100
2.700	4.297	0.100
2.800	-29.973	0.101
2.900	-6.578	0.100
3.000	-17.963	0.100
3.100	-1.362	0.100
3.200	-29.351	0.100
3.300	7.882	0.100
3.400	-9.746	0.100
3.500	-8.810	0.100
3.600	8.068	0.100
3.700	-3.790	0.100
3.800	-22.922	0.100
3.900	-13.478	0.100
4.000	-6.381	0.100
4.100	37.509	0.100
4.200	-2.451	0.100
4.300	9.270	0.100
4.400	18.074	0.101
4.500	1.755	0.100
4.600	28.410	0.100
4.700	3.136	0.100
4.800	-11.694	0.101
4.900	-21.671	0.100
5.000	25.020	0.100
5.100	-41.715	0.100
5.200	-34.606	0.100
5.300	-1.302	0.100
5.400	-9.670	0.100
5.500	-9.364	0.100
5.600	-5.059	0.100
5.700	8.912	0.100
5.800	-17.115	0.100
5.900	-5.264	0.100
6.000	9.769	0.100
6.100	3.782	0.101
6.200	-14.391	0.100
6.300	12.004	0.100
6.400	-27.611	0.100
6.500	-4.903	0.101
6.600	-17.764	0.100
6.700	3.284	0.100
6.800	-2.466	0.101
6.900	27.820	0.100
7.000	-2.616	0.100
7.100	-7.993	0.100
7.200	-18.729	0.100
7.300	-11.289	0.100
7.400	-12.815	0.100
7.500	30.228	0.100
7.600	-11.165	0.100
7.700	-27.445	0.100
7.800	-2.552	0.100
7.900	-11.198	0.100
8.000	-11.813	0.100
8.100	-3.076	0.100
8.200	-24.445	0.100
8.300	10.485	0.100
8.400	-35.699	0.100
8.500	8.365	0.101
8.600	-28.604	0.100
8.700	9.448	0.100
8.800	7.327	0.100
8.900	-33.080	0.100
9.000	3.683	0.100
9.100	-2.469	0.100
9.200	3.415	0.100
9.300	5.450	0.100
9.400	-10.643	0.100
9.500	-27.576	0.100
9.600	-13.162	0.100
9.700	-9.468	0.100
9.800	11.023	0.100
9.900	-5.353	0.100
10.000	-13.462	0.100
10.100	-23.104	0.100
10.200	23.341	0.100
10.300	-8.144	0.100
10.400	-6.719	0.100
10.500	-2.345	0.100
10.600	19.990	0.100
10.700	1.981	0.100
10.800	-10.859	0.100
10.900	-21.024	0.100
11.000	1.764	0.100
11.100	-9.467	0.100
11.200	-34.965	0.100
11.300	10.471	0.100
11.400	-23.682	0.100
11.500	0.164	0.100
11.600	9.465	0.100
11.700	21.382	0.100
11.800	13.826	0.100
11.900	-49.752	0.100
12.000	5.085	0.100
12.100	7.461	0.100
12.200	1.717	0.100
12.300	-3.669	0.100
12.400	-17.776	0.100
12.500	-25.112	0.100
12.600	6.849	0.100
12.700	-15.748	0.100
12.800	-10.170	0.100
12.900	1.700	0.100
13.000	7.887	0.100
13.100	-15.514	0.100
13.200	16.353	0.100
13.300	11.261	0.100
13.400	20.072	0.100
13.500	-11.834	0.101
13.600	-5.106	0.100
13.700	9.619	0.100
13.800	7.314	0.100
13.900	-3.114	0.100
14.000	-4.995	0.100
14.100	-37.585	0.100
14.200	-13.225	0.100
14.300	31.238	0.100
14.400	-24.511	0.100
14.500	0.081	0.101
14.600	-18.950	0.100
14.700	-5.316	0.100
14.800	0.394	0.100
14.900	-0.940	0.100
15.000	-0.418	0.100
15.100	-20.480	0.100
15.200	-7.379	0.100
15.300	-31.163	0.100
15.400	-6.320	0.100
15.500	-15.051	0.100
15.600	-7.942	0.100
15.700	13.503	0.100
15.800	-28.281	0.100
15.900	-4.052	0.100
16.000	1.881	0.100
16.100	-16.126	0.100
16.200	-9.408	0.100
16.300	0.555	0.100
16.400	7.870	0.100
16.500	-22.119	0.100
16.600	-6.613	0.100
16.700	16.864	0.100
16.800	-18.264	0.101
16.900	-32.360	0.100
17.000	-22.623	0.100
17.100	25.577	0.100
17.200	-48.557	0.100
17.300	-21.228	0.100
17.400	-4.050	0.100
17.500	18.629	0.101
17.600	-5.923	0.100
17.700	4.169	0.100
17.800	-32.447	0.100
17.900	6.033	0.100
18.000	-7.169	0.100
18.100	-35.878	0.100
18.200	19.944	0.100
18.300	-12.908	0.101
18.400	-24.042	0.100
18.500	-6.236	0.100
18.600	-2.652	0.100
18.700	39.461	0.100
18.800	9.204	0.100
18.900	2.451	0.100
19.000	4.476	0.100
19.100	19.821	0.100
19.200	-29.986	0.100
19.300	18.333	0.100
19.400	16.881	0.100
19.500	-17.882	0.100
19.600	17.328	0.100
19.700	-29.690	0.100
19.800	-1.490	0.100
19.900	-16.090	0.100
20.000	-12.778	0.100
20.100	-4.712	0.101
20.200	-9.797	0.100
20.300	-0.817	0.100
20.400	9.104	0.100
20.500	24.175	0.100
20.600	-7.574	0.100
20.700	-14.550	0.100
20.800	-20.618	0.100
20.900	-6.094	0.100
21.000	13.000	0.100
21.100	-26.603	0.100
21.200	-31.345	0.100
21.300	-14.377	0.101
21.400	-32.967	0.101
21.500	17.402	0.100
21.600	1.439	0.100
21.700	-5.889	0.100
21.800	1.058	0.100
21.900	-17.083	0.100
22.000	12.405	0.100
22.100	28.980	0.100
22.200	-10.790	0.100
22.300	-17.211	0.100
22.400	-17.004	0.101
22.500	31.034	0.100
22.600	-2.508	0.100
22.700	12.162	0.100
22.800	21.480	0.101
22.900	-22.941	0.100
23.000	1.054	0.100
23.100	-22.651	0.100
23.200	-17.242	0.100
23.300	-10.948	0.100
23.400	-14.046	0.100
23.500	-39.585	0.100
23.600	-2.014	0.100
23.700	-20.429	0.100
23.800	26.359	0.100
23.900	-34.803	0.100
24.000	7.190	0.100
24.100	-35.283	0.100
24.200	-7.042	0.100
24.300	-38.221	0.101
24.400	-2.394	0.100
24.500	9.684	0.100
24.600	-16.777	0.100
24.700	-35.837	0.100
24.800	24.475	0.100
24.900	-4.162	0.100
25.000	-30.721	0.100
25.100	50.282	0.100
25.200	-19.298	0.100
25.300	36.107	0.100
25.400	-16.249	0.100
25.500	-17.618	0.100
25.600	-25.373	0.100
25.700	5.396	0.100
25.800	2.245	0.100
25.900	26.472	0.100
26.000	2.688	0.100
26.100	19.859	0.100
26.200	-5.356	0.100
26.300	15.552	0.100
26.400	-11.163	0.100
26.500	11.398	0.100
26.600	22.334	0.100
26.700	-2.145	0.100
26.800	10.579	0.100
26.900	7.515	0.100
27.000	3.554	0.100
27.100	-0.256	0.100
27.200	18.701	0.100
27.300	24.882	0.100
27.400	14.729	0.100
27.500	-8.569	0.100
27.600	1.108	0.100
27.700	-23.428	0.101
27.800	-15.405	0.100
27.900	12.339	0.100
28.000	-10.669	0.100
28.100	-1.973	0.100
28.200	-20.810	0.100
28.300	8.845	0.100
28.400	16.807	0.100
28.500	-11.404	0.100
28.600	5.625	0.100
28.700	-9.337	0.100
28.800	12.888	0.100
28.900	-19.248	0.100
29.000	-11.382	0.100
29.100	-3.087	0.100
29.200	2.589	0.100
29.300	-11.824	0.100
29.400	1.333	0.100
29.500	-14.770	0.100
29.600	36.261	0.100
29.700	5.548	0.100
29.800	-20.152	0.100
29.900	11.683	0.100
30.000	35.702	0.100
30.100	0.485	0.100
30.200	-42.680	0.100
30.300	-20.455	0.100
30.400	-7.469	0.100
30.500	2.475	0.100
30.600	-2.633	0.100
30.700	11.756	0.100
30.800	33.789	0.100
30.900	4.154	0.100
31.000	-16.025	0.101
31.100	4.699	0.100
31.200	5.622	0.100
31.300	-21.117	0.100
31.400	22.883	0.100
31.500	-2.642	0.100
31.600	10.869	0.100
31.700	-10.793	0.100
31.800	2.702	0.100
31.900	-15.494	0.100
32.000	-19.756	0.100
32.100	2.880	0.100
32.200	33.056	0.100
32.300	-3.853	0.100
32.400	9.386	0.100
32.500	-5.001	0.100
32.600	-31.146	0.100
32.700	-28.519	0.100
32.800	-11.342	0.100
32.900	10.026	0.100
33.000	-26.711	0.100
33.100	10.780	0.100
33.200	-43.096	0.100
33.300	13.933	0.100
33.400	-8.414	0.100
33.500	-7.741	0.100
33.600	7.201	0.100
33.700	-11.312	0.100
33.800	9.136	0.100
33.900	8.335	0.100
34.000	2.772	0.100
34.100	5.889	0.100
34.200	-3.764	0.100
34.300	17.685	0.100
34.400	8.616	0.100
34.500	-8.084	0.100
34.600	27.168	0.100
34.700	12.528	0.101
34.800	3.055	0.100
34.900	14.941	0.100
35.000	12.857	0.101
35.100	-0.882	0.100
35.200	-15.845	0.100
35.300	8.167	0.101
35.400	12.326	0.100
35.500	-7.119	0.100
35.600	-6.936	0.100
35.700	-8.300	0.100
35.800	-0.560	0.100
35.900	-1.293	0.100
36.000	13.701	0.100
36.100	15.549	0.100
36.200	-13.109	0.100
36.300	41.854	0.100
36.400	15.565	0.100
36.500	-30.073	0.100
36.600	24.706	0.100
36.700	-1.645	0.100
36.800	-8.680	0.101
36.900	-2.026	0.100
37.000	-29.214	0.100
37.100	17.257	0.100
37.200	-22.177	0.100
37.300	-2.106	0.100
37.400	-37.679	0.100
37.500	-3.237	0.101
37.600	40.456	0.100
37.700	-17.499	0.100
37.800	-14.743	0.100
37.900	24.755	0.100
38.000	19.033	0.100
38.100	45.521	0.100
38.200	9.871	0.100
38.300	5.313	0.100
38.400	-0.765	0.100
38.500	-2.689	0.100
38.600	30.455	0.100
38.700	10.160	0.100
38.800	9.883	0.100
38.900	-34.909	0.100
39.000	15.293	0.100
39.100	34.465	0.100
39.200	-14.840	0.100
39.300	0.448	0.100
39.400	10.861	0.100
39.500	1.427	0.100
39.600	14.885	0.100
39.700	57.900	0.100
39.800	25.543	0.100
39.900	5.879	0.101
40.000	23.799	0.100
40.100	-27.625	0.100
40.200	13.961	0.100
40.300	10.044	0.101
40.400	13.939	0.100
40.500	16.945	0.100
40.600	14.430	0.100
40.700	1.260	0.100
40.800	9.968	0.100
40.900	34.946	0.100
41.000	23.270	0.100
41.100	1.660	0.100
41.200	18.432	0.100
41.300	-16.375	0.100
41.400	11.868	0.100
41.500	15.033	0.100
41.600	10.287	0.100
41.700	17.459	0.100
41.800	9.438	0.100
41.900	18.367	0.100
42.000	9.696	0.100
42.100	26.678	0.100
42.200	-9.597	0.100
42.300	-9.075	0.100
42.400	-17.459	0.101
42.500	18.040	0.100
42.600	-7.178	0.100
42.700	4.665	0.100
42.800	1.846	0.101
42.900	3.573	0.100
43.000	6.946	0.100
43.100	11.640	0.100
43.200	20.585	0.100
43.300	26.671	0.100
43.400	-2.346	0.100
43.500	5.367	0.100
43.600	-21.519	0.100
43.700	1.153	0.100
43.800	-11.539	0.100
43.900	11.815	0.100
44.000	-1.091	0.100
44.100	-0.743	0.100
44.200	-13.021	0.100
44.300	-14.530	0.100
44.400	4.255	0.100
44.500	16.882	0.100
44.600	30.182	0.100
44.700	12.588	0.100
44.800	18.704	0.100
44.900	33.319	0.100
45.000	-5.317	0.100
45.100	-8.291	0.100
45.200	26.841	0.100
45.300	-10.547	0.100
45.400	29.572	0.100
45.500	5.718	0.100
45.600	18.092	0.100
45.700	-0.060	0.100
45.800	3.786	0.100
45.900	17.129	0.100
46.000	35.806	0.100
46.100	3.241	0.100
46.200	-0.053	0.100
46.300	8.610	0.100
46.400	7.496	0.100
46.500	-16.556	0.100
46.600	13.492	0.100
46.700	28.852	0.100
46.800	-6.875	0.100
46.900	-39.810	0.100
47.000	12.955	0.100
47.100	31.697	0.100
47.200	0.483	0.100
47.300	33.352	0.100
47.400	1.291	0.100
47.500	27.289	0.100
47.600	-13.690	0.100
47.700	-6.509	0.100
47.800	22.416	0.100
47.900	46.046	0.100
48.000	-0.783	0.100
48.100	29.344	0.100
48.200	10.016	0.100
48.300	21.513	0.100
48.400	19.696	0.100
48.500	-14.838	0.100
48.600	9.188	0.100
48.700	6.614	0.100
48.800	32.606	0.100
48.900	2.822	0.100
49.000	26.007	0.100
49.100	-5.468	0.100
49.200	5.684	0.100
49.300	10.711	0.100
49.400	-0.814	0.100
49.500	-7.863	0.100
49.600	-0.168	0.100
49.700	-1.558	0.100
49.800	12.693	0.100
49.900	24.264	0.100
50.000	14.828	0.100
50.100	29.194	0.100
50.200	32.602	0.101
50.300	14.906	0.100
50.400	31.349	0.100
50.500	3.329	0.100
50.600	1.376	0.100
50.700	-9.563	0.100
50.800	21.556	0.100
50.900	17.196	0.100
51.000	-1.085	0.100
51.100	-0.513	0.100
51.200	6.153	0.101
51.300	1.527	0.100
51.400	-6.482	0.100
51.500	30.745	0.100
51.600	23.499	0.100
51.700	15.546	0.100
51.800	26.549	0.101
51.900	1.188	0.100
52.000	5.384	0.100
52.100	19.903	0.101
52.200	33.549	0.100
52.300	37.893	0.101
52.400	3.622	0.100
52.500	-17.274	0.100
52.600	25.749	0.100
52.700	-2.896	0.100
52.800	39.805	0.100
52.900	-25.606	0.101
53.000	8.764	0.101
53.100	11.472	0.100
53.200	18.754	0.100
53.300	28.557	0.100
53.400	22.374	0.100
53.500	-3.988	0.100
53.600	23.967	0.100
53.700	14.484	0.100
53.800	4.191	0.100
53.900	15.894	0.100
54.000	-12.317	0.100
54.100	-9.127	0.100
54.200	14.066	0.100
54.300	47.563	0.100
54.400	30.196	0.100
54.500	30.688	0.100
54.600	36.314	0.100
54.700	9.278	0.100
54.800	-16.433	0.100
54.900	13.356	0.100
55.000	40.129	0.100
55.100	0.555	0.100
55.200	12.007	0.100
55.300	29.060	0.100
55.400	15.686	0.100
55.500	31.102	0.100
55.600	-21.605	0.100
55.700	6.817	0.100
55.800	20.773	0.100
55.900	13.475	0.101
56.000	21.782	0.100
56.100	-15.773	0.100
56.200	26.455	0.100
56.300	17.033	0.101
56.400	20.503	0.100
56.500	29.038	0.100
56.600	1.104	0.100
56.700	2.626	0.100
56.800	16.312	0.100
56.900	7.491	0.100
57.000	8.656	0.100
57.100	17.924	0.100
57.200	14.886	0.100
57.300	31.802	0.100
57.400	6.734	0.100
57.500	17.254	0.100
57.600	14.531	0.101
57.700	16.993	0.100
57.800	12.621	0.100
57.900	18.651	0.100
58.000	3.042	0.101
58.100	28.832	0.100
58.200	32.898	0.101
58.300	14.659	0.101
58.400	20.751	0.100
58.500	27.426	0.100
58.600	-2.269	0.100
58.700	47.000	0.100
58.800	21.646	0.100
58.900	1.651	0.100
59.000	18.546	0.100
59.100	14.014	0.100
59.200	7.627	0.100
59.300	28.321	0.100
59.400	24.504	0.100
59.500	39.915	0.100
59.600	15.644	0.100
59.700	15.690	0.100
59.800	14.302	0.100
59.900	16.975	0.100
60.000	51.117	0.100
60.100	7.371	0.100
60.200	32.591	0.100
60.300	-6.350	0.100
60.400	19.305	0.100
60.500	38.561	0.100
60.600	3.365	0.100
60.700	27.230	0.100
60.800	9.830	0.100
60.900	18.256	0.100
61.000	33.947	0.100
61.100	-1.786	0.100
61.200	18.777	0.100
61.300	13.176	0.100
61.400	49.370	0.100
61.500	1.697	0.100
61.600	-2.279	0.100
61.700	8.613	0.100
61.800	9.074	0.101
61.900	6.654	0.100
62.000	43.598	0.100
62.100	23.034	0.100
62.200	-0.329	0.100
62.300	35.788	0.100
62.400	12.855	0.100
62.500	4.199	0.100
62.600	23.837	0.101
62.700	37.411	0.101
62.800	20.467	0.100
62.900	2.585	0.100
63.000	70.364	0.100
63.100	-4.100	0.100
63.200	24.023	0.100
63.300	6.047	0.100
63.400	9.476	0.100
63.500	-5.006	0.100
63.600	20.694	0.100
63.700	6.849	0.101
63.800	32.864	0.100
63.900	-25.571	0.100
64.000	19.333	0.100
64.100	19.966	0.100
64.200	33.635	0.100
64.300	47.099	0.101
64.400	17.858	0.100
64.500	0.007	0.101
64.600	9.088	0.100
64.700	20.310	0.100
64.800	33.922	0.100
64.900	30.007	0.100
65.000	23.458	0.101
65.100	44.252	0.100
65.200	7.932	0.100
65.300	6.828	0.100
65.400	32.516	0.100
65.500	6.466	0.100
65.600	42.498	0.100
65.700	28.644	0.100
65.800	-4.264	0.101
65.900	35.355	0.101
66.000	17.041	0.101
66.100	23.979	0.101
66.200	0.236	0.100
66.300	23.687	0.101
66.400	-0.029	0.101
66.500	1.789	0.101
66.600	26.655	0.101
66.700	-1.971	0.100
66.800	46.618	0.101
66.900	23.274	0.100
67.000	21.340	0.101
67.100	-11.359	0.101
67.200	2.563	0.101
67.300	11.161	0.101
67.400	5.480	0.101
67.500	21.266	0.101
67.600	13.516	0.101
67.700	-15.345	0.101
67.800	40.183	0.101
67.900	21.275	0.101
68.000	21.061	0.101
68.100	-12.811	0.100
68.200	46.707	0.100
68.300	34.522	0.100
68.400	6.521	0.100
68.500	-2.905	0.101
68.600	-2.489	0.101
68.700	36.501	0.101
68.800	3.654	0.101
68.900	36.179	0.100
69.000	20.131	0.101
69.100	16.067	0.101
69.200	20.631	0.101
69.300	36.479	0.101
69.400	14.365	0.101
69.500	9.447	0.101
69.600	9.493	0.101
69.700	19.574	0.101
69.800	19.875	0.101
69.900	33.300	0.101
70.000	12.642	0.100
70.100	30.693	0.101
70.200	34.041	0.101
70.300	19.345	0.101
70.400	36.905	0.101
70.500	43.474	0.101
70.600	0.197	0.101
70.700	45.501	0.101
70.800	0.259	0.100
70.900	25.859	0.101
71.000	7.226	0.100
71.100	39.498	0.101
71.200	27.175	0.101
71.300	14.578	0.100
71.400	45.369	0.101
71.500	32.885	0.101
71.600	26.021	0.100
71.700	26.928	0.101
71.800	-21.936	0.100
71.900	15.341	0.100
72.000	13.027	0.101
72.100	20.547	0.101
72.200	-1.049	0.101
72.300	16.538	0.101
72.400	40.181	0.100
72.500	5.250	0.100
72.600	33.820	0.101
72.700	38.750	0.101
72.800	10.233	0.101
72.900	33.194	0.100
73.000	40.309	0.101
73.100	14.552	0.100
73.200	11.565	0.101
73.300	12.644	0.101
73.400	21.131	0.101
73.500	12.275	0.100
73.600	29.053	0.101
73.700	23.774	0.101
73.800	15.865	0.101
73.900	4.060	0.101
74.000	41.552	0.101
74.100	30.639	0.101
74.200	-0.686	0.101
74.300	28.895	0.100
74.400	-0.112	0.100
74.500	50.573	0.101
74.600	23.032	0.101
74.700	32.545	0.101
74.800	18.807	0.101
74.900	33.707	0.101
75.000	15.983	0.101
75.100	5.387	0.100
75.200	15.018	0.101
75.300	21.307	0.101
75.400	25.107	0.101
75.500	38.934	0.101
75.600	29.363	0.101
75.700	23.420	0.101
75.800	19.202	0.101
75.900	14.643	0.100
76.000	23.287	0.100
76.100	26.954	0.100
76.200	16.147	0.100
76.300	46.606	0.101
76.400	13.288	0.101
76.500	20.837	0.100
76.600	26.160	0.101
76.700	-0.934	0.101
76.800	20.652	0.100
76.900	12.401	0.101
77.000	28.870	0.100
77.100	50.188	0.101
77.200	-0.040	0.100
77.300	27.880	0.101
77.400	25.599	0.100
77.500	40.867	0.101
77.600	23.693	0.101
77.700	34.547	0.101
77.800	27.403	0.101
77.900	10.237	0.101
78.000	42.947	0.101
78.100	14.378	0.100
78.200	28.923	0.100
78.300	31.837	0.101
78.400	5.565	0.100
78.500	36.626	0.101
78.600	-2.117	0.101
78.700	10.590	0.101
78.800	58.402	0.101
78.900	21.531	0.100
79.000	40.989	0.100
79.100	20.294	0.101
79.200	31.346	0.101
79.300	41.446	0.100
79.400	35.540	0.101
79.500	-15.942	0.100
79.600	22.227	0.101
79.700	16.517	0.101
79.800	36.216	0.101
79.900	28.411	0.101
80.000	50.694	0.100
80.100	16.216	0.101
80.200	16.015	0.101
80.300	29.508	0.101
80.400	33.104	0.101
80.500	54.155	0.100
80.600	24.135	0.100
80.700	18.656	0.100
80.800	40.154	0.100
80.900	57.608	0.100
81.000	38.007	0.100
81.100	6.901	0.101
81.200	58.336	0.101
81.300	34.505	0.101
81.400	38.943	0.100
81.500	53.842	0.101
81.600	18.709	0.101
81.700	29.835	0.101
81.800	6.973	0.100
81.900	13.022	0.101
82.000	61.182	0.101
82.100	18.494	0.100
82.200	19.606	0.100
82.300	26.328	0.100
82.400	29.713	0.100
82.500	10.874	0.101
82.600	17.754	0.100
82.700	49.871	0.101
82.800	20.487	0.101
82.900	38.613	0.101
83.000	19.556	0.101
83.100	29.823	0.101
83.200	23.247	0.100
83.300	45.985	0.100
83.400	66.773	0.101
83.500	49.040	0.101
83.600	23.812	0.101
83.700	56.020	0.101
83.800	40.351	0.100
83.900	34.719	0.100
84.000	3.930	0.101
84.100	34.244	0.101
84.200	41.937	0.101
84.300	34.666	0.100
84.400	44.519	0.101
84.500	20.298	0.101
84.600	28.945	0.101
84.700	10.157	0.101
84.800	0.848	0.101
84.900	32.386	0.100
85.000	50.643	0.101
85.100	31.336	0.101
85.200	30.141	0.101
85.300	34.125	0.101
85.400	7.908	0.101
85.500	6.493	0.100
85.600	49.879	0.100
85.700	44.142	0.101
85.800	55.431	0.101
85.900	-2.573	0.101
86.000	21.017	0.100
86.100	29.465	0.101
86.200	43.315	0.101
86.300	29.221	0.101
86.400	40.444	0.101
86.500	29.123	0.101
86.600	8.269	0.101
86.700	9.560	0.100
86.800	11.444	0.101
86.900	50.834	0.101
87.000	33.109	0.101
87.100	35.748	0.101
87.200	34.676	0.101
87.300	32.481	0.101
87.400	33.717	0.101
87.500	-15.180	0.101
87.600	41.262	0.101
87.700	35.240	0.101
87.800	20.746	0.101
87.900	25.441	0.101
88.000	25.652	0.101
88.100	37.864	0.101
88.200	22.851	0.101
88.300	53.894	0.101
88.400	21.350	0.101
88.500	79.246	0.101
88.600	49.213	0.101
88.700	29.901	0.101
88.800	35.080	0.101
88.900	62.836	0.101
89.000	33.530	0.100
89.100	34.811	0.101
89.200	32.162	0.101
89.300	43.552	0.101
89.400	43.984	0.101
89.500	32.349	0.101
89.600	58.201	0.101
89.700	44.652	0.101
89.800	35.425	0.101
89.900	45.500	0.101
90.000	27.825	0.101
90.100	26.833	0.101
90.200	29.995	0.101
90.300	26.571	0.101
90.400	32.461	0.101
90.500	34.935	0.101
90.600	17.757	0.101
90.700	38.184	0.101
90.800	44.091	0.101
90.900	33.228	0.101
91.000	61.094	0.101
91.100	32.636	0.101
91.200	19.249	0.101
91.300	26.278	0.101
91.400	28.421	0.101
91.500	47.725	0.101
91.600	14.009	0.101
91.700	44.990	0.101
91.800	34.623	0.101
91.900	21.528	0.101
92.000	30.543	0.101
92.100	32.913	0.101
92.200	13.683	0.101
92.300	40.336	0.101
92.400	9.771	0.101
92.500	21.480	0.101
92.600	23.416	0.101
92.700	41.734	0.101
92.800	39.561	0.101
92.900	30.350	0.101
93.000	26.651	0.101
93.100	55.784	0.101
93.200	19.746	0.101
93.300	23.029	0.101
93.400	16.710	0.101
93.500	5.742	0.101
93.600	9.441	0.101
93.700	-2.693	0.101
93.800	15.649	0.101
93.900	70.113	0.101
94.000	7.980	0.101
94.100	30.668	0.101
94.200	43.396	0.101
94.300	35.829	0.101
94.400	49.670	0.101
94.500	43.010	0.101
94.600	9.850	0.101
94.700	-2.999	0.101
94.800	38.799	0.101
94.900	25.956	0.101
95.000	28.672	0.101
95.100	-12.176	0.101
95.200	14.147	0.101
95.300	56.034	0.101
95.400	6.554	0.101
95.500	18.757	0.101
95.600	14.611	0.101
95.700	32.653	0.101
95.800	-8.216	0.101
95.900	45.403	0.101
96.000	66.329	0.101
96.100	13.171	0.101
96.200	10.975	0.101
96.300	6.965	0.101
96.400	24.434	0.101
96.500	47.409	0.101
96.600	33.034	0.101
96.700	26.784	0.101
96.800	15.798	0.101
96.900	23.052	0.101
97.000	30.447	0.101
97.100	4.916	0.101
97.200	45.199	0.101
97.300	26.836	0.101
97.400	37.679	0.101
97.500	23.027	0.101
97.600	9.643	0.101
97.700	39.843	0.101
97.800	27.023	0.101
97.900	35.622	0.101
98.000	44.349	0.101
98.100	1.718	0.101
98.200	32.340	0.101
98.300	35.303	0.101
98.400	13.927	0.101
98.500	18.525	0.101
98.600	13.246	0.101
98.700	44.849	0.101
98.800	16.776	0.101
98.900	22.380	0.101
99.000	-2.916	0.101
99.100	42.938	0.101
99.200	28.015	0.101
99.300	42.967	0.101
99.400	29.650	0.101
99.500	33.146	0.101
99.600	25.608	0.101
99.700	26.525	0.101
99.800	33.403	0.101
99.900	-10.745	0.101
100.000	19.833	0.101
100.100	41.960	0.101
100.200	5.585	0.101
100.300	48.402	0.101
100.400	36.874	0.101
100.500	0.549	0.101
100.600	-17.616	0.101
100.700	27.211	0.101
100.800	41.489	0.101
100.900	28.946	0.101
101.000	16.398	0.101
101.100	7.312	0.101
101.200	41.067	0.101
101.300	40.925	0.101
101.400	44.829	0.101
101.500	22.906	0.101
101.600	27.658	0.101
101.700	34.708	0.101
101.800	26.139	0.101
101.900	23.593	0.101
102.000	36.756	0.101
102.100	36.942	0.101
102.200	2.857	0.101
102.300	12.541	0.101
102.400	17.826	0.101
102.500	33.946	0.101
102.600	16.699	0.101
102.700	43.464	0.101
102.800	43.920	0.101
102.900	15.077	0.101
103.000	43.264	0.101
103.100	25.704	0.101
103.200	26.785	0.101
103.300	5.275	0.101
103.400	27.369	0.101
103.500	1.268	0.101
103.600	32.080	0.101
103.700	6.955	0.101
103.800	4.740	0.101
103.900	7.691	0.101
104.000	14.745	0.101
104.100	4.690	0.101
104.200	32.936	0.101
104.300	1.716	0.101
104.400	29.307	0.101
104.500	25.691	0.101
104.600	16.285	0.101
104.700	23.989	0.101
104.800	55.774	0.101
104.900	21.546	0.101
105.000	55.492	0.101
105.100	34.551	0.101
105.200	11.237	0.101
105.300	8.447	0.101
105.400	59.880	0.101
105.500	28.715	0.101
105.600	18.603	0.101
105.700	38.408	0.101
105.800	0.396	0.101
105.900	22.568	0.101
106.000	17.227	0.101
106.100	27.201	0.101
106.200	21.070	0.101
106.300	15.217	0.101
106.400	-1.522	0.101
106.500	30.524	0.101
106.600	16.077	0.101
106.700	31.392	0.101
106.800	-3.546	0.101
106.900	-7.711	0.101
107.000	50.597	0.101
107.100	37.546	0.101
107.200	37.503	0.101
107.300	17.604	0.101
107.400	15.788	0.101
107.500	30.398	0.101
107.600	20.482	0.101
107.700	23.226	0.101
107.800	27.930	0.101
107.900	17.909	0.101
108.000	27.174	0.101
108.100	27.215	0.101
108.200	23.556	0.101
108.300	42.301	0.101
108.400	3.049	0.101
108.500	54.343	0.101
108.600	-5.372	0.101
108.700	38.639	0.101
108.800	23.894	0.101
108.900	42.563	0.101
109.000	43.225	0.101
109.100	37.473	0.101
109.200	23.009	0.101
109.300	6.927	0.101
109.400	28.804	0.101
109.500	34.257	0.101
109.600	12.273	0.101
109.700	33.414	0.101
109.800	24.595	0.101
109.900	37.892	0.101
110.000	30.209	0.101
110.100	22.227	0.101
110.200	-0.505	0.101
110.300	7.861	0.101
110.400	56.588	0.101
110.500	19.772	0.101
110.600	2.861	0.101
110.700	7.318	0.101
110.800	28.038	0.101
110.900	35.821	0.101
111.000	11.503	0.101
111.100	29.146	0.101
111.200	60.146	0.101
111.300	17.127	0.101
111.400	57.261	0.101
111.500	12.995	0.101
111.600	22.713	0.101
111.700	31.483	0.101
111.800	10.716	0.101
111.900	6.476	0.101
112.000	40.752	0.101
112.100	26.051	0.101
112.200	63.428	0.101
112.300	54.587	0.101
112.400	-1.293	0.101
112.500	42.994	0.101
112.600	4.196	0.101
112.700	32.996	0.101
112.800	37.638	0.101
112.900	-0.634	0.101
113.000	23.351	0.101
113.100	37.471	0.101
113.200	23.281	0.101
113.300	41.160	0.101
113.400	1.574	0.101
113.500	5.402	0.101
113.600	28.024	0.101
113.700	40.566	0.101
113.800	15.520	0.101
113.900	12.625	0.101
114.000	15.964	0.101
114.100	22.232	0.101
114.200	30.397	0.101
114.300	25.145	0.101
114.400	32.333	0.101
114.500	28.469	0.101
114.600	39.391	0.101
114.700	-3.759	0.101
114.800	8.483	0.101
114.900	33.261	0.101
115.000	29.539	0.101
115.100	12.499	0.101
115.200	2.165	0.101
115.300	38.449	0.101
115.400	24.624	0.101
115.500	14.711	0.101
115.600	46.611	0.101
115.700	37.652	0.101
115.800	40.428	0.101
115.900	26.711	0.101
116.000	17.371	0.101
116.100	40.335	0.101
116.200	39.850	0.101
116.300	-13.457	0.101
116.400	-9.525	0.101
116.500	-6.545	0.101
116.600	17.140	0.101
116.700	19.728	0.101
116.800	44.656	0.101
116.900	12.612	0.101
117.000	9.982	0.101
117.100	45.570	0.101
117.200	35.352	0.101
117.300	12.054	0.101
117.400	31.968	0.101
117.500	24.961	0.101
117.600	42.386	0.101
117.700	-5.761	0.101
117.800	-4.466	0.101
117.900	10.889	0.101
118.000	25.230	0.101
118.100	11.652	0.101
118.200	10.315	0.101
118.300	18.931	0.101
118.400	5.166	0.101
118.500	39.382	0.101
118.600	60.582	0.101
118.700	18.350	0.101
118.800	18.637	0.101
118.900	22.621	0.101
119.000	2.029	0.101
119.100	16.861	0.101
119.200	11.584	0.101
119.300	41.235	0.101
119.400	32.734	0.101
119.500	26.778	0.101
119.600	11.410	0.101
119.700	44.807	0.101
119.800	6.985	0.101
119.900	24.390	0.101
120.000	1.872	0.101
120.100	-16.102	0.101
120.200	18.364	0.101
120.300	16.944	0.101
120.400	22.032	0.101
120.500	20.422	0.101
120.600	21.141	0.101
120.700	26.964	0.101
120.800	-12.477	0.101
120.900	31.827	0.101
121.000	27.880	0.101
121.100	1.180	0.101
121.200	13.834	0.101
121.300	30.524	0.101
121.400	29.373	0.101
121.500	24.864	0.101
121.600	35.156	0.101
121.700	-10.031	0.101
121.800	9.464	0.101
121.900	0.545	0.101
122.000	26.005	0.101
122.100	25.395	0.101
122.200	-11.637	0.101
122.300	52.247	0.101
122.400	-12.558	0.101
122.500	23.067	0.101
122.600	-5.802	0.101
122.700	-15.873	0.101
122.800	33.444	0.101
122.900	-3.507	0.101
123.000	33.868	0.101
123.100	12.935	0.101
123.200	6.142	0.101
123.300	24.012	0.101
123.400	11.682	0.101
123.500	26.125	0.101
123.600	9.526	0.101
123.700	32.002	0.101
123.800	22.919	0.101
123.900	13.271	0.101
124.000	4.616	0.101
124.100	29.906	0.101
124.200	16.427	0.101
124.300	5.479	0.101
124.400	18.922	0.101
124.500	15.302	0.101
124.600	24.082	0.101
124.700	17.125	0.101
124.800	12.290	0.101
124.900	41.836	0.101
125.000	12.829	0.101
125.100	26.897	0.101
125.200	17.745	0.101
125.300	17.786	0.101
125.400	-0.809	0.101
125.500	8.123	0.101
125.600	44.036	0.101
125.700	40.336	0.101
125.800	53.586	0.101
125.900	10.524	0.101
126.000	10.939	0.101
126.100	21.269	0.101
126.200	23.083	0.101
126.300	27.588	0.101
126.400	42.430	0.101
126.500	-16.094	0.101
126.600	18.226	0.101
126.700	28.481	0.101
126.800	-5.345	0.101
126.900	48.131	0.101
127.000	7.520	0.101
127.100	57.741	0.101
127.200	-10.449	0.101
127.300	28.139	0.101
127.400	7.024	0.101
127.500	14.947	0.101
127.600	34.931	0.101
127.700	-6.703	0.101
127.800	3.400	0.101
127.900	19.232	0.101
128.000	25.054	0.101
128.100	24.908	0.101
128.200	-5.572	0.101
128.300	10.742	0.101
128.400	10.591	0.101
128.500	33.725	0.101
128.600	-12.234	0.101
128.700	-12.209	0.101
128.800	8.207	0.101
128.900	30.590	0.101
129.000	-30.120	0.101
129.100	36.370	0.101
129.200	15.624	0.101
129.300	-7.181	0.101
129.400	14.864	0.101
129.500	-7.042	0.101
129.600	16.265	0.101
129.700	21.810	0.101
129.800	10.695	0.101
129.900	34.236	0.101
130.000	20.391	0.101
130.100	8.756	0.101
130.200	31.053	0.101
130.300	7.333	0.101
130.400	16.687	0.101
130.500	16.081	0.101
130.600	18.964	0.101
130.700	10.385	0.101
130.800	34.276	0.101
130.900	15.556	0.101
131.000	4.298	0.101
131.100	-1.883	0.101
131.200	55.479	0.101
131.300	28.711	0.101
131.400	13.538	0.101
131.500	3.345	0.101
131.600	27.368	0.101
131.700	10.683	0.101
131.800	-8.109	0.101
131.900	-5.282	0.101
132.000	21.492	0.101
132.100	9.610	0.101
132.200	18.696	0.101
132.300	-18.493	0.101
132.400	15.369	0.101
132.500	4.124	0.101
132.600	11.614	0.101
132.700	53.593	0.101
132.800	2.252	0.101
132.900	20.783	0.101
133.000	12.195	0.101
133.100	-16.842	0.101
133.200	31.229	0.101
133.300	7.150	0.101
133.400	0.719	0.101
133.500	28.614	0.101
133.600	-14.100	0.101
133.700	24.287	0.101
133.800	10.228	0.101
133.900	42.520	0.101
134.000	0.291	0.101
134.100	21.696	0.101
134.200	13.347	0.101
134.300	25.697	0.101
134.400	3.164	0.101
134.500	21.585	0.101
134.600	-5.890	0.101
134.700	36.614	0.101
134.800	-10.869	0.101
134.900	20.584	0.101
135.000	-21.385	0.101
135.100	21.884	0.101
135.200	-14.074	0.101
135.300	8.725	0.101
135.400	-5.319	0.101
135.500	40.425	0.101
135.600	-21.653	0.101
135.700	15.875	0.101
135.800	7.660	0.101
135.900	16.732	0.101
136.000	16.268	0.101
136.100	-21.166	0.101
136.200	-7.691	0.101
136.300	42.237	0.101
136.400	8.631	0.101
136.500	-12.761	0.101
136.600	-0.771	0.101
136.700	-2.064	0.101
136.800	-1.134	0.101
136.900	18.753	0.101
137.000	42.430	0.101
137.100	17.940	0.101
137.200	24.833	0.101
137.300	-26.990	0.101
137.400	8.638	0.101
137.500	6.007	0.101
137.600	10.800	0.101
137.700	12.086	0.101
137.800	19.405	0.101
137.900	11.189	0.101
138.000	7.832	0.101
138.100	26.521	0.101
138.200	28.725	0.101
138.300	38.430	0.101
138.400	-15.435	0.101
138.500	-3.148	0.101
138.600	11.463	0.101
138.700	0.810	0.101
138.800	19.881	0.101
138.900	37.269	0.101
139.000	-12.390	0.101
139.100	14.540	0.101
139.200	9.515	0.101
139.300	-19.302	0.101
139.400	-2.343	0.101
139.500	-4.780	0.101
139.600	12.666	0.101
139.700	18.346	0.101
139.800	-3.199	0.101
139.900	-6.035	0.101
140.000	8.418	0.101
140.100	17.941	0.101
140.200	33.401	0.101
140.300	6.295	0.101
140.400	-18.727	0.101
140.500	15.718	0.101
140.600	34.337	0.101
140.700	-10.480	0.101
140.800	3.502	0.101
140.900	-3.319	0.101
141.000	32.580	0.101
141.100	31.401	0.101
141.200	20.507	0.101
141.300	4.027	0.101
141.400	-0.839	0.101
141.500	1.525	0.101
141.600	34.061	0.101
141.700	-21.397	0.101
141.800	40.392	0.101
141.900	-27.356	0.101
142.000	38.142	0.101
142.100	7.292	0.101
142.200	-10.366	0.101
142.300	15.424	0.101
142.400	-5.132	0.101
142.500	21.078	0.101
142.600	9.262	0.101
142.700	9.405	0.101
142.800	-15.739	0.101
142.900	5.991	0.101
143.000	31.956	0.101
143.100	21.198	0.101
143.200	-21.794	0.101
143.300	27.580	0.101
143.400	20.099	0.101
143.500	18.461	0.101
143.600	-17.556	0.101
143.700	3.690	0.101
143.800	-2.516	0.101
143.900	27.853	0.101
144.000	3.628	0.101
144.100	23.539	0.101
144.200	2.456	0.101
144.300	6.213	0.101
144.400	5.071	0.101
144.500	14.423	0.101
144.600	-2.134	0.101
144.700	-8.233	0.101
144.800	4.555	0.101
144.900	-2.592	0.101
145.000	14.375	0.101
145.100	-26.288	0.101
145.200	-2.842	0.101
145.300	20.690	0.101
145.400	-11.445	0.101
145.500	-3.750	0.101
145.600	24.106	0.101
145.700	10.173	0.101
145.800	-15.764	0.101
145.900	-6.070	0.101
146.000	33.288	0.101
146.100	5.779	0.101
146.200	-31.590	0.101
146.300	29.144	0.101
146.400	3.392	0.101
146.500	8.300	0.101
146.600	3.239	0.101
146.700	0.257	0.101
146.800	11.285	0.101
146.900	8.430	0.101
147.000	-9.770	0.101
147.100	-12.774	0.101
147.200	-29.572	0.101
147.300	16.765	0.101
147.400	20.580	0.101
147.500	8.710	0.101
147.600	-22.305	0.101
147.700	1.721	0.101
147.800	-15.747	0.101
147.900	-0.044	0.101
148.000	20.080	0.101
148.100	15.378	0.101
148.200	18.227	0.101
148.300	32.477	0.101
148.400	-16.549	0.101
148.500	-3.971	0.101
148.600	6.444	0.101
148.700	24.020	0.101
148.800	6.268	0.101
148.900	-5.444	0.101
149.000	25.669	0.101
149.100	0.421	0.101
149.200	-6.332	0.101
149.300	14.605	0.101
149.400	-0.122	0.101
149.500	31.132	0.101
149.600	20.721	0.101
149.700	11.040	0.101
149.800	27.014	0.101
149.900	4.565	0.101
150.000	34.312	0.101
150.100	10.781	0.101
150.200	20.384	0.101
150.300	1.558	0.101
150.400	18.341	0.101
150.500	16.429	0.101
150.600	-16.221	0.101
150.700	2.993	0.101
150.800	-3.022	0.101
150.900	-4.168	0.101
151.000	-3.132	0.101
151.100	-3.217	0.101
151.200	13.162	0.101
151.300	19.821	0.101
151.400	17.962	0.101
151.500	-22.770	0.101
151.600	28.172	0.101
151.700	-30.947	0.101
151.800	-43.076	0.101
151.900	35.346	0.101
152.000	16.953	0.101
152.100	-21.505	0.101
152.200	-22.958	0.101
152.300	-4.198	0.101
152.400	-35.215	0.101
152.500	2.425	0.101
152.600	3.431	0.101
152.700	-5.984	0.101
152.800	-3.834	0.101
152.900	-23.940	0.101
153.000	-6.829	0.101
153.100	41.941	0.101
153.200	9.191	0.101
153.300	9.011	0.101
153.400	-3.727	0.101
153.500	37.834	0.101
153.600	23.883	0.101
153.700	-20.451	0.101
153.800	17.726	0.101
153.900	7.335	0.101
154.000	-12.329	0.101
154.100	-18.723	0.101
154.200	27.768	0.101
154.300	10.523	0.101
154.400	15.134	0.101
154.500	-11.854	0.101
154.600	6.927	0.101
154.700	23.354	0.101
154.800	-3.706	0.101
154.900	45.296	0.101
155.000	19.685	0.101
155.100	6.498	0.101
155.200	-5.090	0.101
155.300	-5.601	0.101
155.400	1.286	0.101
155.500	8.754	0.101
155.600	-21.432	0.101
155.700	5.739	0.101
155.800	-29.743	0.101
155.900	20.529	0.101
156.000	20.265	0.101
156.100	25.347	0.101
156.200	30.936	0.101
156.300	14.762	0.101
156.400	-6.882	0.101
156.500	-6.538	0.101
156.600	3.125	0.101
156.700	-5.702	0.101
156.800	6.806	0.101
156.900	2.449	0.101
157.000	12.293	0.101
157.100	21.655	0.101
157.200	10.771	0.101
157.300	35.505	0.101
157.400	11.215	0.101
157.500	-14.412	0.101
157.600	-9.630	0.101
157.700	25.591	0.101
157.800	-18.630	0.101
157.900	22.796	0.101
158.000	-3.319	0.101
158.100	16.601	0.101
158.200	-8.489	0.101
158.300	17.106	0.101
158.400	19.234	0.101
158.500	22.575	0.101
158.600	-12.211	0.101
158.700	7.399	0.101
158.800	26.742	0.101
158.900	-8.044	0.101
159.000	14.757	0.101
159.100	18.788	0.101
159.200	1.206	0.101
159.300	-21.868	0.101
159.400	8.416	0.101
159.500	3.608	0.101
159.600	60.327	0.101
159.700	29.908	0.101
159.800	15.629	0.101
159.900	-1.824	0.101
160.000	10.370	0.101
160.100	-17.448	0.101
160.200	36.540	0.101
160.300	-7.134	0.101
160.400	-2.861	0.101
160.500	-3.326	0.101
160.600	-10.569	0.101
160.700	8.247	0.101
160.800	23.808	0.101
160.900	1.899	0.101
161.000	8.356	0.101
161.100	32.770	0.101
161.200	-3.223	0.101
161.300	39.943	0.101
161.400	-1.462	0.101
161.500	-12.527	0.101
161.600	12.679	0.101
161.700	5.778	0.101
161.800	33.699	0.101
161.900	-9.038	0.101
162.000	-9.843	0.101
162.100	-4.050	0.101
162.200	2.190	0.101
162.300	9.323	0.101
162.400	-3.997	0.101
162.500	2.369	0.101
162.600	2.225	0.101
162.700	-9.359	0.101
162.800	22.156	0.101
162.900	-3.063	0.101
163.000	-4.658	0.101
163.100	-24.425	0.101
163.200	9.580	0.101
163.300	-6.884	0.101
163.400	1.587	0.101
163.500	16.036	0.101
163.600	-31.788	0.101
163.700	40.471	0.101
163.800	17.286	0.101
163.900	-19.326	0.101
164.000	-0.796	0.101
164.100	-0.321	0.101
164.200	-7.556	0.101
164.300	34.450	0.101
164.400	11.974	0.101
164.500	13.319	0.101
164.600	-7.946	0.101
164.700	12.799	0.101
164.800	-10.279	0.101
164.900	-5.330	0.101
165.000	8.361	0.101
165.100	35.586	0.101
165.200	6.137	0.101
165.300	16.927	0.101
165.400	9.392	0.101
165.500	-18.854	0.101
165.600	13.471	0.101
165.700	19.759	0.100
165.800	20.457	0.100
165.900	27.724	0.100
166.000	-12.317	0.100
166.100	0.557	0.100
166.200	23.518	0.100
166.300	-29.685	0.101
166.400	-12.901	0.100
166.500	-13.097	0.101
166.600	26.158	0.101
166.700	34.688	0.100
166.800	-13.401	0.100
166.900	-4.963	0.101
167.000	5.804	0.100
167.100	-4.459	0.100
167.200	15.100	0.100
167.300	12.658	0.100
167.400	-11.110	0.100
167.500	-7.212	0.100
167.600	-0.053	0.100
167.700	-6.243	0.100
167.800	10.647	0.100
167.900	8.576	0.100
168.000	-18.502	0.100
168.100	-3.855	0.100
168.200	-3.144	0.100
168.300	25.494	0.100
168.400	1.053	0.100
168.500	-16.659	0.100
168.600	1.938	0.100
168.700	-7.758	0.100
168.800	-25.300	0.100
168.900	-29.971	0.100
169.000	-9.800	0.100
169.100	5.442	0.100
169.200	8.199	0.100
169.300	-30.026	0.100
169.400	18.196	0.100
169.500	-5.323	0.100
169.600	-22.130	0.100
169.700	-10.478	0.100
169.800	27.037	0.100
169.900	-10.220	0.100
170.000	33.067	0.100
170.100	-3.972	0.100
170.200	18.115	0.100
170.300	2.571	0.100
170.400	-17.872	0.100
170.500	-4.622	0.100
170.600	13.759	0.100
170.700	11.753	0.100
170.800	2.115	0.100
170.900	20.751	0.100
171.000	-30.438	0.100
171.100	-29.516	0.100
171.200	-17.719	0.100
171.300	4.086	0.100
171.400	-12.856	0.100
171.500	7.726	0.100
171.600	4.759	0.100
171.700	-20.456	0.100
171.800	21.363	0.100
171.900	6.998	0.100
172.000	-11.380	0.100
172.100	3.749	0.100
172.200	22.609	0.100
172.300	3.174	0.100
172.400	18.790	0.100
172.500	-15.615	0.100
172.600	35.444	0.100
172.700	18.457	0.100
172.800	-0.702	0.100
172.900	-0.980	0.100
173.000	16.232	0.100
173.100	-20.427	0.100
173.200	5.422	0.100
173.300	-14.303	0.100
173.400	22.503	0.100
173.500	3.167	0.100
173.600	-3.071	0.100
173.700	25.060	0.100
173.800	-17.332	0.100
173.900	-7.815	0.100
174.000	11.861	0.100
174.100	26.651	0.100
174.200	-2.268	0.100
174.300	10.638	0.100
174.400	1.657	0.100
174.500	-13.323	0.100
174.600	-34.662	0.100
174.700	-10.951	0.100
174.800	30.755	0.100
174.900	6.957	0.100
175.000	-9.989	0.100
175.100	-14.315	0.100
175.200	11.445	0.100
175.300	-9.393	0.100
175.400	9.004	0.100
175.500	-12.526	0.100
175.600	7.148	0.100
175.700	-35.630	0.100
175.800	-0.886	0.100
175.900	17.584	0.100
176.000	-38.252	0.100
176.100	13.824	0.100
176.200	9.404	0.100
176.300	41.840	0.100
176.400	-37.667	0.100
176.500	-11.489	0.100
176.600	17.450	0.100
176.700	6.477	0.100
176.800	-8.467	0.100
176.900	-10.047	0.100
177.000	-17.764	0.100
177.100	29.827	0.100
177.200	-23.430	0.100
177.300	-14.669	0.100
177.400	15.254	0.100
177.500	-16.366	0.100
177.600	-6.685	0.100
177.700	-7.790	0.100
177.800	-20.870	0.100
177.900	-38.143	0.100
178.000	-5.127	0.100
178.100	6.024	0.100
178.200	6.608	0.100
178.300	-12.773	0.100
178.400	-14.119	0.100
178.500	26.016	0.100
178.600	-14.392	0.100
178.700	1.934	0.100
178.800	6.299	0.100
178.900	3.968	0.100
179.000	17.905	0.100
179.100	-32.969	0.100
179.200	5.368	0.100
179.300	38.792	0.100
179.400	1.550	0.100
179.500	-8.251	0.100
179.600	18.339	0.100
179.700	14.168	0.100
179.800	1.654	0.100
179.900	-4.492	0.100
180.000	-41.061	0.100
180.100	-14.256	0.100
180.200	2.954	0.100
180.300	-6.206	0.100
180.400	17.556	0.100
180.500	-34.117	0.100
180.600	-15.780	0.100
180.700	-4.241	0.100
180.800	2.024	0.100
180.900	28.618	0.100
181.000	-6.856	0.100
181.100	23.137	0.100
181.200	-11.979	0.100
181.300	-4.213	0.100
181.400	15.644	0.100
181.500	-37.673	0.100
181.600	-1.372	0.100
181.700	-5.942	0.100
181.800	-0.887	0.100
181.900	6.366	0.100
182.000	-12.151	0.100
182.100	-28.669	0.100
182.200	-5.707	0.100
182.300	30.899	0.100
182.400	27.580	0.100
182.500	-9.685	0.100
182.600	12.100	0.100
182.700	-6.287	0.100
182.800	19.141	0.100
182.900	14.138	0.100
183.000	-23.066	0.100
183.100	31.128	0.100
183.200	-6.797	0.100
183.300	2.048	0.100
183.400	-6.066	0.100
183.500	-19.726	0.100
183.600	25.917	0.100
183.700	6.161	0.100
183.800	14.470	0.100
183.900	-0.547	0.100
184.000	-3.856	0.100
184.100	-9.462	0.100
184.200	12.027	0.100
184.300	17.626	0.100
184.400	-4.296	0.100
184.500	23.152	0.100
184.600	-2.783	0.100
184.700	-10.066	0.100
184.800	-13.056	0.100
184.900	-9.304	0.100
185.000	13.655	0.100
185.100	14.508	0.100
185.200	-21.193	0.100
185.300	20.967	0.100
185.400	15.487	0.100
185.500	11.881	0.100
185.600	-12.818	0.100
185.700	-26.498	0.100
185.800	17.602	0.100
185.900	-12.205	0.100
186.000	21.023	0.100
186.100	-0.229	0.100
186.200	9.778	0.100
186.300	16.452	0.100
186.400	-16.159	0.100
186.500	31.624	0.100
186.600	-6.174	0.100
186.700	7.384	0.100
186.800	-2.231	0.100
186.900	4.668	0.100
187.000	-0.076	0.100
187.100	17.338	0.100
187.200	-17.345	0.100
187.300	-14.296	0.100
187.400	17.668	0.100
187.500	-3.983	0.100
187.600	15.770	0.100
187.700	1.437	0.100
187.800	22.164	0.100
187.900	10.670	0.100
188.000	10.679	0.100
188.100	-37.005	0.100
188.200	-20.242	0.100
188.300	7.310	0.100
188.400	-20.340	0.100
188.500	21.852	0.100
188.600	6.043	0.101
188.700	-1.396	0.101
188.800	20.417	0.101
188.900	11.339	0.101
189.000	3.317	0.101
189.100	-4.681	0.101
189.200	37.244	0.101
189.300	-2.722	0.101
189.400	38.445	0.101
189.500	-2.736	0.101
189.600	-32.073	0.101
189.700	35.766	0.101
189.800	18.421	0.101
189.900	30.338	0.101
190.000	28.834	0.101
190.100	10.283	0.101
190.200	20.606	0.101
190.300	-5.591	0.101
190.400	-11.445	0.100
190.500	-11.549	0.100
190.600	-4.972	0.100
190.700	-27.194	0.100
190.800	-10.866	0.100
190.900	15.497	0.100
191.000	3.867	0.100
191.100	2.856	0.100
191.200	-12.448	0.101
191.300	-34.066	0.101
191.400	30.573	0.101
191.500	29.130	0.100
191.600	-13.266	0.101
191.700	-2.748	0.100
191.800	2.692	0.100
191.900	24.358	0.100
192.000	-13.895	0.101
192.100	3.215	0.100
192.200	-19.646	0.100
192.300	26.891	0.100
192.400	-16.163	0.100
192.500	18.547	0.100
192.600	60.835	0.100
192.700	4.474	0.100
192.800	12.773	0.100
192.900	5.174	0.100
193.000	3.519	0.100
193.100	-5.501	0.100
193.200	22.870	0.100
193.300	-8.659	0.100
193.400	24.446	0.100
193.500	-21.749	0.100
193.600	9.173	0.100
193.700	70.630	0.100
193.800	-15.595	0.100
193.900	-9.440	0.100
194.000	21.914	0.101
194.100	9.643	0.100
194.200	9.175	0.100
194.300	-11.887	0.100
194.400	14.678	0.100
194.500	7.152	0.100
194.600	10.642	0.100
194.700	30.459	0.101
194.800	22.547	0.101
194.900	36.991	0.101
195.000	39.302	0.100
195.100	-22.217	0.101
195.200	16.102	0.101
195.300	11.427	0.100
195.400	44.312	0.101
195.500	24.812	0.100
195.600	6.336	0.100
195.700	-0.891	0.100
195.800	25.332	0.101
195.900	35.752	0.101
196.000	3.305	0.101
196.100	-8.569	0.100
196.200	-13.106	0.100
196.300	37.149	0.100
196.400	31.953	0.100
196.500	2.065	0.101
196.600	17.164	0.100
196.700	31.726	0.100
196.800	25.842	0.100
196.900	3.657	0.100
197.000	-11.684	0.100
197.100	-0.054	0.101
197.200	17.582	0.100
197.300	5.661	0.101
197.400	-3.819	0.100
197.500	3.764	0.100
197.600	21.251	0.101
197.700	50.074	0.101
197.800	-5.172	0.100
197.900	1.294	0.101
198.000	1.024	0.101
198.100	-3.361	0.100
198.200	7.180	0.100
198.300	27.577	0.101
198.400	26.102	0.101
198.500	29.767	0.100
198.600	-16.447	0.101
198.700	14.091	0.100
198.800	-7.804	0.100
198.900	2.688	0.101
199.000	16.049	0.100
199.100	6.073	0.101
199.200	5.144	0.100
199.300	31.582	0.100
199.400	25.957	0.101
199.500	-4.909	0.100
199.600	9.824	0.101
199.700	31.520	0.101
199.800	40.938	0.101
199.900	15.786	0.100
200.000	26.593	0.100
200.100	8.237	0.101
200.200	-3.892	0.100
200.300	18.665	0.101
200.400	44.891	0.101
200.500	26.222	0.100
200.600	44.202	0.101
200.700	6.092	0.101
200.800	-1.238	0.100
200.900	20.162	0.101
201.000	25.512	0.100
201.100	2.261	0.100
201.200	13.968	0.101
201.300	3.345	0.100
201.400	7.496	0.101
201.500	23.894	0.101
201.600	13.421	0.101
201.700	19.626	0.100
201.800	22.342	0.101
201.900	8.221	0.101
202.000	17.308	0.100
202.100	9.540	0.100
202.200	16.266	0.100
202.300	-5.454	0.101
202.400	15.070	0.100
202.500	56.154	0.100
202.600	-2.294	0.101
202.700	50.228	0.101
202.800	13.690	0.101
202.900	0.152	0.101
203.000	3.937	0.101
203.100	27.149	0.101
203.200	21.776	0.101
203.300	42.625	0.101
203.400	21.129	0.101
203.500	1.095	0.100
203.600	-5.830	0.100
203.700	-14.378	0.100
203.800	7.704	0.101
203.900	18.072	0.100
204.000	23.465	0.100
204.100	12.038	0.100
204.200	26.835	0.100
204.300	10.659	0.101
204.400	8.088	0.100
204.500	48.167	0.101
204.600	8.328	0.100
204.700	21.960	0.101
204.800	38.568	0.100
204.900	18.104	0.100
205.000	4.186	0.100
205.100	18.426	0.100
205.200	38.020	0.100
205.300	6.453	0.100
205.400	4.442	0.100
205.500	16.138	0.100
205.600	35.803	0.100
205.700	35.136	0.100
205.800	11.553	0.100
205.900	47.029	0.100
206.000	29.309	0.100
206.100	3.959	0.100
206.200	36.423	0.100
206.300	3.564	0.100
206.400	28.048	0.100
206.500	14.650	0.100
206.600	-3.908	0.100
206.700	24.962	0.100
206.800	0.930	0.100
206.900	20.026	0.101
207.000	43.604	0.100
207.100	20.769	0.100
207.200	30.029	0.100
207.300	27.722	0.101
207.400	8.369	0.100
207.500	23.588	0.101
207.600	-18.177	0.101
207.700	22.160	0.100
207.800	3.706	0.100
207.900	15.900	0.100
208.000	29.679	0.100
208.100	12.503	0.100
208.200	40.668	0.100
208.300	14.561	0.101
208.400	-26.064	0.100
208.500	28.407	0.100
208.600	-1.671	0.101
208.700	62.330	0.101
208.800	44.902	0.100
208.900	15.723	0.101
209.000	32.048	0.100
209.100	32.486	0.101
209.200	12.209	0.100
209.300	-14.356	0.101
209.400	21.219	0.101
209.500	44.655	0.101
209.600	48.511	0.101
209.700	46.226	0.101
209.800	13.101	0.101
209.900	28.906	0.101
210.000	-3.096	0.100
210.100	24.683	0.101
210.200	18.699	0.101
210.300	1.227	0.100
210.400	29.481	0.100
210.500	23.222	0.100
210.600	12.255	0.100
210.700	28.098	0.101
210.800	25.208	0.101
210.900	54.384	0.101
211.000	32.682	0.101
211.100	22.022	0.101
211.200	21.732	0.101
211.300	16.722	0.101
211.400	29.532	0.100
211.500	30.027	0.101
211.600	26.354	0.101
211.700	4.162	0.101
211.800	34.572	0.101
211.900	23.501	0.101
212.000	3.079	0.101
212.100	-3.277	0.101
212.200	42.735	0.101
212.300	35.941	0.101
212.400	16.295	0.100
212.500	48.060	0.101
212.600	5.554	0.100
212.700	8.669	0.101
212.800	0.422	0.100
212.900	27.181	0.100
213.000	32.240	0.100
213.100	26.394	0.100
213.200	3.846	0.101
213.300	-3.674	0.101
213.400	22.919	0.101
213.500	41.883	0.101
213.600	52.901	0.100
213.700	34.805	0.101
213.800	34.613	0.101
213.900	-5.058	0.101
214.000	16.819	0.100
214.100	39.715	0.101
214.200	11.417	0.101
214.300	-6.731	0.101
214.400	29.859	0.101
214.500	-2.986	0.101
214.600	-5.418	0.100
214.700	19.011	0.101
214.800	-0.682	0.100
214.900	22.939	0.101
215.000	12.253	0.101
215.100	1.675	0.101
215.200	-11.405	0.100
215.300	19.555	0.100
215.400	39.006	0.100
215.500	11.962	0.101
215.600	27.083	0.100
215.700	20.142	0.101
215.800	26.518	0.101
215.900	3.282	0.101
216.000	8.794	0.101
216.100	27.632	0.101
216.200	28.608	0.101
216.300	56.999	0.100
216.400	40.413	0.101
216.500	33.329	0.100
216.600	30.103	0.101
216.700	24.964	0.100
216.800	6.605	0.101
216.900	38.625	0.100
217.000	19.005	0.100
217.100	14.511	0.101
217.200	-10.578	0.100
217.300	45.737	0.100
217.400	44.328	0.100
217.500	-10.070	0.100
217.600	26.657	0.100
217.700	14.293	0.100
217.800	38.799	0.100
217.900	15.533	0.100
218.000	28.079	0.100
218.100	19.729	0.100
218.200	0.441	0.100
218.300	47.130	0.100
218.400	38.168	0.100
218.500	27.211	0.100
218.600	28.566	0.101
218.700	2.520	0.101
218.800	31.916	0.100
218.900	19.012	0.100
219.000	25.970	0.100
219.100	21.811	0.100
219.200	36.090	0.100
219.300	3.957	0.101
219.400	21.954	0.101
219.500	0.815	0.100
219.600	14.180	0.101
219.700	48.608	0.101
219.800	35.515	0.101
219.900	39.134	0.100
220.000	44.405	0.101
220.100	-6.923	0.100
220.200	30.470	0.100
220.300	2.063	0.100
220.400	30.091	0.100
220.500	5.237	0.100
220.600	58.517	0.101
220.700	35.449	0.100
220.800	-6.195	0.100
220.900	33.616	0.100
221.000	-0.131	0.100
221.100	14.852	0.100
221.200	12.068	0.100
221.300	60.274	0.101
221.400	52.979	0.101
221.500	30.756	0.101
221.600	15.501	0.100
221.700	17.213	0.100
221.800	11.608	0.100
221.900	41.892	0.100
222.000	27.740	0.100
222.100	-8.261	0.100
222.200	30.044	0.100
222.300	11.040	0.101
222.400	15.870	0.100
222.500	39.175	0.101
222.600	-9.189	0.100
222.700	13.970	0.100
222.800	27.660	0.100
222.900	-1.229	0.100
223.000	36.053	0.100
223.100	19.355	0.100
223.200	37.011	0.100
223.300	42.867	0.100
223.400	19.677	0.101
223.500	25.297	0.100
223.600	21.049	0.101
223.700	42.799	0.101
223.800	49.391	0.101
223.900	-6.791	0.101
224.000	14.071	0.100
224.100	-15.887	0.100
224.200	5.855	0.100
224.300	33.390	0.101
224.400	-0.906	0.100
224.500	32.574	0.100
224.600	61.401	0.101
224.700	51.366	0.101
224.800	8.982	0.100
224.900	31.610	0.101
225.000	25.565	0.101
225.100	14.600	0.100
225.200	41.634	0.100
225.300	-1.098	0.100
225.400	23.116	0.101
225.500	17.816	0.100
225.600	20.604	0.101
225.700	18.165	0.100
225.800	40.109	0.101
225.900	-0.254	0.100
226.000	39.749	0.100
226.100	20.362	0.101
226.200	21.335	0.101
226.300	31.442	0.100
226.400	7.926	0.100
226.500	26.276	0.100
226.600	14.354	0.100
226.700	39.113	0.100
226.800	7.529	0.101
226.900	18.014	0.100
227.000	30.907	0.100
227.100	33.326	0.100
227.200	23.430	0.100
227.300	20.310	0.100
227.400	38.975	0.101
227.500	-2.823	0.101
227.600	45.169	0.100
227.700	19.053	0.101
227.800	34.772	0.101
227.900	27.837	0.101
228.000	40.188	0.101
228.100	25.843	0.101
228.200	36.073	0.101
228.300	46.286	0.100
228.400	41.518	0.101
228.500	39.301	0.101
228.600	-0.804	0.101
228.700	42.890	0.100
228.800	44.326	0.100
228.900	3.817	0.100
229.000	45.292	0.100
229.100	19.537	0.101
229.200	37.401	0.100
229.300	38.313	0.100
229.400	52.219	0.101
229.500	19.208	0.100
229.600	32.630	0.101
229.700	64.255	0.101
229.800	25.119	0.101
229.900	32.094	0.101
230.000	30.536	0.100
230.100	9.377	0.100
230.200	36.923	0.101
230.300	19.265	0.101
230.400	20.438	0.101
230.500	35.935	0.101
230.600	18.908	0.100
230.700	32.847	0.101
230.800	21.891	0.100
230.900	47.228	0.101
231.000	-11.746	0.101
231.100	29.592	0.101
231.200	37.543	0.100
231.300	15.058	0.101
231.400	54.116	0.101
231.500	49.445	0.101
231.600	14.667	0.100
231.700	40.170	0.100
231.800	0.265	0.101
231.900	47.671	0.100
232.000	21.280	0.100
232.100	5.905	0.101
232.200	20.333	0.100
232.300	0.419	0.100
232.400	14.161	0.100
232.500	6.536	0.100
232.600	34.981	0.101
232.700	37.225	0.100
232.800	58.342	0.101
232.900	59.257	0.100
233.000	9.754	0.100
233.100	37.179	0.101
233.200	31.109	0.100
233.300	-0.015	0.100
233.400	-0.244	0.100
233.500	35.407	0.100
233.600	9.001	0.100
233.700	52.302	0.100
233.800	11.796	0.101
233.900	25.577	0.100
234.000	32.273	0.101
234.100	8.896	0.101
234.200	30.493	0.100
234.300	44.335	0.100
234.400	27.476	0.100
234.500	14.184	0.101
234.600	6.526	0.100
234.700	28.674	0.100
234.800	45.153	0.101
234.900	36.041	0.100
235.000	4.215	0.101
235.100	24.587	0.100
235.200	43.837	0.100
235.300	18.826	0.100
235.400	2.787	0.101
235.500	45.024	0.100
235.600	-20.596	0.100
235.700	27.218	0.101
235.800	19.844	0.101
235.900	57.309	0.100
236.000	39.845	0.100
236.100	11.602	0.101
236.200	5.434	0.100
236.300	18.800	0.100
236.400	32.822	0.101
236.500	38.281	0.101
236.600	70.053	0.100
236.700	11.861	0.101
236.800	8.725	0.101
236.900	23.407	0.101
237.000	30.724	0.101
237.100	14.606	0.101
237.200	27.021	0.100
237.300	48.149	0.100
237.400	21.282	0.101
237.500	24.267	0.100
237.600	21.436	0.100
237.700	28.575	0.101
237.800	63.120	0.101
237.900	15.007	0.101
238.000	58.307	0.101
238.100	37.742	0.100
238.200	-3.785	0.100
238.300	5.200	0.101
238.400	24.012	0.100
238.500	41.188	0.101
238.600	24.955	0.100
238.700	40.392	0.100
238.800	37.266	0.101
238.900	16.113	0.101
239.000	58.601	0.100
239.100	31.061	0.100
239.200	26.912	0.100
239.300	45.704	0.101
239.400	2.631	0.101
239.500	47.027	0.101
239.600	14.676	0.100
239.700	7.893	0.101
239.800	37.921	0.100
239.900	43.083	0.100
240.000	34.131	0.100
240.100	45.659	0.101
240.200	29.313	0.101
240.300	0.925	0.100
240.400	4.464	0.100
240.500	6.760	0.100
240.600	95.298	0.101
240.700	19.713	0.100
240.800	-3.433	0.100
240.900	42.264	0.100
241.000	5.035	0.100
241.100	38.996	0.101
241.200	41.447	0.101
241.300	38.788	0.100
241.400	39.905	0.100
241.500	23.132	0.101
241.600	27.439	0.100
241.700	6.575	0.100
241.800	33.975	0.100
241.900	33.024	0.101
242.000	57.125	0.100
242.100	23.497	0.101
242.200	23.379	0.100
242.300	32.263	0.101
242.400	-5.503	0.101
242.500	30.847	0.101
242.600	36.560	0.100
242.700	16.144	0.101
242.800	51.130	0.101
242.900	27.743	0.101
243.000	22.502	0.100
243.100	1.007	0.100
243.200	22.582	0.100
243.300	5.783	0.100
243.400	47.747	0.100
243.500	16.065	0.101
243.600	9.946	0.100
243.700	35.637	0.101
243.800	6.310	0.100
243.900	17.213	0.100
244.000	40.328	0.100
244.100	51.343	0.100
244.200	30.375	0.100
244.300	37.172	0.100
244.400	39.282	0.100
244.500	36.019	0.100
244.600	54.234	0.100
244.700	45.102	0.100
244.800	40.355	0.100
244.900	20.982	0.100
245.000	33.326	0.100
245.100	23.046	0.100
245.200	8.373	0.100
245.300	17.727	0.100
245.400	-11.338	0.100
245.500	45.386	0.100
245.600	64.041	0.100
245.700	12.296	0.100
245.800	28.989	0.100
245.900	9.629	0.101
246.000	43.313	0.100
246.100	9.982	0.100
246.200	42.796	0.100
246.300	37.796	0.100
246.400	25.099	0.101
246.500	19.145	0.100
246.600	-4.245	0.100
246.700	51.169	0.101
246.800	44.560	0.100
246.900	46.171	0.101
247.000	27.648	0.100
247.100	18.689	0.100
247.200	41.386	0.101
247.300	7.115	0.101
247.400	28.706	0.100
247.500	13.238	0.100
247.600	24.786	0.100
247.700	3.173	0.100
247.800	14.445	0.100
247.900	35.307	0.100
248.000	-1.442	0.100
248.100	17.301	0.100
248.200	7.076	0.101
248.300	15.838	0.100
248.400	42.386	0.100
248.500	31.797	0.100
248.600	8.889	0.101
248.700	29.637	0.100
248.800	2.232	0.100
248.900	44.546	0.100
249.000	30.521	0.100
249.100	1.050	0.100
249.200	24.436	0.100
249.300	3.528	0.100
249.400	-11.066	0.100
249.500	43.014	0.101
249.600	12.407	0.100
249.700	5.056	0.100
249.800	63.384	0.100
249.900	48.579	0.100
250.000	18.153	0.100
250.100	-8.908	0.100
250.200	29.778	0.100
250.300	31.692	0.101
250.400	25.582	0.100
250.500	41.198	0.101
250.600	27.841	0.101
250.700	9.192	0.101
250.800	13.790	0.101
250.900	13.857	0.101
251.000	21.269	0.101
251.100	18.134	0.100
251.200	14.073	0.100
251.300	14.909	0.100
251.400	45.195	0.101
251.500	-15.831	0.100
251.600	-3.770	0.101
251.700	34.600	0.101
251.800	36.785	0.101
251.900	5.433	0.101
252.000	37.346	0.100
252.100	20.492	0.101
252.200	-13.592	0.100
252.300	22.955	0.101
252.400	26.779	0.101
252.500	21.700	0.100
252.600	29.761	0.100
252.700	14.813	0.101
252.800	-10.652	0.101
252.900	16.879	0.101
253.000	23.390	0.101
253.100	17.464	0.100
253.200	29.772	0.101
253.300	35.279	0.101
253.400	32.141	0.100
253.500	30.161	0.101
253.600	8.946	0.100
253.700	-7.879	0.100
253.800	31.808	0.101
253.900	44.532	0.100
254.000	31.014	0.100
254.100	36.918	0.101
254.200	14.145	0.101
254.300	14.154	0.101
254.400	28.283	0.101
254.500	38.775	0.100
254.600	33.497	0.100
254.700	37.485	0.101
254.800	-1.837	0.101
254.900	32.856	0.101
255.000	31.868	0.101
255.100	49.000	0.100
255.200	20.161	0.101
255.300	12.836	0.101
255.400	-11.982	0.100
255.500	10.913	0.101
255.600	12.624	0.101
255.700	49.839	0.101
255.800	8.928	0.101
255.900	2.033	0.100
256.000	-1.142	0.101
256.100	15.081	0.100
256.200	26.592	0.100
256.300	3.193	0.100
256.400	23.235	0.100
256.500	10.836	0.100
256.600	25.748	0.100
256.700	7.246	0.101
256.800	7.102	0.101
256.900	25.043	0.101
257.000	11.822	0.100
257.100	8.655	0.101
257.200	26.170	0.101
257.300	22.676	0.101
257.400	23.474	0.101
257.500	19.204	0.101
257.600	-8.311	0.100
257.700	10.225	0.101
257.800	-3.019	0.101
257.900	16.826	0.100
258.000	35.622	0.101
258.100	11.840	0.100
258.200	24.631	0.100
258.300	-5.832	0.101
258.400	22.886	0.101
258.500	-28.642	0.101
258.600	17.167	0.101
258.700	3.743	0.101
258.800	47.722	0.100
258.900	-33.666	0.101
259.000	3.161	0.101
259.100	23.642	0.100
259.200	38.320	0.100
259.300	5.800	0.101
259.400	60.959	0.101
259.500	15.581	0.100
259.600	-7.330	0.101
259.700	38.606	0.101
259.800	19.865	0.101
259.900	20.158	0.101
260.000	6.908	0.101
260.100	60.982	0.101
260.200	-0.987	0.101
260.300	36.530	0.101
260.400	23.500	0.100
260.500	24.505	0.101
260.600	36.380	0.101
260.700	38.333	0.101
260.800	25.512	0.101
260.900	46.659	0.101
261.000	26.674	0.101
261.100	13.349	0.101
261.200	33.110	0.101
261.300	28.460	0.101
261.400	-14.352	0.101
261.500	65.373	0.100
261.600	32.288	0.100
261.700	17.900	0.101
261.800	-0.277	0.101
261.900	47.222	0.101
262.000	12.632	0.101
262.100	-3.275	0.101
262.200	-23.184	0.101
262.300	17.017	0.101
262.400	13.262	0.100
262.500	-10.989	0.101
262.600	21.723	0.101
262.700	10.219	0.101
262.800	8.408	0.101
262.900	18.929	0.100
263.000	9.234	0.101
263.100	19.362	0.100
263.200	17.959	0.101
263.300	6.147	0.101
263.400	-12.339	0.100
263.500	-20.699	0.101
263.600	16.075	0.100
263.700	21.129	0.101
263.800	20.318	0.100
263.900	34.717	0.101
264.000	28.234	0.100
264.100	43.449	0.101
264.200	1.987	0.101
264.300	-9.277	0.101
264.400	9.128	0.100
264.500	28.448	0.100
264.600	11.623	0.101
264.700	-8.358	0.101
264.800	36.970	0.101
264.900	35.522	0.101
265.000	1.975	0.100
265.100	37.154	0.101
265.200	20.144	0.101
265.300	8.578	0.101
265.400	7.011	0.101
265.500	40.509	0.101
265.600	-1.288	0.101
265.700	13.497	0.100
265.800	12.269	0.100
265.900	47.846	0.101
266.000	18.871	0.101
266.100	16.748	0.101
266.200	-18.529	0.100
266.300	17.054	0.100
266.400	29.793	0.101
266.500	24.615	0.101
266.600	6.523	0.101
266.700	13.180	0.100
266.800	30.940	0.101
266.900	-8.267	0.101
267.000	4.034	0.101
267.100	3.224	0.100
267.200	25.012	0.101
267.300	-0.132	0.101
267.400	-1.714	0.100
267.500	10.206	0.101
267.600	25.144	0.101
267.700	5.163	0.100
267.800	12.999	0.101
267.900	11.865	0.100
268.000	-2.052	0.101
268.100	5.115	0.101
268.200	-14.780	0.100
268.300	22.327	0.101
268.400	47.181	0.101
268.500	29.998	0.101
268.600	33.596	0.100
268.700	-23.786	0.101
268.800	7.181	0.100
268.900	27.080	0.100
269.000	9.442	0.101
269.100	49.335	0.101
269.200	8.329	0.101
269.300	5.153	0.101
269.400	6.134	0.100
269.500	25.494	0.101
269.600	11.384	0.101
269.700	34.779	0.100
269.800	6.870	0.101
269.900	37.128	0.101
270.000	0.836	0.101
270.100	-32.041	0.101
270.200	-5.013	0.101
270.300	12.476	0.101
270.400	7.889	0.101
270.500	52.212	0.101
270.600	16.883	0.101
270.700	-29.481	0.100
270.800	2.829	0.100
270.900	20.127	0.101
271.000	3.691	0.101
271.100	19.696	0.101
271.200	23.312	0.100
271.300	-3.351	0.100
271.400	-5.295	0.100
271.500	11.375	0.100
271.600	15.244	0.101
271.700	15.333	0.101
271.800	30.906	0.101
271.900	-18.875	0.101
272.000	20.215	0.101
272.100	18.944	0.101
272.200	6.482	0.101
272.300	-10.957	0.101
272.400	34.701	0.100
272.500	8.282	0.101
272.600	25.528	0.101
272.700	-2.278	0.101
272.800	-12.236	0.101
272.900	24.385	0.100
273.000	4.372	0.101
273.100	33.948	0.100
273.200	11.983	0.101
273.300	45.569	0.100
273.400	13.754	0.101
273.500	27.567	0.100
273.600	15.646	0.101
273.700	-18.127	0.101
273.800	28.462	0.101
273.900	25.859	0.100
274.000	19.575	0.100
274.100	20.909	0.101
274.200	-33.224	0.101
274.300	13.069	0.101
274.400	-10.490	0.100
274.500	2.311	0.101
274.600	14.055	0.101
274.700	2.603	0.100
274.800	37.990	0.101
274.900	8.540	0.101
275.000	-19.846	0.101
275.100	35.955	0.101
275.200	9.291	0.101
275.300	-2.837	0.100
275.400	33.409	0.100
275.500	-0.566	0.101
275.600	4.641	0.101
275.700	-37.956	0.101
275.800	12.374	0.100
275.900	-6.050	0.101
276.000	7.826	0.100
276.100	0.285	0.101
276.200	1.384	0.101
276.300	5.246	0.101
276.400	-1.930	0.101
276.500	4.712	0.100
276.600	17.584	0.101
276.700	9.052	0.100
276.800	-8.013	0.101
276.900	29.346	0.100
277.000	35.378	0.101
277.100	4.917	0.101
277.200	37.959	0.100
277.300	-13.788	0.101
277.400	25.029	0.100
277.500	-15.218	0.101
277.600	-6.919	0.101
277.700	15.171	0.101
277.800	0.960	0.101
277.900	9.804	0.101
278.000	10.577	0.100
278.100	28.916	0.101
278.200	9.880	0.101
278.300	12.891	0.100
278.400	1.802	0.101
278.500	20.806	0.101
278.600	0.265	0.101
278.700	13.382	0.101
278.800	53.205	0.101
278.900	-17.908	0.100
279.000	24.267	0.101
279.100	19.588	0.101
279.200	-18.325	0.101
279.300	6.440	0.101
279.400	26.662	0.101
279.500	10.597	0.100
279.600	-8.035	0.101
279.700	29.292	0.101
279.800	-0.249	0.101
279.900	8.937	0.100
280.000	10.376	0.101
280.100	-1.992	0.101
280.200	1.931	0.101
280.300	0.090	0.101
280.400	11.865	0.101
280.500	11.183	0.101
280.600	36.318	0.101
280.700	15.573	0.101
280.800	5.508	0.101
280.900	18.395	0.101
281.000	-5.827	0.101
281.100	22.599	0.101
281.200	24.380	0.100
281.300	5.019	0.101
281.400	-1.585	0.101
281.500	2.083	0.100
281.600	-17.122	0.100
281.700	-15.284	0.100
281.800	38.857	0.101
281.900	1.783	0.100
282.000	-23.665	0.101
282.100	10.057	0.100
282.200	-12.729	0.101
282.300	-14.073	0.101
282.400	40.433	0.101
282.500	-10.303	0.101
282.600	27.895	0.101
282.700	18.892	0.101
282.800	22.886	0.100
282.900	38.888	0.101
283.000	-7.403	0.101
283.100	53.207	0.101
283.200	33.789	0.101
283.300	-36.908	0.101
283.400	-9.490	0.101
283.500	19.375	0.101
283.600	5.139	0.101
283.700	21.868	0.101
283.800	20.258	0.101
283.900	42.557	0.101
284.000	35.884	0.101
284.100	-16.147	0.101
284.200	-5.954	0.101
284.300	-21.481	0.101
284.400	25.764	0.100
284.500	43.484	0.101
284.600	17.177	0.101
284.700	31.247	0.101
284.800	-10.305	0.101
284.900	24.241	0.101
285.000	18.935	0.101
285.100	12.077	0.101
285.200	8.538	0.101
285.300	3.487	0.101
285.400	-32.347	0.101
285.500	3.404	0.101
285.600	19.945	0.101
285.700	13.241	0.100
285.800	2.250	0.101
285.900	-20.248	0.101
286.000	7.095	0.101
286.100	-19.764	0.101
286.200	17.365	0.100
286.300	44.885	0.101
286.400	1.569	0.101
286.500	18.456	0.100
286.600	-6.945	0.101
286.700	3.023	0.100
286.800	-8.237	0.101
286.900	-10.044	0.101
287.000	17.801	0.100
287.100	4.649	0.101
287.200	-9.598	0.100
287.300	0.058	0.101
287.400	20.954	0.101
287.500	22.506	0.101
287.600	14.242	0.101
287.700	-0.105	0.101
287.800	5.594	0.101
287.900	-7.616	0.101
288.000	-22.927	0.101
288.100	13.378	0.101
288.200	15.818	0.101
288.300	28.623	0.101
288.400	10.907	0.101
288.500	-24.924	0.100
288.600	1.464	0.101
288.700	31.971	0.101
288.800	12.235	0.101
288.900	20.367	0.101
289.000	14.382	0.101
289.100	-1.827	0.100
289.200	0.582	0.100
289.300	6.296	0.101
289.400	11.054	0.100
289.500	25.395	0.101
289.600	0.914	0.100
289.700	-29.226	0.100
289.800	6.602	0.101
289.900	6.285	0.101
290.000	26.641	0.101
290.100	0.594	0.101
290.200	-8.893	0.101
290.300	17.619	0.101
290.400	18.133	0.101
290.500	-25.526	0.101
290.600	40.979	0.101
290.700	-3.382	0.101
290.800	-4.452	0.101
290.900	17.003	0.101
291.000	24.346	0.101
291.100	-13.144	0.101
291.200	20.502	0.101
291.300	-17.697	0.100
291.400	23.413	0.101
291.500	9.146	0.101
291.600	18.277	0.101
291.700	-21.623	0.101
291.800	14.531	0.101
291.900	19.934	0.101
292.000	6.183	0.101
292.100	-4.564	0.101
292.200	3.494	0.101
292.300	-3.466	0.101
292.400	-18.245	0.101
292.500	-31.303	0.100
292.600	9.443	0.101
292.700	4.987	0.101
292.800	43.220	0.101
292.900	-18.548	0.100
293.000	28.391	0.100
293.100	-9.450	0.101
293.200	7.904	0.101
293.300	-0.406	0.101
293.400	1.719	0.100
293.500	-6.745	0.101
293.600	-2.127	0.101
293.700	-4.285	0.101
293.800	11.239	0.101
293.900	-1.392	0.101
294.000	16.752	0.101
294.100	-23.106	0.100
294.200	13.844	0.100
294.300	3.037	0.100
294.400	11.942	0.101
294.500	28.311	0.101
294.600	-8.629	0.101
294.700	-1.865	0.100
294.800	-1.145	0.101
294.900	8.677	0.101
295.000	-0.019	0.101
295.100	-24.945	0.101
295.200	-7.555	0.101
295.300	-17.096	0.101
295.400	39.040	0.101
295.500	-26.218	0.101
295.600	-3.820	0.101
295.700	-2.158	0.101
295.800	21.845	0.101
295.900	24.535	0.100
296.000	2.658	0.100
296.100	11.767	0.101
296.200	-9.768	0.100
296.300	33.018	0.101
296.400	9.713	0.100
296.500	26.041	0.101
296.600	-18.282	0.101
296.700	8.550	0.101
296.800	12.940	0.101
296.900	-6.676	0.101
297.000	-14.434	0.101
297.100	1.366	0.101
297.200	-2.432	0.101
297.300	15.062	0.101
297.400	14.854	0.101
297.500	-1.117	0.101
297.600	16.802	0.100
297.700	20.557	0.101
297.800	-5.502	0.101
297.900	14.639	0.101
298.000	-5.968	0.101
298.100	-6.817	0.101
298.200	9.762	0.101
298.300	0.333	0.100
298.400	-0.235	0.101
298.500	-4.826	0.101
298.600	-19.156	0.101
298.700	-2.216	0.101
298.800	-33.221	0.100
298.900	-1.712	0.101
299.000	21.313	0.101
299.100	1.536	0.101
299.200	11.716	0.101
299.300	-22.423	0.101
299.400	29.487	0.101
299.500	8.432	0.101
299.600	15.688	0.101
299.700	22.822	0.101
299.800	3.978	0.101
299.900	-4.811	0.101
300.000	-11.513	0.101
300.100	-4.136	0.101
300.200	-2.485	0.100
300.300	19.309	0.101
300.400	-14.593	0.101
300.500	-3.929	0.101
300.600	12.645	0.101
300.700	27.717	0.101
300.800	5.396	0.101
300.900	-3.013	0.100
301.000	6.706	0.101
301.100	-10.491	0.101
301.200	4.352	0.101
301.300	4.202	0.101
301.400	-4.218	0.101
301.500	13.382	0.101
301.600	9.050	0.101
301.700	-12.742	0.101
301.800	35.272	0.101
301.900	-33.684	0.101
302.000	27.184	0.100
302.100	-26.198	0.101
302.200	1.227	0.100
302.300	3.070	0.101
302.400	-12.282	0.101
302.500	-11.119	0.101
302.600	-18.004	0.100
302.700	20.326	0.101
302.800	3.053	0.101
302.900	2.088	0.101
303.000	0.052	0.100
303.100	6.610	0.101
303.200	6.379	0.101
303.300	-20.710	0.101
303.400	-13.413	0.101
303.500	8.270	0.101
303.600	24.042	0.101
303.700	0.300	0.101
303.800	-14.678	0.101
303.900	18.968	0.101
304.000	-14.994	0.101
304.100	8.597	0.101
304.200	-6.036	0.101
304.300	-6.193	0.100
304.400	6.313	0.101
304.500	-17.190	0.101
304.600	-5.200	0.101
304.700	6.456	0.100
304.800	-12.996	0.100
304.900	-8.365	0.100
305.000	-0.468	0.100
305.100	24.580	0.100
305.200	-32.422	0.100
305.300	13.806	0.100
305.400	-6.301	0.101
305.500	3.262	0.101
305.600	-4.805	0.101
305.700	6.888	0.100
305.800	8.465	0.101
305.900	-19.069	0.100
306.000	14.231	0.100
306.100	-26.602	0.101
306.200	-7.090	0.100
306.300	3.018	0.101
306.400	5.717	0.101
306.500	16.078	0.101
306.600	0.419	0.101
306.700	-8.837	0.101
306.800	18.823	0.100
306.900	-20.287	0.101
307.000	-15.127	0.100
307.100	-11.040	0.100
307.200	23.785	0.101
307.300	-27.652	0.100
307.400	26.184	0.101
307.500	5.059	0.100
307.600	-10.818	0.100
307.700	5.963	0.101
307.800	-35.878	0.100
307.900	13.199	0.101
308.000	-6.841	0.101
308.100	-22.277	0.101
308.200	19.767	0.100
308.300	18.285	0.100
308.400	-13.744	0.101
308.500	-9.949	0.101
308.600	18.050	0.100
308.700	8.727	0.100
308.800	5.951	0.100
308.900	-31.405	0.100
309.000	4.022	0.101
309.100	-1.885	0.100
309.200	-0.836	0.101
309.300	7.837	0.101
309.400	-3.755	0.100
309.500	-17.402	0.100
309.600	-21.667	0.100
309.700	15.233	0.100
309.800	-14.398	0.100
309.900	16.173	0.101
310.000	-24.008	0.101
310.100	-4.294	0.100
310.200	-32.414	0.100
310.300	-29.391	0.101
310.400	31.084	0.101
310.500	12.014	0.101
310.600	-6.721	0.101
310.700	-1.258	0.101
310.800	5.799	0.100
310.900	27.736	0.100
311.000	9.014	0.100
311.100	-23.709	0.101
311.200	14.963	0.100
311.300	13.165	0.100
311.400	8.452	0.100
311.500	-4.424	0.100
311.600	-0.485	0.100
311.700	8.325	0.100
311.800	-10.989	0.101
311.900	13.047	0.100
312.000	11.768	0.100
312.100	-1.190	0.100
312.200	9.051	0.100
312.300	19.255	0.101
312.400	-28.859	0.101
312.500	0.029	0.100
312.600	0.118	0.100
312.700	-2.573	0.100
312.800	25.082	0.101
312.900	1.995	0.100
313.000	6.796	0.101
313.100	-2.291	0.101
313.200	-20.050	0.100
313.300	41.666	0.100
313.400	-10.877	0.100
313.500	-0.143	0.100
313.600	13.713	0.100
313.700	5.371	0.100
313.800	39.976	0.100
313.900	-4.514	0.100
314.000	-18.051	0.100
314.100	-13.309	0.100
314.200	3.257	0.100
314.300	18.932	0.101
314.400	-4.903	0.101
314.500	1.506	0.101
314.600	17.885	0.100
314.700	0.160	0.100
314.800	-13.298	0.100
314.900	-17.679	0.100
315.000	32.995	0.100
315.100	-11.043	0.101
315.200	-1.522	0.100
315.300	-2.900	0.100
315.400	-0.815	0.100
315.500	-9.261	0.100
315.600	16.007	0.101
315.700	-7.887	0.100
315.800	-18.089	0.100
315.900	-15.326	0.100
316.000	34.425	0.101
316.100	-19.594	0.100
316.200	9.377	0.100
316.300	9.414	0.100
316.400	-7.885	0.100
316.500	9.764	0.100
316.600	12.881	0.100
316.700	-40.946	0.100
316.800	-31.184	0.100
316.900	15.584	0.100
317.000	-11.343	0.100
317.100	-21.711	0.100
317.200	0.195	0.100
317.300	-8.330	0.100
317.400	17.238	0.100
317.500	2.046	0.100
317.600	7.473	0.100
317.700	5.811	0.100
317.800	14.357	0.100
317.900	-8.452	0.100
318.000	6.926	0.100
318.100	11.580	0.101
318.200	5.740	0.100
318.300	-5.718	0.100
318.400	-7.230	0.100
318.500	-44.038	0.100
318.600	-4.792	0.100
318.700	-19.016	0.100
318.800	17.084	0.100
318.900	0.181	0.100
319.000	38.408	0.100
319.100	4.491	0.101
319.200	-1.589	0.100
319.300	-37.365	0.100
319.400	6.770	0.101
319.500	19.275	0.100
319.600	14.500	0.100
319.700	4.675	0.101
319.800	-0.378	0.101
319.900	7.440	0.100
320.000	-5.897	0.101
320.100	5.982	0.100
320.200	-0.148	0.100
320.300	2.698	0.101
320.400	-10.249	0.100
320.500	-13.163	0.101
320.600	9.177	0.100
320.700	16.489	0.100
320.800	-26.623	0.100
320.900	-10.037	0.100
321.000	9.673	0.101
321.100	7.661	0.100
321.200	10.822	0.100
321.300	-32.463	0.100
321.400	9.116	0.101
321.500	-34.815	0.100
321.600	-18.268	0.100
321.700	12.626	0.101
321.800	-17.235	0.100
321.900	14.061	0.100
322.000	2.798	0.100
322.100	-50.190	0.100
322.200	-39.490	0.100
322.300	30.854	0.101
322.400	4.846	0.101
322.500	-4.938	0.100
322.600	15.923	0.100
322.700	-16.718	0.100
322.800	-3.475	0.100
322.900	23.389	0.100
323.000	15.388	0.100
323.100	-4.609	0.100
323.200	-13.903	0.100
323.300	-9.314	0.100
323.400	-22.415	0.100
323.500	-36.895	0.101
323.600	-1.807	0.100
323.700	31.309	0.100
323.800	-7.560	0.100
323.900	-17.700	0.100
324.000	-7.994	0.100
324.100	-25.419	0.101
324.200	9.796	0.100
324.300	9.420	0.101
324.400	-35.914	0.100
324.500	-5.503	0.101
324.600	-7.605	0.101
324.700	-31.000	0.101
324.800	-0.264	0.101
324.900	5.894	0.100
325.000	13.593	0.100
325.100	-2.850	0.101
325.200	17.903	0.101
325.300	18.978	0.101
325.400	-5.550	0.100
325.500	-9.949	0.100
325.600	4.273	0.101
325.700	-7.652	0.101
325.800	3.442	0.101
325.900	-26.864	0.100
326.000	-6.004	0.100
326.100	-12.901	0.101
326.200	-15.740	0.100
326.300	18.652	0.101
326.400	-10.453	0.100
326.500	-3.833	0.101
326.600	-27.414	0.101
326.700	14.856	0.100
326.800	2.839	0.101
326.900	4.789	0.100
327.000	4.220	0.100
327.100	-26.373	0.101
327.200	9.172	0.100
327.300	-6.894	0.100
327.400	-19.659	0.101
327.500	-5.843	0.101
327.600	-31.790	0.100
327.700	-17.130	0.101
327.800	16.907	0.100
327.900	-17.950	0.100
328.000	-16.570	0.100
328.100	-0.534	0.101
328.200	-3.832	0.101
328.300	-12.179	0.101
328.400	-21.286	0.100
328.500	-2.220	0.101
328.600	32.616	0.100
328.700	6.386	0.100
328.800	-6.631	0.100
328.900	24.243	0.101
329.000	-2.024	0.101
329.100	-39.035	0.101
329.200	13.433	0.101
329.300	-8.269	0.100
329.400	3.263	0.101
329.500	-35.334	0.100
329.600	21.414	0.100
329.700	-4.016	0.100
329.800	5.339	0.100
329.900	-5.833	0.100
330.000	-15.452	0.100
330.100	-26.903	0.100
330.200	-13.189	0.100
330.300	7.887	0.101
330.400	-7.768	0.100
330.500	-8.464	0.100
330.600	-1.400	0.100
330.700	9.442	0.100
330.800	6.112	0.100
330.900	-21.256	0.101
331.000	-3.712	0.100
331.100	-24.504	0.100
331.200	-1.782	0.100
331.300	-16.385	0.100
331.400	-3.532	0.100
331.500	10.401	0.100
331.600	-16.578	0.100
331.700	-14.686	0.101
331.800	-36.033	0.100
331.900	13.151	0.100
332.000	27.603	0.100
332.100	-0.196	0.100
332.200	19.943	0.100
332.300	-9.655	0.100
332.400	-16.524	0.101
332.500	-3.777	0.100
332.600	-33.842	0.100
332.700	12.601	0.101
332.800	4.509	0.100
332.900	2.851	0.100
333.000	-20.104	0.100
333.100	0.708	0.101
333.200	5.573	0.100
333.300	-3.637	0.101
333.400	1.806	0.101
333.500	-15.724	0.101
333.600	-16.737	0.100
333.700	5.064	0.100
333.800	29.184	0.101
333.900	12.145	0.101
334.000	2.223	0.100
334.100	7.746	0.101
334.200	1.879	0.101
334.300	-10.944	0.101
334.400	26.317	0.101
334.500	-27.037	0.101
334.600	-27.676	0.100
334.700	7.002	0.100
334.800	21.714	0.100
334.900	2.301	0.101
335.000	6.084	0.101
335.100	1.767	0.100
335.200	-20.282	0.100
335.300	-24.042	0.100
335.400	-14.014	0.100
335.500	17.671	0.100
335.600	17.612	0.101
335.700	9.992	0.101
335.800	-6.571	0.101
335.900	3.733	0.100
336.000	12.048	0.101
336.100	-30.286	0.100
336.200	-4.349	0.100
336.300	8.561	0.101
336.400	17.139	0.101
336.500	10.482	0.101
336.600	-13.177	0.101
336.700	13.659	0.101
336.800	33.568	0.101
336.900	-14.654	0.100
337.000	6.811	0.100
337.100	26.842	0.101
337.200	-4.562	0.100
337.300	11.975	0.100
337.400	-21.763	0.100
337.500	15.622	0.100
337.600	-17.481	0.100
337.700	15.846	0.100
337.800	-14.504	0.100
337.900	-16.146	0.100
338.000	16.424	0.101
338.100	18.012	0.101
338.200	36.078	0.100
338.300	-18.756	0.100
338.400	5.381	0.100
338.500	-11.665	0.101
338.600	1.240	0.100
338.700	4.387	0.101
338.800	-0.580	0.100
338.900	11.214	0.101
339.000	-29.421	0.100
339.100	-21.742	0.100
339.200	-16.203	0.101
339.300	1.400	0.100
339.400	-14.398	0.100
339.500	7.012	0.101
339.600	9.841	0.100
339.700	7.348	0.100
339.800	29.258	0.100
339.900	8.519	0.101
340.000	13.134	0.100
340.100	-5.775	0.100
340.200	-22.519	0.100
340.300	-21.234	0.100
340.400	5.642	0.100
340.500	19.665	0.101
340.600	-18.186	0.101
340.700	0.835	0.100
340.800	-2.195	0.100
340.900	-15.370	0.100
341.000	-1.313	0.101
341.100	-19.158	0.100
341.200	2.109	0.100
341.300	4.369	0.100
341.400	-8.192	0.100
341.500	17.079	0.101
341.600	3.978	0.100
341.700	17.078	0.100
341.800	17.427	0.101
341.900	24.891	0.101
342.000	15.689	0.100
342.100	19.079	0.100
342.200	-19.785	0.101
342.300	-9.833	0.101
342.400	-9.174	0.100
342.500	-4.746	0.100
342.600	-3.647	0.101
342.700	-5.592	0.100
342.800	0.477	0.100
342.900	-0.807	0.100
343.000	17.229	0.101
343.100	0.076	0.101
343.200	-1.727	0.100
343.300	11.316	0.101
343.400	5.669	0.101
343.500	10.512	0.100
343.600	-5.747	0.100
343.700	12.311	0.100
343.800	-19.069	0.100
343.900	20.792	0.100
344.000	16.082	0.100
344.100	11.180	0.100
344.200	6.919	0.100
344.300	-21.146	0.100
344.400	3.447	0.101
344.500	11.624	0.101
344.600	-4.822	0.101
344.700	18.996	0.100
344.800	-1.096	0.100
344.900	-17.913	0.100
345.000	31.842	0.100
345.100	14.900	0.101
345.200	19.876	0.100
345.300	0.505	0.100
345.400	20.535	0.101
345.500	-4.929	0.100
345.600	15.670	0.100
345.700	-22.698	0.100
345.800	17.234	0.101
345.900	4.443	0.101
346.000	28.249	0.101
346.100	15.887	0.101
346.200	20.997	0.101
346.300	-22.152	0.101
346.400	-15.428	0.101
346.500	-3.906	0.101
346.600	0.601	0.101
346.700	-13.638	0.100
346.800	-3.295	0.100
346.900	5.885	0.101
347.000	9.193	0.100
347.100	-4.492	0.101
347.200	25.803	0.100
347.300	-0.476	0.101
347.400	7.133	0.100
347.500	2.742	0.100
347.600	29.596	0.100
347.700	18.508	0.101
347.800	-10.599	0.101
347.900	11.922	0.100
348.000	-0.336	0.100
348.100	-4.362	0.100
348.200	21.102	0.100
348.300	14.582	0.100
348.400	16.968	0.101
348.500	23.823	0.101
348.600	18.288	0.101
348.700	29.039	0.100
348.800	38.226	0.101
348.900	9.960	0.101
349.000	22.929	0.101
349.100	27.677	0.101
349.200	10.762	0.100
349.300	10.812	0.101
349.400	14.991	0.100
349.500	-6.793	0.100
349.600	-30.911	0.100
349.700	33.148	0.101
349.800	8.577	0.101
349.900	31.899	0.100
350.000	31.998	0.101
350.100	15.687	0.100
350.200	-1.782	0.101
350.300	-10.442	0.101
350.400	4.154	0.100
350.500	-14.673	0.100
350.600	6.491	0.100
350.700	51.805	0.100
350.800	6.086	0.100
350.900	24.989	0.101
351.000	13.830	0.100
351.100	-21.910	0.100
351.200	9.110	0.100
351.300	33.943	0.101
351.400	-1.729	0.100
351.500	9.027	0.101
351.600	5.689	0.100
351.700	9.918	0.101
351.800	-15.665	0.101
351.900	-22.802	0.101
352.000	11.048	0.100
352.100	17.235	0.101
352.200	-4.749	0.101
352.300	12.132	0.100
352.400	7.547	0.101
352.500	17.859	0.101
352.600	-45.667	0.101
352.700	-12.147	0.100
352.800	3.948	0.101
352.900	18.292	0.101
353.000	24.667	0.101
353.100	8.366	0.101
353.200	10.692	0.101
353.300	30.067	0.101
353.400	8.200	0.100
353.500	3.275	0.101
353.600	10.410	0.100
353.700	-12.694	0.101
353.800	-8.199	0.100
353.900	10.157	0.101
354.000	-28.132	0.101
354.100	24.907	0.101
354.200	24.146	0.101
354.300	20.652	0.101
354.400	7.144	0.101
354.500	5.006	0.100
354.600	-23.659	0.101
354.700	31.587	0.100
354.800	24.688	0.101
354.900	3.202	0.101
355.000	4.030	0.101
355.100	35.078	0.100
355.200	39.273	0.101
355.300	-4.307	0.100
355.400	-3.679	0.100
355.500	15.889	0.101
355.600	21.016	0.100
355.700	25.176	0.101
355.800	11.822	0.100
355.900	3.121	0.101
356.000	4.181	0.100
356.100	0.816	0.101
356.200	59.424	0.101
356.300	-13.134	0.101
356.400	3.166	0.100
356.500	-4.962	0.101
356.600	58.144	0.100
356.700	38.613	0.101
356.800	12.090	0.101
356.900	11.014	0.101
357.000	23.384	0.101
357.100	1.304	0.100
357.200	-7.238	0.100
357.300	18.119	0.100
357.400	-2.495	0.100
357.500	3.682	0.100
357.600	22.536	0.101
357.700	53.027	0.101
357.800	-2.573	0.101
357.900	-25.381	0.101
358.000	-3.470	0.101
358.100	25.145	0.100
358.200	-2.719	0.101
358.300	4.422	0.101
358.400	15.745	0.101
358.500	25.064	0.101
358.600	22.097	0.100
358.700	0.306	0.101
358.800	17.240	0.100
358.900	-8.658	0.100
359.000	52.830	0.101
359.100	52.744	0.100
359.200	9.409	0.101
359.300	46.606	0.100
359.400	40.034	0.101
359.500	59.602	0.101
359.600	29.955	0.101
359.700	11.001	0.101
359.800	32.255	0.101
359.900	-3.517	0.100
360.000	-21.418	0.101
360.100	20.696	0.100
360.200	55.002	0.101
360.300	-9.208	0.101
360.400	23.187	0.100
360.500	47.899	0.101
360.600	20.194	0.101
360.700	13.181	0.100
360.800	0.173	0.101
360.900	23.729	0.101
361.000	35.706	0.101
361.100	-1.585	0.101
361.200	36.376	0.101
361.300	35.332	0.100
361.400	19.721	0.101
361.500	31.812	0.101
361.600	9.264	0.101
361.700	-7.686	0.100
361.800	33.872	0.101
361.900	20.633	0.100
362.000	0.761	0.100
362.100	63.466	0.101
362.200	1.608	0.101
362.300	44.189	0.100
362.400	23.536	0.101
362.500	1.588	0.101
362.600	12.476	0.101
362.700	19.898	0.101
362.800	31.690	0.100
362.900	44.648	0.101
363.000	16.264	0.101
363.100	29.074	0.101
363.200	-4.001	0.100
363.300	47.251	0.101
363.400	23.387	0.101
363.500	17.841	0.101
363.600	11.731	0.100
363.700	18.367	0.100
363.800	30.900	0.100
363.900	13.971	0.100
364.000	26.694	0.101
364.100	19.867	0.100
364.200	11.203	0.101
364.300	19.995	0.101
364.400	32.513	0.100
364.500	0.822	0.101
364.600	44.483	0.100
364.700	25.479	0.100
364.800	27.671	0.100
364.900	24.294	0.101
365.000	35.943	0.101
365.100	22.014	0.101
365.200	43.962	0.101
365.300	-8.564	0.100
365.400	36.819	0.101
365.500	5.060	0.100
365.600	-25.799	0.100
365.700	5.993	0.100
365.800	31.941	0.100
365.900	-1.653	0.100
366.000	50.180	0.100
366.100	7.760	0.101
366.200	7.624	0.101
366.300	8.954	0.100
366.400	28.371	0.100
366.500	26.005	0.100
366.600	9.298	0.101
366.700	29.411	0.101
366.800	19.136	0.100
366.900	-4.123	0.100
367.000	31.492	0.100
367.100	-2.595	0.100
367.200	40.141	0.101
367.300	-7.259	0.101
367.400	24.400	0.101
367.500	-3.029	0.100
367.600	33.764	0.100
367.700	-13.675	0.101
367.800	-6.042	0.100
367.900	59.524	0.100
368.000	29.972	0.100
368.100	8.731	0.101
368.200	12.687	0.100
368.300	48.324	0.100
368.400	9.341	0.101
368.500	5.754	0.101
368.600	46.599	0.100
368.700	19.297	0.100
368.800	-7.736	0.101
368.900	-16.244	0.100
369.000	42.229	0.101
369.100	-13.028	0.100
369.200	0.553	0.100
369.300	-1.699	0.100
369.400	44.930	0.100
369.500	17.302	0.100
369.600	7.382	0.101
369.700	10.944	0.100
369.800	10.082	0.101
369.900	14.703	0.101
370.000	23.182	0.101
370.100	-3.046	0.101
370.200	23.541	0.101
370.300	-11.525	0.101
370.400	25.031	0.100
370.500	21.074	0.101
370.600	50.251	0.100
370.700	12.584	0.101
370.800	29.210	0.101
370.900	23.164	0.101
371.000	18.810	0.101
371.100	-14.451	0.100
371.200	13.174	0.101
371.300	51.063	0.100
371.400	34.772	0.100
371.500	32.439	0.100
371.600	55.093	0.100
371.700	35.876	0.100
371.800	61.446	0.101
371.900	-5.176	0.100
372.000	25.732	0.101
372.100	34.887	0.101
372.200	27.782	0.101
372.300	47.889	0.100
372.400	19.212	0.100
372.500	-2.665	0.100
372.600	39.558	0.101
372.700	41.902	0.100
372.800	60.189	0.100
372.900	14.934	0.101
373.000	27.105	0.101
373.100	39.975	0.100
373.200	35.637	0.100
373.300	26.762	0.100
373.400	15.964	0.100
373.500	54.035	0.100
373.600	8.337	0.101
373.700	49.326	0.101
373.800	45.103	0.100
373.900	3.159	0.100
374.000	22.493	0.100
374.100	60.625	0.100
374.200	34.055	0.101
374.300	22.452	0.100
374.400	12.135	0.100
374.500	26.719	0.100
374.600	10.415	0.100
374.700	38.657	0.100
374.800	-12.723	0.100
374.900	-8.560	0.100
375.000	3.446	0.100
375.100	18.195	0.100
375.200	36.756	0.100
375.300	41.224	0.100
375.400	46.930	0.100
375.500	8.638	0.100
375.600	37.552	0.100
375.700	39.585	0.100
375.800	26.512	0.100
375.900	26.828	0.101
376.000	31.707	0.100
376.100	19.466	0.100
376.200	11.856	0.100
376.300	36.662	0.100
376.400	8.569	0.100
376.500	-19.774	0.101
376.600	31.940	0.100
376.700	43.902	0.100
376.800	29.033	0.100
376.900	18.320	0.100
377.000	-4.250	0.100
377.100	34.651	0.100
377.200	49.902	0.100
377.300	9.572	0.100
377.400	41.751	0.100
377.500	8.199	0.100
377.600	35.165	0.100
377.700	8.548	0.100
377.800	42.788	0.100
377.900	32.710	0.100
378.000	49.073	0.100
378.100	14.119	0.101
378.200	-16.200	0.100
378.300	59.532	0.100
378.400	44.736	0.101
378.500	16.202	0.100
378.600	5.007	0.100
378.700	12.273	0.100
378.800	36.927	0.100
378.900	18.476	0.101
379.000	43.403	0.101
379.100	29.235	0.101
379.200	20.513	0.100
379.300	36.410	0.100
379.400	36.835	0.100
379.500	17.946	0.101
379.600	26.297	0.100
379.700	16.477	0.100
379.800	24.241	0.100
379.900	21.708	0.100
380.000	9.540	0.100
380.100	5.638	0.100
380.200	31.400	0.100
380.300	13.279	0.101
380.400	18.876	0.100
380.500	-5.708	0.100
380.600	60.421	0.101
380.700	25.510	0.101
380.800	40.984	0.100
380.900	-2.774	0.101
381.000	46.919	0.101
381.100	57.910	0.100
381.200	16.962	0.100
381.300	33.154	0.101
381.400	40.966	0.100
381.500	-20.262	0.101
381.600	27.830	0.100
381.700	21.853	0.101
381.800	24.849	0.101
381.900	55.514	0.100
382.000	21.192	0.101
382.100	7.843	0.101
382.200	6.492	0.100
382.300	19.837	0.100
382.400	17.670	0.100
382.500	46.337	0.101
382.600	30.184	0.101
382.700	33.746	0.101
382.800	12.619	0.101
382.900	24.402	0.100
383.000	28.582	0.100
383.100	46.834	0.101
383.200	33.813	0.100
383.300	-9.963	0.100
383.400	38.178	0.100
383.500	25.123	0.101
383.600	21.930	0.101
383.700	38.608	0.100
383.800	4.438	0.101
383.900	56.266	0.100
384.000	37.042	0.101
384.100	34.517	0.100
384.200	21.902	0.100
384.300	34.139	0.101
384.400	-3.177	0.100
384.500	10.049	0.101
384.600	34.527	0.101
384.700	43.879	0.101
384.800	33.034	0.100
384.900	36.023	0.101
385.000	48.066	0.100
385.100	35.793	0.101
385.200	33.847	0.101
385.300	20.489	0.101
385.400	51.349	0.101
385.500	-3.180	0.100
385.600	13.333	0.100
385.700	43.949	0.101
385.800	43.550	0.101
385.900	38.372	0.101
386.000	31.243	0.101
386.100	31.839	0.101
386.200	42.445	0.101
386.300	22.038	0.100
386.400	37.939	0.100
386.500	3.886	0.100
386.600	46.350	0.101
386.700	77.882	0.100
386.800	12.399	0.100
386.900	39.555	0.101
387.000	46.732	0.101
387.100	39.097	0.100
387.200	-6.792	0.100
387.300	15.117	0.100
387.400	44.372	0.100
387.500	23.974	0.100
387.600	-19.479	0.100
387.700	29.205	0.100
387.800	20.379	0.100
387.900	35.009	0.101
388.000	74.762	0.100
388.100	41.800	0.100
388.200	10.192	0.101
388.300	-9.828	0.100
388.400	2.710	0.100
388.500	40.690	0.101
388.600	18.423	0.100
388.700	28.858	0.100
388.800	22.168	0.100
388.900	21.027	0.101
389.000	39.381	0.100
389.100	25.001	0.100
389.200	5.286	0.100
389.300	28.144	0.100
389.400	29.167	0.101
389.500	32.104	0.101
389.600	35.625	0.100
389.700	12.265	0.100
389.800	42.106	0.100
389.900	12.547	0.100
390.000	16.156	0.100
390.100	26.560	0.101
390.200	41.387	0.100
390.300	18.586	0.101
390.400	14.311	0.101
390.500	31.360	0.100
390.600	12.285	0.101
390.700	34.924	0.100
390.800	10.565	0.100
390.900	50.374	0.100
391.000	34.201	0.100
391.100	30.074	0.101
391.200	-2.594	0.100
391.300	23.462	0.100
391.400	34.428	0.100
391.500	44.038	0.101
391.600	34.578	0.100
391.700	21.266	0.100
391.800	33.683	0.101
391.900	33.534	0.100
392.000	5.625	0.100
392.100	45.747	0.100
392.200	14.201	0.100
392.300	32.659	0.101
392.400	6.071	0.100
392.500	45.398	0.100
392.600	25.096	0.101
392.700	48.931	0.100
392.800	4.948	0.100
392.900	62.383	0.100
393.000	21.498	0.101
393.100	2.490	0.101
393.200	15.885	0.100
393.300	25.578	0.100
393.400	48.167	0.100
393.500	9.112	0.100
393.600	36.774	0.101
393.700	51.635	0.100
393.800	11.088	0.100
393.900	24.391	0.100
394.000	20.621	0.100
394.100	-8.635	0.100
394.200	23.905	0.100
394.300	53.109	0.101
394.400	29.643	0.100
394.500	29.470	0.100
394.600	20.390	0.100
394.700	35.245	0.100
394.800	40.810	0.100
394.900	-1.442	0.100
395.000	19.766	0.100
395.100	35.582	0.100
395.200	38.211	0.100
395.300	64.946	0.100
395.400	11.647	0.100
395.500	11.651	0.100
395.600	-23.297	0.100
395.700	41.932	0.100
395.800	50.610	0.100
395.900	28.193	0.101
396.000	-21.523	0.100
396.100	-4.921	0.100
396.200	31.547	0.100
396.300	-5.007	0.100
396.400	16.526	0.100
396.500	37.052	0.100
396.600	50.930	0.100
396.700	12.418	0.100
396.800	35.967	0.100
396.900	48.616	0.100
397.000	40.827	0.101
397.100	9.787	0.100
397.200	22.969	0.100
397.300	26.770	0.101
397.400	33.019	0.100
397.500	48.829	0.101
397.600	-6.683	0.100
397.700	50.149	0.101
397.800	39.629	0.100
397.900	19.136	0.100
398.000	35.787	0.100
398.100	19.638	0.100
398.200	5.014	0.100
398.300	34.182	0.100
398.400	7.522	0.100
398.500	12.094	0.100
398.600	3.514	0.100
398.700	40.580	0.100
398.800	27.818	0.100
398.900	0.378	0.100
399.000	39.744	0.100
399.100	26.274	0.101
399.200	2.635	0.100
399.300	-11.071	0.100
399.400	34.890	0.101
399.500	34.160	0.100
399.600	28.838	0.101
399.700	7.733	0.100
399.800	23.487	0.101
399.900	20.853	0.100
400.000	19.221	0.100
400.100	0.909	0.100
400.200	0.013	0.100
400.300	14.253	0.101
400.400	-13.842	0.100
400.500	40.638	0.100
400.600	10.573	0.100
400.700	28.062	0.100
400.800	5.039	0.100
400.900	7.512	0.101
401.000	8.329	0.100
401.100	14.217	0.100
401.200	7.860	0.100
401.300	30.370	0.100
401.400	30.784	0.100
401.500	18.527	0.101
401.600	21.062	0.100
401.700	-46.650	0.100
401.800	40.014	0.100
401.900	15.003	0.100
402.000	6.141	0.100
402.100	20.529	0.100
402.200	24.356	0.101
402.300	17.668	0.100
402.400	4.544	0.100
402.500	18.282	0.101
402.600	21.969	0.100
402.700	28.149	0.101
402.800	37.873	0.100
402.900	17.336	0.100
403.000	16.971	0.100
403.100	25.223	0.100
403.200	-1.775	0.101
403.300	37.413	0.100
403.400	24.645	0.100
403.500	36.335	0.100
403.600	7.895	0.101
403.700	37.840	0.100
403.800	9.297	0.100
403.900	24.594	0.101
404.000	21.803	0.100
404.100	45.460	0.100
404.200	16.453	0.101
404.300	18.703	0.100
404.400	15.671	0.100
404.500	19.358	0.100
404.600	14.756	0.101
404.700	25.500	0.101
404.800	34.098	0.101
404.900	-3.120	0.100
405.000	23.665	0.100
405.100	-13.404	0.100
405.200	18.110	0.100
405.300	37.951	0.101
405.400	11.294	0.100
405.500	28.775	0.100
405.600	-5.342	0.100
405.700	18.512	0.101
405.800	15.176	0.100
405.900	18.254	0.100
406.000	0.891	0.100
406.100	49.398	0.100
406.200	18.496	0.101
406.300	39.607	0.101
406.400	6.062	0.100
406.500	13.692	0.100
406.600	-2.597	0.100
406.700	24.529	0.100
406.800	-13.334	0.101
406.900	54.538	0.101
407.000	13.012	0.101
407.100	-11.705	0.101
407.200	7.574	0.100
407.300	-12.139	0.100
407.400	42.596	0.100
407.500	20.470	0.100
407.600	6.754	0.100
407.700	28.479	0.100
407.800	12.106	0.100
407.900	-10.320	0.100
408.000	4.173	0.100
408.100	40.438	0.100
408.200	24.290	0.101
408.300	37.322	0.100
408.400	45.988	0.100
408.500	-4.930	0.100
408.600	40.527	0.100
408.700	62.235	0.100
408.800	7.855	0.100
408.900	16.816	0.100
409.000	45.474	0.100
409.100	-1.065	0.101
409.200	27.834	0.101
409.300	26.794	0.101
409.400	26.263	0.100
409.500	-2.164	0.100
409.600	-4.736	0.100
409.700	-6.696	0.100
409.800	27.498	0.100
409.900	5.803	0.101
410.000	33.252	0.100
410.100	23.890	0.100
410.200	41.789	0.101
410.300	19.148	0.100
410.400	2.541	0.100
410.500	2.834	0.101
410.600	10.233	0.100
410.700	23.166	0.101
410.800	17.025	0.100
410.900	28.343	0.100
411.000	5.626	0.100
411.100	22.515	0.101
411.200	-7.734	0.101
411.300	-5.278	0.100
411.400	19.399	0.100
411.500	4.270	0.100
411.600	-4.416	0.100
411.700	21.471	0.100
411.800	9.098	0.100
411.900	12.094	0.100
412.000	33.304	0.101
412.100	41.384	0.100
412.200	18.702	0.100
412.300	20.248	0.100
412.400	9.742	0.100
412.500	21.520	0.100
412.600	47.060	0.100
412.700	1.125	0.101
412.800	-22.379	0.100
412.900	30.404	0.101
413.000	29.546	0.101
413.100	-5.688	0.100
413.200	-8.096	0.100
413.300	34.740	0.100
413.400	14.984	0.100
413.500	-6.109	0.100
413.600	6.333	0.100
413.700	13.965	0.100
413.800	37.447	0.101
413.900	-7.352	0.100
414.000	27.179	0.100
414.100	7.348	0.100
414.200	18.306	0.101
414.300	28.974	0.100
414.400	12.665	0.101
414.500	-0.209	0.100
414.600	-4.904	0.100
414.700	10.895	0.100
414.800	31.452	0.101
414.900	-2.704	0.101
415.000	-10.559	0.100
415.100	29.520	0.101
415.200	16.546	0.101
415.300	3.172	0.101
415.400	-0.153	0.100
415.500	19.228	0.100
415.600	32.383	0.101
415.700	-8.367	0.100
415.800	-19.971	0.100
415.900	12.153	0.101
416.000	26.531	0.100
416.100	17.827	0.100
416.200	3.415	0.100
416.300	39.937	0.100
416.400	-1.114	0.100
416.500	10.968	0.100
416.600	27.772	0.101
416.700	28.432	0.101
416.800	31.482	0.100
416.900	12.398	0.100
417.000	2.788	0.101
417.100	8.209	0.100
417.200	17.818	0.100
417.300	13.872	0.101
417.400	-5.023	0.100
417.500	23.680	0.100
417.600	1.063	0.100
417.700	-26.552	0.100
417.800	12.401	0.100
417.900	11.864	0.100
418.000	-5.342	0.100
418.100	35.171	0.101
418.200	17.689	0.100
418.300	14.508	0.101
418.400	18.714	0.101
418.500	-20.610	0.101
418.600	18.018	0.101
418.700	14.056	0.101
418.800	38.937	0.100
418.900	28.209	0.100
419.000	28.319	0.100
419.100	-12.642	0.100
419.200	48.731	0.101
419.300	39.980	0.101
419.400	31.761	0.100
419.500	9.868	0.101
419.600	1.840	0.100
419.700	-16.101	0.100
419.800	17.201	0.101
419.900	3.708	0.101
420.000	25.792	0.101
420.100	-6.413	0.101
420.200	7.328	0.100
420.300	2.807	0.101
420.400	16.205	0.101
420.500	27.718	0.100
420.600	21.680	0.100
420.700	11.305	0.100
420.800	39.318	0.100
420.900	-0.074	0.100
421.000	4.420	0.101
421.100	10.250	0.100
421.200	-8.414	0.101
421.300	9.672	0.101
421.400	18.496	0.101
421.500	29.649	0.101
421.600	-3.122	0.101
421.700	33.297	0.101
421.800	2.880	0.101
421.900	-20.206	0.101
422.000	47.062	0.101
422.100	17.348	0.100
422.200	6.230	0.101
422.300	12.000	0.101
422.400	10.581	0.100
422.500	-30.274	0.100
422.600	13.054	0.101
422.700	45.497	0.101
422.800	7.352	0.101
422.900	-3.529	0.100
423.000	-3.368	0.101
423.100	-0.690	0.101
423.200	11.921	0.101
423.300	18.763	0.100
423.400	18.686	0.101
423.500	-5.789	0.101
423.600	7.833	0.101
423.700	7.397	0.100
423.800	9.469	0.101
423.900	1.614	0.101
424.000	24.148	0.100
424.100	-4.649	0.101
424.200	27.838	0.100
424.300	8.165	0.101
424.400	13.201	0.101
424.500	17.474	0.100
424.600	10.671	0.101
424.700	8.960	0.101
424.800	2.377	0.101
424.900	12.698	0.101
425.000	6.344	0.100
425.100	8.998	0.100
425.200	49.896	0.101
425.300	26.465	0.100
425.400	28.346	0.101
425.500	-18.181	0.101
425.600	22.233	0.101
425.700	11.846	0.100
425.800	53.305	0.101
425.900	19.684	0.101
426.000	-22.579	0.100
426.100	16.320	0.100
426.200	27.312	0.100
426.300	16.811	0.101
426.400	-9.340	0.100
426.500	21.687	0.100
426.600	-3.807	0.100
426.700	16.844	0.100
426.800	12.942	0.101
426.900	50.257	0.101
427.000	0.797	0.101
427.100	-13.747	0.101
427.200	-2.588	0.101
427.300	32.133	0.101
427.400	7.536	0.101
427.500	-5.617	0.100
427.600	36.095	0.101
427.700	-15.556	0.101
427.800	-16.069	0.101
427.900	17.488	0.101
428.000	46.033	0.101
428.100	-29.170	0.101
428.200	32.402	0.101
428.300	-0.975	0.101
428.400	9.254	0.101
428.500	2.144	0.101
428.600	28.466	0.100
428.700	-25.191	0.101
428.800	-26.984	0.101
428.900	18.136	0.101
429.000	23.473	0.101
429.100	14.829	0.101
429.200	6.045	0.101
429.300	15.627	0.101
429.400	37.037	0.101
429.500	2.144	0.101
429.600	9.896	0.101
429.700	30.964	0.101
429.800	3.507	0.101
429.900	-15.667	0.101
430.000	10.485	0.101
430.100	-5.330	0.101
430.200	12.621	0.101
430.300	10.103	0.101
430.400	-6.902	0.101
430.500	11.176	0.101
430.600	-48.821	0.101
430.700	16.743	0.101
430.800	8.362	0.101
430.900	-16.131	0.101
431.000	-10.297	0.101
431.100	3.738	0.101
431.200	13.800	0.101
431.300	-7.148	0.101
431.400	-0.389	0.101
431.500	5.692	0.101
431.600	11.605	0.101
431.700	-8.249	0.101
431.800	6.836	0.101
431.900	-16.776	0.101
432.000	12.088	0.101
432.100	5.977	0.101
432.200	-14.890	0.100
432.300	2.593	0.101
432.400	26.950	0.101
432.500	-4.977	0.101
432.600	-6.559	0.101
432.700	19.767	0.101
432.800	34.809	0.100
432.900	13.243	0.101
433.000	-8.240	0.101
433.100	41.578	0.101
433.200	20.556	0.101
433.300	-1.452	0.101
433.400	25.124	0.101
433.500	-8.929	0.100
433.600	-0.137	0.101
433.700	19.804	0.100
433.800	4.143	0.101
433.900	-21.706	0.100
434.000	29.634	0.101
434.100	25.820	0.101
434.200	-6.670	0.101
434.300	-20.201	0.101
434.400	19.974	0.101
434.500	5.388	0.101
434.600	22.102	0.101
434.700	41.791	0.100
434.800	-20.447	0.100
434.900	17.875	0.101
435.000	27.416	0.101
435.100	-31.130	0.101
435.200	30.829	0.101
435.300	3.365	0.101
435.400	0.479	0.101
435.500	1.026	0.101
435.600	0.327	0.100
435.700	9.667	0.101
435.800	-12.912	0.101
435.900	30.698	0.101
436.000	12.030	0.100
436.100	1.566	0.100
436.200	-14.445	0.101
436.300	10.662	0.101
436.400	-20.224	0.101
436.500	8.673	0.101
436.600	11.315	0.101
436.700	2.737	0.100
436.800	38.216	0.101
436.900	-1.119	0.101
437.000	-18.471	0.101
437.100	-7.376	0.101
437.200	4.310	0.101
437.300	3.166	0.101
437.400	13.143	0.100
437.500	-3.117	0.101
437.600	-36.126	0.101
437.700	0.931	0.101
437.800	27.741	0.101
437.900	-10.063	0.101
438.000	2.314	0.101
438.100	-9.438	0.101
438.200	7.702	0.100
438.300	25.968	0.101
438.400	23.298	0.101
438.500	19.116	0.100
438.600	-0.320	0.101
438.700	19.798	0.101
438.800	-2.458	0.101
438.900	-2.344	0.100
439.000	-19.659	0.101
439.100	-4.437	0.100
439.200	11.753	0.100
439.300	22.601	0.100
439.400	1.891	0.100
439.500	-12.033	0.101
439.600	11.566	0.101
439.700	-20.076	0.100
439.800	0.802	0.101
439.900	3.379	0.100
440.000	18.686	0.101
440.100	19.648	0.101
440.200	12.493	0.101
440.300	3.839	0.101
440.400	11.680	0.101
440.500	-0.146	0.101
440.600	7.221	0.101
440.700	28.242	0.100
440.800	30.268	0.101
440.900	15.957	0.101
441.000	23.065	0.101
441.100	-2.779	0.100
441.200	14.655	0.101
441.300	20.774	0.101
441.400	12.568	0.100
441.500	-28.408	0.100
441.600	7.077	0.100
441.700	-13.706	0.100
441.800	1.792	0.101
441.900	-10.735	0.101
442.000	5.996	0.101
442.100	3.902	0.100
442.200	-21.798	0.100
442.300	-15.660	0.101
442.400	-12.917	0.100
442.500	-16.035	0.100
442.600	17.097	0.101
442.700	15.132	0.100
442.800	17.781	0.101
442.900	-7.497	0.101
443.000	-23.901	0.101
443.100	25.888	0.101
443.200	-18.466	0.100
443.300	1.193	0.101
443.400	-9.156	0.101
443.500	-16.804	0.101
443.600	-14.549	0.101
443.700	-8.346	0.100
443.800	19.335	0.101
443.900	10.028	0.101
444.000	-25.916	0.101
444.100	3.940	0.100
444.200	-33.114	0.100
444.300	39.635	0.101
444.400	21.244	0.101
444.500	-32.391	0.100
444.600	0.721	0.101
444.700	-10.705	0.101
444.800	2.543	0.101
444.900	-15.353	0.100
445.000	10.657	0.101
445.100	-6.389	0.101
445.200	-3.456	0.101
445.300	16.134	0.101
445.400	2.009	0.101
445.500	10.157	0.100
445.600	3.607	0.100
445.700	14.029	0.101
445.800	-17.465	0.100
445.900	7.991	0.100
446.000	19.154	0.100
446.100	-9.311	0.101
446.200	-24.698	0.101
446.300	6.356	0.101
446.400	0.434	0.100
446.500	4.828	0.101
446.600	-14.266	0.101
446.700	10.264	0.101
446.800	24.773	0.101
446.900	13.324	0.101
447.000	15.216	0.101
447.100	-11.923	0.101
447.200	-0.910	0.101
447.300	-16.619	0.101
447.400	-13.310	0.100
447.500	9.437	0.101
447.600	16.342	0.101
447.700	-20.734	0.100
447.800	-6.017	0.101
447.900	15.229	0.101
448.000	-34.053	0.101
448.100	14.419	0.101
448.200	8.051	0.101
448.300	9.082	0.101
448.400	16.889	0.100
448.500	-2.941	0.100
448.600	-14.189	0.100
448.700	-7.424	0.101
448.800	16.227	0.101
448.900	23.019	0.101
449.000	45.145	0.101
449.100	0.605	0.101
449.200	-7.434	0.101
449.300	20.556	0.101
449.400	-11.373	0.101
449.500	18.359	0.101
449.600	-1.371	0.101
449.700	-9.074	0.101
449.800	20.796	0.101
449.900	-11.922	0.101
450.000	-15.441	0.101
450.100	11.000	0.101
450.200	10.391	0.101
450.300	-12.985	0.101
450.400	13.530	0.101
450.500	3.333	0.101
450.600	-0.064	0.100
450.700	-29.011	0.101
450.800	-16.535	0.101
450.900	-6.569	0.101
451.000	27.669	0.101
451.100	-25.672	0.100
451.200	3.032	0.101
451.300	-12.206	0.101
451.400	3.985	0.101
451.500	4.954	0.100
451.600	17.688	0.100
451.700	-14.463	0.101
451.800	34.543	0.101
451.900	-42.214	0.101
452.000	28.609	0.101
452.100	18.133	0.101
452.200	-16.406	0.100
452.300	-21.666	0.100
452.400	-11.909	0.100
452.500	-1.611	0.101
452.600	14.429	0.101
452.700	-23.158	0.100
452.800	-19.944	0.101
452.900	15.016	0.101
453.000	-15.079	0.101
453.100	28.250	0.101
453.200	15.935	0.101
453.300	-15.760	0.101
453.400	-7.225	0.100
453.500	-24.473	0.100
453.600	20.410	0.101
453.700	-12.035	0.100
453.800	-5.077	0.101
453.900	-15.427	0.101
454.000	-21.373	0.100
454.100	-9.009	0.101
454.200	-25.537	0.101
454.300	-8.903	0.100
454.400	29.827	0.101
454.500	-35.387	0.101
454.600	7.927	0.100
454.700	32.446	0.101
454.800	-28.417	0.100
454.900	-14.020	0.101
455.000	-40.566	0.101
455.100	1.085	0.101
455.200	-0.076	0.100
455.300	-10.241	0.101
455.400	10.962	0.101
455.500	-4.466	0.100
455.600	6.921	0.101
455.700	-42.392	0.101
455.800	-6.476	0.101
455.900	11.974	0.101
456.000	-22.696	0.101
456.100	32.183	0.101
456.200	2.107	0.101
456.300	-15.915	0.101
456.400	2.070	0.101
456.500	10.374	0.101
456.600	6.083	0.101
456.700	-0.189	0.100
456.800	32.603	0.100
456.900	-24.424	0.101
457.000	-24.055	0.101
457.100	1.916	0.101
457.200	5.152	0.101
457.300	-5.120	0.101
457.400	3.521	0.100
457.500	30.060	0.101
457.600	-11.357	0.101
457.700	-36.538	0.101
457.800	-0.419	0.100
457.900	20.050	0.101
458.000	11.529	0.101
458.100	27.097	0.101
458.200	-8.696	0.100
458.300	-11.669	0.100
458.400	19.274	0.101
458.500	5.354	0.101
458.600	-11.324	0.101
458.700	-0.916	0.101
458.800	-3.759	0.100
458.900	-17.006	0.101
459.000	-17.236	0.100
459.100	-16.065	0.101
459.200	-5.791	0.100
459.300	4.982	0.100
459.400	28.367	0.101
459.500	-10.485	0.101
459.600	-6.983	0.100
459.700	38.782	0.101
459.800	25.783	0.101
459.900	-31.875	0.100
460.000	-15.977	0.101
460.100	6.917	0.100
460.200	-23.562	0.101
460.300	11.037	0.101
460.400	-4.154	0.101
460.500	14.914	0.101
460.600	-15.254	0.101
460.700	-17.429	0.100
460.800	3.917	0.101
460.900	29.920	0.100
461.000	9.627	0.101
461.100	8.436	0.100
461.200	-0.146	0.101
461.300	-8.595	0.100
461.400	-10.926	0.100
461.500	-22.522	0.101
461.600	11.059	0.101
461.700	17.380	0.101
461.800	15.021	0.100
461.900	9.130	0.100
462.000	-15.831	0.100
462.100	15.471	0.100
462.200	4.979	0.101
462.300	4.068	0.101
462.400	-18.187	0.101
462.500	-11.307	0.101
462.600	14.551	0.101
462.700	0.233	0.100
462.800	-16.149	0.101
462.900	-1.760	0.101
463.000	0.487	0.101
463.100	13.723	0.101
463.200	-14.999	0.101
463.300	-14.344	0.101
463.400	-27.026	0.100
463.500	-25.486	0.101
463.600	-8.568	0.101
463.700	28.322	0.101
463.800	-4.387	0.101
463.900	-6.196	0.101
464.000	16.668	0.101
464.100	25.162	0.101
464.200	11.838	0.101
464.300	5.980	0.101
464.400	-21.640	0.101
464.500	27.394	0.101
464.600	-19.536	0.101
464.700	-4.894	0.101
464.800	13.408	0.101
464.900	17.372	0.101
465.000	6.600	0.100
465.100	-26.599	0.101
465.200	-20.874	0.101
465.300	-19.317	0.101
465.400	2.417	0.100
465.500	-20.503	0.101
465.600	7.762	0.101
465.700	-1.573	0.101
465.800	26.352	0.101
465.900	31.943	0.100
466.000	-24.960	0.101
466.100	21.754	0.100
466.200	-39.532	0.101
466.300	-9.256	0.100
466.400	3.294	0.101
466.500	-27.350	0.101
466.600	-23.755	0.101
466.700	1.216	0.101
466.800	17.506	0.101
466.900	26.489	0.101
467.000	-6.738	0.100
467.100	8.662	0.101
467.200	3.138	0.101
467.300	-14.440	0.100
467.400	-32.874	0.101
467.500	2.067	0.100
467.600	11.611	0.100
467.700	-14.675	0.100
467.800	9.288	0.101
467.900	-16.953	0.101
468.000	-13.077	0.101
468.100	-14.438	0.101
468.200	-20.994	0.101
468.300	-21.140	0.100
468.400	7.685	0.101
468.500	-6.649	0.101
468.600	13.925	0.101
468.700	-17.717	0.101
468.800	-19.375	0.100
468.900	-13.790	0.101
469.000	-8.949	0.101
469.100	3.601	0.101
469.200	-25.871	0.101
469.300	-7.431	0.101
469.400	-5.186	0.101
469.500	-11.823	0.100
469.600	-37.126	0.101
469.700	15.826	0.101
469.800	-5.394	0.101
469.900	28.097	0.101
470.000	4.136	0.101
470.100	-9.238	0.101
470.200	17.029	0.101
470.300	-0.588	0.101
470.400	23.962	0.101
470.500	12.955	0.101
470.600	-2.387	0.101
470.700	-47.530	0.101
470.800	-19.616	0.101
470.900	-6.137	0.101
471.000	-3.218	0.100
471.100	28.305	0.101
471.200	16.630	0.101
471.300	-6.148	0.101
471.400	-17.301	0.100
471.500	-27.208	0.101
471.600	-6.452	0.101
471.700	1.942	0.101
471.800	0.317	0.101
471.900	-13.628	0.101
472.000	2.155	0.100
472.100	-5.720	0.101
472.200	-27.174	0.101
472.300	-4.729	0.101
472.400	12.059	0.101
472.500	-3.765	0.101
472.600	-10.328	0.101
472.700	-8.342	0.101
472.800	11.863	0.101
472.900	-13.815	0.101
473.000	-7.298	0.101
473.100	-25.481	0.101
473.200	0.808	0.101
473.300	17.049	0.101
473.400	14.001	0.101
473.500	-38.033	0.101
473.600	-21.585	0.101
473.700	-7.027	0.101
473.800	-14.065	0.100
473.900	8.378	0.101
474.000	0.747	0.101
474.100	-17.997	0.101
474.200	-4.222	0.101
474.300	-29.275	0.101
474.400	-14.459	0.101
474.500	-6.128	0.100
474.600	-12.208	0.101
474.700	5.264	0.101
474.800	29.676	0.101
474.900	-30.705	0.101
475.000	19.929	0.101
475.100	4.114	0.101
475.200	-14.148	0.101
475.300	10.635	0.101
475.400	8.985	0.101
475.500	-16.319	0.101
475.600	-17.826	0.101
475.700	-5.621	0.101
475.800	0.482	0.101
475.900	-5.153	0.101
476.000	-0.001	0.101
476.100	13.444	0.101
476.200	-18.925	0.101
476.300	-30.580	0.101
476.400	-15.241	0.101
476.500	-16.089	0.101
476.600	32.870	0.101
476.700	-6.176	0.101
476.800	45.427	0.101
476.900	-9.400	0.101
477.000	11.069	0.101
477.100	3.167	0.101
477.200	-20.118	0.101
477.300	-16.784	0.101
477.400	4.465	0.101
477.500	-9.245	0.101
477.600	-4.411	0.101
477.700	-11.124	0.101
477.800	-7.705	0.101
477.900	-9.387	0.101
478.000	25.429	0.101
478.100	-16.546	0.101
478.200	-10.771	0.101
478.300	19.844	0.101
478.400	-54.638	0.100
478.500	28.022	0.101
478.600	1.829	0.101
478.700	-7.603	0.101
478.800	-26.210	0.101
478.900	-10.114	0.101
479.000	-0.972	0.101
479.100	-30.700	0.101
479.200	-30.333	0.101
479.300	42.662	0.101
479.400	22.451	0.101
479.500	-16.027	0.101
479.600	1.290	0.101
479.700	-25.010	0.101
479.800	13.046	0.101
479.900	-29.566	0.101
480.000	3.421	0.101
480.100	0.714	0.101
480.200	-12.129	0.101
480.300	10.117	0.101
480.400	-23.163	0.101
480.500	-30.742	0.101
480.600	-30.512	0.101
480.700	15.143	0.101
480.800	-13.602	0.101
480.900	-1.470	0.101
481.000	-26.965	0.101
481.100	2.461	0.101
481.200	-8.524	0.101
481.300	-7.215	0.101
481.400	5.899	0.101
481.500	9.939	0.101
481.600	21.165	0.101
481.700	2.315	0.101
481.800	20.017	0.101
481.900	13.737	0.101
482.000	7.359	0.100
482.100	-4.199	0.101
482.200	9.970	0.101
482.300	13.043	0.100
482.400	6.011	0.101
482.500	-8.985	0.101
482.600	-35.293	0.101
482.700	10.831	0.101
482.800	-17.822	0.101
482.900	25.669	0.101
483.000	19.481	0.101
483.100	5.281	0.101
483.200	3.003	0.100
483.300	0.822	0.101
483.400	-1.257	0.101
483.500	1.831	0.101
483.600	-9.351	0.101
483.700	-0.226	0.101
483.800	-0.008	0.101
483.900	26.623	0.101
484.000	5.960	0.101
484.100	1.893	0.101
484.200	19.667	0.101
484.300	3.053	0.101
484.400	0.298	0.100
484.500	10.598	0.100
484.600	-30.067	0.101
484.700	26.355	0.101
484.800	-25.228	0.101
484.900	25.338	0.101
485.000	18.478	0.101
485.100	-2.408	0.101
485.200	5.520	0.101
485.300	0.537	0.101
485.400	3.157	0.101
485.500	-31.267	0.101
485.600	6.682	0.101
485.700	7.773	0.101
485.800	7.911	0.101
485.900	18.790	0.101
486.000	42.319	0.101
486.100	-7.874	0.101
486.200	-2.376	0.101
486.300	-15.500	0.101
486.400	5.122	0.101
486.500	10.903	0.101
486.600	-0.168	0.101
486.700	-8.915	0.101
486.800	-15.175	0.101
486.900	-32.899	0.100
487.000	-3.720	0.100
487.100	0.506	0.100
487.200	3.090	0.101
487.300	8.141	0.101
487.400	-32.912	0.101
487.500	-1.709	0.101
487.600	11.819	0.101
487.700	-10.792	0.101
487.800	14.755	0.100
487.900	5.859	0.101
488.000	6.409	0.101
488.100	-11.236	0.101
488.200	7.325	0.101
488.300	11.932	0.101
488.400	-1.791	0.101
488.500	11.520	0.101
488.600	24.362	0.101
488.700	-10.926	0.101
488.800	-7.436	0.101
488.900	-20.115	0.101
489.000	-3.343	0.101
489.100	33.975	0.101
489.200	-11.827	0.101
489.300	-4.756	0.101
489.400	-4.868	0.101
489.500	-28.901	0.101
489.600	-8.501	0.101
489.700	14.639	0.101
489.800	-15.907	0.101
489.900	4.007	0.101
490.000	10.055	0.101
490.100	1.311	0.101
490.200	-10.385	0.101
490.300	17.768	0.101
490.400	-11.913	0.101
490.500	29.303	0.101
490.600	10.170	0.101
490.700	12.452	0.101
490.800	6.358	0.101
490.900	17.550	0.101
491.000	-6.837	0.101
491.100	17.398	0.101
491.200	42.167	0.101
491.300	33.255	0.101
491.400	19.158	0.101
491.500	-2.274	0.101
491.600	8.150	0.101
491.700	-3.009	0.101
491.800	-16.529	0.101
491.900	-4.067	0.101
492.000	-0.039	0.101
492.100	1.759	0.101
492.200	19.705	0.101
492.300	-19.705	0.101
492.400	14.407	0.101
492.500	-4.050	0.101
492.600	2.120	0.101
492.700	16.387	0.101
492.800	4.085	0.101
492.900	-3.405	0.101
493.000	23.789	0.101
493.100	-13.818	0.101
493.200	13.051	0.101
493.300	-6.773	0.101
493.400	-7.511	0.101
493.500	-11.773	0.101
493.600	6.166	0.101
493.700	12.011	0.101
493.800	24.676	0.101
493.900	-15.543	0.101
494.000	9.822	0.101
494.100	9.724	0.101
494.200	9.166	0.101
494.300	22.906	0.101
494.400	33.394	0.101
494.500	33.916	0.101
494.600	42.609	0.101
494.700	5.127	0.101
494.800	3.879	0.101
494.900	-0.936	0.100
495.000	32.361	0.101
495.100	0.853	0.101
495.200	-15.840	0.101
495.300	8.972	0.101
495.400	-0.476	0.101
495.500	18.992	0.101
495.600	20.707	0.101
495.700	8.578	0.101
495.800	1.220	0.101
495.900	-0.227	0.101
496.000	7.712	0.101
496.100	29.240	0.101
496.200	-9.732	0.101
496.300	6.390	0.101
496.400	33.332	0.101
496.500	22.839	0.101
496.600	-6.098	0.101
496.700	42.263	0.101
496.800	-17.928	0.101
496.900	3.951	0.101
497.000	-9.057	0.101
497.100	9.481	0.101
497.200	12.535	0.101
497.300	-11.505	0.101
497.400	15.802	0.100
497.500	-1.233	0.101
497.600	-1.633	0.101
497.700	9.433	0.101
497.800	35.697	0.101
497.900	-2.815	0.101
498.000	-8.598	0.101
498.100	-5.319	0.101
498.200	48.162	0.101
498.300	34.337	0.101
498.400	-1.414	0.101
498.500	8.792	0.101
498.600	-14.677	0.101
498.700	1.317	0.101
498.800	-11.638	0.101
498.900	35.800	0.101
499.000	28.124	0.101
499.100	26.361	0.101
499.200	-1.869	0.101
499.300	7.655	0.101
499.400	5.589	0.101
499.500	18.300	0.100
499.600	23.153	0.101
499.700	7.580	0.101
499.800	15.164	0.100
499.900	11.566	0.101
500.000	-0.188	0.100
500.100	-17.030	0.101
500.200	-0.800	0.100
500.300	-2.618	0.100
500.400	8.450	0.100
500.500	14.090	0.100
500.600	7.242	0.100
500.700	-4.059	0.100
500.800	45.816	0.101
500.900	1.382	0.100
501.000	6.680	0.100
501.100	0.686	0.101
501.200	-0.464	0.101
501.300	23.009	0.101
501.400	-5.537	0.101
501.500	6.752	0.100
501.600	9.860	0.101
501.700	34.963	0.101
501.800	8.228	0.100
501.900	1.326	0.100
502.000	-10.549	0.101
502.100	19.902	0.100
502.200	-17.898	0.100
502.300	-18.110	0.100
502.400	38.448	0.101
502.500	-22.750	0.100
502.600	15.846	0.100
502.700	18.604	0.101
502.800	-35.549	0.100
502.900	30.968	0.100
503.000	8.194	0.101
503.100	33.079	0.101
503.200	-5.373	0.100
503.300	2.761	0.100
503.400	14.312	0.101
503.500	28.936	0.101
503.600	6.649	0.101
503.700	56.068	0.101
503.800	-5.570	0.101
503.900	2.345	0.101
504.000	-3.707	0.101
504.100	9.840	0.101
504.200	6.259	0.101
504.300	-3.906	0.101
504.400	19.711	0.101
504.500	-0.535	0.101
504.600	17.927	0.101
504.700	18.790	0.101
504.800	-8.189	0.100
504.900	27.539	0.101
505.000	-30.185	0.101
505.100	-2.834	0.100
505.200	18.850	0.101
505.300	-1.970	0.100
505.400	8.570	0.101
505.500	3.352	0.101
505.600	18.030	0.100
505.700	-0.090	0.101
505.800	31.431	0.101
505.900	8.900	0.101
506.000	31.846	0.101
506.100	-5.297	0.100
506.200	33.772	0.100
506.300	17.744	0.100
506.400	7.973	0.101
506.500	9.035	0.100
506.600	-0.618	0.101
506.700	12.713	0.101
506.800	18.914	0.101
506.900	3.697	0.101
507.000	-1.015	0.101
507.100	-8.699	0.101
507.200	-17.207	0.101
507.300	18.737	0.101
507.400	19.622	0.101
507.500	15.041	0.101
507.600	14.632	0.101
507.700	-13.304	0.101
507.800	3.375	0.101
507.900	33.565	0.101
508.000	10.444	0.101
508.100	30.676	0.101
508.200	11.845	0.100
508.300	-13.427	0.101
508.400	9.548	0.101
508.500	37.385	0.101
508.600	5.399	0.101
508.700	12.066	0.101
508.800	-8.985	0.101
508.900	-3.193	0.100
509.000	27.896	0.101
509.100	8.512	0.100
509.200	27.743	0.100
509.300	12.342	0.101
509.400	28.969	0.101
509.500	4.564	0.101
509.600	0.620	0.101
509.700	5.195	0.101
509.800	8.353	0.101
509.900	-0.540	0.100
510.000	23.165	0.101
510.100	23.064	0.101
510.200	20.836	0.101
510.300	9.064	0.101
510.400	22.487	0.101
510.500	13.506	0.101
510.600	10.307	0.101
510.700	6.590	0.101
510.800	27.455	0.101
510.900	-6.115	0.101
511.000	-8.558	0.100
511.100	20.125	0.101
511.200	16.224	0.101
511.300	-0.965	0.101
511.400	39.625	0.101
511.500	24.580	0.101
511.600	28.980	0.101
511.700	14.342	0.101
511.800	19.342	0.101
511.900	26.313	0.101
512.000	24.828	0.101
512.100	18.823	0.101
512.200	-17.793	0.100
512.300	22.207	0.101
512.400	8.134	0.100
512.500	30.083	0.100
512.600	5.872	0.101
512.700	24.851	0.101
512.800	-2.268	0.101
512.900	17.519	0.100
513.000	32.886	0.101
513.100	24.908	0.100
513.200	32.862	0.100
513.300	51.126	0.101
513.400	68.370	0.101
513.500	26.219	0.101
513.600	65.301	0.101
513.700	5.623	0.100
513.800	38.168	0.100
513.900	25.679	0.100
514.000	22.077	0.101
514.100	48.219	0.101
514.200	3.455	0.101
514.300	23.517	0.101
514.400	18.935	0.100
514.500	13.304	0.101
514.600	-0.495	0.101
514.700	-17.548	0.101
514.800	25.933	0.101
514.900	25.743	0.101
515.000	7.548	0.101
515.100	34.047	0.101
515.200	-1.668	0.101
515.300	23.078	0.101
515.400	3.954	0.101
515.500	33.582	0.101
515.600	15.260	0.101
515.700	24.269	0.101
515.800	13.350	0.101
515.900	42.971	0.101
516.000	30.791	0.101
516.100	7.198	0.101
516.200	31.568	0.101
516.300	59.355	0.100
516.400	52.694	0.101
516.500	25.217	0.101
516.600	-12.723	0.101
516.700	50.120	0.101
516.800	4.081	0.101
516.900	35.809	0.101
517.000	25.219	0.101
517.100	8.217	0.101
517.200	45.997	0.101
517.300	19.846	0.101
517.400	1.022	0.101
517.500	28.856	0.101
517.600	44.071	0.101
517.700	15.748	0.101
517.800	27.360	0.101
517.900	15.593	0.101
518.000	20.920	0.101
518.100	-1.868	0.101
518.200	40.841	0.101
518.300	-1.892	0.101
518.400	34.587	0.101
518.500	34.500	0.101
518.600	2.077	0.101
518.700	28.285	0.101
518.800	7.725	0.101
518.900	36.412	0.101
519.000	10.832	0.101
519.100	17.788	0.101
519.200	38.326	0.101
519.300	20.211	0.101
519.400	-18.091	0.100
519.500	12.454	0.101
519.600	-2.394	0.101
519.700	42.077	0.100
519.800	15.211	0.101
519.900	19.066	0.101
520.000	17.199	0.100
520.100	-2.812	0.101
520.200	-11.605	0.101
520.300	38.045	0.101
520.400	56.872	0.100
520.500	55.683	0.101
520.600	6.047	0.101
520.700	35.913	0.101
520.800	41.875	0.101
520.900	8.288	0.101
521.000	9.420	0.101
521.100	24.928	0.100
521.200	11.595	0.101
521.300	38.024	0.101
521.400	13.238	0.101
521.500	29.856	0.101
521.600	44.361	0.100
521.700	31.064	0.101
521.800	20.557	0.100
521.900	5.280	0.101
522.000	-3.556	0.101
522.100	28.735	0.101
522.200	11.093	0.101
522.300	9.794	0.101
522.400	14.527	0.100
522.500	4.229	0.100
522.600	44.882	0.101
522.700	12.227	0.101
522.800	25.139	0.101
522.900	19.606	0.100
523.000	5.834	0.101
523.100	36.286	0.101
523.200	33.571	0.101
523.300	47.572	0.101
523.400	15.811	0.101
523.500	17.257	0.101
523.600	-11.084	0.101
523.700	64.386	0.100
523.800	44.553	0.101
523.900	47.864	0.100
524.000	25.745	0.101
524.100	41.562	0.100
524.200	9.796	0.101
524.300	50.495	0.101
524.400	11.404	0.101
524.500	43.035	0.101
524.600	43.042	0.101
524.700	42.864	0.101
524.800	19.018	0.101
524.900	47.242	0.101
525.000	37.367	0.101
525.100	29.561	0.101
525.200	61.966	0.100
525.300	31.183	0.101
525.400	1.817	0.101
525.500	44.677	0.101
525.600	60.570	0.101
525.700	36.625	0.101
525.800	4.455	0.101
525.900	42.922	0.101
526.000	14.060	0.101
526.100	1.562	0.101
526.200	20.669	0.101
526.300	40.937	0.101
526.400	24.659	0.101
526.500	13.473	0.101
526.600	10.320	0.100
526.700	55.041	0.101
526.800	17.446	0.101
526.900	15.403	0.101
527.000	11.998	0.101
527.100	6.658	0.101
527.200	15.704	0.101
527.300	17.597	0.101
527.400	5.486	0.101
527.500	9.102	0.101
527.600	35.050	0.101
527.700	-21.116	0.101
527.800	27.585	0.100
527.900	-0.757	0.101
528.000	52.505	0.101
528.100	18.864	0.101
528.200	18.118	0.101
528.300	3.063	0.101
528.400	19.255	0.100
528.500	17.574	0.101
528.600	44.710	0.101
528.700	38.397	0.101
528.800	43.062	0.101
528.900	17.276	0.101
529.000	44.831	0.101
529.100	4.916	0.101
529.200	30.834	0.101
529.300	55.827	0.100
529.400	22.658	0.101
529.500	17.286	0.101
529.600	3.727	0.101
529.700	36.075	0.101
529.800	6.085	0.100
529.900	30.269	0.101
530.000	44.111	0.101
530.100	47.275	0.101
530.200	39.278	0.101
530.300	37.789	0.101
530.400	3.776	0.101
530.500	28.138	0.100
530.600	41.198	0.101
530.700	51.520	0.101
530.800	33.714	0.101
530.900	12.120	0.101
531.000	-7.772	0.100
531.100	37.481	0.101
531.200	8.619	0.101
531.300	23.116	0.101
531.400	34.057	0.101
531.500	11.623	0.100
531.600	14.670	0.101
531.700	29.760	0.100
531.800	18.963	0.101
531.900	5.764	0.101
532.000	51.669	0.101
532.100	59.770	0.101
532.200	55.928	0.101
532.300	10.839	0.101
532.400	40.485	0.101
532.500	29.457	0.101
532.600	46.133	0.100
532.700	26.587	0.101
532.800	8.922	0.100
532.900	61.815	0.100
533.000	21.004	0.100
533.100	25.447	0.100
533.200	46.095	0.101
533.300	11.901	0.100
533.400	5.260	0.101
533.500	36.133	0.101
533.600	43.395	0.100
533.700	43.754	0.101
533.800	33.316	0.100
533.900	31.068	0.100
534.000	41.795	0.101
534.100	7.865	0.100
534.200	26.852	0.101
534.300	25.465	0.101
534.400	33.858	0.101
534.500	28.593	0.101
534.600	16.310	0.100
534.700	44.386	0.101
534.800	10.450	0.101
534.900	4.790	0.101
535.000	4.909	0.100
535.100	47.944	0.100
535.200	22.639	0.101
535.300	13.240	0.101
535.400	20.608	0.100
535.500	46.894	0.101
535.600	46.699	0.101
535.700	41.511	0.101
535.800	16.649	0.101
535.900	37.459	0.101
536.000	5.492	0.100
536.100	18.042	0.100
536.200	20.836	0.101
536.300	83.246	0.100
536.400	4.611	0.100
536.500	38.292	0.100
536.600	25.421	0.101
536.700	43.085	0.101
536.800	15.273	0.101
536.900	63.085	0.100
537.000	17.558	0.101
537.100	58.080	0.101
537.200	10.290	0.101
537.300	21.747	0.101
537.400	36.874	0.101
537.500	36.935	0.101
537.600	43.686	0.101
537.700	10.359	0.101
537.800	44.318	0.101
537.900	22.779	0.101
538.000	-18.871	0.100
538.100	61.033	0.101
538.200	2.393	0.101
538.300	54.244	0.100
538.400	43.549	0.100
538.500	38.841	0.100
538.600	13.907	0.101
538.700	23.442	0.101
538.800	60.723	0.101
538.900	15.139	0.101
539.000	32.635	0.101
539.100	2.257	0.101
539.200	26.859	0.101
539.300	56.015	0.101
539.400	51.008	0.101
539.500	6.647	0.100
539.600	20.433	0.100
539.700	32.696	0.100
539.800	24.554	0.101
539.900	30.096	0.100
540.000	14.944	0.101
540.100	17.409	0.100
540.200	6.879	0.100
540.300	2.261	0.100
540.400	5.508	0.101
540.500	26.591	0.101
540.600	42.541	0.101
540.700	12.352	0.100
540.800	9.043	0.100
540.900	51.667	0.100
541.000	29.788	0.101
541.100	44.301	0.100
541.200	6.600	0.101
541.300	14.444	0.100
541.400	45.771	0.100
541.500	29.857	0.101
541.600	13.136	0.100
541.700	28.778	0.100
541.800	24.559	0.100
541.900	47.729	0.100
542.000	43.445	0.100
542.100	-6.183	0.100
542.200	36.475	0.101
542.300	41.438	0.101
542.400	44.713	0.100
542.500	47.600	0.100
542.600	37.837	0.101
542.700	18.291	0.100
542.800	-0.332	0.100
542.900	44.363	0.100
543.000	36.824	0.100
543.100	25.007	0.100
543.200	53.193	0.101
543.300	-17.394	0.101
543.400	16.806	0.100
543.500	20.230	0.100
543.600	-8.598	0.100
543.700	35.730	0.100
543.800	36.382	0.100
543.900	55.959	0.101
544.000	49.513	0.101
544.100	28.547	0.101
544.200	28.560	0.101
544.300	44.436	0.101
544.400	20.217	0.101
544.500	1.578	0.100
544.600	51.899	0.101
544.700	0.462	0.100
544.800	15.042	0.100
544.900	3.397	0.100
545.000	34.062	0.101
545.100	22.132	0.101
545.200	34.116	0.101
545.300	31.239	0.101
545.400	37.686	0.100
545.500	10.950	0.100
545.600	44.820	0.100
545.700	7.726	0.101
545.800	31.419	0.100
545.900	3.704	0.100
546.000	5.143	0.101
546.100	41.186	0.100
546.200	-9.247	0.100
546.300	17.100	0.100
546.400	4.702	0.100
546.500	40.864	0.101
546.600	-6.877	0.100
546.700	50.099	0.100
546.800	11.708	0.100
546.900	12.008	0.100
547.000	12.421	0.101
547.100	19.554	0.100
547.200	40.019	0.100
547.300	37.042	0.100
547.400	25.922	0.100
547.500	15.742	0.101
547.600	35.387	0.100
547.700	11.197	0.100
547.800	27.192	0.100
547.900	3.162	0.101
548.000	7.935	0.100
548.100	64.588	0.100
548.200	-4.649	0.100
548.300	8.950	0.100
548.400	42.052	0.100
548.500	10.991	0.100
548.600	33.865	0.100
548.700	8.507	0.100
548.800	14.307	0.100
548.900	0.770	0.100
549.000	6.226	0.100
549.100	42.216	0.100
549.200	58.936	0.101
549.300	51.632	0.100
549.400	6.730	0.100
549.500	68.215	0.101
549.600	17.465	0.100
549.700	25.230	0.100
549.800	5.114	0.100
549.900	79.431	0.100
550.000	23.763	0.100
550.100	3.663	0.100
550.200	38.246	0.100
550.300	35.499	0.101
550.400	29.856	0.101
550.500	14.004	0.101
550.600	2.195	0.100
550.700	-22.992	0.100
550.800	45.375	0.101
550.900	34.070	0.100
551.000	37.674	0.101
551.100	13.998	0.100
551.200	44.232	0.100
551.300	42.336	0.100
551.400	32.279	0.101
551.500	17.460	0.100
551.600	14.031	0.101
551.700	29.711	0.101
551.800	-4.763	0.101
551.900	1.645	0.101
552.000	36.059	0.101
552.100	3.835	0.101
552.200	22.189	0.101
552.300	9.505	0.101
552.400	3.610	0.101
552.500	1.779	0.100
552.600	-21.212	0.100
552.700	-2.214	0.101
552.800	20.383	0.101
552.900	25.110	0.101
553.000	36.630	0.101
553.100	35.840	0.101
553.200	3.346	0.101
553.300	10.407	0.100
553.400	-7.253	0.101
553.500	15.857	0.100
553.600	26.655	0.100
553.700	23.538	0.101
553.800	17.530	0.100
553.900	48.998	0.100
554.000	23.884	0.101
554.100	29.341	0.100
554.200	30.216	0.101
554.300	10.177	0.101
554.400	-15.850	0.101
554.500	28.590	0.101
554.600	14.840	0.101
554.700	27.041	0.100
554.800	8.395	0.101
554.900	7.755	0.100
555.000	34.680	0.100
555.100	28.263	0.100
555.200	-0.143	0.101
555.300	13.487	0.101
555.400	-7.259	0.101
555.500	34.633	0.101
555.600	58.875	0.101
555.700	12.664	0.100
555.800	24.349	0.100
555.900	15.983	0.101
556.000	-9.582	0.101
556.100	24.146	0.100
556.200	29.653	0.101
556.300	16.511	0.100
556.400	5.066	0.100
556.500	40.105	0.101
556.600	-5.393	0.101
556.700	20.153	0.100
556.800	15.923	0.101
556.900	1.747	0.101
557.000	14.911	0.101
557.100	9.782	0.101
557.200	37.252	0.100
557.300	-34.183	0.100
557.400	-9.136	0.100
557.500	19.276	0.101
557.600	50.348	0.100
557.700	2.410	0.100
557.800	3.556	0.101
557.900	15.958	0.101
558.000	18.064	0.101
558.100	15.842	0.100
558.200	38.471	0.101
558.300	5.773	0.100
558.400	6.326	0.100
558.500	0.580	0.101
558.600	2.242	0.100
558.700	23.653	0.100
558.800	17.128	0.100
558.900	-17.947	0.100
559.000	10.145	0.101
559.100	14.642	0.101
559.200	31.283	0.101
559.300	30.505	0.101
559.400	32.034	0.101
559.500	40.335	0.101
559.600	-17.277	0.100
559.700	16.123	0.101
559.800	40.848	0.101
559.900	31.391	0.101
560.000	13.093	0.100
560.100	-2.822	0.101
560.200	25.279	0.101
560.300	19.541	0.100
560.400	10.069	0.101
560.500	6.278	0.100
560.600	2.247	0.100
560.700	29.049	0.101
560.800	9.150	0.101
560.900	-3.102	0.100
561.000	0.117	0.101
561.100	51.801	0.100
561.200	12.470	0.100
561.300	15.000	0.100
561.400	3.666	0.100
561.500	6.481	0.100
561.600	4.970	0.101
561.700	13.741	0.100
561.800	27.971	0.100
561.900	5.333	0.100
562.000	-4.710	0.101
562.100	3.995	0.100
562.200	25.781	0.100
562.300	-6.684	0.100
562.400	45.918	0.100
562.500	-2.009	0.100
562.600	-16.156	0.100
562.700	-19.450	0.100
562.800	32.186	0.100
562.900	12.481	0.100
563.000	34.531	0.100
563.100	18.954	0.100
563.200	28.548	0.100
563.300	35.613	0.100
563.400	27.590	0.101
563.500	8.344	0.100
563.600	19.016	0.101
563.700	28.008	0.100
563.800	14.120	0.100
563.900	-5.728	0.100
564.000	27.331	0.100
564.100	20.012	0.100
564.200	24.642	0.100
564.300	14.232	0.101
564.400	5.674	0.100
564.500	14.287	0.100
564.600	10.957	0.100
564.700	34.315	0.100
564.800	23.585	0.101
564.900	27.821	0.101
565.000	20.813	0.100
565.100	16.413	0.100
565.200	29.287	0.100
565.300	-3.797	0.100
565.400	36.421	0.100
565.500	2.924	0.101
565.600	45.760	0.101
565.700	6.284	0.100
565.800	-2.376	0.100
565.900	-10.354	0.100
566.000	19.388	0.100
566.100	22.263	0.100
566.200	35.436	0.100
566.300	-15.313	0.100
566.400	34.405	0.100
566.500	-21.789	0.101
566.600	-9.192	0.100
566.700	39.436	0.100
566.800	23.572	0.101
566.900	18.514	0.101
567.000	33.442	0.100
567.100	11.161	0.100
567.200	-25.628	0.100
567.300	19.053	0.100
567.400	9.797	0.100
567.500	-8.580	0.100
567.600	23.825	0.100
567.700	19.284	0.101
567.800	-6.467	0.100
567.900	-11.097	0.100
568.000	-12.009	0.100
568.100	3.447	0.100
568.200	42.463	0.100
568.300	1.823	0.100
568.400	28.876	0.100
568.500	33.570	0.100
568.600	-21.641	0.100
568.700	18.954	0.100
568.800	28.814	0.100
568.900	57.026	0.100
569.000	-2.563	0.100
569.100	59.285	0.100
569.200	-20.009	0.100
569.300	27.910	0.100
569.400	25.778	0.100
569.500	24.093	0.100
569.600	7.939	0.100
569.700	39.140	0.101
569.800	-23.207	0.100
569.900	27.028	0.100
570.000	39.292	0.101
570.100	-4.868	0.100
570.200	16.254	0.100
570.300	29.782	0.100
570.400	4.764	0.100
570.500	25.989	0.100
570.600	2.738	0.100
570.700	-31.562	0.100
570.800	0.057	0.100
570.900	44.930	0.100
571.000	9.657	0.100
571.100	-1.027	0.100
571.200	-11.437	0.100
571.300	40.293	0.100
571.400	-25.044	0.100
571.500	2.564	0.101
571.600	0.558	0.100
571.700	16.796	0.100
571.800	0.435	0.100
571.900	15.872	0.100
572.000	21.334	0.100
572.100	-14.376	0.100
572.200	3.346	0.100
572.300	-2.253	0.100
572.400	-20.281	0.100
572.500	37.798	0.100
572.600	1.286	0.100
572.700	-10.250	0.101
572.800	11.151	0.100
572.900	25.884	0.100
573.000	-5.681	0.100
573.100	2.345	0.100
573.200	22.564	0.100
573.300	17.293	0.100
573.400	14.950	0.100
573.500	2.754	0.100
573.600	33.398	0.100
573.700	-11.864	0.101
573.800	3.454	0.100
573.900	-11.142	0.100
574.000	-3.174	0.101
574.100	16.218	0.100
574.200	7.573	0.101
574.300	20.927	0.100
574.400	19.748	0.100
574.500	55.517	0.100
574.600	8.306	0.101
574.700	5.332	0.100
574.800	1.436	0.101
574.900	-12.821	0.101
575.000	27.549	0.101
575.100	2.856	0.101
575.200	19.668	0.101
575.300	-9.553	0.100
575.400	9.949	0.101
575.500	5.864	0.100
575.600	6.123	0.100
575.700	18.932	0.101
575.800	41.682	0.101
575.900	2.995	0.101
576.000	37.675	0.100
576.100	23.685	0.101
576.200	-16.417	0.100
576.300	-5.380	0.101
576.400	-4.601	0.101
576.500	20.719	0.101
576.600	13.873	0.101
576.700	25.790	0.100
576.800	17.747	0.101
576.900	-31.128	0.100
577.000	19.878	0.100
577.100	9.407	0.100
577.200	4.592	0.101
577.300	36.600	0.101
577.400	46.112	0.101
577.500	18.147	0.101
577.600	22.181	0.100
577.700	13.403	0.101
577.800	31.058	0.100
577.900	-9.415	0.101
578.000	-20.294	0.100
578.100	22.833	0.101
578.200	-3.307	0.100
578.300	-10.019	0.101
578.400	-11.863	0.100
578.500	18.484	0.101
578.600	4.279	0.100
578.700	-21.185	0.101
578.800	9.676	0.100
578.900	35.370	0.101
579.000	18.174	0.100
579.100	8.288	0.101
579.200	-19.261	0.101
579.300	9.340	0.101
579.400	3.089	0.101
579.500	34.630	0.100
579.600	20.510	0.100
579.700	20.785	0.101
579.800	9.365	0.101
579.900	23.918	0.101
580.000	16.890	0.101
580.100	27.929	0.101
580.200	13.424	0.100
580.300	2.732	0.100
580.400	13.201	0.101
580.500	55.294	0.100
580.600	11.162	0.101
580.700	-2.594	0.100
580.800	6.896	0.101
580.900	14.514	0.101
581.000	23.464	0.101
581.100	22.585	0.101
581.200	4.095	0.101
581.300	-2.105	0.101
581.400	41.178	0.101
581.500	-11.743	0.100
581.600	2.092	0.100
581.700	1.827	0.101
581.800	6.599	0.101
581.900	7.848	0.100
582.000	13.453	0.100
582.100	7.179	0.100
582.200	-8.279	0.101
582.300	25.796	0.100
582.400	15.292	0.101
582.500	-13.847	0.101
582.600	8.593	0.101
582.700	-7.176	0.100
582.800	7.614	0.100
582.900	-14.005	0.100
583.000	-3.468	0.101
583.100	27.169	0.101
583.200	-0.012	0.100
583.300	24.515	0.101
583.400	-1.221	0.100
583.500	-19.476	0.100
583.600	12.200	0.101
583.700	-4.680	0.101
583.800	24.890	0.101
583.900	-20.089	0.101
584.000	-15.116	0.101
584.100	-0.711	0.100
584.200	2.908	0.100
584.300	9.590	0.101
584.400	-1.970	0.100
584.500	-5.463	0.101
584.600	9.862	0.100
584.700	11.592	0.101
584.800	15.500	0.100
584.900	12.036	0.101
585.000	17.628	0.101
585.100	-16.673	0.101
585.200	3.906	0.101
585.300	9.411	0.101
585.400	24.773	0.101
585.500	2.476	0.101
585.600	-16.583	0.100
585.700	20.302	0.101
585.800	-16.917	0.101
585.900	7.871	0.101
586.000	-0.077	0.101
586.100	-5.034	0.101
586.200	0.414	0.101
586.300	25.652	0.101
586.400	-14.328	0.101
586.500	37.160	0.101
586.600	20.138	0.101
586.700	9.057	0.101
586.800	-0.836	0.101
586.900	9.269	0.100
587.000	13.794	0.101
587.100	-12.129	0.101
587.200	18.757	0.101
587.300	-15.460	0.100
587.400	14.919	0.101
587.500	16.041	0.101
587.600	39.604	0.101
587.700	-6.518	0.101
587.800	-3.233	0.101
587.900	-1.596	0.101
588.000	32.252	0.101
588.100	-11.265	0.101
588.200	9.775	0.101
588.300	40.640	0.101
588.400	-5.024	0.100
588.500	16.591	0.101
588.600	-21.999	0.100
588.700	-11.752	0.100
588.800	-18.998	0.101
588.900	5.172	0.100
589.000	29.558	0.101
589.100	34.235	0.101
589.200	7.024	0.101
589.300	-24.622	0.101
589.400	31.232	0.101
589.500	-3.330	0.101
589.600	-16.966	0.100
589.700	21.964	0.101
589.800	8.814	0.101
589.900	-7.941	0.101
590.000	32.428	0.101
590.100	10.054	0.101
590.200	-11.689	0.101
590.300	1.094	0.101
590.400	19.468	0.101
590.500	11.676	0.101
590.600	17.720	0.100
590.700	-25.317	0.101
590.800	-5.615	0.101
590.900	0.127	0.101
591.000	10.567	0.100
591.100	22.568	0.101
591.200	-16.775	0.101
591.300	-0.466	0.101
591.400	-26.812	0.101
591.500	-11.925	0.101
591.600	-2.042	0.101
591.700	8.280	0.101
591.800	-13.621	0.101
591.900	-16.084	0.101
592.000	18.915	0.101
592.100	11.124	0.101
592.200	34.583	0.101
592.300	-7.439	0.101
592.400	-15.503	0.101
592.500	6.970	0.101
592.600	8.064	0.101
592.700	-28.563	0.101
592.800	5.250	0.101
592.900	-10.799	0.101
593.000	11.824	0.101
593.100	10.722	0.101
593.200	-1.437	0.100
593.300	10.663	0.101
593.400	21.594	0.101
593.500	-39.488	0.101
593.600	-3.342	0.101
593.700	-27.698	0.101
593.800	-15.640	0.101
593.900	-17.296	0.101
594.000	-5.484	0.101
594.100	-23.622	0.100
594.200	-7.494	0.101
594.300	-25.514	0.101
594.400	6.095	0.101
594.500	-4.727	0.101
594.600	-9.422	0.101
594.700	27.743	0.101
594.800	-0.088	0.101
594.900	10.745	0.101
595.000	14.224	0.100
595.100	3.682	0.101
595.200	13.467	0.101
595.300	-13.857	0.101
595.400	-1.977	0.101
595.500	-18.333	0.101
595.600	-0.755	0.101
595.700	0.898	0.101
595.800	12.226	0.101
595.900	28.160	0.101
596.000	18.099	0.101
596.100	-10.498	0.101
596.200	-11.017	0.101
596.300	14.005	0.101
596.400	10.317	0.101
596.500	13.187	0.101
596.600	14.502	0.101
596.700	26.484	0.101
596.800	-34.544	0.101
596.900	-29.389	0.101
597.000	37.687	0.101
597.100	-28.812	0.101
597.200	-7.815	0.100
597.300	-4.652	0.101
597.400	21.471	0.101
597.500	22.210	0.101
597.600	-19.027	0.101
597.700	1.861	0.101
597.800	32.325	0.101
597.900	2.451	0.101
598.000	-16.615	0.101
598.100	-4.057	0.101
598.200	-29.961	0.101
598.300	-7.140	0.101
598.400	11.876	0.101
598.500	2.463	0.101
598.600	-13.181	0.101
598.700	-2.431	0.100
598.800	5.731	0.101
598.900	-39.158	0.101
599.000	-12.418	0.101
599.100	10.465	0.101
599.200	-29.688	0.100
599.300	1.196	0.101
599.400	15.806	0.101
599.500	-22.309	0.101
599.600	2.595	0.101
599.700	6.271	0.101
599.800	-9.856	0.101
599.900	-7.627	0.101
600.000	4.815	0.101
600.100	-20.483	0.100
600.200	-4.110	0.101
600.300	7.642	0.101
600.400	-27.072	0.100
600.500	23.263	0.101
600.600	-9.248	0.101
600.700	-3.698	0.101
600.800	-39.440	0.101
600.900	14.522	0.101
601.000	17.504	0.100
601.100	-5.132	0.101
601.200	5.315	0.101
601.300	-5.068	0.101
601.400	11.413	0.101
601.500	36.570	0.101
601.600	-13.535	0.101
601.700	42.032	0.101
601.800	2.570	0.101
601.900	-8.775	0.101
602.000	13.806	0.101
602.100	15.071	0.100
602.200	-27.280	0.101
602.300	-12.916	0.101
602.400	15.403	0.101
602.500	-15.558	0.100
602.600	55.141	0.101
602.700	-2.132	0.101
602.800	-6.683	0.100
602.900	8.998	0.101
603.000	-16.159	0.100
603.100	23.700	0.101
603.200	-6.281	0.101
603.300	10.076	0.101
603.400	-17.022	0.101
603.500	37.119	0.101
603.600	-15.887	0.101
603.700	-18.720	0.100
603.800	29.699	0.101
603.900	-9.427	0.101
604.000	-18.724	0.101
604.100	37.294	0.101
604.200	-4.145	0.101
604.300	4.132	0.101
604.400	30.369	0.100
604.500	-4.615	0.101
604.600	-15.364	0.100
604.700	4.840	0.101
604.800	17.500	0.101
604.900	1.502	0.101
605.000	-1.901	0.101
605.100	-12.765	0.101
605.200	13.797	0.100
605.300	-8.517	0.101
605.400	7.810	0.101
605.500	0.660	0.101
605.600	-2.239	0.101
605.700	-26.553	0.101
605.800	-0.780	0.100
605.900	-29.969	0.100
606.000	-19.774	0.101
606.100	3.045	0.101
606.200	15.377	0.101
606.300	-10.522	0.100
606.400	-1.710	0.100
606.500	4.514	0.101
606.600	-29.090	0.101
606.700	-4.559	0.100
606.800	17.557	0.101
606.900	6.451	0.100
607.000	13.827	0.101
607.100	16.045	0.101
607.200	-0.504	0.101
607.300	17.957	0.101
607.400	1.388	0.101
607.500	-7.946	0.101
607.600	-10.813	0.100
607.700	22.096	0.100
607.800	8.631	0.100
607.900	-49.334	0.100
608.000	-5.164	0.101
608.100	-15.419	0.100
608.200	-1.742	0.101
608.300	11.825	0.101
608.400	15.014	0.101
608.500	13.031	0.101
608.600	-9.621	0.100
608.700	20.463	0.101
608.800	5.975	0.101
608.900	-24.135	0.101
609.000	17.644	0.101
609.100	9.730	0.100
609.200	3.329	0.100
609.300	6.478	0.100
609.400	-20.637	0.101
609.500	32.727	0.101
609.600	-15.141	0.101
609.700	-10.495	0.100
609.800	-21.467	0.101
609.900	6.336	0.101
610.000	23.620	0.101
610.100	-4.758	0.101
610.200	-31.338	0.101
610.300	-23.764	0.100
610.400	-14.683	0.101
610.500	-10.250	0.100
610.600	-16.561	0.101
610.700	3.259	0.101
610.800	-12.821	0.101
610.900	9.827	0.101
611.000	13.708	0.101
611.100	-5.459	0.101
611.200	-12.748	0.101
611.300	-8.976	0.101
611.400	-17.461	0.100
611.500	11.981	0.101
611.600	-1.186	0.101
611.700	-11.016	0.101
611.800	1.396	0.101
611.900	3.258	0.101
612.000	8.798	0.101
612.100	-11.945	0.101
612.200	10.472	0.101
612.300	-25.223	0.101
612.400	12.097	0.101
612.500	18.957	0.101
612.600	-6.116	0.101
612.700	19.145	0.101
612.800	9.765	0.101
612.900	-9.403	0.100
613.000	-0.260	0.101
613.100	15.716	0.101
613.200	19.903	0.101
613.300	26.938	0.101
613.400	-13.035	0.101
613.500	-2.054	0.101
613.600	2.025	0.101
613.700	-3.487	0.101
613.800	31.161	0.101
613.900	-5.037	0.101
614.000	-3.989	0.101
614.100	-22.686	0.101
614.200	-24.505	0.101
614.300	12.958	0.101
614.400	15.639	0.101
614.500	-0.924	0.101
614.600	-2.488	0.101
614.700	45.050	0.101
614.800	5.386	0.101
614.900	-18.519	0.101
615.000	18.474	0.101
615.100	-23.721	0.101
615.200	9.993	0.101
615.300	-8.571	0.101
615.400	10.828	0.101
615.500	-9.484	0.101
615.600	-0.910	0.101
615.700	-1.803	0.101
615.800	-19.420	0.101
615.900	8.654	0.101
616.000	-6.465	0.101
616.100	-21.500	0.101
616.200	2.879	0.101
616.300	-6.920	0.101
616.400	-10.180	0.101
616.500	-0.786	0.101
616.600	20.804	0.101
616.700	-7.128	0.101
616.800	7.911	0.101
616.900	13.220	0.101
617.000	-18.472	0.101
617.100	-19.488	0.101
617.200	-13.626	0.101
617.300	-17.651	0.101
617.400	-9.461	0.101
617.500	-12.701	0.100
617.600	-25.475	0.101
617.700	-15.943	0.101
617.800	35.601	0.101
617.900	1.048	0.101
618.000	35.284	0.101
618.100	-42.152	0.101
618.200	13.071	0.101
618.300	2.458	0.101
618.400	-2.144	0.100
618.500	-6.048	0.101
618.600	-12.780	0.101
618.700	-37.368	0.101
618.800	-0.306	0.101
618.900	10.510	0.101
619.000	-12.724	0.101
619.100	28.748	0.101
619.200	-14.990	0.101
619.300	-12.939	0.101
619.400	4.834	0.101
619.500	-24.620	0.101
619.600	13.363	0.101
619.700	-5.828	0.101
619.800	-51.851	0.101
619.900	8.878	0.101
620.000	-15.034	0.100
620.100	-14.906	0.101
620.200	18.025	0.101
620.300	14.013	0.101
620.400	-6.174	0.101
620.500	-23.737	0.100
620.600	21.644	0.101
620.700	-14.277	0.100
620.800	21.005	0.101
620.900	-42.722	0.101
621.000	13.218	0.101
621.100	-13.310	0.101
621.200	-21.242	0.101
621.300	-11.784	0.101
621.400	10.909	0.100
621.500	4.184	0.101
621.600	11.359	0.101
621.700	-5.207	0.101
621.800	-6.444	0.101
621.900	-2.679	0.101
622.000	24.336	0.101
622.100	6.108	0.101
622.200	12.110	0.101
622.300	-28.942	0.101
622.400	17.648	0.101
622.500	18.176	0.101
622.600	-10.013	0.101
622.700	-7.580	0.101
622.800	14.539	0.101
622.900	-13.944	0.101
623.000	0.313	0.101
623.100	-22.153	0.101
623.200	5.060	0.101
623.300	-14.122	0.101
623.400	-17.368	0.101
623.500	24.339	0.101
623.600	1.770	0.101
623.700	-21.427	0.101
623.800	3.386	0.101
623.900	-6.234	0.101
624.000	-11.889	0.101
624.100	-15.463	0.101
624.200	-39.663	0.100
624.300	-15.449	0.101
624.400	2.504	0.101
624.500	12.952	0.101
624.600	-21.367	0.101
624.700	11.949	0.101
624.800	-8.710	0.101
624.900	16.294	0.101
625.000	-5.023	0.101
625.100	-25.708	0.101
625.200	0.846	0.101
625.300	-8.092	0.101
625.400	-2.495	0.101
625.500	-7.946	0.101
625.600	-10.553	0.101
625.700	-35.189	0.101
625.800	8.736	0.101
625.900	6.992	0.101
626.000	-14.374	0.101
626.100	3.201	0.101
626.200	5.769	0.101
626.300	-11.842	0.101
626.400	22.434	0.101
626.500	-15.372	0.101
626.600	19.939	0.101
626.700	-19.966	0.101
626.800	3.850	0.100
626.900	-4.300	0.101
627.000	-23.050	0.101
627.100	9.827	0.101
627.200	6.133	0.101
627.300	-0.384	0.100
627.400	0.307	0.101
627.500	26.807	0.101
627.600	5.874	0.101
627.700	-9.518	0.101
627.800	21.698	0.100
627.900	-27.371	0.101
628.000	-2.854	0.101
628.100	8.671	0.101
628.200	24.903	0.101
628.300	-6.274	0.101
628.400	-7.778	0.101
628.500	37.303	0.101
628.600	14.997	0.101
628.700	-22.738	0.101
628.800	-23.343	0.101
628.900	-3.430	0.101
629.000	1.624	0.101
629.100	6.889	0.101
629.200	-5.693	0.101
629.300	-5.574	0.101
629.400	-12.066	0.101
629.500	20.350	0.101
629.600	3.928	0.101
629.700	-8.198	0.101
629.800	9.143	0.101
629.900	-18.893	0.100
630.000	16.586	0.101
630.100	-0.119	0.101
630.200	-13.535	0.100
630.300	-1.303	0.101
630.400	31.565	0.101
630.500	-11.183	0.101
630.600	-5.159	0.101
630.700	8.211	0.101
630.800	-13.556	0.101
630.900	-21.570	0.101
631.000	2.631	0.101
631.100	-7.699	0.100
631.200	6.750	0.101
631.300	5.248	0.101
631.400	-5.219	0.101
631.500	-14.631	0.101
631.600	-9.031	0.101
631.700	12.359	0.101
631.800	-10.837	0.101
631.900	0.697	0.101
632.000	-1.502	0.101
632.100	-4.374	0.101
632.200	-17.876	0.101
632.300	-30.831	0.101
632.400	40.106	0.101
632.500	-12.250	0.101
632.600	-2.111	0.101
632.700	-17.410	0.101
632.800	18.362	0.101
632.900	3.529	0.101
633.000	-3.217	0.101
633.100	18.413	0.101
633.200	-4.520	0.101
633.300	-2.483	0.100
633.400	-2.658	0.101
633.500	-4.208	0.101
633.600	-20.195	0.101
633.700	0.529	0.100
633.800	-37.165	0.100
633.900	29.571	0.101
634.000	-12.369	0.101
634.100	-40.486	0.100
634.200	8.197	0.101
634.300	-41.552	0.101
634.400	46.807	0.101
634.500	2.100	0.101
634.600	9.311	0.101
634.700	19.762	0.101
634.800	-9.805	0.101
634.900	4.718	0.101
635.000	-34.167	0.101
635.100	1.838	0.100
635.200	-5.574	0.101
635.300	18.679	0.101
635.400	2.454	0.101
635.500	9.230	0.101
635.600	15.026	0.101
635.700	-3.074	0.101
635.800	1.389	0.101
635.900	0.894	0.101
636.000	8.748	0.100
636.100	2.848	0.101
636.200	35.755	0.101
636.300	-7.320	0.100
636.400	-19.090	0.100
636.500	13.268	0.100
636.600	-15.429	0.101
636.700	-6.736	0.101
636.800	-12.910	0.100
636.900	-11.245	0.101
637.000	0.788	0.101
637.100	-4.717	0.101
637.200	-11.680	0.101
637.300	17.471	0.101
637.400	18.472	0.100
637.500	-12.146	0.101
637.600	-1.490	0.100
637.700	18.737	0.101
637.800	-0.018	0.100
637.900	17.120	0.100
638.000	-10.576	0.101
638.100	-8.182	0.101
638.200	-5.839	0.101
638.300	21.669	0.101
638.400	-14.585	0.101
638.500	5.828	0.101
638.600	7.077	0.101
638.700	14.165	0.101
638.800	-3.488	0.101
638.900	7.840	0.100
639.000	5.318	0.101
639.100	-4.253	0.101
639.200	-6.420	0.101
639.300	-3.311	0.101
639.400	-6.659	0.101
639.500	20.450	0.101
639.600	11.341	0.100
639.700	25.113	0.100
639.800	-21.640	0.100
639.900	-35.466	0.101
640.000	8.072	0.101
640.100	61.157	0.100
640.200	41.229	0.101
640.300	20.468	0.101
640.400	-3.953	0.100
640.500	-4.104	0.101
640.600	-3.589	0.101
640.700	-4.256	0.101
640.800	-21.688	0.101
640.900	22.151	0.101
641.000	-9.161	0.101
641.100	1.934	0.100
641.200	14.625	0.101
641.300	-31.429	0.100
641.400	-28.392	0.100
641.500	10.017	0.101
641.600	2.236	0.101
641.700	-19.200	0.101
641.800	6.057	0.101
641.900	0.293	0.101
642.000	-2.257	0.101
642.100	-8.952	0.100
642.200	-13.881	0.100
642.300	-17.019	0.101
642.400	15.760	0.100
642.500	38.540	0.100
642.600	-16.902	0.101
642.700	14.595	0.100
642.800	-9.185	0.100
642.900	7.776	0.101
643.000	-15.505	0.101
643.100	9.305	0.100
643.200	36.521	0.101
643.300	4.225	0.101
643.400	-13.161	0.101
643.500	3.888	0.101
643.600	-16.934	0.101
643.700	9.016	0.100
643.800	18.904	0.101
643.900	-10.957	0.101
644.000	-15.893	0.100
644.100	34.698	0.101
644.200	45.860	0.101
644.300	33.355	0.100
644.400	15.848	0.101
644.500	-8.097	0.101
644.600	-7.922	0.101
644.700	-4.327	0.100
644.800	-31.267	0.101
644.900	18.460	0.101
645.000	5.028	0.101
645.100	39.121	0.100
645.200	31.122	0.101
645.300	5.780	0.101
645.400	24.708	0.101
645.500	-29.465	0.101
645.600	-2.472	0.101
645.700	-6.169	0.101
645.800	0.806	0.101
645.900	7.312	0.101
646.000	-3.248	0.101
646.100	27.646	0.101
646.200	-13.827	0.101
646.300	-7.327	0.101
646.400	7.804	0.101
646.500	10.152	0.101
646.600	8.483	0.101
646.700	8.254	0.101
646.800	18.868	0.101
646.900	2.427	0.101
647.000	0.607	0.101
647.100	31.526	0.101
647.200	23.773	0.101
647.300	-15.684	0.101
647.400	-4.972	0.101
647.500	-7.699	0.101
647.600	-24.038	0.101
647.700	-24.464	0.101
647.800	4.458	0.101
647.900	7.326	0.101
648.000	-15.588	0.101
648.100	-4.366	0.101
648.200	29.946	0.101
648.300	0.275	0.100
648.400	-22.426	0.101
648.500	10.375	0.100
648.600	3.277	0.101
648.700	40.014	0.101
648.800	-34.260	0.101
648.900	38.370	0.100
649.000	39.402	0.101
649.100	-20.970	0.100
649.200	47.104	0.101
649.300	-4.899	0.101
649.400	16.436	0.101
649.500	-9.661	0.101
649.600	-2.483	0.100
649.700	28.369	0.101
649.800	18.478	0.101
649.900	16.398	0.101
650.000	14.827	0.101
650.100	-12.981	0.100
650.200	11.725	0.101
650.300	-0.051	0.101
650.400	16.440	0.101
650.500	28.627	0.101
650.600	6.128	0.101
650.700	-14.851	0.101
650.800	14.329	0.101
650.900	-11.231	0.101
651.000	27.516	0.101
651.100	7.796	0.101
651.200	40.094	0.101
651.300	22.870	0.101
651.400	-9.818	0.100
651.500	35.433	0.101
651.600	-8.510	0.101
651.700	8.127	0.101
651.800	34.720	0.100
651.900	55.985	0.101
652.000	-6.847	0.101
652.100	10.224	0.101
652.200	37.544	0.100
652.300	3.978	0.101
652.400	18.546	0.101
652.500	-37.176	0.101
652.600	40.655	0.101
652.700	-9.655	0.101
652.800	7.122	0.101
652.900	-2.280	0.101
653.000	4.845	0.100
653.100	4.970	0.100
653.200	14.039	0.101
653.300	-5.507	0.101
653.400	-32.907	0.101
653.500	30.156	0.101
653.600	5.939	0.100
653.700	-29.760	0.101
653.800	1.135	0.101
653.900	26.279	0.100
654.000	38.159	0.101
654.100	34.713	0.101
654.200	4.693	0.100
654.300	11.619	0.101
654.400	-13.451	0.101
654.500	7.283	0.101
654.600	17.118	0.101
654.700	4.645	0.101
654.800	17.082	0.101
654.900	31.155	0.101
655.000	-12.062	0.101
655.100	-34.570	0.101
655.200	37.816	0.101
655.300	14.909	0.101
655.400	12.092	0.101
655.500	-9.279	0.101
655.600	-16.418	0.101
655.700	0.695	0.101
655.800	17.378	0.101
655.900	-2.861	0.101
656.000	22.304	0.101
656.100	-4.321	0.101
656.200	28.508	0.100
656.300	17.058	0.101
656.400	-25.965	0.101
656.500	-8.419	0.101
656.600	15.626	0.101
656.700	15.900	0.101
656.800	28.388	0.101
656.900	7.954	0.101
657.000	18.112	0.101
657.100	4.245	0.101
657.200	25.485	0.101
657.300	-21.288	0.100
657.400	14.649	0.100
657.500	-19.805	0.101
657.600	5.187	0.101
657.700	7.883	0.101
657.800	-8.236	0.101
657.900	18.778	0.101
658.000	23.044	0.101
658.100	27.273	0.101
658.200	19.264	0.101
658.300	55.870	0.101
658.400	-2.686	0.101
658.500	-5.506	0.101
658.600	21.047	0.100
658.700	23.066	0.100
658.800	-4.418	0.100
658.900	42.571	0.100
659.000	22.294	0.100
659.100	3.313	0.101
659.200	4.533	0.101
659.300	-1.394	0.100
659.400	35.144	0.100
659.500	47.012	0.101
659.600	11.485	0.101
659.700	1.810	0.101
659.800	13.910	0.101
659.900	19.190	0.101
660.000	41.454	0.100
660.100	28.902	0.100
660.200	3.255	0.100
660.300	45.943	0.101
660.400	22.826	0.101
660.500	9.630	0.100
660.600	-1.227	0.100
660.700	29.999	0.101
660.800	17.642	0.100
660.900	24.641	0.101
661.000	36.951	0.100
661.100	2.829	0.100
661.200	46.183	0.101
661.300	29.489	0.101
661.400	25.350	0.101
661.500	21.855	0.101
661.600	-2.326	0.100
661.700	47.951	0.100
661.800	53.777	0.100
661.900	-1.325	0.100
662.000	-6.491	0.101
662.100	13.193	0.100
662.200	8.219	0.100
662.300	18.190	0.100
662.400	10.017	0.101
662.500	-1.502	0.101
662.600	6.420	0.100
662.700	7.127	0.101
662.800	27.358	0.100
662.900	16.129	0.100
663.000	46.661	0.101
663.100	28.957	0.100
663.200	-9.980	0.101
663.300	8.862	0.101
663.400	4.731	0.101
663.500	12.968	0.100
663.600	28.011	0.101
663.700	22.794	0.100
663.800	-21.381	0.100
663.900	46.386	0.100
664.000	5.577	0.100
664.100	14.322	0.100
664.200	-5.069	0.100
664.300	25.410	0.100
664.400	11.898	0.101
664.500	15.716	0.100
664.600	0.334	0.100
664.700	44.130	0.100
664.800	23.797	0.100
664.900	35.785	0.101
665.000	-3.172	0.101
665.100	26.266	0.100
665.200	32.850	0.100
665.300	6.196	0.100
665.400	23.622	0.100
665.500	28.095	0.100
665.600	34.674	0.100
665.700	17.203	0.100
665.800	-12.609	0.100
665.900	32.424	0.100
666.000	65.105	0.100
666.100	56.325	0.100
666.200	33.085	0.100
666.300	47.551	0.100
666.400	-0.362	0.100
666.500	7.187	0.100
666.600	21.155	0.100
666.700	7.967	0.100
666.800	13.980	0.100
666.900	17.069	0.100
667.000	16.282	0.100
667.100	27.936	0.100
667.200	6.533	0.100
667.300	40.534	0.100
667.400	21.364	0.100
667.500	1.906	0.100
667.600	16.812	0.100
667.700	27.515	0.100
667.800	21.896	0.100
667.900	11.757	0.100
668.000	4.341	0.100
668.100	4.784	0.100
668.200	-14.059	0.100
668.300	19.550	0.100
668.400	26.700	0.100
668.500	31.147	0.100
668.600	0.542	0.100
668.700	26.562	0.100
668.800	7.485	0.100
668.900	19.695	0.100
669.000	26.664	0.100
669.100	17.760	0.100
669.200	13.093	0.100
669.300	42.804	0.100
669.400	15.594	0.100
669.500	9.184	0.100
669.600	28.722	0.100
669.700	13.150	0.100
669.800	16.215	0.100
669.900	48.211	0.100
670.000	51.882	0.100
670.100	-10.645	0.100
670.200	30.718	0.100
670.300	23.096	0.100
670.400	66.059	0.100
670.500	25.420	0.100
670.600	34.330	0.100
670.700	38.603	0.100
670.800	0.933	0.100
670.900	34.398	0.100
671.000	-5.148	0.100
671.100	51.059	0.100
671.200	11.971	0.100
671.300	42.306	0.100
671.400	10.221	0.100
671.500	2.885	0.100
671.600	26.059	0.100
671.700	33.913	0.100
671.800	46.200	0.100
671.900	19.901	0.100
672.000	6.000	0.100
672.100	21.365	0.100
672.200	4.225	0.100
672.300	-19.913	0.100
672.400	34.102	0.100
672.500	9.240	0.100
672.600	38.766	0.100
672.700	35.193	0.100
672.800	18.037	0.100
672.900	25.686	0.100
673.000	39.759	0.100
673.100	32.387	0.100
673.200	9.594	0.100
673.300	-12.506	0.100
673.400	50.617	0.100
673.500	18.894	0.100
673.600	37.577	0.100
673.700	-0.123	0.100
673.800	28.322	0.100
673.900	40.072	0.100
674.000	44.283	0.100
674.100	26.768	0.100
674.200	25.400	0.100
674.300	64.170	0.100
674.400	-7.711	0.100
674.500	32.514	0.100
674.600	-6.946	0.100
674.700	34.434	0.100
674.800	41.841	0.100
674.900	10.842	0.100
675.000	6.774	0.100
675.100	36.736	0.100
675.200	22.481	0.100
675.300	1.849	0.100
675.400	-2.725	0.100
675.500	7.360	0.100
675.600	41.438	0.100
675.700	41.557	0.100
675.800	28.859	0.100
675.900	15.211	0.100
676.000	42.955	0.100
676.100	25.641	0.100
676.200	63.002	0.100
676.300	-1.074	0.100
676.400	9.623	0.100
676.500	19.858	0.100
676.600	34.652	0.100
676.700	0.983	0.100
676.800	28.317	0.100
676.900	48.872	0.100
677.000	36.466	0.100
677.100	6.447	0.100
677.200	2.420	0.100
677.300	9.460	0.100
677.400	10.850	0.100
677.500	41.406	0.100
677.600	58.760	0.100
677.700	35.837	0.100
677.800	-0.534	0.100
677.900	-0.114	0.100
678.000	38.473	0.100
678.100	23.570	0.100
678.200	16.691	0.100
678.300	18.808	0.100
678.400	38.239	0.100
678.500	17.068	0.100
678.600	25.277	0.100
678.700	36.516	0.100
678.800	18.046	0.100
678.900	49.491	0.100
679.000	13.534	0.100
679.100	38.654	0.100
679.200	7.744	0.100
679.300	9.626	0.100
679.400	4.106	0.100
679.500	31.813	0.100
679.600	45.034	0.100
679.700	49.653	0.100
679.800	-9.546	0.100
679.900	34.777	0.100
680.000	22.774	0.100
680.100	30.628	0.100
680.200	-6.357	0.100
680.300	31.778	0.100
680.400	6.814	0.100
680.500	32.236	0.100
680.600	-10.881	0.100
680.700	31.196	0.100
680.800	-8.597	0.100
680.900	34.168	0.100
681.000	11.156	0.100
681.100	36.372	0.100
681.200	22.058	0.100
681.300	46.309	0.100
681.400	38.466	0.100
681.500	-9.520	0.100
681.600	43.787	0.100
681.700	33.402	0.100
681.800	29.965	0.100
681.900	22.035	0.100
682.000	29.958	0.100
682.100	15.720	0.100
682.200	35.746	0.100
682.300	41.215	0.100
682.400	42.755	0.100
682.500	29.556	0.100
682.600	39.842	0.100
682.700	28.868	0.100
682.800	41.379	0.100
682.900	23.356	0.100
683.000	53.083	0.100
683.100	25.849	0.100
683.200	41.813	0.100
683.300	5.406	0.100
683.400	12.830	0.100
683.500	9.932	0.100
683.600	19.432	0.100
683.700	12.141	0.100
683.800	46.924	0.100
683.900	20.123	0.100
684.000	6.203	0.100
684.100	24.514	0.100
684.200	35.019	0.100
684.300	5.191	0.100
684.400	15.071	0.100
684.500	23.141	0.100
684.600	42.179	0.100
684.700	37.187	0.100
684.800	18.189	0.100
684.900	21.425	0.100
685.000	15.171	0.100
685.100	49.745	0.100
685.200	14.394	0.100
685.300	23.836	0.100
685.400	39.121	0.100
685.500	15.054	0.100
685.600	46.624	0.100
685.700	18.369	0.100
685.800	38.053	0.100
685.900	14.111	0.100
686.000	32.591	0.100
686.100	52.490	0.100
686.200	14.856	0.100
686.300	49.466	0.100
686.400	-4.330	0.100
686.500	55.553	0.100
686.600	45.607	0.100
686.700	20.352	0.100
686.800	36.954	0.100
686.900	37.679	0.100
687.000	18.924	0.100
687.100	20.911	0.100
687.200	17.450	0.100
687.300	41.929	0.100
687.400	45.934	0.100
687.500	-5.068	0.100
687.600	21.771	0.100
687.700	24.329	0.100
687.800	-3.200	0.100
687.900	55.984	0.100
688.000	65.669	0.100
688.100	9.887	0.100
688.200	36.345	0.100
688.300	-10.578	0.100
688.400	37.296	0.100
688.500	37.718	0.100
688.600	21.475	0.100
688.700	37.543	0.100
688.800	29.989	0.100
688.900	-8.294	0.100
689.000	33.055	0.100
689.100	37.194	0.100
689.200	39.631	0.100
689.300	55.610	0.100
689.400	17.024	0.100
689.500	38.314	0.100
689.600	-1.092	0.100
689.700	35.712	0.100
689.800	22.143	0.100
689.900	6.639	0.100
690.000	22.317	0.100
690.100	35.518	0.100
690.200	25.668	0.100
690.300	43.121	0.100
690.400	47.196	0.100
690.500	41.952	0.100
690.600	38.674	0.100
690.700	0.272	0.100
690.800	44.932	0.100
690.900	42.343	0.100
691.000	34.429	0.100
691.100	54.638	0.100
691.200	77.592	0.100
691.300	40.479	0.100
691.400	38.298	0.100
691.500	21.839	0.100
691.600	5.051	0.100
691.700	42.620	0.100
691.800	21.877	0.100
691.900	13.326	0.100
692.000	20.766	0.100
692.100	37.647	0.100
692.200	36.550	0.100
692.300	51.486	0.100
692.400	-3.980	0.100
692.500	36.106	0.100
692.600	19.148	0.100
692.700	7.481	0.100
692.800	11.815	0.100
692.900	59.066	0.100
693.000	10.930	0.100
693.100	9.772	0.100
693.200	24.001	0.100
693.300	-3.978	0.100
693.400	58.853	0.100
693.500	43.730	0.100
693.600	45.797	0.100
693.700	18.646	0.100
693.800	17.577	0.100
693.900	33.402	0.100
694.000	-0.205	0.100
694.100	34.881	0.100
694.200	36.720	0.100
694.300	32.004	0.100
694.400	23.434	0.100
694.500	28.401	0.100
694.600	20.521	0.100
694.700	6.033	0.100
694.800	-0.607	0.100
694.900	-10.888	0.100
695.000	36.950	0.100
695.100	26.755	0.100
695.200	29.817	0.100
695.300	9.237	0.100
695.400	9.154	0.100
695.500	68.195	0.100
695.600	50.800	0.100
695.700	27.961	0.100
695.800	35.971	0.100
695.900	24.201	0.100
696.000	26.388	0.100
696.100	17.545	0.100
696.200	13.890	0.100
696.300	28.656	0.100
696.400	-17.132	0.100
696.500	13.339	0.100
696.600	30.933	0.100
696.700	26.823	0.100
696.800	24.501	0.100
696.900	23.775	0.100
697.000	39.377	0.100
697.100	25.414	0.100
697.200	33.846	0.100
697.300	30.949	0.100
697.400	7.149	0.100
697.500	40.701	0.100
697.600	34.465	0.100
697.700	34.023	0.100
697.800	40.534	0.100
697.900	35.449	0.100
698.000	27.763	0.100
698.100	6.203	0.100
698.200	29.609	0.100
698.300	22.305	0.100
698.400	11.431	0.100
698.500	29.297	0.100
698.600	36.864	0.100
698.700	2.243	0.100
698.800	0.513	0.100
698.900	44.132	0.100
699.000	-12.755	0.100
699.100	29.797	0.100
699.200	8.134	0.100
699.300	23.279	0.100
699.400	14.308	0.100
699.500	30.393	0.100
699.600	-6.007	0.100
699.700	0.139	0.100
699.800	32.378	0.100
699.900	14.564	0.100
700.000	9.284	0.100
700.100	30.077	0.100
700.200	20.978	0.100
700.300	27.868	0.100
700.400	14.102	0.100
700.500	17.294	0.100
700.600	14.064	0.100
700.700	23.249	0.100
700.800	43.779	0.100
700.900	-32.724	0.100
701.000	25.581	0.100
701.100	40.149	0.100
701.200	36.736	0.100
701.300	21.207	0.100
701.400	2.629	0.100
701.500	17.987	0.100
701.600	30.057	0.100
701.700	-1.888	0.100
701.800	5.964	0.100
701.900	31.952	0.100
702.000	23.868	0.100
702.100	53.803	0.100
702.200	-14.366	0.100
702.300	35.444	0.100
702.400	23.318	0.100
702.500	5.111	0.100
702.600	40.384	0.100
702.700	21.687	0.100
702.800	-5.145	0.100
702.900	38.550	0.100
703.000	27.404	0.100
703.100	8.742	0.100
703.200	-6.729	0.100
703.300	-9.417	0.100
703.400	39.044	0.100
703.500	14.431	0.100
703.600	14.721	0.100
703.700	17.889	0.100
703.800	21.286	0.100
703.900	46.184	0.100
704.000	26.832	0.100
704.100	1.961	0.100
704.200	28.262	0.100
704.300	3.503	0.100
704.400	22.950	0.100
704.500	1.421	0.100
704.600	-7.780	0.100
704.700	26.122	0.100
704.800	10.076	0.100
704.900	-8.164	0.100
705.000	13.372	0.100
705.100	11.537	0.100
705.200	20.242	0.100
705.300	37.007	0.100
705.400	37.343	0.100
705.500	47.793	0.100
705.600	-17.682	0.100
705.700	9.197	0.100
705.800	15.212	0.100
705.900	26.341	0.100
706.000	16.484	0.100
706.100	6.676	0.100
706.200	-1.428	0.100
706.300	-0.417	0.100
706.400	27.994	0.100
706.500	6.287	0.100
706.600	20.050	0.100
706.700	19.503	0.100
706.800	26.167	0.100
706.900	12.953	0.100
707.000	33.503	0.100
707.100	13.072	0.100
707.200	24.377	0.100
707.300	19.124	0.100
707.400	35.691	0.100
707.500	34.849	0.100
707.600	17.608	0.100
707.700	16.743	0.100
707.800	18.827	0.100
707.900	7.225	0.100
708.000	12.162	0.100
708.100	36.237	0.100
708.200	-12.831	0.100
708.300	49.659	0.100
708.400	5.195	0.100
708.500	14.137	0.100
708.600	33.526	0.100
708.700	11.331	0.100
708.800	1.197	0.100
708.900	44.241	0.100
709.000	25.511	0.100
709.100	-27.474	0.100
709.200	33.979	0.100
709.300	17.058	0.100
709.400	31.012	0.100
709.500	3.096	0.100
709.600	12.668	0.100
709.700	17.807	0.100
709.800	-0.242	0.100
709.900	30.651	0.100
710.000	35.815	0.100
710.100	0.343	0.100
710.200	24.411	0.100
710.300	14.021	0.100
710.400	-2.130	0.100
710.500	38.288	0.100
710.600	13.719	0.100
710.700	2.185	0.100
710.800	18.382	0.100
710.900	28.130	0.100
711.000	-13.470	0.100
711.100	7.715	0.100
711.200	12.088	0.100
711.300	24.547	0.100
711.400	7.322	0.100
711.500	5.615	0.100
711.600	-5.240	0.100
711.700	32.690	0.100
711.800	13.591	0.100
711.900	4.630	0.100
712.000	15.457	0.100
712.100	28.317	0.100
712.200	35.147	0.100
712.300	37.737	0.100
712.400	-5.588	0.100
712.500	-32.915	0.100
712.600	22.067	0.100
712.700	21.213	0.100
712.800	10.314	0.100
712.900	8.712	0.100
713.000	7.445	0.100
713.100	29.838	0.100
713.200	21.456	0.100
713.300	12.625	0.100
713.400	31.542	0.100
713.500	26.383	0.100
713.600	47.163	0.100
713.700	23.554	0.100
713.800	10.850	0.100
713.900	-9.373	0.100
714.000	24.651	0.100
714.100	19.418	0.100
714.200	35.454	0.100
714.300	25.392	0.100
714.400	12.278	0.100
714.500	20.530	0.100
714.600	-8.312	0.100
714.700	-20.673	0.100
714.800	34.877	0.100
714.900	14.098	0.100
715.000	24.725	0.100
715.100	22.622	0.100
715.200	2.225	0.100
715.300	9.512	0.100
715.400	0.990	0.100
715.500	1.420	0.100
715.600	31.106	0.100
715.700	11.447	0.100
715.800	11.477	0.100
715.900	12.721	0.100
716.000	11.456	0.100
716.100	4.391	0.100
716.200	52.032	0.100
716.300	4.055	0.100
716.400	15.437	0.100
716.500	3.313	0.100
716.600	23.668	0.100
716.700	-2.253	0.100
716.800	5.454	0.100
716.900	5.229	0.100
717.000	11.699	0.100
717.100	14.861	0.100
717.200	8.895	0.100
717.300	22.483	0.100
717.400	-5.196	0.100
717.500	26.781	0.100
717.600	-11.878	0.100
717.700	1.059	0.100
717.800	34.818	0.100
717.900	27.299	0.100
718.000	-21.171	0.100
718.100	55.605	0.100
718.200	-4.544	0.100
718.300	-1.218	0.100
718.400	18.866	0.100
718.500	16.589	0.100
718.600	6.824	0.100
718.700	3.914	0.100
718.800	7.370	0.100
718.900	21.338	0.100
719.000	1.100	0.100
719.100	11.421	0.100
719.200	-9.654	0.100
719.300	4.148	0.100
719.400	33.902	0.100
719.500	6.773	0.100
719.600	6.842	0.100
719.700	11.785	0.100
719.800	35.494	0.100
719.900	14.376	0.100
720.000	17.975	0.100
720.100	-18.071	0.100
720.200	3.277	0.100
720.300	-2.489	0.100
720.400	23.798	0.100
720.500	10.830	0.100
720.600	15.041	0.100
720.700	-4.359	0.100
720.800	33.964	0.100
720.900	-4.185	0.100
721.000	7.056	0.100
721.100	6.203	0.100
721.200	16.752	0.100
721.300	31.497	0.100
721.400	-8.328	0.100
721.500	3.926	0.100
721.600	7.805	0.100
721.700	11.321	0.100
721.800	6.143	0.100
721.900	-11.329	0.100
722.000	20.771	0.100
722.100	-15.385	0.100
722.200	-8.681	0.100
722.300	-0.707	0.100
722.400	7.409	0.100
722.500	42.888	0.100
722.600	-7.190	0.100
722.700	-18.101	0.100
722.800	-6.457	0.100
722.900	27.355	0.100
723.000	31.144	0.100
723.100	5.921	0.100
723.200	31.694	0.100
723.300	4.189	0.100
723.400	-15.433	0.100
723.500	7.580	0.100
723.600	35.398	0.100
723.700	7.122	0.100
723.800	-20.352	0.100
723.900	1.492	0.100
724.000	11.992	0.100
724.100	13.120	0.100
724.200	7.211	0.100
724.300	26.622	0.100
724.400	26.594	0.100
724.500	-18.946	0.100
724.600	27.387	0.100
724.700	13.969	0.100
724.800	55.832	0.100
724.900	5.695	0.100
725.000	-27.760	0.100
725.100	8.221	0.100
725.200	26.478	0.100
725.300	5.599	0.100
725.400	8.644	0.100
725.500	-7.117	0.100
725.600	29.974	0.100
725.700	-30.438	0.100
725.800	3.392	0.100
725.900	-8.332	0.100
726.000	20.687	0.100
726.100	7.916	0.100
726.200	31.370	0.100
726.300	7.066	0.100
726.400	6.133	0.100
726.500	23.179	0.100
726.600	-4.678	0.100
726.700	23.383	0.100
726.800	9.326	0.100
726.900	9.646	0.100
727.000	-18.419	0.100
727.100	-40.749	0.100
727.200	4.053	0.100
727.300	-1.139	0.100
727.400	13.307	0.100
727.500	4.677	0.100
727.600	-1.054	0.100
727.700	29.726	0.100
727.800	18.804	0.100
727.900	12.546	0.100
728.000	3.603	0.100
728.100	16.054	0.100
728.200	4.566	0.100
728.300	39.853	0.100
728.400	20.668	0.100
728.500	4.894	0.100
728.600	-4.555	0.100
728.700	1.653	0.100
728.800	7.396	0.100
728.900	-3.862	0.100
729.000	-18.210	0.100
729.100	-2.271	0.100
729.200	-14.411	0.100
729.300	-2.785	0.100
729.400	14.114	0.100
729.500	-0.793	0.100
729.600	27.512	0.100
729.700	32.581	0.100
729.800	1.548	0.100
729.900	21.725	0.100
730.000	-12.682	0.100
730.100	31.122	0.100
730.200	14.867	0.100
730.300	-17.275	0.100
730.400	-4.773	0.100
730.500	4.447	0.100
730.600	-9.613	0.100
730.700	-7.476	0.100
730.800	-23.602	0.100
730.900	34.051	0.100
731.000	7.052	0.100
731.100	30.997	0.100
731.200	2.909	0.100
731.300	-14.107	0.100
731.400	-32.469	0.100
731.500	16.135	0.100
731.600	33.281	0.100
731.700	4.038	0.100
731.800	13.536	0.100
731.900	1.606	0.100
732.000	16.190	0.100
732.100	-27.277	0.100
732.200	-12.369	0.100
732.300	3.346	0.100
732.400	10.469	0.100
732.500	15.273	0.100
732.600	-13.019	0.100
732.700	14.375	0.100
732.800	3.505	0.100
732.900	3.622	0.100
733.000	38.375	0.100
733.100	18.793	0.100
733.200	-6.527	0.100
733.300	-8.975	0.100
733.400	-24.838	0.100
733.500	31.093	0.100
733.600	-22.870	0.100
733.700	32.420	0.100
733.800	-11.093	0.100
733.900	12.753	0.100
734.000	8.528	0.100
734.100	-10.683	0.100
734.200	-6.668	0.100
734.300	-17.416	0.100
734.400	1.998	0.100
734.500	20.186	0.100
734.600	30.132	0.100
734.700	-23.695	0.100
734.800	-13.878	0.100
734.900	-11.289	0.100
735.000	-20.515	0.100
735.100	22.630	0.100
735.200	0.222	0.100
735.300	22.966	0.100
735.400	18.643	0.100
735.500	-8.408	0.100
735.600	36.547	0.100
735.700	25.560	0.100
735.800	19.930	0.100
735.900	-11.298	0.100
736.000	-14.065	0.100
736.100	4.274	0.100
736.200	1.692	0.100
736.300	10.660	0.100
736.400	-4.630	0.100
736.500	-2.946	0.100
736.600	0.822	0.100
736.700	24.150	0.100
736.800	-1.932	0.100
736.900	-17.752	0.100
737.000	9.183	0.100
737.100	-4.489	0.100
737.200	18.229	0.100
737.300	-27.106	0.100
737.400	12.116	0.100
737.500	-12.718	0.100
737.600	12.766	0.100
737.700	-4.036	0.100
737.800	6.206	0.100
737.900	-3.928	0.100
738.000	22.738	0.100
738.100	8.842	0.100
738.200	-14.288	0.100
738.300	10.054	0.100
738.400	8.098	0.100
738.500	-20.330	0.100
738.600	-1.602	0.100
738.700	-22.899	0.100
738.800	-16.653	0.100
738.900	6.965	0.100
739.000	10.727	0.100
739.100	-1.890	0.100
739.200	-12.155	0.100
739.300	38.859	0.100
739.400	5.994	0.100
739.500	2.396	0.100
739.600	-15.415	0.100
739.700	-3.342	0.100
739.800	-29.819	0.100
739.900	24.130	0.100
740.000	34.691	0.100
740.100	20.340	0.100
740.200	-7.782	0.100
740.300	3.693	0.101
740.400	36.166	0.101
740.500	20.700	0.101
740.600	2.439	0.101
740.700	28.865	0.101
740.800	-11.428	0.101
740.900	-32.858	0.101
741.000	1.004	0.101
741.100	3.659	0.101
741.200	19.479	0.101
741.300	-4.233	0.101
741.400	-40.708	0.101
741.500	26.215	0.101
741.600	-4.244	0.101
741.700	0.957	0.101
741.800	15.521	0.101
741.900	-18.393	0.101
742.000	33.328	0.101
742.100	-0.287	0.101
742.200	4.689	0.101
742.300	-2.604	0.101
742.400	-13.170	0.101
742.500	-31.625	0.101
742.600	50.196	0.101
742.700	-3.678	0.101
742.800	-13.452	0.101
742.900	32.800	0.101
743.000	3.223	0.101
743.100	12.132	0.101
743.200	25.396	0.101
743.300	-6.454	0.101
743.400	1.901	0.101
743.500	36.632	0.101
743.600	-13.518	0.101
743.700	-28.643	0.101
743.800	6.007	0.101
743.900	-11.001	0.101
744.000	0.337	0.101
744.100	6.855	0.101
744.200	-12.018	0.101
744.300	9.481	0.101
744.400	-18.149	0.101
744.500	-30.581	0.101
744.600	-4.642	0.101
744.700	15.104	0.101
744.800	1.644	0.101
744.900	17.303	0.101
745.000	-6.945	0.101
745.100	-32.222	0.101
745.200	-5.842	0.101
745.300	1.157	0.101
745.400	0.971	0.101
745.500	7.198	0.101
745.600	-37.106	0.101
745.700	6.728	0.101
745.800	0.447	0.101
745.900	-18.658	0.101
746.000	11.647	0.101
746.100	-11.331	0.101
746.200	-2.756	0.101
746.300	0.737	0.101
746.400	-36.927	0.101
746.500	4.483	0.101
746.600	8.107	0.101
746.700	-4.603	0.101
746.800	5.587	0.101
746.900	8.155	0.101
747.000	-33.724	0.101
747.100	-0.938	0.101
747.200	15.587	0.101
747.300	-40.343	0.101
747.400	4.384	0.101
747.500	-5.379	0.101
747.600	32.872	0.101
747.700	5.589	0.101
747.800	5.520	0.101
747.900	-3.960	0.101
748.000	-5.342	0.101
748.100	-7.087	0.101
748.200	13.124	0.101
748.300	-62.847	0.101
748.400	5.174	0.101
748.500	18.099	0.101
748.600	-3.995	0.101
748.700	18.135	0.101
748.800	17.723	0.101
748.900	4.421	0.101
749.000	-2.016	0.101
749.100	-4.762	0.101
749.200	26.009	0.101
749.300	1.415	0.101
749.400	-20.925	0.101
749.500	8.382	0.101
749.600	-29.844	0.101
749.700	-13.555	0.101
749.800	-25.894	0.101
749.900	3.689	0.101
750.000	-2.003	0.101
750.100	-27.818	0.101
750.200	18.625	0.101
750.300	10.019	0.101
750.400	10.265	0.101
750.500	12.757	0.101
750.600	23.066	0.101
750.700	8.985	0.101
750.800	32.807	0.101
750.900	10.314	0.101
751.000	-6.367	0.101
751.100	-15.474	0.101
751.200	7.404	0.101
751.300	-8.214	0.101
751.400	-0.765	0.101
751.500	-18.884	0.101
751.600	13.248	0.101
751.700	19.532	0.101
751.800	-0.643	0.101
751.900	-0.774	0.101
752.000	17.277	0.101
752.100	15.714	0.101
752.200	-13.909	0.101
752.300	0.204	0.101
752.400	-27.167	0.101
752.500	-11.976	0.101
752.600	-16.326	0.101
752.700	28.647	0.101
752.800	16.171	0.101
752.900	11.132	0.101
753.000	18.577	0.101
753.100	-8.910	0.101
753.200	0.185	0.101
753.300	-16.712	0.101
753.400	-5.372	0.101
753.500	-29.350	0.101
753.600	10.287	0.101
753.700	-1.563	0.101
753.800	1.109	0.101
753.900	4.726	0.101
754.000	7.925	0.101
754.100	-36.151	0.101
754.200	-1.851	0.101
754.300	-6.325	0.101
754.400	10.125	0.101
754.500	11.836	0.101
754.600	11.960	0.101
754.700	-11.916	0.101
754.800	-20.108	0.101
754.900	24.950	0.101
755.000	-9.841	0.101
755.100	8.382	0.101
755.200	-22.594	0.101
755.300	9.451	0.101
755.400	-4.240	0.101
755.500	-5.238	0.101
755.600	-22.046	0.101
755.700	22.731	0.101
755.800	1.111	0.101
755.900	17.510	0.101
756.000	3.549	0.101
756.100	-32.973	0.101
756.200	0.559	0.101
756.300	-9.131	0.101
756.400	-1.127	0.101
756.500	14.557	0.101
756.600	-3.015	0.101
756.700	-36.359	0.101
756.800	-0.246	0.101
756.900	-22.877	0.101
757.000	23.594	0.101
757.100	-1.286	0.101
757.200	15.653	0.101
757.300	26.638	0.101
757.400	-18.177	0.101
757.500	0.530	0.101
757.600	28.623	0.101
757.700	22.740	0.101
757.800	18.318	0.101
757.900	1.493	0.101
758.000	10.425	0.101
758.100	12.994	0.101
758.200	-2.531	0.101
758.300	-8.153	0.101
758.400	5.190	0.101
758.500	7.994	0.101
758.600	-23.984	0.101
758.700	9.820	0.101
758.800	-11.153	0.101
758.900	-34.593	0.101
759.000	11.749	0.101
759.100	17.784	0.101
759.200	-21.435	0.101
759.300	5.200	0.101
759.400	30.862	0.101
759.500	-7.289	0.101
759.600	-52.970	0.101
759.700	-6.473	0.101
759.800	-27.868	0.101
759.900	-12.383	0.101
760.000	21.370	0.101
760.100	-1.959	0.101
760.200	-32.700	0.101
760.300	-13.989	0.101
760.400	12.407	0.101
760.500	34.970	0.101
760.600	-13.014	0.101
760.700	7.628	0.101
760.800	-11.996	0.101
760.900	-14.478	0.101
761.000	-53.979	0.101
761.100	-5.871	0.101
761.200	-0.397	0.101
761.300	4.807	0.101
761.400	-1.660	0.101
761.500	11.203	0.101
761.600	-3.263	0.101
761.700	-25.953	0.101
761.800	-15.706	0.101
761.900	19.579	0.101
762.000	26.828	0.101
762.100	-12.063	0.101
762.200	-1.211	0.101
762.300	-11.254	0.101
762.400	-6.949	0.101
762.500	4.560	0.101
762.600	1.212	0.101
762.700	-6.489	0.101
762.800	6.256	0.101
762.900	3.986	0.101
763.000	5.127	0.101
763.100	-18.002	0.101
763.200	7.829	0.101
763.300	-7.107	0.101
763.400	4.588	0.101
763.500	22.476	0.101
763.600	-1.419	0.101
763.700	-18.888	0.100
763.800	10.799	0.101
763.900	-13.656	0.101
764.000	-4.591	0.101
764.100	45.708	0.101
764.200	-8.852	0.101
764.300	-17.471	0.101
764.400	19.231	0.100
764.500	3.549	0.100
764.600	9.135	0.101
764.700	-3.294	0.101
764.800	13.596	0.101
764.900	5.046	0.100
765.000	2.176	0.101
765.100	-29.052	0.101
765.200	-9.390	0.101
765.300	23.945	0.100
765.400	2.965	0.100
765.500	34.149	0.101
765.600	13.573	0.100
765.700	-30.610	0.100
765.800	16.584	0.100
765.900	-21.365	0.100
766.000	-14.232	0.100
766.100	-14.766	0.100
766.200	7.813	0.100
766.300	11.308	0.100
766.400	-16.775	0.100
766.500	-35.976	0.100
766.600	9.045	0.100
766.700	-13.342	0.100
766.800	17.838	0.100
766.900	18.325	0.101
767.000	-6.794	0.100
767.100	-7.625	0.100
767.200	4.341	0.101
767.300	-24.610	0.101
767.400	-13.807	0.100
767.500	24.554	0.100
767.600	-2.883	0.100
767.700	-14.538	0.100
767.800	-2.066	0.101
767.900	-21.135	0.101
768.000	-25.318	0.100
768.100	-23.688	0.100
768.200	-4.463	0.101
768.300	-35.392	0.101
768.400	-40.295	0.101
768.500	-6.166	0.100
768.600	-22.465	0.100
768.700	-0.264	0.101
768.800	1.311	0.101
768.900	-4.997	0.101
769.000	14.691	0.100
769.100	-27.408	0.101
769.200	-31.633	0.101
769.300	-28.381	0.100
769.400	-29.484	0.101
769.500	-14.782	0.100
769.600	-7.285	0.100
769.700	-0.116	0.101
769.800	-30.165	0.100
769.900	9.073	0.101
770.000	-7.275	0.100
770.100	-1.008	0.100
770.200	25.771	0.101
770.300	5.144	0.101
770.400	-10.782	0.100
770.500	-25.325	0.101
770.600	-16.302	0.100
770.700	5.513	0.100
770.800	1.120	0.100
770.900	3.317	0.101
771.000	-2.170	0.100
771.100	-6.762	0.101
771.200	-6.263	0.101
771.300	-2.239	0.100
771.400	-11.058	0.101
771.500	18.702	0.100
771.600	4.309	0.100
771.700	-24.576	0.101
771.800	-30.740	0.100
771.900	21.198	0.100
772.000	-18.324	0.101
772.100	1.253	0.101
772.200	-10.091	0.100
772.300	-39.575	0.101
772.400	-0.401	0.101
772.500	1.759	0.101
772.600	-17.074	0.101
772.700	7.458	0.101
772.800	-22.102	0.100
772.900	-1.836	0.101
773.000	28.007	0.101
773.100	3.085	0.101
773.200	10.850	0.101
773.300	-8.024	0.101
773.400	10.317	0.101
773.500	9.251	0.100
773.600	-18.796	0.101
773.700	1.204	0.101
773.800	-6.543	0.101
773.900	-0.647	0.101
774.000	-4.292	0.101
774.100	-6.810	0.101
774.200	-27.136	0.100
774.300	-4.596	0.101
774.400	-0.258	0.101
774.500	-1.864	0.101
774.600	14.558	0.100
774.700	-4.296	0.101
774.800	-19.891	0.101
774.900	12.359	0.101
775.000	0.534	0.101
775.100	-13.275	0.101
775.200	5.504	0.101
775.300	4.853	0.101
775.400	-3.467	0.100
775.500	3.702	0.100
775.600	2.499	0.101
775.700	-21.627	0.101
775.800	25.137	0.100
775.900	3.570	0.100
776.000	-11.393	0.101
776.100	-36.641	0.101
776.200	-12.007	0.100
776.300	4.495	0.100
776.400	-10.684	0.101
776.500	0.871	0.100
776.600	-9.799	0.101
776.700	15.265	0.101
776.800	-3.224	0.101
776.900	4.008	0.100
777.000	-7.851	0.100
777.100	-14.797	0.100
777.200	-20.068	0.101
777.300	1.182	0.101
777.400	-26.072	0.100
777.500	8.875	0.101
777.600	-2.978	0.101
777.700	0.060	0.101
777.800	4.039	0.101
777.900	-3.559	0.100
778.000	9.568	0.101
778.100	-6.240	0.100
778.200	4.934	0.101
778.300	8.289	0.101
778.400	-10.203	0.101
778.500	-26.082	0.101
778.600	22.528	0.100
778.700	-8.460	0.101
778.800	-3.119	0.101
778.900	-13.926	0.101
779.000	9.796	0.101
779.100	-23.372	0.101
779.200	-13.511	0.101
779.300	-12.850	0.101
779.400	6.766	0.101
779.500	-11.533	0.101
779.600	-8.863	0.101
779.700	1.239	0.101
779.800	-8.301	0.101
779.900	-11.050	0.100
780.000	19.574	0.101
780.100	-25.869	0.100
780.200	11.679	0.101
780.300	-31.855	0.101
780.400	-21.158	0.101
780.500	19.593	0.101
780.600	-39.688	0.100
780.700	5.534	0.101
780.800	-4.650	0.101
780.900	-27.295	0.100
781.000	-16.721	0.101
781.100	18.263	0.101
781.200	-7.102	0.101
781.300	11.181	0.100
781.400	18.687	0.101
781.500	17.197	0.101
781.600	7.892	0.101
781.700	31.012	0.101
781.800	3.397	0.100
781.900	35.355	0.101
782.000	-31.058	0.101
782.100	-2.354	0.101
782.200	-1.179	0.101
782.300	-4.974	0.100
782.400	16.325	0.101
782.500	-34.722	0.101
782.600	-3.180	0.101
782.700	-1.934	0.101
782.800	16.884	0.101
782.900	-15.787	0.100
783.000	-20.032	0.101
783.100	1.135	0.101
783.200	26.504	0.101
783.300	10.380	0.101
783.400	-23.951	0.100
783.500	-15.159	0.101
783.600	13.880	0.100
783.700	38.225	0.101
783.800	3.066	0.101
783.900	-7.793	0.101
784.000	1.033	0.100
784.100	1.952	0.101
784.200	22.847	0.101
784.300	4.463	0.101
784.400	9.770	0.101
784.500	-6.756	0.101
784.600	-22.782	0.100
784.700	-25.870	0.101
784.800	0.647	0.101
784.900	3.803	0.101
785.000	9.079	0.101
785.100	7.440	0.101
785.200	1.213	0.101
785.300	-34.072	0.100
785.400	13.864	0.101
785.500	24.285	0.101
785.600	5.732	0.101
785.700	10.811	0.100
785.800	18.074	0.101
785.900	-15.176	0.100
786.000	-18.749	0.101
786.100	2.177	0.101
786.200	1.301	0.101
786.300	16.606	0.101
786.400	17.499	0.100
786.500	4.276	0.101
786.600	4.731	0.101
786.700	10.603	0.101
786.800	16.983	0.101
786.900	-18.170	0.101
787.000	44.064	0.100
787.100	-0.419	0.101
787.200	13.132	0.101
787.300	-2.328	0.100
787.400	2.681	0.101
787.500	15.438	0.100
787.600	7.325	0.101
787.700	6.499	0.101
787.800	-39.707	0.101
787.900	11.944	0.101
788.000	5.498	0.101
788.100	9.409	0.101
788.200	-2.137	0.101
788.300	13.340	0.100
788.400	-11.726	0.101
788.500	17.737	0.101
788.600	2.264	0.100
788.700	-12.421	0.100
788.800	-4.386	0.100
788.900	-6.959	0.101
789.000	31.305	0.100
789.100	8.494	0.101
789.200	-10.335	0.101
789.300	26.513	0.101
789.400	-6.788	0.101
789.500	16.436	0.101
789.600	-13.287	0.100
789.700	-0.281	0.101
789.800	20.009	0.101
789.900	17.728	0.101
790.000	-7.252	0.101
790.100	-8.171	0.101
790.200	-10.864	0.101
790.300	3.375	0.100
790.400	-0.434	0.100
790.500	-1.940	0.101
790.600	-13.812	0.100
790.700	-20.579	0.100
790.800	9.866	0.100
790.900	7.932	0.100
791.000	21.323	0.100
791.100	-9.835	0.101
791.200	27.409	0.101
791.300	16.887	0.101
791.400	-22.350	0.100
791.500	4.101	0.101
791.600	-3.643	0.101
791.700	-20.121	0.100
791.800	34.399	0.101
791.900	-4.333	0.100
792.000	13.397	0.101
792.100	18.417	0.101
792.200	-3.685	0.101
792.300	-11.902	0.101
792.400	3.639	0.101
792.500	3.564	0.101
792.600	6.359	0.101
792.700	-17.781	0.100
792.800	11.380	0.101
792.900	17.542	0.101
793.000	-8.355	0.101
793.100	-7.399	0.100
793.200	2.149	0.100
793.300	26.107	0.101
793.400	18.987	0.100
793.500	-6.833	0.101
793.600	33.152	0.101
793.700	-22.521	0.100
793.800	-11.936	0.100
793.900	-6.706	0.101
794.000	1.422	0.100
794.100	23.631	0.101
794.200	21.941	0.100
794.300	6.170	0.101
794.400	-30.199	0.101
794.500	33.392	0.101
794.600	-14.195	0.101
794.700	3.773	0.100
794.800	-7.361	0.100
794.900	22.992	0.100
795.000	9.306	0.101
795.100	22.961	0.101
795.200	11.028	0.101
795.300	9.631	0.101
795.400	-19.788	0.101
795.500	-5.220	0.101
795.600	-0.250	0.100
795.700	9.077	0.101
795.800	3.109	0.101
795.900	-7.192	0.101
796.000	8.501	0.100
796.100	38.151	0.101
796.200	6.488	0.101
796.300	-1.834	0.100
796.400	16.924	0.101
796.500	4.389	0.101
796.600	7.923	0.101
796.700	3.801	0.101
796.800	22.960	0.101
796.900	-1.309	0.101
797.000	12.095	0.101
797.100	8.683	0.101
797.200	27.147	0.101
797.300	13.463	0.100
797.400	11.398	0.101
797.500	15.911	0.100
797.600	13.615	0.101
797.700	-5.557	0.101
797.800	21.112	0.100
797.900	1.990	0.101
798.000	-8.856	0.101
798.100	18.488	0.101
798.200	5.909	0.101
798.300	10.821	0.100
798.400	-4.495	0.100
798.500	-13.469	0.101
798.600	23.388	0.101
798.700	23.548	0.101
798.800	40.157	0.101
798.900	-0.051	0.101
799.000	-17.582	0.101
799.100	-0.850	0.101
799.200	59.378	0.101
799.300	45.277	0.101
799.400	-4.305	0.101
799.500	25.247	0.101
799.600	23.628	0.101
799.700	17.754	0.100
799.800	4.577	0.101
799.900	9.876	0.101
800.000	16.662	0.100
