time /s	I /nA	E /V
0.100	-37.413	0.100
0.200	-38.838	0.100
0.300	-48.252	0.100
0.400	-39.953	0.100
0.500	-46.995	0.100
0.600	-47.818	0.100
0.700	-34.734	0.100
0.800	-39.402	0.100
0.900	-54.920	0.100
1.000	-39.952	0.100
1.100	-31.102	0.100
1.200	-31.405	0.100
1.300	-34.996	0.100
1.400	-29.699	0.100
1.500	-37.369	0.100
1.600	-47.555	0.100
1.700	-33.469	0.100
1.800	-39.234	0.100
1.900	-54.610	0.100
2.000	-58.437	0.100
2.100	-43.348	0.100
2.200	-48.329	0.100
2.300	-38.943	0.100
2.400	-34.099	0.100
2.500	-43.053	0.100
2.600	-38.185	0.100
2.700	-43.556	0.100
2.800	-28.265	0.100
2.900	-33.289	0.100
3.000	-42.695	0.100
3.100	-43.970	0.100
3.200	-41.244	0.100
3.300	-43.096	0.100
3.400	-39.820	0.100
3.500	-47.792	0.100
3.600	-39.583	0.100
3.700	-37.369	0.100
3.800	-34.956	0.100
3.900	-38.238	0.100
4.000	-43.520	0.100
4.100	-38.868	0.100
4.200	-38.787	0.100
4.300	-33.458	0.100
4.400	-61.522	0.100
4.500	-31.915	0.100
4.600	-39.570	0.100
4.700	-38.950	0.099
4.800	-28.461	0.099
4.900	-34.087	0.099
5.000	-41.198	0.099
5.100	-49.190	0.099
5.200	-42.725	0.099
5.300	-39.382	0.099
5.400	-48.646	0.099
5.500	-33.522	0.099
5.600	-37.632	0.099
5.700	-39.849	0.099
5.800	-33.907	0.099
5.900	-34.218	0.099
6.000	-43.262	0.099
6.100	-37.836	0.099
6.200	-37.490	0.099
6.300	-43.847	0.099
6.400	-38.433	0.099
6.500	-36.462	0.099
6.600	-39.155	0.099
6.700	-49.671	0.099
6.800	-40.733	0.099
6.900	-41.834	0.099
7.000	-40.175	0.099
7.100	-45.682	0.099
7.200	-40.646	0.099
7.300	-21.578	0.099
7.400	-37.566	0.099
7.500	-36.396	0.099
7.600	-52.650	0.099
7.700	-36.359	0.099
7.800	-41.279	0.099
7.900	-45.790	0.099
8.000	-41.093	0.099
8.100	-42.384	0.099
8.200	-36.408	0.099
8.300	-42.580	0.099
8.400	-29.286	0.099
8.500	-28.085	0.099
8.600	-47.800	0.099
8.700	-44.561	0.099
8.800	-36.886	0.099
8.900	-41.861	0.099
9.000	-30.165	0.099
9.100	-45.468	0.099
9.200	-40.724	0.099
9.300	-50.964	0.099
9.400	-38.301	0.099
9.500	-37.190	0.099
9.600	-59.218	0.099
9.700	-44.253	0.099
9.800	-32.477	0.099
9.900	-26.207	0.099
10.000	-47.209	0.099
10.100	-51.243	0.099
10.200	-42.318	0.099
10.300	-38.114	0.099
10.400	-42.569	0.099
10.500	-31.040	0.099
10.600	-34.510	0.099
10.700	-37.934	0.099
10.800	-35.311	0.099
10.900	-38.957	0.099
11.000	-35.451	0.099
11.100	-46.349	0.099
11.200	-36.449	0.099
11.300	-47.599	0.099
11.400	-33.044	0.099
11.500	-50.680	0.099
11.600	-44.601	0.099
11.700	-35.475	0.099
11.800	-34.355	0.099
11.900	-44.821	0.099
12.000	-41.820	0.099
12.100	-34.336	0.099
12.200	-22.769	0.099
12.300	-43.902	0.099
12.400	-38.255	0.099
12.500	-34.573	0.099
12.600	-33.320	0.099
12.700	-41.582	0.099
12.800	-43.298	0.099
12.900	-36.879	0.099
13.000	-42.907	0.099
13.100	-45.862	0.099
13.200	-47.375	0.099
13.300	-40.495	0.099
13.400	-34.456	0.099
13.500	-35.633	0.099
13.600	-41.902	0.099
13.700	-30.342	0.099
13.800	-46.288	0.099
13.900	-47.995	0.099
14.000	-33.411	0.099
14.100	-36.969	0.099
14.200	-47.031	0.099
14.300	-46.999	0.099
14.400	-42.820	0.099
14.500	-41.046	0.099
14.600	-46.008	0.099
14.700	-40.617	0.099
14.800	-40.291	0.099
14.900	-33.560	0.099
15.000	-44.621	0.099
15.100	-37.079	0.099
15.200	-45.585	0.099
15.300	-45.260	0.099
15.400	-47.133	0.099
15.500	-18.848	0.099
15.600	-21.705	0.099
15.700	-25.918	0.099
15.800	-40.749	0.099
15.900	-52.221	0.099
16.000	-33.715	0.099
16.100	-27.245	0.099
16.200	-44.155	0.099
16.300	-40.172	0.099
16.400	-37.888	0.099
16.500	-38.602	0.099
16.600	-45.233	0.099
16.700	-31.049	0.099
16.800	-55.566	0.099
16.900	-37.110	0.099
17.000	-42.010	0.099
17.100	-33.358	0.099
17.200	-42.622	0.099
17.300	-28.547	0.099
17.400	-37.745	0.099
17.500	-44.788	0.099
17.600	-49.534	0.099
17.700	-31.865	0.099
17.800	-36.880	0.099
17.900	-37.725	0.099
18.000	-32.452	0.099
18.100	-39.298	0.099
18.200	-56.126	0.099
18.300	-25.973	0.099
18.400	-41.590	0.099
18.500	-50.327	0.099
18.600	-50.374	0.099
18.700	-28.444	0.099
18.800	-43.127	0.099
18.900	-35.240	0.099
19.000	-36.249	0.099
19.100	-45.798	0.099
19.200	-24.235	0.099
19.300	-39.384	0.099
19.400	-30.608	0.099
19.500	-44.495	0.099
19.600	-48.973	0.099
19.700	-24.339	0.099
19.800	-33.172	0.099
19.900	-44.185	0.099
20.000	-35.311	0.099
20.100	-43.061	0.099
20.200	-39.345	0.099
20.300	-44.524	0.099
20.400	-43.095	0.099
20.500	-38.554	0.099
20.600	-37.944	0.099
20.700	-37.106	0.099
20.800	-29.250	0.099
20.900	-41.222	0.099
21.000	-32.090	0.099
21.100	-46.733	0.099
21.200	-39.823	0.099
21.300	-44.758	0.099
21.400	-42.089	0.099
21.500	-47.156	0.100
21.600	-44.208	0.100
21.700	-19.291	0.100
21.800	-33.869	0.100
21.900	-38.396	0.100
22.000	-49.607	0.100
22.100	-28.374	0.100
22.200	-37.201	0.100
22.300	-50.050	0.100
22.400	-44.677	0.100
22.500	-36.412	0.100
22.600	-32.790	0.100
22.700	-30.477	0.099
22.800	-57.337	0.100
22.900	-45.009	0.099
23.000	-31.082	0.100
23.100	-41.071	0.100
23.200	-35.267	0.100
23.300	-40.417	0.100
23.400	-33.651	0.100
23.500	-38.207	0.100
23.600	-34.068	0.100
23.700	-43.983	0.100
23.800	-34.067	0.100
23.900	-39.190	0.099
24.000	-36.592	0.100
24.100	-43.125	0.100
24.200	-35.743	0.100
24.300	-32.868	0.100
24.400	-47.000	0.100
24.500	-40.128	0.100
24.600	-33.546	0.100
24.700	-45.266	0.100
24.800	-37.373	0.100
24.900	-40.096	0.100
25.000	-33.634	0.100
25.100	-44.006	0.100
25.200	-33.323	0.099
25.300	-37.604	0.100
25.400	-43.498	0.100
25.500	-35.843	0.100
25.600	-35.295	0.100
25.700	-27.185	0.100
25.800	-33.525	0.100
25.900	-35.216	0.100
26.000	-33.576	0.100
26.100	-38.793	0.099
26.200	-26.745	0.100
26.300	-37.822	0.100
26.400	-44.355	0.100
26.500	-33.155	0.100
26.600	-44.460	0.100
26.700	-48.843	0.100
26.800	-41.612	0.100
26.900	-37.184	0.100
27.000	-36.428	0.100
27.100	-40.032	0.100
27.200	-36.621	0.100
27.300	-48.558	0.100
27.400	-30.080	0.100
27.500	-26.792	0.100
27.600	-37.432	0.100
27.700	-39.245	0.100
27.800	-44.202	0.100
27.900	-32.283	0.100
28.000	-43.928	0.100
28.100	-40.369	0.100
28.200	-16.973	0.100
28.300	-40.150	0.100
28.400	-42.603	0.100
28.500	-29.319	0.100
28.600	-39.493	0.100
28.700	-45.810	0.100
28.800	-38.308	0.100
28.900	-32.359	0.100
29.000	-33.505	0.100
29.100	-33.102	0.100
29.200	-40.698	0.100
29.300	-45.641	0.100
29.400	-46.608	0.100
29.500	-33.402	0.100
29.600	-27.330	0.100
29.700	-30.435	0.100
29.800	-28.316	0.100
29.900	-37.335	0.100
30.000	-51.140	0.100
30.100	-38.883	0.100
30.200	-21.148	0.100
30.300	-17.798	0.100
30.400	-12.633	0.100
30.500	-26.632	0.100
30.600	-8.350	0.100
30.700	2.166	0.100
30.800	-1.751	0.100
30.900	1.215	0.100
31.000	12.023	0.100
31.100	21.289	0.100
31.200	5.898	0.100
31.300	4.193	0.100
31.400	19.854	0.100
31.500	8.714	0.100
31.600	12.435	0.100
31.700	21.823	0.100
31.800	22.893	0.100
31.900	27.696	0.100
32.000	11.060	0.100
32.100	11.985	0.100
32.200	17.356	0.100
32.300	8.636	0.100
32.400	17.122	0.100
32.500	10.924	0.100
32.600	5.154	0.100
32.700	14.256	0.100
32.800	16.177	0.100
32.900	11.527	0.100
33.000	17.418	0.100
33.100	19.398	0.100
33.200	15.295	0.100
33.300	-0.624	0.100
33.400	4.982	0.100
33.500	16.127	0.100
33.600	5.578	0.100
33.700	11.749	0.100
33.800	8.216	0.100
33.900	6.590	0.100
34.000	14.064	0.100
34.100	6.132	0.100
34.200	5.975	0.100
34.300	-0.403	0.100
34.400	0.129	0.100
34.500	-0.070	0.100
34.600	3.471	0.100
34.700	2.615	0.100
34.800	2.057	0.100
34.900	1.995	0.100
35.000	-2.835	0.100
35.100	-14.400	0.100
35.200	0.106	0.100
35.300	-6.349	0.100
35.400	0.824	0.100
35.500	-9.083	0.100
35.600	-14.101	0.100
35.700	-12.065	0.100
35.800	-12.314	0.100
35.900	-10.129	0.100
36.000	4.560	0.100
36.100	4.496	0.100
36.200	6.749	0.100
36.300	-8.157	0.100
36.400	-5.612	0.100
36.500	-6.713	0.100
36.600	-3.908	0.100
36.700	6.796	0.100
36.800	8.080	0.100
36.900	-8.658	0.100
37.000	4.309	0.100
37.100	-0.565	0.100
37.200	8.035	0.100
37.300	-6.732	0.100
37.400	-6.103	0.100
37.500	-4.922	0.100
37.600	1.491	0.100
37.700	13.258	0.100
37.800	3.152	0.100
37.900	8.546	0.100
38.000	14.690	0.100
38.100	5.080	0.100
38.200	16.628	0.100
38.300	3.521	0.100
38.400	-1.604	0.100
38.500	6.522	0.100
38.600	21.580	0.100
38.700	-8.191	0.100
38.800	3.838	0.100
38.900	4.123	0.100
39.000	11.531	0.100
39.100	6.257	0.100
39.200	12.299	0.100
39.300	17.821	0.100
39.400	8.693	0.100
39.500	-2.215	0.100
39.600	0.533	0.100
39.700	17.883	0.100
39.800	16.803	0.100
39.900	4.100	0.100
40.000	26.862	0.100
40.100	24.186	0.100
40.200	25.949	0.100
40.300	14.681	0.100
40.400	24.152	0.100
40.500	26.790	0.100
40.600	27.899	0.100
40.700	19.887	0.100
40.800	13.558	0.100
40.900	38.624	0.100
41.000	15.789	0.100
41.100	25.386	0.100
41.200	25.476	0.100
41.300	27.795	0.100
41.400	11.249	0.100
41.500	29.214	0.100
41.600	33.731	0.100
41.700	28.709	0.100
41.800	42.271	0.100
41.900	24.800	0.100
42.000	24.007	0.100
42.100	32.357	0.100
42.200	44.457	0.100
42.300	54.113	0.100
42.400	37.307	0.100
42.500	20.402	0.100
42.600	35.147	0.100
42.700	45.082	0.100
42.800	32.316	0.100
42.900	38.607	0.100
43.000	53.928	0.100
43.100	46.711	0.100
43.200	31.889	0.100
43.300	31.734	0.100
43.400	48.471	0.100
43.500	37.962	0.100
43.600	43.274	0.100
43.700	44.444	0.100
43.800	47.232	0.100
43.900	47.109	0.100
44.000	40.510	0.100
44.100	57.553	0.099
44.200	49.248	0.100
44.300	51.680	0.100
44.400	42.061	0.100
44.500	52.974	0.100
44.600	41.643	0.099
44.700	55.369	0.100
44.800	51.091	0.100
44.900	55.243	0.100
45.000	55.344	0.100
45.100	56.501	0.100
45.200	66.068	0.100
45.300	63.234	0.100
45.400	54.731	0.100
45.500	53.289	0.100
45.600	61.030	0.100
45.700	61.589	0.100
45.800	52.246	0.099
45.900	51.487	0.100
46.000	62.181	0.100
46.100	69.208	0.100
46.200	36.834	0.099
46.300	51.653	0.100
46.400	72.707	0.100
46.500	63.979	0.100
46.600	56.488	0.100
46.700	69.108	0.099
46.800	68.323	0.099
46.900	67.760	0.100
47.000	63.320	0.100
47.100	64.345	0.100
47.200	72.371	0.100
47.300	69.467	0.100
47.400	51.676	0.100
47.500	68.588	0.100
47.600	66.115	0.100
47.700	56.560	0.100
47.800	68.735	0.100
47.900	64.166	0.100
48.000	70.353	0.100
48.100	74.233	0.100
48.200	69.397	0.099
48.300	68.147	0.100
48.400	73.379	0.100
48.500	70.055	0.100
48.600	63.647	0.100
48.700	62.484	0.100
48.800	57.755	0.099
48.900	68.793	0.100
49.000	63.230	0.100
49.100	69.078	0.100
49.200	75.891	0.100
49.300	61.672	0.100
49.400	65.058	0.100
49.500	70.804	0.100
49.600	69.822	0.100
49.700	60.927	0.100
49.800	69.093	0.100
49.900	81.503	0.099
50.000	76.055	0.100
50.100	68.584	0.100
50.200	64.179	0.099
50.300	64.855	0.100
50.400	69.308	0.099
50.500	68.655	0.099
50.600	74.451	0.099
50.700	79.964	0.100
50.800	72.666	0.100
50.900	69.547	0.099
51.000	79.906	0.099
51.100	67.913	0.100
51.200	70.119	0.100
51.300	61.472	0.099
51.400	64.777	0.099
51.500	59.169	0.099
51.600	60.655	0.099
51.700	73.838	0.100
51.800	73.062	0.099
51.900	64.664	0.099
52.000	65.389	0.099
52.100	73.431	0.100
52.200	68.915	0.099
52.300	70.690	0.099
52.400	57.851	0.099
52.500	59.228	0.099
52.600	59.921	0.099
52.700	60.699	0.099
52.800	62.310	0.099
52.900	77.101	0.099
53.000	58.453	0.099
53.100	74.618	0.100
53.200	72.563	0.099
53.300	55.159	0.099
53.400	66.985	0.099
53.500	76.472	0.099
53.600	67.033	0.100
53.700	57.407	0.099
53.800	77.426	0.099
53.900	55.479	0.099
54.000	62.704	0.100
54.100	63.758	0.099
54.200	66.327	0.100
54.300	63.366	0.100
54.400	67.628	0.099
54.500	54.539	0.099
54.600	53.895	0.099
54.700	58.018	0.099
54.800	65.972	0.099
54.900	65.856	0.099
55.000	60.032	0.100
55.100	50.074	0.100
55.200	59.771	0.100
55.300	63.286	0.100
55.400	62.367	0.100
55.500	68.326	0.100
55.600	63.973	0.100
55.700	60.025	0.100
55.800	57.355	0.100
55.900	64.842	0.100
56.000	61.276	0.100
56.100	61.887	0.100
56.200	53.373	0.100
56.300	65.496	0.100
56.400	62.514	0.100
56.500	50.199	0.100
56.600	46.777	0.100
56.700	57.981	0.100
56.800	54.530	0.100
56.900	70.180	0.100
57.000	55.204	0.100
57.100	54.605	0.100
57.200	57.226	0.100
57.300	57.813	0.100
57.400	56.324	0.100
57.500	60.515	0.100
57.600	65.113	0.100
57.700	48.844	0.100
57.800	48.528	0.100
57.900	63.516	0.100
58.000	57.503	0.100
58.100	43.529	0.100
58.200	54.524	0.100
58.300	62.482	0.100
58.400	54.779	0.100
58.500	50.095	0.100
58.600	64.061	0.100
58.700	68.028	0.100
58.800	70.472	0.100
58.900	59.204	0.100
59.000	56.811	0.100
59.100	54.266	0.100
59.200	55.088	0.100
59.300	54.385	0.100
59.400	40.544	0.100
59.500	55.797	0.100
59.600	63.587	0.100
59.700	41.428	0.100
59.800	51.169	0.100
59.900	54.161	0.100
60.000	51.276	0.100
60.100	60.398	0.100
60.200	55.342	0.100
60.300	51.216	0.100
60.400	49.823	0.100
60.500	44.369	0.100
60.600	49.657	0.100
60.700	68.620	0.100
60.800	55.560	0.100
60.900	49.609	0.100
61.000	43.495	0.100
61.100	48.160	0.100
61.200	47.067	0.100
61.300	49.271	0.100
61.400	54.088	0.100
61.500	37.814	0.100
61.600	50.800	0.100
61.700	50.102	0.100
61.800	55.996	0.100
61.900	54.316	0.100
62.000	53.002	0.100
62.100	48.203	0.100
62.200	48.366	0.100
62.300	45.266	0.100
62.400	36.559	0.100
62.500	54.547	0.100
62.600	54.325	0.100
62.700	54.845	0.100
62.800	38.207	0.100
62.900	40.753	0.100
63.000	42.799	0.100
63.100	50.652	0.100
63.200	45.520	0.100
63.300	56.364	0.100
63.400	49.621	0.100
63.500	36.532	0.100
63.600	41.595	0.100
63.700	42.481	0.100
63.800	54.638	0.100
63.900	54.591	0.100
64.000	53.866	0.100
64.100	45.453	0.100
64.200	45.774	0.100
64.300	46.652	0.100
64.400	51.957	0.100
64.500	44.934	0.100
64.600	41.442	0.100
64.700	61.639	0.100
64.800	42.088	0.100
64.900	53.173	0.100
65.000	50.575	0.100
65.100	51.124	0.100
65.200	40.792	0.100
65.300	41.352	0.100
65.400	43.893	0.100
65.500	40.354	0.100
65.600	55.176	0.100
65.700	57.450	0.100
65.800	53.518	0.100
65.900	30.541	0.100
66.000	46.753	0.100
66.100	55.808	0.100
66.200	48.853	0.100
66.300	44.971	0.100
66.400	45.040	0.100
66.500	45.579	0.100
66.600	48.526	0.100
66.700	45.433	0.100
66.800	50.283	0.099
66.900	37.144	0.099
67.000	41.645	0.100
67.100	49.403	0.100
67.200	42.434	0.100
67.300	53.969	0.099
67.400	39.165	0.099
67.500	40.392	0.100
67.600	52.767	0.100
67.700	32.172	0.100
67.800	51.803	0.100
67.900	55.815	0.100
68.000	42.863	0.100
68.100	66.300	0.100
68.200	49.556	0.100
68.300	50.574	0.100
68.400	41.192	0.100
68.500	39.773	0.100
68.600	58.999	0.100
68.700	55.303	0.100
68.800	39.327	0.100
68.900	34.705	0.100
69.000	33.170	0.099
69.100	49.170	0.100
69.200	44.789	0.100
69.300	46.006	0.100
69.400	47.796	0.100
69.500	41.056	0.100
69.600	41.355	0.100
69.700	50.889	0.100
69.800	39.459	0.100
69.900	46.748	0.099
70.000	41.027	0.100
70.100	47.770	0.100
70.200	48.396	0.100
70.300	37.449	0.100
70.400	41.048	0.100
70.500	29.920	0.100
70.600	48.130	0.099
70.700	33.425	0.099
70.800	39.567	0.100
70.900	48.075	0.099
71.000	40.224	0.100
71.100	37.793	0.100
71.200	41.538	0.100
71.300	51.793	0.100
71.400	44.114	0.099
71.500	40.906	0.099
71.600	45.133	0.099
71.700	44.213	0.099
71.800	48.705	0.099
71.900	44.690	0.099
72.000	33.063	0.099
72.100	45.456	0.099
72.200	54.776	0.099
72.300	33.969	0.099
72.400	36.185	0.099
72.500	45.149	0.099
72.600	37.532	0.099
72.700	32.727	0.099
72.800	31.011	0.099
72.900	50.467	0.099
73.000	54.774	0.099
73.100	46.096	0.099
73.200	47.831	0.099
73.300	46.408	0.099
73.400	43.620	0.099
73.500	42.030	0.099
73.600	41.866	0.099
73.700	38.066	0.099
73.800	42.840	0.099
73.900	36.642	0.099
74.000	48.956	0.099
74.100	47.777	0.099
74.200	47.963	0.099
74.300	42.604	0.099
74.400	43.197	0.099
74.500	41.828	0.099
74.600	46.742	0.099
74.700	39.840	0.099
74.800	35.847	0.099
74.900	46.948	0.099
75.000	45.530	0.099
75.100	48.591	0.099
75.200	34.962	0.099
75.300	32.428	0.099
75.400	46.556	0.099
75.500	30.911	0.099
75.600	48.279	0.099
75.700	42.906	0.099
75.800	32.849	0.099
75.900	50.063	0.099
76.000	33.548	0.099
76.100	42.828	0.099
76.200	44.515	0.099
76.300	49.273	0.099
76.400	46.910	0.099
76.500	36.606	0.099
76.600	38.838	0.099
76.700	38.136	0.099
76.800	28.405	0.099
76.900	37.896	0.099
77.000	38.730	0.099
77.100	44.093	0.099
77.200	40.693	0.099
77.300	44.348	0.099
77.400	27.371	0.099
77.500	47.293	0.099
77.600	53.279	0.099
77.700	38.659	0.099
77.800	46.994	0.099
77.900	37.982	0.099
78.000	43.955	0.099
78.100	43.548	0.099
78.200	46.933	0.099
78.300	48.588	0.099
78.400	51.752	0.099
78.500	38.493	0.099
78.600	48.241	0.099
78.700	45.854	0.099
78.800	53.080	0.099
78.900	41.022	0.099
79.000	27.315	0.099
79.100	44.790	0.099
79.200	37.375	0.099
79.300	46.149	0.099
79.400	48.756	0.099
79.500	39.915	0.099
79.600	41.135	0.099
79.700	32.782	0.099
79.800	34.163	0.099
79.900	36.696	0.099
80.000	46.870	0.099
80.100	57.764	0.099
80.200	39.752	0.099
80.300	45.226	0.099
80.400	24.305	0.099
80.500	42.326	0.099
80.600	44.478	0.099
80.700	53.583	0.099
80.800	44.738	0.099
80.900	58.776	0.099
81.000	41.767	0.099
81.100	46.881	0.099
81.200	48.099	0.099
81.300	42.731	0.099
81.400	41.888	0.099
81.500	49.666	0.099
81.600	40.806	0.099
81.700	41.076	0.099
81.800	47.986	0.099
81.900	30.343	0.099
82.000	52.098	0.099
82.100	40.512	0.099
82.200	40.418	0.099
82.300	41.016	0.099
82.400	35.134	0.099
82.500	35.657	0.099
82.600	41.455	0.099
82.700	35.954	0.099
82.800	37.227	0.099
82.900	42.633	0.099
83.000	36.431	0.100
83.100	36.915	0.099
83.200	41.520	0.099
83.300	41.200	0.099
83.400	31.449	0.099
83.500	18.085	0.100
83.600	36.170	0.099
83.700	37.707	0.099
83.800	28.004	0.099
83.900	49.509	0.099
84.000	56.057	0.100
84.100	38.447	0.099
84.200	56.312	0.100
84.300	48.391	0.100
84.400	35.571	0.099
84.500	40.855	0.099
84.600	37.475	0.099
84.700	51.387	0.100
84.800	41.063	0.099
84.900	44.648	0.099
85.000	46.578	0.099
85.100	57.176	0.099
85.200	40.884	0.099
85.300	41.005	0.100
85.400	43.388	0.100
85.500	42.837	0.099
85.600	46.750	0.099
85.700	35.921	0.099
85.800	49.025	0.099
85.900	38.572	0.100
86.000	29.201	0.100
86.100	40.818	0.099
86.200	42.367	0.099
86.300	48.603	0.099
86.400	53.211	0.099
86.500	48.453	0.100
86.600	36.014	0.099
86.700	40.784	0.099
86.800	35.899	0.100
86.900	68.108	0.099
87.000	54.905	0.100
87.100	38.373	0.099
87.200	51.586	0.099
87.300	36.937	0.099
87.400	42.060	0.099
87.500	30.588	0.099
87.600	42.682	0.099
87.700	51.181	0.100
87.800	43.801	0.099
87.900	46.341	0.099
88.000	41.433	0.099
88.100	37.790	0.099
88.200	43.017	0.099
88.300	44.021	0.100
88.400	48.448	0.100
88.500	34.970	0.100
88.600	43.622	0.100
88.700	52.308	0.100
88.800	33.869	0.100
88.900	38.027	0.100
89.000	47.166	0.100
89.100	40.338	0.100
89.200	29.185	0.100
89.300	55.689	0.100
89.400	48.809	0.100
89.500	51.795	0.100
89.600	54.683	0.100
89.700	43.538	0.100
89.800	59.516	0.100
89.900	39.288	0.100
90.000	27.875	0.100
90.100	26.585	0.100
90.200	29.801	0.100
90.300	37.085	0.100
90.400	36.991	0.100
90.500	17.495	0.100
90.600	18.187	0.100
90.700	21.755	0.100
90.800	10.364	0.100
90.900	-1.195	0.100
91.000	8.423	0.100
91.100	10.715	0.100
91.200	4.722	0.100
91.300	3.106	0.100
91.400	-7.010	0.100
91.500	-10.374	0.100
91.600	-14.009	0.100
91.700	-19.366	0.100
91.800	-13.003	0.100
91.900	-5.558	0.100
92.000	-7.255	0.100
92.100	-14.091	0.100
92.200	-21.195	0.100
92.300	-26.871	0.100
92.400	-14.521	0.100
92.500	-16.791	0.100
92.600	-21.958	0.100
92.700	-30.087	0.100
92.800	-32.828	0.100
92.900	-38.670	0.100
93.000	-29.098	0.100
93.100	-18.276	0.100
93.200	-24.870	0.100
93.300	-30.807	0.100
93.400	-30.852	0.100
93.500	-37.015	0.100
93.600	-35.133	0.100
93.700	-27.669	0.100
93.800	-15.371	0.100
93.900	-32.157	0.100
94.000	-37.932	0.100
94.100	-37.744	0.100
94.200	-24.250	0.099
94.300	-28.709	0.099
94.400	-45.473	0.100
94.500	-42.043	0.100
94.600	-32.543	0.100
94.700	-26.295	0.099
94.800	-29.297	0.099
94.900	-35.274	0.100
95.000	-40.946	0.100
95.100	-35.351	0.100
95.200	-36.233	0.100
95.300	-30.324	0.100
95.400	-36.332	0.100
95.500	-48.581	0.100
95.600	-43.260	0.100
95.700	-26.178	0.099
95.800	-30.921	0.099
95.900	-37.312	0.100
96.000	-33.778	0.100
96.100	-33.515	0.100
96.200	-27.830	0.099
96.300	-29.803	0.099
96.400	-36.890	0.100
96.500	-36.781	0.100
96.600	-40.194	0.100
96.700	-28.803	0.099
96.800	-35.933	0.100
96.900	-29.209	0.099
97.000	-30.452	0.099
97.100	-33.092	0.100
97.200	-35.978	0.100
97.300	-39.825	0.100
97.400	-25.444	0.099
97.500	-25.294	0.099
97.600	-30.211	0.099
97.700	-35.722	0.100
97.800	-28.184	0.099
97.900	-32.526	0.099
98.000	-30.211	0.099
98.100	-28.962	0.099
98.200	-22.832	0.099
98.300	-24.751	0.099
98.400	-28.212	0.099
98.500	-33.923	0.100
98.600	-21.278	0.099
98.700	-32.822	0.099
98.800	-26.943	0.099
98.900	-40.906	0.100
99.000	-31.950	0.099
99.100	-28.286	0.099
99.200	-22.740	0.099
99.300	-25.724	0.099
99.400	-32.639	0.099
99.500	-21.756	0.099
99.600	-28.002	0.099
99.700	-29.184	0.099
99.800	-32.424	0.099
99.900	-44.037	0.099
100.000	-21.524	0.099
100.100	-31.652	0.099
100.200	-16.210	0.099
100.300	1.768	0.099
100.400	2.321	0.099
100.500	13.155	0.099
100.600	27.844	0.099
100.700	30.555	0.099
100.800	21.062	0.099
100.900	34.263	0.099
101.000	43.497	0.099
101.100	43.260	0.099
101.200	55.165	0.099
101.300	40.730	0.099
101.400	36.528	0.099
101.500	52.432	0.099
101.600	54.923	0.099
101.700	37.430	0.099
101.800	39.409	0.099
101.900	52.263	0.099
102.000	55.156	0.099
102.100	51.010	0.099
102.200	53.449	0.099
102.300	37.853	0.099
102.400	44.663	0.099
102.500	42.202	0.099
102.600	36.191	0.099
102.700	38.915	0.099
102.800	25.719	0.099
102.900	42.631	0.099
103.000	22.645	0.099
103.100	45.867	0.099
103.200	38.934	0.099
103.300	27.591	0.099
103.400	29.236	0.099
103.500	29.107	0.099
103.600	18.149	0.099
103.700	28.412	0.099
103.800	26.445	0.099
103.900	20.311	0.099
104.000	27.790	0.099
104.100	29.337	0.099
104.200	17.756	0.099
104.300	25.348	0.099
104.400	28.877	0.099
104.500	13.358	0.099
104.600	15.656	0.099
104.700	17.333	0.099
104.800	25.346	0.099
104.900	21.125	0.099
105.000	17.723	0.099
105.100	18.923	0.099
105.200	24.609	0.099
105.300	27.187	0.099
105.400	21.295	0.099
105.500	19.215	0.099
105.600	15.411	0.099
105.700	13.601	0.099
105.800	19.103	0.099
105.900	19.798	0.099
106.000	15.657	0.099
106.100	5.415	0.099
106.200	23.471	0.099
106.300	39.063	0.099
106.400	14.510	0.099
106.500	13.541	0.099
106.600	25.905	0.099
106.700	19.790	0.099
106.800	22.451	0.099
106.900	27.265	0.099
107.000	23.453	0.099
107.100	23.829	0.099
107.200	18.388	0.099
107.300	23.034	0.099
107.400	31.615	0.099
107.500	31.015	0.099
107.600	38.192	0.099
107.700	18.431	0.099
107.800	28.711	0.099
107.900	38.090	0.099
108.000	15.559	0.099
108.100	33.076	0.099
108.200	27.682	0.099
108.300	16.743	0.099
108.400	37.859	0.099
108.500	31.737	0.099
108.600	32.378	0.099
108.700	29.925	0.099
108.800	33.714	0.099
108.900	27.836	0.099
109.000	35.377	0.099
109.100	39.043	0.099
109.200	35.107	0.099
109.300	31.528	0.099
109.400	43.019	0.099
109.500	38.707	0.099
109.600	28.865	0.099
109.700	37.846	0.099
109.800	39.153	0.099
109.900	32.146	0.099
110.000	47.658	0.099
110.100	40.640	0.099
110.200	40.992	0.099
110.300	37.799	0.099
110.400	38.255	0.099
110.500	41.294	0.099
110.600	44.066	0.099
110.700	36.736	0.100
110.800	38.934	0.099
110.900	40.358	0.100
111.000	47.502	0.100
111.100	49.281	0.100
111.200	39.089	0.100
111.300	28.500	0.100
111.400	40.097	0.100
111.500	30.398	0.100
111.600	29.039	0.100
111.700	45.521	0.100
111.800	31.658	0.100
111.900	37.394	0.100
112.000	47.739	0.100
112.100	44.796	0.100
112.200	51.375	0.100
112.300	44.025	0.100
112.400	54.573	0.100
112.500	36.737	0.100
112.600	41.885	0.100
112.700	43.925	0.100
112.800	34.378	0.100
112.900	44.033	0.100
113.000	41.348	0.100
113.100	43.403	0.100
113.200	51.108	0.100
113.300	48.850	0.100
113.400	56.821	0.100
113.500	47.252	0.100
113.600	31.541	0.100
113.700	36.772	0.100
113.800	41.368	0.100
113.900	51.640	0.100
114.000	41.830	0.100
114.100	31.155	0.100
114.200	41.904	0.100
114.300	39.661	0.100
114.400	47.866	0.100
114.500	50.896	0.100
114.600	45.739	0.100
114.700	38.119	0.100
114.800	42.676	0.100
114.900	56.476	0.100
115.000	40.748	0.100
115.100	39.440	0.100
115.200	52.434	0.100
115.300	19.740	0.100
115.400	40.859	0.100
115.500	41.818	0.100
115.600	46.680	0.100
115.700	43.165	0.100
115.800	41.266	0.100
115.900	38.896	0.100
116.000	51.971	0.100
116.100	37.443	0.100
116.200	57.705	0.100
116.300	47.922	0.100
116.400	34.370	0.100
116.500	33.628	0.100
116.600	42.480	0.100
116.700	50.516	0.100
116.800	46.993	0.100
116.900	43.103	0.100
117.000	47.515	0.100
117.100	37.623	0.100
117.200	48.224	0.100
117.300	41.527	0.100
117.400	38.521	0.100
117.500	53.787	0.100
117.600	46.526	0.100
117.700	37.486	0.100
117.800	43.766	0.100
117.900	50.000	0.100
118.000	39.785	0.100
118.100	48.048	0.100
118.200	42.476	0.100
118.300	50.296	0.100
118.400	52.469	0.100
118.500	45.890	0.100
118.600	43.367	0.100
118.700	53.251	0.100
118.800	43.928	0.100
118.900	40.965	0.100
119.000	47.041	0.100
119.100	38.948	0.100
119.200	44.374	0.100
119.300	45.417	0.100
119.400	44.834	0.100
119.500	44.758	0.100
119.600	48.167	0.100
119.700	41.237	0.100
119.800	51.847	0.100
119.900	51.669	0.100
120.000	42.226	0.100
120.100	40.262	0.100
120.200	49.146	0.100
120.300	43.734	0.100
120.400	44.074	0.100
120.500	52.976	0.100
120.600	51.281	0.100
120.700	50.891	0.100
120.800	37.536	0.100
120.900	31.404	0.100
121.000	41.288	0.100
121.100	40.634	0.100
121.200	43.533	0.100
121.300	61.477	0.100
121.400	36.097	0.100
121.500	40.542	0.100
121.600	44.911	0.100
121.700	50.303	0.100
121.800	44.482	0.100
121.900	29.955	0.099
122.000	38.658	0.100
122.100	47.657	0.099
122.200	49.379	0.099
122.300	49.564	0.099
122.400	40.649	0.099
122.500	53.818	0.099
122.600	50.420	0.099
122.700	43.496	0.099
122.800	48.089	0.099
122.900	40.659	0.099
123.000	52.596	0.099
123.100	53.838	0.099
123.200	43.175	0.099
123.300	43.374	0.099
123.400	36.199	0.099
123.500	43.514	0.099
123.600	44.734	0.099
123.700	43.511	0.099
123.800	50.542	0.099
123.900	49.617	0.099
124.000	45.969	0.099
124.100	43.446	0.099
124.200	50.219	0.099
124.300	48.823	0.099
124.400	40.100	0.099
124.500	50.720	0.099
124.600	45.598	0.099
124.700	45.640	0.099
124.800	38.543	0.099
124.900	34.735	0.099
125.000	42.187	0.099
125.100	51.412	0.099
125.200	44.822	0.099
125.300	47.165	0.099
125.400	51.671	0.099
125.500	56.613	0.099
125.600	55.991	0.099
125.700	40.681	0.099
125.800	55.011	0.099
125.900	42.915	0.099
126.000	34.458	0.099
126.100	38.088	0.099
126.200	45.381	0.099
126.300	49.326	0.099
126.400	38.964	0.099
126.500	36.998	0.099
126.600	39.095	0.099
126.700	49.343	0.099
126.800	51.527	0.099
126.900	35.486	0.099
127.000	30.128	0.099
127.100	48.479	0.099
127.200	51.349	0.099
127.300	56.842	0.099
127.400	45.089	0.099
127.500	46.775	0.099
127.600	33.466	0.099
127.700	46.781	0.099
127.800	53.240	0.099
127.900	43.531	0.099
128.000	49.741	0.099
128.100	44.847	0.099
128.200	35.473	0.099
128.300	46.055	0.099
128.400	52.795	0.099
128.500	43.537	0.099
128.600	43.281	0.099
128.700	40.404	0.099
128.800	46.547	0.099
128.900	47.892	0.099
129.000	43.098	0.099
129.100	40.431	0.099
129.200	41.816	0.099
129.300	40.668	0.099
129.400	49.477	0.099
129.500	41.200	0.099
129.600	41.373	0.099
129.700	51.573	0.099
129.800	46.567	0.099
129.900	52.657	0.099
130.000	49.936	0.099
130.100	47.452	0.099
130.200	53.436	0.099
130.300	46.712	0.099
130.400	43.606	0.099
130.500	50.557	0.099
130.600	43.018	0.099
130.700	28.271	0.099
130.800	45.417	0.099
130.900	42.515	0.099
131.000	40.571	0.099
131.100	41.425	0.099
131.200	50.008	0.099
131.300	55.216	0.099
131.400	51.991	0.099
131.500	37.758	0.099
131.600	36.494	0.099
131.700	38.713	0.099
131.800	35.238	0.099
131.900	57.641	0.099
132.000	36.368	0.099
132.100	55.633	0.099
132.200	51.565	0.099
132.300	50.356	0.099
132.400	47.159	0.099
132.500	44.657	0.099
132.600	33.713	0.099
132.700	46.433	0.099
132.800	47.334	0.099
132.900	47.558	0.099
133.000	42.109	0.099
133.100	45.199	0.099
133.200	47.876	0.099
133.300	40.626	0.099
133.400	57.900	0.099
133.500	43.824	0.099
133.600	50.891	0.099
133.700	41.163	0.099
133.800	58.960	0.099
133.900	41.796	0.099
134.000	35.247	0.099
134.100	53.368	0.099
134.200	53.505	0.099
134.300	50.298	0.099
134.400	49.107	0.099
134.500	39.525	0.099
134.600	44.894	0.099
134.700	46.079	0.099
134.800	42.703	0.099
134.900	45.616	0.099
135.000	47.698	0.099
135.100	34.547	0.099
135.200	39.220	0.099
135.300	48.122	0.099
135.400	51.701	0.099
135.500	36.862	0.099
135.600	23.180	0.099
135.700	43.704	0.099
135.800	48.805	0.099
135.900	38.417	0.099
136.000	38.078	0.099
136.100	39.377	0.099
136.200	45.697	0.099
136.300	39.861	0.099
136.400	38.809	0.099
136.500	44.073	0.099
136.600	42.309	0.099
136.700	46.033	0.099
136.800	45.787	0.099
136.900	49.570	0.099
137.000	46.437	0.099
137.100	48.627	0.099
137.200	46.965	0.099
137.300	52.517	0.099
137.400	47.498	0.099
137.500	44.179	0.099
137.600	38.901	0.099
137.700	49.958	0.099
137.800	54.649	0.099
137.900	29.181	0.099
138.000	47.586	0.099
138.100	55.141	0.099
138.200	43.701	0.099
138.300	47.408	0.099
138.400	45.080	0.099
138.500	43.896	0.099
138.600	42.008	0.099
138.700	42.918	0.099
138.800	45.331	0.099
138.900	43.777	0.100
139.000	41.433	0.100
139.100	34.174	0.100
139.200	46.531	0.100
139.300	45.571	0.100
139.400	47.377	0.100
139.500	48.388	0.100
139.600	59.477	0.100
139.700	48.253	0.100
139.800	46.364	0.100
139.900	42.132	0.100
140.000	48.219	0.100
140.100	41.998	0.100
140.200	50.054	0.100
140.300	48.620	0.100
140.400	40.799	0.100
140.500	52.837	0.100
140.600	45.331	0.100
140.700	39.904	0.100
140.800	47.935	0.100
140.900	47.078	0.100
141.000	51.592	0.100
141.100	38.631	0.100
141.200	36.757	0.100
141.300	47.851	0.100
141.400	41.275	0.100
141.500	48.829	0.100
141.600	41.311	0.100
141.700	43.273	0.100
141.800	31.204	0.100
141.900	37.063	0.100
142.000	39.132	0.100
142.100	43.020	0.100
142.200	43.071	0.100
142.300	50.300	0.100
142.400	46.715	0.100
142.500	38.071	0.100
142.600	44.108	0.100
142.700	43.754	0.100
142.800	59.164	0.100
142.900	35.327	0.100
143.000	45.812	0.100
143.100	52.330	0.100
143.200	44.592	0.100
143.300	48.929	0.100
143.400	48.655	0.100
143.500	45.181	0.100
143.600	43.337	0.100
143.700	52.428	0.100
143.800	43.361	0.100
143.900	38.098	0.100
144.000	42.418	0.100
144.100	50.861	0.100
144.200	37.511	0.100
144.300	49.320	0.100
144.400	60.180	0.100
144.500	44.319	0.100
144.600	44.056	0.100
144.700	47.225	0.100
144.800	48.323	0.100
144.900	49.842	0.100
145.000	42.916	0.100
145.100	36.663	0.100
145.200	48.848	0.100
145.300	49.976	0.100
145.400	41.746	0.100
145.500	43.643	0.100
145.600	46.013	0.100
145.700	39.009	0.100
145.800	42.656	0.100
145.900	53.000	0.100
146.000	45.245	0.100
146.100	55.031	0.100
146.200	47.911	0.100
146.300	42.061	0.100
146.400	47.888	0.100
146.500	37.678	0.100
146.600	43.610	0.100
146.700	38.309	0.100
146.800	48.176	0.100
146.900	47.368	0.100
147.000	40.522	0.100
147.100	49.445	0.100
147.200	37.702	0.100
147.300	46.392	0.100
147.400	45.592	0.100
147.500	54.009	0.100
147.600	52.549	0.100
147.700	42.702	0.100
147.800	46.708	0.100
147.900	45.528	0.100
148.000	51.650	0.100
148.100	51.646	0.100
148.200	37.525	0.100
148.300	32.496	0.100
148.400	47.161	0.100
148.500	44.373	0.100
148.600	49.097	0.100
148.700	39.195	0.100
148.800	41.775	0.100
148.900	47.337	0.100
149.000	56.330	0.100
149.100	55.165	0.100
149.200	46.795	0.100
149.300	38.415	0.100
149.400	56.985	0.100
149.500	46.892	0.100
149.600	37.174	0.100
149.700	30.587	0.100
149.800	47.092	0.100
149.900	53.255	0.100
150.000	49.219	0.100
150.100	40.478	0.100
150.200	48.865	0.100
150.300	56.622	0.100
150.400	47.493	0.100
150.500	41.511	0.100
150.600	32.996	0.100
150.700	48.787	0.100
150.800	48.986	0.100
150.900	51.442	0.100
151.000	50.886	0.100
151.100	43.474	0.100
151.200	57.296	0.100
151.300	34.665	0.100
151.400	41.229	0.100
151.500	51.539	0.100
151.600	49.647	0.100
151.700	49.123	0.100
151.800	44.843	0.100
151.900	49.624	0.100
152.000	40.628	0.100
152.100	51.167	0.100
152.200	36.100	0.100
152.300	48.181	0.100
152.400	26.694	0.100
152.500	55.351	0.100
152.600	47.899	0.100
152.700	35.929	0.100
152.800	46.505	0.100
152.900	46.892	0.100
153.000	38.616	0.100
153.100	47.609	0.100
153.200	54.047	0.100
153.300	49.709	0.100
153.400	50.820	0.100
153.500	45.137	0.100
153.600	47.739	0.100
153.700	42.629	0.100
153.800	38.836	0.100
153.900	41.197	0.100
154.000	43.500	0.100
154.100	53.372	0.100
154.200	43.373	0.100
154.300	53.042	0.100
154.400	55.190	0.100
154.500	47.543	0.100
154.600	37.865	0.100
154.700	42.654	0.100
154.800	41.406	0.100
154.900	44.310	0.100
155.000	39.846	0.100
155.100	43.190	0.100
155.200	46.457	0.100
155.300	41.472	0.100
155.400	40.058	0.100
155.500	44.615	0.100
155.600	38.617	0.100
155.700	48.672	0.100
155.800	48.523	0.100
155.900	48.767	0.100
156.000	46.673	0.100
156.100	40.327	0.100
156.200	55.608	0.100
156.300	56.725	0.100
156.400	36.741	0.100
156.500	55.580	0.100
156.600	33.399	0.100
156.700	42.575	0.100
156.800	48.346	0.100
156.900	41.080	0.100
157.000	45.089	0.100
157.100	37.008	0.100
157.200	59.525	0.100
157.300	47.740	0.100
157.400	46.444	0.100
157.500	48.625	0.100
157.600	43.128	0.100
157.700	47.674	0.100
157.800	43.059	0.100
157.900	43.726	0.100
158.000	48.978	0.100
158.100	39.407	0.100
158.200	58.301	0.100
158.300	50.462	0.100
158.400	39.434	0.100
158.500	35.309	0.100
158.600	38.410	0.100
158.700	45.951	0.100
158.800	44.458	0.100
158.900	38.347	0.100
159.000	50.284	0.100
159.100	53.759	0.100
159.200	48.500	0.100
159.300	35.577	0.100
159.400	42.536	0.100
159.500	51.044	0.100
159.600	42.535	0.100
159.700	47.145	0.100
159.800	39.255	0.100
159.900	41.834	0.100
160.000	45.791	0.100
160.100	37.314	0.100
160.200	39.631	0.100
160.300	30.706	0.100
160.400	30.475	0.100
160.500	17.739	0.100
160.600	16.628	0.100
160.700	6.067	0.100
160.800	5.322	0.100
160.900	-2.042	0.100
161.000	-9.169	0.100
161.100	-13.207	0.100
161.200	5.363	0.100
161.300	-16.027	0.100
161.400	-18.144	0.100
161.500	1.306	0.100
161.600	-11.091	0.100
161.700	-5.151	0.100
161.800	-7.433	0.100
161.900	-18.061	0.100
162.000	-19.408	0.100
162.100	-27.905	0.100
162.200	-29.003	0.100
162.300	-13.480	0.100
162.400	-14.123	0.100
162.500	-23.700	0.100
162.600	-23.583	0.100
162.700	-22.636	0.100
162.800	-24.683	0.100
162.900	-38.873	0.100
163.000	-33.453	0.100
163.100	-14.367	0.100
163.200	-21.342	0.100
163.300	-18.758	0.100
163.400	-22.751	0.100
163.500	-32.836	0.100
163.600	-30.432	0.100
163.700	-34.600	0.100
163.800	-29.026	0.100
163.900	-33.400	0.100
164.000	-32.844	0.100
164.100	-38.153	0.100
164.200	-36.287	0.100
164.300	-30.126	0.100
164.400	-32.722	0.100
164.500	-28.568	0.100
164.600	-40.437	0.100
164.700	-40.659	0.100
164.800	-27.582	0.100
164.900	-44.245	0.100
165.000	-43.379	0.100
165.100	-38.739	0.100
165.200	-40.559	0.100
165.300	-25.667	0.100
165.400	-33.468	0.100
165.500	-39.081	0.100
165.600	-36.488	0.100
165.700	-42.550	0.100
165.800	-38.980	0.100
165.900	-37.616	0.100
166.000	-47.306	0.100
166.100	-27.320	0.100
166.200	-25.924	0.100
166.300	-46.357	0.100
166.400	-14.252	0.100
166.500	-23.821	0.100
166.600	-33.775	0.100
166.700	-40.710	0.100
166.800	-24.273	0.100
166.900	-41.130	0.100
167.000	-29.103	0.100
167.100	-34.445	0.100
167.200	-44.994	0.100
167.300	-24.667	0.100
167.400	-30.831	0.100
167.500	-39.113	0.100
167.600	-35.148	0.100
167.700	-39.031	0.100
167.800	-37.912	0.100
167.900	-51.077	0.100
168.000	-36.980	0.100
168.100	-25.308	0.100
168.200	-27.095	0.100
168.300	-39.132	0.100
168.400	-47.946	0.100
168.500	-43.236	0.100
168.600	-34.110	0.100
168.700	-29.241	0.100
168.800	-27.551	0.100
168.900	-34.635	0.100
169.000	-30.755	0.100
169.100	-38.001	0.100
169.200	-35.210	0.100
169.300	-36.726	0.100
169.400	-40.532	0.100
169.500	-35.440	0.100
169.600	-41.181	0.100
169.700	-45.826	0.100
169.800	-40.626	0.100
169.900	-40.129	0.100
170.000	-47.012	0.100
170.100	-21.616	0.100
170.200	-21.427	0.100
170.300	-30.194	0.100
170.400	-17.639	0.100
170.500	-1.612	0.100
170.600	9.337	0.100
170.700	13.105	0.100
170.800	3.854	0.100
170.900	21.160	0.100
171.000	12.070	0.100
171.100	17.686	0.100
171.200	26.692	0.100
171.300	26.432	0.100
171.400	26.573	0.100
171.500	34.672	0.100
171.600	37.215	0.100
171.700	22.911	0.100
171.800	26.526	0.100
171.900	30.703	0.100
172.000	24.116	0.100
172.100	33.091	0.100
172.200	23.363	0.100
172.300	29.827	0.100
172.400	25.585	0.100
172.500	39.578	0.100
172.600	33.470	0.100
172.700	26.732	0.100
172.800	19.144	0.100
172.900	18.305	0.100
173.000	22.167	0.100
173.100	25.150	0.100
173.200	15.951	0.100
173.300	21.928	0.100
173.400	18.496	0.100
173.500	14.950	0.100
173.600	-3.527	0.100
173.700	22.776	0.100
173.800	15.977	0.100
173.900	32.951	0.100
174.000	18.618	0.100
174.100	24.228	0.100
174.200	13.518	0.100
174.300	16.739	0.100
174.400	23.863	0.100
174.500	25.529	0.100
174.600	14.512	0.100
174.700	7.890	0.100
174.800	13.145	0.100
174.900	12.644	0.100
175.000	0.606	0.100
175.100	12.609	0.100
175.200	11.209	0.100
175.300	14.288	0.100
175.400	3.934	0.100
175.500	4.966	0.100
175.600	17.216	0.100
175.700	18.698	0.100
175.800	4.213	0.100
175.900	16.671	0.100
176.000	10.626	0.100
176.100	4.152	0.100
176.200	10.801	0.100
176.300	20.633	0.100
176.400	15.718	0.100
176.500	12.739	0.100
176.600	21.731	0.100
176.700	19.136	0.100
176.800	19.488	0.100
176.900	12.000	0.100
177.000	27.150	0.100
177.100	25.524	0.100
177.200	22.529	0.100
177.300	17.460	0.100
177.400	17.262	0.100
177.500	13.186	0.100
177.600	28.168	0.100
177.700	24.546	0.100
177.800	15.308	0.100
177.900	20.049	0.100
178.000	14.555	0.100
178.100	23.391	0.100
178.200	24.660	0.100
178.300	32.726	0.100
178.400	27.697	0.100
178.500	27.886	0.100
178.600	27.124	0.100
178.700	20.701	0.100
178.800	17.789	0.100
178.900	32.933	0.100
179.000	28.803	0.100
179.100	36.863	0.100
179.200	28.726	0.100
179.300	30.861	0.100
179.400	17.439	0.100
179.500	36.922	0.100
179.600	38.550	0.100
179.700	38.044	0.100
179.800	34.664	0.100
179.900	26.629	0.100
180.000	25.666	0.100
180.100	41.878	0.100
180.200	35.819	0.100
180.300	37.088	0.100
180.400	34.491	0.100
180.500	29.448	0.100
180.600	31.160	0.100
180.700	31.768	0.100
180.800	31.220	0.100
180.900	36.400	0.100
181.000	27.751	0.100
181.100	35.137	0.100
181.200	39.552	0.100
181.300	39.132	0.100
181.400	27.586	0.100
181.500	32.382	0.100
181.600	41.239	0.100
181.700	35.961	0.100
181.800	42.795	0.100
181.900	43.196	0.100
182.000	44.948	0.100
182.100	32.298	0.100
182.200	51.777	0.100
182.300	36.105	0.100
182.400	40.135	0.100
182.500	40.865	0.100
182.600	44.131	0.100
182.700	44.681	0.100
182.800	35.777	0.100
182.900	33.737	0.100
183.000	26.109	0.100
183.100	37.557	0.100
183.200	38.395	0.100
183.300	50.010	0.100
183.400	45.444	0.100
183.500	38.887	0.100
183.600	40.830	0.100
183.700	37.911	0.100
183.800	42.863	0.100
183.900	42.336	0.100
184.000	36.427	0.100
184.100	30.205	0.100
184.200	29.959	0.100
184.300	41.014	0.100
184.400	43.870	0.100
184.500	42.850	0.100
184.600	47.450	0.100
184.700	45.012	0.100
184.800	33.765	0.100
184.900	39.866	0.100
185.000	43.941	0.100
185.100	47.205	0.100
185.200	42.476	0.100
185.300	31.638	0.100
185.400	34.141	0.100
185.500	43.798	0.100
185.600	49.877	0.100
185.700	44.914	0.100
185.800	38.207	0.100
185.900	33.381	0.100
186.000	31.299	0.100
186.100	46.524	0.100
186.200	52.922	0.100
186.300	50.967	0.100
186.400	39.273	0.100
186.500	36.957	0.100
186.600	27.630	0.100
186.700	40.160	0.100
186.800	43.421	0.100
186.900	49.700	0.100
187.000	48.184	0.100
187.100	47.835	0.100
187.200	41.873	0.100
187.300	37.745	0.100
187.400	22.126	0.100
187.500	51.113	0.100
187.600	43.006	0.100
187.700	52.215	0.100
187.800	48.689	0.100
187.900	38.537	0.100
188.000	35.011	0.100
188.100	42.899	0.100
188.200	37.142	0.100
188.300	37.543	0.100
188.400	44.656	0.100
188.500	28.827	0.100
188.600	51.670	0.100
188.700	38.138	0.100
188.800	37.209	0.100
188.900	45.305	0.100
189.000	46.450	0.100
189.100	34.868	0.100
189.200	42.609	0.100
189.300	35.210	0.100
189.400	50.903	0.100
189.500	40.585	0.100
189.600	33.386	0.100
189.700	40.073	0.100
189.800	37.144	0.100
189.900	43.918	0.100
190.000	29.539	0.100
190.100	26.743	0.100
190.200	53.965	0.100
190.300	51.008	0.100
190.400	55.132	0.100
190.500	25.810	0.100
190.600	34.727	0.100
190.700	41.605	0.100
190.800	53.461	0.100
190.900	51.233	0.100
191.000	46.626	0.100
191.100	34.606	0.100
191.200	51.433	0.100
191.300	53.238	0.100
191.400	48.051	0.100
191.500	47.443	0.100
191.600	42.716	0.100
191.700	44.346	0.100
191.800	50.403	0.100
191.900	52.990	0.100
192.000	46.368	0.100
192.100	45.597	0.100
192.200	35.010	0.100
192.300	38.070	0.100
192.400	38.816	0.100
192.500	33.773	0.100
192.600	50.776	0.100
192.700	37.948	0.100
192.800	36.878	0.100
192.900	48.096	0.100
193.000	36.045	0.100
193.100	31.281	0.100
193.200	46.511	0.100
193.300	44.269	0.100
193.400	44.763	0.100
193.500	43.227	0.100
193.600	38.930	0.100
193.700	51.162	0.100
193.800	42.163	0.100
193.900	41.091	0.100
194.000	22.864	0.100
194.100	31.224	0.100
194.200	50.315	0.100
194.300	41.675	0.100
194.400	46.920	0.100
194.500	44.414	0.100
194.600	40.985	0.100
194.700	38.277	0.100
194.800	51.495	0.100
194.900	37.489	0.100
195.000	39.298	0.100
195.100	43.387	0.100
195.200	47.009	0.100
195.300	54.064	0.100
195.400	44.043	0.100
195.500	45.520	0.100
195.600	38.399	0.100
195.700	44.832	0.100
195.800	51.839	0.100
195.900	45.927	0.100
196.000	51.519	0.100
196.100	44.600	0.100
196.200	49.550	0.100
196.300	45.104	0.100
196.400	44.229	0.100
196.500	44.975	0.100
196.600	39.415	0.100
196.700	30.801	0.100
196.800	40.653	0.100
196.900	49.305	0.100
197.000	49.725	0.100
197.100	42.575	0.100
197.200	36.629	0.100
197.300	32.162	0.100
197.400	55.023	0.100
197.500	60.721	0.100
197.600	47.214	0.100
197.700	40.966	0.100
197.800	41.133	0.100
197.900	44.376	0.100
198.000	38.988	0.100
198.100	36.410	0.100
198.200	54.871	0.100
198.300	51.114	0.100
198.400	44.951	0.100
198.500	54.304	0.100
198.600	39.667	0.100
198.700	48.376	0.100
198.800	43.962	0.100
198.900	43.900	0.100
199.000	46.365	0.100
199.100	41.276	0.100
199.200	41.169	0.100
199.300	44.798	0.100
199.400	33.563	0.100
199.500	32.389	0.100
199.600	50.014	0.100
199.700	48.423	0.100
199.800	47.867	0.100
199.900	46.299	0.100
200.000	40.874	0.100
200.100	35.751	0.100
200.200	41.032	0.100
200.300	48.338	0.100
200.400	51.770	0.100
200.500	40.578	0.100
200.600	54.057	0.100
200.700	52.223	0.100
200.800	46.963	0.100
200.900	35.624	0.100
201.000	42.614	0.100
201.100	44.406	0.100
201.200	49.118	0.100
201.300	44.622	0.100
201.400	32.965	0.100
201.500	48.488	0.100
201.600	50.401	0.100
201.700	37.404	0.100
201.800	30.030	0.100
201.900	51.960	0.100
202.000	49.708	0.100
202.100	43.684	0.100
202.200	49.045	0.100
202.300	43.268	0.100
202.400	47.577	0.100
202.500	46.591	0.100
202.600	40.853	0.100
202.700	32.015	0.100
202.800	42.522	0.100
202.900	51.887	0.100
203.000	30.750	0.100
203.100	46.955	0.100
203.200	44.215	0.100
203.300	46.201	0.100
203.400	40.556	0.100
203.500	41.778	0.100
203.600	41.294	0.100
203.700	40.095	0.100
203.800	36.392	0.100
203.900	46.734	0.100
204.000	38.950	0.100
204.100	46.055	0.100
204.200	49.446	0.100
204.300	41.685	0.100
204.400	31.719	0.100
204.500	40.993	0.100
204.600	56.329	0.100
204.700	49.041	0.100
204.800	47.137	0.100
204.900	59.270	0.100
205.000	44.510	0.100
205.100	37.507	0.100
205.200	50.755	0.100
205.300	35.694	0.100
205.400	53.111	0.100
205.500	50.760	0.100
205.600	49.320	0.100
205.700	41.844	0.100
205.800	44.061	0.100
205.900	36.651	0.100
206.000	39.515	0.100
206.100	47.483	0.100
206.200	58.060	0.100
206.300	42.403	0.100
206.400	46.794	0.100
206.500	40.654	0.100
206.600	42.106	0.100
206.700	39.304	0.100
206.800	49.777	0.100
206.900	47.792	0.100
207.000	46.413	0.100
207.100	51.016	0.100
207.200	44.671	0.100
207.300	26.294	0.100
207.400	42.234	0.100
207.500	55.394	0.100
207.600	48.221	0.100
207.700	38.241	0.100
207.800	48.678	0.100
207.900	46.134	0.100
208.000	35.848	0.100
208.100	59.434	0.100
208.200	47.758	0.100
208.300	47.275	0.100
208.400	43.106	0.100
208.500	37.948	0.100
208.600	40.591	0.100
208.700	49.616	0.100
208.800	36.172	0.100
208.900	42.611	0.100
209.000	44.014	0.100
209.100	56.739	0.100
209.200	43.975	0.100
209.300	46.559	0.100
209.400	43.414	0.100
209.500	43.342	0.100
209.600	48.814	0.100
209.700	53.832	0.100
209.800	32.944	0.100
209.900	36.634	0.100
210.000	47.333	0.100
210.100	35.570	0.100
210.200	45.916	0.100
210.300	35.232	0.100
210.400	61.195	0.100
210.500	54.659	0.100
210.600	48.322	0.100
210.700	40.622	0.100
210.800	43.188	0.100
210.900	43.873	0.100
211.000	49.847	0.100
211.100	52.113	0.100
211.200	41.213	0.100
211.300	45.927	0.100
211.400	42.219	0.100
211.500	54.507	0.100
211.600	44.058	0.100
211.700	32.812	0.100
211.800	46.054	0.100
211.900	48.903	0.100
212.000	55.625	0.100
212.100	37.419	0.100
212.200	35.242	0.100
212.300	36.788	0.100
212.400	45.588	0.100
212.500	36.213	0.100
212.600	41.917	0.100
212.700	53.322	0.100
212.800	39.878	0.100
212.900	45.331	0.100
213.000	48.726	0.100
213.100	51.495	0.100
213.200	52.502	0.100
213.300	38.200	0.100
213.400	39.366	0.100
213.500	48.788	0.100
213.600	49.922	0.100
213.700	55.303	0.100
213.800	44.081	0.100
213.900	40.869	0.100
214.000	46.967	0.100
214.100	47.041	0.100
214.200	44.033	0.100
214.300	45.178	0.100
214.400	43.108	0.100
214.500	31.946	0.100
214.600	41.394	0.100
214.700	50.387	0.100
214.800	41.683	0.100
214.900	42.586	0.100
215.000	54.017	0.100
215.100	46.502	0.100
215.200	50.583	0.100
215.300	52.201	0.100
215.400	40.538	0.100
215.500	42.618	0.100
215.600	53.485	0.100
215.700	45.096	0.100
215.800	39.080	0.100
215.900	42.952	0.100
216.000	42.784	0.100
216.100	40.295	0.100
216.200	54.010	0.100
216.300	34.147	0.100
216.400	53.387	0.100
216.500	45.450	0.100
216.600	31.048	0.100
216.700	49.878	0.100
216.800	58.714	0.100
216.900	47.425	0.100
217.000	42.291	0.100
217.100	41.327	0.100
217.200	46.586	0.100
217.300	58.707	0.100
217.400	38.702	0.100
217.500	40.720	0.100
217.600	53.161	0.100
217.700	52.664	0.100
217.800	46.711	0.100
217.900	35.707	0.100
218.000	48.010	0.100
218.100	39.727	0.100
218.200	48.025	0.100
218.300	37.432	0.100
218.400	36.714	0.100
218.500	43.971	0.100
218.600	50.817	0.100
218.700	42.089	0.100
218.800	54.018	0.100
218.900	51.350	0.100
219.000	37.438	0.100
219.100	37.413	0.100
219.200	41.114	0.100
219.300	43.643	0.100
219.400	49.512	0.100
219.500	47.165	0.100
219.600	24.367	0.100
219.700	43.819	0.100
219.800	30.372	0.100
219.900	30.704	0.100
220.000	44.601	0.100
220.100	47.355	0.099
220.200	39.171	0.099
220.300	39.159	0.099
220.400	39.477	0.099
220.500	46.711	0.099
220.600	46.063	0.099
220.700	46.764	0.099
220.800	48.574	0.099
220.900	48.162	0.099
221.000	40.200	0.099
221.100	33.842	0.099
221.200	46.906	0.099
221.300	40.775	0.099
221.400	46.385	0.099
221.500	47.978	0.099
221.600	28.372	0.099
221.700	40.650	0.099
221.800	38.574	0.099
221.900	40.726	0.099
222.000	47.779	0.099
222.100	45.456	0.099
222.200	48.953	0.099
222.300	35.600	0.099
222.400	23.280	0.099
222.500	52.654	0.099
222.600	40.385	0.099
222.700	47.230	0.099
222.800	55.080	0.099
222.900	37.161	0.099
223.000	47.941	0.099
223.100	39.934	0.099
223.200	39.121	0.099
223.300	47.072	0.099
223.400	39.232	0.099
223.500	43.248	0.099
223.600	44.560	0.099
223.700	45.606	0.099
223.800	48.068	0.099
223.900	48.110	0.099
224.000	49.831	0.099
224.100	45.504	0.099
224.200	44.688	0.099
224.300	36.039	0.099
224.400	42.645	0.099
224.500	44.011	0.099
224.600	37.173	0.099
224.700	48.469	0.099
224.800	54.501	0.099
224.900	40.838	0.099
225.000	47.111	0.099
225.100	42.549	0.099
225.200	42.415	0.099
225.300	40.201	0.099
225.400	40.298	0.099
225.500	47.896	0.099
225.600	30.426	0.099
225.700	34.170	0.099
225.800	38.157	0.099
225.900	44.112	0.099
226.000	51.579	0.099
226.100	48.712	0.099
226.200	47.309	0.099
226.300	48.184	0.099
226.400	47.169	0.099
226.500	46.308	0.099
226.600	38.837	0.099
226.700	33.715	0.099
226.800	49.887	0.099
226.900	49.164	0.099
227.000	46.305	0.099
227.100	40.093	0.099
227.200	43.855	0.099
227.300	42.078	0.099
227.400	36.981	0.099
227.500	39.734	0.099
227.600	36.275	0.099
227.700	40.490	0.099
227.800	43.070	0.099
227.900	39.995	0.099
228.000	36.882	0.099
228.100	45.638	0.099
228.200	34.698	0.099
228.300	38.471	0.099
228.400	50.269	0.099
228.500	50.316	0.099
228.600	49.581	0.099
228.700	34.074	0.099
228.800	37.633	0.099
228.900	36.453	0.099
229.000	37.425	0.099
229.100	54.075	0.099
229.200	37.843	0.099
229.300	40.268	0.099
229.400	36.877	0.099
229.500	43.487	0.099
229.600	54.006	0.099
229.700	41.007	0.099
229.800	30.382	0.099
229.900	40.250	0.099
230.000	42.283	0.099
230.100	38.577	0.099
230.200	36.678	0.099
230.300	35.379	0.099
230.400	18.173	0.099
230.500	22.017	0.099
230.600	11.929	0.099
230.700	8.591	0.099
230.800	3.834	0.099
230.900	10.202	0.099
231.000	-1.886	0.099
231.100	-10.579	0.099
231.200	-7.971	0.099
231.300	-30.786	0.099
231.400	-23.868	0.099
231.500	-13.993	0.099
231.600	-22.661	0.099
231.700	-17.834	0.099
231.800	-17.512	0.099
231.900	-17.568	0.099
232.000	-30.491	0.099
232.100	-32.101	0.099
232.200	-31.769	0.099
232.300	-25.686	0.099
232.400	-30.371	0.099
232.500	-34.490	0.099
232.600	-33.307	0.099
232.700	-34.228	0.099
232.800	-29.372	0.099
232.900	-28.462	0.099
233.000	-29.422	0.099
233.100	-43.764	0.099
233.200	-28.910	0.099
233.300	-46.500	0.099
233.400	-40.070	0.099
233.500	-31.366	0.099
233.600	-37.903	0.099
233.700	-44.408	0.099
233.800	-42.385	0.099
233.900	-40.654	0.099
234.000	-38.767	0.099
234.100	-44.179	0.099
234.200	-42.744	0.099
234.300	-42.159	0.099
234.400	-48.090	0.099
234.500	-43.953	0.099
234.600	-37.428	0.099
234.700	-50.612	0.100
234.800	-49.116	0.099
234.900	-51.549	0.100
235.000	-44.020	0.100
235.100	-45.266	0.100
235.200	-39.587	0.099
235.300	-45.588	0.100
235.400	-41.603	0.100
235.500	-54.501	0.100
235.600	-60.380	0.100
235.700	-55.035	0.100
235.800	-34.140	0.100
235.900	-43.577	0.100
236.000	-48.904	0.100
236.100	-34.055	0.100
236.200	-49.459	0.100
236.300	-45.488	0.100
236.400	-48.292	0.100
236.500	-43.791	0.100
236.600	-43.070	0.100
236.700	-45.986	0.100
236.800	-50.453	0.100
236.900	-50.958	0.100
237.000	-58.081	0.100
237.100	-51.493	0.100
237.200	-45.649	0.100
237.300	-42.137	0.100
237.400	-44.644	0.100
237.500	-34.717	0.100
237.600	-46.917	0.100
237.700	-47.191	0.100
237.800	-51.439	0.100
237.900	-40.728	0.100
238.000	-40.474	0.100
238.100	-36.963	0.100
238.200	-49.845	0.100
238.300	-44.890	0.100
238.400	-39.289	0.100
238.500	-39.728	0.100
238.600	-54.239	0.100
238.700	-41.855	0.100
238.800	-55.490	0.100
238.900	-47.868	0.100
239.000	-41.995	0.100
239.100	-50.761	0.100
239.200	-49.697	0.100
239.300	-51.618	0.100
239.400	-50.162	0.100
239.500	-48.446	0.100
239.600	-53.131	0.100
239.700	-46.346	0.100
239.800	-42.504	0.100
239.900	-42.710	0.100
240.000	-42.313	0.100
240.100	-45.610	0.100
240.200	-40.239	0.100
240.300	-32.351	0.100
240.400	-18.925	0.100
240.500	-10.738	0.100
240.600	-7.567	0.100
240.700	3.622	0.100
240.800	3.341	0.100
240.900	2.444	0.100
241.000	21.621	0.100
241.100	26.988	0.100
241.200	20.646	0.100
241.300	22.656	0.100
241.400	11.193	0.100
241.500	19.046	0.100
241.600	20.627	0.100
241.700	18.647	0.100
241.800	25.467	0.100
241.900	24.510	0.100
242.000	15.258	0.100
242.100	31.918	0.100
242.200	27.973	0.100
242.300	20.804	0.100
242.400	26.540	0.100
242.500	30.520	0.100
242.600	15.239	0.100
242.700	20.704	0.100
242.800	25.563	0.100
242.900	1.028	0.100
243.000	28.824	0.100
243.100	14.957	0.100
243.200	20.451	0.100
243.300	8.333	0.100
243.400	5.295	0.100
243.500	14.545	0.100
243.600	18.231	0.100
243.700	10.156	0.100
243.800	17.716	0.100
243.900	27.729	0.100
244.000	21.234	0.100
244.100	18.974	0.100
244.200	2.132	0.100
244.300	10.110	0.100
244.400	7.541	0.100
244.500	8.457	0.100
244.600	5.180	0.100
244.700	5.925	0.100
244.800	11.955	0.100
244.900	16.655	0.100
245.000	15.301	0.100
245.100	15.523	0.100
245.200	-0.490	0.100
245.300	8.759	0.100
245.400	6.424	0.100
245.500	18.687	0.100
245.600	5.368	0.100
245.700	11.571	0.100
245.800	15.864	0.100
245.900	13.228	0.100
246.000	17.998	0.100
246.100	13.466	0.100
246.200	4.118	0.100
246.300	21.788	0.100
246.400	19.304	0.100
246.500	12.875	0.100
246.600	16.075	0.100
246.700	11.972	0.100
246.800	12.793	0.100
246.900	10.730	0.100
247.000	6.005	0.100
247.100	26.930	0.100
247.200	21.929	0.100
247.300	21.832	0.100
247.400	9.255	0.100
247.500	20.738	0.100
247.600	19.144	0.100
247.700	11.436	0.100
247.800	29.606	0.100
247.900	15.874	0.100
248.000	31.918	0.100
248.100	24.277	0.100
248.200	18.375	0.100
248.300	27.723	0.100
248.400	28.283	0.100
248.500	31.134	0.100
248.600	27.180	0.100
248.700	26.119	0.100
248.800	25.199	0.100
248.900	17.739	0.100
249.000	25.238	0.100
249.100	30.354	0.100
249.200	25.926	0.100
249.300	26.507	0.100
249.400	26.218	0.100
249.500	32.271	0.100
249.600	30.296	0.100
249.700	32.813	0.100
249.800	31.874	0.100
249.900	37.134	0.100
250.000	30.698	0.100
250.100	29.673	0.100
250.200	37.784	0.100
250.300	24.579	0.100
250.400	19.008	0.100
250.500	28.771	0.100
250.600	18.945	0.100
250.700	33.668	0.100
250.800	43.531	0.100
250.900	43.337	0.100
251.000	30.708	0.100
251.100	36.374	0.100
251.200	47.505	0.100
251.300	38.927	0.100
251.400	35.191	0.100
251.500	30.952	0.100
251.600	37.028	0.100
251.700	44.378	0.100
251.800	30.467	0.100
251.900	51.743	0.100
252.000	40.286	0.100
252.100	37.351	0.100
252.200	39.771	0.100
252.300	45.547	0.100
252.400	43.444	0.100
252.500	43.861	0.100
252.600	28.714	0.100
252.700	47.957	0.100
252.800	49.903	0.100
252.900	31.126	0.100
253.000	34.290	0.100
253.100	44.268	0.100
253.200	41.355	0.100
253.300	35.646	0.100
253.400	51.326	0.100
253.500	38.335	0.100
253.600	45.116	0.100
253.700	34.150	0.100
253.800	42.444	0.100
253.900	40.922	0.100
254.000	40.040	0.100
254.100	47.155	0.100
254.200	41.198	0.100
254.300	37.937	0.100
254.400	53.907	0.100
254.500	51.770	0.100
254.600	50.081	0.100
254.700	35.297	0.100
254.800	50.170	0.100
254.900	41.077	0.100
255.000	41.121	0.100
255.100	38.191	0.100
255.200	35.075	0.100
255.300	41.087	0.100
255.400	47.746	0.100
255.500	34.484	0.100
255.600	37.667	0.100
255.700	45.095	0.100
255.800	40.294	0.100
255.900	41.664	0.100
256.000	49.437	0.100
256.100	39.833	0.100
256.200	45.928	0.100
256.300	42.728	0.100
256.400	43.394	0.100
256.500	44.789	0.100
256.600	48.175	0.100
256.700	35.051	0.100
256.800	31.951	0.100
256.900	45.678	0.100
257.000	45.729	0.100
257.100	34.914	0.100
257.200	54.663	0.100
257.300	53.478	0.100
257.400	54.026	0.100
257.500	33.626	0.100
257.600	36.867	0.100
257.700	47.991	0.100
257.800	46.186	0.100
257.900	40.153	0.100
258.000	36.384	0.100
258.100	40.667	0.100
258.200	46.210	0.100
258.300	39.044	0.100
258.400	45.648	0.100
258.500	38.069	0.100
258.600	36.439	0.100
258.700	38.675	0.100
258.800	47.638	0.100
258.900	49.270	0.100
259.000	42.002	0.100
259.100	43.825	0.100
259.200	42.275	0.100
259.300	38.754	0.100
259.400	49.155	0.100
259.500	38.118	0.100
259.600	33.442	0.100
259.700	49.122	0.100
259.800	51.246	0.100
259.900	32.781	0.100
260.000	45.885	0.100
260.100	40.868	0.100
260.200	39.532	0.100
260.300	39.812	0.100
260.400	48.387	0.100
260.500	38.088	0.100
260.600	46.730	0.100
260.700	42.580	0.100
260.800	41.526	0.100
260.900	66.408	0.100
261.000	54.998	0.100
261.100	52.207	0.100
261.200	43.059	0.100
261.300	41.050	0.100
261.400	41.282	0.100
261.500	30.318	0.100
261.600	43.294	0.100
261.700	24.702	0.100
261.800	37.866	0.100
261.900	42.352	0.100
262.000	40.642	0.100
262.100	55.574	0.100
262.200	46.420	0.100
262.300	46.548	0.100
262.400	38.300	0.100
262.500	38.539	0.100
262.600	45.497	0.100
262.700	44.549	0.100
262.800	37.563	0.100
262.900	28.404	0.100
263.000	57.208	0.100
263.100	45.167	0.100
263.200	42.499	0.100
263.300	45.561	0.100
263.400	35.197	0.100
263.500	46.591	0.100
263.600	43.699	0.100
263.700	49.207	0.100
263.800	40.752	0.100
263.900	45.607	0.100
264.000	48.290	0.100
264.100	29.738	0.100
264.200	47.740	0.100
264.300	34.079	0.100
264.400	46.391	0.100
264.500	47.300	0.100
264.600	45.375	0.100
264.700	45.609	0.100
264.800	47.002	0.100
264.900	48.956	0.100
265.000	34.437	0.100
265.100	37.870	0.100
265.200	50.946	0.100
265.300	45.219	0.100
265.400	49.708	0.100
265.500	30.991	0.100
265.600	38.178	0.100
265.700	38.543	0.100
265.800	40.325	0.100
265.900	44.624	0.100
266.000	42.984	0.100
266.100	56.027	0.100
266.200	30.648	0.100
266.300	46.206	0.100
266.400	39.517	0.100
266.500	38.068	0.100
266.600	60.138	0.100
266.700	51.231	0.100
266.800	40.995	0.100
266.900	41.305	0.100
267.000	43.173	0.100
267.100	44.612	0.100
267.200	48.091	0.100
267.300	43.193	0.100
267.400	46.521	0.100
267.500	38.643	0.100
267.600	50.184	0.100
267.700	49.217	0.100
267.800	53.916	0.100
267.900	40.453	0.100
268.000	41.663	0.100
268.100	45.208	0.100
268.200	43.941	0.100
268.300	42.539	0.100
268.400	55.121	0.100
268.500	50.775	0.100
268.600	43.187	0.100
268.700	29.958	0.100
268.800	45.580	0.100
268.900	36.314	0.100
269.000	34.154	0.100
269.100	34.831	0.100
269.200	48.391	0.100
269.300	46.751	0.100
269.400	42.000	0.100
269.500	46.578	0.100
269.600	59.863	0.100
269.700	50.154	0.100
269.800	37.596	0.100
269.900	32.517	0.100
270.000	43.204	0.100
270.100	56.491	0.100
270.200	40.651	0.100
270.300	46.345	0.100
270.400	36.428	0.100
270.500	42.156	0.100
270.600	36.682	0.100
270.700	38.305	0.100
270.800	44.775	0.100
270.900	48.975	0.100
271.000	48.281	0.100
271.100	50.091	0.100
271.200	23.583	0.100
271.300	38.712	0.100
271.400	45.513	0.100
271.500	48.784	0.100
271.600	43.535	0.100
271.700	43.764	0.100
271.800	44.357	0.100
271.900	44.605	0.100
272.000	34.969	0.100
272.100	47.390	0.100
272.200	49.954	0.100
272.300	43.290	0.100
272.400	38.204	0.100
272.500	35.067	0.100
272.600	44.564	0.100
272.700	43.213	0.100
272.800	41.059	0.100
272.900	40.484	0.100
273.000	46.165	0.100
273.100	31.579	0.100
273.200	40.268	0.100
273.300	40.645	0.100
273.400	45.583	0.100
273.500	46.207	0.100
273.600	36.889	0.100
273.700	40.036	0.100
273.800	46.095	0.100
273.900	46.103	0.100
274.000	44.832	0.100
274.100	35.185	0.100
274.200	38.795	0.100
274.300	25.860	0.100
274.400	40.247	0.100
274.500	36.272	0.100
274.600	51.278	0.100
274.700	58.322	0.100
274.800	36.975	0.100
274.900	43.777	0.100
275.000	30.103	0.100
275.100	33.081	0.100
275.200	45.019	0.100
275.300	45.701	0.100
275.400	33.914	0.100
275.500	39.380	0.100
275.600	42.591	0.100
275.700	42.915	0.100
275.800	36.206	0.099
275.900	25.802	0.099
276.000	42.451	0.099
276.100	33.272	0.099
276.200	49.978	0.099
276.300	37.157	0.099
276.400	50.205	0.099
276.500	50.113	0.099
276.600	44.080	0.099
276.700	39.510	0.099
276.800	39.531	0.099
276.900	42.570	0.099
277.000	32.704	0.099
277.100	44.481	0.099
277.200	37.748	0.099
277.300	38.166	0.099
277.400	40.813	0.099
277.500	50.596	0.099
277.600	44.447	0.099
277.700	45.115	0.099
277.800	40.784	0.099
277.900	52.883	0.099
278.000	49.496	0.099
278.100	31.551	0.099
278.200	37.520	0.099
278.300	48.411	0.099
278.400	39.185	0.099
278.500	27.873	0.099
278.600	35.727	0.099
278.700	48.343	0.099
278.800	53.733	0.099
278.900	53.579	0.099
279.000	53.856	0.099
279.100	44.873	0.099
279.200	41.005	0.099
279.300	45.961	0.099
279.400	49.282	0.099
279.500	37.277	0.099
279.600	48.882	0.099
279.700	30.778	0.099
279.800	37.978	0.099
279.900	54.344	0.099
280.000	42.328	0.099
280.100	45.766	0.099
280.200	35.143	0.099
280.300	47.199	0.099
280.400	41.870	0.099
280.500	45.023	0.099
280.600	38.417	0.099
280.700	37.557	0.099
280.800	51.838	0.099
280.900	40.441	0.099
281.000	41.681	0.099
281.100	40.678	0.099
281.200	48.897	0.099
281.300	44.595	0.099
281.400	47.211	0.099
281.500	48.865	0.099
281.600	33.821	0.099
281.700	35.827	0.099
281.800	42.851	0.099
281.900	34.072	0.099
282.000	51.993	0.099
282.100	45.973	0.099
282.200	47.361	0.099
282.300	44.929	0.099
282.400	44.406	0.099
282.500	46.512	0.099
282.600	40.044	0.099
282.700	36.474	0.099
282.800	36.108	0.099
282.900	39.998	0.099
283.000	41.995	0.099
283.100	38.569	0.099
283.200	38.490	0.099
283.300	46.011	0.099
283.400	40.265	0.099
283.500	45.116	0.099
283.600	46.347	0.099
283.700	40.578	0.099
283.800	37.426	0.099
283.900	40.216	0.099
284.000	36.522	0.099
284.100	45.615	0.099
284.200	44.576	0.099
284.300	42.736	0.099
284.400	43.347	0.099
284.500	45.267	0.099
284.600	34.516	0.099
284.700	41.095	0.099
284.800	48.124	0.099
284.900	37.247	0.099
285.000	42.759	0.099
285.100	52.637	0.099
285.200	49.599	0.099
285.300	34.866	0.099
285.400	43.792	0.099
285.500	50.910	0.099
285.600	45.096	0.099
285.700	44.523	0.099
285.800	33.369	0.099
285.900	46.715	0.099
286.000	38.641	0.099
286.100	41.153	0.099
286.200	39.752	0.099
286.300	44.851	0.099
286.400	40.157	0.099
286.500	47.320	0.099
286.600	52.682	0.099
286.700	51.810	0.099
286.800	39.941	0.099
286.900	36.510	0.099
287.000	35.437	0.099
287.100	35.548	0.099
287.200	38.220	0.099
287.300	45.394	0.099
287.400	40.911	0.099
287.500	44.751	0.099
287.600	39.921	0.099
287.700	49.071	0.099
287.800	56.332	0.099
287.900	41.494	0.099
288.000	43.769	0.099
288.100	39.556	0.099
288.200	40.304	0.099
288.300	45.200	0.099
288.400	41.890	0.099
288.500	46.400	0.099
288.600	36.267	0.099
288.700	35.022	0.099
288.800	38.789	0.099
288.900	33.420	0.099
289.000	45.182	0.099
289.100	52.770	0.099
289.200	51.146	0.099
289.300	40.030	0.099
289.400	38.376	0.099
289.500	27.216	0.099
289.600	31.559	0.099
289.700	36.799	0.099
289.800	31.977	0.099
289.900	42.656	0.099
290.000	33.681	0.099
290.100	53.316	0.099
290.200	49.131	0.099
290.300	45.735	0.099
290.400	40.600	0.099
290.500	32.351	0.099
290.600	38.291	0.099
290.700	32.508	0.099
290.800	45.302	0.099
290.900	49.666	0.099
291.000	43.787	0.099
291.100	46.374	0.099
291.200	42.937	0.099
291.300	38.086	0.099
291.400	48.440	0.099
291.500	49.423	0.099
291.600	50.224	0.099
291.700	34.681	0.099
291.800	42.349	0.099
291.900	31.069	0.099
292.000	37.014	0.099
292.100	49.396	0.099
292.200	49.398	0.099
292.300	35.380	0.099
292.400	36.450	0.099
292.500	37.709	0.099
292.600	43.656	0.099
292.700	38.470	0.099
292.800	34.955	0.099
292.900	43.923	0.099
293.000	42.159	0.099
293.100	58.717	0.099
293.200	48.658	0.099
293.300	37.828	0.100
293.400	38.996	0.099
293.500	35.393	0.099
293.600	39.168	0.099
293.700	39.123	0.099
293.800	41.141	0.099
293.900	48.472	0.099
294.000	43.252	0.099
294.100	58.836	0.099
294.200	37.263	0.100
294.300	35.813	0.099
294.400	39.218	0.099
294.500	29.378	0.099
294.600	39.193	0.099
294.700	48.962	0.099
294.800	34.167	0.099
294.900	42.818	0.099
295.000	43.762	0.099
295.100	37.644	0.099
295.200	39.441	0.099
295.300	39.875	0.100
295.400	34.510	0.099
295.500	29.821	0.100
295.600	46.346	0.099
295.700	43.441	0.100
295.800	51.290	0.099
295.900	36.131	0.100
296.000	41.236	0.100
296.100	49.639	0.100
296.200	46.840	0.100
296.300	49.049	0.100
296.400	25.479	0.100
296.500	39.876	0.100
296.600	54.190	0.100
296.700	30.474	0.100
296.800	52.091	0.100
296.900	50.134	0.100
297.000	38.545	0.100
297.100	38.686	0.100
297.200	35.298	0.100
297.300	33.835	0.100
297.400	34.110	0.100
297.500	42.215	0.100
297.600	44.060	0.100
297.700	49.798	0.100
297.800	53.920	0.100
297.900	46.826	0.100
298.000	31.557	0.100
298.100	46.409	0.100
298.200	46.319	0.100
298.300	41.286	0.100
298.400	33.871	0.100
298.500	39.050	0.100
298.600	41.724	0.100
298.700	34.689	0.100
298.800	33.498	0.100
298.900	45.132	0.100
299.000	55.135	0.100
299.100	42.158	0.100
299.200	37.995	0.100
299.300	46.393	0.100
299.400	31.597	0.100
299.500	31.325	0.100
299.600	28.794	0.100
299.700	42.766	0.100
299.800	35.084	0.100
299.900	47.333	0.100
300.000	39.442	0.100
300.100	43.336	0.100
300.200	40.111	0.100
300.300	22.430	0.100
300.400	21.915	0.100
300.500	15.575	0.100
300.600	5.972	0.100
300.700	1.575	0.100
300.800	-10.666	0.100
300.900	-10.702	0.100
301.000	0.703	0.100
301.100	-9.540	0.100
301.200	-10.083	0.100
301.300	-12.944	0.100
301.400	-21.892	0.100
301.500	-26.456	0.100
301.600	-22.769	0.100
301.700	-31.655	0.100
301.800	-37.972	0.100
301.900	-30.833	0.100
302.000	-50.939	0.100
302.100	-29.223	0.100
302.200	-30.279	0.100
302.300	-50.355	0.100
302.400	-31.280	0.100
302.500	-32.686	0.100
302.600	-44.256	0.100
302.700	-45.534	0.100
302.800	-49.023	0.100
302.900	-51.349	0.100
303.000	-46.645	0.100
303.100	-56.004	0.100
303.200	-43.304	0.100
303.300	-48.236	0.100
303.400	-34.375	0.100
303.500	-47.930	0.100
303.600	-46.985	0.100
303.700	-43.845	0.100
303.800	-38.879	0.100
303.900	-54.484	0.100
304.000	-40.518	0.100
304.100	-41.199	0.100
304.200	-64.627	0.100
304.300	-61.023	0.100
304.400	-50.061	0.100
304.500	-53.735	0.100
304.600	-46.221	0.100
304.700	-47.015	0.100
304.800	-57.290	0.100
304.900	-57.207	0.100
305.000	-46.481	0.100
305.100	-42.994	0.100
305.200	-57.505	0.100
305.300	-52.560	0.100
305.400	-55.671	0.100
305.500	-47.467	0.100
305.600	-60.897	0.100
305.700	-67.892	0.100
305.800	-58.096	0.100
305.900	-48.654	0.100
306.000	-60.352	0.100
306.100	-55.982	0.100
306.200	-54.537	0.100
306.300	-50.435	0.100
306.400	-48.614	0.100
306.500	-38.654	0.100
306.600	-51.277	0.100
306.700	-55.804	0.100
306.800	-57.505	0.100
306.900	-44.548	0.100
307.000	-56.394	0.100
307.100	-56.922	0.100
307.200	-60.681	0.100
307.300	-55.604	0.100
307.400	-55.959	0.100
307.500	-57.790	0.100
307.600	-53.254	0.100
307.700	-59.047	0.100
307.800	-41.388	0.100
307.900	-46.235	0.100
308.000	-57.636	0.100
308.100	-47.823	0.100
308.200	-50.266	0.100
308.300	-38.450	0.100
308.400	-47.535	0.100
308.500	-66.672	0.100
308.600	-60.645	0.100
308.700	-53.497	0.100
308.800	-54.394	0.100
308.900	-57.463	0.100
309.000	-55.010	0.100
309.100	-51.728	0.100
309.200	-50.909	0.100
309.300	-54.982	0.100
309.400	-52.900	0.100
309.500	-56.511	0.100
309.600	-73.028	0.100
309.700	-53.007	0.100
309.800	-60.568	0.100
309.900	-57.608	0.100
310.000	-45.187	0.100
310.100	-45.054	0.100
310.200	-41.494	0.100
310.300	-23.519	0.100
310.400	-31.270	0.100
310.500	-16.379	0.100
310.600	-22.014	0.100
310.700	1.049	0.100
310.800	-4.822	0.100
310.900	3.687	0.100
311.000	15.967	0.100
311.100	21.767	0.100
311.200	21.245	0.100
311.300	17.895	0.100
311.400	33.082	0.100
311.500	18.070	0.100
311.600	20.475	0.100
311.700	23.543	0.100
311.800	26.160	0.100
311.900	22.559	0.100
312.000	21.120	0.100
312.100	23.633	0.100
312.200	11.272	0.100
312.300	16.987	0.100
312.400	33.789	0.100
312.500	21.227	0.100
312.600	32.322	0.100
312.700	12.659	0.100
312.800	16.870	0.100
312.900	16.503	0.100
313.000	18.082	0.100
313.100	23.165	0.100
313.200	11.305	0.100
313.300	14.319	0.100
313.400	27.244	0.100
313.500	9.599	0.100
313.600	12.510	0.100
313.700	17.092	0.100
313.800	11.025	0.100
313.900	14.650	0.100
314.000	6.133	0.100
314.100	21.395	0.100
314.200	23.841	0.100
314.300	6.222	0.100
314.400	9.100	0.100
314.500	22.936	0.100
314.600	18.574	0.100
314.700	1.084	0.100
314.800	8.544	0.100
314.900	-1.373	0.100
315.000	16.701	0.100
315.100	16.627	0.100
315.200	20.725	0.100
315.300	12.707	0.100
315.400	-3.513	0.100
315.500	-8.999	0.100
315.600	8.030	0.100
315.700	18.952	0.100
315.800	10.142	0.100
315.900	15.583	0.100
316.000	8.396	0.100
316.100	8.808	0.100
316.200	7.099	0.100
316.300	14.278	0.100
316.400	11.304	0.100
316.500	12.081	0.100
316.600	-4.390	0.100
316.700	5.988	0.100
316.800	6.975	0.100
316.900	7.878	0.100
317.000	13.566	0.100
317.100	14.329	0.100
317.200	19.184	0.100
317.300	16.418	0.100
317.400	13.529	0.100
317.500	28.251	0.100
317.600	20.036	0.100
317.700	15.315	0.100
317.800	13.502	0.100
317.900	13.689	0.100
318.000	25.404	0.100
318.100	16.304	0.100
318.200	38.614	0.100
318.300	30.099	0.100
318.400	24.414	0.100
318.500	10.668	0.100
318.600	28.523	0.100
318.700	26.543	0.100
318.800	19.649	0.100
318.900	24.047	0.100
319.000	29.619	0.100
319.100	26.326	0.100
319.200	34.236	0.100
319.300	32.893	0.100
319.400	19.031	0.100
319.500	12.171	0.100
319.600	25.164	0.100
319.700	37.332	0.100
319.800	15.688	0.100
319.900	31.533	0.100
320.000	33.439	0.100
320.100	31.069	0.100
320.200	34.404	0.100
320.300	32.366	0.100
320.400	34.922	0.100
320.500	36.184	0.100
320.600	34.411	0.100
320.700	34.827	0.100
320.800	24.412	0.100
320.900	24.641	0.100
321.000	34.104	0.100
321.100	46.227	0.100
321.200	33.544	0.100
321.300	44.478	0.100
321.400	39.394	0.100
321.500	25.577	0.100
321.600	38.363	0.100
321.700	50.575	0.100
321.800	33.345	0.100
321.900	32.066	0.100
322.000	25.566	0.100
322.100	40.569	0.100
322.200	32.665	0.100
322.300	40.003	0.100
322.400	42.188	0.100
322.500	11.415	0.100
322.600	31.004	0.100
322.700	43.865	0.100
322.800	35.941	0.100
322.900	25.940	0.100
323.000	49.489	0.100
323.100	38.815	0.100
323.200	39.609	0.100
323.300	40.905	0.100
323.400	48.750	0.100
323.500	37.482	0.100
323.600	30.922	0.100
323.700	47.542	0.100
323.800	44.708	0.100
323.900	31.617	0.100
324.000	34.899	0.100
324.100	43.331	0.100
324.200	44.669	0.100
324.300	39.036	0.100
324.400	28.950	0.100
324.500	46.188	0.100
324.600	47.570	0.100
324.700	45.437	0.100
324.800	38.133	0.100
324.900	44.506	0.100
325.000	28.770	0.100
325.100	35.964	0.100
325.200	37.186	0.100
325.300	47.563	0.100
325.400	40.546	0.100
325.500	48.711	0.100
325.600	37.259	0.100
325.700	40.206	0.100
325.800	28.933	0.100
325.900	41.812	0.100
326.000	43.267	0.100
326.100	32.016	0.100
326.200	43.518	0.100
326.300	46.667	0.100
326.400	37.525	0.100
326.500	40.474	0.100
326.600	40.737	0.100
326.700	43.905	0.100
326.800	50.422	0.100
326.900	42.461	0.100
327.000	39.571	0.100
327.100	49.160	0.100
327.200	48.076	0.100
327.300	35.117	0.100
327.400	45.868	0.100
327.500	42.344	0.100
327.600	38.792	0.100
327.700	31.440	0.100
327.800	37.162	0.100
327.900	38.046	0.100
328.000	41.498	0.100
328.100	48.484	0.100
328.200	44.485	0.100
328.300	44.653	0.100
328.400	44.038	0.100
328.500	49.755	0.100
328.600	39.199	0.100
328.700	48.681	0.100
328.800	37.387	0.100
328.900	44.952	0.100
329.000	48.914	0.100
329.100	43.005	0.100
329.200	35.944	0.100
329.300	45.287	0.100
329.400	44.553	0.100
329.500	50.647	0.100
329.600	40.123	0.100
329.700	43.964	0.100
329.800	45.932	0.100
329.900	43.481	0.100
330.000	35.788	0.100
330.100	52.658	0.100
330.200	57.814	0.100
330.300	27.730	0.100
330.400	39.539	0.100
330.500	42.527	0.100
330.600	39.953	0.100
330.700	41.214	0.100
330.800	40.342	0.100
330.900	48.681	0.100
331.000	42.115	0.100
331.100	45.269	0.100
331.200	44.104	0.100
331.300	33.130	0.100
331.400	41.911	0.100
331.500	40.613	0.100
331.600	37.211	0.100
331.700	51.505	0.100
331.800	46.976	0.100
331.900	47.306	0.100
332.000	30.628	0.100
332.100	37.606	0.100
332.200	50.025	0.100
332.300	42.887	0.100
332.400	41.989	0.100
332.500	56.758	0.100
332.600	43.037	0.100
332.700	34.380	0.100
332.800	35.877	0.100
332.900	47.617	0.100
333.000	44.655	0.100
333.100	50.387	0.100
333.200	37.918	0.100
333.300	47.199	0.100
333.400	49.814	0.100
333.500	43.631	0.100
333.600	39.501	0.100
333.700	47.214	0.100
333.800	30.655	0.100
333.900	43.395	0.100
334.000	43.100	0.100
334.100	43.546	0.100
334.200	47.695	0.100
334.300	43.594	0.100
334.400	40.938	0.100
334.500	44.095	0.100
334.600	32.386	0.100
334.700	42.199	0.100
334.800	34.506	0.100
334.900	41.966	0.100
335.000	43.148	0.100
335.100	32.635	0.100
335.200	40.018	0.100
335.300	41.423	0.100
335.400	31.475	0.100
335.500	49.838	0.100
335.600	46.507	0.100
335.700	33.607	0.100
335.800	48.509	0.100
335.900	57.094	0.100
336.000	48.594	0.100
336.100	39.070	0.100
336.200	36.013	0.100
336.300	43.255	0.100
336.400	42.127	0.100
336.500	54.256	0.100
336.600	32.764	0.100
336.700	45.724	0.100
336.800	37.381	0.100
336.900	39.949	0.100
337.000	44.054	0.100
337.100	47.234	0.100
337.200	22.843	0.100
337.300	50.736	0.100
337.400	47.286	0.100
337.500	38.422	0.100
337.600	32.509	0.100
337.700	52.032	0.100
337.800	49.073	0.100
337.900	50.275	0.100
338.000	39.852	0.100
338.100	30.961	0.100
338.200	37.987	0.100
338.300	41.315	0.100
338.400	43.646	0.100
338.500	45.000	0.100
338.600	42.078	0.100
338.700	41.415	0.100
338.800	47.274	0.100
338.900	51.519	0.100
339.000	47.241	0.100
339.100	47.135	0.100
339.200	42.355	0.100
339.300	42.214	0.100
339.400	36.099	0.100
339.500	37.889	0.100
339.600	40.555	0.100
339.700	30.995	0.100
339.800	47.833	0.100
339.900	47.172	0.100
340.000	44.224	0.100
340.100	38.619	0.100
340.200	40.467	0.100
340.300	39.570	0.100
340.400	38.287	0.100
340.500	58.920	0.100
340.600	40.796	0.100
340.700	39.003	0.100
340.800	39.356	0.100
340.900	43.129	0.100
341.000	36.796	0.100
341.100	30.141	0.100
341.200	43.336	0.100
341.300	40.575	0.100
341.400	40.895	0.100
341.500	55.732	0.100
341.600	50.423	0.100
341.700	41.184	0.100
341.800	39.224	0.100
341.900	43.373	0.100
342.000	40.693	0.100
342.100	47.474	0.100
342.200	34.315	0.100
342.300	28.758	0.100
342.400	43.413	0.100
342.500	50.745	0.100
342.600	41.807	0.100
342.700	40.407	0.100
342.800	40.735	0.100
342.900	45.948	0.100
343.000	41.674	0.100
343.100	45.768	0.100
343.200	43.215	0.100
343.300	41.643	0.100
343.400	44.459	0.100
343.500	42.147	0.100
343.600	38.221	0.100
343.700	40.950	0.100
343.800	49.037	0.100
343.900	45.819	0.100
344.000	42.349	0.100
344.100	44.176	0.100
344.200	31.770	0.100
344.300	48.013	0.100
344.400	37.740	0.100
344.500	40.335	0.100
344.600	44.558	0.100
344.700	43.910	0.100
344.800	45.219	0.100
344.900	43.245	0.100
345.000	35.237	0.100
345.100	28.058	0.100
345.200	45.795	0.100
345.300	51.206	0.100
345.400	41.856	0.100
345.500	44.097	0.100
345.600	38.242	0.100
345.700	34.135	0.100
345.800	42.795	0.100
345.900	25.110	0.100
346.000	37.098	0.100
346.100	39.082	0.100
346.200	53.992	0.100
346.300	54.071	0.100
346.400	48.003	0.100
346.500	38.127	0.100
346.600	41.035	0.100
346.700	29.898	0.100
346.800	49.020	0.100
346.900	53.515	0.100
347.000	39.235	0.100
347.100	43.413	0.100
347.200	40.965	0.100
347.300	30.947	0.100
347.400	49.591	0.100
347.500	42.254	0.100
347.600	51.590	0.100
347.700	42.539	0.100
347.800	47.445	0.100
347.900	43.625	0.100
348.000	32.536	0.100
348.100	44.253	0.100
348.200	34.457	0.100
348.300	37.346	0.100
348.400	43.618	0.100
348.500	37.772	0.100
348.600	43.873	0.100
348.700	41.650	0.100
348.800	32.291	0.100
348.900	52.884	0.100
349.000	42.543	0.100
349.100	51.560	0.100
349.200	40.100	0.100
349.300	51.905	0.100
349.400	38.388	0.100
349.500	35.629	0.100
349.600	40.782	0.100
349.700	38.429	0.100
349.800	38.472	0.100
349.900	42.996	0.100
350.000	43.593	0.100
350.100	46.989	0.100
350.200	40.294	0.100
350.300	34.118	0.100
350.400	47.250	0.100
350.500	48.327	0.100
350.600	47.331	0.100
350.700	45.714	0.100
350.800	52.185	0.100
350.900	39.815	0.100
351.000	36.801	0.100
351.100	45.325	0.100
351.200	44.287	0.100
351.300	35.950	0.100
351.400	47.310	0.100
351.500	44.471	0.100
351.600	50.867	0.100
351.700	46.793	0.100
351.800	43.936	0.100
351.900	46.516	0.100
352.000	36.477	0.100
352.100	35.366	0.100
352.200	43.274	0.100
352.300	35.904	0.100
352.400	39.798	0.100
352.500	51.108	0.100
352.600	37.232	0.100
352.700	30.906	0.100
352.800	54.336	0.100
352.900	59.845	0.100
353.000	43.067	0.100
353.100	49.427	0.100
353.200	35.431	0.100
353.300	40.567	0.100
353.400	44.585	0.100
353.500	39.112	0.100
353.600	45.598	0.100
353.700	52.108	0.100
353.800	40.094	0.100
353.900	41.031	0.100
354.000	37.022	0.100
354.100	26.555	0.100
354.200	39.068	0.100
354.300	47.436	0.100
354.400	43.649	0.100
354.500	44.956	0.100
354.600	42.344	0.100
354.700	32.741	0.100
354.800	44.177	0.100
354.900	44.962	0.100
355.000	33.068	0.100
355.100	40.940	0.100
355.200	32.571	0.100
355.300	42.194	0.100
355.400	39.485	0.100
355.500	44.923	0.100
355.600	42.417	0.100
355.700	35.993	0.100
355.800	37.848	0.100
355.900	56.686	0.100
356.000	50.418	0.100
356.100	51.346	0.100
356.200	32.331	0.100
356.300	36.718	0.100
356.400	35.914	0.100
356.500	34.484	0.100
356.600	33.785	0.100
356.700	42.849	0.100
356.800	55.489	0.100
356.900	43.832	0.100
357.000	41.201	0.100
357.100	49.307	0.100
357.200	47.895	0.100
357.300	40.181	0.100
357.400	35.786	0.100
357.500	41.241	0.100
357.600	45.441	0.100
357.700	40.301	0.100
357.800	45.010	0.100
357.900	48.690	0.100
358.000	27.595	0.100
358.100	51.973	0.100
358.200	38.824	0.100
358.300	35.437	0.100
358.400	44.791	0.100
358.500	47.739	0.100
358.600	29.698	0.100
358.700	37.746	0.100
358.800	37.486	0.100
358.900	23.728	0.100
359.000	25.890	0.100
359.100	38.208	0.100
359.200	48.130	0.100
359.300	48.303	0.100
359.400	34.579	0.100
359.500	32.376	0.100
359.600	35.282	0.100
359.700	38.314	0.100
359.800	46.485	0.100
359.900	41.271	0.100
360.000	44.167	0.100
360.100	46.990	0.100
360.200	36.431	0.100
360.300	38.765	0.100
360.400	47.046	0.100
360.500	52.172	0.100
360.600	46.544	0.100
360.700	49.714	0.100
360.800	38.839	0.100
360.900	49.538	0.100
361.000	38.211	0.100
361.100	34.299	0.100
361.200	40.386	0.100
361.300	32.490	0.100
361.400	32.945	0.100
361.500	36.067	0.100
361.600	40.703	0.100
361.700	42.272	0.100
361.800	35.172	0.100
361.900	44.169	0.100
362.000	50.572	0.100
362.100	38.286	0.100
362.200	49.633	0.100
362.300	45.706	0.100
362.400	44.510	0.100
362.500	47.128	0.100
362.600	42.226	0.100
362.700	31.601	0.100
362.800	38.191	0.100
362.900	51.124	0.100
363.000	41.838	0.100
363.100	34.461	0.100
363.200	33.696	0.100
363.300	45.712	0.100
363.400	41.319	0.100
363.500	36.156	0.100
363.600	44.694	0.100
363.700	57.748	0.100
363.800	51.471	0.100
363.900	48.552	0.100
364.000	24.275	0.100
364.100	49.635	0.100
364.200	50.012	0.100
364.300	38.573	0.100
364.400	35.498	0.100
364.500	41.018	0.100
364.600	40.982	0.100
364.700	47.355	0.100
364.800	47.586	0.100
364.900	38.155	0.100
365.000	31.858	0.100
365.100	38.653	0.100
365.200	32.979	0.100
365.300	48.103	0.100
365.400	28.311	0.100
365.500	31.863	0.100
365.600	32.605	0.100
365.700	33.731	0.100
365.800	36.512	0.100
365.900	40.541	0.100
366.000	46.926	0.100
366.100	39.369	0.100
366.200	46.089	0.100
366.300	51.358	0.100
366.400	38.586	0.100
366.500	36.908	0.100
366.600	47.743	0.100
366.700	34.108	0.100
366.800	42.534	0.100
366.900	40.344	0.100
367.000	41.104	0.100
367.100	29.328	0.100
367.200	39.291	0.100
367.300	47.231	0.100
367.400	30.301	0.100
367.500	39.478	0.100
367.600	33.184	0.100
367.700	41.630	0.100
367.800	43.883	0.100
367.900	33.786	0.100
368.000	38.789	0.100
368.100	46.055	0.100
368.200	39.348	0.100
368.300	37.569	0.100
368.400	26.386	0.100
368.500	40.586	0.100
368.600	44.133	0.100
368.700	32.957	0.100
368.800	35.107	0.100
368.900	29.002	0.100
369.000	44.551	0.100
369.100	56.281	0.100
369.200	50.371	0.100
369.300	34.996	0.100
369.400	43.947	0.100
369.500	43.759	0.100
369.600	47.736	0.100
369.700	33.775	0.100
369.800	54.822	0.100
369.900	40.876	0.100
370.000	35.242	0.100
370.100	41.312	0.100
370.200	31.139	0.100
370.300	20.795	0.100
370.400	11.053	0.100
370.500	21.449	0.100
370.600	17.641	0.100
370.700	0.712	0.100
370.800	-14.279	0.100
370.900	-17.948	0.100
371.000	-18.675	0.100
371.100	-18.091	0.100
371.200	-13.862	0.100
371.300	-38.496	0.100
371.400	-24.252	0.100
371.500	-16.152	0.100
371.600	-32.611	0.100
371.700	-34.826	0.100
371.800	-29.831	0.100
371.900	-39.060	0.100
372.000	-33.945	0.100
372.100	-39.073	0.100
372.200	-40.670	0.100
372.300	-61.587	0.100
372.400	-57.601	0.100
372.500	-46.941	0.100
372.600	-49.240	0.100
372.700	-60.220	0.100
372.800	-49.094	0.100
372.900	-49.917	0.100
373.000	-41.478	0.100
373.100	-37.764	0.100
373.200	-59.256	0.100
373.300	-56.407	0.100
373.400	-61.789	0.100
373.500	-65.378	0.100
373.600	-60.828	0.100
373.700	-59.138	0.100
373.800	-55.163	0.100
373.900	-53.596	0.100
374.000	-66.144	0.100
374.100	-61.864	0.100
374.200	-55.954	0.100
374.300	-54.312	0.100
374.400	-66.902	0.100
374.500	-57.517	0.100
374.600	-53.090	0.100
374.700	-69.080	0.100
374.800	-51.090	0.100
374.900	-53.363	0.100
375.000	-47.547	0.100
375.100	-64.273	0.100
375.200	-61.446	0.100
375.300	-66.719	0.100
375.400	-62.936	0.100
375.500	-54.791	0.100
375.600	-64.277	0.100
375.700	-58.236	0.100
375.800	-57.970	0.100
375.900	-57.994	0.100
376.000	-57.709	0.100
376.100	-69.724	0.100
376.200	-46.537	0.100
376.300	-54.025	0.100
376.400	-49.940	0.100
376.500	-52.441	0.100
376.600	-69.553	0.100
376.700	-71.214	0.100
376.800	-54.640	0.100
376.900	-68.132	0.100
377.000	-56.655	0.100
377.100	-61.854	0.100
377.200	-53.531	0.100
377.300	-50.490	0.100
377.400	-63.257	0.100
377.500	-75.668	0.100
377.600	-61.906	0.100
377.700	-53.589	0.100
377.800	-53.900	0.100
377.900	-65.064	0.100
378.000	-56.013	0.100
378.100	-51.082	0.100
378.200	-70.725	0.100
378.300	-63.474	0.100
378.400	-43.498	0.100
378.500	-48.350	0.100
378.600	-50.055	0.100
378.700	-66.304	0.100
378.800	-73.864	0.100
378.900	-66.579	0.100
379.000	-77.106	0.100
379.100	-49.830	0.100
379.200	-44.723	0.100
379.300	-67.642	0.100
379.400	-51.491	0.100
379.500	-52.859	0.100
379.600	-66.756	0.100
379.700	-58.773	0.100
379.800	-58.692	0.100
379.900	-59.933	0.100
380.000	-63.295	0.100
380.100	-61.082	0.100
380.200	-59.467	0.100
380.300	-49.590	0.100
380.400	-26.722	0.100
380.500	-27.413	0.100
380.600	-16.101	0.100
380.700	-1.415	0.100
380.800	-4.455	0.100
380.900	2.813	0.100
381.000	15.287	0.100
381.100	7.944	0.100
381.200	10.191	0.100
381.300	25.493	0.100
381.400	31.909	0.100
381.500	28.626	0.100
381.600	23.226	0.100
381.700	-4.729	0.100
381.800	23.090	0.100
381.900	28.528	0.100
382.000	27.829	0.100
382.100	22.997	0.100
382.200	24.171	0.100
382.300	17.608	0.100
382.400	4.527	0.100
382.500	17.722	0.100
382.600	15.960	0.100
382.700	27.039	0.100
382.800	27.475	0.100
382.900	18.377	0.100
383.000	32.392	0.100
383.100	12.958	0.100
383.200	17.826	0.100
383.300	23.794	0.100
383.400	24.706	0.100
383.500	21.472	0.100
383.600	12.646	0.100
383.700	6.354	0.100
383.800	7.787	0.100
383.900	8.392	0.100
384.000	11.434	0.100
384.100	15.615	0.100
384.200	16.231	0.100
384.300	28.252	0.100
384.400	2.048	0.100
384.500	3.621	0.100
384.600	8.328	0.100
384.700	6.507	0.100
384.800	8.362	0.100
384.900	16.841	0.100
385.000	4.841	0.100
385.100	22.488	0.100
385.200	5.723	0.100
385.300	13.720	0.100
385.400	6.934	0.100
385.500	4.150	0.100
385.600	0.840	0.100
385.700	6.336	0.100
385.800	-8.050	0.100
385.900	4.142	0.100
386.000	12.026	0.100
386.100	12.309	0.100
386.200	17.489	0.100
386.300	2.475	0.100
386.400	8.746	0.100
386.500	12.411	0.100
386.600	8.320	0.100
386.700	12.955	0.100
386.800	5.911	0.100
386.900	9.009	0.100
387.000	22.435	0.100
387.100	7.014	0.100
387.200	9.838	0.100
387.300	10.039	0.100
387.400	21.380	0.100
387.500	8.400	0.100
387.600	29.999	0.100
387.700	22.104	0.100
387.800	24.595	0.100
387.900	14.076	0.100
388.000	7.861	0.100
388.100	16.598	0.100
388.200	25.294	0.100
388.300	26.889	0.100
388.400	26.163	0.100
388.500	32.371	0.100
388.600	8.447	0.100
388.700	16.878	0.100
388.800	26.169	0.100
388.900	29.426	0.100
389.000	24.761	0.100
389.100	23.646	0.100
389.200	17.164	0.100
389.300	33.647	0.100
389.400	28.529	0.100
389.500	36.027	0.100
389.600	35.941	0.100
389.700	30.270	0.100
389.800	25.512	0.100
389.900	27.779	0.100
390.000	17.662	0.100
390.100	36.786	0.100
390.200	42.142	0.100
390.300	39.230	0.100
390.400	17.786	0.100
390.500	42.921	0.100
390.600	46.489	0.100
390.700	32.974	0.100
390.800	31.215	0.100
390.900	29.097	0.100
391.000	35.996	0.100
391.100	32.485	0.100
391.200	32.878	0.100
391.300	32.513	0.100
391.400	39.453	0.100
391.500	35.755	0.100
391.600	31.938	0.100
391.700	40.801	0.100
391.800	41.384	0.100
391.900	45.143	0.100
392.000	38.824	0.100
392.100	38.291	0.100
392.200	35.938	0.100
392.300	31.530	0.100
392.400	33.084	0.100
392.500	49.897	0.100
392.600	39.028	0.100
392.700	44.722	0.100
392.800	42.976	0.100
392.900	28.397	0.100
393.000	39.272	0.100
393.100	35.439	0.100
393.200	35.519	0.100
393.300	40.947	0.100
393.400	38.389	0.100
393.500	26.230	0.100
393.600	24.984	0.100
393.700	41.918	0.100
393.800	43.856	0.100
393.900	43.802	0.100
394.000	46.583	0.100
394.100	39.693	0.100
394.200	35.615	0.100
394.300	25.524	0.100
394.400	34.529	0.100
394.500	48.663	0.100
394.600	46.444	0.100
394.700	35.178	0.100
394.800	35.295	0.100
394.900	45.414	0.100
395.000	31.706	0.100
395.100	42.701	0.100
395.200	43.011	0.100
395.300	49.279	0.100
395.400	37.788	0.100
395.500	35.681	0.100
395.600	40.989	0.100
395.700	38.467	0.100
395.800	44.327	0.100
395.900	47.265	0.100
396.000	43.922	0.100
396.100	47.890	0.100
396.200	44.012	0.100
396.300	43.340	0.100
396.400	37.066	0.100
396.500	36.102	0.100
396.600	47.637	0.100
396.700	45.081	0.100
396.800	43.481	0.100
396.900	46.210	0.100
397.000	41.402	0.100
397.100	42.580	0.100
397.200	34.443	0.100
397.300	49.503	0.100
397.400	41.709	0.100
397.500	48.413	0.100
397.600	39.685	0.100
397.700	35.803	0.100
397.800	36.661	0.100
397.900	32.588	0.100
398.000	41.587	0.100
398.100	33.416	0.100
398.200	38.388	0.100
398.300	38.864	0.100
398.400	44.597	0.100
398.500	38.252	0.100
398.600	50.256	0.100
398.700	41.131	0.100
398.800	41.975	0.100
398.900	41.585	0.100
399.000	37.553	0.100
399.100	42.234	0.100
399.200	43.842	0.100
399.300	26.486	0.100
399.400	43.376	0.100
399.500	48.210	0.100
399.600	47.262	0.100
399.700	58.240	0.100
399.800	37.216	0.100
399.900	48.310	0.100
400.000	46.312	0.100
400.100	39.358	0.100
400.200	38.260	0.100
400.300	38.326	0.100
400.400	35.852	0.100
400.500	36.538	0.100
400.600	38.343	0.100
400.700	40.410	0.100
400.800	33.981	0.100
400.900	44.497	0.100
401.000	41.648	0.100
401.100	44.533	0.100
401.200	33.852	0.100
401.300	35.824	0.100
401.400	50.576	0.100
401.500	50.160	0.100
401.600	50.104	0.100
401.700	46.359	0.100
401.800	46.495	0.100
401.900	46.210	0.100
402.000	42.849	0.100
402.100	39.329	0.100
402.200	31.040	0.100
402.300	41.756	0.100
402.400	35.595	0.100
402.500	38.576	0.100
402.600	35.946	0.100
402.700	34.608	0.100
402.800	31.615	0.100
402.900	34.861	0.100
403.000	48.897	0.100
403.100	53.845	0.100
403.200	40.240	0.100
403.300	35.777	0.100
403.400	34.873	0.100
403.500	40.528	0.100
403.600	45.888	0.100
403.700	44.393	0.100
403.800	52.609	0.100
403.900	42.087	0.100
404.000	44.446	0.100
404.100	40.798	0.100
404.200	40.852	0.100
404.300	40.593	0.100
404.400	41.016	0.100
404.500	30.784	0.100
404.600	35.365	0.100
404.700	36.227	0.100
404.800	45.880	0.100
404.900	46.873	0.100
405.000	44.007	0.100
405.100	35.100	0.100
405.200	47.645	0.100
405.300	41.203	0.100
405.400	50.795	0.100
405.500	41.043	0.100
405.600	37.950	0.100
405.700	35.857	0.100
405.800	44.635	0.100
405.900	42.068	0.100
406.000	40.064	0.100
406.100	35.331	0.100
406.200	35.399	0.100
406.300	31.890	0.100
406.400	40.559	0.100
406.500	39.004	0.100
406.600	51.102	0.100
406.700	31.138	0.100
406.800	29.212	0.100
406.900	47.282	0.100
407.000	37.737	0.100
407.100	53.031	0.100
407.200	38.932	0.100
407.300	37.529	0.100
407.400	44.723	0.100
407.500	44.523	0.100
407.600	36.841	0.100
407.700	41.426	0.100
407.800	52.192	0.100
407.900	44.775	0.100
408.000	44.979	0.100
408.100	39.156	0.100
408.200	42.832	0.100
408.300	47.502	0.100
408.400	45.707	0.100
408.500	45.398	0.100
408.600	40.969	0.100
408.700	41.626	0.100
408.800	41.362	0.100
408.900	36.782	0.100
409.000	41.424	0.100
409.100	39.379	0.100
409.200	42.160	0.100
409.300	24.936	0.100
409.400	48.147	0.100
409.500	31.074	0.100
409.600	43.284	0.100
409.700	40.668	0.100
409.800	41.552	0.100
409.900	46.080	0.100
410.000	34.498	0.100
410.100	39.424	0.100
410.200	37.506	0.100
410.300	36.595	0.100
410.400	48.005	0.100
410.500	36.637	0.100
410.600	39.098	0.100
410.700	43.379	0.100
410.800	28.636	0.100
410.900	38.589	0.100
411.000	51.248	0.100
411.100	46.703	0.100
411.200	28.393	0.100
411.300	36.928	0.100
411.400	46.500	0.100
411.500	50.788	0.100
411.600	39.026	0.100
411.700	32.019	0.100
411.800	37.060	0.100
411.900	40.827	0.100
412.000	42.590	0.100
412.100	36.459	0.100
412.200	31.517	0.100
412.300	49.555	0.100
412.400	45.467	0.100
412.500	45.032	0.100
412.600	32.340	0.100
412.700	29.049	0.100
412.800	41.918	0.100
412.900	34.020	0.100
413.000	36.639	0.100
413.100	41.900	0.100
413.200	39.410	0.100
413.300	35.544	0.100
413.400	41.956	0.100
413.500	43.460	0.100
413.600	34.692	0.100
413.700	35.158	0.100
413.800	39.669	0.100
413.900	46.379	0.100
414.000	46.718	0.100
414.100	44.441	0.100
414.200	43.896	0.100
414.300	37.142	0.100
414.400	38.500	0.100
414.500	36.234	0.100
414.600	39.543	0.100
414.700	30.139	0.100
414.800	45.669	0.100
414.900	48.915	0.100
415.000	50.029	0.100
415.100	46.589	0.100
415.200	46.720	0.100
415.300	40.024	0.100
415.400	32.551	0.100
415.500	47.717	0.100
415.600	37.340	0.100
415.700	32.832	0.100
415.800	42.423	0.100
415.900	43.932	0.100
416.000	54.611	0.100
416.100	41.956	0.100
416.200	43.121	0.100
416.300	43.693	0.100
416.400	46.768	0.100
416.500	37.523	0.100
416.600	33.358	0.100
416.700	31.591	0.100
416.800	49.386	0.100
416.900	34.027	0.100
417.000	35.845	0.100
417.100	42.678	0.100
417.200	40.781	0.100
417.300	42.657	0.100
417.400	33.419	0.100
417.500	37.853	0.100
417.600	42.821	0.100
417.700	41.355	0.100
417.800	42.928	0.100
417.900	35.936	0.100
418.000	48.199	0.100
418.100	30.269	0.100
418.200	43.673	0.100
418.300	37.479	0.100
418.400	43.192	0.100
418.500	44.485	0.100
418.600	43.312	0.100
418.700	42.134	0.100
418.800	40.030	0.100
418.900	34.022	0.100
419.000	35.271	0.100
419.100	45.459	0.100
419.200	36.689	0.100
419.300	48.860	0.100
419.400	39.477	0.100
419.500	40.717	0.100
419.600	44.690	0.100
419.700	48.855	0.100
419.800	36.924	0.100
419.900	34.638	0.100
420.000	40.986	0.100
420.100	40.628	0.100
420.200	41.751	0.100
420.300	33.940	0.100
420.400	34.783	0.100
420.500	38.744	0.100
420.600	46.779	0.100
420.700	48.450	0.100
420.800	47.654	0.100
420.900	44.350	0.100
421.000	38.908	0.100
421.100	30.251	0.100
421.200	31.875	0.100
421.300	35.044	0.100
421.400	41.499	0.100
421.500	37.628	0.100
421.600	42.104	0.100
421.700	40.184	0.100
421.800	20.492	0.100
421.900	32.901	0.100
422.000	39.653	0.100
422.100	51.579	0.100
422.200	44.797	0.100
422.300	33.075	0.100
422.400	43.099	0.100
422.500	47.362	0.100
422.600	36.199	0.100
422.700	44.145	0.100
422.800	36.340	0.100
422.900	33.331	0.100
423.000	24.855	0.100
423.100	40.730	0.100
423.200	48.657	0.100
423.300	43.978	0.100
423.400	42.914	0.100
423.500	41.749	0.100
423.600	46.445	0.100
423.700	47.498	0.100
423.800	40.674	0.100
423.900	37.006	0.100
424.000	26.838	0.100
424.100	41.760	0.100
424.200	41.049	0.100
424.300	45.952	0.100
424.400	51.429	0.100
424.500	33.665	0.100
424.600	42.177	0.100
424.700	41.716	0.100
424.800	35.284	0.100
424.900	35.039	0.100
425.000	27.104	0.100
425.100	34.346	0.100
425.200	39.710	0.100
425.300	44.264	0.100
425.400	48.925	0.100
425.500	36.962	0.100
425.600	36.346	0.100
425.700	30.736	0.100
425.800	44.000	0.100
425.900	48.252	0.100
426.000	46.471	0.100
426.100	47.110	0.100
426.200	34.139	0.100
426.300	38.632	0.100
426.400	38.315	0.100
426.500	43.634	0.100
426.600	36.967	0.100
426.700	33.547	0.100
426.800	38.414	0.100
426.900	35.454	0.100
427.000	35.305	0.100
427.100	40.464	0.100
427.200	36.487	0.100
427.300	39.167	0.100
427.400	39.171	0.100
427.500	47.399	0.100
427.600	37.379	0.100
427.700	40.918	0.100
427.800	41.492	0.100
427.900	54.099	0.100
428.000	46.048	0.100
428.100	44.425	0.100
428.200	41.342	0.100
428.300	34.018	0.100
428.400	35.628	0.100
428.500	42.797	0.100
428.600	33.502	0.100
428.700	42.139	0.100
428.800	33.350	0.100
428.900	43.507	0.100
429.000	45.826	0.100
429.100	32.526	0.100
429.200	29.258	0.100
429.300	24.145	0.100
429.400	47.525	0.100
429.500	36.915	0.100
429.600	42.254	0.100
429.700	48.381	0.100
429.800	39.835	0.100
429.900	46.679	0.100
430.000	29.622	0.100
430.100	45.380	0.100
430.200	43.596	0.100
430.300	45.576	0.100
430.400	31.728	0.100
430.500	38.639	0.100
430.600	24.342	0.100
430.700	48.481	0.100
430.800	48.075	0.100
430.900	38.373	0.100
431.000	42.733	0.100
431.100	34.793	0.100
431.200	40.758	0.100
431.300	49.571	0.100
431.400	45.621	0.100
431.500	36.418	0.100
431.600	51.160	0.100
431.700	40.018	0.100
431.800	50.550	0.100
431.900	43.052	0.100
432.000	36.468	0.100
432.100	32.795	0.100
432.200	38.563	0.100
432.300	33.499	0.100
432.400	39.302	0.100
432.500	44.881	0.100
432.600	19.928	0.100
432.700	34.723	0.100
432.800	25.553	0.100
432.900	26.914	0.100
433.000	39.967	0.100
433.100	31.017	0.100
433.200	49.801	0.100
433.300	38.464	0.100
433.400	28.972	0.100
433.500	31.450	0.100
433.600	40.865	0.100
433.700	43.356	0.100
433.800	45.396	0.100
433.900	43.711	0.100
434.000	33.979	0.100
434.100	49.698	0.100
434.200	43.237	0.100
434.300	45.882	0.100
434.400	40.980	0.100
434.500	38.609	0.100
434.600	30.817	0.100
434.700	31.512	0.100
434.800	46.304	0.100
434.900	44.895	0.100
435.000	39.990	0.100
435.100	35.442	0.100
435.200	31.627	0.100
435.300	28.141	0.100
435.400	30.247	0.100
435.500	49.006	0.100
435.600	44.781	0.100
435.700	39.645	0.100
435.800	38.796	0.100
435.900	35.219	0.100
436.000	35.642	0.100
436.100	43.648	0.100
436.200	33.955	0.100
436.300	32.888	0.100
436.400	48.814	0.100
436.500	43.465	0.100
436.600	41.004	0.100
436.700	48.519	0.100
436.800	29.979	0.100
436.900	42.863	0.100
437.000	35.495	0.100
437.100	39.383	0.100
437.200	31.963	0.100
437.300	34.732	0.100
437.400	45.257	0.100
437.500	41.934	0.100
437.600	30.466	0.100
437.700	38.769	0.100
437.800	30.733	0.100
437.900	36.431	0.100
438.000	40.512	0.100
438.100	43.560	0.100
438.200	38.506	0.100
438.300	36.782	0.100
438.400	38.931	0.100
438.500	35.681	0.100
438.600	33.346	0.100
438.700	44.584	0.100
438.800	52.195	0.100
438.900	29.242	0.100
439.000	41.944	0.100
439.100	37.852	0.100
439.200	31.236	0.100
439.300	43.506	0.100
439.400	47.415	0.100
439.500	38.704	0.100
439.600	31.546	0.100
439.700	39.129	0.100
439.800	46.493	0.100
439.900	34.744	0.100
440.000	39.913	0.100
440.100	32.034	0.100
440.200	28.120	0.100
440.300	19.135	0.100
440.400	13.574	0.100
440.500	12.155	0.100
440.600	7.716	0.100
440.700	3.181	0.100
440.800	-5.563	0.100
440.900	-3.716	0.100
441.000	-9.693	0.100
441.100	-15.010	0.100
441.200	-19.285	0.100
441.300	-30.711	0.100
441.400	-29.311	0.100
441.500	-28.043	0.100
441.600	-34.729	0.100
441.700	-46.036	0.100
441.800	-31.639	0.100
441.900	-48.563	0.100
442.000	-51.465	0.100
442.100	-34.533	0.100
442.200	-58.524	0.100
442.300	-45.589	0.100
442.400	-51.779	0.100
442.500	-43.302	0.100
442.600	-53.364	0.100
442.700	-51.794	0.100
442.800	-56.914	0.100
442.900	-57.354	0.100
443.000	-63.772	0.100
443.100	-57.669	0.100
443.200	-90.146	0.100
443.300	-64.275	0.100
443.400	-85.403	0.100
443.500	-59.070	0.100
443.600	-47.982	0.100
443.700	-57.287	0.100
443.800	-57.756	0.100
443.900	-67.231	0.100
444.000	-73.414	0.100
444.100	-73.636	0.100
444.200	-64.080	0.100
444.300	-63.614	0.100
444.400	-64.079	0.100
444.500	-68.734	0.100
444.600	-57.246	0.100
444.700	-71.985	0.100
444.800	-78.936	0.100
444.900	-65.280	0.100
445.000	-66.759	0.100
445.100	-83.588	0.100
445.200	-71.152	0.100
445.300	-67.077	0.100
445.400	-62.783	0.100
445.500	-73.244	0.100
445.600	-71.440	0.100
445.700	-60.688	0.100
445.800	-68.752	0.100
445.900	-76.026	0.100
446.000	-75.577	0.100
446.100	-61.210	0.100
446.200	-59.684	0.100
446.300	-67.555	0.100
446.400	-72.560	0.100
446.500	-77.917	0.100
446.600	-54.069	0.100
446.700	-62.674	0.100
446.800	-60.115	0.100
446.900	-76.319	0.100
447.000	-75.881	0.100
447.100	-53.606	0.100
447.200	-59.476	0.100
447.300	-52.554	0.100
447.400	-63.958	0.100
447.500	-60.289	0.100
447.600	-63.136	0.100
447.700	-61.314	0.100
447.800	-64.032	0.100
447.900	-48.962	0.100
448.000	-81.022	0.100
448.100	-56.795	0.100
448.200	-61.496	0.100
448.300	-77.089	0.100
448.400	-65.829	0.100
448.500	-56.203	0.100
448.600	-56.078	0.100
448.700	-56.363	0.100
448.800	-64.179	0.100
448.900	-69.290	0.100
449.000	-48.381	0.100
449.100	-69.120	0.100
449.200	-70.383	0.100
449.300	-72.075	0.100
449.400	-62.065	0.100
449.500	-75.505	0.100
449.600	-60.251	0.100
449.700	-64.495	0.100
449.800	-57.011	0.100
449.900	-63.037	0.100
450.000	-67.591	0.100
450.100	-69.276	0.100
450.200	-53.717	0.100
450.300	-53.700	0.100
450.400	-39.015	0.100
450.500	-28.228	0.100
450.600	-19.509	0.100
450.700	-12.984	0.100
450.800	-6.601	0.100
450.900	-4.436	0.100
451.000	5.957	0.100
451.100	10.661	0.100
451.200	10.846	0.100
451.300	15.929	0.100
451.400	11.100	0.100
451.500	10.006	0.100
451.600	25.326	0.100
451.700	25.940	0.100
451.800	23.722	0.100
451.900	22.495	0.100
452.000	20.305	0.100
452.100	8.524	0.100
452.200	13.945	0.100
452.300	18.254	0.100
452.400	36.538	0.100
452.500	27.163	0.100
452.600	29.430	0.100
452.700	24.456	0.100
452.800	16.084	0.100
452.900	22.152	0.100
453.000	22.948	0.100
453.100	17.509	0.100
453.200	25.964	0.100
453.300	23.503	0.100
453.400	19.612	0.100
453.500	22.859	0.100
453.600	12.269	0.100
453.700	0.631	0.100
453.800	5.722	0.100
453.900	13.091	0.100
454.000	-3.274	0.100
454.100	12.596	0.100
454.200	26.149	0.100
454.300	12.951	0.100
454.400	15.824	0.100
454.500	-4.700	0.100
454.600	16.179	0.100
454.700	9.865	0.100
454.800	8.696	0.100
454.900	2.071	0.100
455.000	11.881	0.100
455.100	4.813	0.100
455.200	12.022	0.100
455.300	3.070	0.100
455.400	9.343	0.100
455.500	12.416	0.100
455.600	12.981	0.100
455.700	7.867	0.100
455.800	8.828	0.100
455.900	5.682	0.100
456.000	13.741	0.100
456.100	8.190	0.100
456.200	12.428	0.100
456.300	5.480	0.100
456.400	11.248	0.100
456.500	-1.093	0.100
456.600	9.103	0.100
456.700	11.147	0.100
456.800	14.502	0.100
456.900	11.692	0.100
457.000	14.830	0.100
457.100	18.985	0.100
457.200	14.811	0.100
457.300	8.081	0.100
457.400	6.019	0.100
457.500	12.618	0.100
457.600	22.154	0.100
457.700	31.485	0.100
457.800	22.586	0.100
457.900	22.274	0.100
458.000	13.698	0.100
458.100	21.488	0.100
458.200	26.634	0.100
458.300	21.859	0.100
458.400	19.830	0.100
458.500	13.917	0.100
458.600	27.656	0.100
458.700	27.279	0.100
458.800	26.670	0.100
458.900	21.242	0.100
459.000	21.704	0.100
459.100	20.971	0.100
459.200	21.889	0.100
459.300	23.924	0.100
459.400	40.552	0.100
459.500	20.092	0.100
459.600	27.830	0.100
459.700	21.806	0.100
459.800	29.741	0.100
459.900	38.425	0.100
460.000	36.805	0.100
460.100	27.464	0.100
460.200	33.522	0.100
460.300	22.220	0.100
460.400	26.095	0.100
460.500	35.146	0.100
460.600	31.838	0.100
460.700	20.185	0.100
460.800	33.028	0.100
460.900	34.041	0.100
461.000	36.117	0.100
461.100	33.775	0.100
461.200	41.897	0.100
461.300	33.871	0.100
461.400	35.514	0.100
461.500	29.719	0.100
461.600	22.366	0.100
461.700	30.359	0.100
461.800	40.398	0.100
461.900	55.915	0.100
462.000	32.960	0.100
462.100	35.549	0.100
462.200	28.651	0.100
462.300	30.867	0.100
462.400	24.783	0.100
462.500	31.614	0.100
462.600	25.901	0.100
462.700	29.502	0.100
462.800	39.727	0.100
462.900	39.075	0.100
463.000	39.277	0.100
463.100	29.269	0.100
463.200	27.587	0.100
463.300	32.538	0.100
463.400	53.306	0.100
463.500	37.968	0.100
463.600	29.227	0.100
463.700	36.675	0.100
463.800	37.415	0.100
463.900	42.437	0.100
464.000	47.868	0.100
464.100	36.356	0.100
464.200	32.017	0.100
464.300	31.481	0.100
464.400	35.575	0.100
464.500	44.232	0.100
464.600	46.661	0.100
464.700	49.736	0.100
464.800	38.434	0.100
464.900	32.684	0.100
465.000	35.556	0.100
465.100	34.051	0.100
465.200	39.691	0.100
465.300	41.401	0.100
465.400	40.045	0.100
465.500	42.043	0.100
465.600	43.444	0.100
465.700	42.409	0.100
465.800	43.311	0.100
465.900	39.211	0.100
466.000	50.818	0.100
466.100	45.628	0.100
466.200	31.170	0.100
466.300	28.387	0.100
466.400	47.850	0.100
466.500	40.673	0.100
466.600	36.922	0.100
466.700	38.853	0.100
466.800	35.415	0.100
466.900	51.016	0.100
467.000	44.609	0.100
467.100	42.180	0.100
467.200	37.551	0.100
467.300	31.865	0.100
467.400	31.497	0.100
467.500	29.081	0.100
467.600	43.813	0.100
467.700	45.620	0.100
467.800	40.272	0.100
467.900	45.590	0.100
468.000	33.950	0.100
468.100	42.407	0.100
468.200	50.440	0.100
468.300	47.747	0.100
468.400	42.283	0.100
468.500	49.847	0.100
468.600	43.175	0.100
468.700	42.026	0.100
468.800	40.071	0.100
468.900	42.787	0.100
469.000	48.121	0.100
469.100	41.489	0.100
469.200	54.159	0.100
469.300	32.249	0.100
469.400	38.318	0.100
469.500	30.862	0.100
469.600	29.256	0.100
469.700	48.221	0.100
469.800	44.335	0.100
469.900	44.991	0.100
470.000	37.450	0.100
470.100	36.740	0.100
470.200	41.277	0.100
470.300	53.264	0.100
470.400	41.220	0.100
470.500	42.785	0.100
470.600	36.239	0.100
470.700	41.267	0.100
470.800	40.569	0.100
470.900	40.125	0.100
471.000	47.350	0.100
471.100	37.257	0.100
471.200	43.497	0.100
471.300	47.615	0.100
471.400	39.583	0.100
471.500	35.352	0.100
471.600	41.847	0.100
471.700	61.562	0.100
471.800	38.064	0.100
471.900	30.561	0.100
472.000	40.459	0.100
472.100	33.005	0.100
472.200	42.331	0.100
472.300	46.510	0.100
472.400	50.426	0.100
472.500	28.536	0.100
472.600	29.053	0.100
472.700	32.235	0.100
472.800	44.694	0.100
472.900	53.039	0.100
473.000	45.197	0.100
473.100	34.755	0.100
473.200	30.887	0.100
473.300	46.012	0.100
473.400	43.231	0.100
473.500	47.140	0.100
473.600	41.843	0.100
473.700	39.909	0.100
473.800	48.584	0.100
473.900	30.785	0.100
474.000	43.243	0.100
474.100	41.572	0.100
474.200	38.784	0.100
474.300	37.539	0.100
474.400	37.357	0.100
474.500	45.960	0.100
474.600	24.561	0.100
474.700	38.070	0.100
474.800	45.039	0.100
474.900	45.335	0.100
475.000	40.438	0.100
475.100	40.974	0.100
475.200	28.019	0.100
475.300	27.548	0.100
475.400	35.279	0.100
475.500	45.399	0.100
475.600	53.997	0.100
475.700	39.076	0.100
475.800	39.239	0.100
475.900	33.712	0.100
476.000	40.671	0.100
476.100	47.771	0.100
476.200	43.254	0.100
476.300	31.813	0.100
476.400	38.692	0.100
476.500	32.799	0.100
476.600	48.963	0.100
476.700	38.502	0.100
476.800	43.060	0.100
476.900	38.067	0.100
477.000	39.587	0.100
477.100	41.451	0.100
477.200	36.363	0.100
477.300	38.357	0.100
477.400	43.878	0.100
477.500	35.814	0.100
477.600	41.419	0.100
477.700	32.533	0.100
477.800	50.989	0.100
477.900	43.058	0.100
478.000	44.152	0.100
478.100	37.692	0.100
478.200	45.081	0.100
478.300	47.486	0.100
478.400	34.634	0.100
478.500	38.835	0.100
478.600	32.999	0.100
478.700	37.097	0.100
478.800	31.806	0.100
478.900	26.609	0.100
479.000	40.382	0.100
479.100	36.544	0.100
479.200	37.267	0.100
479.300	47.519	0.100
479.400	44.726	0.100
479.500	37.536	0.100
479.600	45.640	0.100
479.700	27.482	0.100
479.800	34.594	0.100
479.900	51.088	0.100
480.000	37.108	0.100
480.100	38.758	0.100
480.200	48.616	0.100
480.300	48.951	0.100
480.400	46.984	0.100
480.500	51.319	0.100
480.600	32.814	0.100
480.700	26.079	0.100
480.800	34.003	0.100
480.900	37.468	0.100
481.000	37.564	0.100
481.100	48.495	0.100
481.200	44.487	0.100
481.300	36.682	0.100
481.400	36.119	0.100
481.500	36.106	0.100
481.600	33.163	0.100
481.700	39.289	0.100
481.800	33.044	0.100
481.900	41.024	0.100
482.000	39.771	0.100
482.100	40.703	0.100
482.200	52.573	0.100
482.300	32.844	0.100
482.400	38.508	0.100
482.500	39.509	0.100
482.600	41.091	0.100
482.700	35.468	0.100
482.800	21.755	0.100
482.900	47.708	0.100
483.000	45.552	0.100
483.100	35.316	0.100
483.200	39.231	0.100
483.300	53.396	0.100
483.400	42.236	0.100
483.500	45.422	0.100
483.600	45.835	0.100
483.700	43.228	0.100
483.800	30.394	0.100
483.900	36.651	0.100
484.000	39.070	0.100
484.100	34.263	0.100
484.200	38.268	0.100
484.300	25.629	0.100
484.400	36.567	0.100
484.500	43.886	0.100
484.600	52.364	0.100
484.700	44.882	0.100
484.800	47.070	0.100
484.900	47.613	0.100
485.000	38.296	0.100
485.100	41.010	0.100
485.200	40.354	0.100
485.300	38.399	0.100
485.400	37.288	0.100
485.500	32.037	0.100
485.600	28.746	0.100
485.700	40.196	0.100
485.800	46.738	0.100
485.900	32.540	0.100
486.000	37.410	0.100
486.100	45.158	0.100
486.200	41.258	0.100
486.300	34.379	0.100
486.400	33.175	0.100
486.500	43.184	0.100
486.600	44.179	0.100
486.700	48.981	0.100
486.800	36.983	0.100
486.900	30.383	0.100
487.000	22.284	0.100
487.100	32.555	0.100
487.200	48.356	0.100
487.300	54.363	0.100
487.400	38.617	0.100
487.500	36.149	0.100
487.600	41.181	0.100
487.700	38.799	0.100
487.800	45.928	0.100
487.900	32.207	0.100
488.000	41.365	0.100
488.100	40.425	0.100
488.200	42.657	0.100
488.300	39.959	0.100
488.400	46.129	0.100
488.500	32.276	0.100
488.600	32.402	0.100
488.700	34.808	0.100
488.800	35.140	0.100
488.900	38.716	0.100
489.000	48.049	0.100
489.100	44.528	0.100
489.200	45.824	0.100
489.300	31.488	0.100
489.400	60.659	0.100
489.500	35.964	0.100
489.600	24.013	0.100
489.700	45.406	0.100
489.800	33.589	0.100
489.900	26.041	0.100
490.000	35.233	0.100
490.100	59.288	0.100
490.200	41.601	0.100
490.300	45.783	0.100
490.400	49.041	0.100
490.500	44.892	0.100
490.600	36.570	0.100
490.700	34.819	0.100
490.800	38.803	0.100
490.900	47.659	0.100
491.000	36.732	0.100
491.100	29.799	0.100
491.200	29.419	0.100
491.300	35.191	0.100
491.400	48.961	0.100
491.500	45.683	0.100
491.600	34.188	0.100
491.700	43.905	0.100
491.800	37.044	0.100
491.900	41.346	0.100
492.000	37.875	0.100
492.100	39.706	0.100
492.200	39.050	0.100
492.300	36.112	0.100
492.400	36.840	0.100
492.500	44.026	0.100
492.600	48.249	0.100
492.700	43.103	0.100
492.800	52.758	0.100
492.900	39.066	0.100
493.000	38.191	0.100
493.100	40.905	0.100
493.200	38.383	0.100
493.300	41.273	0.100
493.400	37.817	0.100
493.500	46.359	0.100
493.600	41.603	0.100
493.700	49.035	0.100
493.800	42.583	0.100
493.900	39.000	0.100
494.000	42.794	0.100
494.100	33.718	0.100
494.200	38.014	0.100
494.300	34.655	0.100
494.400	35.241	0.100
494.500	37.054	0.100
494.600	29.833	0.100
494.700	44.251	0.100
494.800	37.742	0.100
494.900	25.299	0.100
495.000	35.118	0.100
495.100	38.182	0.100
495.200	54.106	0.100
495.300	55.986	0.100
495.400	51.379	0.100
495.500	43.794	0.100
495.600	47.923	0.100
495.700	50.754	0.100
495.800	44.368	0.100
495.900	37.211	0.100
496.000	36.956	0.100
496.100	32.224	0.100
496.200	42.980	0.100
496.300	35.682	0.100
496.400	41.866	0.100
496.500	37.331	0.100
496.600	35.724	0.100
496.700	39.513	0.100
496.800	37.623	0.100
496.900	40.139	0.100
497.000	49.840	0.100
497.100	44.695	0.100
497.200	36.046	0.100
497.300	29.045	0.100
497.400	25.200	0.100
497.500	29.071	0.100
497.600	48.678	0.100
497.700	44.950	0.100
497.800	39.444	0.100
497.900	43.814	0.100
498.000	39.602	0.100
498.100	46.527	0.100
498.200	41.973	0.100
498.300	38.308	0.100
498.400	42.924	0.100
498.500	37.403	0.100
498.600	24.295	0.100
498.700	35.244	0.100
498.800	49.033	0.100
498.900	33.568	0.100
499.000	37.077	0.100
499.100	35.078	0.100
499.200	35.292	0.100
499.300	30.830	0.100
499.400	45.579	0.100
499.500	43.364	0.100
499.600	41.518	0.100
499.700	37.062	0.100
499.800	27.066	0.100
499.900	46.766	0.100
500.000	36.780	0.100
500.100	36.315	0.100
500.200	34.282	0.100
500.300	37.966	0.100
500.400	25.641	0.100
500.500	39.595	0.100
500.600	33.658	0.100
500.700	36.846	0.100
500.800	48.112	0.100
500.900	45.933	0.100
501.000	47.236	0.100
501.100	43.688	0.100
501.200	36.031	0.100
501.300	24.318	0.100
501.400	36.616	0.100
501.500	46.059	0.100
501.600	31.430	0.100
501.700	32.725	0.100
501.800	33.850	0.100
501.900	44.235	0.100
502.000	39.699	0.100
502.100	38.695	0.100
502.200	33.910	0.100
502.300	44.890	0.100
502.400	50.150	0.100
502.500	46.496	0.100
502.600	39.752	0.100
502.700	38.429	0.100
502.800	37.905	0.100
502.900	31.255	0.100
503.000	26.524	0.100
503.100	41.546	0.100
503.200	34.707	0.100
503.300	42.291	0.100
503.400	33.669	0.100
503.500	46.122	0.100
503.600	41.434	0.100
503.700	39.782	0.100
503.800	38.727	0.100
503.900	26.227	0.100
504.000	31.023	0.100
504.100	44.720	0.100
504.200	38.490	0.100
504.300	35.350	0.100
504.400	37.359	0.100
504.500	41.859	0.100
504.600	43.443	0.100
504.700	21.702	0.100
504.800	43.839	0.100
504.900	45.389	0.100
505.000	42.993	0.100
505.100	35.709	0.100
505.200	39.929	0.100
505.300	41.257	0.100
505.400	30.510	0.100
505.500	37.314	0.100
505.600	46.699	0.100
505.700	45.862	0.100
505.800	20.369	0.100
505.900	37.241	0.100
506.000	38.445	0.100
506.100	30.720	0.100
506.200	39.971	0.100
506.300	38.649	0.100
506.400	33.223	0.100
506.500	37.054	0.100
506.600	37.257	0.100
506.700	41.869	0.100
506.800	37.186	0.100
506.900	41.177	0.100
507.000	40.061	0.100
507.100	51.107	0.100
507.200	50.008	0.100
507.300	41.582	0.100
507.400	42.047	0.100
507.500	18.396	0.100
507.600	41.253	0.100
507.700	39.954	0.100
507.800	42.800	0.100
507.900	33.174	0.100
508.000	34.667	0.100
508.100	35.457	0.100
508.200	40.191	0.100
508.300	30.999	0.100
508.400	33.147	0.100
508.500	33.679	0.100
508.600	35.419	0.100
508.700	42.192	0.100
508.800	37.894	0.100
508.900	28.299	0.100
509.000	35.098	0.100
509.100	45.339	0.100
509.200	39.250	0.100
509.300	34.420	0.100
509.400	43.509	0.100
509.500	35.439	0.100
509.600	42.259	0.100
509.700	31.413	0.100
509.800	28.165	0.100
509.900	29.288	0.100
510.000	28.683	0.100
510.100	43.090	0.100
510.200	36.869	0.100
510.300	32.940	0.100
510.400	13.224	0.100
510.500	19.894	0.100
510.600	3.739	0.100
510.700	2.081	0.100
510.800	3.309	0.100
510.900	-4.954	0.100
511.000	-18.541	0.100
511.100	-25.263	0.100
511.200	-13.119	0.100
511.300	-23.304	0.100
511.400	-28.682	0.100
511.500	-33.998	0.100
511.600	-30.348	0.100
511.700	-33.134	0.100
511.800	-36.865	0.100
511.900	-53.877	0.100
512.000	-54.360	0.100
512.100	-49.230	0.100
512.200	-53.612	0.100
512.300	-62.027	0.100
512.400	-59.199	0.100
512.500	-65.751	0.100
512.600	-58.456	0.100
512.700	-69.852	0.100
512.800	-59.696	0.100
512.900	-62.595	0.100
513.000	-71.403	0.100
513.100	-68.892	0.100
513.200	-61.139	0.100
513.300	-66.154	0.100
513.400	-68.073	0.100
513.500	-60.798	0.100
513.600	-66.486	0.100
513.700	-74.290	0.100
513.800	-80.401	0.100
513.900	-77.391	0.100
514.000	-59.838	0.100
514.100	-58.140	0.100
514.200	-72.771	0.100
514.300	-68.438	0.100
514.400	-79.126	0.100
514.500	-70.274	0.100
514.600	-72.037	0.100
514.700	-74.019	0.100
514.800	-74.699	0.100
514.900	-70.048	0.100
515.000	-75.490	0.100
515.100	-75.522	0.100
515.200	-74.040	0.100
515.300	-74.922	0.100
515.400	-72.102	0.100
515.500	-73.117	0.100
515.600	-72.931	0.100
515.700	-71.799	0.100
515.800	-74.058	0.100
515.900	-74.755	0.100
516.000	-68.776	0.100
516.100	-89.178	0.100
516.200	-69.064	0.100
516.300	-73.897	0.100
516.400	-69.741	0.100
516.500	-76.239	0.100
516.600	-80.369	0.100
516.700	-71.081	0.100
516.800	-77.856	0.100
516.900	-68.360	0.100
517.000	-70.196	0.100
517.100	-68.620	0.100
517.200	-59.679	0.100
517.300	-69.635	0.100
517.400	-57.129	0.100
517.500	-77.598	0.100
517.600	-76.878	0.100
517.700	-69.474	0.100
517.800	-57.410	0.100
517.900	-74.568	0.100
518.000	-76.924	0.100
518.100	-68.486	0.100
518.200	-64.922	0.100
518.300	-70.155	0.100
518.400	-66.356	0.100
518.500	-73.985	0.100
518.600	-75.708	0.100
518.700	-67.432	0.100
518.800	-77.486	0.100
518.900	-74.403	0.100
519.000	-56.381	0.100
519.100	-69.669	0.100
519.200	-69.539	0.100
519.300	-57.338	0.100
519.400	-61.642	0.100
519.500	-58.663	0.100
519.600	-60.143	0.100
519.700	-71.164	0.100
519.800	-66.854	0.100
519.900	-72.292	0.100
520.000	-72.806	0.100
520.100	-62.896	0.100
520.200	-61.059	0.100
520.300	-53.696	0.100
520.400	-48.228	0.100
520.500	-41.607	0.100
520.600	-32.145	0.100
520.700	-27.562	0.100
520.800	-8.079	0.100
520.900	-0.724	0.100
521.000	-10.372	0.100
521.100	-11.413	0.100
521.200	9.774	0.100
521.300	15.778	0.100
521.400	19.940	0.100
521.500	16.475	0.100
521.600	28.609	0.100
521.700	22.629	0.100
521.800	28.468	0.100
521.900	25.901	0.100
522.000	29.259	0.100
522.100	17.991	0.100
522.200	28.974	0.100
522.300	21.590	0.100
522.400	27.723	0.100
522.500	45.098	0.100
522.600	30.629	0.100
522.700	21.282	0.100
522.800	8.569	0.100
522.900	11.362	0.100
523.000	28.493	0.100
523.100	30.414	0.100
523.200	21.818	0.100
523.300	17.584	0.100
523.400	16.054	0.100
523.500	10.812	0.100
523.600	16.936	0.100
523.700	11.379	0.100
523.800	22.199	0.100
523.900	10.696	0.100
524.000	14.784	0.100
524.100	17.196	0.100
524.200	2.401	0.100
524.300	-1.234	0.100
524.400	7.658	0.100
524.500	5.585	0.100
524.600	7.893	0.100
524.700	-1.695	0.100
524.800	5.952	0.100
524.900	5.916	0.100
525.000	0.522	0.100
525.100	14.545	0.100
525.200	10.018	0.100
525.300	-0.951	0.100
525.400	10.128	0.100
525.500	0.190	0.100
525.600	17.741	0.100
525.700	3.258	0.100
525.800	8.397	0.100
525.900	13.473	0.100
526.000	9.544	0.100
526.100	4.502	0.100
526.200	8.445	0.100
526.300	5.472	0.100
526.400	11.259	0.100
526.500	22.276	0.100
526.600	4.684	0.100
526.700	22.857	0.100
526.800	13.977	0.100
526.900	16.392	0.100
527.000	5.812	0.100
527.100	18.059	0.100
527.200	23.992	0.100
527.300	5.500	0.100
527.400	7.105	0.100
527.500	18.513	0.100
527.600	14.894	0.100
527.700	17.300	0.100
527.800	11.698	0.100
527.900	17.775	0.100
528.000	24.751	0.100
528.100	17.873	0.100
528.200	35.951	0.100
528.300	20.094	0.100
528.400	19.147	0.100
528.500	13.982	0.100
528.600	25.644	0.100
528.700	15.798	0.100
528.800	16.983	0.100
528.900	22.136	0.100
529.000	23.247	0.100
529.100	29.423	0.100
529.200	19.950	0.100
529.300	20.686	0.100
529.400	20.417	0.100
529.500	35.399	0.100
529.600	24.968	0.100
529.700	21.723	0.100
529.800	32.725	0.100
529.900	24.273	0.100
530.000	27.595	0.100
530.100	40.260	0.100
530.200	37.146	0.100
530.300	30.091	0.100
530.400	29.622	0.100
530.500	29.048	0.100
530.600	23.157	0.100
530.700	29.179	0.100
530.800	31.154	0.100
530.900	24.017	0.100
531.000	30.834	0.100
531.100	17.856	0.100
531.200	25.811	0.100
531.300	26.369	0.100
531.400	27.755	0.100
531.500	38.363	0.100
531.600	29.969	0.100
531.700	36.252	0.100
531.800	40.493	0.100
531.900	37.522	0.100
532.000	34.590	0.100
532.100	42.719	0.100
532.200	29.109	0.100
532.300	27.610	0.100
532.400	37.151	0.100
532.500	45.571	0.100
532.600	41.685	0.100
532.700	39.379	0.100
532.800	28.088	0.100
532.900	36.773	0.100
533.000	41.355	0.100
533.100	34.253	0.100
533.200	28.140	0.100
533.300	33.327	0.100
533.400	39.149	0.100
533.500	23.669	0.100
533.600	37.163	0.100
533.700	44.561	0.100
533.800	46.053	0.100
533.900	21.715	0.100
534.000	31.553	0.100
534.100	37.134	0.100
534.200	36.579	0.100
534.300	37.515	0.100
534.400	42.892	0.100
534.500	22.578	0.100
534.600	43.994	0.100
534.700	38.740	0.100
534.800	41.906	0.100
534.900	35.822	0.100
535.000	28.498	0.100
535.100	38.633	0.100
535.200	32.005	0.100
535.300	45.504	0.100
535.400	47.341	0.100
535.500	36.773	0.100
535.600	41.759	0.100
535.700	47.990	0.100
535.800	41.614	0.100
535.900	30.843	0.100
536.000	26.957	0.100
536.100	51.456	0.100
536.200	40.316	0.100
536.300	37.273	0.100
536.400	35.755	0.100
536.500	30.245	0.100
536.600	46.112	0.100
536.700	46.217	0.100
536.800	43.131	0.100
536.900	30.718	0.100
537.000	32.317	0.100
537.100	46.541	0.100
537.200	50.069	0.100
537.300	46.785	0.100
537.400	43.421	0.100
537.500	33.207	0.100
537.600	39.393	0.100
537.700	36.244	0.100
537.800	43.445	0.100
537.900	38.111	0.100
538.000	52.498	0.100
538.100	42.521	0.100
538.200	42.360	0.100
538.300	36.249	0.100
538.400	44.666	0.100
538.500	43.801	0.100
538.600	32.290	0.100
538.700	45.720	0.100
538.800	46.926	0.100
538.900	34.556	0.100
539.000	27.773	0.100
539.100	35.408	0.100
539.200	27.766	0.100
539.300	40.994	0.100
539.400	32.720	0.100
539.500	44.430	0.100
539.600	52.349	0.100
539.700	43.015	0.100
539.800	31.410	0.100
539.900	32.874	0.100
540.000	46.262	0.100
540.100	23.535	0.100
540.200	40.210	0.100
540.300	32.671	0.100
540.400	30.008	0.100
540.500	48.878	0.100
540.600	42.740	0.100
540.700	40.095	0.100
540.800	26.382	0.100
540.900	40.162	0.100
541.000	51.627	0.100
541.100	34.873	0.100
541.200	28.400	0.100
541.300	37.403	0.100
541.400	40.802	0.100
541.500	49.195	0.100
541.600	43.190	0.100
541.700	37.253	0.100
541.800	32.835	0.100
541.900	40.742	0.100
542.000	26.679	0.100
542.100	38.568	0.100
542.200	39.124	0.100
542.300	28.133	0.100
542.400	39.194	0.100
542.500	45.312	0.100
542.600	47.124	0.100
542.700	35.409	0.100
542.800	34.810	0.100
542.900	46.882	0.100
543.000	47.337	0.100
543.100	45.443	0.100
543.200	33.371	0.100
543.300	29.884	0.100
543.400	33.515	0.100
543.500	51.029	0.100
543.600	41.164	0.100
543.700	43.779	0.100
543.800	29.196	0.100
543.900	36.169	0.100
544.000	38.270	0.100
544.100	41.155	0.100
544.200	32.832	0.100
544.300	36.600	0.100
544.400	39.824	0.100
544.500	41.884	0.100
544.600	39.270	0.100
544.700	35.096	0.100
544.800	36.307	0.100
544.900	49.163	0.100
545.000	48.142	0.100
545.100	39.787	0.100
545.200	32.760	0.100
545.300	37.720	0.100
545.400	38.868	0.100
545.500	33.004	0.100
545.600	43.580	0.100
545.700	26.095	0.100
545.800	39.396	0.100
545.900	30.642	0.100
546.000	42.181	0.100
546.100	50.485	0.100
546.200	42.809	0.100
546.300	38.725	0.100
546.400	32.159	0.100
546.500	32.983	0.100
546.600	31.800	0.100
546.700	42.989	0.100
546.800	31.773	0.100
546.900	47.482	0.100
547.000	37.231	0.100
547.100	40.264	0.100
547.200	54.237	0.100
547.300	38.448	0.100
547.400	45.256	0.100
547.500	46.955	0.100
547.600	24.024	0.100
547.700	37.574	0.100
547.800	31.794	0.100
547.900	28.300	0.100
548.000	38.238	0.100
548.100	42.128	0.100
548.200	32.566	0.100
548.300	19.741	0.100
548.400	42.985	0.100
548.500	43.375	0.100
548.600	29.909	0.100
548.700	45.661	0.100
548.800	42.054	0.100
548.900	35.501	0.100
549.000	40.313	0.100
549.100	37.805	0.100
549.200	33.986	0.100
549.300	34.616	0.100
549.400	31.273	0.100
549.500	43.461	0.100
549.600	42.644	0.100
549.700	38.916	0.100
549.800	34.736	0.100
549.900	35.794	0.100
550.000	35.935	0.100
550.100	32.674	0.100
550.200	36.304	0.100
550.300	36.429	0.100
550.400	40.266	0.100
550.500	44.972	0.100
550.600	36.228	0.100
550.700	45.771	0.100
550.800	42.966	0.100
550.900	38.264	0.100
551.000	33.199	0.100
551.100	35.023	0.100
551.200	28.920	0.100
551.300	40.701	0.100
551.400	34.730	0.100
551.500	33.974	0.100
551.600	31.732	0.100
551.700	30.704	0.100
551.800	34.201	0.100
551.900	45.080	0.100
552.000	42.620	0.100
552.100	38.146	0.100
552.200	48.443	0.100
552.300	48.781	0.100
552.400	34.388	0.100
552.500	50.111	0.100
552.600	37.122	0.100
552.700	38.019	0.100
552.800	35.909	0.100
552.900	47.046	0.100
553.000	42.656	0.100
553.100	38.286	0.100
553.200	37.349	0.100
553.300	38.428	0.100
553.400	33.552	0.100
553.500	46.419	0.100
553.600	34.140	0.100
553.700	33.434	0.100
553.800	40.711	0.100
553.900	28.770	0.100
554.000	42.903	0.100
554.100	39.124	0.100
554.200	35.276	0.100
554.300	30.500	0.100
554.400	40.275	0.100
554.500	26.897	0.100
554.600	21.752	0.100
554.700	39.381	0.100
554.800	52.110	0.100
554.900	48.257	0.100
555.000	41.453	0.100
555.100	46.625	0.100
555.200	47.053	0.100
555.300	36.625	0.100
555.400	29.684	0.100
555.500	28.235	0.100
555.600	35.448	0.100
555.700	32.320	0.100
555.800	26.392	0.100
555.900	40.603	0.100
556.000	45.523	0.100
556.100	53.954	0.100
556.200	47.577	0.100
556.300	41.035	0.100
556.400	35.760	0.100
556.500	31.002	0.100
556.600	27.905	0.100
556.700	32.044	0.100
556.800	39.538	0.100
556.900	38.157	0.100
557.000	39.279	0.100
557.100	41.625	0.100
557.200	34.276	0.100
557.300	35.531	0.100
557.400	38.510	0.100
557.500	43.548	0.100
557.600	38.059	0.100
557.700	22.335	0.100
557.800	37.529	0.100
557.900	28.522	0.100
558.000	32.786	0.100
558.100	29.197	0.100
558.200	34.012	0.100
558.300	28.440	0.100
558.400	28.181	0.100
558.500	35.346	0.100
558.600	43.420	0.100
558.700	40.057	0.100
558.800	46.003	0.100
558.900	36.281	0.100
559.000	31.051	0.100
559.100	39.869	0.100
559.200	35.549	0.100
559.300	26.937	0.100
559.400	52.020	0.100
559.500	32.413	0.100
559.600	43.934	0.100
559.700	43.275	0.100
559.800	37.443	0.100
559.900	33.805	0.100
560.000	37.913	0.100
560.100	46.288	0.100
560.200	40.649	0.100
560.300	37.291	0.100
560.400	49.978	0.100
560.500	42.301	0.100
560.600	35.124	0.100
560.700	34.201	0.100
560.800	23.454	0.100
560.900	22.653	0.100
561.000	32.140	0.100
561.100	33.414	0.100
561.200	37.739	0.100
561.300	25.220	0.100
561.400	29.216	0.100
561.500	47.142	0.100
561.600	32.296	0.100
561.700	43.016	0.100
561.800	36.158	0.100
561.900	37.697	0.100
562.000	31.029	0.100
562.100	42.128	0.100
562.200	34.047	0.100
562.300	39.584	0.100
562.400	39.609	0.100
562.500	39.786	0.100
562.600	21.678	0.100
562.700	32.668	0.100
562.800	26.925	0.100
562.900	38.360	0.100
563.000	42.859	0.100
563.100	41.693	0.100
563.200	39.005	0.100
563.300	37.695	0.100
563.400	18.134	0.100
563.500	38.934	0.100
563.600	42.622	0.100
563.700	42.407	0.100
563.800	33.925	0.100
563.900	34.189	0.100
564.000	33.502	0.100
564.100	39.611	0.100
564.200	34.291	0.100
564.300	50.966	0.100
564.400	44.172	0.100
564.500	36.047	0.100
564.600	29.707	0.100
564.700	32.211	0.100
564.800	28.570	0.100
564.900	30.566	0.100
565.000	39.006	0.100
565.100	36.185	0.100
565.200	35.970	0.100
565.300	44.424	0.100
565.400	42.113	0.100
565.500	38.169	0.100
565.600	19.655	0.100
565.700	25.026	0.100
565.800	31.318	0.100
565.900	41.481	0.100
566.000	50.499	0.100
566.100	38.633	0.100
566.200	40.632	0.100
566.300	30.199	0.100
566.400	31.882	0.100
566.500	46.109	0.100
566.600	35.685	0.100
566.700	32.531	0.100
566.800	41.007	0.100
566.900	28.254	0.100
567.000	51.753	0.100
567.100	36.142	0.100
567.200	30.241	0.100
567.300	45.350	0.100
567.400	34.984	0.100
567.500	33.166	0.100
567.600	35.840	0.100
567.700	38.283	0.100
567.800	39.964	0.100
567.900	33.142	0.100
568.000	35.368	0.100
568.100	44.994	0.100
568.200	37.635	0.100
568.300	42.967	0.100
568.400	40.369	0.100
568.500	43.028	0.100
568.600	34.171	0.100
568.700	34.284	0.100
568.800	44.319	0.100
568.900	27.563	0.100
569.000	37.535	0.100
569.100	43.502	0.100
569.200	26.456	0.100
569.300	47.930	0.100
569.400	35.418	0.100
569.500	40.407	0.100
569.600	44.263	0.100
569.700	32.412	0.100
569.800	41.938	0.100
569.900	38.421	0.100
570.000	32.811	0.100
570.100	34.021	0.100
570.200	42.194	0.100
570.300	36.173	0.100
570.400	31.978	0.100
570.500	36.438	0.100
570.600	28.760	0.100
570.700	22.101	0.100
570.800	31.269	0.100
570.900	40.536	0.100
571.000	32.634	0.100
571.100	34.730	0.100
571.200	43.996	0.100
571.300	33.343	0.100
571.400	37.773	0.100
571.500	42.502	0.100
571.600	33.867	0.100
571.700	29.085	0.100
571.800	39.465	0.100
571.900	36.727	0.100
572.000	47.106	0.100
572.100	38.612	0.100
572.200	39.047	0.100
572.300	30.399	0.100
572.400	35.503	0.100
572.500	28.552	0.100
572.600	35.316	0.100
572.700	31.138	0.100
572.800	32.189	0.100
572.900	46.671	0.100
573.000	33.188	0.100
573.100	34.530	0.100
573.200	30.302	0.100
573.300	39.540	0.100
573.400	39.842	0.100
573.500	37.860	0.100
573.600	32.631	0.100
573.700	38.810	0.100
573.800	34.581	0.100
573.900	35.991	0.100
574.000	28.900	0.100
574.100	29.622	0.100
574.200	50.816	0.100
574.300	39.510	0.100
574.400	20.182	0.100
574.500	34.831	0.100
574.600	33.945	0.100
574.700	32.645	0.100
574.800	34.941	0.100
574.900	35.878	0.100
575.000	26.644	0.100
575.100	37.750	0.100
575.200	38.364	0.100
575.300	38.521	0.100
575.400	37.838	0.100
575.500	33.957	0.100
575.600	46.252	0.100
575.700	29.607	0.100
575.800	35.738	0.100
575.900	37.615	0.100
576.000	43.342	0.100
576.100	36.943	0.100
576.200	35.879	0.100
576.300	31.042	0.100
576.400	39.849	0.100
576.500	30.049	0.100
576.600	40.288	0.100
576.700	30.590	0.100
576.800	34.103	0.100
576.900	24.765	0.100
577.000	31.636	0.100
577.100	47.156	0.100
577.200	44.497	0.100
577.300	46.196	0.100
577.400	27.063	0.100
577.500	31.558	0.100
577.600	37.490	0.100
577.700	35.670	0.100
577.800	30.596	0.100
577.900	23.740	0.100
578.000	32.992	0.100
578.100	51.116	0.100
578.200	29.165	0.100
578.300	39.786	0.100
578.400	31.135	0.100
578.500	38.421	0.100
578.600	36.607	0.100
578.700	39.675	0.100
578.800	37.472	0.100
578.900	25.586	0.100
579.000	26.439	0.100
579.100	48.529	0.100
579.200	50.409	0.100
579.300	29.477	0.100
579.400	32.036	0.100
579.500	38.128	0.100
579.600	29.809	0.100
579.700	31.340	0.100
579.800	39.556	0.100
579.900	25.161	0.100
580.000	30.688	0.100
580.100	36.410	0.100
580.200	24.643	0.100
580.300	30.372	0.100
580.400	22.888	0.100
580.500	13.570	0.100
580.600	7.553	0.100
580.700	5.619	0.100
580.800	-9.831	0.100
580.900	-7.178	0.100
581.000	-9.925	0.100
581.100	-17.700	0.100
581.200	-29.725	0.100
581.300	-41.551	0.100
581.400	-33.071	0.100
581.500	-25.164	0.100
581.600	-42.423	0.100
581.700	-46.885	0.100
581.800	-39.052	0.100
581.900	-56.443	0.100
582.000	-51.412	0.100
582.100	-54.483	0.100
582.200	-50.361	0.100
582.300	-58.774	0.100
582.400	-58.431	0.100
582.500	-64.959	0.100
582.600	-71.347	0.100
582.700	-74.025	0.100
582.800	-62.423	0.100
582.900	-66.584	0.100
583.000	-73.093	0.100
583.100	-80.952	0.100
583.200	-68.981	0.100
583.300	-85.407	0.100
583.400	-73.406	0.100
583.500	-65.705	0.100
583.600	-64.927	0.100
583.700	-71.576	0.100
583.800	-72.185	0.100
583.900	-82.917	0.100
584.000	-78.006	0.100
584.100	-76.211	0.100
584.200	-76.120	0.100
584.300	-70.036	0.100
584.400	-81.615	0.100
584.500	-75.488	0.100
584.600	-82.841	0.100
584.700	-82.885	0.100
584.800	-78.595	0.100
584.900	-72.139	0.100
585.000	-68.994	0.100
585.100	-74.442	0.100
585.200	-68.287	0.100
585.300	-69.838	0.100
585.400	-84.357	0.100
585.500	-82.795	0.100
585.600	-67.091	0.100
585.700	-80.630	0.100
585.800	-65.966	0.100
585.900	-78.904	0.100
586.000	-80.485	0.100
586.100	-76.428	0.100
586.200	-71.623	0.100
586.300	-75.173	0.100
586.400	-74.323	0.100
586.500	-71.116	0.100
586.600	-67.258	0.100
586.700	-78.947	0.100
586.800	-76.906	0.100
586.900	-80.909	0.100
587.000	-78.629	0.100
587.100	-71.024	0.100
587.200	-86.160	0.100
587.300	-69.133	0.100
587.400	-60.996	0.100
587.500	-68.857	0.100
587.600	-78.243	0.100
587.700	-73.098	0.100
587.800	-79.189	0.100
587.900	-73.905	0.100
588.000	-77.394	0.100
588.100	-73.457	0.100
588.200	-72.703	0.100
588.300	-67.173	0.100
588.400	-79.033	0.100
588.500	-69.431	0.100
588.600	-77.128	0.100
588.700	-69.193	0.100
588.800	-73.144	0.100
588.900	-73.672	0.100
589.000	-74.626	0.100
589.100	-80.067	0.100
589.200	-71.960	0.100
589.300	-76.148	0.100
589.400	-71.234	0.100
589.500	-81.558	0.100
589.600	-83.739	0.100
589.700	-74.244	0.100
589.800	-64.418	0.100
589.900	-75.243	0.100
590.000	-69.879	0.100
590.100	-71.437	0.100
590.200	-71.834	0.100
590.300	-75.019	0.100
590.400	-48.542	0.100
590.500	-33.783	0.100
590.600	-42.067	0.100
590.700	-19.728	0.100
590.800	-18.620	0.100
590.900	-13.797	0.100
591.000	-10.596	0.100
591.100	7.194	0.100
591.200	1.901	0.100
591.300	11.679	0.100
591.400	13.347	0.100
591.500	20.055	0.100
591.600	18.382	0.100
591.700	14.352	0.100
591.800	19.836	0.100
591.900	22.581	0.100
592.000	22.592	0.100
592.100	24.642	0.100
592.200	24.299	0.100
592.300	18.179	0.100
592.400	26.844	0.100
592.500	27.795	0.100
592.600	17.128	0.100
592.700	17.973	0.100
592.800	20.561	0.100
592.900	17.615	0.100
593.000	26.026	0.100
593.100	19.660	0.100
593.200	24.553	0.100
593.300	19.351	0.100
593.400	-0.873	0.100
593.500	8.692	0.100
593.600	18.243	0.100
593.700	25.147	0.100
593.800	-2.703	0.100
593.900	9.021	0.100
594.000	24.197	0.100
594.100	17.453	0.100
594.200	16.930	0.100
594.300	11.999	0.100
594.400	7.719	0.100
594.500	7.134	0.100
594.600	17.708	0.100
594.700	16.031	0.100
594.800	2.728	0.100
594.900	-0.332	0.100
595.000	6.376	0.100
595.100	-0.605	0.100
595.200	2.297	0.100
595.300	13.818	0.100
595.400	16.600	0.100
595.500	6.530	0.100
595.600	-1.878	0.100
595.700	5.517	0.100
595.800	11.672	0.100
595.900	5.304	0.100
596.000	17.226	0.100
596.100	-5.494	0.100
596.200	6.304	0.100
596.300	9.972	0.100
596.400	9.453	0.100
596.500	12.037	0.100
596.600	7.381	0.100
596.700	-5.069	0.100
596.800	16.882	0.100
596.900	22.286	0.100
597.000	5.842	0.100
597.100	13.646	0.100
597.200	24.205	0.100
597.300	10.962	0.100
597.400	15.849	0.100
597.500	18.436	0.100
597.600	13.466	0.100
597.700	23.622	0.100
597.800	23.083	0.100
597.900	12.433	0.100
598.000	10.352	0.100
598.100	23.967	0.100
598.200	26.436	0.100
598.300	23.197	0.100
598.400	20.588	0.100
598.500	19.494	0.100
598.600	14.815	0.100
598.700	30.828	0.100
598.800	17.029	0.100
598.900	29.622	0.100
599.000	17.237	0.100
599.100	17.312	0.100
599.200	9.540	0.100
599.300	36.288	0.100
599.400	32.247	0.100
599.500	19.228	0.100
599.600	28.511	0.100
599.700	26.091	0.100
599.800	20.120	0.100
599.900	30.937	0.100
600.000	40.677	0.100
