time /s	I /nA	E /V
0.100	-58.179	0.100
0.200	-59.594	0.100
0.300	-65.455	0.100
0.400	-54.444	0.100
0.500	-58.522	0.100
0.600	-55.985	0.100
0.700	-61.809	0.100
0.800	-58.045	0.100
0.900	-66.737	0.100
1.000	-48.877	0.100
1.100	-48.555	0.100
1.200	-59.000	0.100
1.300	-41.715	0.100
1.400	-59.567	0.100
1.500	-57.960	0.100
1.600	-60.194	0.100
1.700	-51.311	0.100
1.800	-43.393	0.100
1.900	-52.330	0.100
2.000	-55.848	0.100
2.100	-52.348	0.100
2.200	-54.868	0.100
2.300	-49.003	0.100
2.400	-50.423	0.100
2.500	-53.838	0.100
2.600	-65.796	0.100
2.700	-49.216	0.100
2.800	-60.256	0.100
2.900	-54.003	0.100
3.000	-49.672	0.100
3.100	-52.634	0.100
3.200	-60.332	0.100
3.300	-57.706	0.100
3.400	-61.271	0.100
3.500	-50.481	0.100
3.600	-40.058	0.100
3.700	-66.602	0.100
3.800	-51.204	0.100
3.900	-53.214	0.100
4.000	-48.294	0.100
4.100	-56.869	0.100
4.200	-57.128	0.100
4.300	-60.068	0.100
4.400	-73.868	0.100
4.500	-63.578	0.100
4.600	-45.800	0.100
4.700	-57.105	0.100
4.800	-56.097	0.100
4.900	-53.286	0.100
5.000	-55.454	0.100
5.100	-45.980	0.100
5.200	-58.481	0.100
5.300	-57.979	0.100
5.400	-46.543	0.100
5.500	-41.919	0.100
5.600	-47.088	0.100
5.700	-51.978	0.100
5.800	-59.747	0.100
5.900	-55.299	0.100
6.000	-62.953	0.100
6.100	-56.497	0.100
6.200	-54.048	0.100
6.300	-60.018	0.100
6.400	-52.829	0.100
6.500	-49.476	0.100
6.600	-56.946	0.100
6.700	-56.886	0.100
6.800	-57.404	0.100
6.900	-48.190	0.100
7.000	-60.052	0.100
7.100	-53.143	0.100
7.200	-50.177	0.100
7.300	-49.447	0.100
7.400	-50.625	0.100
7.500	-68.893	0.100
7.600	-61.330	0.100
7.700	-42.815	0.100
7.800	-47.857	0.100
7.900	-66.752	0.100
8.000	-51.056	0.100
8.100	-48.193	0.100
8.200	-52.322	0.100
8.300	-47.579	0.100
8.400	-65.094	0.100
8.500	-66.289	0.100
8.600	-51.644	0.100
8.700	-62.363	0.100
8.800	-56.453	0.100
8.900	-60.805	0.100
9.000	-48.369	0.100
9.100	-54.537	0.100
9.200	-61.441	0.100
9.300	-41.601	0.100
9.400	-56.019	0.100
9.500	-50.751	0.100
9.600	-46.050	0.100
9.700	-51.033	0.100
9.800	-66.651	0.100
9.900	-62.526	0.100
10.000	-47.347	0.100
10.100	-56.243	0.100
10.200	-47.271	0.100
10.300	-63.408	0.100
10.400	-44.554	0.100
10.500	-49.165	0.100
10.600	-48.152	0.100
10.700	-45.458	0.100
10.800	-56.032	0.100
10.900	-60.169	0.100
11.000	-53.430	0.100
11.100	-67.169	0.100
11.200	-55.845	0.100
11.300	-46.594	0.100
11.400	-43.716	0.100
11.500	-65.863	0.100
11.600	-45.509	0.100
11.700	-55.608	0.100
11.800	-61.858	0.100
11.900	-57.609	0.100
12.000	-43.000	0.100
12.100	-66.642	0.100
12.200	-58.298	0.100
12.300	-48.143	0.100
12.400	-52.679	0.100
12.500	-47.498	0.100
12.600	-51.491	0.100
12.700	-63.706	0.100
12.800	-57.396	0.100
12.900	-47.343	0.100
13.000	-43.482	0.100
13.100	-62.822	0.100
13.200	-57.305	0.100
13.300	-53.905	0.100
13.400	-58.329	0.100
13.500	-49.038	0.100
13.600	-57.175	0.100
13.700	-52.807	0.100
13.800	-53.180	0.100
13.900	-65.562	0.100
14.000	-46.631	0.100
14.100	-45.873	0.100
14.200	-55.138	0.100
14.300	-53.221	0.100
14.400	-58.843	0.100
14.500	-62.579	0.100
14.600	-58.486	0.100
14.700	-49.326	0.100
14.800	-53.257	0.100
14.900	-59.068	0.100
15.000	-56.380	0.100
15.100	-48.036	0.100
15.200	-60.611	0.100
15.300	-50.504	0.100
15.400	-62.022	0.100
15.500	-63.767	0.100
15.600	-45.236	0.100
15.700	-66.144	0.100
15.800	-47.327	0.100
15.900	-59.321	0.100
16.000	-54.006	0.100
16.100	-45.441	0.100
16.200	-40.220	0.100
16.300	-52.260	0.100
16.400	-54.741	0.100
16.500	-61.719	0.100
16.600	-51.324	0.100
16.700	-57.343	0.100
16.800	-53.280	0.100
16.900	-48.491	0.100
17.000	-41.556	0.100
17.100	-46.254	0.100
17.200	-54.365	0.100
17.300	-47.405	0.100
17.400	-52.027	0.100
17.500	-62.258	0.100
17.600	-56.128	0.100
17.700	-59.725	0.100
17.800	-47.067	0.100
17.900	-53.623	0.100
18.000	-57.502	0.100
18.100	-56.443	0.100
18.200	-55.819	0.100
18.300	-49.300	0.100
18.400	-53.839	0.100
18.500	-46.203	0.100
18.600	-65.080	0.100
18.700	-50.019	0.100
18.800	-46.400	0.100
18.900	-58.229	0.100
19.000	-43.615	0.100
19.100	-48.281	0.100
19.200	-50.044	0.100
19.300	-64.463	0.100
19.400	-54.889	0.100
19.500	-42.102	0.100
19.600	-59.484	0.100
19.700	-60.463	0.100
19.800	-53.473	0.100
19.900	-51.184	0.100
20.000	-49.944	0.100
20.100	-56.261	0.100
20.200	-43.056	0.100
20.300	-58.059	0.100
20.400	-57.043	0.100
20.500	-50.729	0.100
20.600	-53.219	0.100
20.700	-52.689	0.100
20.800	-57.095	0.100
20.900	-58.742	0.100
21.000	-64.566	0.100
21.100	-58.260	0.100
21.200	-47.336	0.100
21.300	-51.023	0.100
21.400	-46.896	0.100
21.500	-53.198	0.100
21.600	-49.771	0.100
21.700	-56.028	0.100
21.800	-40.353	0.100
21.900	-59.641	0.100
22.000	-60.391	0.100
22.100	-55.659	0.100
22.200	-52.785	0.100
22.300	-61.331	0.100
22.400	-60.958	0.100
22.500	-51.540	0.100
22.600	-41.864	0.100
22.700	-55.415	0.100
22.800	-54.712	0.100
22.900	-68.035	0.100
23.000	-39.886	0.100
23.100	-57.171	0.100
23.200	-48.330	0.100
23.300	-58.421	0.100
23.400	-48.132	0.100
23.500	-50.998	0.100
23.600	-47.795	0.100
23.700	-53.069	0.100
23.800	-67.935	0.100
23.900	-58.350	0.100
24.000	-45.598	0.100
24.100	-56.004	0.100
24.200	-51.918	0.100
24.300	-64.105	0.100
24.400	-58.455	0.100
24.500	-50.484	0.100
24.600	-43.022	0.100
24.700	-46.755	0.100
24.800	-56.873	0.100
24.900	-44.056	0.100
25.000	-48.711	0.100
25.100	-46.198	0.100
25.200	-50.436	0.100
25.300	-56.269	0.100
25.400	-41.743	0.100
25.500	-43.809	0.100
25.600	-55.855	0.100
25.700	-67.353	0.100
25.800	-55.048	0.100
25.900	-55.840	0.100
26.000	-64.926	0.100
26.100	-50.955	0.100
26.200	-42.885	0.100
26.300	-58.380	0.100
26.400	-54.972	0.100
26.500	-48.672	0.100
26.600	-45.686	0.100
26.700	-55.930	0.100
26.800	-44.596	0.100
26.900	-66.493	0.100
27.000	-60.537	0.100
27.100	-71.088	0.100
27.200	-55.636	0.100
27.300	-51.883	0.100
27.400	-48.355	0.100
27.500	-46.917	0.100
27.600	-49.188	0.100
27.700	-50.112	0.100
27.800	-47.759	0.100
27.900	-52.007	0.100
28.000	-55.967	0.100
28.100	-42.068	0.100
28.200	-56.396	0.100
28.300	-53.558	0.100
28.400	-64.770	0.100
28.500	-48.137	0.100
28.600	-55.784	0.100
28.700	-31.633	0.100
28.800	-49.408	0.100
28.900	-43.460	0.100
29.000	-58.157	0.100
29.100	-53.727	0.100
29.200	-53.456	0.100
29.300	-55.781	0.100
29.400	-47.286	0.100
29.500	-45.257	0.100
29.600	-50.616	0.100
29.700	-57.175	0.100
29.800	-61.563	0.100
29.900	-66.839	0.100
30.000	-49.885	0.100
30.100	-51.979	0.100
30.200	-33.453	0.100
30.300	-45.259	0.100
30.400	-27.018	0.100
30.500	-18.529	0.100
30.600	-22.853	0.100
30.700	-8.798	0.100
30.800	-12.732	0.100
30.900	7.027	0.100
31.000	19.189	0.100
31.100	16.764	0.100
31.200	7.805	0.100
31.300	7.447	0.100
31.400	9.402	0.100
31.500	16.007	0.100
31.600	10.231	0.100
31.700	-1.801	0.100
31.800	21.814	0.100
31.900	26.241	0.100
32.000	-2.488	0.100
32.100	3.268	0.100
32.200	10.442	0.100
32.300	6.382	0.100
32.400	-3.488	0.100
32.500	-9.517	0.100
32.600	1.777	0.100
32.700	5.450	0.100
32.800	3.006	0.100
32.900	-11.099	0.100
33.000	-4.648	0.100
33.100	-4.198	0.100
33.200	-13.002	0.100
33.300	12.941	0.100
33.400	10.475	0.100
33.500	2.828	0.100
33.600	-9.919	0.100
33.700	-17.429	0.100
33.800	-2.877	0.100
33.900	-15.598	0.100
34.000	1.574	0.100
34.100	-3.544	0.100
34.200	2.335	0.100
34.300	3.486	0.100
34.400	-19.628	0.100
34.500	-4.357	0.100
34.600	-9.387	0.100
34.700	-2.993	0.100
34.800	-12.364	0.100
34.900	-5.815	0.100
35.000	-9.998	0.100
35.100	-2.644	0.100
35.200	-9.503	0.100
35.300	6.382	0.100
35.400	-1.645	0.100
35.500	2.868	0.100
35.600	-6.689	0.100
35.700	-16.635	0.100
35.800	-17.982	0.100
35.900	-17.410	0.100
36.000	-15.064	0.100
36.100	-10.795	0.100
36.200	-5.210	0.100
36.300	-12.621	0.100
36.400	-10.646	0.100
36.500	-3.457	0.100
36.600	-4.147	0.100
36.700	-6.717	0.100
36.800	-13.883	0.100
36.900	-19.559	0.100
37.000	-8.117	0.100
37.100	5.510	0.100
37.200	-5.673	0.100
37.300	0.236	0.100
37.400	-4.778	0.100
37.500	-3.199	0.100
37.600	6.473	0.100
37.700	5.650	0.100
37.800	-1.734	0.100
37.900	-9.094	0.100
38.000	-8.962	0.100
38.100	3.399	0.100
38.200	-5.457	0.100
38.300	-0.979	0.100
38.400	16.641	0.100
38.500	5.917	0.100
38.600	2.706	0.100
38.700	-5.840	0.100
38.800	1.535	0.100
38.900	-2.042	0.100
39.000	8.028	0.100
39.100	4.283	0.100
39.200	8.486	0.100
39.300	13.631	0.100
39.400	-6.006	0.100
39.500	5.300	0.100
39.600	6.025	0.100
39.700	8.947	0.100
39.800	6.983	0.100
39.900	-2.521	0.100
40.000	5.018	0.100
40.100	14.303	0.100
40.200	14.473	0.100
40.300	20.421	0.100
40.400	18.351	0.100
40.500	11.868	0.100
40.600	3.072	0.100
40.700	2.292	0.100
40.800	5.696	0.100
40.900	18.308	0.100
41.000	10.028	0.100
41.100	10.511	0.100
41.200	26.480	0.100
41.300	19.858	0.100
41.400	1.372	0.100
41.500	21.659	0.100
41.600	12.317	0.100
41.700	4.046	0.100
41.800	14.737	0.100
41.900	26.347	0.100
42.000	19.972	0.100
42.100	15.905	0.100
42.200	24.454	0.100
42.300	26.663	0.100
42.400	13.762	0.100
42.500	19.016	0.100
42.600	6.746	0.100
42.700	26.699	0.100
42.800	13.965	0.100
42.900	19.165	0.100
43.000	36.590	0.100
43.100	17.521	0.100
43.200	10.067	0.100
43.300	17.084	0.100
43.400	25.662	0.100
43.500	32.916	0.100
43.600	33.301	0.100
43.700	33.442	0.100
43.800	17.385	0.100
43.900	34.429	0.100
44.000	26.361	0.100
44.100	25.205	0.100
44.200	26.351	0.100
44.300	27.448	0.100
44.400	33.511	0.100
44.500	31.722	0.100
44.600	40.746	0.100
44.700	28.650	0.100
44.800	26.234	0.100
44.900	32.047	0.100
45.000	34.714	0.100
45.100	41.207	0.100
45.200	34.753	0.100
45.300	38.319	0.100
45.400	31.249	0.100
45.500	50.484	0.100
45.600	42.293	0.100
45.700	32.232	0.100
45.800	33.959	0.100
45.900	40.442	0.100
46.000	27.849	0.100
46.100	29.245	0.100
46.200	40.641	0.100
46.300	44.098	0.100
46.400	38.405	0.100
46.500	34.761	0.100
46.600	59.337	0.100
46.700	36.775	0.100
46.800	40.891	0.100
46.900	41.737	0.100
47.000	41.276	0.100
47.100	39.386	0.100
47.200	50.131	0.100
47.300	54.132	0.100
47.400	46.992	0.100
47.500	46.751	0.100
47.600	41.344	0.100
47.700	41.954	0.100
47.800	37.627	0.100
47.900	45.660	0.100
48.000	43.947	0.100
48.100	49.546	0.100
48.200	51.239	0.100
48.300	53.514	0.100
48.400	46.365	0.100
48.500	48.412	0.100
48.600	46.518	0.100
48.700	43.549	0.100
48.800	46.126	0.100
48.900	52.067	0.100
49.000	52.354	0.100
49.100	51.259	0.100
49.200	54.930	0.100
49.300	60.726	0.100
49.400	47.574	0.100
49.500	52.534	0.100
49.600	58.652	0.100
49.700	45.601	0.100
49.800	57.906	0.100
49.900	46.107	0.100
50.000	52.997	0.100
50.100	51.548	0.100
50.200	57.422	0.100
50.300	56.196	0.100
50.400	62.571	0.100
50.500	48.708	0.100
50.600	46.649	0.100
50.700	58.573	0.100
50.800	59.258	0.100
50.900	57.761	0.100
51.000	71.315	0.100
51.100	57.751	0.100
51.200	46.532	0.100
51.300	66.781	0.100
51.400	51.296	0.100
51.500	51.008	0.100
51.600	63.726	0.100
51.700	63.657	0.100
51.800	61.543	0.100
51.900	54.683	0.100
52.000	54.762	0.100
52.100	52.065	0.100
52.200	66.178	0.100
52.300	69.892	0.100
52.400	63.614	0.100
52.500	37.701	0.100
52.600	59.015	0.100
52.700	61.309	0.100
52.800	47.219	0.100
52.900	55.991	0.100
53.000	59.240	0.100
53.100	45.295	0.100
53.200	46.928	0.100
53.300	49.801	0.100
53.400	58.313	0.100
53.500	57.901	0.100
53.600	57.593	0.100
53.700	64.136	0.100
53.800	54.869	0.100
53.900	58.051	0.100
54.000	43.684	0.100
54.100	50.443	0.100
54.200	59.466	0.100
54.300	56.164	0.100
54.400	53.767	0.100
54.500	63.112	0.100
54.600	55.316	0.100
54.700	58.334	0.100
54.800	54.863	0.100
54.900	46.286	0.100
55.000	49.098	0.100
55.100	49.468	0.100
55.200	60.871	0.100
55.300	53.744	0.100
55.400	63.253	0.100
55.500	43.752	0.100
55.600	42.793	0.100
55.700	55.106	0.100
55.800	54.461	0.100
55.900	58.278	0.100
56.000	48.669	0.100
56.100	43.280	0.100
56.200	61.251	0.100
56.300	58.640	0.100
56.400	44.733	0.100
56.500	60.133	0.100
56.600	69.076	0.100
56.700	58.840	0.100
56.800	43.001	0.100
56.900	53.102	0.100
57.000	51.520	0.100
57.100	51.446	0.100
57.200	69.400	0.100
57.300	55.684	0.100
57.400	52.887	0.100
57.500	49.006	0.100
57.600	57.916	0.100
57.700	53.611	0.100
57.800	52.187	0.100
57.900	55.581	0.100
58.000	53.779	0.100
58.100	39.289	0.100
58.200	55.737	0.100
58.300	47.441	0.100
58.400	53.829	0.100
58.500	48.872	0.100
58.600	53.372	0.100
58.700	48.528	0.100
58.800	55.514	0.100
58.900	43.609	0.100
59.000	52.485	0.100
59.100	55.565	0.100
59.200	54.766	0.100
59.300	61.887	0.100
59.400	52.517	0.100
59.500	61.186	0.100
59.600	53.450	0.100
59.700	57.460	0.100
59.800	44.459	0.100
59.900	35.572	0.100
60.000	56.010	0.100
60.100	50.728	0.100
60.200	56.491	0.100
60.300	47.825	0.100
60.400	44.185	0.100
60.500	44.767	0.100
60.600	44.257	0.100
60.700	48.027	0.100
60.800	54.913	0.100
60.900	47.239	0.100
61.000	53.470	0.100
61.100	61.282	0.100
61.200	64.258	0.100
61.300	63.614	0.100
61.400	57.825	0.100
61.500	56.288	0.100
61.600	61.245	0.100
61.700	43.050	0.100
61.800	45.981	0.100
61.900	48.129	0.100
62.000	51.200	0.100
62.100	53.193	0.100
62.200	56.184	0.100
62.300	51.648	0.100
62.400	47.862	0.100
62.500	53.904	0.100
62.600	42.975	0.100
62.700	37.923	0.100
62.800	48.931	0.100
62.900	52.915	0.100
63.000	48.051	0.100
63.100	48.332	0.100
63.200	47.239	0.100
63.300	54.913	0.100
63.400	51.101	0.100
63.500	48.857	0.100
63.600	49.967	0.100
63.700	39.822	0.100
63.800	34.587	0.100
63.900	45.132	0.100
64.000	70.579	0.100
64.100	53.668	0.100
64.200	46.957	0.100
64.300	45.442	0.100
64.400	50.225	0.100
64.500	54.140	0.100
64.600	51.960	0.100
64.700	53.374	0.100
64.800	55.843	0.100
64.900	44.027	0.100
65.000	60.016	0.100
65.100	46.376	0.100
65.200	36.942	0.100
65.300	39.481	0.100
65.400	54.456	0.100
65.500	46.090	0.100
65.600	48.065	0.100
65.700	46.188	0.100
65.800	48.547	0.100
65.900	54.479	0.100
66.000	50.250	0.100
66.100	44.409	0.100
66.200	42.175	0.100
66.300	34.428	0.100
66.400	47.241	0.100
66.500	54.831	0.100
66.600	51.845	0.100
66.700	41.721	0.100
66.800	52.966	0.100
66.900	43.239	0.100
67.000	51.163	0.100
67.100	49.370	0.100
67.200	53.034	0.100
67.300	43.408	0.100
67.400	44.859	0.100
67.500	42.664	0.100
67.600	38.616	0.100
67.700	51.283	0.100
67.800	49.280	0.100
67.900	48.360	0.100
68.000	42.340	0.100
68.100	41.206	0.100
68.200	55.381	0.100
68.300	56.244	0.100
68.400	43.520	0.100
68.500	51.298	0.100
68.600	43.081	0.100
68.700	44.324	0.100
68.800	44.827	0.100
68.900	56.581	0.100
69.000	41.606	0.100
69.100	47.479	0.100
69.200	36.663	0.100
69.300	45.483	0.100
69.400	53.042	0.100
69.500	48.185	0.100
69.600	44.434	0.100
69.700	34.627	0.100
69.800	44.730	0.100
69.900	45.200	0.100
70.000	42.066	0.100
70.100	42.662	0.100
70.200	55.063	0.100
70.300	48.715	0.100
70.400	49.273	0.100
70.500	44.040	0.100
70.600	47.778	0.100
70.700	49.422	0.100
70.800	47.456	0.100
70.900	44.132	0.100
71.000	47.546	0.100
71.100	40.059	0.100
71.200	48.442	0.100
71.300	42.246	0.100
71.400	35.597	0.100
71.500	39.185	0.100
71.600	47.728	0.100
71.700	42.729	0.100
71.800	53.573	0.100
71.900	35.587	0.100
72.000	29.623	0.100
72.100	45.053	0.100
72.200	47.618	0.100
72.300	32.897	0.100
72.400	47.494	0.100
72.500	50.715	0.100
72.600	58.813	0.100
72.700	46.928	0.100
72.800	46.024	0.100
72.900	40.115	0.100
73.000	42.763	0.100
73.100	41.130	0.100
73.200	37.759	0.100
73.300	36.071	0.100
73.400	44.110	0.100
73.500	36.887	0.100
73.600	58.224	0.100
73.700	46.308	0.100
73.800	36.926	0.100
73.900	46.520	0.100
74.000	48.257	0.100
74.100	48.243	0.100
74.200	46.751	0.100
74.300	40.407	0.100
74.400	46.015	0.100
74.500	31.250	0.100
74.600	39.897	0.100
74.700	41.649	0.100
74.800	43.716	0.100
74.900	42.917	0.100
75.000	40.275	0.100
75.100	48.867	0.100
75.200	58.139	0.100
75.300	41.503	0.100
75.400	41.024	0.100
75.500	42.995	0.100
75.600	39.480	0.100
75.700	48.247	0.100
75.800	43.541	0.100
75.900	47.393	0.100
76.000	52.061	0.100
76.100	47.297	0.100
76.200	34.252	0.100
76.300	34.404	0.100
76.400	46.313	0.100
76.500	46.937	0.100
76.600	38.522	0.100
76.700	30.351	0.100
76.800	40.288	0.100
76.900	47.220	0.100
77.000	50.602	0.100
77.100	41.760	0.100
77.200	50.931	0.100
77.300	45.214	0.100
77.400	44.086	0.100
77.500	44.050	0.100
77.600	34.828	0.100
77.700	41.051	0.100
77.800	41.368	0.100
77.900	46.797	0.100
78.000	53.433	0.100
78.100	44.246	0.100
78.200	28.924	0.100
78.300	33.477	0.100
78.400	29.998	0.100
78.500	53.189	0.100
78.600	50.909	0.100
78.700	45.247	0.100
78.800	46.301	0.100
78.900	42.563	0.100
79.000	32.176	0.100
79.100	30.863	0.100
79.200	41.242	0.100
79.300	37.360	0.100
79.400	45.657	0.100
79.500	42.981	0.100
79.600	43.175	0.100
79.700	35.618	0.100
79.800	32.965	0.100
79.900	28.915	0.100
80.000	40.236	0.100
80.100	49.190	0.100
80.200	45.589	0.100
80.300	40.757	0.100
80.400	55.245	0.100
80.500	41.472	0.100
80.600	52.835	0.100
80.700	44.707	0.100
80.800	48.059	0.100
80.900	50.075	0.100
81.000	33.372	0.100
81.100	35.717	0.100
81.200	39.448	0.100
81.300	49.021	0.100
81.400	42.453	0.100
81.500	36.296	0.100
81.600	43.971	0.100
81.700	37.911	0.100
81.800	45.069	0.100
81.900	36.478	0.100
82.000	38.885	0.100
82.100	46.693	0.100
82.200	31.589	0.100
82.300	49.634	0.100
82.400	46.384	0.100
82.500	43.873	0.100
82.600	36.410	0.100
82.700	33.208	0.100
82.800	38.096	0.100
82.900	43.074	0.100
83.000	40.787	0.100
83.100	30.688	0.100
83.200	41.420	0.100
83.300	34.782	0.100
83.400	52.618	0.100
83.500	40.273	0.100
83.600	44.246	0.100
83.700	44.240	0.100
83.800	39.932	0.100
83.900	48.049	0.100
84.000	44.282	0.100
84.100	44.707	0.100
84.200	39.117	0.100
84.300	38.114	0.100
84.400	36.234	0.100
84.500	36.467	0.100
84.600	48.276	0.100
84.700	38.286	0.100
84.800	46.238	0.100
84.900	42.650	0.100
85.000	41.866	0.100
85.100	48.055	0.100
85.200	35.286	0.100
85.300	44.237	0.100
85.400	36.929	0.100
85.500	38.360	0.100
85.600	44.517	0.100
85.700	53.801	0.100
85.800	19.431	0.100
85.900	36.033	0.100
86.000	45.777	0.100
86.100	44.019	0.100
86.200	41.017	0.100
86.300	34.855	0.100
86.400	47.698	0.100
86.500	30.226	0.100
86.600	50.983	0.100
86.700	55.667	0.100
86.800	41.884	0.100
86.900	39.907	0.100
87.000	41.916	0.100
87.100	32.943	0.100
87.200	36.190	0.100
87.300	43.377	0.100
87.400	32.569	0.100
87.500	42.185	0.100
87.600	50.962	0.100
87.700	49.286	0.100
87.800	32.838	0.100
87.900	31.045	0.100
88.000	42.419	0.100
88.100	31.296	0.100
88.200	36.643	0.100
88.300	48.412	0.100
88.400	37.558	0.100
88.500	49.370	0.100
88.600	35.011	0.100
88.700	39.155	0.100
88.800	41.076	0.100
88.900	39.129	0.100
89.000	35.212	0.100
89.100	49.347	0.100
89.200	38.532	0.100
89.300	26.827	0.100
89.400	37.277	0.100
89.500	43.093	0.100
89.600	47.560	0.100
89.700	32.807	0.100
89.800	33.848	0.100
89.900	29.466	0.100
90.000	41.317	0.100
90.100	35.757	0.100
90.200	26.222	0.100
90.300	20.750	0.100
90.400	27.138	0.100
90.500	24.722	0.100
90.600	17.962	0.100
90.700	6.669	0.100
90.800	6.291	0.100
90.900	-2.025	0.100
91.000	3.423	0.100
91.100	-10.030	0.100
91.200	-6.984	0.100
91.300	-1.061	0.100
91.400	-18.205	0.100
91.500	-21.070	0.100
91.600	-22.162	0.100
91.700	-11.295	0.100
91.800	-15.931	0.100
91.900	-28.426	0.100
92.000	-35.669	0.100
92.100	-36.729	0.100
92.200	-20.503	0.100
92.300	-28.699	0.100
92.400	-29.758	0.100
92.500	-29.374	0.100
92.600	-25.328	0.100
92.700	-35.654	0.100
92.800	-36.154	0.100
92.900	-26.233	0.100
93.000	-39.432	0.100
93.100	-45.117	0.100
93.200	-51.271	0.100
93.300	-35.602	0.100
93.400	-44.319	0.100
93.500	-32.148	0.100
93.600	-43.780	0.100
93.700	-31.371	0.100
93.800	-32.015	0.100
93.900	-44.977	0.100
94.000	-42.861	0.100
94.100	-51.981	0.100
94.200	-35.345	0.100
94.300	-51.587	0.100
94.400	-46.525	0.100
94.500	-42.267	0.100
94.600	-41.375	0.100
94.700	-45.192	0.100
94.800	-49.438	0.100
94.900	-51.957	0.100
95.000	-48.723	0.100
95.100	-43.580	0.100
95.200	-44.988	0.100
95.300	-49.844	0.100
95.400	-44.827	0.100
95.500	-50.623	0.100
95.600	-48.348	0.100
95.700	-36.896	0.100
95.800	-40.056	0.100
95.900	-34.247	0.100
96.000	-40.053	0.100
96.100	-41.922	0.100
96.200	-48.462	0.100
96.300	-50.324	0.100
96.400	-42.781	0.100
96.500	-50.499	0.100
96.600	-44.230	0.100
96.700	-39.152	0.100
96.800	-36.465	0.100
96.900	-60.152	0.100
97.000	-41.063	0.100
97.100	-46.938	0.100
97.200	-47.555	0.100
97.300	-44.696	0.100
97.400	-37.403	0.100
97.500	-41.796	0.100
97.600	-49.153	0.100
97.700	-46.756	0.100
97.800	-43.499	0.100
97.900	-39.767	0.100
98.000	-43.422	0.100
98.100	-43.647	0.100
98.200	-46.121	0.100
98.300	-36.568	0.100
98.400	-31.453	0.100
98.500	-43.818	0.100
98.600	-42.542	0.100
98.700	-32.530	0.100
98.800	-38.737	0.100
98.900	-42.363	0.100
99.000	-44.168	0.100
99.100	-39.284	0.100
99.200	-50.520	0.100
99.300	-38.840	0.100
99.400	-45.133	0.100
99.500	-47.893	0.100
99.600	-36.125	0.100
99.700	-43.904	0.100
99.800	-35.322	0.100
99.900	-40.751	0.100
100.000	-39.884	0.100
100.100	-38.356	0.100
100.200	-28.395	0.100
100.300	-18.183	0.100
100.400	-18.329	0.100
100.500	5.024	0.100
100.600	19.917	0.100
100.700	22.143	0.100
100.800	20.226	0.100
100.900	20.153	0.100
101.000	24.251	0.100
101.100	30.296	0.100
101.200	30.909	0.100
101.300	40.594	0.100
101.400	48.598	0.100
101.500	39.996	0.100
101.600	44.734	0.100
101.700	31.188	0.100
101.800	23.456	0.100
101.900	26.125	0.100
102.000	46.353	0.100
102.100	44.019	0.100
102.200	38.793	0.100
102.300	40.061	0.100
102.400	38.051	0.100
102.500	30.157	0.100
102.600	26.997	0.100
102.700	22.445	0.100
102.800	35.968	0.100
102.900	26.854	0.100
103.000	24.185	0.100
103.100	28.153	0.100
103.200	27.847	0.100
103.300	20.514	0.100
103.400	22.224	0.100
103.500	19.090	0.100
103.600	8.470	0.100
103.700	18.434	0.100
103.800	21.827	0.100
103.900	12.212	0.100
104.000	15.639	0.100
104.100	15.596	0.100
104.200	2.849	0.100
104.300	18.266	0.100
104.400	21.683	0.100
104.500	1.268	0.100
104.600	8.384	0.100
104.700	18.190	0.100
104.800	14.902	0.100
104.900	11.860	0.100
105.000	11.612	0.100
105.100	14.433	0.100
105.200	7.778	0.100
105.300	11.749	0.100
105.400	12.529	0.100
105.500	9.502	0.100
105.600	9.239	0.100
105.700	7.521	0.100
105.800	-6.894	0.100
105.900	5.868	0.100
106.000	20.304	0.100
106.100	7.208	0.100
106.200	13.406	0.100
106.300	20.005	0.100
106.400	10.197	0.100
106.500	11.873	0.100
106.600	11.467	0.100
106.700	20.165	0.100
106.800	8.333	0.100
106.900	8.834	0.100
107.000	12.881	0.100
107.100	13.284	0.100
107.200	13.225	0.100
107.300	21.797	0.100
107.400	17.356	0.100
107.500	17.258	0.100
107.600	24.407	0.100
107.700	22.359	0.100
107.800	18.955	0.100
107.900	18.461	0.100
108.000	17.942	0.100
108.100	25.163	0.100
108.200	35.120	0.100
108.300	26.581	0.100
108.400	27.323	0.100
108.500	15.270	0.100
108.600	26.853	0.100
108.700	28.902	0.100
108.800	22.153	0.100
108.900	19.588	0.100
109.000	28.398	0.100
109.100	30.911	0.100
109.200	23.315	0.100
109.300	14.993	0.100
109.400	23.367	0.100
109.500	31.845	0.100
109.600	27.391	0.100
109.700	26.423	0.100
109.800	27.868	0.100
109.900	37.947	0.100
110.000	18.912	0.100
110.100	39.143	0.100
110.200	27.322	0.100
110.300	30.661	0.100
110.400	35.536	0.100
110.500	31.750	0.100
110.600	30.615	0.100
110.700	35.346	0.100
110.800	30.634	0.100
110.900	12.826	0.100
111.000	42.981	0.100
111.100	36.481	0.100
111.200	29.788	0.100
111.300	25.341	0.100
111.400	26.226	0.100
111.500	37.701	0.100
111.600	22.343	0.100
111.700	27.356	0.100
111.800	31.056	0.100
111.900	40.604	0.100
112.000	25.190	0.100
112.100	25.005	0.100
112.200	31.862	0.100
112.300	30.271	0.100
112.400	35.764	0.100
112.500	50.311	0.100
112.600	36.600	0.100
112.700	30.099	0.100
112.800	30.961	0.100
112.900	45.795	0.100
113.000	38.033	0.100
113.100	25.625	0.100
113.200	40.737	0.100
113.300	35.084	0.100
113.400	32.783	0.100
113.500	34.208	0.100
113.600	43.528	0.100
113.700	32.174	0.100
113.800	22.570	0.100
113.900	33.863	0.100
114.000	19.552	0.100
114.100	28.680	0.100
114.200	39.558	0.100
114.300	35.697	0.100
114.400	39.853	0.100
114.500	41.516	0.100
114.600	34.393	0.100
114.700	28.304	0.100
114.800	33.809	0.100
114.900	47.504	0.100
115.000	44.869	0.100
115.100	32.936	0.100
115.200	38.357	0.100
115.300	48.208	0.100
115.400	43.914	0.100
115.500	33.649	0.100
115.600	37.403	0.100
115.700	40.023	0.100
115.800	42.510	0.100
115.900	42.325	0.100
116.000	41.242	0.100
116.100	47.693	0.100
116.200	34.977	0.100
116.300	32.549	0.100
116.400	33.125	0.100
116.500	36.844	0.100
116.600	43.450	0.100
116.700	43.147	0.100
116.800	29.030	0.100
116.900	40.733	0.100
117.000	35.729	0.100
117.100	40.757	0.100
117.200	26.197	0.100
117.300	32.907	0.100
117.400	36.789	0.100
117.500	34.753	0.100
117.600	50.012	0.100
117.700	32.127	0.100
117.800	31.547	0.100
117.900	46.178	0.100
118.000	31.615	0.100
118.100	42.122	0.100
118.200	46.276	0.100
118.300	35.545	0.100
118.400	42.729	0.100
118.500	41.627	0.100
118.600	41.305	0.100
118.700	40.584	0.100
118.800	40.865	0.100
118.900	29.915	0.100
119.000	37.201	0.100
119.100	34.328	0.100
119.200	33.148	0.100
119.300	49.674	0.100
119.400	30.780	0.100
119.500	40.492	0.100
119.600	42.771	0.100
119.700	33.790	0.100
119.800	42.560	0.100
119.900	37.157	0.100
120.000	36.622	0.100
120.100	43.279	0.100
120.200	46.188	0.100
120.300	41.243	0.100
120.400	51.166	0.100
120.500	43.162	0.100
120.600	42.188	0.100
120.700	29.652	0.100
120.800	40.219	0.100
120.900	34.542	0.100
121.000	38.483	0.100
121.100	43.025	0.100
121.200	47.013	0.100
121.300	44.643	0.100
121.400	33.980	0.100
121.500	34.508	0.100
121.600	44.673	0.100
121.700	44.954	0.100
121.800	38.916	0.100
121.900	28.032	0.100
122.000	48.506	0.100
122.100	41.791	0.100
122.200	47.116	0.100
122.300	41.370	0.100
122.400	44.928	0.100
122.500	37.857	0.100
122.600	34.609	0.100
122.700	17.249	0.100
122.800	35.270	0.100
122.900	41.301	0.100
123.000	42.311	0.100
123.100	28.518	0.100
123.200	34.800	0.100
123.300	40.081	0.100
123.400	46.902	0.100
123.500	36.267	0.100
123.600	33.752	0.100
123.700	41.306	0.100
123.800	55.664	0.100
123.900	38.210	0.100
124.000	39.358	0.100
124.100	38.631	0.100
124.200	41.317	0.100
124.300	34.815	0.100
124.400	41.164	0.100
124.500	38.789	0.100
124.600	35.427	0.100
124.700	35.522	0.100
124.800	38.551	0.100
124.900	37.098	0.100
125.000	44.346	0.100
125.100	30.114	0.100
125.200	38.001	0.100
125.300	39.273	0.100
125.400	44.736	0.100
125.500	56.766	0.100
125.600	24.002	0.100
125.700	46.062	0.100
125.800	26.668	0.100
125.900	47.698	0.100
126.000	50.086	0.100
126.100	34.420	0.100
126.200	42.257	0.100
126.300	30.408	0.100
126.400	35.009	0.100
126.500	44.662	0.100
126.600	53.700	0.100
126.700	34.992	0.100
126.800	43.023	0.100
126.900	40.975	0.100
127.000	40.792	0.100
127.100	36.268	0.100
127.200	43.654	0.100
127.300	34.130	0.100
127.400	35.598	0.100
127.500	40.011	0.100
127.600	33.505	0.100
127.700	43.292	0.100
127.800	43.185	0.100
127.900	44.947	0.100
128.000	30.146	0.100
128.100	33.607	0.100
128.200	40.749	0.100
128.300	41.071	0.100
128.400	31.806	0.100
128.500	37.527	0.100
128.600	41.736	0.100
128.700	45.338	0.100
128.800	36.919	0.100
128.900	42.078	0.100
129.000	32.457	0.100
129.100	31.182	0.100
129.200	35.371	0.100
129.300	32.396	0.100
129.400	38.338	0.100
129.500	37.436	0.100
129.600	44.672	0.100
129.700	47.330	0.100
129.800	45.583	0.100
129.900	40.683	0.100
130.000	40.355	0.100
130.100	34.642	0.100
130.200	50.009	0.100
130.300	39.234	0.100
130.400	36.420	0.100
130.500	44.580	0.100
130.600	35.617	0.100
130.700	37.275	0.100
130.800	45.490	0.100
130.900	47.245	0.100
131.000	45.335	0.100
131.100	44.737	0.100
131.200	48.930	0.100
131.300	39.452	0.100
131.400	40.739	0.100
131.500	31.615	0.100
131.600	25.415	0.100
131.700	44.200	0.100
131.800	37.434	0.100
131.900	44.633	0.100
132.000	42.125	0.100
132.100	35.901	0.100
132.200	42.570	0.100
132.300	39.189	0.100
132.400	33.710	0.100
132.500	32.924	0.100
132.600	34.813	0.100
132.700	30.480	0.100
132.800	29.531	0.100
132.900	41.750	0.100
133.000	37.278	0.100
133.100	33.138	0.100
133.200	54.481	0.100
133.300	36.713	0.100
133.400	42.344	0.100
133.500	44.953	0.100
133.600	37.905	0.100
133.700	52.047	0.100
133.800	47.187	0.100
133.900	36.947	0.100
134.000	33.870	0.100
134.100	39.396	0.100
134.200	39.530	0.100
134.300	37.722	0.100
134.400	39.954	0.100
134.500	32.141	0.100
134.600	37.591	0.100
134.700	46.829	0.100
134.800	32.357	0.100
134.900	33.705	0.100
135.000	44.000	0.100
135.100	44.962	0.100
135.200	49.167	0.100
135.300	32.622	0.100
135.400	39.036	0.100
135.500	27.804	0.100
135.600	41.181	0.100
135.700	45.798	0.100
135.800	27.956	0.100
135.900	48.057	0.100
136.000	33.247	0.100
136.100	42.059	0.100
136.200	25.065	0.100
136.300	43.193	0.100
136.400	43.853	0.100
136.500	30.782	0.100
136.600	38.384	0.100
136.700	42.531	0.100
136.800	42.621	0.100
136.900	33.257	0.100
137.000	35.123	0.100
137.100	38.019	0.100
137.200	37.523	0.100
137.300	31.413	0.100
137.400	41.086	0.100
137.500	33.430	0.100
137.600	31.365	0.100
137.700	40.204	0.100
137.800	50.055	0.100
137.900	29.542	0.100
138.000	32.304	0.100
138.100	44.299	0.100
138.200	41.108	0.100
138.300	33.149	0.100
138.400	37.665	0.100
138.500	36.926	0.100
138.600	37.692	0.100
138.700	35.213	0.100
138.800	42.788	0.100
138.900	28.951	0.100
139.000	47.399	0.100
139.100	33.495	0.100
139.200	24.287	0.100
139.300	30.906	0.100
139.400	41.684	0.100
139.500	43.443	0.100
139.600	30.558	0.100
139.700	33.663	0.100
139.800	47.247	0.100
139.900	28.909	0.100
140.000	38.959	0.100
140.100	47.777	0.100
140.200	30.724	0.100
140.300	41.429	0.100
140.400	33.490	0.100
140.500	40.614	0.100
140.600	42.346	0.100
140.700	41.633	0.100
140.800	44.469	0.100
140.900	38.239	0.100
141.000	28.922	0.100
141.100	25.377	0.100
141.200	40.648	0.100
141.300	40.477	0.100
141.400	42.180	0.100
141.500	33.283	0.100
141.600	35.663	0.100
141.700	31.480	0.100
141.800	45.667	0.100
141.900	36.312	0.100
142.000	32.419	0.100
142.100	38.683	0.100
142.200	38.994	0.100
142.300	35.244	0.100
142.400	40.002	0.100
142.500	42.650	0.100
142.600	31.097	0.100
142.700	35.093	0.100
142.800	46.702	0.100
142.900	31.257	0.100
143.000	41.551	0.100
143.100	37.332	0.100
143.200	26.116	0.100
143.300	43.332	0.100
143.400	36.865	0.100
143.500	49.911	0.100
143.600	45.140	0.100
143.700	32.445	0.100
143.800	34.397	0.100
143.900	29.947	0.100
144.000	33.965	0.100
144.100	38.965	0.100
144.200	40.286	0.100
144.300	23.890	0.100
144.400	41.263	0.100
144.500	32.835	0.100
144.600	37.233	0.100
144.700	25.794	0.100
144.800	38.951	0.100
144.900	48.041	0.100
145.000	47.896	0.100
145.100	42.352	0.100
145.200	34.817	0.100
145.300	33.877	0.100
145.400	46.079	0.100
145.500	29.351	0.100
145.600	43.486	0.100
145.700	38.605	0.100
145.800	34.658	0.100
145.900	35.840	0.100
146.000	43.667	0.100
146.100	46.094	0.100
146.200	34.754	0.100
146.300	26.576	0.100
146.400	43.386	0.100
146.500	38.065	0.100
146.600	27.953	0.100
146.700	33.255	0.100
146.800	38.283	0.100
146.900	25.858	0.100
147.000	33.612	0.100
147.100	38.386	0.100
147.200	28.586	0.100
147.300	34.056	0.100
147.400	25.936	0.100
147.500	49.344	0.100
147.600	39.737	0.100
147.700	43.624	0.100
147.800	37.470	0.100
147.900	47.160	0.100
148.000	27.589	0.100
148.100	31.184	0.100
148.200	34.721	0.100
148.300	38.915	0.100
148.400	24.711	0.100
148.500	44.807	0.100
148.600	36.129	0.100
148.700	29.174	0.100
148.800	33.645	0.100
148.900	36.239	0.100
149.000	33.928	0.100
149.100	36.484	0.100
149.200	50.665	0.100
149.300	35.919	0.100
149.400	32.958	0.100
149.500	30.626	0.100
149.600	47.067	0.100
149.700	33.542	0.100
149.800	29.107	0.100
149.900	46.004	0.100
150.000	36.549	0.100
150.100	34.593	0.100
150.200	30.123	0.100
150.300	45.023	0.100
150.400	42.991	0.100
150.500	31.513	0.100
150.600	33.623	0.100
150.700	31.364	0.100
150.800	31.523	0.100
150.900	33.610	0.100
151.000	29.645	0.100
151.100	42.642	0.100
151.200	37.167	0.100
151.300	32.735	0.100
151.400	38.704	0.100
151.500	46.265	0.100
151.600	39.003	0.100
151.700	39.629	0.100
151.800	34.955	0.100
151.900	40.235	0.100
152.000	41.353	0.100
152.100	31.389	0.100
152.200	30.775	0.100
152.300	38.576	0.100
152.400	21.376	0.100
152.500	31.838	0.100
152.600	43.742	0.100
152.700	41.150	0.100
152.800	29.581	0.100
152.900	31.669	0.100
153.000	36.190	0.100
153.100	30.878	0.100
153.200	40.586	0.100
153.300	39.152	0.100
153.400	27.491	0.100
153.500	30.947	0.100
153.600	27.543	0.100
153.700	34.760	0.100
153.800	38.113	0.100
153.900	30.816	0.100
154.000	43.432	0.100
154.100	38.460	0.100
154.200	39.229	0.100
154.300	31.739	0.100
154.400	29.006	0.100
154.500	19.941	0.100
154.600	32.613	0.100
154.700	45.600	0.100
154.800	41.112	0.100
154.900	38.381	0.100
155.000	22.374	0.100
155.100	37.351	0.100
155.200	45.392	0.100
155.300	22.121	0.100
155.400	35.491	0.100
155.500	30.381	0.100
155.600	39.276	0.100
155.700	42.742	0.100
155.800	29.168	0.100
155.900	34.053	0.100
156.000	30.699	0.100
156.100	34.327	0.100
156.200	30.679	0.100
156.300	46.253	0.100
156.400	37.706	0.100
156.500	36.181	0.100
156.600	33.542	0.100
156.700	30.639	0.100
156.800	35.850	0.100
156.900	42.113	0.100
157.000	28.618	0.100
157.100	37.491	0.100
157.200	21.210	0.100
157.300	38.777	0.100
157.400	35.915	0.100
157.500	34.797	0.100
157.600	34.411	0.100
157.700	35.498	0.100
157.800	46.154	0.100
157.900	44.186	0.100
158.000	42.290	0.100
158.100	31.676	0.100
158.200	35.471	0.100
158.300	41.468	0.100
158.400	36.471	0.100
158.500	44.148	0.100
158.600	32.104	0.100
158.700	32.743	0.100
158.800	33.726	0.100
158.900	37.759	0.100
159.000	35.217	0.100
159.100	26.306	0.100
159.200	32.358	0.100
159.300	25.882	0.100
159.400	41.126	0.100
159.500	45.570	0.100
159.600	49.162	0.100
159.700	43.357	0.100
159.800	34.970	0.100
159.900	28.729	0.100
160.000	30.139	0.100
160.100	22.146	0.100
160.200	36.095	0.100
160.300	23.572	0.100
160.400	3.771	0.100
160.500	14.904	0.100
160.600	5.222	0.100
160.700	5.133	0.100
160.800	1.265	0.100
160.900	-0.437	0.100
161.000	-8.145	0.100
161.100	-26.008	0.100
161.200	-10.545	0.100
161.300	-14.329	0.100
161.400	-24.795	0.100
161.500	-14.091	0.100
161.600	-31.122	0.100
161.700	-28.710	0.100
161.800	-36.348	0.100
161.900	-26.895	0.100
162.000	-16.779	0.100
162.100	-30.608	0.100
162.200	-36.540	0.100
162.300	-35.697	0.100
162.400	-32.352	0.100
162.500	-33.824	0.100
162.600	-39.189	0.100
162.700	-43.554	0.100
162.800	-40.075	0.100
162.900	-42.200	0.100
163.000	-37.928	0.100
163.100	-37.723	0.100
163.200	-39.466	0.100
163.300	-48.512	0.100
163.400	-41.115	0.100
163.500	-42.077	0.100
163.600	-51.052	0.100
163.700	-45.850	0.100
163.800	-45.769	0.100
163.900	-35.951	0.100
164.000	-49.984	0.100
164.100	-45.927	0.100
164.200	-49.284	0.100
164.300	-51.581	0.100
164.400	-56.093	0.100
164.500	-48.411	0.100
164.600	-42.227	0.100
164.700	-64.455	0.100
164.800	-43.129	0.100
164.900	-36.809	0.100
165.000	-56.414	0.100
165.100	-60.222	0.100
165.200	-44.008	0.100
165.300	-55.053	0.100
165.400	-44.963	0.100
165.500	-54.177	0.100
165.600	-45.951	0.100
165.700	-53.274	0.100
165.800	-52.363	0.100
165.900	-52.450	0.100
166.000	-52.514	0.100
166.100	-51.560	0.100
166.200	-50.560	0.100
166.300	-49.598	0.100
166.400	-44.613	0.100
166.500	-45.346	0.100
166.600	-55.736	0.100
166.700	-43.917	0.100
166.800	-49.317	0.100
166.900	-53.153	0.100
167.000	-49.558	0.100
167.100	-47.600	0.100
167.200	-60.538	0.100
167.300	-55.047	0.100
167.400	-56.381	0.100
167.500	-52.232	0.100
167.600	-46.335	0.100
167.700	-53.782	0.100
167.800	-56.311	0.100
167.900	-46.119	0.100
168.000	-60.027	0.100
168.100	-56.886	0.100
168.200	-61.562	0.100
168.300	-49.996	0.100
168.400	-48.939	0.100
168.500	-47.573	0.100
168.600	-62.734	0.100
168.700	-48.748	0.100
168.800	-46.099	0.100
168.900	-53.838	0.100
169.000	-55.353	0.100
169.100	-56.889	0.100
169.200	-49.273	0.100
169.300	-45.421	0.100
169.400	-53.230	0.100
169.500	-54.120	0.100
169.600	-54.047	0.100
169.700	-43.444	0.100
169.800	-50.934	0.100
169.900	-42.773	0.100
170.000	-47.829	0.100
170.100	-51.861	0.100
170.200	-46.437	0.100
170.300	-32.736	0.100
170.400	-27.940	0.100
170.500	-11.854	0.100
170.600	-14.991	0.100
170.700	-6.070	0.100
170.800	3.876	0.100
170.900	-1.043	0.100
171.000	5.278	0.100
171.100	8.590	0.100
171.200	19.932	0.100
171.300	11.917	0.100
171.400	19.972	0.100
171.500	22.551	0.100
171.600	14.410	0.100
171.700	21.827	0.100
171.800	13.294	0.100
171.900	17.454	0.100
172.000	6.502	0.100
172.100	12.145	0.100
172.200	20.354	0.100
172.300	20.766	0.100
172.400	21.676	0.100
172.500	8.368	0.100
172.600	16.388	0.100
172.700	17.476	0.100
172.800	18.514	0.100
172.900	-1.895	0.100
173.000	12.926	0.100
173.100	8.205	0.100
173.200	-0.442	0.100
173.300	2.489	0.100
173.400	9.551	0.100
173.500	4.665	0.100
173.600	6.847	0.100
173.700	6.615	0.100
173.800	7.753	0.100
173.900	5.452	0.100
174.000	6.659	0.100
174.100	5.971	0.100
174.200	3.795	0.100
174.300	9.537	0.100
174.400	11.617	0.100
174.500	4.938	0.100
174.600	-3.725	0.100
174.700	-0.285	0.100
174.800	4.908	0.100
174.900	2.243	0.100
175.000	6.038	0.100
175.100	15.519	0.100
175.200	3.970	0.100
175.300	-10.126	0.100
175.400	-6.757	0.100
175.500	-10.030	0.100
175.600	9.295	0.100
175.700	-8.207	0.100
175.800	7.564	0.100
175.900	8.370	0.100
176.000	-0.999	0.100
176.100	1.124	0.100
176.200	4.959	0.100
176.300	-2.157	0.100
176.400	4.444	0.100
176.500	-6.926	0.100
176.600	4.820	0.100
176.700	5.735	0.100
176.800	10.299	0.100
176.900	8.651	0.100
177.000	6.089	0.100
177.100	-0.823	0.100
177.200	6.512	0.100
177.300	21.598	0.100
177.400	7.335	0.100
177.500	13.339	0.100
177.600	8.637	0.100
177.700	6.488	0.100
177.800	7.880	0.100
177.900	10.838	0.100
178.000	13.825	0.100
178.100	24.042	0.100
178.200	17.411	0.100
178.300	7.238	0.100
178.400	22.745	0.100
178.500	14.767	0.100
178.600	28.750	0.100
178.700	17.799	0.100
178.800	7.254	0.100
178.900	16.000	0.100
179.000	0.028	0.100
179.100	35.092	0.100
179.200	25.401	0.100
179.300	19.149	0.100
179.400	12.266	0.100
179.500	23.516	0.100
179.600	31.220	0.100
179.700	29.169	0.100
179.800	26.864	0.100
179.900	18.027	0.100
180.000	23.057	0.100
180.100	24.133	0.100
180.200	20.940	0.100
180.300	21.803	0.100
180.400	21.060	0.100
180.500	22.455	0.100
180.600	30.174	0.100
180.700	21.151	0.100
180.800	26.209	0.100
180.900	27.645	0.100
181.000	13.992	0.100
181.100	17.595	0.100
181.200	23.671	0.100
181.300	24.109	0.100
181.400	29.001	0.100
181.500	27.728	0.100
181.600	32.806	0.100
181.700	27.363	0.100
181.800	25.043	0.100
181.900	25.651	0.100
182.000	30.944	0.100
182.100	22.544	0.100
182.200	26.192	0.100
182.300	31.827	0.100
182.400	19.302	0.100
182.500	27.098	0.100
182.600	29.601	0.100
182.700	29.495	0.100
182.800	24.792	0.100
182.900	26.814	0.100
183.000	23.832	0.100
183.100	27.075	0.100
183.200	18.749	0.100
183.300	33.555	0.100
183.400	32.124	0.100
183.500	29.014	0.100
183.600	25.017	0.100
183.700	26.979	0.100
183.800	39.763	0.100
183.900	38.526	0.100
184.000	37.584	0.100
184.100	20.994	0.100
184.200	28.621	0.100
184.300	28.450	0.100
184.400	36.953	0.100
184.500	27.579	0.100
184.600	14.987	0.100
184.700	37.400	0.100
184.800	36.530	0.100
184.900	24.425	0.100
185.000	34.710	0.100
185.100	34.235	0.100
185.200	24.470	0.100
185.300	24.301	0.100
185.400	38.769	0.100
185.500	26.758	0.100
185.600	35.284	0.100
185.700	22.100	0.100
185.800	31.065	0.100
185.900	32.470	0.100
186.000	31.655	0.100
186.100	24.014	0.100
186.200	28.755	0.100
186.300	16.152	0.100
186.400	41.135	0.100
186.500	34.813	0.100
186.600	26.632	0.100
186.700	32.127	0.100
186.800	36.219	0.100
186.900	23.947	0.100
187.000	30.566	0.100
187.100	25.563	0.100
187.200	31.857	0.100
187.300	41.941	0.100
187.400	43.467	0.100
187.500	18.507	0.100
187.600	18.691	0.100
187.700	40.092	0.100
187.800	43.003	0.100
187.900	30.552	0.100
188.000	39.821	0.100
188.100	32.445	0.100
188.200	33.297	0.100
188.300	33.774	0.100
188.400	31.442	0.100
188.500	30.936	0.100
188.600	29.558	0.100
188.700	29.870	0.100
188.800	34.296	0.100
188.900	28.273	0.100
189.000	45.183	0.100
189.100	30.936	0.100
189.200	40.537	0.100
189.300	20.888	0.100
189.400	41.795	0.100
189.500	47.715	0.100
189.600	37.161	0.100
189.700	36.734	0.100
189.800	34.375	0.100
189.900	29.118	0.100
190.000	30.671	0.100
190.100	29.905	0.100
190.200	36.252	0.100
190.300	35.640	0.100
190.400	30.772	0.100
190.500	22.355	0.100
190.600	31.978	0.100
190.700	42.908	0.100
190.800	28.390	0.100
190.900	32.703	0.100
191.000	29.771	0.100
191.100	26.940	0.100
191.200	31.753	0.100
191.300	35.529	0.100
191.400	34.016	0.100
191.500	36.223	0.100
191.600	29.128	0.100
191.700	21.750	0.100
191.800	29.245	0.100
191.900	37.708	0.100
192.000	44.236	0.100
192.100	31.799	0.100
192.200	35.038	0.100
192.300	39.950	0.100
192.400	39.259	0.100
192.500	29.809	0.100
192.600	36.886	0.100
192.700	30.302	0.100
192.800	26.001	0.100
192.900	25.890	0.100
193.000	37.901	0.100
193.100	27.272	0.100
193.200	24.941	0.100
193.300	32.178	0.100
193.400	34.568	0.100
193.500	32.495	0.100
193.600	34.429	0.100
193.700	37.021	0.100
193.800	30.457	0.100
193.900	18.218	0.100
194.000	33.025	0.100
194.100	30.673	0.100
194.200	45.162	0.100
194.300	45.404	0.100
194.400	32.778	0.100
194.500	31.483	0.100
194.600	21.334	0.100
194.700	35.440	0.100
194.800	25.017	0.100
194.900	31.635	0.100
195.000	27.281	0.100
195.100	34.485	0.100
195.200	33.100	0.100
195.300	37.378	0.100
195.400	31.023	0.100
195.500	13.774	0.100
195.600	35.377	0.100
195.700	39.428	0.100
195.800	37.349	0.100
195.900	25.940	0.100
196.000	36.986	0.100
196.100	28.212	0.100
196.200	39.911	0.100
196.300	35.731	0.100
196.400	29.674	0.100
196.500	38.310	0.100
196.600	29.000	0.100
196.700	26.462	0.100
196.800	30.800	0.100
196.900	39.127	0.100
197.000	36.168	0.100
197.100	32.139	0.100
197.200	21.801	0.100
197.300	34.692	0.100
197.400	35.466	0.100
197.500	38.379	0.100
197.600	40.530	0.100
197.700	38.749	0.100
197.800	34.205	0.100
197.900	30.255	0.100
198.000	28.729	0.100
198.100	31.135	0.100
198.200	27.650	0.100
198.300	24.865	0.100
198.400	36.217	0.100
198.500	21.646	0.100
198.600	40.929	0.100
198.700	35.685	0.100
198.800	25.099	0.100
198.900	44.850	0.100
199.000	34.337	0.100
199.100	38.448	0.100
199.200	50.476	0.100
199.300	24.623	0.100
199.400	28.746	0.100
199.500	40.740	0.100
199.600	36.496	0.100
199.700	31.400	0.100
199.800	29.581	0.100
199.900	29.213	0.100
200.000	29.232	0.100
200.100	34.803	0.100
200.200	37.240	0.100
200.300	39.624	0.100
200.400	43.365	0.100
200.500	21.138	0.100
200.600	40.731	0.100
200.700	29.624	0.100
200.800	25.313	0.100
200.900	33.673	0.100
201.000	41.218	0.100
201.100	30.790	0.100
201.200	27.094	0.100
201.300	35.263	0.100
201.400	25.088	0.100
201.500	39.513	0.100
201.600	21.993	0.100
201.700	33.330	0.100
201.800	34.094	0.100
201.900	39.242	0.100
202.000	40.595	0.100
202.100	39.512	0.100
202.200	36.957	0.100
202.300	35.671	0.100
202.400	33.254	0.100
202.500	41.310	0.100
202.600	27.520	0.100
202.700	34.802	0.100
202.800	30.333	0.100
202.900	38.308	0.100
203.000	36.394	0.100
203.100	23.366	0.100
203.200	35.197	0.100
203.300	37.394	0.100
203.400	21.623	0.100
203.500	40.172	0.100
203.600	30.225	0.100
203.700	28.119	0.100
203.800	41.224	0.100
203.900	27.718	0.100
204.000	29.174	0.100
204.100	37.439	0.100
204.200	37.895	0.100
204.300	24.396	0.100
204.400	29.002	0.100
204.500	36.741	0.100
204.600	31.728	0.100
204.700	33.982	0.100
204.800	36.528	0.100
204.900	36.842	0.100
205.000	34.556	0.100
205.100	25.871	0.100
205.200	28.407	0.100
205.300	25.105	0.100
205.400	27.395	0.100
205.500	27.543	0.100
205.600	34.930	0.100
205.700	36.754	0.100
205.800	45.853	0.100
205.900	28.495	0.100
206.000	20.892	0.100
206.100	35.753	0.100
206.200	34.263	0.100
206.300	39.644	0.100
206.400	29.763	0.100
206.500	30.193	0.100
206.600	37.442	0.100
206.700	38.949	0.100
206.800	34.325	0.100
206.900	14.453	0.100
207.000	28.631	0.100
207.100	41.648	0.100
207.200	35.023	0.100
207.300	35.329	0.100
207.400	36.013	0.100
207.500	26.200	0.100
207.600	35.120	0.100
207.700	21.138	0.100
207.800	32.848	0.100
207.900	41.305	0.100
208.000	39.458	0.100
208.100	39.341	0.100
208.200	33.690	0.100
208.300	34.926	0.100
208.400	25.270	0.100
208.500	29.178	0.100
208.600	34.311	0.100
208.700	35.298	0.100
208.800	33.222	0.100
208.900	36.106	0.100
209.000	31.624	0.100
209.100	45.572	0.100
209.200	35.043	0.100
209.300	26.574	0.100
209.400	31.891	0.100
209.500	30.561	0.100
209.600	32.640	0.100
209.700	33.273	0.100
209.800	31.534	0.100
209.900	23.262	0.100
210.000	30.629	0.100
210.100	38.352	0.100
210.200	29.749	0.100
210.300	34.890	0.100
210.400	31.465	0.100
210.500	35.438	0.100
210.600	24.056	0.100
210.700	28.533	0.100
210.800	40.272	0.100
210.900	37.592	0.100
211.000	33.440	0.100
211.100	29.955	0.100
211.200	42.589	0.100
211.300	32.972	0.100
211.400	29.144	0.100
211.500	26.711	0.100
211.600	31.563	0.100
211.700	29.725	0.100
211.800	36.094	0.100
211.900	41.112	0.100
212.000	28.255	0.100
212.100	41.681	0.100
212.200	32.316	0.100
212.300	21.743	0.100
212.400	35.909	0.100
212.500	37.301	0.100
212.600	29.491	0.100
212.700	21.614	0.100
212.800	45.289	0.100
212.900	25.164	0.100
213.000	40.353	0.100
213.100	18.308	0.100
213.200	31.512	0.100
213.300	39.777	0.100
213.400	37.144	0.100
213.500	28.046	0.100
213.600	38.869	0.100
213.700	37.255	0.100
213.800	21.034	0.100
213.900	31.121	0.100
214.000	36.314	0.100
214.100	30.879	0.100
214.200	29.231	0.100
214.300	39.715	0.100
214.400	30.823	0.100
214.500	22.663	0.100
214.600	33.128	0.100
214.700	33.432	0.100
214.800	34.162	0.100
214.900	35.750	0.100
215.000	34.396	0.100
215.100	30.153	0.100
215.200	35.823	0.100
215.300	29.063	0.100
215.400	40.218	0.100
215.500	36.765	0.100
215.600	23.535	0.100
215.700	33.264	0.100
215.800	23.518	0.100
215.900	26.813	0.100
216.000	49.234	0.100
216.100	27.622	0.100
216.200	31.205	0.100
216.300	33.778	0.100
216.400	38.939	0.100
216.500	41.450	0.100
216.600	36.778	0.100
216.700	30.051	0.100
216.800	38.965	0.100
216.900	37.671	0.100
217.000	11.946	0.100
217.100	44.345	0.100
217.200	32.609	0.100
217.300	27.978	0.100
217.400	20.222	0.100
217.500	23.724	0.100
217.600	33.974	0.100
217.700	46.309	0.100
217.800	32.087	0.100
217.900	35.213	0.100
218.000	32.148	0.100
218.100	39.656	0.100
218.200	33.850	0.100
218.300	32.130	0.100
218.400	38.997	0.100
218.500	30.395	0.100
218.600	32.352	0.100
218.700	27.290	0.100
218.800	20.717	0.100
218.900	35.282	0.100
219.000	37.166	0.100
219.100	27.400	0.100
219.200	32.105	0.100
219.300	36.441	0.100
219.400	37.291	0.100
219.500	29.034	0.100
219.600	24.973	0.100
219.700	27.229	0.100
219.800	39.134	0.100
219.900	46.824	0.100
220.000	41.578	0.100
220.100	28.152	0.100
220.200	25.824	0.100
220.300	36.751	0.100
220.400	30.384	0.100
220.500	34.785	0.100
220.600	27.384	0.100
220.700	32.268	0.100
220.800	21.962	0.100
220.900	26.433	0.100
221.000	28.348	0.100
221.100	30.875	0.100
221.200	30.779	0.100
221.300	35.766	0.100
221.400	42.237	0.100
221.500	22.932	0.100
221.600	35.668	0.100
221.700	30.544	0.100
221.800	33.324	0.100
221.900	28.681	0.100
222.000	22.548	0.100
222.100	26.775	0.100
222.200	31.766	0.100
222.300	28.788	0.100
222.400	46.832	0.100
222.500	40.296	0.100
222.600	22.082	0.100
222.700	31.395	0.100
222.800	33.533	0.100
222.900	31.329	0.100
223.000	18.643	0.100
223.100	39.376	0.100
223.200	36.929	0.100
223.300	21.193	0.100
223.400	30.137	0.100
223.500	37.249	0.100
223.600	41.164	0.100
223.700	32.319	0.100
223.800	19.986	0.100
223.900	24.117	0.100
224.000	32.057	0.100
224.100	27.247	0.100
224.200	35.185	0.100
224.300	36.534	0.100
224.400	33.706	0.100
224.500	37.633	0.100
224.600	31.193	0.100
224.700	47.722	0.100
224.800	38.460	0.100
224.900	21.907	0.100
225.000	9.112	0.100
225.100	27.525	0.100
225.200	26.452	0.100
225.300	19.633	0.100
225.400	37.688	0.100
225.500	35.488	0.100
225.600	32.820	0.100
225.700	28.358	0.100
225.800	27.135	0.100
225.900	36.981	0.100
226.000	37.024	0.100
226.100	28.803	0.100
226.200	29.271	0.100
226.300	18.808	0.100
226.400	42.459	0.100
226.500	33.013	0.100
226.600	44.813	0.100
226.700	23.311	0.100
226.800	47.357	0.100
226.900	44.803	0.100
227.000	35.695	0.100
227.100	8.366	0.100
227.200	25.254	0.100
227.300	34.196	0.100
227.400	27.208	0.100
227.500	29.941	0.100
227.600	27.012	0.100
227.700	40.580	0.100
227.800	40.517	0.100
227.900	29.858	0.100
228.000	28.575	0.100
228.100	30.997	0.100
228.200	34.370	0.100
228.300	36.386	0.100
228.400	24.662	0.100
228.500	27.007	0.100
228.600	33.782	0.100
228.700	37.400	0.100
228.800	34.990	0.100
228.900	38.712	0.100
229.000	27.110	0.100
229.100	32.422	0.100
229.200	38.080	0.100
229.300	29.710	0.100
229.400	32.338	0.100
229.500	20.793	0.100
229.600	27.330	0.100
229.700	27.211	0.100
229.800	31.448	0.100
229.900	24.945	0.100
230.000	37.097	0.100
230.100	37.012	0.100
230.200	24.618	0.100
230.300	17.448	0.100
230.400	2.305	0.100
230.500	10.588	0.100
230.600	9.062	0.100
230.700	6.679	0.100
230.800	-0.645	0.100
230.900	-9.971	0.100
231.000	-8.360	0.100
231.100	-9.504	0.100
231.200	-17.592	0.100
231.300	-17.106	0.100
231.400	-24.327	0.100
231.500	-31.416	0.100
231.600	-24.715	0.100
231.700	-44.116	0.100
231.800	-38.691	0.100
231.900	-44.292	0.100
232.000	-53.650	0.100
232.100	-32.355	0.100
232.200	-47.280	0.100
232.300	-44.947	0.100
232.400	-16.290	0.100
232.500	-42.056	0.100
232.600	-41.542	0.100
232.700	-46.697	0.100
232.800	-39.524	0.100
232.900	-44.255	0.100
233.000	-51.318	0.100
233.100	-44.921	0.100
233.200	-47.801	0.100
233.300	-61.628	0.100
233.400	-58.386	0.100
233.500	-56.969	0.100
233.600	-46.114	0.100
233.700	-48.524	0.100
233.800	-56.599	0.100
233.900	-54.162	0.100
234.000	-52.426	0.100
234.100	-64.631	0.100
234.200	-61.300	0.100
234.300	-65.530	0.100
234.400	-52.637	0.100
234.500	-45.418	0.100
234.600	-62.079	0.100
234.700	-60.014	0.100
234.800	-46.431	0.100
234.900	-45.828	0.100
235.000	-57.327	0.100
235.100	-54.575	0.100
235.200	-60.225	0.100
235.300	-62.199	0.100
235.400	-65.885	0.100
235.500	-55.700	0.100
235.600	-55.867	0.100
235.700	-53.412	0.100
235.800	-56.507	0.100
235.900	-40.880	0.100
236.000	-69.319	0.100
236.100	-58.057	0.100
236.200	-55.313	0.100
236.300	-59.784	0.100
236.400	-68.537	0.100
236.500	-59.326	0.100
236.600	-60.844	0.100
236.700	-69.728	0.100
236.800	-57.151	0.100
236.900	-60.327	0.100
237.000	-62.791	0.100
237.100	-61.770	0.100
237.200	-68.651	0.100
237.300	-63.596	0.100
237.400	-62.014	0.100
237.500	-61.059	0.100
237.600	-55.057	0.100
237.700	-49.672	0.100
237.800	-59.456	0.100
237.900	-50.520	0.100
238.000	-56.652	0.100
238.100	-61.189	0.100
238.200	-68.788	0.100
238.300	-59.215	0.100
238.400	-63.722	0.100
238.500	-59.941	0.100
238.600	-45.278	0.100
238.700	-60.216	0.100
238.800	-58.469	0.100
238.900	-67.564	0.100
239.000	-64.074	0.100
239.100	-57.934	0.100
239.200	-48.456	0.100
239.300	-57.763	0.100
239.400	-58.513	0.100
239.500	-57.852	0.100
239.600	-59.290	0.100
239.700	-63.490	0.100
239.800	-64.158	0.100
239.900	-62.376	0.100
240.000	-70.306	0.100
240.100	-60.075	0.100
240.200	-61.922	0.100
240.300	-51.589	0.100
240.400	-38.333	0.100
240.500	-19.518	0.100
240.600	-20.299	0.100
240.700	-23.892	0.100
240.800	-15.656	0.100
240.900	-2.095	0.100
241.000	-4.393	0.100
241.100	-6.852	0.100
241.200	13.581	0.100
241.300	14.434	0.100
241.400	14.964	0.100
241.500	11.203	0.100
241.600	6.499	0.100
241.700	5.626	0.100
241.800	-6.537	0.100
241.900	17.349	0.100
242.000	20.970	0.100
242.100	-1.831	0.100
242.200	3.104	0.100
242.300	16.766	0.100
242.400	15.935	0.100
242.500	-0.242	0.100
242.600	21.380	0.100
242.700	13.859	0.100
242.800	10.710	0.100
242.900	16.097	0.100
243.000	15.825	0.100
243.100	14.797	0.100
243.200	3.335	0.100
243.300	6.814	0.100
243.400	10.454	0.100
243.500	7.847	0.100
243.600	7.420	0.100
243.700	-12.972	0.100
243.800	6.647	0.100
243.900	17.669	0.100
244.000	6.821	0.100
244.100	1.790	0.100
244.200	5.726	0.100
244.300	1.796	0.100
244.400	-10.116	0.100
244.500	9.173	0.100
244.600	12.951	0.100
244.700	5.160	0.100
244.800	-6.050	0.100
244.900	-2.351	0.100
245.000	-5.254	0.100
245.100	-0.105	0.100
245.200	6.408	0.100
245.300	2.231	0.100
245.400	1.223	0.100
245.500	1.180	0.100
245.600	-7.561	0.100
245.700	-4.833	0.100
245.800	-6.454	0.100
245.900	5.099	0.100
246.000	14.084	0.100
246.100	-3.659	0.100
246.200	2.413	0.100
246.300	0.166	0.100
246.400	13.084	0.100
246.500	5.250	0.100
246.600	0.811	0.100
246.700	-1.445	0.100
246.800	5.572	0.100
246.900	8.548	0.100
247.000	8.630	0.100
247.100	4.958	0.100
247.200	7.104	0.100
247.300	5.844	0.100
247.400	16.748	0.100
247.500	9.911	0.100
247.600	6.656	0.100
247.700	12.037	0.100
247.800	16.284	0.100
247.900	1.262	0.100
248.000	15.796	0.100
248.100	12.647	0.100
248.200	6.724	0.100
248.300	4.100	0.100
248.400	16.240	0.100
248.500	14.485	0.100
248.600	14.148	0.100
248.700	-1.200	0.100
248.800	7.505	0.100
248.900	25.917	0.100
249.000	8.890	0.100
249.100	26.368	0.100
249.200	20.444	0.100
249.300	23.373	0.100
249.400	17.689	0.100
249.500	15.689	0.100
249.600	20.938	0.100
249.700	18.816	0.100
249.800	16.238	0.100
249.900	10.600	0.100
250.000	17.155	0.100
250.100	15.711	0.100
250.200	21.907	0.100
250.300	16.863	0.100
250.400	19.522	0.100
250.500	19.639	0.100
250.600	28.411	0.100
250.700	20.490	0.100
250.800	20.523	0.100
250.900	6.565	0.100
251.000	14.468	0.100
251.100	31.174	0.100
251.200	25.004	0.100
251.300	20.856	0.100
251.400	26.462	0.100
251.500	23.681	0.100
251.600	22.946	0.100
251.700	15.746	0.100
251.800	26.160	0.100
251.900	28.724	0.100
252.000	28.840	0.100
252.100	22.193	0.100
252.200	25.848	0.100
252.300	30.235	0.100
252.400	20.573	0.100
252.500	18.599	0.100
252.600	24.293	0.100
252.700	14.013	0.100
252.800	24.566	0.100
252.900	24.188	0.100
253.000	28.343	0.100
253.100	37.703	0.100
253.200	18.991	0.100
253.300	15.742	0.100
253.400	32.698	0.100
253.500	27.382	0.100
253.600	36.217	0.100
253.700	33.165	0.100
253.800	18.200	0.100
253.900	29.463	0.100
254.000	27.082	0.100
254.100	40.245	0.100
254.200	24.275	0.100
254.300	22.330	0.100
254.400	17.388	0.100
254.500	21.067	0.100
254.600	19.923	0.100
254.700	15.221	0.100
254.800	56.330	0.100
254.900	33.754	0.100
255.000	28.588	0.100
255.100	17.191	0.100
255.200	31.736	0.100
255.300	13.168	0.100
255.400	38.120	0.100
255.500	39.697	0.100
255.600	28.176	0.100
255.700	36.859	0.100
255.800	24.006	0.100
255.900	29.526	0.100
256.000	18.614	0.100
256.100	31.818	0.100
256.200	24.796	0.100
256.300	24.789	0.100
256.400	39.491	0.100
256.500	32.270	0.100
256.600	38.602	0.100
256.700	26.421	0.100
256.800	40.226	0.100
256.900	34.344	0.100
257.000	15.550	0.100
257.100	22.677	0.100
257.200	26.368	0.100
257.300	36.239	0.100
257.400	28.431	0.100
257.500	28.742	0.100
257.600	25.413	0.100
257.700	27.829	0.100
257.800	30.236	0.100
257.900	23.263	0.100
258.000	36.901	0.100
258.100	37.130	0.100
258.200	38.884	0.100
258.300	28.993	0.100
258.400	30.713	0.100
258.500	30.870	0.100
258.600	32.739	0.100
258.700	23.501	0.100
258.800	24.893	0.100
258.900	31.498	0.100
259.000	37.321	0.100
259.100	31.021	0.100
259.200	34.457	0.100
259.300	42.245	0.100
259.400	32.456	0.100
259.500	36.815	0.100
259.600	27.782	0.100
259.700	20.980	0.100
259.800	16.645	0.100
259.900	26.485	0.100
260.000	30.824	0.100
260.100	28.695	0.100
260.200	38.920	0.100
260.300	39.176	0.100
260.400	36.121	0.100
260.500	34.832	0.100
260.600	29.881	0.100
260.700	26.954	0.100
260.800	34.798	0.100
260.900	33.489	0.100
261.000	39.902	0.100
261.100	34.823	0.100
261.200	32.285	0.100
261.300	31.812	0.100
261.400	23.910	0.100
261.500	22.317	0.100
261.600	26.636	0.100
261.700	37.528	0.100
261.800	33.017	0.100
261.900	30.135	0.100
262.000	33.441	0.100
262.100	35.227	0.100
262.200	35.181	0.100
262.300	39.593	0.100
262.400	30.646	0.100
262.500	31.513	0.100
262.600	26.927	0.100
262.700	26.026	0.100
262.800	32.204	0.100
262.900	26.528	0.100
263.000	34.738	0.100
263.100	34.327	0.100
263.200	26.051	0.100
263.300	26.689	0.100
263.400	40.768	0.100
263.500	38.363	0.100
263.600	33.242	0.100
263.700	29.453	0.100
263.800	32.428	0.100
263.900	34.370	0.100
264.000	25.903	0.100
264.100	27.817	0.100
264.200	36.534	0.100
264.300	35.846	0.100
264.400	12.300	0.100
264.500	31.310	0.100
264.600	38.352	0.100
264.700	27.513	0.100
264.800	24.613	0.100
264.900	29.052	0.100
265.000	39.870	0.100
265.100	21.767	0.100
265.200	33.186	0.100
265.300	35.101	0.100
265.400	25.428	0.100
265.500	23.588	0.100
265.600	37.111	0.100
265.700	31.329	0.100
265.800	26.627	0.100
265.900	32.808	0.100
266.000	25.847	0.100
266.100	24.608	0.100
266.200	28.469	0.100
266.300	28.976	0.100
266.400	33.898	0.100
266.500	39.282	0.100
266.600	29.636	0.100
266.700	32.967	0.100
266.800	25.817	0.100
266.900	27.089	0.100
267.000	38.168	0.100
267.100	36.975	0.100
267.200	31.945	0.100
267.300	28.766	0.100
267.400	36.524	0.100
267.500	33.106	0.100
267.600	29.774	0.100
267.700	37.112	0.100
267.800	27.031	0.100
267.900	32.090	0.100
268.000	22.710	0.100
268.100	26.325	0.100
268.200	28.192	0.100
268.300	40.437	0.100
268.400	31.223	0.100
268.500	24.129	0.100
268.600	34.346	0.100
268.700	19.597	0.100
268.800	33.692	0.100
268.900	34.615	0.100
269.000	35.272	0.100
269.100	30.371	0.100
269.200	41.846	0.100
269.300	27.982	0.100
269.400	29.971	0.100
269.500	31.866	0.100
269.600	37.685	0.100
269.700	40.063	0.100
269.800	38.865	0.100
269.900	33.079	0.100
270.000	27.642	0.100
270.100	31.716	0.100
270.200	23.081	0.100
270.300	36.698	0.100
270.400	30.256	0.100
270.500	34.590	0.100
270.600	24.287	0.100
270.700	20.300	0.100
270.800	29.056	0.100
270.900	26.306	0.100
271.000	33.491	0.100
271.100	35.642	0.100
271.200	37.308	0.100
271.300	41.871	0.100
271.400	30.350	0.100
271.500	38.341	0.100
271.600	36.347	0.100
271.700	17.304	0.100
271.800	18.365	0.100
271.900	31.408	0.100
272.000	39.671	0.100
272.100	26.325	0.100
272.200	28.072	0.100
272.300	19.934	0.100
272.400	22.110	0.100
272.500	36.226	0.100
272.600	36.080	0.100
272.700	26.318	0.100
272.800	21.905	0.100
272.900	32.459	0.100
273.000	28.401	0.100
273.100	39.774	0.100
273.200	19.913	0.100
273.300	37.905	0.100
273.400	21.188	0.100
273.500	35.799	0.100
273.600	24.825	0.100
273.700	37.219	0.100
273.800	41.172	0.100
273.900	24.953	0.100
274.000	31.111	0.100
274.100	37.095	0.100
274.200	31.550	0.100
274.300	30.732	0.100
274.400	31.814	0.100
274.500	25.879	0.100
274.600	32.400	0.100
274.700	27.835	0.100
274.800	41.692	0.100
274.900	37.319	0.100
275.000	36.333	0.100
275.100	19.974	0.100
275.200	25.426	0.100
275.300	33.382	0.100
275.400	22.056	0.100
275.500	44.037	0.100
275.600	26.918	0.100
275.700	23.641	0.100
275.800	28.735	0.100
275.900	43.068	0.100
276.000	26.577	0.100
276.100	30.271	0.100
276.200	22.338	0.100
276.300	20.002	0.100
276.400	36.698	0.100
276.500	26.624	0.100
276.600	37.994	0.100
276.700	26.316	0.100
276.800	25.209	0.100
276.900	32.819	0.100
277.000	30.287	0.100
277.100	35.222	0.100
277.200	35.139	0.100
277.300	28.702	0.100
277.400	35.950	0.100
277.500	25.934	0.100
277.600	25.385	0.100
277.700	38.635	0.100
277.800	15.757	0.100
277.900	24.806	0.100
278.000	35.442	0.100
278.100	24.840	0.100
278.200	32.896	0.100
278.300	24.685	0.100
278.400	24.560	0.100
278.500	41.896	0.100
278.600	37.346	0.100
278.700	27.065	0.100
278.800	26.335	0.100
278.900	36.760	0.100
279.000	32.416	0.100
279.100	33.493	0.100
279.200	29.185	0.100
279.300	32.292	0.100
279.400	28.776	0.100
279.500	37.486	0.100
279.600	35.449	0.100
279.700	28.714	0.100
279.800	22.627	0.100
279.900	29.960	0.100
280.000	25.890	0.100
280.100	38.894	0.100
280.200	12.432	0.100
280.300	30.535	0.100
280.400	39.592	0.100
280.500	36.497	0.100
280.600	36.973	0.100
280.700	32.159	0.100
280.800	11.282	0.100
280.900	35.150	0.100
281.000	24.630	0.100
281.100	33.056	0.100
281.200	28.429	0.100
281.300	29.726	0.100
281.400	33.268	0.100
281.500	30.012	0.100
281.600	36.721	0.100
281.700	28.623	0.100
281.800	32.412	0.100
281.900	33.511	0.100
282.000	34.279	0.100
282.100	22.983	0.100
282.200	30.089	0.100
282.300	23.947	0.100
282.400	25.169	0.100
282.500	28.801	0.100
282.600	23.408	0.100
282.700	30.391	0.100
282.800	28.374	0.100
282.900	35.703	0.100
283.000	29.303	0.100
283.100	32.951	0.100
283.200	28.020	0.100
283.300	40.316	0.100
283.400	20.141	0.100
283.500	43.611	0.100
283.600	26.765	0.100
283.700	26.692	0.100
283.800	28.300	0.100
283.900	35.472	0.100
284.000	29.242	0.100
284.100	29.650	0.100
284.200	31.349	0.100
284.300	32.848	0.100
284.400	33.564	0.100
284.500	37.455	0.100
284.600	28.287	0.100
284.700	29.233	0.100
284.800	45.068	0.100
284.900	19.388	0.100
285.000	25.006	0.100
285.100	36.685	0.100
285.200	38.350	0.100
285.300	28.103	0.100
285.400	33.678	0.100
285.500	22.356	0.100
285.600	23.389	0.100
285.700	30.746	0.100
285.800	34.534	0.100
285.900	30.313	0.100
286.000	38.908	0.100
286.100	34.887	0.100
286.200	23.190	0.100
286.300	31.343	0.100
286.400	29.203	0.100
286.500	38.403	0.100
286.600	34.803	0.100
286.700	24.464	0.100
286.800	28.147	0.100
286.900	43.295	0.100
287.000	21.688	0.100
287.100	26.623	0.100
287.200	21.477	0.100
287.300	28.970	0.100
287.400	32.949	0.100
287.500	29.024	0.100
287.600	25.902	0.100
287.700	32.611	0.100
287.800	38.262	0.100
287.900	30.822	0.100
288.000	15.108	0.100
288.100	19.611	0.100
288.200	29.971	0.100
288.300	40.910	0.100
288.400	21.637	0.100
288.500	24.423	0.100
288.600	37.002	0.100
288.700	26.249	0.100
288.800	35.279	0.100
288.900	33.082	0.100
289.000	28.056	0.100
289.100	28.464	0.100
289.200	26.583	0.100
289.300	35.658	0.100
289.400	39.076	0.100
289.500	27.811	0.100
289.600	24.450	0.100
289.700	25.173	0.100
289.800	21.348	0.100
289.900	29.252	0.100
290.000	19.742	0.100
290.100	20.262	0.100
290.200	34.980	0.100
290.300	38.338	0.100
290.400	41.105	0.100
290.500	26.221	0.100
290.600	31.303	0.100
290.700	25.178	0.100
290.800	30.000	0.100
290.900	26.309	0.100
291.000	26.464	0.100
291.100	20.224	0.100
291.200	16.973	0.100
291.300	32.278	0.100
291.400	34.505	0.100
291.500	32.907	0.100
291.600	30.135	0.100
291.700	26.977	0.100
291.800	31.293	0.100
291.900	45.178	0.100
292.000	35.694	0.100
292.100	23.718	0.100
292.200	15.824	0.100
292.300	21.957	0.100
292.400	37.954	0.100
292.500	35.540	0.100
292.600	22.807	0.100
292.700	31.646	0.100
292.800	41.071	0.100
292.900	32.473	0.100
293.000	30.688	0.100
293.100	25.306	0.100
293.200	20.749	0.100
293.300	31.859	0.100
293.400	33.887	0.100
293.500	17.139	0.100
293.600	23.981	0.100
293.700	34.310	0.100
293.800	31.046	0.100
293.900	32.485	0.100
294.000	18.125	0.100
294.100	20.917	0.100
294.200	25.673	0.100
294.300	26.977	0.100
294.400	33.008	0.100
294.500	32.830	0.100
294.600	40.757	0.100
294.700	30.864	0.100
294.800	23.103	0.100
294.900	20.951	0.100
295.000	37.426	0.100
295.100	31.041	0.100
295.200	34.067	0.100
295.300	26.943	0.100
295.400	25.231	0.100
295.500	34.836	0.100
295.600	15.656	0.100
295.700	28.752	0.100
295.800	35.081	0.100
295.900	31.999	0.100
296.000	35.669	0.100
296.100	32.478	0.100
296.200	19.189	0.100
296.300	21.604	0.100
296.400	19.442	0.100
296.500	21.030	0.100
296.600	34.386	0.100
296.700	26.450	0.100
296.800	30.117	0.100
296.900	23.417	0.100
297.000	34.221	0.100
297.100	24.678	0.100
297.200	29.290	0.100
297.300	30.688	0.100
297.400	33.201	0.100
297.500	22.803	0.100
297.600	19.129	0.100
297.700	29.025	0.100
297.800	20.044	0.100
297.900	24.861	0.100
298.000	38.191	0.100
298.100	42.841	0.100
298.200	38.282	0.100
298.300	32.108	0.100
298.400	28.960	0.100
298.500	28.251	0.100
298.600	38.010	0.100
298.700	28.906	0.100
298.800	35.818	0.100
298.900	18.805	0.100
299.000	29.310	0.100
299.100	29.283	0.100
299.200	25.908	0.100
299.300	24.864	0.100
299.400	42.440	0.100
299.500	33.465	0.100
299.600	16.278	0.100
299.700	34.792	0.100
299.800	37.469	0.100
299.900	14.947	0.100
300.000	25.255	0.100
300.100	38.326	0.100
300.200	27.014	0.100
300.300	14.419	0.100
300.400	11.537	0.100
300.500	15.699	0.100
300.600	2.692	0.100
300.700	-4.893	0.100
300.800	-16.261	0.100
300.900	-12.557	0.100
301.000	1.185	0.100
301.100	-12.452	0.100
301.200	-21.736	0.100
301.300	-23.409	0.100
301.400	-30.096	0.100
301.500	-32.846	0.100
301.600	-24.015	0.100
301.700	-23.967	0.100
301.800	-49.024	0.100
301.900	-47.731	0.100
302.000	-42.040	0.100
302.100	-40.921	0.100
302.200	-41.832	0.100
302.300	-50.814	0.100
302.400	-39.396	0.100
302.500	-44.083	0.100
302.600	-53.314	0.100
302.700	-49.205	0.100
302.800	-52.780	0.100
302.900	-56.345	0.100
303.000	-60.636	0.100
303.100	-60.910	0.100
303.200	-49.726	0.100
303.300	-54.514	0.100
303.400	-61.502	0.100
303.500	-61.389	0.100
303.600	-67.071	0.100
303.700	-57.603	0.100
303.800	-62.512	0.100
303.900	-63.789	0.100
304.000	-66.347	0.100
304.100	-62.578	0.100
304.200	-63.873	0.100
304.300	-59.435	0.100
304.400	-67.034	0.100
304.500	-59.686	0.100
304.600	-78.776	0.100
304.700	-75.487	0.100
304.800	-67.425	0.100
304.900	-47.381	0.100
305.000	-59.043	0.100
305.100	-56.194	0.100
305.200	-59.720	0.100
305.300	-66.526	0.100
305.400	-61.207	0.100
305.500	-64.370	0.100
305.600	-68.070	0.100
305.700	-79.554	0.100
305.800	-53.880	0.100
305.900	-70.287	0.100
306.000	-60.480	0.100
306.100	-69.711	0.100
306.200	-70.907	0.100
306.300	-63.746	0.100
306.400	-73.662	0.100
306.500	-70.105	0.100
306.600	-66.015	0.100
306.700	-72.357	0.100
306.800	-59.343	0.100
306.900	-64.083	0.100
307.000	-57.142	0.100
307.100	-72.375	0.100
307.200	-70.442	0.100
307.300	-60.056	0.100
307.400	-59.975	0.100
307.500	-58.424	0.100
307.600	-66.472	0.100
307.700	-64.487	0.100
307.800	-70.164	0.100
307.900	-61.630	0.100
308.000	-70.254	0.100
308.100	-65.321	0.100
308.200	-79.221	0.100
308.300	-74.682	0.100
308.400	-51.445	0.100
308.500	-58.307	0.100
308.600	-68.537	0.100
308.700	-62.965	0.100
308.800	-64.857	0.100
308.900	-68.055	0.100
309.000	-69.927	0.100
309.100	-81.964	0.100
309.200	-67.975	0.100
309.300	-57.039	0.100
309.400	-61.222	0.100
309.500	-63.336	0.100
309.600	-77.909	0.100
309.700	-70.380	0.100
309.800	-72.931	0.100
309.900	-50.230	0.100
310.000	-61.320	0.100
310.100	-78.579	0.100
310.200	-48.551	0.100
310.300	-52.096	0.100
310.400	-50.956	0.100
310.500	-39.707	0.100
310.600	-29.234	0.100
310.700	-24.321	0.100
310.800	-9.797	0.100
310.900	-20.519	0.100
311.000	-18.713	0.100
311.100	4.752	0.100
311.200	1.650	0.100
311.300	-0.727	0.100
311.400	3.103	0.100
311.500	-2.226	0.100
311.600	5.960	0.100
311.700	-6.516	0.100
311.800	14.228	0.100
311.900	-1.164	0.100
312.000	13.580	0.100
312.100	10.359	0.100
312.200	1.612	0.100
312.300	2.818	0.100
312.400	9.822	0.100
312.500	15.998	0.100
312.600	-4.890	0.100
312.700	23.249	0.100
312.800	7.943	0.100
312.900	12.737	0.100
313.000	9.410	0.100
313.100	8.341	0.100
313.200	3.936	0.100
313.300	-5.349	0.100
313.400	7.164	0.100
313.500	-6.229	0.100
313.600	3.057	0.100
313.700	6.288	0.100
313.800	5.772	0.100
313.900	14.286	0.100
314.000	2.282	0.100
314.100	-0.722	0.100
314.200	12.348	0.100
314.300	-5.672	0.100
314.400	10.582	0.100
314.500	5.384	0.100
314.600	3.501	0.100
314.700	-0.610	0.100
314.800	-19.832	0.100
314.900	3.109	0.100
315.000	-4.303	0.100
315.100	0.747	0.100
315.200	-2.599	0.100
315.300	-0.484	0.100
315.400	-1.965	0.100
315.500	11.870	0.100
315.600	-7.725	0.100
315.700	-0.678	0.100
315.800	0.382	0.100
315.900	7.857	0.100
316.000	-1.728	0.100
316.100	3.875	0.100
316.200	-3.390	0.100
316.300	-5.383	0.100
316.400	7.323	0.100
316.500	0.081	0.100
316.600	7.825	0.100
316.700	5.704	0.100
316.800	9.759	0.100
316.900	5.250	0.100
317.000	9.671	0.100
317.100	5.760	0.100
317.200	1.455	0.100
317.300	2.358	0.100
317.400	5.922	0.100
317.500	18.860	0.100
317.600	7.739	0.100
317.700	28.548	0.100
317.800	10.352	0.100
317.900	8.258	0.100
318.000	5.168	0.100
318.100	15.021	0.100
318.200	14.782	0.100
318.300	5.477	0.100
318.400	3.209	0.100
318.500	13.066	0.100
318.600	10.874	0.100
318.700	8.659	0.100
318.800	23.390	0.100
318.900	7.938	0.100
319.000	7.952	0.100
319.100	19.501	0.100
319.200	21.485	0.100
319.300	28.320	0.100
319.400	20.636	0.100
319.500	21.975	0.100
319.600	15.828	0.100
319.700	17.315	0.100
319.800	16.390	0.100
319.900	21.466	0.100
320.000	16.361	0.100
320.100	20.157	0.100
320.200	11.194	0.100
320.300	7.338	0.100
320.400	15.092	0.100
320.500	12.130	0.100
320.600	13.767	0.100
320.700	31.518	0.100
320.800	28.380	0.100
320.900	29.823	0.100
321.000	15.287	0.100
321.100	29.775	0.100
321.200	26.697	0.100
321.300	26.124	0.100
321.400	10.107	0.100
321.500	18.681	0.100
321.600	21.746	0.100
321.700	13.541	0.100
321.800	23.622	0.100
321.900	12.902	0.100
322.000	23.514	0.100
322.100	25.930	0.100
322.200	27.035	0.100
322.300	23.371	0.100
322.400	23.757	0.100
322.500	32.512	0.100
322.600	21.245	0.100
322.700	11.659	0.100
322.800	22.047	0.100
322.900	23.927	0.100
323.000	28.705	0.100
323.100	15.050	0.100
323.200	27.476	0.100
323.300	34.299	0.100
323.400	18.260	0.100
323.500	19.580	0.100
323.600	25.961	0.100
323.700	27.180	0.100
323.800	22.459	0.100
323.900	31.621	0.100
324.000	31.124	0.100
324.100	35.826	0.100
324.200	23.262	0.100
324.300	21.060	0.100
324.400	26.183	0.100
324.500	28.386	0.100
324.600	27.935	0.100
324.700	33.708	0.100
324.800	17.250	0.100
324.900	21.379	0.100
325.000	26.940	0.100
325.100	34.054	0.100
325.200	23.359	0.100
325.300	41.510	0.100
325.400	24.572	0.100
325.500	34.942	0.100
325.600	24.424	0.100
325.700	34.182	0.100
325.800	27.716	0.100
325.900	26.016	0.100
326.000	22.510	0.100
326.100	30.220	0.100
326.200	26.357	0.100
326.300	21.714	0.100
326.400	17.292	0.100
326.500	22.296	0.100
326.600	17.011	0.100
326.700	41.972	0.100
326.800	33.444	0.100
326.900	29.516	0.100
327.000	23.917	0.100
327.100	23.352	0.100
327.200	29.259	0.100
327.300	29.103	0.100
327.400	32.316	0.100
327.500	25.970	0.100
327.600	20.760	0.100
327.700	34.051	0.100
327.800	39.666	0.100
327.900	30.338	0.100
328.000	37.432	0.100
328.100	22.646	0.100
328.200	35.804	0.100
328.300	21.022	0.100
328.400	22.824	0.100
328.500	28.709	0.100
328.600	32.075	0.100
328.700	38.450	0.100
328.800	19.053	0.100
328.900	28.760	0.100
329.000	30.357	0.100
329.100	24.169	0.100
329.200	34.572	0.100
329.300	34.713	0.100
329.400	30.602	0.100
329.500	24.710	0.100
329.600	12.738	0.100
329.700	29.695	0.100
329.800	27.783	0.100
329.900	30.152	0.100
330.000	27.450	0.100
330.100	15.887	0.100
330.200	29.200	0.100
330.300	26.919	0.100
330.400	37.158	0.100
330.500	40.081	0.100
330.600	35.205	0.100
330.700	29.926	0.100
330.800	27.432	0.100
330.900	33.223	0.100
331.000	31.903	0.100
331.100	28.164	0.100
331.200	26.453	0.100
331.300	30.077	0.100
331.400	28.864	0.100
331.500	23.948	0.100
331.600	29.527	0.100
331.700	30.510	0.100
331.800	37.085	0.100
331.900	33.624	0.100
332.000	19.885	0.100
332.100	39.512	0.100
332.200	31.958	0.100
332.300	33.808	0.100
332.400	28.982	0.100
332.500	35.088	0.100
332.600	18.210	0.100
332.700	26.707	0.100
332.800	37.439	0.100
332.900	39.378	0.100
333.000	31.265	0.100
333.100	37.670	0.100
333.200	23.695	0.100
333.300	23.732	0.100
333.400	22.745	0.100
333.500	22.077	0.100
333.600	27.527	0.100
333.700	27.818	0.100
333.800	39.045	0.100
333.900	27.260	0.100
334.000	31.433	0.100
334.100	32.708	0.100
334.200	34.613	0.100
334.300	24.072	0.100
334.400	31.751	0.100
334.500	39.530	0.100
334.600	23.535	0.100
334.700	22.583	0.100
334.800	39.555	0.100
334.900	28.227	0.100
335.000	35.788	0.100
335.100	30.249	0.100
335.200	27.790	0.100
335.300	19.348	0.100
335.400	34.811	0.100
335.500	33.328	0.100
335.600	23.660	0.100
335.700	22.869	0.100
335.800	34.863	0.100
335.900	31.716	0.100
336.000	28.804	0.100
336.100	20.546	0.100
336.200	32.153	0.100
336.300	28.832	0.100
336.400	25.446	0.100
336.500	39.837	0.100
336.600	26.717	0.100
336.700	30.651	0.100
336.800	32.227	0.100
336.900	24.265	0.100
337.000	35.860	0.100
337.100	36.781	0.100
337.200	26.561	0.100
337.300	33.639	0.100
337.400	36.367	0.100
337.500	34.065	0.100
337.600	43.703	0.100
337.700	30.730	0.100
337.800	31.978	0.100
337.900	35.152	0.100
338.000	19.070	0.100
338.100	22.840	0.100
338.200	12.135	0.100
338.300	21.690	0.100
338.400	28.701	0.100
338.500	34.024	0.100
338.600	25.442	0.100
338.700	34.015	0.100
338.800	32.053	0.100
338.900	22.435	0.100
339.000	28.528	0.100
339.100	31.849	0.100
339.200	25.184	0.100
339.300	31.592	0.100
339.400	31.161	0.100
339.500	29.639	0.100
339.600	22.253	0.100
339.700	39.138	0.100
339.800	34.199	0.100
339.900	24.811	0.100
340.000	29.371	0.100
340.100	30.924	0.100
340.200	29.388	0.100
340.300	29.590	0.100
340.400	34.867	0.100
340.500	32.428	0.100
340.600	17.102	0.100
340.700	29.644	0.100
340.800	28.374	0.100
340.900	20.445	0.100
341.000	38.244	0.100
341.100	32.534	0.100
341.200	34.721	0.100
341.300	16.357	0.100
341.400	14.645	0.100
341.500	29.532	0.100
341.600	27.257	0.100
341.700	26.851	0.100
341.800	27.972	0.100
341.900	31.548	0.100
342.000	38.338	0.100
342.100	17.194	0.100
342.200	39.773	0.100
342.300	35.507	0.100
342.400	20.652	0.100
342.500	28.729	0.100
342.600	39.481	0.100
342.700	25.920	0.100
342.800	26.939	0.100
342.900	39.909	0.100
343.000	36.705	0.100
343.100	41.147	0.100
343.200	27.617	0.100
343.300	15.189	0.100
343.400	34.389	0.100
343.500	23.533	0.100
343.600	33.665	0.100
343.700	29.462	0.100
343.800	29.149	0.100
343.900	28.444	0.100
344.000	33.273	0.100
344.100	24.907	0.100
344.200	37.404	0.100
344.300	36.350	0.100
344.400	24.020	0.100
344.500	22.152	0.100
344.600	20.279	0.100
344.700	34.331	0.100
344.800	22.938	0.100
344.900	17.565	0.100
345.000	19.140	0.100
345.100	34.158	0.100
345.200	43.968	0.100
345.300	22.816	0.100
345.400	34.426	0.100
345.500	35.882	0.100
345.600	31.435	0.100
345.700	18.087	0.100
345.800	21.127	0.100
345.900	21.610	0.100
346.000	33.977	0.100
346.100	29.739	0.100
346.200	32.756	0.100
346.300	30.430	0.100
346.400	23.010	0.100
346.500	27.999	0.100
346.600	30.894	0.100
346.700	40.182	0.100
346.800	39.742	0.100
346.900	33.681	0.100
347.000	21.001	0.100
347.100	34.357	0.100
347.200	30.842	0.100
347.300	27.507	0.100
347.400	42.815	0.100
347.500	45.141	0.100
347.600	31.220	0.100
347.700	30.226	0.100
347.800	18.665	0.100
347.900	35.943	0.100
348.000	39.511	0.100
348.100	26.217	0.100
348.200	21.487	0.100
348.300	28.003	0.100
348.400	31.462	0.100
348.500	28.888	0.100
348.600	26.017	0.100
348.700	28.417	0.100
348.800	21.038	0.100
348.900	21.535	0.100
349.000	36.529	0.100
349.100	21.759	0.100
349.200	25.392	0.100
349.300	22.787	0.100
349.400	34.677	0.100
349.500	30.563	0.100
349.600	32.539	0.100
349.700	29.655	0.100
349.800	27.988	0.100
349.900	37.213	0.100
350.000	39.484	0.100
350.100	34.456	0.100
350.200	25.160	0.100
350.300	26.647	0.100
350.400	17.125	0.100
350.500	21.475	0.100
350.600	36.344	0.100
350.700	30.835	0.100
350.800	31.608	0.100
350.900	31.856	0.100
351.000	21.656	0.100
351.100	31.340	0.100
351.200	37.578	0.100
351.300	24.919	0.100
351.400	21.004	0.100
351.500	26.307	0.100
351.600	16.034	0.100
351.700	32.509	0.100
351.800	10.244	0.100
351.900	36.635	0.100
352.000	35.092	0.100
352.100	35.424	0.100
352.200	38.896	0.100
352.300	23.144	0.100
352.400	22.208	0.100
352.500	24.743	0.100
352.600	25.458	0.100
352.700	27.455	0.100
352.800	29.802	0.100
352.900	21.744	0.100
353.000	23.586	0.100
353.100	33.752	0.100
353.200	30.616	0.100
353.300	24.291	0.100
353.400	27.198	0.100
353.500	28.372	0.100
353.600	45.687	0.100
353.700	26.927	0.100
353.800	27.202	0.100
353.900	25.586	0.100
354.000	25.918	0.100
354.100	26.933	0.100
354.200	32.735	0.100
354.300	38.305	0.100
354.400	24.534	0.100
354.500	29.595	0.100
354.600	17.351	0.100
354.700	24.006	0.100
354.800	36.636	0.100
354.900	23.867	0.100
355.000	21.668	0.100
355.100	33.952	0.100
355.200	31.771	0.100
355.300	26.946	0.100
355.400	28.934	0.100
355.500	21.081	0.100
355.600	30.138	0.100
355.700	25.214	0.100
355.800	30.429	0.100
355.900	27.692	0.100
356.000	36.873	0.100
356.100	34.691	0.100
356.200	38.596	0.100
356.300	36.990	0.100
356.400	23.874	0.100
356.500	29.816	0.100
356.600	28.141	0.100
356.700	26.910	0.100
356.800	18.147	0.100
356.900	31.112	0.100
357.000	33.686	0.100
357.100	27.287	0.100
357.200	39.207	0.100
357.300	29.929	0.100
357.400	30.380	0.100
357.500	12.151	0.100
357.600	26.373	0.100
357.700	30.100	0.100
357.800	31.314	0.100
357.900	33.397	0.100
358.000	37.317	0.100
358.100	14.902	0.100
358.200	28.011	0.100
358.300	23.317	0.100
358.400	28.319	0.100
358.500	39.573	0.100
358.600	34.818	0.100
358.700	32.722	0.100
358.800	35.698	0.100
358.900	27.551	0.100
359.000	29.153	0.100
359.100	17.635	0.100
359.200	30.074	0.100
359.300	29.354	0.100
359.400	35.807	0.100
359.500	32.326	0.100
359.600	23.230	0.100
359.700	34.337	0.100
359.800	29.158	0.100
359.900	13.649	0.100
360.000	31.298	0.100
360.100	29.140	0.100
360.200	34.578	0.100
360.300	28.537	0.100
360.400	20.428	0.100
360.500	15.209	0.100
360.600	20.446	0.100
360.700	21.712	0.100
360.800	35.698	0.100
360.900	30.373	0.100
361.000	30.548	0.100
361.100	25.859	0.100
361.200	32.306	0.100
361.300	29.228	0.100
361.400	16.362	0.100
361.500	37.537	0.100
361.600	24.395	0.100
361.700	26.281	0.100
361.800	34.461	0.100
361.900	22.663	0.100
362.000	24.265	0.100
362.100	29.375	0.100
362.200	21.239	0.100
362.300	38.426	0.100
362.400	28.462	0.100
362.500	35.889	0.100
362.600	20.835	0.100
362.700	40.658	0.100
362.800	23.714	0.100
362.900	27.114	0.100
363.000	22.819	0.100
363.100	35.806	0.100
363.200	21.997	0.100
363.300	18.721	0.100
363.400	30.908	0.100
363.500	31.548	0.100
363.600	25.282	0.100
363.700	34.149	0.100
363.800	25.854	0.100
363.900	26.306	0.100
364.000	27.445	0.100
364.100	21.799	0.100
364.200	36.102	0.100
364.300	21.992	0.100
364.400	27.181	0.100
364.500	25.395	0.100
364.600	32.492	0.100
364.700	31.786	0.100
364.800	13.311	0.100
364.900	28.468	0.100
365.000	32.072	0.100
365.100	28.080	0.100
365.200	25.674	0.100
365.300	28.740	0.100
365.400	38.614	0.100
365.500	34.168	0.100
365.600	33.415	0.100
365.700	30.293	0.100
365.800	29.963	0.100
365.900	21.317	0.100
366.000	34.966	0.100
366.100	15.637	0.100
366.200	27.660	0.100
366.300	32.270	0.100
366.400	25.918	0.100
366.500	29.090	0.100
366.600	29.387	0.100
366.700	30.541	0.100
366.800	32.972	0.100
366.900	21.247	0.100
367.000	31.604	0.100
367.100	27.995	0.100
367.200	29.617	0.100
367.300	29.776	0.100
367.400	17.832	0.100
367.500	25.672	0.100
367.600	28.413	0.100
367.700	32.238	0.100
367.800	31.549	0.100
367.900	21.426	0.100
368.000	29.613	0.100
368.100	30.757	0.100
368.200	26.460	0.100
368.300	22.598	0.100
368.400	23.724	0.100
368.500	21.254	0.100
368.600	35.657	0.100
368.700	25.198	0.100
368.800	25.546	0.100
368.900	42.388	0.100
369.000	36.142	0.100
369.100	37.888	0.100
369.200	26.751	0.100
369.300	14.200	0.100
369.400	22.145	0.100
369.500	22.244	0.100
369.600	32.608	0.100
369.700	39.938	0.100
369.800	16.076	0.100
369.900	25.823	0.100
370.000	26.256	0.100
370.100	26.418	0.100
370.200	20.216	0.100
370.300	17.373	0.100
370.400	16.601	0.100
370.500	15.682	0.100
370.600	8.667	0.100
370.700	-0.371	0.100
370.800	-7.523	0.100
370.900	-16.234	0.100
371.000	-15.169	0.100
371.100	-26.335	0.100
371.200	-32.566	0.100
371.300	-22.331	0.100
371.400	-26.288	0.100
371.500	-21.490	0.100
371.600	-32.363	0.100
371.700	-31.471	0.100
371.800	-44.896	0.100
371.900	-31.254	0.100
372.000	-28.046	0.100
372.100	-53.547	0.100
372.200	-59.722	0.100
372.300	-48.898	0.100
372.400	-53.405	0.100
372.500	-52.849	0.100
372.600	-50.972	0.100
372.700	-46.931	0.100
372.800	-56.872	0.100
372.900	-71.695	0.100
373.000	-49.893	0.100
373.100	-55.925	0.100
373.200	-70.694	0.100
373.300	-60.201	0.100
373.400	-67.193	0.100
373.500	-59.299	0.100
373.600	-71.207	0.100
373.700	-62.610	0.100
373.800	-60.610	0.100
373.900	-71.799	0.100
374.000	-73.598	0.100
374.100	-69.693	0.100
374.200	-64.932	0.100
374.300	-68.911	0.100
374.400	-72.068	0.100
374.500	-61.412	0.100
374.600	-69.087	0.100
374.700	-67.186	0.100
374.800	-63.475	0.100
374.900	-64.174	0.100
375.000	-75.344	0.100
375.100	-55.234	0.100
375.200	-63.901	0.100
375.300	-70.428	0.100
375.400	-72.556	0.100
375.500	-79.039	0.100
375.600	-66.717	0.100
375.700	-61.743	0.100
375.800	-70.646	0.100
375.900	-69.565	0.100
376.000	-72.792	0.100
376.100	-70.041	0.100
376.200	-76.720	0.100
376.300	-62.676	0.100
376.400	-69.286	0.100
376.500	-70.943	0.100
376.600	-65.248	0.100
376.700	-79.392	0.100
376.800	-74.034	0.100
376.900	-62.770	0.100
377.000	-62.084	0.100
377.100	-67.490	0.100
377.200	-75.495	0.100
377.300	-65.489	0.100
377.400	-72.137	0.100
377.500	-59.812	0.100
377.600	-64.052	0.100
377.700	-66.365	0.100
377.800	-66.858	0.100
377.900	-68.562	0.100
378.000	-56.425	0.100
378.100	-69.547	0.100
378.200	-66.728	0.100
378.300	-60.262	0.100
378.400	-63.644	0.100
378.500	-64.735	0.100
378.600	-73.083	0.100
378.700	-74.032	0.100
378.800	-72.807	0.100
378.900	-74.050	0.100
379.000	-75.010	0.100
379.100	-62.934	0.100
379.200	-72.533	0.100
379.300	-60.593	0.100
379.400	-70.056	0.100
379.500	-75.042	0.100
379.600	-68.973	0.100
379.700	-74.101	0.100
379.800	-82.743	0.100
379.900	-71.386	0.100
380.000	-54.088	0.100
380.100	-55.209	0.100
380.200	-60.404	0.100
380.300	-63.482	0.100
380.400	-51.925	0.100
380.500	-33.953	0.100
380.600	-34.110	0.100
380.700	-25.453	0.100
380.800	-22.860	0.100
380.900	-16.387	0.100
381.000	-16.091	0.100
381.100	3.733	0.100
381.200	6.249	0.100
381.300	-5.419	0.100
381.400	-15.418	0.100
381.500	4.306	0.100
381.600	3.381	0.100
381.700	11.944	0.100
381.800	14.654	0.100
381.900	14.832	0.100
382.000	17.130	0.100
382.100	4.504	0.100
382.200	3.912	0.100
382.300	4.478	0.100
382.400	19.782	0.100
382.500	8.852	0.100
382.600	11.498	0.100
382.700	4.452	0.100
382.800	1.295	0.100
382.900	4.494	0.100
383.000	2.674	0.100
383.100	9.491	0.100
383.200	3.389	0.100
383.300	12.177	0.100
383.400	22.663	0.100
383.500	15.891	0.100
383.600	13.364	0.100
383.700	7.363	0.100
383.800	2.775	0.100
383.900	-1.466	0.100
384.000	8.080	0.100
384.100	12.310	0.100
384.200	-4.328	0.100
384.300	-1.019	0.100
384.400	-1.747	0.100
384.500	8.596	0.100
384.600	1.478	0.100
384.700	-6.201	0.100
384.800	-13.338	0.100
384.900	6.994	0.100
385.000	8.940	0.100
385.100	6.818	0.100
385.200	-2.688	0.100
385.300	-12.744	0.100
385.400	-3.147	0.100
385.500	-8.766	0.100
385.600	13.934	0.100
385.700	12.085	0.100
385.800	-0.518	0.100
385.900	8.615	0.100
386.000	-12.957	0.100
386.100	9.179	0.100
386.200	7.137	0.100
386.300	9.885	0.100
386.400	-5.854	0.100
386.500	12.548	0.100
386.600	0.014	0.100
386.700	12.343	0.100
386.800	3.053	0.100
386.900	5.906	0.100
387.000	1.713	0.100
387.100	-1.303	0.100
387.200	9.214	0.100
387.300	6.943	0.100
387.400	10.466	0.100
387.500	15.044	0.100
387.600	11.177	0.100
387.700	10.024	0.100
387.800	7.426	0.100
387.900	1.568	0.100
388.000	8.306	0.100
388.100	23.148	0.100
388.200	7.343	0.100
388.300	8.074	0.100
388.400	-0.751	0.100
388.500	7.558	0.100
388.600	21.153	0.100
388.700	3.312	0.100
388.800	23.528	0.100
388.900	20.774	0.100
389.000	17.039	0.100
389.100	12.136	0.100
389.200	10.284	0.100
389.300	17.292	0.100
389.400	7.910	0.100
389.500	3.091	0.100
389.600	8.041	0.100
389.700	21.483	0.100
389.800	12.763	0.100
389.900	15.613	0.100
390.000	19.610	0.100
390.100	21.582	0.100
390.200	14.273	0.100
390.300	21.549	0.100
390.400	13.283	0.100
390.500	20.158	0.100
390.600	15.547	0.100
390.700	6.673	0.100
390.800	30.466	0.100
390.900	25.191	0.100
391.000	21.018	0.100
391.100	24.152	0.100
391.200	23.602	0.100
391.300	17.874	0.100
391.400	24.608	0.100
391.500	23.329	0.100
391.600	22.577	0.100
391.700	2.256	0.100
391.800	14.484	0.100
391.900	34.966	0.100
392.000	13.982	0.100
392.100	19.811	0.100
392.200	21.362	0.100
392.300	36.165	0.100
392.400	22.629	0.100
392.500	25.455	0.100
392.600	4.577	0.100
392.700	23.447	0.100
392.800	25.912	0.100
392.900	22.501	0.100
393.000	22.337	0.100
393.100	11.687	0.100
393.200	18.311	0.100
393.300	11.979	0.100
393.400	20.309	0.100
393.500	32.463	0.100
393.600	23.755	0.100
393.700	38.952	0.100
393.800	20.116	0.100
393.900	29.112	0.100
394.000	28.997	0.100
394.100	9.353	0.100
394.200	31.693	0.100
394.300	24.346	0.100
394.400	15.001	0.100
394.500	33.086	0.100
394.600	38.451	0.100
394.700	21.845	0.100
394.800	29.950	0.100
394.900	22.619	0.100
395.000	27.002	0.100
395.100	35.351	0.100
395.200	19.840	0.100
395.300	21.080	0.100
395.400	25.815	0.100
395.500	33.637	0.100
395.600	21.311	0.100
395.700	22.694	0.100
395.800	28.420	0.100
395.900	32.759	0.100
396.000	18.213	0.100
396.100	24.727	0.100
396.200	32.257	0.100
396.300	21.257	0.100
396.400	28.447	0.100
396.500	37.456	0.100
396.600	32.767	0.100
396.700	28.012	0.100
396.800	21.362	0.100
396.900	30.850	0.100
397.000	36.379	0.100
397.100	40.470	0.100
397.200	33.489	0.100
397.300	22.364	0.100
397.400	18.148	0.100
397.500	29.829	0.100
397.600	15.356	0.100
397.700	20.569	0.100
397.800	39.330	0.100
397.900	25.747	0.100
398.000	21.997	0.100
398.100	24.724	0.100
398.200	34.474	0.100
398.300	34.237	0.100
398.400	26.321	0.100
398.500	33.222	0.100
398.600	27.390	0.100
398.700	20.489	0.100
398.800	34.450	0.100
398.900	30.717	0.100
399.000	34.334	0.100
399.100	34.264	0.100
399.200	18.086	0.100
399.300	32.400	0.100
399.400	35.023	0.100
399.500	28.929	0.100
399.600	20.823	0.100
399.700	34.903	0.100
399.800	28.012	0.100
399.900	34.823	0.100
400.000	16.563	0.100
400.100	34.751	0.100
400.200	32.534	0.100
400.300	26.054	0.100
400.400	29.587	0.100
400.500	26.684	0.100
400.600	19.697	0.100
400.700	28.457	0.100
400.800	32.540	0.100
400.900	25.582	0.100
401.000	23.883	0.100
401.100	28.988	0.100
401.200	26.769	0.100
401.300	30.351	0.100
401.400	25.937	0.100
401.500	23.663	0.100
401.600	20.921	0.100
401.700	24.426	0.100
401.800	23.797	0.100
401.900	21.685	0.100
402.000	35.985	0.100
402.100	36.038	0.100
402.200	37.734	0.100
402.300	29.619	0.100
402.400	30.845	0.100
402.500	27.867	0.100
402.600	28.081	0.100
402.700	16.683	0.100
402.800	30.680	0.100
402.900	14.824	0.100
403.000	25.871	0.100
403.100	23.423	0.100
403.200	29.980	0.100
403.300	29.048	0.100
403.400	31.262	0.100
403.500	40.301	0.100
403.600	29.520	0.100
403.700	29.197	0.100
403.800	29.706	0.100
403.900	38.396	0.100
404.000	29.627	0.100
404.100	30.516	0.100
404.200	25.513	0.100
404.300	26.313	0.100
404.400	28.222	0.100
404.500	28.028	0.100
404.600	28.715	0.100
404.700	24.160	0.100
404.800	44.960	0.100
404.900	25.477	0.100
405.000	26.705	0.100
405.100	20.201	0.100
405.200	23.879	0.100
405.300	30.050	0.100
405.400	31.015	0.100
405.500	31.445	0.100
405.600	26.758	0.100
405.700	32.209	0.100
405.800	23.041	0.100
405.900	24.408	0.100
406.000	27.708	0.100
406.100	34.899	0.100
406.200	18.325	0.100
406.300	26.802	0.100
406.400	29.164	0.100
406.500	38.748	0.100
406.600	19.328	0.100
406.700	26.746	0.100
406.800	23.799	0.100
406.900	27.830	0.100
407.000	44.759	0.100
407.100	29.089	0.100
407.200	25.245	0.100
407.300	7.536	0.100
407.400	30.368	0.100
407.500	31.117	0.100
407.600	31.075	0.100
407.700	30.960	0.100
407.800	34.631	0.100
407.900	18.284	0.100
408.000	31.752	0.100
408.100	33.730	0.100
408.200	27.717	0.100
408.300	27.507	0.100
408.400	26.487	0.100
408.500	24.376	0.100
408.600	34.581	0.100
408.700	29.106	0.100
408.800	20.593	0.100
408.900	18.363	0.100
409.000	29.467	0.100
409.100	23.692	0.100
409.200	40.394	0.100
409.300	19.371	0.100
409.400	26.434	0.100
409.500	36.831	0.100
409.600	29.348	0.100
409.700	24.192	0.100
409.800	28.017	0.100
409.900	26.392	0.100
410.000	30.828	0.100
410.100	34.354	0.100
410.200	39.177	0.100
410.300	26.506	0.100
410.400	34.792	0.100
410.500	21.886	0.100
410.600	31.406	0.100
410.700	26.033	0.100
410.800	33.030	0.100
410.900	33.298	0.100
411.000	22.373	0.100
411.100	24.902	0.100
411.200	19.540	0.100
411.300	37.415	0.100
411.400	29.589	0.100
411.500	28.987	0.100
411.600	34.284	0.100
411.700	31.462	0.100
411.800	9.216	0.100
411.900	10.264	0.100
412.000	29.737	0.100
412.100	31.136	0.100
412.200	25.887	0.100
412.300	30.649	0.100
412.400	28.613	0.100
412.500	33.970	0.100
412.600	36.775	0.100
412.700	44.898	0.100
412.800	34.501	0.100
412.900	19.590	0.100
413.000	25.581	0.100
413.100	30.784	0.100
413.200	24.028	0.100
413.300	30.217	0.100
413.400	27.819	0.100
413.500	27.444	0.100
413.600	25.810	0.100
413.700	33.543	0.100
413.800	35.611	0.100
413.900	30.694	0.100
414.000	25.745	0.100
414.100	21.215	0.100
414.200	25.763	0.100
414.300	22.634	0.100
414.400	34.665	0.100
414.500	24.739	0.100
414.600	27.568	0.100
414.700	19.599	0.100
414.800	23.635	0.100
414.900	29.205	0.100
415.000	33.644	0.100
415.100	31.733	0.100
415.200	25.434	0.100
415.300	28.420	0.100
415.400	26.653	0.100
415.500	38.116	0.100
415.600	28.552	0.100
415.700	30.635	0.100
415.800	34.025	0.100
415.900	36.238	0.100
416.000	19.166	0.100
416.100	37.559	0.100
416.200	30.444	0.100
416.300	27.634	0.100
416.400	12.210	0.100
416.500	29.186	0.100
416.600	23.940	0.100
416.700	23.980	0.100
416.800	30.343	0.100
416.900	33.909	0.100
417.000	28.736	0.100
417.100	26.246	0.100
417.200	25.257	0.100
417.300	24.988	0.100
417.400	15.244	0.100
417.500	26.913	0.100
417.600	31.481	0.100
417.700	30.316	0.100
417.800	37.335	0.100
417.900	28.205	0.100
418.000	26.936	0.100
418.100	28.103	0.100
418.200	29.901	0.100
418.300	20.989	0.100
418.400	42.205	0.100
418.500	30.322	0.100
418.600	26.165	0.100
418.700	31.567	0.100
418.800	24.218	0.100
418.900	26.090	0.100
419.000	24.863	0.100
419.100	31.188	0.100
419.200	17.840	0.100
419.300	25.486	0.100
419.400	26.663	0.100
419.500	38.138	0.100
419.600	28.053	0.100
419.700	31.353	0.100
419.800	22.417	0.100
419.900	28.314	0.100
420.000	27.561	0.100
420.100	23.825	0.100
420.200	28.412	0.100
420.300	25.051	0.100
420.400	11.605	0.100
420.500	26.279	0.100
420.600	27.933	0.100
420.700	36.316	0.100
420.800	18.064	0.100
420.900	24.411	0.100
421.000	35.408	0.100
421.100	35.887	0.100
421.200	29.965	0.100
421.300	31.546	0.100
421.400	25.813	0.100
421.500	29.795	0.100
421.600	30.649	0.100
421.700	25.701	0.100
421.800	28.968	0.100
421.900	25.034	0.100
422.000	26.623	0.100
422.100	25.011	0.100
422.200	26.202	0.100
422.300	35.981	0.100
422.400	27.845	0.100
422.500	21.030	0.100
422.600	21.056	0.100
422.700	32.032	0.100
422.800	27.032	0.100
422.900	23.969	0.100
423.000	31.471	0.100
423.100	29.083	0.100
423.200	33.940	0.100
423.300	33.753	0.100
423.400	22.321	0.100
423.500	28.401	0.100
423.600	28.262	0.100
423.700	24.333	0.100
423.800	21.969	0.100
423.900	35.762	0.100
424.000	33.708	0.100
424.100	30.752	0.100
424.200	29.460	0.100
424.300	31.781	0.100
424.400	25.572	0.100
424.500	23.591	0.100
424.600	30.429	0.100
424.700	27.279	0.100
424.800	35.831	0.100
424.900	29.808	0.100
425.000	24.460	0.100
425.100	34.359	0.100
425.200	44.359	0.100
425.300	23.611	0.100
425.400	25.543	0.100
425.500	13.318	0.100
425.600	14.696	0.100
425.700	12.372	0.100
425.800	26.472	0.100
425.900	34.186	0.100
426.000	22.980	0.100
426.100	30.998	0.100
426.200	26.618	0.100
426.300	19.631	0.100
426.400	34.189	0.100
426.500	25.161	0.100
426.600	25.312	0.100
426.700	26.510	0.100
426.800	34.098	0.100
426.900	27.675	0.100
427.000	25.095	0.100
427.100	30.188	0.100
427.200	26.984	0.100
427.300	21.494	0.100
427.400	31.741	0.100
427.500	29.110	0.100
427.600	22.276	0.100
427.700	22.382	0.100
427.800	22.850	0.100
427.900	35.529	0.100
428.000	14.494	0.100
428.100	36.587	0.100
428.200	32.075	0.100
428.300	36.042	0.100
428.400	29.896	0.100
428.500	14.487	0.100
428.600	21.892	0.100
428.700	30.998	0.100
428.800	39.200	0.100
428.900	26.263	0.100
429.000	32.553	0.100
429.100	31.048	0.100
429.200	26.249	0.100
429.300	21.348	0.100
429.400	26.852	0.100
429.500	26.562	0.100
429.600	30.663	0.100
429.700	14.013	0.100
429.800	24.483	0.100
429.900	25.594	0.100
430.000	31.927	0.100
430.100	25.040	0.100
430.200	19.203	0.100
430.300	35.034	0.100
430.400	26.404	0.100
430.500	32.157	0.100
430.600	16.484	0.100
430.700	17.603	0.100
430.800	28.944	0.100
430.900	34.716	0.100
431.000	23.762	0.100
431.100	20.756	0.100
431.200	23.062	0.100
431.300	20.336	0.100
431.400	32.499	0.100
431.500	36.069	0.100
431.600	21.431	0.100
431.700	30.886	0.100
431.800	27.460	0.100
431.900	36.702	0.100
432.000	23.989	0.100
432.100	22.913	0.100
432.200	19.779	0.100
432.300	18.086	0.100
432.400	26.940	0.100
432.500	51.390	0.100
432.600	25.543	0.100
432.700	29.025	0.100
432.800	12.139	0.100
432.900	32.638	0.100
433.000	21.010	0.100
433.100	28.350	0.100
433.200	27.970	0.100
433.300	20.779	0.100
433.400	29.598	0.100
433.500	21.223	0.100
433.600	30.612	0.100
433.700	31.709	0.100
433.800	22.762	0.100
433.900	26.689	0.100
434.000	34.803	0.100
434.100	33.692	0.100
434.200	24.791	0.100
434.300	25.505	0.100
434.400	21.531	0.100
434.500	26.331	0.100
434.600	16.496	0.100
434.700	38.859	0.100
434.800	26.197	0.100
434.900	21.602	0.100
435.000	31.145	0.100
435.100	26.032	0.100
435.200	22.990	0.100
435.300	20.095	0.100
435.400	16.299	0.100
435.500	30.368	0.100
435.600	36.785	0.100
435.700	20.014	0.100
435.800	13.984	0.100
435.900	30.058	0.100
436.000	33.220	0.100
436.100	38.537	0.100
436.200	19.949	0.100
436.300	38.910	0.100
436.400	31.020	0.100
436.500	32.362	0.100
436.600	17.751	0.100
436.700	26.042	0.100
436.800	14.026	0.100
436.900	32.946	0.100
437.000	38.806	0.100
437.100	20.972	0.100
437.200	18.631	0.100
437.300	28.685	0.100
437.400	26.873	0.100
437.500	23.391	0.100
437.600	27.135	0.100
437.700	23.482	0.100
437.800	28.786	0.100
437.900	29.919	0.100
438.000	27.873	0.100
438.100	41.850	0.100
438.200	27.608	0.100
438.300	26.213	0.100
438.400	16.183	0.100
438.500	32.738	0.100
438.600	25.760	0.100
438.700	30.275	0.100
438.800	28.473	0.100
438.900	24.114	0.100
439.000	29.342	0.100
439.100	31.149	0.100
439.200	23.852	0.100
439.300	27.936	0.100
439.400	25.699	0.100
439.500	20.353	0.100
439.600	33.569	0.100
439.700	33.002	0.100
439.800	17.734	0.100
439.900	26.019	0.100
440.000	24.008	0.100
440.100	16.227	0.100
440.200	24.655	0.100
440.300	18.671	0.100
440.400	3.820	0.100
440.500	15.947	0.100
440.600	13.760	0.100
440.700	5.447	0.100
440.800	-14.326	0.100
440.900	-3.949	0.100
441.000	-16.468	0.100
441.100	-8.539	0.100
441.200	-13.675	0.100
441.300	-26.541	0.100
441.400	-30.885	0.100
441.500	-25.233	0.100
441.600	-39.878	0.100
441.700	-36.715	0.100
441.800	-43.601	0.100
441.900	-47.420	0.100
442.000	-58.763	0.100
442.100	-43.094	0.100
442.200	-44.920	0.100
442.300	-55.995	0.100
442.400	-59.665	0.100
442.500	-66.204	0.100
442.600	-43.738	0.100
442.700	-52.652	0.100
442.800	-52.528	0.100
442.900	-59.592	0.100
443.000	-67.435	0.100
443.100	-66.836	0.100
443.200	-56.529	0.100
443.300	-63.893	0.100
443.400	-72.725	0.100
443.500	-59.734	0.100
443.600	-68.503	0.100
443.700	-67.994	0.100
443.800	-65.612	0.100
443.900	-71.665	0.100
444.000	-67.778	0.100
444.100	-54.277	0.100
444.200	-57.496	0.100
444.300	-74.848	0.100
444.400	-77.009	0.100
444.500	-74.112	0.100
444.600	-70.520	0.100
444.700	-74.257	0.100
444.800	-65.361	0.100
444.900	-79.292	0.100
445.000	-67.090	0.100
445.100	-66.376	0.100
445.200	-68.925	0.100
445.300	-68.927	0.100
445.400	-66.786	0.100
445.500	-67.134	0.100
445.600	-76.371	0.100
445.700	-81.918	0.100
445.800	-65.663	0.100
445.900	-63.394	0.100
446.000	-74.137	0.100
446.100	-76.086	0.100
446.200	-58.445	0.100
446.300	-57.882	0.100
446.400	-73.007	0.100
446.500	-69.789	0.100
446.600	-76.690	0.100
446.700	-70.475	0.100
446.800	-63.500	0.100
446.900	-67.362	0.100
447.000	-77.486	0.100
447.100	-70.234	0.100
447.200	-77.858	0.100
447.300	-64.845	0.100
447.400	-68.040	0.100
447.500	-70.623	0.100
447.600	-79.771	0.100
447.700	-73.076	0.100
447.800	-78.600	0.100
447.900	-68.915	0.100
448.000	-63.775	0.100
448.100	-59.892	0.100
448.200	-67.015	0.100
448.300	-70.564	0.100
448.400	-81.284	0.100
448.500	-69.846	0.100
448.600	-70.406	0.100
448.700	-79.399	0.100
448.800	-77.709	0.100
448.900	-71.561	0.100
449.000	-68.581	0.100
449.100	-63.904	0.100
449.200	-69.890	0.100
449.300	-77.409	0.100
449.400	-75.889	0.100
449.500	-75.865	0.100
449.600	-77.562	0.100
449.700	-70.082	0.100
449.800	-62.848	0.100
449.900	-72.095	0.100
450.000	-78.971	0.100
450.100	-66.856	0.100
450.200	-70.998	0.100
450.300	-62.435	0.100
450.400	-54.993	0.100
450.500	-40.820	0.100
450.600	-28.681	0.100
450.700	-40.360	0.100
450.800	-30.687	0.100
450.900	-12.520	0.100
451.000	-9.278	0.100
451.100	-19.463	0.100
451.200	3.323	0.100
451.300	-5.772	0.100
451.400	1.468	0.100
451.500	14.910	0.100
451.600	-0.125	0.100
451.700	6.135	0.100
451.800	11.834	0.100
451.900	11.473	0.100
452.000	6.527	0.100
452.100	9.120	0.100
452.200	7.184	0.100
452.300	3.998	0.100
452.400	12.112	0.100
452.500	10.106	0.100
452.600	9.618	0.100
452.700	7.447	0.100
452.800	14.392	0.100
452.900	5.145	0.100
453.000	11.770	0.100
453.100	6.546	0.100
453.200	3.258	0.100
453.300	9.955	0.100
453.400	9.071	0.100
453.500	4.488	0.100
453.600	6.055	0.100
453.700	2.112	0.100
453.800	5.966	0.100
453.900	12.061	0.100
454.000	2.485	0.100
454.100	6.579	0.100
454.200	-1.749	0.100
454.300	2.739	0.100
454.400	2.259	0.100
454.500	5.505	0.100
454.600	3.229	0.100
454.700	-1.259	0.100
454.800	6.152	0.100
454.900	-1.545	0.100
455.000	0.834	0.100
455.100	11.413	0.100
455.200	-0.326	0.100
455.300	-7.685	0.100
455.400	-3.724	0.100
455.500	-1.768	0.100
455.600	4.384	0.100
455.700	4.608	0.100
455.800	5.531	0.100
455.900	4.502	0.100
456.000	15.013	0.100
456.100	-6.322	0.100
456.200	-1.752	0.100
456.300	16.824	0.100
456.400	9.097	0.100
456.500	-1.071	0.100
456.600	6.791	0.100
456.700	8.191	0.100
456.800	7.106	0.100
456.900	6.964	0.100
457.000	2.957	0.100
457.100	-12.646	0.100
457.200	-1.411	0.100
457.300	15.085	0.100
457.400	12.310	0.100
457.500	10.722	0.100
457.600	8.550	0.100
457.700	11.973	0.100
457.800	-2.531	0.100
457.900	4.680	0.100
458.000	18.611	0.100
458.100	9.940	0.100
458.200	10.234	0.100
458.300	1.418	0.100
458.400	10.213	0.100
458.500	8.378	0.100
458.600	-0.809	0.100
458.700	16.734	0.100
458.800	3.872	0.100
458.900	3.774	0.100
459.000	13.382	0.100
459.100	5.987	0.100
459.200	15.311	0.100
459.300	22.262	0.100
459.400	25.628	0.100
459.500	23.483	0.100
459.600	12.431	0.100
459.700	15.489	0.100
459.800	14.347	0.100
459.900	10.741	0.100
460.000	14.069	0.100
460.100	11.633	0.100
460.200	15.203	0.100
460.300	25.278	0.100
460.400	21.561	0.100
460.500	8.079	0.100
460.600	7.906	0.100
460.700	4.936	0.100
460.800	24.777	0.100
460.900	24.244	0.100
461.000	24.809	0.100
461.100	25.651	0.100
461.200	9.558	0.100
461.300	18.750	0.100
461.400	15.021	0.100
461.500	27.721	0.099
461.600	22.938	0.100
461.700	19.616	0.100
461.800	23.125	0.100
461.900	18.153	0.100
462.000	15.909	0.100
462.100	24.496	0.100
462.200	11.492	0.100
462.300	21.110	0.100
462.400	24.421	0.100
462.500	19.992	0.100
462.600	15.091	0.100
462.700	11.979	0.100
462.800	23.317	0.100
462.900	34.906	0.100
463.000	18.964	0.100
463.100	20.167	0.100
463.200	12.995	0.100
463.300	25.710	0.099
463.400	27.311	0.100
463.500	25.387	0.100
463.600	27.385	0.100
463.700	27.899	0.100
463.800	26.028	0.100
463.900	16.464	0.100
464.000	18.758	0.100
464.100	26.497	0.100
464.200	32.913	0.100
464.300	22.232	0.100
464.400	27.903	0.100
464.500	16.124	0.100
464.600	26.190	0.100
464.700	24.843	0.100
464.800	26.859	0.100
464.900	33.773	0.100
465.000	19.731	0.100
465.100	31.533	0.100
465.200	21.880	0.100
465.300	19.387	0.100
465.400	34.737	0.100
465.500	18.135	0.100
465.600	30.307	0.100
465.700	26.579	0.100
465.800	26.826	0.100
465.900	28.427	0.100
466.000	29.767	0.100
466.100	18.944	0.099
466.200	17.202	0.100
466.300	27.525	0.099
466.400	30.239	0.100
466.500	28.209	0.099
466.600	26.329	0.100
466.700	26.882	0.100
466.800	18.075	0.100
466.900	19.173	0.100
467.000	29.210	0.100
467.100	30.665	0.099
467.200	38.827	0.100
467.300	39.151	0.100
467.400	16.381	0.099
467.500	34.292	0.100
467.600	43.089	0.100
467.700	24.784	0.100
467.800	37.436	0.100
467.900	39.458	0.100
468.000	25.708	0.100
468.100	22.384	0.100
468.200	28.126	0.099
468.300	42.464	0.099
468.400	39.312	0.099
468.500	24.957	0.100
468.600	32.974	0.099
468.700	31.483	0.099
468.800	23.005	0.099
468.900	24.386	0.100
469.000	24.788	0.100
469.100	23.654	0.099
469.200	31.153	0.100
469.300	28.509	0.099
469.400	23.405	0.099
469.500	19.327	0.099
469.600	28.105	0.100
469.700	22.839	0.100
469.800	22.560	0.100
469.900	41.122	0.100
470.000	28.279	0.099
470.100	20.467	0.099
470.200	33.467	0.099
470.300	33.047	0.100
470.400	27.502	0.100
470.500	31.905	0.099
470.600	16.582	0.099
470.700	31.836	0.099
470.800	29.757	0.099
470.900	32.899	0.099
471.000	34.013	0.100
471.100	14.774	0.100
471.200	26.745	0.099
471.300	26.531	0.099
471.400	20.440	0.099
471.500	29.808	0.099
471.600	27.151	0.099
471.700	36.279	0.100
471.800	32.778	0.100
471.900	37.701	0.099
472.000	37.257	0.099
472.100	24.082	0.099
472.200	22.447	0.099
472.300	23.252	0.099
472.400	38.111	0.099
472.500	23.975	0.099
472.600	38.507	0.099
472.700	27.161	0.099
472.800	26.483	0.100
472.900	37.166	0.099
473.000	28.048	0.099
473.100	22.156	0.099
473.200	29.746	0.099
473.300	32.157	0.099
473.400	23.281	0.099
473.500	32.083	0.099
473.600	26.697	0.099
473.700	31.107	0.099
473.800	20.485	0.099
473.900	32.949	0.099
474.000	26.511	0.099
474.100	33.226	0.099
474.200	22.288	0.099
474.300	27.060	0.099
474.400	22.072	0.099
474.500	35.962	0.099
474.600	38.985	0.099
474.700	27.088	0.099
474.800	26.216	0.099
474.900	20.600	0.099
475.000	34.598	0.099
475.100	31.496	0.099
475.200	16.219	0.099
475.300	23.037	0.099
475.400	25.770	0.099
475.500	38.878	0.099
475.600	25.342	0.099
475.700	39.706	0.099
475.800	32.948	0.099
475.900	32.029	0.099
476.000	39.011	0.099
476.100	33.908	0.099
476.200	29.470	0.099
476.300	11.682	0.099
476.400	33.116	0.099
476.500	23.324	0.099
476.600	25.100	0.099
476.700	21.536	0.099
476.800	41.360	0.099
476.900	28.575	0.099
477.000	35.269	0.099
477.100	21.233	0.099
477.200	29.303	0.099
477.300	23.724	0.099
477.400	32.513	0.099
477.500	34.896	0.099
477.600	23.740	0.099
477.700	16.975	0.099
477.800	20.184	0.099
477.900	27.388	0.099
478.000	30.599	0.099
478.100	34.764	0.099
478.200	20.967	0.099
478.300	23.717	0.099
478.400	20.855	0.099
478.500	28.141	0.099
478.600	30.689	0.099
478.700	18.430	0.099
478.800	32.287	0.099
478.900	9.643	0.099
479.000	16.090	0.099
479.100	29.274	0.099
479.200	29.074	0.099
479.300	31.405	0.099
479.400	20.329	0.099
479.500	28.050	0.099
479.600	29.738	0.099
479.700	29.058	0.099
479.800	38.847	0.099
479.900	32.570	0.099
480.000	26.586	0.099
480.100	27.289	0.099
480.200	19.403	0.099
480.300	23.041	0.099
480.400	27.991	0.099
480.500	24.605	0.099
480.600	35.874	0.099
480.700	29.029	0.099
480.800	29.052	0.099
480.900	24.385	0.099
481.000	27.523	0.099
481.100	34.232	0.099
481.200	26.557	0.099
481.300	26.038	0.099
481.400	21.458	0.099
481.500	29.958	0.099
481.600	22.567	0.099
481.700	28.173	0.099
481.800	26.018	0.099
481.900	23.901	0.099
482.000	29.783	0.099
482.100	25.146	0.099
482.200	18.030	0.099
482.300	26.165	0.099
482.400	28.987	0.099
482.500	32.560	0.099
482.600	27.720	0.099
482.700	31.871	0.099
482.800	27.415	0.099
482.900	27.475	0.099
483.000	32.811	0.099
483.100	28.880	0.099
483.200	31.331	0.099
483.300	22.864	0.099
483.400	27.776	0.099
483.500	29.428	0.099
483.600	26.981	0.099
483.700	30.219	0.099
483.800	28.616	0.099
483.900	37.316	0.099
484.000	22.386	0.099
484.100	20.037	0.099
484.200	19.179	0.099
484.300	35.327	0.099
484.400	30.921	0.099
484.500	26.746	0.099
484.600	31.438	0.099
484.700	19.196	0.099
484.800	29.906	0.099
484.900	31.315	0.099
485.000	27.728	0.099
485.100	30.259	0.099
485.200	29.952	0.099
485.300	35.937	0.099
485.400	20.871	0.099
485.500	27.834	0.099
485.600	31.162	0.099
485.700	29.898	0.099
485.800	29.384	0.099
485.900	26.243	0.099
486.000	27.230	0.099
486.100	21.262	0.099
486.200	14.029	0.099
486.300	14.400	0.099
486.400	36.061	0.099
486.500	27.896	0.099
486.600	27.126	0.099
486.700	28.682	0.099
486.800	29.276	0.099
486.900	27.018	0.099
487.000	35.356	0.099
487.100	27.123	0.099
487.200	29.300	0.099
487.300	34.662	0.099
487.400	29.648	0.099
487.500	37.053	0.099
487.600	23.416	0.099
487.700	25.972	0.099
487.800	21.909	0.099
487.900	22.866	0.099
488.000	22.200	0.099
488.100	31.585	0.099
488.200	28.983	0.099
488.300	41.345	0.099
488.400	25.146	0.099
488.500	24.091	0.099
488.600	26.674	0.099
488.700	32.789	0.099
488.800	16.853	0.099
488.900	30.299	0.099
489.000	12.744	0.099
489.100	30.982	0.099
489.200	27.957	0.099
489.300	21.698	0.099
489.400	32.105	0.099
489.500	23.311	0.099
489.600	35.092	0.099
489.700	23.783	0.099
489.800	16.962	0.099
489.900	36.425	0.099
490.000	18.886	0.099
490.100	26.415	0.099
490.200	34.827	0.099
490.300	22.087	0.099
490.400	34.680	0.099
490.500	28.771	0.099
490.600	23.575	0.099
490.700	22.580	0.099
490.800	46.685	0.099
490.900	25.243	0.099
491.000	16.927	0.099
491.100	26.832	0.099
491.200	24.731	0.099
491.300	27.219	0.099
491.400	26.937	0.099
491.500	30.860	0.099
491.600	29.159	0.099
491.700	23.394	0.099
491.800	30.501	0.099
491.900	18.260	0.099
492.000	23.693	0.099
492.100	12.550	0.099
492.200	33.367	0.099
492.300	29.492	0.099
492.400	34.174	0.099
492.500	19.628	0.099
492.600	22.112	0.099
492.700	33.242	0.099
492.800	29.271	0.099
492.900	30.903	0.099
493.000	30.187	0.099
493.100	28.850	0.099
493.200	21.640	0.099
493.300	30.120	0.099
493.400	24.887	0.099
493.500	30.809	0.099
493.600	30.056	0.099
493.700	25.800	0.099
493.800	21.292	0.099
493.900	25.402	0.099
494.000	30.547	0.099
494.100	31.971	0.099
494.200	17.036	0.099
494.300	23.338	0.099
494.400	24.299	0.099
494.500	19.044	0.099
494.600	28.710	0.099
494.700	31.812	0.099
494.800	30.548	0.099
494.900	26.570	0.099
495.000	16.199	0.099
495.100	19.157	0.099
495.200	26.047	0.099
495.300	34.317	0.099
495.400	22.686	0.099
495.500	38.286	0.099
495.600	31.102	0.099
495.700	24.612	0.099
495.800	27.097	0.099
495.900	27.994	0.099
496.000	22.788	0.099
496.100	21.843	0.099
496.200	33.299	0.099
496.300	39.161	0.099
496.400	23.890	0.099
496.500	13.510	0.099
496.600	22.649	0.099
496.700	29.688	0.099
496.800	20.420	0.099
496.900	40.285	0.099
497.000	39.065	0.099
497.100	45.935	0.099
497.200	15.667	0.099
497.300	28.870	0.099
497.400	21.393	0.099
497.500	21.931	0.099
497.600	31.554	0.099
497.700	22.872	0.099
497.800	31.255	0.099
497.900	9.744	0.099
498.000	15.623	0.099
498.100	31.632	0.099
498.200	22.191	0.099
498.300	25.707	0.099
498.400	17.516	0.099
498.500	27.348	0.099
498.600	28.764	0.099
498.700	32.285	0.099
498.800	35.497	0.099
498.900	21.767	0.099
499.000	24.011	0.099
499.100	24.607	0.099
499.200	13.888	0.099
499.300	29.830	0.099
499.400	28.056	0.099
499.500	25.384	0.099
499.600	19.666	0.099
499.700	24.108	0.099
499.800	29.226	0.099
499.900	22.994	0.099
500.000	39.241	0.099
500.100	16.709	0.099
500.200	30.416	0.099
500.300	29.037	0.099
500.400	15.887	0.099
500.500	32.036	0.099
500.600	27.296	0.099
500.700	19.600	0.099
500.800	21.316	0.099
500.900	23.738	0.099
501.000	31.162	0.099
501.100	24.518	0.099
501.200	34.511	0.099
501.300	21.745	0.099
501.400	23.651	0.099
501.500	23.576	0.099
501.600	26.564	0.099
501.700	22.369	0.099
501.800	25.429	0.099
501.900	24.016	0.099
502.000	20.542	0.099
502.100	19.941	0.099
502.200	18.882	0.099
502.300	16.505	0.099
502.400	36.847	0.099
502.500	29.645	0.099
502.600	29.234	0.099
502.700	31.579	0.099
502.800	22.450	0.099
502.900	41.361	0.099
503.000	31.465	0.099
503.100	22.484	0.099
503.200	35.161	0.099
503.300	31.523	0.099
503.400	19.310	0.099
503.500	9.088	0.099
503.600	20.543	0.099
503.700	25.522	0.099
503.800	32.831	0.099
503.900	33.210	0.099
504.000	24.494	0.099
504.100	19.126	0.099
504.200	38.289	0.099
504.300	27.442	0.099
504.400	18.533	0.099
504.500	24.333	0.099
504.600	27.999	0.099
504.700	35.397	0.099
504.800	26.850	0.099
504.900	21.173	0.099
505.000	33.270	0.099
505.100	25.180	0.099
505.200	30.982	0.099
505.300	19.097	0.099
505.400	30.513	0.099
505.500	12.473	0.099
505.600	28.161	0.099
505.700	29.900	0.099
505.800	26.039	0.099
505.900	14.394	0.099
506.000	20.003	0.099
506.100	26.488	0.099
506.200	25.802	0.099
506.300	27.417	0.099
506.400	23.456	0.099
506.500	32.073	0.099
506.600	30.572	0.099
506.700	30.155	0.099
506.800	27.340	0.099
506.900	14.961	0.099
507.000	11.101	0.099
507.100	30.349	0.099
507.200	30.811	0.099
507.300	22.596	0.099
507.400	18.235	0.099
507.500	17.377	0.099
507.600	33.128	0.099
507.700	33.172	0.099
507.800	25.819	0.099
507.900	40.310	0.099
508.000	13.090	0.099
508.100	10.751	0.099
508.200	20.695	0.099
508.300	27.522	0.099
508.400	18.005	0.099
508.500	21.946	0.099
508.600	28.705	0.099
508.700	25.108	0.099
508.800	24.933	0.099
508.900	19.825	0.099
509.000	25.540	0.099
509.100	33.340	0.099
509.200	19.377	0.099
509.300	13.880	0.099
509.400	26.441	0.099
509.500	23.587	0.099
509.600	26.412	0.099
509.700	13.145	0.099
509.800	30.713	0.099
509.900	34.772	0.099
510.000	24.277	0.099
510.100	32.125	0.099
510.200	29.443	0.099
510.300	19.427	0.099
510.400	12.647	0.099
510.500	10.899	0.099
510.600	10.032	0.099
510.700	-4.903	0.099
510.800	-1.821	0.099
510.900	-5.191	0.099
511.000	-8.713	0.099
511.100	-8.010	0.099
511.200	-20.366	0.099
511.300	-22.738	0.099
511.400	-28.448	0.099
511.500	-32.160	0.099
511.600	-34.835	0.099
511.700	-45.588	0.099
511.800	-42.332	0.099
511.900	-39.050	0.099
512.000	-40.792	0.099
512.100	-56.189	0.099
512.200	-51.993	0.099
512.300	-47.682	0.099
512.400	-50.348	0.099
512.500	-56.173	0.099
512.600	-57.115	0.099
512.700	-59.355	0.099
512.800	-60.219	0.099
512.900	-66.044	0.099
513.000	-74.570	0.099
513.100	-59.069	0.099
513.200	-58.941	0.099
513.300	-58.066	0.099
513.400	-59.384	0.099
513.500	-73.271	0.099
513.600	-63.777	0.099
513.700	-73.491	0.099
513.800	-72.119	0.099
513.900	-66.161	0.099
514.000	-73.133	0.099
514.100	-77.177	0.099
514.200	-74.767	0.099
514.300	-71.271	0.099
514.400	-66.208	0.099
514.500	-73.341	0.099
514.600	-65.795	0.099
514.700	-71.577	0.099
514.800	-68.108	0.099
514.900	-74.295	0.099
515.000	-78.706	0.099
515.100	-82.589	0.099
515.200	-74.403	0.099
515.300	-71.040	0.099
515.400	-64.808	0.099
515.500	-78.678	0.099
515.600	-74.111	0.099
515.700	-66.810	0.099
515.800	-72.735	0.099
515.900	-71.811	0.099
516.000	-76.597	0.099
516.100	-59.216	0.099
516.200	-67.736	0.099
516.300	-68.627	0.099
516.400	-71.147	0.099
516.500	-75.277	0.099
516.600	-74.215	0.099
516.700	-80.622	0.099
516.800	-84.609	0.099
516.900	-83.097	0.099
517.000	-83.747	0.099
517.100	-59.577	0.099
517.200	-71.434	0.099
517.300	-73.235	0.099
517.400	-78.681	0.099
517.500	-63.474	0.099
517.600	-70.153	0.099
517.700	-83.856	0.099
517.800	-86.239	0.099
517.900	-71.705	0.099
518.000	-59.761	0.099
518.100	-68.216	0.099
518.200	-69.802	0.099
518.300	-74.492	0.099
518.400	-68.742	0.099
518.500	-79.322	0.099
518.600	-67.316	0.099
518.700	-78.476	0.099
518.800	-69.742	0.099
518.900	-68.507	0.099
519.000	-57.429	0.099
519.100	-68.186	0.099
519.200	-76.214	0.099
519.300	-82.326	0.099
519.400	-79.035	0.099
519.500	-86.022	0.099
519.600	-76.899	0.099
519.700	-70.375	0.099
519.800	-71.731	0.099
519.900	-63.735	0.099
520.000	-65.852	0.099
520.100	-83.135	0.099
520.200	-82.236	0.099
520.300	-59.331	0.099
520.400	-54.297	0.099
520.500	-33.210	0.099
520.600	-41.748	0.099
520.700	-54.394	0.099
520.800	-36.853	0.099
520.900	-15.381	0.099
521.000	-7.215	0.099
521.100	-7.006	0.099
521.200	-12.438	0.099
521.300	-8.962	0.099
521.400	2.275	0.099
521.500	7.586	0.099
521.600	-5.490	0.099
521.700	-11.586	0.099
521.800	12.051	0.099
521.900	19.616	0.099
522.000	-8.883	0.099
522.100	1.418	0.099
522.200	7.980	0.099
522.300	14.311	0.099
522.400	9.524	0.099
522.500	-1.166	0.099
522.600	7.976	0.099
522.700	4.275	0.099
522.800	-6.517	0.099
522.900	4.868	0.099
523.000	8.532	0.099
523.100	11.364	0.099
523.200	9.564	0.099
523.300	17.354	0.099
523.400	6.914	0.099
523.500	-0.762	0.099
523.600	8.260	0.099
523.700	-3.770	0.099
523.800	5.779	0.099
523.900	12.628	0.099
524.000	13.690	0.099
524.100	1.165	0.099
524.200	9.536	0.099
524.300	-2.520	0.099
524.400	-3.715	0.099
524.500	12.750	0.099
524.600	-7.876	0.099
524.700	-8.033	0.099
524.800	-6.716	0.099
524.900	-4.916	0.099
525.000	5.822	0.099
525.100	3.259	0.099
525.200	4.736	0.099
525.300	-2.658	0.099
525.400	0.733	0.099
525.500	-4.832	0.099
525.600	7.279	0.099
525.700	12.253	0.099
525.800	3.915	0.099
525.900	0.049	0.099
526.000	-1.649	0.099
526.100	1.094	0.099
526.200	-3.111	0.099
526.300	4.985	0.099
526.400	3.199	0.099
526.500	6.800	0.099
526.600	4.476	0.099
526.700	7.539	0.099
526.800	3.513	0.099
526.900	7.515	0.099
527.000	6.201	0.099
527.100	-5.525	0.099
527.200	4.175	0.099
527.300	5.093	0.099
527.400	8.067	0.099
527.500	4.240	0.099
527.600	14.530	0.099
527.700	0.312	0.099
527.800	15.977	0.099
527.900	1.981	0.099
528.000	4.600	0.099
528.100	5.873	0.099
528.200	11.889	0.099
528.300	14.753	0.099
528.400	6.269	0.099
528.500	-6.060	0.099
528.600	24.679	0.099
528.700	17.605	0.099
528.800	17.950	0.099
528.900	3.939	0.099
529.000	12.348	0.099
529.100	19.552	0.099
529.200	14.961	0.099
529.300	8.745	0.099
529.400	19.724	0.099
529.500	15.308	0.099
529.600	25.640	0.099
529.700	15.088	0.100
529.800	7.800	0.100
529.900	23.793	0.100
530.000	10.088	0.100
530.100	13.971	0.100
530.200	12.154	0.100
530.300	15.741	0.100
530.400	11.285	0.100
530.500	19.065	0.100
530.600	29.659	0.100
530.700	23.801	0.100
530.800	17.630	0.100
530.900	21.106	0.100
531.000	18.251	0.100
531.100	19.937	0.100
531.200	20.473	0.100
531.300	10.508	0.100
531.400	17.580	0.100
531.500	31.078	0.100
531.600	21.180	0.100
531.700	9.987	0.100
531.800	10.790	0.100
531.900	21.836	0.100
532.000	11.101	0.100
532.100	26.961	0.100
532.200	24.004	0.100
532.300	25.874	0.100
532.400	31.940	0.100
532.500	19.221	0.100
532.600	20.840	0.100
532.700	10.830	0.100
532.800	13.180	0.100
532.900	18.098	0.100
533.000	20.544	0.100
533.100	26.654	0.100
533.200	18.000	0.100
533.300	30.678	0.100
533.400	21.933	0.100
533.500	6.997	0.100
533.600	21.757	0.100
533.700	26.885	0.100
533.800	28.466	0.100
533.900	14.540	0.100
534.000	21.666	0.100
534.100	23.831	0.100
534.200	29.038	0.100
534.300	29.294	0.100
534.400	23.212	0.100
534.500	15.353	0.100
534.600	20.109	0.100
534.700	15.237	0.100
534.800	38.111	0.100
534.900	35.282	0.100
535.000	19.523	0.100
535.100	9.560	0.100
535.200	19.901	0.100
535.300	27.966	0.100
535.400	33.990	0.100
535.500	29.473	0.100
535.600	22.771	0.100
535.700	31.718	0.100
535.800	22.772	0.100
535.900	30.655	0.100
536.000	25.947	0.100
536.100	34.874	0.100
536.200	32.131	0.100
536.300	27.276	0.100
536.400	22.363	0.100
536.500	26.178	0.100
536.600	27.842	0.100
536.700	25.735	0.100
536.800	32.430	0.100
536.900	21.548	0.100
537.000	14.396	0.100
537.100	28.510	0.100
537.200	19.120	0.100
537.300	26.572	0.100
537.400	25.234	0.100
537.500	30.056	0.100
537.600	29.250	0.100
537.700	32.266	0.100
537.800	26.870	0.100
537.900	29.899	0.100
538.000	29.326	0.100
538.100	29.787	0.100
538.200	28.905	0.100
538.300	27.454	0.100
538.400	15.735	0.100
538.500	20.522	0.100
538.600	41.274	0.100
538.700	34.650	0.100
538.800	19.447	0.100
538.900	33.392	0.100
539.000	28.658	0.100
539.100	13.831	0.100
539.200	28.790	0.100
539.300	35.607	0.100
539.400	32.133	0.100
539.500	27.848	0.100
539.600	21.814	0.100
539.700	30.135	0.100
539.800	17.245	0.100
539.900	18.292	0.100
540.000	37.954	0.100
540.100	33.134	0.100
540.200	27.868	0.100
540.300	30.000	0.100
540.400	29.071	0.100
540.500	19.912	0.100
540.600	21.134	0.100
540.700	26.771	0.100
540.800	28.128	0.100
540.900	29.754	0.100
541.000	32.078	0.100
541.100	34.696	0.100
541.200	23.297	0.100
541.300	34.727	0.100
541.400	28.180	0.100
541.500	31.257	0.100
541.600	28.879	0.100
541.700	27.682	0.100
541.800	22.780	0.100
541.900	22.575	0.100
542.000	33.620	0.100
542.100	34.590	0.100
542.200	31.870	0.100
542.300	22.340	0.100
542.400	28.662	0.100
542.500	37.805	0.100
542.600	35.136	0.100
542.700	39.967	0.100
542.800	20.580	0.100
542.900	30.802	0.100
543.000	25.851	0.100
543.100	23.862	0.100
543.200	29.701	0.100
543.300	31.941	0.100
543.400	38.375	0.100
543.500	27.030	0.100
543.600	18.252	0.100
543.700	36.496	0.100
543.800	38.085	0.100
543.900	35.777	0.100
544.000	24.846	0.100
544.100	11.792	0.100
544.200	30.300	0.100
544.300	30.062	0.100
544.400	28.493	0.100
544.500	20.899	0.100
544.600	38.793	0.100
544.700	32.896	0.100
544.800	11.176	0.100
544.900	31.697	0.100
545.000	29.101	0.100
545.100	35.456	0.100
545.200	35.552	0.100
545.300	25.272	0.100
545.400	30.912	0.100
545.500	31.505	0.100
545.600	33.834	0.100
545.700	38.339	0.100
545.800	27.793	0.100
545.900	18.420	0.100
546.000	20.229	0.100
546.100	38.680	0.100
546.200	32.423	0.100
546.300	31.509	0.100
546.400	27.426	0.100
546.500	15.381	0.100
546.600	33.072	0.100
546.700	37.069	0.100
546.800	20.388	0.100
546.900	38.185	0.100
547.000	22.510	0.100
547.100	34.920	0.100
547.200	19.324	0.100
547.300	27.265	0.100
547.400	26.711	0.100
547.500	31.776	0.100
547.600	31.327	0.100
547.700	22.095	0.100
547.800	29.036	0.100
547.900	29.311	0.100
548.000	24.447	0.100
548.100	30.607	0.100
548.200	24.833	0.100
548.300	26.037	0.100
548.400	23.667	0.100
548.500	25.636	0.100
548.600	16.566	0.100
548.700	26.915	0.100
548.800	25.080	0.100
548.900	31.127	0.100
549.000	23.353	0.100
549.100	28.740	0.100
549.200	26.257	0.100
549.300	24.566	0.100
549.400	34.676	0.100
549.500	34.524	0.100
549.600	20.206	0.100
549.700	22.284	0.100
549.800	28.533	0.100
549.900	31.540	0.100
550.000	33.446	0.100
550.100	13.740	0.100
550.200	35.212	0.100
550.300	25.128	0.100
550.400	37.150	0.100
550.500	28.798	0.100
550.600	23.758	0.100
550.700	30.088	0.100
550.800	31.883	0.100
550.900	23.724	0.100
551.000	25.419	0.100
551.100	25.417	0.100
551.200	22.053	0.100
551.300	19.310	0.100
551.400	23.613	0.100
551.500	32.475	0.100
551.600	27.371	0.100
551.700	38.810	0.100
551.800	26.607	0.100
551.900	28.859	0.100
552.000	8.224	0.100
552.100	25.790	0.100
552.200	26.625	0.100
552.300	31.024	0.100
552.400	26.163	0.100
552.500	26.306	0.100
552.600	27.907	0.100
552.700	26.331	0.100
552.800	32.190	0.100
552.900	25.233	0.100
553.000	35.610	0.100
553.100	25.940	0.100
553.200	24.683	0.100
553.300	25.806	0.100
553.400	27.056	0.100
553.500	27.788	0.100
553.600	27.062	0.100
553.700	31.073	0.100
553.800	31.247	0.100
553.900	28.917	0.100
554.000	37.279	0.100
554.100	21.555	0.100
554.200	22.693	0.100
554.300	24.016	0.100
554.400	21.215	0.100
554.500	26.685	0.100
554.600	19.889	0.100
554.700	26.519	0.100
554.800	30.387	0.100
554.900	36.771	0.100
555.000	29.528	0.100
555.100	19.701	0.100
555.200	20.646	0.100
555.300	23.393	0.100
555.400	26.706	0.100
555.500	37.106	0.100
555.600	20.835	0.100
555.700	32.333	0.100
555.800	35.243	0.100
555.900	27.491	0.100
556.000	30.698	0.100
556.100	25.957	0.100
556.200	20.298	0.100
556.300	26.321	0.100
556.400	16.599	0.100
556.500	26.917	0.100
556.600	23.661	0.100
556.700	27.478	0.100
556.800	27.625	0.100
556.900	25.446	0.100
557.000	24.972	0.100
557.100	17.418	0.100
557.200	18.391	0.100
557.300	26.866	0.100
557.400	19.406	0.100
557.500	29.909	0.100
557.600	36.545	0.100
557.700	24.947	0.100
557.800	26.824	0.100
557.900	26.036	0.100
558.000	27.200	0.100
558.100	15.395	0.100
558.200	25.993	0.100
558.300	28.942	0.100
558.400	29.639	0.100
558.500	26.753	0.100
558.600	24.817	0.100
558.700	26.181	0.100
558.800	33.914	0.100
558.900	24.370	0.100
559.000	25.217	0.100
559.100	32.752	0.100
559.200	18.593	0.100
559.300	20.524	0.100
559.400	12.319	0.100
559.500	16.599	0.100
559.600	29.293	0.100
559.700	35.849	0.100
559.800	29.595	0.100
559.900	28.109	0.100
560.000	32.144	0.100
560.100	29.883	0.100
560.200	27.384	0.100
560.300	33.734	0.100
560.400	28.316	0.100
560.500	15.775	0.100
560.600	19.450	0.100
560.700	26.174	0.100
560.800	20.820	0.100
560.900	29.935	0.100
561.000	27.960	0.100
561.100	19.145	0.100
561.200	26.900	0.100
561.300	21.597	0.100
561.400	20.518	0.100
561.500	20.041	0.100
561.600	36.267	0.100
561.700	22.187	0.100
561.800	25.365	0.100
561.900	26.568	0.100
562.000	7.425	0.100
562.100	20.866	0.100
562.200	15.256	0.100
562.300	25.890	0.100
562.400	29.743	0.100
562.500	30.655	0.100
562.600	20.504	0.100
562.700	16.226	0.100
562.800	33.225	0.100
562.900	13.033	0.100
563.000	28.656	0.100
563.100	24.593	0.100
563.200	32.885	0.100
563.300	21.371	0.100
563.400	21.415	0.100
563.500	24.259	0.100
563.600	23.797	0.100
563.700	32.661	0.100
563.800	20.185	0.100
563.900	29.871	0.100
564.000	19.101	0.100
564.100	32.115	0.100
564.200	25.381	0.100
564.300	24.645	0.100
564.400	26.794	0.100
564.500	26.973	0.100
564.600	23.133	0.100
564.700	22.141	0.100
564.800	24.137	0.100
564.900	20.727	0.100
565.000	22.308	0.100
565.100	25.767	0.100
565.200	27.876	0.100
565.300	27.633	0.100
565.400	26.785	0.100
565.500	23.779	0.100
565.600	32.229	0.100
565.700	27.639	0.100
565.800	27.016	0.100
565.900	28.576	0.100
566.000	12.646	0.100
566.100	17.601	0.100
566.200	24.628	0.100
566.300	37.808	0.100
566.400	28.244	0.100
566.500	23.650	0.100
566.600	19.867	0.100
566.700	32.544	0.100
566.800	31.999	0.100
566.900	35.941	0.100
567.000	33.098	0.100
567.100	21.420	0.100
567.200	30.502	0.100
567.300	14.666	0.100
567.400	16.421	0.100
567.500	27.344	0.100
567.600	23.289	0.100
567.700	30.284	0.100
567.800	27.559	0.100
567.900	40.228	0.100
568.000	31.672	0.100
568.100	22.014	0.100
568.200	27.447	0.100
568.300	19.128	0.100
568.400	23.552	0.100
568.500	19.874	0.100
568.600	19.943	0.100
568.700	21.860	0.100
568.800	31.062	0.100
568.900	18.637	0.100
569.000	36.465	0.100
569.100	28.382	0.100
569.200	10.199	0.100
569.300	29.029	0.100
569.400	32.144	0.100
569.500	22.016	0.100
569.600	9.920	0.100
569.700	35.492	0.100
569.800	28.856	0.100
569.900	31.185	0.100
570.000	16.703	0.100
570.100	25.382	0.100
570.200	29.192	0.100
570.300	14.455	0.100
570.400	28.346	0.100
570.500	24.088	0.100
570.600	36.704	0.100
570.700	23.792	0.100
570.800	18.600	0.100
570.900	27.990	0.100
571.000	24.540	0.100
571.100	23.128	0.100
571.200	24.944	0.100
571.300	21.935	0.100
571.400	29.620	0.100
571.500	19.866	0.100
571.600	25.723	0.100
571.700	23.875	0.100
571.800	15.155	0.100
571.900	28.346	0.100
572.000	26.790	0.100
572.100	23.983	0.100
572.200	28.556	0.100
572.300	12.762	0.100
572.400	22.986	0.100
572.500	22.837	0.100
572.600	22.201	0.100
572.700	31.438	0.100
572.800	29.632	0.100
572.900	29.531	0.100
573.000	14.434	0.100
573.100	26.560	0.100
573.200	29.237	0.100
573.300	27.057	0.100
573.400	11.859	0.100
573.500	16.965	0.100
573.600	23.156	0.100
573.700	30.344	0.100
573.800	25.427	0.100
573.900	35.698	0.100
574.000	21.628	0.100
574.100	28.849	0.100
574.200	25.375	0.100
574.300	22.584	0.100
574.400	23.976	0.100
574.500	30.575	0.100
574.600	18.298	0.100
574.700	31.648	0.100
574.800	16.359	0.100
574.900	27.025	0.100
575.000	14.220	0.100
575.100	18.333	0.100
575.200	21.503	0.100
575.300	15.355	0.100
575.400	19.124	0.100
575.500	12.126	0.100
575.600	30.449	0.100
575.700	28.880	0.100
575.800	23.194	0.100
575.900	22.433	0.100
576.000	29.712	0.100
576.100	21.347	0.100
576.200	25.143	0.100
576.300	15.393	0.100
576.400	25.728	0.100
576.500	30.050	0.100
576.600	22.077	0.100
576.700	20.508	0.100
576.800	35.406	0.100
576.900	27.780	0.100
577.000	25.860	0.100
577.100	29.064	0.100
577.200	28.714	0.100
577.300	27.116	0.100
577.400	26.670	0.100
577.500	23.707	0.100
577.600	23.098	0.100
577.700	27.492	0.100
577.800	20.222	0.100
577.900	19.455	0.100
578.000	22.110	0.100
578.100	32.140	0.100
578.200	34.643	0.100
578.300	29.939	0.100
578.400	16.277	0.100
578.500	16.705	0.100
578.600	10.903	0.100
578.700	21.012	0.100
578.800	20.098	0.100
578.900	27.269	0.100
579.000	27.172	0.100
579.100	11.408	0.100
579.200	31.584	0.100
579.300	8.834	0.100
579.400	30.896	0.100
579.500	20.818	0.100
579.600	22.495	0.100
579.700	25.605	0.100
579.800	9.901	0.100
579.900	21.113	0.100
580.000	25.135	0.100
580.100	29.777	0.100
580.200	21.038	0.100
580.300	11.867	0.100
580.400	16.726	0.100
580.500	14.521	0.100
580.600	8.353	0.100
580.700	5.656	0.100
580.800	-1.392	0.100
580.900	5.162	0.100
581.000	-4.426	0.100
581.100	-16.810	0.100
581.200	-11.309	0.100
581.300	-29.737	0.100
581.400	-32.580	0.100
581.500	-32.796	0.100
581.600	-34.732	0.100
581.700	-46.380	0.100
581.800	-34.247	0.100
581.900	-47.067	0.100
582.000	-47.153	0.100
582.100	-43.499	0.100
582.200	-42.884	0.100
582.300	-53.200	0.100
582.400	-63.636	0.100
582.500	-53.182	0.100
582.600	-65.669	0.100
582.700	-50.129	0.100
582.800	-63.508	0.100
582.900	-59.597	0.100
583.000	-54.584	0.100
583.100	-75.527	0.100
583.200	-63.541	0.100
583.300	-63.241	0.100
583.400	-60.685	0.100
583.500	-69.759	0.100
583.600	-59.789	0.100
583.700	-66.097	0.100
583.800	-68.097	0.100
583.900	-69.737	0.100
584.000	-68.045	0.100
584.100	-67.132	0.100
584.200	-71.270	0.100
584.300	-75.132	0.100
584.400	-70.059	0.100
584.500	-68.626	0.100
584.600	-68.110	0.100
584.700	-85.293	0.100
584.800	-65.930	0.100
584.900	-71.108	0.100
585.000	-72.265	0.100
585.100	-70.832	0.100
585.200	-77.653	0.100
585.300	-80.588	0.100
585.400	-68.327	0.100
585.500	-72.354	0.100
585.600	-71.519	0.100
585.700	-71.927	0.100
585.800	-77.948	0.100
585.900	-56.474	0.100
586.000	-73.371	0.100
586.100	-76.359	0.100
586.200	-77.868	0.100
586.300	-72.729	0.100
586.400	-73.364	0.100
586.500	-80.955	0.100
586.600	-67.516	0.100
586.700	-77.171	0.100
586.800	-78.804	0.100
586.900	-71.298	0.100
587.000	-63.793	0.100
587.100	-67.240	0.100
587.200	-76.102	0.100
587.300	-70.654	0.100
587.400	-71.418	0.100
587.500	-67.543	0.100
587.600	-68.805	0.100
587.700	-73.510	0.100
587.800	-71.005	0.100
587.900	-77.113	0.100
588.000	-82.062	0.100
588.100	-58.358	0.100
588.200	-70.295	0.100
588.300	-72.857	0.100
588.400	-76.083	0.100
588.500	-67.999	0.100
588.600	-75.290	0.100
588.700	-74.675	0.100
588.800	-75.485	0.100
588.900	-79.956	0.100
589.000	-73.795	0.100
589.100	-70.579	0.100
589.200	-74.201	0.100
589.300	-80.543	0.100
589.400	-79.715	0.100
589.500	-85.056	0.100
589.600	-78.428	0.100
589.700	-80.415	0.100
589.800	-76.430	0.100
589.900	-69.772	0.100
590.000	-67.598	0.100
590.100	-64.771	0.100
590.200	-60.946	0.100
590.300	-70.561	0.100
590.400	-55.365	0.100
590.500	-55.615	0.100
590.600	-42.478	0.100
590.700	-34.756	0.100
590.800	-36.252	0.100
590.900	-32.048	0.100
591.000	-10.324	0.100
591.100	-24.529	0.100
591.200	-14.982	0.100
591.300	-16.162	0.100
591.400	-9.353	0.100
591.500	-7.686	0.100
591.600	-7.990	0.100
591.700	-6.519	0.100
591.800	3.881	0.100
591.900	-0.885	0.100
592.000	-13.224	0.100
592.100	17.574	0.100
592.200	-0.851	0.100
592.300	15.192	0.100
592.400	9.146	0.100
592.500	-4.339	0.100
592.600	8.020	0.100
592.700	12.469	0.100
592.800	9.972	0.100
592.900	4.011	0.100
593.000	7.223	0.100
593.100	-4.833	0.100
593.200	3.833	0.100
593.300	15.748	0.100
593.400	18.427	0.100
593.500	4.390	0.100
593.600	-0.004	0.100
593.700	5.204	0.100
593.800	7.818	0.100
593.900	4.192	0.100
594.000	-17.852	0.100
594.100	1.198	0.100
594.200	3.266	0.100
594.300	4.003	0.100
594.400	6.401	0.100
594.500	3.687	0.100
594.600	-2.029	0.100
594.700	-6.196	0.100
594.800	-7.512	0.100
594.900	-4.404	0.100
595.000	3.349	0.100
595.100	10.282	0.100
595.200	9.463	0.100
595.300	8.548	0.100
595.400	-1.383	0.100
595.500	-2.948	0.100
595.600	3.044	0.100
595.700	9.348	0.100
595.800	7.077	0.100
595.900	12.123	0.100
596.000	1.067	0.100
596.100	5.658	0.100
596.200	2.018	0.100
596.300	-13.749	0.100
596.400	1.579	0.100
596.500	1.131	0.100
596.600	5.571	0.100
596.700	6.737	0.100
596.800	1.981	0.100
596.900	-2.468	0.100
597.000	-1.356	0.100
597.100	7.567	0.100
597.200	4.574	0.100
597.300	7.728	0.100
597.400	0.016	0.100
597.500	-0.240	0.100
597.600	7.439	0.100
597.700	5.174	0.100
597.800	5.883	0.100
597.900	5.557	0.100
598.000	9.710	0.100
598.100	13.528	0.100
598.200	10.743	0.100
598.300	8.397	0.100
598.400	-0.386	0.100
598.500	7.548	0.100
598.600	3.163	0.100
598.700	-11.015	0.100
598.800	14.732	0.100
598.900	15.355	0.100
599.000	12.809	0.100
599.100	15.140	0.100
599.200	25.673	0.100
599.300	12.984	0.100
599.400	7.506	0.100
599.500	16.832	0.100
599.600	14.574	0.100
599.700	12.081	0.100
599.800	15.892	0.100
599.900	12.907	0.100
600.000	9.785	0.100
