time /s	I /nA	E /V
0.100	99.311	0.100
0.200	90.335	0.100
0.300	75.022	0.100
0.400	107.239	0.100
0.500	93.224	0.100
0.600	97.140	0.100
0.700	91.492	0.100
0.800	89.113	0.100
0.900	89.377	0.100
1.000	100.837	0.100
1.100	85.273	0.100
1.200	80.899	0.100
1.300	91.616	0.100
1.400	82.606	0.100
1.500	95.815	0.100
1.600	115.026	0.100
1.700	91.893	0.100
1.800	85.594	0.100
1.900	91.727	0.100
2.000	95.993	0.100
2.100	103.991	0.100
2.200	94.723	0.100
2.300	98.424	0.100
2.400	66.269	0.100
2.500	79.886	0.100
2.600	90.712	0.100
2.700	95.712	0.100
2.800	101.925	0.100
2.900	102.675	0.100
3.000	86.989	0.100
3.100	99.346	0.100
3.200	95.426	0.100
3.300	86.398	0.100
3.400	63.111	0.100
3.500	80.698	0.100
3.600	83.995	0.100
3.700	96.741	0.100
3.800	91.869	0.100
3.900	96.110	0.100
4.000	77.623	0.100
4.100	90.581	0.100
4.200	92.945	0.100
4.300	84.942	0.100
4.400	94.132	0.100
4.500	84.749	0.100
4.600	76.981	0.100
4.700	100.007	0.100
4.800	81.023	0.100
4.900	86.688	0.100
5.000	91.565	0.100
5.100	94.597	0.100
5.200	83.545	0.100
5.300	84.032	0.100
5.400	85.835	0.100
5.500	91.253	0.100
5.600	89.432	0.100
5.700	98.099	0.100
5.800	80.770	0.100
5.900	87.983	0.100
6.000	87.131	0.100
6.100	85.676	0.100
6.200	95.932	0.100
6.300	90.878	0.100
6.400	98.278	0.100
6.500	84.815	0.100
6.600	101.720	0.100
6.700	78.197	0.100
6.800	73.616	0.100
6.900	91.873	0.100
7.000	83.780	0.100
7.100	76.995	0.100
7.200	69.739	0.100
7.300	75.703	0.100
7.400	77.747	0.100
7.500	101.521	0.100
7.600	85.071	0.100
7.700	85.349	0.100
7.800	91.360	0.100
7.900	74.895	0.100
8.000	94.626	0.100
8.100	78.177	0.100
8.200	68.672	0.100
8.300	89.863	0.100
8.400	88.346	0.100
8.500	91.272	0.100
8.600	87.262	0.100
8.700	78.217	0.100
8.800	84.993	0.100
8.900	84.960	0.100
9.000	75.529	0.100
9.100	67.678	0.100
9.200	87.551	0.100
9.300	83.832	0.100
9.400	98.579	0.100
9.500	94.770	0.100
9.600	78.476	0.100
9.700	82.826	0.100
9.800	94.462	0.100
9.900	77.584	0.100
10.000	86.403	0.100
10.100	76.392	0.100
10.200	77.322	0.100
10.300	87.170	0.100
10.400	85.474	0.100
10.500	75.730	0.100
10.600	71.702	0.100
10.700	72.251	0.100
10.800	75.750	0.100
10.900	93.002	0.100
11.000	74.897	0.100
11.100	96.139	0.100
11.200	86.500	0.100
11.300	60.339	0.100
11.400	86.333	0.100
11.500	75.142	0.100
11.600	78.554	0.100
11.700	85.605	0.100
11.800	71.358	0.100
11.900	76.072	0.100
12.000	79.391	0.100
12.100	74.393	0.100
12.200	79.970	0.100
12.300	63.160	0.100
12.400	68.571	0.100
12.500	98.900	0.100
12.600	74.583	0.100
12.700	71.430	0.100
12.800	77.548	0.100
12.900	73.085	0.100
13.000	87.055	0.100
13.100	75.041	0.100
13.200	85.679	0.100
13.300	87.440	0.100
13.400	66.118	0.100
13.500	83.918	0.100
13.600	74.323	0.100
13.700	70.465	0.100
13.800	91.014	0.100
13.900	66.485	0.100
14.000	68.078	0.100
14.100	77.082	0.100
14.200	73.918	0.100
14.300	49.399	0.100
14.400	61.683	0.100
14.500	77.709	0.100
14.600	78.746	0.100
14.700	69.205	0.100
14.800	75.125	0.100
14.900	65.892	0.100
15.000	66.868	0.100
15.100	74.294	0.100
15.200	66.793	0.100
15.300	93.224	0.100
15.400	80.672	0.100
15.500	71.152	0.100
15.600	83.628	0.100
15.700	79.795	0.100
15.800	65.996	0.100
15.900	67.893	0.100
16.000	83.965	0.100
16.100	64.307	0.100
16.200	75.507	0.100
16.300	75.416	0.100
16.400	69.972	0.100
16.500	79.947	0.100
16.600	81.761	0.100
16.700	68.550	0.100
16.800	72.439	0.100
16.900	81.561	0.100
17.000	60.678	0.100
17.100	62.523	0.100
17.200	57.429	0.100
17.300	73.627	0.100
17.400	78.310	0.100
17.500	64.573	0.100
17.600	75.137	0.100
17.700	71.394	0.100
17.800	55.973	0.100
17.900	83.931	0.100
18.000	75.453	0.100
18.100	69.630	0.100
18.200	65.632	0.100
18.300	81.192	0.100
18.400	75.528	0.100
18.500	86.095	0.100
18.600	59.359	0.100
18.700	75.806	0.100
18.800	71.142	0.100
18.900	70.105	0.100
19.000	67.491	0.100
19.100	66.268	0.100
19.200	78.261	0.100
19.300	71.625	0.100
19.400	65.852	0.100
19.500	71.279	0.100
19.600	75.920	0.100
19.700	80.641	0.100
19.800	59.405	0.100
19.900	58.909	0.100
20.000	75.009	0.100
20.100	72.766	0.100
20.200	67.104	0.100
20.300	78.620	0.100
20.400	68.982	0.100
20.500	52.783	0.100
20.600	86.190	0.100
20.700	67.096	0.100
20.800	67.174	0.100
20.900	71.310	0.100
21.000	64.848	0.100
21.100	72.324	0.100
21.200	75.262	0.100
21.300	64.952	0.100
21.400	73.679	0.100
21.500	82.868	0.100
21.600	59.477	0.100
21.700	70.161	0.100
21.800	60.872	0.100
21.900	67.102	0.100
22.000	64.426	0.100
22.100	77.457	0.100
22.200	74.826	0.100
22.300	65.560	0.100
22.400	49.671	0.100
22.500	61.844	0.100
22.600	80.163	0.100
22.700	66.010	0.100
22.800	56.665	0.100
22.900	59.909	0.100
23.000	73.831	0.100
23.100	75.491	0.100
23.200	58.195	0.100
23.300	75.802	0.100
23.400	67.988	0.100
23.500	71.807	0.100
23.600	82.155	0.100
23.700	60.480	0.100
23.800	67.863	0.100
23.900	67.823	0.100
24.000	64.001	0.100
24.100	54.660	0.100
24.200	46.124	0.100
24.300	66.806	0.100
24.400	79.577	0.100
24.500	82.347	0.100
24.600	61.468	0.100
24.700	46.993	0.100
24.800	66.378	0.100
24.900	64.142	0.100
25.000	65.871	0.100
25.100	55.062	0.100
25.200	70.284	0.100
25.300	60.489	0.100
25.400	70.372	0.100
25.500	66.945	0.100
25.600	55.519	0.100
25.700	46.428	0.100
25.800	69.310	0.100
25.900	45.972	0.100
26.000	61.108	0.100
26.100	55.795	0.100
26.200	73.749	0.100
26.300	70.414	0.100
26.400	38.960	0.100
26.500	70.760	0.100
26.600	64.692	0.100
26.700	49.018	0.100
26.800	59.502	0.100
26.900	70.558	0.100
27.000	60.999	0.100
27.100	64.872	0.100
27.200	61.123	0.100
27.300	56.134	0.100
27.400	59.745	0.100
27.500	69.947	0.100
27.600	67.569	0.100
27.700	48.770	0.100
27.800	63.187	0.100
27.900	62.406	0.100
28.000	66.378	0.100
28.100	72.823	0.100
28.200	61.018	0.100
28.300	54.958	0.100
28.400	73.725	0.100
28.500	61.336	0.100
28.600	57.039	0.100
28.700	60.196	0.100
28.800	64.542	0.100
28.900	65.841	0.100
29.000	55.694	0.100
29.100	70.974	0.100
29.200	66.306	0.100
29.300	56.965	0.100
29.400	58.769	0.100
29.500	66.961	0.100
29.600	53.945	0.100
29.700	63.963	0.100
29.800	81.097	0.100
29.900	60.590	0.100
30.000	66.706	0.100
30.100	66.421	0.100
30.200	78.560	0.100
30.300	50.763	0.100
30.400	55.687	0.100
30.500	70.201	0.100
30.600	71.222	0.100
30.700	64.100	0.100
30.800	91.207	0.100
30.900	60.522	0.100
31.000	61.369	0.100
31.100	63.755	0.100
31.200	75.600	0.100
31.300	65.501	0.100
31.400	80.700	0.100
31.500	74.937	0.100
31.600	66.008	0.100
31.700	80.237	0.100
31.800	95.602	0.100
31.900	76.536	0.100
32.000	72.769	0.100
32.100	84.455	0.100
32.200	63.852	0.100
32.300	63.399	0.100
32.400	73.714	0.100
32.500	76.115	0.100
32.600	84.965	0.100
32.700	78.764	0.100
32.800	74.391	0.100
32.900	80.347	0.100
33.000	81.496	0.100
33.100	74.962	0.100
33.200	74.341	0.100
33.300	77.134	0.100
33.400	77.572	0.100
33.500	75.014	0.100
33.600	76.902	0.100
33.700	90.240	0.100
33.800	76.870	0.100
33.900	72.384	0.100
34.000	82.207	0.100
34.100	85.725	0.100
34.200	81.880	0.100
34.300	73.289	0.100
34.400	82.416	0.100
34.500	74.794	0.100
34.600	96.095	0.100
34.700	85.852	0.100
34.800	64.330	0.100
34.900	71.284	0.100
35.000	87.431	0.100
35.100	97.981	0.100
35.200	86.734	0.100
35.300	83.420	0.100
35.400	84.616	0.100
35.500	83.062	0.100
35.600	91.825	0.100
35.700	81.630	0.100
35.800	102.500	0.100
35.900	83.206	0.100
36.000	90.002	0.100
36.100	86.531	0.100
36.200	88.388	0.100
36.300	108.259	0.100
36.400	92.340	0.100
36.500	86.920	0.100
36.600	83.028	0.100
36.700	85.079	0.100
36.800	98.545	0.100
36.900	84.028	0.100
37.000	92.346	0.100
37.100	80.659	0.100
37.200	92.818	0.100
37.300	93.548	0.100
37.400	86.951	0.100
37.500	83.673	0.100
37.600	114.002	0.100
37.700	112.398	0.101
37.800	87.742	0.101
37.900	74.564	0.100
38.000	82.803	0.100
38.100	111.075	0.100
38.200	95.611	0.100
38.300	83.251	0.100
38.400	100.921	0.100
38.500	94.231	0.100
38.600	93.381	0.100
38.700	101.619	0.101
38.800	96.826	0.100
38.900	97.087	0.100
39.000	97.332	0.101
39.100	114.156	0.100
39.200	86.811	0.101
39.300	103.578	0.101
39.400	87.844	0.101
39.500	111.227	0.101
39.600	110.942	0.101
39.700	99.231	0.101
39.800	96.587	0.101
39.900	106.270	0.101
40.000	98.561	0.101
40.100	97.544	0.101
40.200	123.470	0.101
40.300	107.505	0.101
40.400	122.183	0.101
40.500	90.688	0.101
40.600	110.786	0.101
40.700	116.532	0.101
40.800	115.705	0.101
40.900	103.905	0.101
41.000	102.705	0.101
41.100	100.112	0.101
41.200	130.622	0.101
41.300	103.916	0.101
41.400	118.832	0.101
41.500	111.523	0.101
41.600	114.935	0.101
41.700	90.115	0.101
41.800	110.134	0.101
41.900	96.228	0.101
42.000	123.574	0.101
42.100	118.918	0.101
42.200	106.610	0.101
42.300	98.873	0.101
42.400	96.780	0.101
42.500	101.624	0.100
42.600	97.532	0.101
42.700	108.835	0.101
42.800	118.208	0.101
42.900	97.306	0.101
43.000	118.193	0.101
43.100	124.597	0.101
43.200	107.419	0.101
43.300	101.565	0.101
43.400	106.201	0.101
43.500	112.543	0.101
43.600	97.781	0.101
43.700	123.072	0.101
43.800	109.296	0.101
43.900	89.980	0.101
44.000	101.781	0.101
44.100	115.882	0.101
44.200	110.838	0.101
44.300	108.859	0.101
44.400	100.660	0.101
44.500	103.707	0.101
44.600	108.106	0.101
44.700	99.993	0.101
44.800	125.436	0.101
44.900	113.373	0.101
45.000	101.785	0.101
45.100	103.790	0.101
45.200	109.062	0.101
45.300	113.445	0.101
45.400	113.551	0.101
45.500	111.951	0.101
45.600	114.055	0.101
45.700	93.634	0.101
45.800	104.962	0.101
45.900	90.907	0.101
46.000	110.075	0.101
46.100	101.095	0.101
46.200	108.020	0.101
46.300	101.774	0.101
46.400	111.484	0.101
46.500	98.673	0.101
46.600	95.848	0.101
46.700	106.012	0.101
46.800	103.176	0.101
46.900	103.945	0.101
47.000	94.146	0.101
47.100	92.628	0.101
47.200	111.977	0.101
47.300	101.044	0.101
47.400	107.593	0.101
47.500	98.522	0.101
47.600	111.668	0.101
47.700	81.280	0.101
47.800	95.876	0.101
47.900	105.149	0.101
48.000	104.657	0.101
48.100	89.416	0.101
48.200	95.261	0.101
48.300	86.748	0.101
48.400	101.494	0.101
48.500	105.332	0.101
48.600	95.573	0.101
48.700	97.105	0.101
48.800	92.227	0.101
48.900	97.549	0.101
49.000	94.546	0.101
49.100	77.861	0.101
49.200	69.637	0.101
49.300	80.284	0.101
49.400	109.152	0.101
49.500	97.407	0.101
49.600	91.362	0.101
49.700	89.293	0.101
49.800	99.275	0.101
49.900	80.413	0.101
50.000	87.152	0.101
50.100	91.859	0.101
50.200	84.948	0.101
50.300	87.127	0.101
50.400	98.525	0.101
50.500	86.464	0.101
50.600	89.065	0.101
50.700	124.057	0.101
50.800	83.934	0.101
50.900	79.241	0.101
51.000	82.758	0.101
51.100	92.598	0.101
51.200	94.467	0.101
51.300	76.297	0.101
51.400	87.796	0.101
51.500	97.854	0.101
51.600	91.030	0.101
51.700	77.797	0.101
51.800	86.618	0.101
51.900	70.519	0.101
52.000	85.236	0.101
52.100	87.750	0.101
52.200	96.199	0.101
52.300	79.050	0.101
52.400	94.041	0.101
52.500	86.043	0.101
52.600	67.390	0.101
52.700	91.407	0.101
52.800	79.372	0.101
52.900	78.045	0.101
53.000	79.827	0.101
53.100	83.697	0.101
53.200	84.693	0.101
53.300	84.750	0.101
53.400	86.634	0.101
53.500	92.404	0.101
53.600	78.318	0.101
53.700	72.021	0.101
53.800	64.844	0.101
53.900	79.334	0.101
54.000	88.219	0.101
54.100	75.249	0.101
54.200	87.250	0.101
54.300	65.052	0.101
54.400	95.056	0.101
54.500	76.870	0.101
54.600	85.417	0.101
54.700	83.332	0.101
54.800	81.768	0.101
54.900	78.225	0.101
55.000	91.827	0.101
55.100	78.479	0.101
55.200	72.944	0.101
55.300	68.561	0.101
55.400	85.026	0.101
55.500	80.401	0.101
55.600	63.255	0.101
55.700	71.465	0.101
55.800	80.206	0.101
55.900	95.820	0.101
56.000	73.377	0.101
56.100	75.969	0.101
56.200	84.586	0.101
56.300	84.164	0.101
56.400	79.038	0.101
56.500	77.941	0.101
56.600	80.139	0.101
56.700	73.674	0.101
56.800	72.098	0.101
56.900	94.932	0.101
57.000	60.235	0.101
57.100	90.591	0.101
57.200	69.982	0.101
57.300	78.541	0.101
57.400	65.785	0.101
57.500	74.486	0.101
57.600	69.030	0.101
57.700	68.370	0.101
57.800	74.685	0.101
57.900	70.711	0.101
58.000	76.578	0.101
58.100	77.650	0.101
58.200	71.625	0.101
58.300	75.251	0.101
58.400	62.817	0.101
58.500	77.430	0.101
58.600	72.261	0.101
58.700	77.482	0.101
58.800	64.665	0.101
58.900	97.747	0.101
59.000	82.656	0.101
59.100	78.873	0.101
59.200	70.339	0.101
59.300	67.298	0.101
59.400	78.072	0.101
59.500	59.540	0.101
59.600	83.957	0.101
59.700	73.206	0.101
59.800	65.605	0.101
59.900	69.939	0.101
60.000	52.656	0.101
60.100	77.487	0.101
60.200	92.891	0.101
60.300	53.837	0.101
60.400	72.421	0.101
60.500	66.677	0.101
60.600	75.812	0.101
60.700	66.251	0.101
60.800	57.302	0.101
60.900	86.690	0.101
61.000	66.050	0.101
61.100	84.081	0.101
61.200	65.915	0.101
61.300	70.516	0.101
61.400	77.926	0.101
61.500	65.527	0.101
61.600	66.247	0.101
61.700	67.327	0.101
61.800	53.681	0.101
61.900	69.336	0.101
62.000	65.561	0.101
62.100	70.396	0.101
62.200	81.599	0.101
62.300	71.243	0.101
62.400	87.304	0.101
62.500	80.787	0.101
62.600	69.306	0.101
62.700	81.366	0.101
62.800	71.514	0.101
62.900	69.203	0.101
63.000	61.827	0.101
63.100	61.603	0.101
63.200	75.223	0.101
63.300	80.025	0.101
63.400	75.393	0.101
63.500	44.888	0.101
63.600	66.397	0.101
63.700	82.247	0.101
63.800	77.673	0.101
63.900	59.720	0.101
64.000	67.021	0.101
64.100	58.040	0.101
64.200	67.275	0.101
64.300	74.652	0.101
64.400	79.711	0.101
64.500	63.664	0.101
64.600	67.626	0.101
64.700	75.028	0.101
64.800	75.494	0.101
64.900	52.601	0.101
65.000	72.801	0.101
65.100	77.007	0.101
65.200	58.034	0.101
65.300	62.681	0.101
65.400	65.273	0.101
65.500	61.565	0.101
65.600	73.211	0.101
65.700	65.816	0.101
65.800	77.844	0.101
65.900	71.085	0.101
66.000	68.114	0.101
66.100	47.862	0.101
66.200	82.818	0.101
66.300	76.207	0.101
66.400	69.569	0.101
66.500	76.541	0.101
66.600	59.419	0.101
66.700	68.081	0.101
66.800	67.866	0.101
66.900	57.923	0.101
67.000	67.035	0.101
67.100	64.336	0.101
67.200	76.740	0.101
67.300	81.655	0.101
67.400	62.124	0.101
67.500	63.480	0.101
67.600	54.519	0.101
67.700	53.458	0.101
67.800	57.839	0.101
67.900	78.726	0.101
68.000	63.987	0.101
68.100	55.911	0.101
68.200	66.818	0.101
68.300	62.334	0.101
68.400	68.587	0.101
68.500	65.855	0.101
68.600	60.938	0.101
68.700	75.189	0.101
68.800	61.353	0.101
68.900	39.222	0.101
69.000	68.797	0.101
69.100	68.161	0.101
69.200	44.865	0.101
69.300	68.029	0.101
69.400	82.153	0.101
69.500	56.498	0.101
69.600	89.737	0.101
69.700	63.276	0.101
69.800	66.654	0.101
69.900	53.715	0.101
70.000	79.210	0.101
70.100	63.689	0.101
70.200	65.777	0.101
70.300	32.556	0.101
70.400	45.327	0.101
70.500	56.683	0.101
70.600	68.276	0.101
70.700	70.883	0.101
70.800	71.911	0.101
70.900	69.559	0.101
71.000	70.437	0.101
71.100	75.096	0.101
71.200	53.588	0.101
71.300	71.352	0.101
71.400	51.589	0.101
71.500	62.658	0.101
71.600	72.056	0.101
71.700	69.412	0.101
71.800	66.133	0.101
71.900	50.607	0.101
72.000	55.687	0.101
72.100	64.872	0.101
72.200	65.453	0.101
72.300	53.034	0.101
72.400	62.654	0.101
72.500	59.143	0.101
72.600	65.948	0.101
72.700	68.955	0.101
72.800	66.584	0.101
72.900	56.839	0.101
73.000	72.324	0.101
73.100	43.837	0.101
73.200	50.169	0.101
73.300	72.739	0.101
73.400	58.960	0.101
73.500	65.231	0.101
73.600	46.913	0.101
73.700	49.894	0.101
73.800	50.217	0.101
73.900	65.532	0.101
74.000	58.774	0.101
74.100	71.384	0.101
74.200	63.553	0.101
74.300	68.717	0.101
74.400	63.881	0.101
74.500	51.481	0.100
74.600	45.940	0.100
74.700	55.234	0.101
74.800	58.348	0.100
74.900	46.676	0.100
75.000	47.265	0.100
75.100	49.912	0.100
75.200	68.427	0.100
75.300	58.380	0.100
75.400	64.503	0.100
75.500	71.335	0.100
75.600	50.783	0.100
75.700	41.721	0.100
75.800	65.467	0.100
75.900	41.732	0.100
76.000	47.660	0.100
76.100	63.176	0.100
76.200	50.716	0.100
76.300	43.924	0.100
76.400	64.050	0.100
76.500	47.188	0.100
76.600	55.395	0.100
76.700	39.557	0.100
76.800	55.358	0.100
76.900	60.121	0.100
77.000	53.285	0.100
77.100	44.093	0.100
77.200	54.824	0.100
77.300	50.231	0.100
77.400	64.751	0.100
77.500	60.285	0.100
77.600	57.926	0.100
77.700	66.599	0.100
77.800	49.516	0.100
77.900	57.289	0.100
78.000	64.699	0.100
78.100	43.969	0.100
78.200	58.753	0.100
78.300	47.829	0.100
78.400	70.729	0.100
78.500	56.592	0.100
78.600	50.577	0.100
78.700	46.456	0.100
78.800	55.684	0.100
78.900	64.946	0.100
79.000	69.180	0.100
79.100	49.935	0.100
79.200	62.239	0.100
79.300	61.822	0.100
79.400	52.710	0.100
79.500	58.299	0.100
79.600	59.409	0.100
79.700	66.708	0.100
79.800	50.735	0.100
79.900	42.896	0.100
80.000	67.773	0.100
80.100	47.830	0.100
80.200	66.485	0.100
80.300	40.040	0.100
80.400	62.227	0.100
80.500	54.535	0.100
80.600	60.759	0.100
80.700	47.712	0.100
80.800	57.752	0.100
80.900	47.201	0.100
81.000	58.340	0.100
81.100	55.681	0.100
81.200	36.990	0.100
81.300	52.974	0.100
81.400	53.956	0.100
81.500	51.280	0.100
81.600	67.412	0.100
81.700	52.127	0.100
81.800	66.041	0.100
81.900	43.402	0.100
82.000	53.823	0.100
82.100	51.707	0.100
82.200	69.516	0.100
82.300	47.680	0.100
82.400	49.771	0.100
82.500	61.810	0.100
82.600	61.745	0.100
82.700	45.937	0.100
82.800	55.422	0.100
82.900	58.692	0.100
83.000	49.019	0.100
83.100	61.907	0.100
83.200	51.924	0.100
83.300	61.278	0.100
83.400	56.011	0.100
83.500	60.984	0.100
83.600	54.907	0.100
83.700	58.463	0.100
83.800	52.650	0.100
83.900	57.439	0.100
84.000	46.111	0.100
84.100	48.781	0.100
84.200	47.604	0.100
84.300	40.256	0.100
84.400	48.017	0.100
84.500	51.137	0.100
84.600	65.476	0.100
84.700	63.530	0.100
84.800	53.166	0.100
84.900	40.212	0.100
85.000	56.852	0.100
85.100	60.967	0.100
85.200	60.509	0.100
85.300	63.902	0.100
85.400	49.742	0.100
85.500	65.105	0.100
85.600	58.944	0.100
85.700	62.849	0.100
85.800	45.989	0.100
85.900	47.439	0.100
86.000	65.830	0.100
86.100	50.444	0.100
86.200	46.850	0.100
86.300	48.176	0.100
86.400	59.170	0.100
86.500	57.787	0.100
86.600	55.677	0.100
86.700	66.552	0.100
86.800	44.611	0.100
86.900	57.246	0.100
87.000	46.883	0.100
87.100	46.580	0.100
87.200	46.232	0.100
87.300	56.793	0.100
87.400	51.036	0.100
87.500	53.654	0.100
87.600	47.444	0.100
87.700	28.375	0.100
87.800	62.064	0.100
87.900	50.159	0.100
88.000	56.698	0.100
88.100	58.105	0.100
88.200	46.511	0.100
88.300	49.587	0.100
88.400	51.448	0.100
88.500	37.247	0.100
88.600	59.172	0.100
88.700	48.567	0.100
88.800	55.612	0.100
88.900	47.409	0.100
89.000	59.902	0.100
89.100	43.550	0.100
89.200	84.138	0.100
89.300	60.174	0.100
89.400	61.655	0.100
89.500	48.386	0.100
89.600	45.041	0.100
89.700	54.923	0.100
89.800	47.248	0.100
89.900	43.347	0.100
90.000	36.193	0.100
90.100	36.768	0.100
90.200	54.466	0.100
90.300	43.345	0.100
90.400	31.075	0.100
90.500	47.575	0.100
90.600	39.504	0.100
90.700	26.687	0.100
90.800	64.766	0.100
90.900	38.357	0.100
91.000	51.196	0.100
91.100	38.070	0.100
91.200	14.933	0.100
91.300	39.571	0.100
91.400	42.266	0.100
91.500	28.330	0.100
91.600	40.609	0.100
91.700	18.498	0.100
91.800	17.138	0.100
91.900	27.058	0.100
92.000	22.890	0.100
92.100	25.817	0.100
92.200	29.497	0.100
92.300	16.245	0.100
92.400	10.966	0.100
92.500	22.606	0.100
92.600	25.525	0.100
92.700	24.749	0.100
92.800	15.356	0.100
92.900	15.516	0.100
93.000	29.897	0.100
93.100	18.817	0.100
93.200	14.493	0.100
93.300	15.003	0.100
93.400	29.713	0.100
93.500	23.519	0.100
93.600	10.397	0.100
93.700	15.344	0.100
93.800	2.123	0.100
93.900	3.631	0.100
94.000	14.240	0.100
94.100	17.176	0.100
94.200	15.362	0.100
94.300	20.045	0.100
94.400	-0.039	0.100
94.500	2.321	0.100
94.600	11.041	0.100
94.700	13.487	0.100
94.800	1.529	0.100
94.900	2.671	0.100
95.000	26.224	0.100
95.100	16.123	0.100
95.200	9.864	0.100
95.300	6.449	0.100
95.400	9.935	0.100
95.500	0.508	0.100
95.600	12.709	0.100
95.700	-7.435	0.100
95.800	-9.182	0.100
95.900	-3.927	0.100
96.000	5.390	0.100
96.100	15.250	0.100
96.200	-11.315	0.100
96.300	1.390	0.100
96.400	17.551	0.100
96.500	19.408	0.100
96.600	-3.303	0.100
96.700	1.702	0.100
96.800	8.114	0.100
96.900	-0.323	0.100
97.000	9.644	0.100
97.100	18.994	0.100
97.200	11.443	0.100
97.300	12.030	0.100
97.400	2.096	0.100
97.500	-12.582	0.100
97.600	19.429	0.100
97.700	-0.945	0.100
97.800	18.931	0.100
97.900	12.306	0.100
98.000	-2.207	0.100
98.100	15.149	0.100
98.200	4.965	0.100
98.300	1.281	0.100
98.400	-14.061	0.100
98.500	1.305	0.100
98.600	17.091	0.100
98.700	13.096	0.100
98.800	-2.548	0.100
98.900	15.640	0.100
99.000	2.154	0.100
99.100	1.308	0.100
99.200	-5.904	0.100
99.300	-0.680	0.100
99.400	8.183	0.100
99.500	11.607	0.100
99.600	6.429	0.100
99.700	13.396	0.100
99.800	0.691	0.100
99.900	16.286	0.100
100.000	-3.918	0.100
100.100	-13.690	0.100
100.200	-2.777	0.100
100.300	11.662	0.100
100.400	-3.972	0.100
100.500	11.607	0.100
100.600	9.772	0.100
100.700	12.759	0.100
100.800	14.472	0.100
100.900	8.238	0.100
101.000	3.178	0.100
101.100	4.892	0.100
101.200	7.834	0.100
101.300	17.466	0.100
101.400	14.223	0.100
101.500	1.085	0.100
101.600	-5.685	0.100
101.700	5.453	0.100
101.800	-17.491	0.100
101.900	15.938	0.100
102.000	3.838	0.100
102.100	14.058	0.100
102.200	9.915	0.100
102.300	9.459	0.100
102.400	12.579	0.100
102.500	16.998	0.100
102.600	20.334	0.100
102.700	22.696	0.100
102.800	6.572	0.100
102.900	13.769	0.100
103.000	12.286	0.100
103.100	-1.429	0.100
103.200	17.585	0.100
103.300	6.714	0.100
103.400	0.814	0.100
103.500	17.087	0.100
103.600	6.344	0.100
103.700	6.203	0.100
103.800	0.753	0.100
103.900	18.334	0.100
104.000	9.585	0.100
104.100	32.882	0.100
104.200	5.501	0.100
104.300	10.309	0.100
104.400	6.798	0.100
104.500	13.916	0.100
104.600	-8.735	0.100
104.700	10.385	0.100
104.800	-1.949	0.100
104.900	-0.248	0.100
105.000	0.015	0.100
105.100	9.448	0.100
105.200	22.235	0.100
105.300	19.676	0.100
105.400	10.073	0.100
105.500	6.240	0.100
105.600	5.166	0.100
105.700	-1.520	0.100
105.800	10.528	0.100
105.900	13.738	0.100
106.000	16.183	0.100
106.100	7.924	0.100
106.200	15.522	0.100
106.300	8.510	0.100
106.400	9.680	0.100
106.500	18.091	0.100
106.600	-1.241	0.100
106.700	10.459	0.100
106.800	17.631	0.100
106.900	-3.898	0.100
107.000	32.225	0.100
107.100	15.205	0.100
107.200	24.059	0.100
107.300	7.077	0.100
107.400	19.218	0.100
107.500	9.629	0.100
107.600	16.385	0.100
107.700	22.593	0.100
107.800	16.214	0.100
107.900	32.296	0.100
108.000	2.592	0.100
108.100	19.913	0.100
108.200	15.546	0.100
108.300	0.355	0.100
108.400	20.529	0.100
108.500	14.892	0.100
108.600	14.609	0.100
108.700	0.848	0.100
108.800	36.720	0.100
108.900	14.520	0.100
109.000	15.112	0.100
109.100	17.759	0.100
109.200	-7.579	0.100
109.300	16.554	0.100
109.400	8.484	0.100
109.500	12.437	0.100
109.600	15.695	0.100
109.700	17.793	0.100
109.800	11.997	0.100
109.900	15.636	0.100
110.000	23.537	0.100
110.100	-2.744	0.100
110.200	21.950	0.100
110.300	6.293	0.100
110.400	18.831	0.100
110.500	11.438	0.100
110.600	8.644	0.100
110.700	-3.085	0.100
110.800	21.461	0.100
110.900	27.430	0.100
111.000	22.647	0.100
111.100	13.718	0.100
111.200	-4.386	0.100
111.300	6.375	0.100
111.400	16.415	0.100
111.500	-4.152	0.100
111.600	33.853	0.100
111.700	5.112	0.100
111.800	-6.806	0.100
111.900	24.239	0.100
112.000	17.665	0.100
112.100	4.924	0.100
112.200	22.410	0.100
112.300	9.521	0.100
112.400	26.797	0.100
112.500	17.662	0.100
112.600	19.246	0.100
112.700	22.149	0.100
112.800	-7.103	0.100
112.900	13.326	0.100
113.000	8.612	0.100
113.100	2.629	0.100
113.200	8.861	0.100
113.300	11.703	0.100
113.400	10.059	0.100
113.500	-2.827	0.100
113.600	-1.280	0.100
113.700	5.999	0.100
113.800	25.399	0.100
113.900	26.232	0.100
114.000	-2.715	0.100
114.100	18.234	0.100
114.200	6.552	0.100
114.300	5.942	0.100
114.400	13.011	0.100
114.500	13.190	0.100
114.600	29.632	0.100
114.700	3.913	0.100
114.800	17.002	0.100
114.900	29.119	0.100
115.000	13.031	0.100
115.100	16.275	0.100
115.200	13.441	0.100
115.300	21.799	0.100
115.400	2.507	0.100
115.500	9.849	0.100
115.600	21.005	0.100
115.700	14.057	0.100
115.800	22.417	0.100
115.900	9.230	0.100
116.000	19.884	0.100
116.100	15.425	0.100
116.200	11.832	0.100
116.300	7.886	0.100
116.400	17.702	0.100
116.500	16.180	0.100
116.600	1.674	0.100
116.700	3.083	0.100
116.800	4.806	0.100
116.900	20.657	0.100
117.000	10.055	0.100
117.100	15.565	0.100
117.200	20.921	0.100
117.300	8.435	0.100
117.400	13.700	0.100
117.500	10.873	0.100
117.600	19.280	0.100
117.700	6.608	0.100
117.800	2.799	0.100
117.900	22.488	0.100
118.000	10.026	0.100
118.100	12.137	0.100
118.200	0.118	0.100
118.300	6.633	0.100
118.400	8.796	0.100
118.500	19.159	0.100
118.600	3.201	0.100
118.700	3.934	0.100
118.800	20.558	0.100
118.900	4.102	0.100
119.000	32.522	0.100
119.100	5.899	0.100
119.200	2.292	0.100
119.300	29.203	0.100
119.400	18.316	0.100
119.500	1.677	0.100
119.600	11.131	0.100
119.700	-7.688	0.100
119.800	12.540	0.100
119.900	31.198	0.100
120.000	9.938	0.100
120.100	12.120	0.100
120.200	8.563	0.100
120.300	8.133	0.100
120.400	17.539	0.100
120.500	0.251	0.100
120.600	26.402	0.100
120.700	3.299	0.100
120.800	3.126	0.100
120.900	14.075	0.100
121.000	-0.389	0.100
121.100	10.379	0.100
121.200	12.516	0.100
121.300	21.119	0.100
121.400	21.264	0.100
121.500	21.848	0.100
121.600	1.674	0.100
121.700	15.272	0.100
121.800	6.465	0.100
121.900	11.067	0.100
122.000	1.690	0.100
122.100	16.724	0.100
122.200	1.363	0.100
122.300	8.403	0.100
122.400	15.615	0.100
122.500	6.892	0.100
122.600	18.289	0.100
122.700	18.377	0.100
122.800	16.068	0.100
122.900	23.990	0.100
123.000	16.551	0.100
123.100	16.549	0.100
123.200	28.475	0.100
123.300	27.438	0.100
123.400	22.149	0.100
123.500	21.670	0.100
123.600	6.466	0.100
123.700	13.702	0.100
123.800	30.376	0.100
123.900	3.305	0.100
124.000	15.578	0.100
124.100	11.486	0.100
124.200	21.107	0.100
124.300	3.427	0.100
124.400	23.367	0.100
124.500	8.768	0.100
124.600	9.733	0.100
124.700	6.201	0.100
124.800	18.407	0.100
124.900	6.930	0.100
125.000	-4.589	0.100
125.100	19.940	0.100
125.200	19.373	0.100
125.300	7.532	0.100
125.400	-8.611	0.100
125.500	10.717	0.100
125.600	25.219	0.100
125.700	17.436	0.100
125.800	10.387	0.100
125.900	7.707	0.100
126.000	1.174	0.100
126.100	-6.279	0.100
126.200	24.705	0.100
126.300	14.092	0.100
126.400	-2.245	0.100
126.500	-2.063	0.100
126.600	7.901	0.100
126.700	19.577	0.100
126.800	-1.779	0.100
126.900	21.714	0.100
127.000	18.293	0.100
127.100	11.935	0.100
127.200	25.378	0.100
127.300	22.844	0.100
127.400	11.144	0.100
127.500	7.184	0.100
127.600	31.336	0.100
127.700	18.067	0.100
127.800	17.610	0.100
127.900	7.825	0.100
128.000	9.251	0.100
128.100	-7.334	0.100
128.200	16.385	0.100
128.300	3.734	0.100
128.400	1.734	0.100
128.500	10.390	0.100
128.600	18.124	0.100
128.700	-3.411	0.100
128.800	24.842	0.100
128.900	9.037	0.100
129.000	17.763	0.100
129.100	14.208	0.100
129.200	5.408	0.100
129.300	11.252	0.100
129.400	10.562	0.100
129.500	16.917	0.100
129.600	0.006	0.100
129.700	10.249	0.100
129.800	18.162	0.100
129.900	17.260	0.100
130.000	6.227	0.100
130.100	12.331	0.100
130.200	25.209	0.100
130.300	5.317	0.100
130.400	5.516	0.100
130.500	-3.129	0.100
130.600	14.288	0.100
130.700	7.464	0.100
130.800	10.515	0.100
130.900	-7.389	0.100
131.000	7.525	0.100
131.100	7.795	0.100
131.200	13.123	0.100
131.300	8.435	0.100
131.400	4.509	0.100
131.500	7.490	0.100
131.600	10.816	0.100
131.700	14.839	0.100
131.800	3.600	0.100
131.900	10.824	0.100
132.000	6.393	0.100
132.100	8.230	0.100
132.200	5.164	0.100
132.300	10.473	0.100
132.400	1.380	0.100
132.500	11.696	0.100
132.600	10.841	0.100
132.700	4.343	0.100
132.800	8.083	0.100
132.900	14.544	0.100
133.000	-5.278	0.100
133.100	13.066	0.100
133.200	13.471	0.100
133.300	26.802	0.100
133.400	13.555	0.100
133.500	5.118	0.100
133.600	3.966	0.100
133.700	17.453	0.100
133.800	5.361	0.100
133.900	5.205	0.100
134.000	-12.549	0.100
134.100	14.490	0.100
134.200	15.084	0.100
134.300	16.860	0.100
134.400	16.197	0.100
134.500	3.914	0.100
134.600	18.863	0.100
134.700	14.658	0.100
134.800	2.853	0.100
134.900	20.687	0.100
135.000	6.911	0.100
135.100	0.332	0.100
135.200	26.768	0.100
135.300	8.402	0.100
135.400	10.970	0.100
135.500	0.104	0.100
135.600	6.220	0.100
135.700	14.490	0.100
135.800	17.383	0.100
135.900	4.324	0.100
136.000	29.114	0.100
136.100	10.717	0.100
136.200	17.425	0.100
136.300	-1.263	0.100
136.400	-0.025	0.100
136.500	15.583	0.100
136.600	10.638	0.100
136.700	16.550	0.100
136.800	-2.649	0.100
136.900	6.293	0.100
137.000	1.851	0.100
137.100	8.038	0.100
137.200	18.609	0.100
137.300	14.061	0.100
137.400	1.178	0.100
137.500	3.319	0.100
137.600	14.842	0.100
137.700	5.065	0.100
137.800	16.251	0.100
137.900	26.913	0.100
138.000	-3.198	0.100
138.100	12.223	0.100
138.200	19.866	0.100
138.300	9.477	0.100
138.400	11.544	0.100
138.500	10.825	0.100
138.600	20.837	0.100
138.700	5.735	0.100
138.800	8.342	0.100
138.900	25.683	0.100
139.000	-18.368	0.100
139.100	19.525	0.100
139.200	10.154	0.100
139.300	7.254	0.100
139.400	15.890	0.100
139.500	16.554	0.100
139.600	12.756	0.100
139.700	12.856	0.100
139.800	19.829	0.100
139.900	7.605	0.100
140.000	24.869	0.100
140.100	8.148	0.100
140.200	13.272	0.100
140.300	13.663	0.100
140.400	10.128	0.100
140.500	8.585	0.100
140.600	10.383	0.100
140.700	12.465	0.100
140.800	18.624	0.100
140.900	5.066	0.100
141.000	10.222	0.100
141.100	12.824	0.100
141.200	-13.320	0.100
141.300	5.204	0.100
141.400	0.318	0.100
141.500	3.898	0.100
141.600	4.051	0.100
141.700	27.146	0.100
141.800	2.858	0.100
141.900	13.546	0.100
142.000	9.893	0.100
142.100	13.415	0.100
142.200	12.803	0.100
142.300	1.296	0.100
142.400	14.371	0.100
142.500	18.275	0.100
142.600	25.087	0.100
142.700	18.832	0.100
142.800	-12.100	0.100
142.900	28.580	0.100
143.000	25.437	0.100
143.100	5.118	0.100
143.200	3.362	0.100
143.300	9.671	0.100
143.400	1.969	0.100
143.500	10.549	0.100
143.600	9.421	0.100
143.700	2.210	0.100
143.800	6.025	0.100
143.900	7.003	0.100
144.000	20.920	0.100
144.100	37.165	0.100
144.200	8.443	0.100
144.300	7.830	0.100
144.400	4.491	0.100
144.500	5.715	0.100
144.600	7.479	0.100
144.700	21.366	0.100
144.800	10.633	0.100
144.900	7.994	0.100
145.000	4.091	0.100
145.100	-9.354	0.100
145.200	18.951	0.100
145.300	18.131	0.100
145.400	30.714	0.100
145.500	8.777	0.100
145.600	11.246	0.100
145.700	10.081	0.100
145.800	4.579	0.100
145.900	20.986	0.100
146.000	11.870	0.100
146.100	19.790	0.100
146.200	29.055	0.100
146.300	8.205	0.100
146.400	-10.154	0.100
146.500	2.850	0.100
146.600	12.224	0.100
146.700	9.445	0.100
146.800	17.189	0.100
146.900	6.638	0.100
147.000	11.454	0.100
147.100	9.117	0.100
147.200	-8.176	0.100
147.300	6.822	0.100
147.400	5.682	0.100
147.500	16.231	0.100
147.600	19.175	0.100
147.700	12.647	0.100
147.800	-1.984	0.100
147.900	24.386	0.100
148.000	30.110	0.100
148.100	4.960	0.100
148.200	3.897	0.100
148.300	9.354	0.100
148.400	14.982	0.100
148.500	22.205	0.100
148.600	10.604	0.100
148.700	8.991	0.100
148.800	24.210	0.100
148.900	16.760	0.100
149.000	11.385	0.100
149.100	-0.473	0.100
149.200	15.463	0.100
149.300	-1.010	0.100
149.400	11.163	0.100
149.500	22.391	0.100
149.600	3.464	0.100
149.700	26.320	0.100
149.800	16.712	0.100
149.900	23.797	0.100
150.000	13.953	0.100
150.100	4.844	0.100
150.200	9.790	0.100
150.300	-0.193	0.100
150.400	-3.584	0.100
150.500	5.883	0.100
150.600	12.080	0.100
150.700	-8.453	0.100
150.800	2.584	0.100
150.900	17.462	0.100
151.000	3.577	0.100
151.100	20.480	0.100
151.200	16.026	0.100
151.300	10.179	0.100
151.400	6.044	0.100
151.500	11.913	0.100
151.600	12.033	0.100
151.700	16.145	0.100
151.800	10.187	0.100
151.900	15.661	0.100
152.000	18.655	0.100
152.100	6.395	0.100
152.200	12.585	0.100
152.300	31.796	0.100
152.400	4.296	0.100
152.500	2.726	0.100
152.600	9.663	0.100
152.700	21.325	0.100
152.800	-4.433	0.100
152.900	2.503	0.100
153.000	12.378	0.100
153.100	21.834	0.100
153.200	8.044	0.100
153.300	1.005	0.100
153.400	2.692	0.100
153.500	5.530	0.100
153.600	11.298	0.100
153.700	19.737	0.100
153.800	18.269	0.100
153.900	11.004	0.100
154.000	15.134	0.100
154.100	5.549	0.100
154.200	16.070	0.100
154.300	18.904	0.100
154.400	8.971	0.100
154.500	10.205	0.100
154.600	2.367	0.100
154.700	9.792	0.100
154.800	14.806	0.100
154.900	12.255	0.100
155.000	20.956	0.100
155.100	10.369	0.100
155.200	14.758	0.100
155.300	-3.276	0.100
155.400	7.738	0.100
155.500	3.999	0.100
155.600	10.648	0.100
155.700	10.955	0.100
155.800	19.332	0.100
155.900	9.889	0.100
156.000	17.457	0.100
156.100	29.629	0.100
156.200	5.141	0.100
156.300	12.753	0.100
156.400	4.483	0.100
156.500	-1.969	0.100
156.600	-0.406	0.100
156.700	-4.307	0.100
156.800	-5.151	0.100
156.900	7.792	0.100
157.000	19.543	0.100
157.100	4.206	0.100
157.200	29.303	0.100
157.300	23.488	0.100
157.400	18.277	0.100
157.500	10.473	0.100
157.600	6.947	0.100
157.700	-1.629	0.100
157.800	8.237	0.100
157.900	20.605	0.100
158.000	12.187	0.100
158.100	8.146	0.100
158.200	-2.489	0.100
158.300	1.108	0.100
158.400	3.836	0.100
158.500	11.410	0.100
158.600	12.752	0.100
158.700	28.811	0.100
158.800	5.038	0.100
158.900	19.493	0.100
159.000	0.603	0.100
159.100	10.147	0.100
159.200	18.367	0.100
159.300	3.289	0.100
159.400	22.965	0.100
159.500	7.477	0.100
159.600	16.097	0.100
159.700	27.413	0.100
159.800	15.195	0.100
159.900	0.540	0.100
160.000	13.145	0.100
160.100	10.251	0.100
160.200	-2.498	0.100
160.300	7.200	0.100
160.400	21.748	0.100
160.500	3.390	0.100
160.600	15.960	0.100
160.700	5.994	0.100
160.800	15.670	0.100
160.900	10.132	0.100
161.000	14.554	0.100
161.100	1.417	0.100
161.200	2.658	0.100
161.300	-4.916	0.100
161.400	-0.926	0.100
161.500	23.277	0.100
161.600	9.830	0.100
161.700	9.208	0.100
161.800	-0.801	0.100
161.900	11.077	0.100
162.000	15.610	0.100
162.100	18.540	0.100
162.200	17.445	0.100
162.300	-4.520	0.100
162.400	14.177	0.100
162.500	2.773	0.100
162.600	5.538	0.100
162.700	11.924	0.100
162.800	6.812	0.100
162.900	7.364	0.100
163.000	14.074	0.100
163.100	15.965	0.100
163.200	8.892	0.100
163.300	15.659	0.100
163.400	-0.191	0.100
163.500	9.385	0.100
163.600	19.123	0.100
163.700	4.418	0.100
163.800	-3.570	0.100
163.900	10.042	0.100
164.000	11.211	0.100
164.100	2.654	0.100
164.200	12.719	0.100
164.300	25.086	0.100
164.400	9.036	0.100
164.500	17.588	0.100
164.600	8.170	0.100
164.700	11.171	0.100
164.800	2.948	0.100
164.900	4.686	0.100
165.000	10.537	0.100
165.100	0.499	0.100
165.200	-3.994	0.100
165.300	19.804	0.100
165.400	21.487	0.100
165.500	19.614	0.100
165.600	14.461	0.100
165.700	5.824	0.100
165.800	7.295	0.100
165.900	18.548	0.100
166.000	19.714	0.100
166.100	-10.637	0.100
166.200	15.765	0.100
166.300	18.670	0.100
166.400	24.186	0.100
166.500	18.735	0.100
166.600	1.614	0.100
166.700	16.981	0.100
166.800	8.032	0.100
166.900	17.409	0.100
167.000	4.509	0.100
167.100	26.914	0.100
167.200	-7.554	0.100
167.300	-8.546	0.100
167.400	14.520	0.100
167.500	22.721	0.100
167.600	23.463	0.100
167.700	5.012	0.100
167.800	17.351	0.100
167.900	11.914	0.100
168.000	14.262	0.100
168.100	7.098	0.100
168.200	28.006	0.100
168.300	-1.440	0.100
168.400	0.059	0.100
168.500	7.971	0.100
168.600	4.254	0.100
168.700	-2.333	0.100
168.800	5.009	0.100
168.900	7.019	0.100
169.000	10.583	0.100
169.100	7.875	0.100
169.200	-6.423	0.100
169.300	22.288	0.100
169.400	-1.458	0.100
169.500	4.125	0.100
169.600	11.490	0.100
169.700	24.453	0.100
169.800	1.711	0.100
169.900	12.531	0.100
170.000	9.212	0.100
170.100	24.250	0.100
170.200	-0.482	0.100
170.300	2.659	0.100
170.400	3.429	0.100
170.500	16.341	0.100
170.600	0.276	0.100
170.700	2.953	0.100
170.800	11.678	0.100
170.900	-3.685	0.100
171.000	18.677	0.100
171.100	8.754	0.100
171.200	0.432	0.100
171.300	5.948	0.100
171.400	23.308	0.100
171.500	10.113	0.100
171.600	3.215	0.100
171.700	12.967	0.100
171.800	6.612	0.100
171.900	19.807	0.100
172.000	-5.999	0.100
172.100	15.818	0.100
172.200	2.966	0.100
172.300	4.372	0.100
172.400	22.889	0.100
172.500	15.676	0.100
172.600	18.065	0.100
172.700	9.651	0.100
172.800	-0.302	0.100
172.900	3.552	0.100
173.000	9.337	0.100
173.100	16.949	0.100
173.200	19.204	0.100
173.300	1.052	0.100
173.400	9.809	0.100
173.500	-1.795	0.100
173.600	-0.771	0.100
173.700	10.676	0.100
173.800	2.502	0.100
173.900	3.748	0.100
174.000	10.832	0.100
174.100	17.760	0.100
174.200	23.891	0.100
174.300	21.604	0.100
174.400	6.725	0.100
174.500	30.937	0.100
174.600	13.190	0.100
174.700	-4.040	0.100
174.800	22.406	0.100
174.900	12.717	0.100
175.000	13.076	0.100
175.100	-3.003	0.100
175.200	7.918	0.100
175.300	29.865	0.100
175.400	21.678	0.100
175.500	-0.813	0.100
175.600	18.409	0.100
175.700	11.706	0.100
175.800	-9.867	0.100
175.900	8.009	0.100
176.000	-1.607	0.100
176.100	9.593	0.100
176.200	7.614	0.100
176.300	3.369	0.100
176.400	-2.293	0.100
176.500	14.170	0.100
176.600	19.672	0.100
176.700	13.328	0.100
176.800	22.765	0.100
176.900	-1.416	0.100
177.000	23.100	0.100
177.100	20.167	0.100
177.200	13.245	0.100
177.300	10.006	0.100
177.400	7.587	0.100
177.500	22.504	0.100
177.600	6.560	0.100
177.700	4.423	0.100
177.800	3.635	0.100
177.900	19.096	0.100
178.000	29.110	0.100
178.100	6.009	0.100
178.200	4.328	0.100
178.300	-8.114	0.100
178.400	9.126	0.100
178.500	3.839	0.100
178.600	26.131	0.100
178.700	11.237	0.100
178.800	14.918	0.100
178.900	20.903	0.100
179.000	19.136	0.100
179.100	2.330	0.100
179.200	8.640	0.100
179.300	16.079	0.100
179.400	-4.874	0.100
179.500	26.774	0.100
179.600	17.554	0.100
179.700	6.773	0.100
179.800	20.189	0.100
179.900	20.549	0.100
180.000	4.111	0.100
180.100	25.353	0.100
180.200	25.014	0.100
180.300	12.227	0.100
180.400	20.052	0.100
180.500	3.361	0.100
180.600	8.403	0.100
180.700	22.994	0.100
180.800	22.536	0.100
180.900	37.066	0.100
181.000	23.998	0.100
181.100	30.993	0.100
181.200	8.150	0.100
181.300	11.647	0.100
181.400	36.607	0.100
181.500	23.916	0.100
181.600	25.433	0.100
181.700	38.158	0.100
181.800	30.081	0.100
181.900	31.190	0.100
182.000	34.808	0.100
182.100	44.793	0.100
182.200	15.759	0.100
182.300	28.881	0.100
182.400	34.583	0.100
182.500	36.449	0.100
182.600	43.647	0.100
182.700	19.137	0.100
182.800	39.240	0.100
182.900	42.364	0.100
183.000	24.261	0.100
183.100	42.698	0.100
183.200	54.110	0.100
183.300	37.404	0.100
183.400	26.450	0.100
183.500	51.780	0.100
183.600	15.245	0.100
183.700	22.834	0.100
183.800	44.449	0.100
183.900	31.635	0.100
184.000	30.010	0.100
184.100	23.024	0.100
184.200	41.456	0.100
184.300	48.127	0.100
184.400	45.679	0.100
184.500	39.118	0.100
184.600	30.963	0.100
184.700	26.183	0.100
184.800	34.487	0.100
184.900	48.555	0.100
185.000	18.780	0.100
185.100	34.195	0.100
185.200	30.252	0.100
185.300	44.922	0.100
185.400	41.484	0.100
185.500	18.616	0.100
185.600	49.833	0.100
185.700	26.645	0.100
185.800	49.227	0.100
185.900	23.653	0.100
186.000	36.272	0.100
186.100	23.694	0.100
186.200	28.325	0.100
186.300	13.626	0.100
186.400	49.966	0.100
186.500	38.672	0.100
186.600	39.252	0.100
186.700	33.999	0.100
186.800	29.492	0.100
186.900	15.755	0.100
187.000	40.596	0.100
187.100	16.767	0.100
187.200	28.570	0.100
187.300	39.022	0.100
187.400	41.445	0.100
187.500	47.111	0.100
187.600	44.040	0.100
187.700	49.331	0.100
187.800	50.257	0.100
187.900	45.233	0.100
188.000	27.515	0.100
188.100	53.387	0.100
188.200	26.308	0.100
188.300	18.478	0.100
188.400	54.974	0.100
188.500	19.397	0.100
188.600	39.634	0.100
188.700	32.329	0.100
188.800	13.675	0.100
188.900	32.777	0.100
189.000	38.660	0.100
189.100	58.133	0.100
189.200	31.715	0.100
189.300	34.267	0.100
189.400	46.741	0.100
189.500	35.077	0.100
189.600	44.271	0.100
189.700	32.453	0.100
189.800	55.500	0.100
189.900	26.865	0.100
190.000	40.531	0.100
190.100	37.620	0.100
190.200	32.400	0.100
190.300	49.754	0.100
190.400	35.028	0.100
190.500	35.217	0.100
190.600	38.957	0.100
190.700	24.465	0.100
190.800	37.885	0.100
190.900	37.932	0.100
191.000	40.703	0.100
191.100	56.499	0.100
191.200	35.074	0.100
191.300	37.991	0.100
191.400	51.149	0.100
191.500	22.353	0.100
191.600	38.365	0.100
191.700	29.441	0.100
191.800	50.445	0.100
191.900	31.070	0.100
192.000	38.972	0.100
192.100	48.607	0.100
192.200	42.189	0.100
192.300	37.305	0.100
192.400	29.359	0.100
192.500	50.610	0.100
192.600	28.933	0.100
192.700	44.984	0.100
192.800	42.024	0.100
192.900	31.847	0.100
193.000	41.084	0.100
193.100	50.808	0.100
193.200	41.736	0.100
193.300	44.679	0.100
193.400	47.495	0.100
193.500	53.959	0.100
193.600	34.943	0.100
193.700	25.801	0.100
193.800	33.133	0.100
193.900	42.492	0.100
194.000	55.241	0.100
194.100	22.094	0.100
194.200	32.937	0.100
194.300	45.463	0.100
194.400	56.534	0.100
194.500	56.531	0.100
194.600	32.437	0.100
194.700	48.862	0.100
194.800	35.379	0.100
194.900	54.058	0.100
195.000	41.060	0.100
195.100	57.627	0.100
195.200	40.163	0.100
195.300	48.904	0.100
195.400	50.359	0.100
195.500	54.492	0.100
195.600	48.708	0.100
195.700	44.910	0.100
195.800	54.581	0.100
195.900	61.144	0.100
196.000	30.461	0.100
196.100	51.186	0.100
196.200	56.166	0.100
196.300	44.104	0.100
196.400	31.531	0.100
196.500	72.035	0.100
196.600	53.261	0.100
196.700	69.886	0.100
196.800	53.767	0.100
196.900	54.619	0.100
197.000	54.643	0.100
197.100	41.123	0.100
197.200	46.597	0.100
197.300	51.081	0.100
197.400	53.384	0.100
197.500	49.689	0.100
197.600	54.646	0.100
197.700	61.989	0.100
197.800	44.437	0.100
197.900	72.493	0.100
198.000	38.902	0.100
198.100	51.510	0.100
198.200	75.290	0.100
198.300	50.288	0.100
198.400	59.196	0.100
198.500	51.513	0.100
198.600	63.234	0.100
198.700	56.243	0.100
198.800	60.827	0.100
198.900	49.884	0.100
199.000	55.440	0.100
199.100	67.174	0.100
199.200	54.142	0.100
199.300	61.649	0.100
199.400	52.898	0.100
199.500	54.478	0.100
199.600	70.364	0.100
199.700	59.866	0.100
199.800	44.878	0.100
199.900	64.151	0.100
200.000	59.296	0.100
200.100	55.007	0.100
200.200	52.927	0.100
200.300	31.387	0.100
200.400	45.736	0.100
200.500	56.793	0.100
200.600	55.333	0.100
200.700	64.605	0.100
200.800	49.627	0.100
200.900	73.262	0.100
201.000	77.254	0.100
201.100	54.104	0.100
201.200	62.848	0.100
201.300	65.450	0.100
201.400	44.684	0.100
201.500	81.941	0.100
201.600	64.728	0.100
201.700	50.333	0.100
201.800	53.701	0.100
201.900	60.565	0.100
202.000	45.454	0.100
202.100	56.711	0.100
202.200	54.362	0.100
202.300	37.397	0.100
202.400	53.939	0.100
202.500	70.024	0.100
202.600	51.008	0.100
202.700	64.567	0.100
202.800	48.304	0.100
202.900	66.537	0.100
203.000	55.649	0.100
203.100	63.714	0.100
203.200	72.198	0.100
203.300	40.028	0.100
203.400	46.421	0.100
203.500	60.281	0.100
203.600	48.008	0.100
203.700	63.554	0.100
203.800	57.469	0.100
203.900	59.292	0.100
204.000	68.383	0.100
204.100	43.982	0.100
204.200	41.218	0.100
204.300	59.504	0.100
204.400	46.365	0.100
204.500	66.323	0.100
204.600	65.562	0.100
204.700	65.432	0.100
204.800	49.498	0.100
204.900	59.029	0.100
205.000	51.136	0.100
205.100	51.660	0.100
205.200	64.367	0.100
205.300	70.134	0.100
205.400	51.484	0.100
205.500	69.628	0.100
205.600	54.910	0.100
205.700	67.708	0.100
205.800	53.658	0.100
205.900	54.948	0.100
206.000	63.194	0.100
206.100	42.212	0.100
206.200	39.134	0.100
206.300	63.490	0.100
206.400	61.229	0.100
206.500	68.778	0.100
206.600	45.007	0.100
206.700	58.805	0.100
206.800	59.348	0.100
206.900	66.364	0.100
207.000	38.588	0.100
207.100	68.271	0.100
207.200	53.956	0.100
207.300	57.711	0.100
207.400	84.579	0.100
207.500	56.661	0.100
207.600	36.994	0.100
207.700	63.641	0.100
207.800	40.776	0.100
207.900	54.137	0.100
208.000	51.404	0.100
208.100	53.765	0.100
208.200	49.674	0.100
208.300	61.196	0.100
208.400	60.251	0.100
208.500	55.951	0.100
208.600	56.984	0.100
208.700	57.910	0.100
208.800	56.465	0.100
208.900	62.951	0.100
209.000	48.221	0.100
209.100	59.525	0.100
209.200	79.611	0.100
209.300	40.289	0.100
209.400	55.865	0.100
209.500	38.346	0.100
209.600	53.038	0.100
209.700	55.706	0.100
209.800	52.398	0.100
209.900	55.052	0.100
210.000	49.735	0.100
210.100	58.625	0.100
210.200	53.900	0.100
210.300	56.874	0.100
210.400	19.754	0.100
210.500	58.097	0.100
210.600	53.262	0.100
210.700	36.614	0.100
210.800	65.401	0.100
210.900	56.766	0.100
211.000	46.898	0.100
211.100	47.167	0.100
211.200	49.859	0.100
211.300	66.324	0.100
211.400	45.464	0.100
211.500	48.561	0.100
211.600	57.908	0.100
211.700	29.376	0.100
211.800	66.254	0.100
211.900	55.360	0.100
212.000	58.081	0.100
212.100	51.779	0.100
212.200	52.927	0.100
212.300	43.295	0.100
212.400	59.670	0.100
212.500	45.877	0.100
212.600	40.290	0.100
212.700	60.505	0.100
212.800	53.388	0.100
212.900	59.706	0.100
213.000	30.313	0.100
213.100	44.137	0.100
213.200	40.473	0.100
213.300	38.640	0.100
213.400	68.125	0.100
213.500	47.110	0.100
213.600	58.924	0.100
213.700	65.137	0.100
213.800	48.915	0.100
213.900	59.961	0.100
214.000	42.527	0.100
214.100	57.458	0.100
214.200	55.320	0.100
214.300	27.670	0.100
214.400	42.253	0.100
214.500	57.960	0.100
214.600	50.417	0.100
214.700	64.194	0.100
214.800	49.488	0.100
214.900	45.397	0.100
215.000	50.839	0.100
215.100	50.289	0.100
215.200	49.613	0.100
215.300	48.170	0.100
215.400	61.129	0.100
215.500	55.999	0.100
215.600	40.443	0.100
215.700	35.777	0.100
215.800	57.870	0.100
215.900	64.517	0.100
216.000	50.266	0.100
216.100	48.067	0.100
216.200	48.666	0.100
216.300	57.318	0.100
216.400	58.304	0.100
216.500	55.760	0.100
216.600	38.669	0.100
216.700	50.570	0.100
216.800	51.713	0.100
216.900	51.398	0.100
217.000	44.459	0.100
217.100	54.773	0.100
217.200	67.559	0.100
217.300	57.593	0.100
217.400	40.013	0.100
217.500	41.529	0.100
217.600	50.411	0.100
217.700	54.540	0.100
217.800	37.002	0.100
217.900	47.969	0.100
218.000	46.677	0.100
218.100	43.967	0.100
218.200	45.659	0.100
218.300	52.903	0.100
218.400	47.558	0.100
218.500	60.546	0.100
218.600	40.273	0.100
218.700	53.083	0.100
218.800	49.152	0.100
218.900	42.080	0.100
219.000	51.169	0.100
219.100	45.222	0.100
219.200	27.706	0.100
219.300	44.576	0.100
219.400	46.163	0.100
219.500	40.315	0.100
219.600	44.948	0.100
219.700	66.796	0.100
219.800	48.075	0.100
219.900	48.699	0.100
220.000	40.741	0.100
220.100	53.356	0.100
220.200	44.170	0.100
220.300	40.597	0.100
220.400	54.656	0.100
220.500	25.826	0.100
220.600	36.320	0.100
220.700	53.849	0.100
220.800	41.552	0.100
220.900	60.760	0.100
221.000	37.788	0.100
221.100	54.668	0.100
221.200	31.739	0.100
221.300	56.636	0.100
221.400	47.943	0.100
221.500	42.918	0.100
221.600	52.086	0.100
221.700	53.139	0.100
221.800	41.787	0.100
221.900	50.544	0.100
222.000	48.787	0.100
222.100	47.310	0.100
222.200	43.609	0.100
222.300	52.415	0.100
222.400	43.298	0.100
222.500	52.395	0.100
222.600	49.347	0.100
222.700	38.527	0.100
222.800	45.434	0.100
222.900	51.076	0.100
223.000	45.338	0.100
223.100	47.338	0.100
223.200	52.579	0.100
223.300	28.723	0.100
223.400	34.652	0.100
223.500	53.634	0.100
223.600	40.505	0.100
223.700	35.226	0.100
223.800	58.296	0.100
223.900	63.588	0.100
224.000	55.983	0.100
224.100	17.101	0.100
224.200	21.625	0.100
224.300	33.564	0.100
224.400	55.601	0.100
224.500	40.162	0.100
224.600	71.518	0.100
224.700	42.849	0.100
224.800	35.497	0.100
224.900	59.957	0.100
225.000	38.262	0.100
225.100	32.864	0.100
225.200	48.039	0.100
225.300	58.935	0.100
225.400	50.368	0.100
225.500	28.445	0.100
225.600	50.297	0.100
225.700	42.321	0.100
225.800	54.210	0.100
225.900	46.591	0.100
226.000	45.979	0.100
226.100	48.374	0.100
226.200	35.428	0.100
226.300	30.198	0.100
226.400	42.405	0.100
226.500	56.808	0.100
226.600	29.167	0.100
226.700	27.722	0.100
226.800	59.479	0.100
226.900	41.371	0.100
227.000	38.886	0.100
227.100	32.084	0.100
227.200	41.813	0.100
227.300	37.863	0.100
227.400	47.190	0.100
227.500	36.210	0.100
227.600	40.788	0.100
227.700	44.686	0.100
227.800	46.512	0.100
227.900	44.187	0.100
228.000	50.103	0.100
228.100	38.687	0.100
228.200	48.654	0.100
228.300	27.908	0.100
228.400	40.917	0.100
228.500	29.526	0.100
228.600	47.098	0.100
228.700	46.152	0.100
228.800	47.638	0.100
228.900	40.166	0.100
229.000	32.849	0.100
229.100	45.791	0.100
229.200	46.017	0.100
229.300	27.846	0.100
229.400	55.805	0.100
229.500	30.692	0.100
229.600	42.443	0.100
229.700	50.929	0.100
229.800	38.053	0.100
229.900	45.715	0.100
230.000	46.135	0.100
230.100	34.509	0.100
230.200	37.926	0.100
230.300	37.568	0.100
230.400	41.280	0.100
230.500	50.552	0.100
230.600	23.387	0.100
230.700	37.641	0.100
230.800	48.476	0.100
230.900	33.525	0.100
231.000	41.436	0.100
231.100	36.371	0.100
231.200	46.557	0.100
231.300	42.323	0.100
231.400	25.993	0.100
231.500	55.822	0.100
231.600	31.907	0.100
231.700	29.341	0.100
231.800	39.097	0.100
231.900	46.094	0.100
232.000	33.248	0.100
232.100	59.601	0.100
232.200	49.949	0.100
232.300	29.929	0.100
232.400	48.945	0.100
232.500	28.012	0.100
232.600	31.981	0.100
232.700	36.947	0.100
232.800	45.964	0.100
232.900	25.631	0.100
233.000	29.479	0.100
233.100	34.735	0.100
233.200	27.810	0.100
233.300	50.612	0.100
233.400	39.833	0.100
233.500	42.834	0.100
233.600	45.062	0.100
233.700	55.273	0.100
233.800	20.001	0.100
233.900	33.366	0.100
234.000	48.850	0.100
234.100	31.688	0.100
234.200	26.972	0.100
234.300	43.134	0.100
234.400	40.085	0.100
234.500	43.479	0.100
234.600	37.352	0.100
234.700	41.509	0.100
234.800	35.671	0.100
234.900	51.862	0.100
235.000	37.549	0.100
235.100	45.170	0.100
235.200	28.949	0.100
235.300	32.363	0.100
235.400	39.020	0.100
235.500	43.970	0.100
235.600	38.058	0.100
235.700	42.836	0.100
235.800	22.390	0.100
235.900	38.765	0.100
236.000	52.223	0.100
236.100	41.234	0.100
236.200	41.921	0.100
236.300	34.152	0.100
236.400	32.692	0.100
236.500	40.778	0.100
236.600	49.162	0.100
236.700	43.409	0.100
236.800	24.708	0.100
236.900	44.543	0.100
237.000	41.384	0.100
237.100	27.439	0.100
237.200	41.567	0.100
237.300	38.163	0.100
237.400	28.247	0.100
237.500	26.352	0.100
237.600	42.411	0.100
237.700	35.091	0.100
237.800	31.138	0.100
237.900	38.460	0.100
238.000	22.581	0.100
238.100	39.386	0.100
238.200	42.367	0.100
238.300	36.688	0.100
238.400	29.633	0.100
238.500	28.005	0.100
238.600	17.306	0.100
238.700	29.971	0.100
238.800	51.123	0.100
238.900	29.466	0.100
239.000	34.948	0.100
239.100	35.316	0.100
239.200	20.408	0.100
239.300	30.358	0.100
239.400	31.188	0.100
239.500	53.864	0.100
239.600	22.907	0.100
239.700	41.426	0.100
239.800	36.257	0.100
239.900	21.674	0.100
240.000	31.307	0.100
240.100	37.703	0.100
240.200	33.672	0.100
240.300	41.277	0.100
240.400	25.217	0.100
240.500	22.194	0.100
240.600	30.394	0.100
240.700	20.074	0.100
240.800	26.866	0.100
240.900	5.369	0.100
241.000	15.197	0.100
241.100	23.771	0.100
241.200	17.893	0.100
241.300	25.388	0.100
241.400	3.098	0.100
241.500	26.261	0.100
241.600	-2.809	0.100
241.700	37.836	0.100
241.800	17.921	0.100
241.900	12.724	0.100
242.000	-12.507	0.100
242.100	-1.201	0.100
242.200	21.004	0.100
242.300	14.405	0.100
242.400	4.735	0.100
242.500	-4.745	0.100
242.600	-3.841	0.100
242.700	-6.979	0.100
242.800	-1.842	0.100
242.900	2.150	0.100
243.000	7.225	0.100
243.100	8.907	0.100
243.200	8.598	0.100
243.300	-0.577	0.100
243.400	3.612	0.100
243.500	-8.349	0.100
243.600	-2.332	0.100
243.700	4.549	0.100
243.800	-0.188	0.100
243.900	-14.808	0.100
244.000	-0.958	0.100
244.100	-12.086	0.100
244.200	2.724	0.100
244.300	-1.622	0.100
244.400	3.180	0.100
244.500	-6.931	0.100
244.600	8.239	0.100
244.700	-16.596	0.100
244.800	3.176	0.100
244.900	-12.820	0.100
245.000	-17.924	0.100
245.100	-13.854	0.100
245.200	-6.917	0.100
245.300	-16.211	0.100
245.400	-11.182	0.100
245.500	3.902	0.100
245.600	-14.619	0.100
245.700	-17.760	0.100
245.800	-1.813	0.100
245.900	9.711	0.100
246.000	-5.571	0.100
246.100	-16.024	0.100
246.200	-15.429	0.100
246.300	-32.830	0.100
246.400	-9.938	0.100
246.500	-18.432	0.100
246.600	-3.407	0.100
246.700	5.604	0.100
246.800	-10.291	0.100
246.900	-12.580	0.100
247.000	-15.280	0.100
247.100	-14.851	0.100
247.200	-19.472	0.100
247.300	-19.725	0.100
247.400	-9.702	0.100
247.500	-14.878	0.100
247.600	-12.815	0.100
247.700	-8.707	0.100
247.800	-14.678	0.100
247.900	-2.206	0.100
248.000	-14.080	0.100
248.100	-9.432	0.100
248.200	0.381	0.100
248.300	11.834	0.100
248.400	-16.502	0.100
248.500	-1.102	0.100
248.600	-2.498	0.100
248.700	-8.940	0.100
248.800	-1.851	0.100
248.900	-11.797	0.100
249.000	-9.278	0.100
249.100	-15.582	0.100
249.200	7.123	0.100
249.300	-3.527	0.100
249.400	-20.257	0.100
249.500	-8.191	0.100
249.600	-4.260	0.100
249.700	-13.015	0.100
249.800	-20.055	0.100
249.900	-10.817	0.100
250.000	8.295	0.100
250.100	-6.499	0.100
250.200	-23.176	0.100
250.300	-11.548	0.100
250.400	-5.551	0.100
250.500	-28.317	0.100
250.600	-9.606	0.100
250.700	-3.602	0.100
250.800	-29.271	0.100
250.900	-8.146	0.100
251.000	-6.412	0.100
251.100	0.234	0.100
251.200	-12.882	0.100
251.300	-12.612	0.100
251.400	4.766	0.100
251.500	-3.437	0.100
251.600	-1.382	0.100
251.700	-10.590	0.100
251.800	15.702	0.100
251.900	-13.279	0.100
252.000	-10.225	0.100
252.100	-9.045	0.100
252.200	-10.062	0.100
252.300	6.782	0.100
252.400	-17.981	0.100
252.500	-3.702	0.100
252.600	-1.914	0.100
252.700	0.851	0.100
252.800	12.241	0.100
252.900	-18.290	0.100
253.000	-3.813	0.100
253.100	-8.167	0.100
253.200	-21.595	0.100
253.300	-9.699	0.100
253.400	0.379	0.100
253.500	6.439	0.100
253.600	-10.044	0.100
253.700	-10.302	0.100
253.800	-5.806	0.100
253.900	-5.498	0.100
254.000	-8.227	0.100
254.100	-12.185	0.100
254.200	-0.728	0.100
254.300	-22.501	0.100
254.400	5.354	0.100
254.500	-2.730	0.100
254.600	-10.432	0.100
254.700	-7.609	0.100
254.800	-6.480	0.100
254.900	2.288	0.100
255.000	-9.692	0.100
255.100	-11.756	0.100
255.200	-5.889	0.100
255.300	-7.434	0.100
255.400	-12.222	0.100
255.500	7.780	0.100
255.600	-10.648	0.100
255.700	-0.834	0.100
255.800	-6.463	0.100
255.900	-3.155	0.100
256.000	-9.164	0.100
256.100	-10.467	0.100
256.200	-6.093	0.100
256.300	3.601	0.100
256.400	-30.000	0.100
256.500	1.612	0.100
256.600	-5.468	0.100
256.700	-10.761	0.100
256.800	1.916	0.100
256.900	6.077	0.100
257.000	-5.903	0.100
257.100	-14.119	0.100
257.200	8.031	0.100
257.300	-1.525	0.100
257.400	0.197	0.100
257.500	-16.803	0.100
257.600	-1.824	0.100
257.700	10.224	0.100
257.800	-19.549	0.100
257.900	-8.293	0.100
258.000	-8.720	0.100
258.100	-17.958	0.100
258.200	-2.162	0.100
258.300	-16.482	0.100
258.400	-5.573	0.100
258.500	-8.288	0.100
258.600	-10.769	0.100
258.700	-14.187	0.100
258.800	-19.314	0.100
258.900	-1.677	0.100
259.000	-19.624	0.100
259.100	-5.485	0.100
259.200	-4.802	0.100
259.300	4.744	0.100
259.400	-5.809	0.100
259.500	-9.267	0.100
259.600	-8.419	0.100
259.700	-6.968	0.100
259.800	-16.564	0.100
259.900	-18.171	0.100
260.000	-4.746	0.100
260.100	-4.665	0.100
260.200	-12.936	0.100
260.300	-7.683	0.100
260.400	-11.032	0.100
260.500	-1.102	0.100
260.600	-5.437	0.100
260.700	-4.560	0.100
260.800	1.870	0.100
260.900	-27.535	0.100
261.000	-7.488	0.100
261.100	-6.106	0.100
261.200	-3.609	0.100
261.300	-14.083	0.100
261.400	-2.897	0.100
261.500	-12.491	0.100
261.600	-3.250	0.100
261.700	-26.999	0.100
261.800	-4.919	0.100
261.900	4.651	0.100
262.000	-3.833	0.100
262.100	-11.001	0.100
262.200	-4.211	0.100
262.300	-12.227	0.100
262.400	-11.112	0.100
262.500	-17.597	0.100
262.600	-1.881	0.100
262.700	-2.303	0.100
262.800	-16.505	0.100
262.900	3.814	0.100
263.000	8.963	0.100
263.100	-22.658	0.100
263.200	0.924	0.100
263.300	-18.387	0.100
263.400	-8.380	0.100
263.500	-26.206	0.100
263.600	-28.809	0.100
263.700	-5.062	0.100
263.800	-21.475	0.100
263.900	-16.163	0.100
264.000	-6.372	0.100
264.100	-0.061	0.100
264.200	-15.784	0.100
264.300	-18.381	0.100
264.400	-4.941	0.100
264.500	0.492	0.100
264.600	-10.835	0.100
264.700	4.059	0.100
264.800	-24.165	0.100
264.900	-8.752	0.100
265.000	-14.460	0.100
265.100	14.108	0.100
265.200	-9.186	0.100
265.300	1.825	0.100
265.400	-15.362	0.100
265.500	-1.093	0.100
265.600	-16.817	0.100
265.700	-1.243	0.100
265.800	-16.931	0.100
265.900	-29.846	0.100
266.000	1.136	0.100
266.100	-9.415	0.100
266.200	-14.951	0.100
266.300	-10.950	0.100
266.400	-10.062	0.100
266.500	-19.043	0.100
266.600	-14.492	0.100
266.700	5.266	0.100
266.800	0.167	0.100
266.900	-8.950	0.100
267.000	2.286	0.100
267.100	-5.181	0.100
267.200	-15.598	0.100
267.300	-4.020	0.100
267.400	7.437	0.100
267.500	-28.942	0.100
267.600	-16.981	0.100
267.700	-12.542	0.100
267.800	4.873	0.100
267.900	-20.772	0.100
268.000	-3.528	0.100
268.100	-5.703	0.100
268.200	-20.494	0.100
268.300	-9.229	0.100
268.400	-2.739	0.100
268.500	-14.796	0.100
268.600	-6.983	0.100
268.700	4.954	0.100
268.800	-8.780	0.100
268.900	-5.711	0.100
269.000	6.450	0.100
269.100	-5.758	0.100
269.200	-14.420	0.100
269.300	-2.842	0.100
269.400	-10.766	0.100
269.500	-8.400	0.100
269.600	-3.197	0.100
269.700	-34.467	0.100
269.800	4.482	0.100
269.900	-12.366	0.100
270.000	-3.320	0.100
270.100	9.208	0.100
270.200	-9.459	0.100
270.300	-10.763	0.100
270.400	4.578	0.100
270.500	-6.881	0.100
270.600	-13.962	0.100
270.700	-7.044	0.100
270.800	-7.563	0.100
270.900	-11.085	0.100
271.000	-18.005	0.100
271.100	-11.941	0.100
271.200	-18.786	0.100
271.300	8.096	0.100
271.400	6.230	0.100
271.500	-2.976	0.100
271.600	3.796	0.100
271.700	-14.093	0.100
271.800	-20.257	0.100
271.900	-9.513	0.100
272.000	-20.882	0.100
272.100	-10.651	0.100
272.200	-6.080	0.100
272.300	-18.467	0.100
272.400	2.426	0.100
272.500	-10.301	0.100
272.600	-16.043	0.100
272.700	-6.013	0.100
272.800	-13.969	0.100
272.900	-6.026	0.100
273.000	-14.153	0.100
273.100	-16.211	0.100
273.200	-11.389	0.100
273.300	-0.805	0.100
273.400	-10.468	0.100
273.500	-23.205	0.100
273.600	6.665	0.100
273.700	-8.878	0.100
273.800	-9.656	0.100
273.900	-10.934	0.100
274.000	-6.375	0.100
274.100	-24.046	0.100
274.200	-4.506	0.100
274.300	-5.756	0.100
274.400	-0.332	0.100
274.500	-19.357	0.100
274.600	-9.083	0.100
274.700	1.124	0.100
274.800	3.761	0.100
274.900	4.579	0.100
275.000	-21.079	0.100
275.100	-4.471	0.100
275.200	-8.353	0.100
275.300	-10.446	0.100
275.400	-11.685	0.100
275.500	-6.498	0.100
275.600	-14.712	0.100
275.700	7.856	0.100
275.800	-15.375	0.100
275.900	-18.639	0.100
276.000	-3.595	0.100
276.100	-12.088	0.100
276.200	-17.739	0.100
276.300	-2.913	0.100
276.400	-6.036	0.100
276.500	-17.595	0.100
276.600	-19.462	0.100
276.700	-6.228	0.100
276.800	-11.754	0.100
276.900	-3.842	0.100
277.000	-15.010	0.100
277.100	-8.654	0.100
277.200	2.093	0.100
277.300	-13.062	0.100
277.400	5.368	0.100
277.500	-22.434	0.100
277.600	0.620	0.100
277.700	7.969	0.100
277.800	-13.633	0.100
277.900	-19.818	0.100
278.000	-2.875	0.100
278.100	-11.520	0.100
278.200	9.444	0.100
278.300	-3.708	0.100
278.400	-22.879	0.100
278.500	-10.128	0.100
278.600	-9.739	0.100
278.700	-9.273	0.100
278.800	-6.978	0.100
278.900	-15.717	0.100
279.000	-15.487	0.100
279.100	-0.653	0.100
279.200	-6.649	0.100
279.300	-9.921	0.100
279.400	-8.977	0.100
279.500	-0.552	0.100
279.600	-3.864	0.100
279.700	-3.506	0.100
279.800	-3.988	0.100
279.900	-20.991	0.100
280.000	9.731	0.100
280.100	-2.837	0.100
280.200	-22.373	0.100
280.300	-13.999	0.100
280.400	-14.493	0.100
280.500	-14.593	0.100
280.600	-5.658	0.100
280.700	-27.257	0.100
280.800	3.227	0.100
280.900	-12.502	0.100
281.000	2.026	0.100
281.100	-16.321	0.100
281.200	-17.799	0.100
281.300	-2.080	0.100
281.400	10.754	0.100
281.500	0.884	0.100
281.600	0.703	0.100
281.700	-9.542	0.100
281.800	-28.967	0.100
281.900	-8.785	0.100
282.000	-16.178	0.100
282.100	-0.912	0.100
282.200	-18.151	0.100
282.300	1.364	0.100
282.400	-6.736	0.100
282.500	-11.461	0.100
282.600	5.620	0.100
282.700	-24.645	0.100
282.800	-11.531	0.100
282.900	-9.612	0.100
283.000	-9.994	0.100
283.100	-25.141	0.100
283.200	-12.211	0.100
283.300	-15.362	0.100
283.400	-20.082	0.100
283.500	-9.729	0.100
283.600	-7.678	0.100
283.700	-17.767	0.100
283.800	-8.730	0.100
283.900	-5.233	0.100
284.000	-32.706	0.100
284.100	-2.472	0.100
284.200	-14.506	0.100
284.300	-11.697	0.100
284.400	-3.872	0.100
284.500	2.265	0.100
284.600	11.103	0.100
284.700	-26.930	0.100
284.800	-18.551	0.100
284.900	-0.676	0.100
285.000	-1.894	0.100
285.100	-8.318	0.100
285.200	-9.255	0.100
285.300	-2.361	0.100
285.400	8.920	0.100
285.500	-8.994	0.100
285.600	-10.975	0.100
285.700	1.646	0.100
285.800	1.491	0.100
285.900	-3.038	0.100
286.000	-5.251	0.100
286.100	-1.376	0.100
286.200	-13.102	0.100
286.300	-1.813	0.100
286.400	7.286	0.100
286.500	-19.857	0.100
286.600	-12.236	0.100
286.700	-28.273	0.100
286.800	-4.403	0.100
286.900	0.321	0.100
287.000	-3.061	0.100
287.100	-6.346	0.100
287.200	-9.669	0.100
287.300	-5.925	0.100
287.400	-8.693	0.100
287.500	-17.993	0.100
287.600	-21.188	0.100
287.700	-4.183	0.100
287.800	-15.205	0.100
287.900	-14.399	0.100
288.000	-4.450	0.100
288.100	-1.632	0.100
288.200	-12.417	0.100
288.300	-8.594	0.100
288.400	-16.459	0.100
288.500	-5.475	0.100
288.600	4.088	0.100
288.700	-20.663	0.100
288.800	5.556	0.100
288.900	-9.051	0.100
289.000	-19.879	0.100
289.100	-1.418	0.100
289.200	-5.613	0.100
289.300	11.612	0.100
289.400	-8.308	0.100
289.500	-10.274	0.100
289.600	10.328	0.100
289.700	-13.923	0.100
289.800	-19.595	0.100
289.900	1.953	0.100
290.000	-16.772	0.100
290.100	-6.556	0.100
290.200	-15.319	0.100
290.300	-2.890	0.100
290.400	-10.118	0.100
290.500	-6.723	0.100
290.600	-6.128	0.100
290.700	6.455	0.100
290.800	-6.819	0.100
290.900	2.517	0.100
291.000	-2.642	0.100
291.100	-8.196	0.100
291.200	-16.146	0.100
291.300	-11.929	0.100
291.400	-3.156	0.100
291.500	-3.352	0.100
291.600	-12.776	0.100
291.700	-1.964	0.100
291.800	-0.080	0.100
291.900	-15.808	0.100
292.000	-21.693	0.100
292.100	-5.923	0.100
292.200	0.078	0.100
292.300	-0.143	0.100
292.400	-13.606	0.100
292.500	-12.383	0.100
292.600	-23.282	0.100
292.700	-8.489	0.100
292.800	-6.939	0.100
292.900	-2.998	0.100
293.000	-14.466	0.100
293.100	-9.751	0.100
293.200	-3.162	0.100
293.300	-3.248	0.100
293.400	-1.346	0.100
293.500	-3.559	0.100
293.600	-9.059	0.100
293.700	7.857	0.100
293.800	-11.571	0.100
293.900	2.582	0.100
294.000	-0.910	0.100
294.100	-1.633	0.100
294.200	-16.026	0.100
294.300	-18.952	0.100
294.400	-1.437	0.100
294.500	-19.972	0.100
294.600	6.370	0.100
294.700	-5.044	0.100
294.800	-31.277	0.100
294.900	-7.549	0.100
295.000	-0.128	0.100
295.100	-3.309	0.100
295.200	-1.430	0.100
295.300	-6.618	0.100
295.400	3.129	0.100
295.500	10.016	0.100
295.600	-19.763	0.100
295.700	-2.743	0.100
295.800	-6.751	0.100
295.900	-20.181	0.100
296.000	8.893	0.100
296.100	-25.873	0.100
296.200	-2.410	0.100
296.300	-10.408	0.100
296.400	-3.581	0.100
296.500	-8.252	0.100
296.600	3.982	0.100
296.700	-14.713	0.100
296.800	-4.000	0.100
296.900	-11.777	0.100
297.000	-6.218	0.100
297.100	-19.265	0.100
297.200	3.509	0.100
297.300	17.141	0.100
297.400	-16.534	0.100
297.500	-28.646	0.100
297.600	-9.877	0.100
297.700	1.885	0.100
297.800	4.493	0.100
297.900	-2.661	0.100
298.000	-10.736	0.100
298.100	3.561	0.100
298.200	-9.078	0.100
298.300	-3.349	0.100
298.400	4.623	0.100
298.500	-5.836	0.100
298.600	0.299	0.100
298.700	-2.289	0.100
298.800	-21.645	0.100
298.900	2.177	0.100
299.000	3.777	0.100
299.100	-14.816	0.100
299.200	-4.094	0.100
299.300	-8.348	0.100
299.400	-0.568	0.100
299.500	-13.441	0.100
299.600	1.456	0.100
299.700	-12.716	0.100
299.800	-11.562	0.100
299.900	-9.529	0.100
300.000	-3.019	0.100
300.100	-10.847	0.100
300.200	1.485	0.100
300.300	-3.443	0.100
300.400	-6.778	0.100
300.500	-2.577	0.100
300.600	-11.358	0.100
300.700	-9.604	0.100
300.800	-17.281	0.100
300.900	6.704	0.100
301.000	-12.319	0.100
301.100	-19.302	0.100
301.200	-8.706	0.100
301.300	5.971	0.100
301.400	-0.550	0.100
301.500	-21.848	0.100
301.600	-21.599	0.100
301.700	-5.267	0.100
301.800	-2.747	0.100
301.900	1.814	0.100
302.000	-11.325	0.100
302.100	16.412	0.100
302.200	-3.472	0.100
302.300	2.917	0.100
302.400	-8.213	0.100
302.500	-28.530	0.100
302.600	-12.521	0.100
302.700	14.914	0.100
302.800	-13.201	0.100
302.900	-9.420	0.100
303.000	-7.439	0.100
303.100	-4.685	0.100
303.200	-7.336	0.100
303.300	-9.619	0.100
303.400	2.603	0.100
303.500	-2.704	0.100
303.600	3.732	0.100
303.700	-16.993	0.100
303.800	-6.979	0.100
303.900	-6.330	0.100
304.000	-3.129	0.100
304.100	-11.359	0.100
304.200	8.190	0.100
304.300	-16.421	0.100
304.400	5.984	0.100
304.500	-17.832	0.100
304.600	-6.005	0.100
304.700	-3.766	0.100
304.800	11.524	0.100
304.900	-3.346	0.100
305.000	-11.586	0.100
305.100	-16.988	0.100
305.200	-4.827	0.100
305.300	-17.399	0.100
305.400	-5.530	0.100
305.500	9.573	0.100
305.600	-9.954	0.100
305.700	3.368	0.100
305.800	-10.196	0.100
305.900	-10.980	0.100
306.000	9.061	0.100
306.100	-8.189	0.100
306.200	-3.125	0.100
306.300	-18.125	0.100
306.400	-1.050	0.100
306.500	-19.231	0.100
306.600	-6.775	0.100
306.700	-14.438	0.100
306.800	-3.293	0.100
306.900	4.545	0.100
307.000	-1.785	0.100
307.100	-14.447	0.100
307.200	-13.758	0.100
307.300	-5.675	0.100
307.400	-11.801	0.100
307.500	12.828	0.100
307.600	0.528	0.100
307.700	-14.727	0.100
307.800	13.415	0.100
307.900	-17.479	0.100
308.000	-8.599	0.100
308.100	-8.659	0.100
308.200	6.695	0.100
308.300	-22.518	0.100
308.400	3.345	0.100
308.500	-2.529	0.100
308.600	-7.254	0.100
308.700	-1.728	0.100
308.800	-17.540	0.100
308.900	-13.120	0.100
309.000	-14.884	0.100
309.100	8.758	0.100
309.200	-7.122	0.100
309.300	-8.189	0.100
309.400	-15.690	0.100
309.500	8.407	0.100
309.600	-12.661	0.100
309.700	0.344	0.100
309.800	15.494	0.100
309.900	-8.767	0.100
310.000	-2.887	0.100
310.100	2.776	0.100
310.200	-15.453	0.100
310.300	-2.956	0.100
310.400	0.756	0.100
310.500	-17.656	0.100
310.600	-4.932	0.100
310.700	-14.990	0.100
310.800	0.373	0.100
310.900	-2.547	0.100
311.000	10.064	0.100
311.100	-13.033	0.100
311.200	-9.598	0.100
311.300	-5.034	0.100
311.400	-14.302	0.100
311.500	-20.394	0.100
311.600	-0.929	0.100
311.700	5.974	0.100
311.800	-7.530	0.100
311.900	1.085	0.100
312.000	6.471	0.100
312.100	-5.842	0.100
312.200	-4.539	0.100
312.300	-3.683	0.100
312.400	7.848	0.100
312.500	-0.185	0.100
312.600	-7.475	0.100
312.700	-5.063	0.100
312.800	-2.727	0.100
312.900	-14.429	0.100
313.000	-19.363	0.100
313.100	-3.118	0.100
313.200	7.417	0.100
313.300	1.957	0.100
313.400	-3.385	0.100
313.500	0.966	0.100
313.600	-1.975	0.100
313.700	-6.679	0.100
313.800	-2.449	0.100
313.900	8.510	0.100
314.000	-1.332	0.100
314.100	-10.225	0.100
314.200	-3.596	0.100
314.300	-2.357	0.100
314.400	-14.039	0.100
314.500	-10.698	0.100
314.600	-7.394	0.100
314.700	1.939	0.100
314.800	-5.537	0.100
314.900	1.423	0.100
315.000	5.219	0.100
315.100	-12.060	0.100
315.200	1.447	0.100
315.300	10.470	0.100
315.400	-0.197	0.100
315.500	-11.042	0.100
315.600	4.249	0.100
315.700	13.267	0.100
315.800	3.376	0.100
315.900	-15.324	0.100
316.000	-6.294	0.100
316.100	-6.039	0.100
316.200	-2.295	0.100
316.300	-8.014	0.100
316.400	-3.709	0.100
316.500	-10.956	0.100
316.600	-17.967	0.100
316.700	18.867	0.100
316.800	6.747	0.100
316.900	-9.779	0.100
317.000	3.119	0.100
317.100	14.479	0.100
317.200	-7.314	0.100
317.300	1.439	0.100
317.400	-3.589	0.100
317.500	2.072	0.100
317.600	-3.865	0.100
317.700	7.763	0.100
317.800	-0.483	0.100
317.900	-19.268	0.100
318.000	-10.126	0.100
318.100	12.905	0.100
318.200	-37.120	0.100
318.300	-13.804	0.100
318.400	-14.506	0.100
318.500	0.932	0.100
318.600	-1.535	0.100
318.700	-0.963	0.100
318.800	-6.350	0.100
318.900	-10.142	0.100
319.000	-5.123	0.100
319.100	2.056	0.100
319.200	-9.082	0.100
319.300	-10.104	0.100
319.400	-1.763	0.100
319.500	0.186	0.100
319.600	7.129	0.100
319.700	-0.326	0.100
319.800	-2.686	0.100
319.900	-18.806	0.100
320.000	-16.573	0.100
320.100	-21.347	0.100
320.200	12.149	0.100
320.300	10.242	0.100
320.400	-19.516	0.100
320.500	-9.713	0.100
320.600	15.743	0.100
320.700	10.508	0.100
320.800	-5.155	0.100
320.900	9.414	0.100
321.000	-3.179	0.100
321.100	-13.489	0.100
321.200	2.220	0.100
321.300	-15.428	0.100
321.400	-8.216	0.100
321.500	6.723	0.100
321.600	3.613	0.100
321.700	-12.106	0.100
321.800	-3.441	0.100
321.900	-0.139	0.100
322.000	-2.430	0.100
322.100	-1.990	0.100
322.200	-6.124	0.100
322.300	-12.128	0.100
322.400	-4.906	0.100
322.500	-15.249	0.100
322.600	-14.262	0.100
322.700	-22.842	0.100
322.800	-0.876	0.100
322.900	0.578	0.100
323.000	8.323	0.100
323.100	6.905	0.100
323.200	9.803	0.100
323.300	-19.477	0.100
323.400	-2.151	0.100
323.500	6.577	0.100
323.600	-9.986	0.100
323.700	-1.409	0.100
323.800	-15.064	0.100
323.900	-16.210	0.100
324.000	4.800	0.100
324.100	12.550	0.100
324.200	-4.149	0.100
324.300	-5.970	0.100
324.400	-9.473	0.100
324.500	10.425	0.100
324.600	2.968	0.100
324.700	-8.024	0.100
324.800	-3.213	0.100
324.900	2.351	0.100
325.000	-15.449	0.100
325.100	4.396	0.100
325.200	-4.392	0.100
325.300	-18.717	0.100
325.400	-17.065	0.100
325.500	-10.377	0.100
325.600	12.689	0.100
325.700	4.951	0.100
325.800	6.175	0.100
325.900	-1.018	0.100
326.000	-7.096	0.100
326.100	-11.697	0.100
326.200	-4.597	0.100
326.300	-12.158	0.100
326.400	-6.785	0.100
326.500	-5.125	0.100
326.600	-9.179	0.100
326.700	-9.803	0.100
326.800	1.692	0.100
326.900	3.749	0.100
327.000	-15.429	0.100
327.100	-9.974	0.100
327.200	-12.382	0.100
327.300	1.359	0.100
327.400	-0.064	0.100
327.500	-15.032	0.100
327.600	-6.257	0.100
327.700	-3.505	0.100
327.800	-4.822	0.100
327.900	-5.148	0.100
328.000	-13.561	0.100
328.100	-9.909	0.100
328.200	-18.914	0.100
328.300	0.507	0.100
328.400	-7.025	0.100
328.500	-13.328	0.100
328.600	-9.740	0.100
328.700	0.165	0.100
328.800	-15.217	0.100
328.900	4.025	0.100
329.000	-4.665	0.100
329.100	0.981	0.100
329.200	-9.745	0.100
329.300	-8.661	0.100
329.400	-2.506	0.100
329.500	-9.604	0.100
329.600	14.566	0.100
329.700	9.232	0.100
329.800	-0.552	0.100
329.900	-0.037	0.100
330.000	-9.661	0.100
330.100	-4.427	0.100
330.200	-9.108	0.100
330.300	-12.317	0.100
330.400	6.435	0.100
330.500	11.321	0.100
330.600	20.119	0.100
330.700	11.853	0.100
330.800	2.008	0.100
330.900	17.649	0.100
331.000	8.304	0.100
331.100	17.747	0.100
331.200	-9.196	0.100
331.300	27.698	0.100
331.400	7.901	0.100
331.500	-4.686	0.100
331.600	14.054	0.100
331.700	12.881	0.100
331.800	22.348	0.100
331.900	34.717	0.100
332.000	11.055	0.100
332.100	0.614	0.100
332.200	15.796	0.100
332.300	29.509	0.100
332.400	34.522	0.100
332.500	20.661	0.100
332.600	8.589	0.100
332.700	22.927	0.100
332.800	23.380	0.100
332.900	17.975	0.100
333.000	33.874	0.100
333.100	21.848	0.100
333.200	23.005	0.100
333.300	9.012	0.100
333.400	16.241	0.100
333.500	20.403	0.100
333.600	16.305	0.100
333.700	16.636	0.100
333.800	26.332	0.100
333.900	27.340	0.100
334.000	34.779	0.100
334.100	20.356	0.100
334.200	15.319	0.100
334.300	38.373	0.100
334.400	11.313	0.100
334.500	31.839	0.100
334.600	15.877	0.100
334.700	18.340	0.100
334.800	33.272	0.100
334.900	4.048	0.100
335.000	21.751	0.100
335.100	8.771	0.100
335.200	26.672	0.100
335.300	33.130	0.100
335.400	16.742	0.100
335.500	19.304	0.100
335.600	20.257	0.100
335.700	17.952	0.100
335.800	17.777	0.100
335.900	32.628	0.100
336.000	20.258	0.100
336.100	37.212	0.100
336.200	19.572	0.100
336.300	13.534	0.100
336.400	11.420	0.100
336.500	15.537	0.100
336.600	17.580	0.100
336.700	1.278	0.100
336.800	27.812	0.100
336.900	35.004	0.100
337.000	29.043	0.100
337.100	27.339	0.100
337.200	18.855	0.100
337.300	30.732	0.100
337.400	14.766	0.100
337.500	45.651	0.100
337.600	6.649	0.100
337.700	16.275	0.100
337.800	18.363	0.100
337.900	23.345	0.100
338.000	27.866	0.100
338.100	14.508	0.100
338.200	58.837	0.100
338.300	33.384	0.100
338.400	11.982	0.100
338.500	14.204	0.100
338.600	24.751	0.100
338.700	25.180	0.100
338.800	11.836	0.100
338.900	15.816	0.100
339.000	26.531	0.100
339.100	11.775	0.100
339.200	36.331	0.100
339.300	18.367	0.100
339.400	23.564	0.100
339.500	13.207	0.100
339.600	26.879	0.100
339.700	20.364	0.100
339.800	39.525	0.100
339.900	13.489	0.100
340.000	10.953	0.100
340.100	15.268	0.100
340.200	31.824	0.100
340.300	34.572	0.100
340.400	25.907	0.100
340.500	26.482	0.100
340.600	17.412	0.100
340.700	37.501	0.100
340.800	24.752	0.100
340.900	12.293	0.100
341.000	53.857	0.100
341.100	34.811	0.100
341.200	18.049	0.100
341.300	28.638	0.100
341.400	3.270	0.100
341.500	25.891	0.100
341.600	33.419	0.100
341.700	26.073	0.100
341.800	20.472	0.100
341.900	37.647	0.100
342.000	22.434	0.100
342.100	30.363	0.100
342.200	30.110	0.100
342.300	26.440	0.100
342.400	30.111	0.100
342.500	40.888	0.100
342.600	26.431	0.100
342.700	31.369	0.100
342.800	42.050	0.100
342.900	39.674	0.100
343.000	20.972	0.100
343.100	19.106	0.100
343.200	22.508	0.100
343.300	26.009	0.100
343.400	46.801	0.100
343.500	30.416	0.100
343.600	23.468	0.100
343.700	31.677	0.100
343.800	38.681	0.100
343.900	38.710	0.100
344.000	45.548	0.100
344.100	20.095	0.100
344.200	39.035	0.100
344.300	44.128	0.100
344.400	29.103	0.100
344.500	26.565	0.100
344.600	34.006	0.100
344.700	21.913	0.100
344.800	28.072	0.100
344.900	46.294	0.100
345.000	34.003	0.100
345.100	26.229	0.100
345.200	36.002	0.100
345.300	49.474	0.100
345.400	37.994	0.100
345.500	41.346	0.100
345.600	30.780	0.100
345.700	27.974	0.100
345.800	47.960	0.100
345.900	45.122	0.100
346.000	32.157	0.100
346.100	60.941	0.100
346.200	29.911	0.100
346.300	40.489	0.100
346.400	32.636	0.100
346.500	30.678	0.100
346.600	43.492	0.100
346.700	45.551	0.100
346.800	54.501	0.100
346.900	45.676	0.100
347.000	41.057	0.100
347.100	27.604	0.100
347.200	43.573	0.100
347.300	38.161	0.100
347.400	42.623	0.100
347.500	29.589	0.100
347.600	42.250	0.100
347.700	42.575	0.100
347.800	36.929	0.100
347.900	50.160	0.100
348.000	40.247	0.100
348.100	27.925	0.100
348.200	62.344	0.100
348.300	58.275	0.100
348.400	30.130	0.100
348.500	40.682	0.100
348.600	40.772	0.100
348.700	42.280	0.100
348.800	44.963	0.100
348.900	37.692	0.100
349.000	30.698	0.100
349.100	37.608	0.100
349.200	50.906	0.100
349.300	38.252	0.100
349.400	10.063	0.100
349.500	49.734	0.100
349.600	63.971	0.100
349.700	54.876	0.100
349.800	58.746	0.100
349.900	59.273	0.100
350.000	43.342	0.100
350.100	40.672	0.100
350.200	48.777	0.100
350.300	43.060	0.100
350.400	50.630	0.100
350.500	38.879	0.100
350.600	46.063	0.100
350.700	56.379	0.100
350.800	41.576	0.100
350.900	39.862	0.100
351.000	50.584	0.100
351.100	47.995	0.100
351.200	58.828	0.100
351.300	33.694	0.100
351.400	35.493	0.100
351.500	55.603	0.100
351.600	52.363	0.100
351.700	28.044	0.100
351.800	48.730	0.100
351.900	49.544	0.100
352.000	53.899	0.100
352.100	38.703	0.100
352.200	38.534	0.100
352.300	38.049	0.100
352.400	48.869	0.100
352.500	73.868	0.100
352.600	47.202	0.100
352.700	53.427	0.100
352.800	54.296	0.100
352.900	43.018	0.100
353.000	51.667	0.100
353.100	52.377	0.100
353.200	48.633	0.100
353.300	62.010	0.100
353.400	42.512	0.100
353.500	35.068	0.100
353.600	52.073	0.100
353.700	42.719	0.100
353.800	58.175	0.100
353.900	39.341	0.100
354.000	47.058	0.100
354.100	46.157	0.100
354.200	48.403	0.100
354.300	53.864	0.100
354.400	56.783	0.100
354.500	46.178	0.100
354.600	51.335	0.100
354.700	44.029	0.100
354.800	47.209	0.100
354.900	58.420	0.100
355.000	33.267	0.100
355.100	38.587	0.100
355.200	68.162	0.100
355.300	50.594	0.100
355.400	38.326	0.100
355.500	46.427	0.100
355.600	48.986	0.100
355.700	35.309	0.100
355.800	52.245	0.100
355.900	44.887	0.100
356.000	46.138	0.100
356.100	36.469	0.100
356.200	51.938	0.100
356.300	43.727	0.100
356.400	35.305	0.100
356.500	43.853	0.100
356.600	53.796	0.100
356.700	52.501	0.100
356.800	47.903	0.100
356.900	61.328	0.100
357.000	42.587	0.100
357.100	47.003	0.100
357.200	52.886	0.100
357.300	36.378	0.100
357.400	53.179	0.100
357.500	44.994	0.100
357.600	36.181	0.100
357.700	40.163	0.100
357.800	44.400	0.100
357.900	35.524	0.100
358.000	57.097	0.100
358.100	55.144	0.100
358.200	33.313	0.100
358.300	55.552	0.100
358.400	54.058	0.100
358.500	20.676	0.100
358.600	69.806	0.100
358.700	27.881	0.100
358.800	33.192	0.100
358.900	45.315	0.100
359.000	36.241	0.100
359.100	54.963	0.100
359.200	46.525	0.100
359.300	54.066	0.100
359.400	31.536	0.100
359.500	45.127	0.100
359.600	48.345	0.100
359.700	46.121	0.100
359.800	43.553	0.100
359.900	44.858	0.100
360.000	54.462	0.100
360.100	43.141	0.100
360.200	50.426	0.100
360.300	32.600	0.100
360.400	52.982	0.100
360.500	29.895	0.100
360.600	39.742	0.100
360.700	33.135	0.100
360.800	33.476	0.100
360.900	34.738	0.100
361.000	49.337	0.100
361.100	52.995	0.100
361.200	35.716	0.100
361.300	44.964	0.100
361.400	49.277	0.100
361.500	42.726	0.100
361.600	48.221	0.100
361.700	25.859	0.100
361.800	45.978	0.100
361.900	46.032	0.100
362.000	38.754	0.100
362.100	39.114	0.100
362.200	41.263	0.100
362.300	47.233	0.100
362.400	48.271	0.100
362.500	46.153	0.100
362.600	43.540	0.100
362.700	40.117	0.100
362.800	37.060	0.100
362.900	29.947	0.100
363.000	25.744	0.100
363.100	49.966	0.100
363.200	43.785	0.100
363.300	40.824	0.100
363.400	33.433	0.100
363.500	33.999	0.100
363.600	48.430	0.100
363.700	58.290	0.100
363.800	53.965	0.100
363.900	34.780	0.100
364.000	41.337	0.100
364.100	26.924	0.100
364.200	50.613	0.100
364.300	64.280	0.100
364.400	57.276	0.100
364.500	38.338	0.100
364.600	42.326	0.100
364.700	45.326	0.100
364.800	41.762	0.100
364.900	57.357	0.100
365.000	38.143	0.100
365.100	35.154	0.100
365.200	31.703	0.100
365.300	32.828	0.100
365.400	37.830	0.100
365.500	37.017	0.100
365.600	54.264	0.100
365.700	34.498	0.100
365.800	37.629	0.100
365.900	26.810	0.100
366.000	28.661	0.100
366.100	17.593	0.100
366.200	26.429	0.100
366.300	51.712	0.100
366.400	24.503	0.100
366.500	37.206	0.100
366.600	36.592	0.100
366.700	39.227	0.100
366.800	46.498	0.100
366.900	36.945	0.100
367.000	48.790	0.100
367.100	37.193	0.100
367.200	44.272	0.100
367.300	29.531	0.100
367.400	46.155	0.100
367.500	26.827	0.100
367.600	55.164	0.100
367.700	40.448	0.100
367.800	29.949	0.100
367.900	36.792	0.100
368.000	46.320	0.100
368.100	43.890	0.100
368.200	28.102	0.100
368.300	28.303	0.100
368.400	22.074	0.100
368.500	19.885	0.100
368.600	40.280	0.100
368.700	36.079	0.100
368.800	47.670	0.100
368.900	22.531	0.100
369.000	39.362	0.100
369.100	46.800	0.100
369.200	47.034	0.100
369.300	50.275	0.100
369.400	27.862	0.100
369.500	36.355	0.100
369.600	32.662	0.100
369.700	27.876	0.100
369.800	11.230	0.100
369.900	41.740	0.100
370.000	27.403	0.100
370.100	45.922	0.100
370.200	23.624	0.100
370.300	30.818	0.100
370.400	54.076	0.100
370.500	33.104	0.100
370.600	31.123	0.100
370.700	38.577	0.100
370.800	28.427	0.100
370.900	28.586	0.100
371.000	30.563	0.100
371.100	21.526	0.100
371.200	45.811	0.100
371.300	39.823	0.100
371.400	26.801	0.100
371.500	34.656	0.100
371.600	29.061	0.100
371.700	32.679	0.100
371.800	30.948	0.100
371.900	30.917	0.100
372.000	32.586	0.100
372.100	16.549	0.100
372.200	23.940	0.100
372.300	25.486	0.100
372.400	36.071	0.100
372.500	33.427	0.100
372.600	34.848	0.100
372.700	47.285	0.100
372.800	34.604	0.100
372.900	23.189	0.100
373.000	26.583	0.100
373.100	32.043	0.100
373.200	37.417	0.100
373.300	26.517	0.100
373.400	38.113	0.100
373.500	36.616	0.100
373.600	30.344	0.100
373.700	42.856	0.100
373.800	30.730	0.100
373.900	31.902	0.100
374.000	28.236	0.100
374.100	32.828	0.100
374.200	24.652	0.100
374.300	17.714	0.100
374.400	31.284	0.100
374.500	34.697	0.100
374.600	41.164	0.100
374.700	39.720	0.100
374.800	25.706	0.100
374.900	28.335	0.100
375.000	30.505	0.100
375.100	28.046	0.100
375.200	27.007	0.100
375.300	49.055	0.100
375.400	41.832	0.100
375.500	42.253	0.100
375.600	19.457	0.100
375.700	25.808	0.100
375.800	26.821	0.100
375.900	17.615	0.100
376.000	31.782	0.100
376.100	31.867	0.100
376.200	31.467	0.100
376.300	19.691	0.100
376.400	37.190	0.100
376.500	25.041	0.100
376.600	45.957	0.100
376.700	24.481	0.100
376.800	30.634	0.100
376.900	36.573	0.100
377.000	37.800	0.100
377.100	40.788	0.100
377.200	42.871	0.100
377.300	27.497	0.100
377.400	17.390	0.100
377.500	24.565	0.100
377.600	42.428	0.100
377.700	33.090	0.100
377.800	27.123	0.100
377.900	7.818	0.100
378.000	46.700	0.100
378.100	4.029	0.100
378.200	39.962	0.100
378.300	22.863	0.100
378.400	21.889	0.100
378.500	40.858	0.100
378.600	31.818	0.100
378.700	26.478	0.100
378.800	33.599	0.100
378.900	27.084	0.100
379.000	30.174	0.100
379.100	33.852	0.100
379.200	38.024	0.100
379.300	34.239	0.100
379.400	28.813	0.100
379.500	28.335	0.100
379.600	30.932	0.100
379.700	35.118	0.100
379.800	17.030	0.100
379.900	46.214	0.100
380.000	21.409	0.100
380.100	20.187	0.100
380.200	41.816	0.100
380.300	25.572	0.100
380.400	19.882	0.100
380.500	22.819	0.100
380.600	29.924	0.100
380.700	29.812	0.100
380.800	6.025	0.100
380.900	29.268	0.100
381.000	41.120	0.100
381.100	31.004	0.100
381.200	32.550	0.100
381.300	28.868	0.100
381.400	29.361	0.100
381.500	12.765	0.100
381.600	35.242	0.100
381.700	27.469	0.100
381.800	34.889	0.100
381.900	10.081	0.100
382.000	41.129	0.100
382.100	34.744	0.100
382.200	43.228	0.100
382.300	8.078	0.100
382.400	22.826	0.100
382.500	23.308	0.100
382.600	29.888	0.100
382.700	22.464	0.100
382.800	39.548	0.100
382.900	41.096	0.100
383.000	24.467	0.100
383.100	25.923	0.100
383.200	11.699	0.100
383.300	28.069	0.100
383.400	24.375	0.100
383.500	25.469	0.100
383.600	25.866	0.100
383.700	18.540	0.100
383.800	20.515	0.100
383.900	35.556	0.100
384.000	30.345	0.100
384.100	36.662	0.100
384.200	28.594	0.100
384.300	41.062	0.100
384.400	29.739	0.100
384.500	36.442	0.100
384.600	23.007	0.100
384.700	23.323	0.100
384.800	21.562	0.100
384.900	22.284	0.100
385.000	19.808	0.100
385.100	9.373	0.100
385.200	13.555	0.100
385.300	27.383	0.100
385.400	33.092	0.100
385.500	11.013	0.100
385.600	24.730	0.100
385.700	35.917	0.100
385.800	47.024	0.100
385.900	17.487	0.100
386.000	4.314	0.100
386.100	30.054	0.100
386.200	28.943	0.100
386.300	42.075	0.100
386.400	25.951	0.100
386.500	27.950	0.100
386.600	14.382	0.100
386.700	48.026	0.100
386.800	8.735	0.100
386.900	4.947	0.100
387.000	26.597	0.100
387.100	31.804	0.100
387.200	14.506	0.100
387.300	33.967	0.100
387.400	38.416	0.100
387.500	15.764	0.100
387.600	24.182	0.100
387.700	15.493	0.100
387.800	25.562	0.100
387.900	31.780	0.100
388.000	43.737	0.100
388.100	21.875	0.100
388.200	18.833	0.100
388.300	27.879	0.100
388.400	5.814	0.100
388.500	13.509	0.100
388.600	29.745	0.100
388.700	32.718	0.100
388.800	17.336	0.100
388.900	25.243	0.100
389.000	29.784	0.100
389.100	20.318	0.100
389.200	27.252	0.100
389.300	26.017	0.100
389.400	21.282	0.100
389.500	27.428	0.100
389.600	8.610	0.100
389.700	28.384	0.100
389.800	22.392	0.100
389.900	19.613	0.100
390.000	35.615	0.100
390.100	18.619	0.100
390.200	18.030	0.100
390.300	15.844	0.100
390.400	6.917	0.100
390.500	14.878	0.100
390.600	12.708	0.100
390.700	23.310	0.100
390.800	19.741	0.100
390.900	7.324	0.100
391.000	9.678	0.100
391.100	-0.188	0.100
391.200	7.451	0.100
391.300	18.346	0.100
391.400	0.773	0.100
391.500	-2.682	0.100
391.600	3.971	0.100
391.700	5.101	0.100
391.800	-2.000	0.100
391.900	1.223	0.100
392.000	-3.955	0.100
392.100	4.372	0.100
392.200	-7.370	0.100
392.300	-2.529	0.100
392.400	-10.884	0.100
392.500	-13.190	0.100
392.600	-6.557	0.100
392.700	3.838	0.100
392.800	-9.941	0.100
392.900	9.394	0.100
393.000	-14.263	0.100
393.100	-25.539	0.100
393.200	-2.189	0.100
393.300	-8.976	0.100
393.400	-7.415	0.100
393.500	-2.684	0.100
393.600	-17.573	0.100
393.700	-8.631	0.100
393.800	-16.146	0.100
393.900	-12.486	0.100
394.000	-7.505	0.100
394.100	-13.207	0.100
394.200	-19.094	0.100
394.300	-17.662	0.100
394.400	-2.858	0.100
394.500	-18.672	0.100
394.600	-23.457	0.100
394.700	-0.402	0.100
394.800	-30.288	0.100
394.900	-4.711	0.100
395.000	-20.318	0.100
395.100	-23.309	0.100
395.200	-30.567	0.100
395.300	-25.792	0.100
395.400	-16.552	0.100
395.500	-10.738	0.100
395.600	-9.071	0.100
395.700	-23.835	0.100
395.800	-34.562	0.100
395.900	-27.608	0.100
396.000	-28.440	0.100
396.100	-12.217	0.100
396.200	-16.054	0.100
396.300	-16.101	0.100
396.400	-32.730	0.100
396.500	-26.173	0.100
396.600	-33.633	0.100
396.700	-12.415	0.100
396.800	-9.874	0.100
396.900	-26.514	0.100
397.000	-22.187	0.100
397.100	-25.235	0.100
397.200	-36.883	0.100
397.300	-38.102	0.100
397.400	-24.538	0.100
397.500	-3.537	0.100
397.600	-7.392	0.100
397.700	-27.699	0.100
397.800	-25.565	0.100
397.900	-20.823	0.100
398.000	-45.908	0.100
398.100	-23.713	0.100
398.200	5.976	0.100
398.300	-33.570	0.100
398.400	-33.632	0.100
398.500	-23.431	0.100
398.600	-16.236	0.100
398.700	-25.063	0.100
398.800	-36.173	0.100
398.900	-20.127	0.100
399.000	-16.142	0.100
399.100	-22.839	0.100
399.200	-0.787	0.100
399.300	-14.992	0.100
399.400	-24.559	0.100
399.500	-34.367	0.100
399.600	-12.259	0.100
399.700	-21.957	0.100
399.800	-25.379	0.100
399.900	-12.618	0.100
400.000	-23.743	0.100
400.100	-24.409	0.100
400.200	-31.213	0.100
400.300	-14.891	0.100
400.400	-30.396	0.100
400.500	-28.405	0.100
400.600	-4.129	0.100
400.700	-3.878	0.100
400.800	-26.522	0.100
400.900	-36.111	0.100
401.000	-22.156	0.100
401.100	-15.779	0.100
401.200	-13.588	0.100
401.300	-9.557	0.100
401.400	2.298	0.100
401.500	-20.906	0.100
401.600	-25.804	0.100
401.700	-21.415	0.100
401.800	-21.813	0.100
401.900	-23.611	0.100
402.000	-29.749	0.100
402.100	7.234	0.100
402.200	-12.367	0.100
402.300	-21.020	0.100
402.400	-22.122	0.100
402.500	-11.499	0.100
402.600	-26.747	0.100
402.700	-31.355	0.100
402.800	1.875	0.100
402.900	-24.536	0.100
403.000	-15.341	0.100
403.100	-36.082	0.100
403.200	-28.263	0.100
403.300	-13.500	0.100
403.400	-25.738	0.100
403.500	-15.264	0.100
403.600	-20.515	0.100
403.700	-8.455	0.100
403.800	-3.075	0.100
403.900	-24.585	0.100
404.000	-11.815	0.100
404.100	-15.558	0.100
404.200	-8.865	0.100
404.300	-23.694	0.100
404.400	-11.750	0.100
404.500	-8.962	0.100
404.600	-9.886	0.100
404.700	-18.123	0.100
404.800	-5.524	0.100
404.900	-25.367	0.100
405.000	-20.652	0.100
405.100	-9.835	0.100
405.200	-11.784	0.100
405.300	-15.315	0.100
405.400	-15.265	0.100
405.500	-9.956	0.100
405.600	-13.842	0.100
405.700	-20.910	0.100
405.800	-8.918	0.100
405.900	-19.226	0.100
406.000	0.455	0.100
406.100	-20.886	0.100
406.200	-18.474	0.100
406.300	14.184	0.100
406.400	-18.019	0.100
406.500	-22.298	0.100
406.600	-17.104	0.100
406.700	-10.211	0.100
406.800	-16.164	0.100
406.900	-24.051	0.100
407.000	-21.271	0.100
407.100	-23.719	0.100
407.200	-22.708	0.100
407.300	-5.329	0.100
407.400	-15.274	0.100
407.500	-25.475	0.100
407.600	-19.915	0.100
407.700	-17.751	0.100
407.800	-7.650	0.100
407.900	-22.832	0.100
408.000	-29.029	0.100
408.100	-11.938	0.100
408.200	-19.769	0.100
408.300	-26.338	0.100
408.400	-1.983	0.100
408.500	-28.447	0.100
408.600	-12.244	0.100
408.700	-4.228	0.100
408.800	-3.067	0.100
408.900	-24.760	0.100
409.000	-14.258	0.100
409.100	-16.740	0.100
409.200	-6.255	0.100
409.300	-1.898	0.100
409.400	-20.263	0.100
409.500	-17.307	0.100
409.600	-25.902	0.100
409.700	-12.909	0.100
409.800	-11.261	0.100
409.900	-17.897	0.100
410.000	-14.720	0.100
410.100	-7.646	0.100
410.200	-11.989	0.100
410.300	-23.168	0.100
410.400	-19.963	0.100
410.500	-15.710	0.100
410.600	-13.365	0.100
410.700	-16.655	0.100
410.800	-15.137	0.100
410.900	-25.509	0.100
411.000	-22.298	0.100
411.100	-26.003	0.100
411.200	-28.923	0.100
411.300	-17.747	0.100
411.400	-25.738	0.100
411.500	-7.256	0.100
411.600	-34.621	0.100
411.700	2.355	0.100
411.800	-2.143	0.100
411.900	-9.521	0.100
412.000	-22.699	0.100
412.100	-5.378	0.100
412.200	-12.333	0.100
412.300	-12.215	0.100
412.400	-23.309	0.100
412.500	-5.722	0.100
412.600	-16.696	0.100
412.700	-16.640	0.100
412.800	-25.545	0.100
412.900	-21.358	0.100
413.000	-26.675	0.100
413.100	-11.645	0.100
413.200	-21.913	0.100
413.300	-14.803	0.100
413.400	-21.440	0.100
413.500	-21.441	0.100
413.600	-27.050	0.100
413.700	-7.123	0.100
413.800	0.794	0.100
413.900	-15.283	0.100
414.000	-9.221	0.100
414.100	-14.124	0.100
414.200	9.566	0.100
414.300	-10.334	0.100
414.400	-12.562	0.100
414.500	-22.764	0.100
414.600	-23.182	0.100
414.700	-17.081	0.100
414.800	-11.603	0.100
414.900	-25.601	0.100
415.000	-0.042	0.100
415.100	-25.159	0.100
415.200	-6.044	0.100
415.300	-18.792	0.100
415.400	-26.887	0.100
415.500	-28.871	0.100
415.600	-10.728	0.100
415.700	-16.289	0.100
415.800	-9.515	0.100
415.900	-7.685	0.100
416.000	-39.239	0.100
416.100	-8.928	0.100
416.200	-17.906	0.100
416.300	-25.346	0.100
416.400	-13.880	0.100
416.500	-8.299	0.100
416.600	-19.140	0.100
416.700	-12.680	0.100
416.800	-6.099	0.100
416.900	-14.850	0.100
417.000	-16.668	0.100
417.100	-9.591	0.100
417.200	-23.638	0.100
417.300	-13.005	0.100
417.400	-1.268	0.100
417.500	-27.764	0.100
417.600	-26.135	0.100
417.700	-26.935	0.100
417.800	-8.423	0.100
417.900	-11.588	0.100
418.000	-6.021	0.100
418.100	-20.881	0.100
418.200	5.583	0.100
418.300	1.063	0.100
418.400	-10.788	0.100
418.500	-19.727	0.100
418.600	-15.723	0.100
418.700	-25.959	0.100
418.800	-11.207	0.100
418.900	-9.660	0.100
419.000	-16.412	0.100
419.100	-20.254	0.100
419.200	5.026	0.100
419.300	-7.695	0.100
419.400	-15.331	0.100
419.500	-6.989	0.100
419.600	-12.337	0.100
419.700	-13.447	0.100
419.800	-13.955	0.100
419.900	-15.901	0.100
420.000	-12.474	0.100
420.100	-14.121	0.100
420.200	-19.886	0.100
420.300	-17.326	0.100
420.400	-17.717	0.100
420.500	-4.084	0.100
420.600	-6.541	0.100
420.700	-8.571	0.100
420.800	-26.163	0.100
420.900	-22.200	0.100
421.000	-22.689	0.100
421.100	-19.939	0.100
421.200	-8.313	0.100
421.300	-18.818	0.100
421.400	-10.491	0.100
421.500	0.488	0.100
421.600	-22.809	0.100
421.700	-26.803	0.100
421.800	-18.478	0.100
421.900	3.765	0.100
422.000	-22.194	0.100
422.100	-12.791	0.100
422.200	-21.246	0.100
422.300	-14.740	0.100
422.400	-19.581	0.100
422.500	-3.955	0.100
422.600	-14.667	0.100
422.700	-7.303	0.100
422.800	-12.220	0.100
422.900	-19.603	0.100
423.000	-28.293	0.100
423.100	-29.845	0.100
423.200	-18.574	0.100
423.300	-19.189	0.100
423.400	-19.102	0.100
423.500	-14.451	0.100
423.600	-12.778	0.100
423.700	-14.291	0.100
423.800	-8.507	0.100
423.900	-12.912	0.100
424.000	-15.049	0.100
424.100	-9.033	0.100
424.200	-16.858	0.100
424.300	-24.821	0.100
424.400	-24.946	0.100
424.500	-13.199	0.100
424.600	-21.164	0.100
424.700	-8.215	0.100
424.800	-19.413	0.100
424.900	-13.088	0.100
425.000	-21.490	0.100
425.100	-1.278	0.100
425.200	1.563	0.100
425.300	-26.896	0.100
425.400	-18.504	0.100
425.500	-23.854	0.100
425.600	-18.169	0.100
425.700	-34.860	0.100
425.800	3.776	0.100
425.900	-19.076	0.100
426.000	-23.424	0.100
426.100	-28.064	0.100
426.200	-12.092	0.100
426.300	-18.780	0.100
426.400	-38.302	0.100
426.500	2.760	0.100
426.600	-25.356	0.100
426.700	0.257	0.100
426.800	-18.600	0.100
426.900	-17.583	0.100
427.000	-12.219	0.100
427.100	-16.909	0.100
427.200	-4.781	0.100
427.300	-16.394	0.100
427.400	-15.928	0.100
427.500	2.773	0.100
427.600	-20.465	0.100
427.700	-18.742	0.100
427.800	-23.477	0.100
427.900	-12.632	0.100
428.000	-20.070	0.100
428.100	-19.503	0.100
428.200	-21.739	0.100
428.300	-0.620	0.100
428.400	-11.765	0.100
428.500	-23.435	0.100
428.600	-23.079	0.100
428.700	-16.435	0.100
428.800	-9.785	0.100
428.900	-0.760	0.100
429.000	-10.136	0.100
429.100	-4.402	0.100
429.200	-22.035	0.100
429.300	-12.848	0.100
429.400	-11.301	0.100
429.500	1.041	0.100
429.600	-29.307	0.100
429.700	-9.423	0.100
429.800	-19.265	0.100
429.900	-9.450	0.100
430.000	-6.318	0.100
430.100	-28.030	0.100
430.200	-20.533	0.100
430.300	-16.754	0.100
430.400	-18.960	0.100
430.500	-19.110	0.100
430.600	-13.439	0.100
430.700	-21.711	0.100
430.800	-5.332	0.100
430.900	-19.546	0.100
431.000	-19.583	0.100
431.100	-16.359	0.100
431.200	-25.833	0.100
431.300	-4.178	0.100
431.400	-33.925	0.100
431.500	-12.699	0.100
431.600	-11.696	0.100
431.700	-31.445	0.100
431.800	-5.892	0.100
431.900	-9.597	0.100
432.000	-22.919	0.100
432.100	-23.217	0.100
432.200	-20.048	0.100
432.300	-0.986	0.100
432.400	-28.251	0.100
432.500	-18.773	0.100
432.600	-19.747	0.100
432.700	-12.825	0.100
432.800	-25.448	0.100
432.900	-3.644	0.100
433.000	-25.351	0.100
433.100	-11.929	0.100
433.200	-27.907	0.100
433.300	-8.332	0.100
433.400	-13.983	0.100
433.500	-15.037	0.100
433.600	-12.841	0.100
433.700	-28.531	0.100
433.800	-10.595	0.100
433.900	-13.677	0.100
434.000	-8.223	0.100
434.100	-24.961	0.100
434.200	-22.009	0.100
434.300	-3.005	0.100
434.400	-14.151	0.100
434.500	-6.011	0.100
434.600	-10.918	0.100
434.700	-22.693	0.100
434.800	-15.332	0.100
434.900	-14.701	0.100
435.000	-23.764	0.100
435.100	-4.668	0.100
435.200	-26.960	0.100
435.300	-18.956	0.100
435.400	-19.639	0.100
435.500	-10.475	0.100
435.600	-14.457	0.100
435.700	-21.931	0.100
435.800	-19.514	0.100
435.900	-8.985	0.100
436.000	-17.983	0.100
436.100	-16.180	0.100
436.200	-20.410	0.100
436.300	0.228	0.100
436.400	-19.428	0.100
436.500	-19.530	0.100
436.600	-3.819	0.100
436.700	-24.388	0.100
436.800	-18.519	0.100
436.900	-15.104	0.100
437.000	-8.225	0.100
437.100	2.848	0.100
437.200	-4.096	0.100
437.300	-21.456	0.100
437.400	-11.216	0.100
437.500	-11.857	0.100
437.600	-32.295	0.100
437.700	-9.045	0.100
437.800	-13.218	0.100
437.900	-15.090	0.100
438.000	-12.643	0.100
438.100	-1.235	0.100
438.200	-19.828	0.100
438.300	-14.176	0.100
438.400	-23.062	0.100
438.500	1.738	0.100
438.600	-16.329	0.100
438.700	-28.119	0.100
438.800	-34.600	0.100
438.900	-16.311	0.100
439.000	-19.781	0.100
439.100	7.484	0.100
439.200	-33.067	0.100
439.300	6.028	0.100
439.400	-24.163	0.100
439.500	-29.748	0.100
439.600	-11.994	0.100
439.700	-1.234	0.100
439.800	-5.193	0.100
439.900	-18.110	0.100
440.000	-27.611	0.100
440.100	-13.834	0.100
440.200	-7.392	0.100
440.300	-7.474	0.100
440.400	-20.370	0.100
440.500	-32.276	0.100
440.600	-19.734	0.100
440.700	-24.163	0.100
440.800	-15.104	0.100
440.900	-19.517	0.100
441.000	-13.045	0.100
441.100	-11.309	0.100
441.200	-3.300	0.100
441.300	-38.890	0.100
441.400	-2.519	0.100
441.500	-18.594	0.100
441.600	-24.007	0.100
441.700	-6.672	0.100
441.800	-15.297	0.100
441.900	-14.910	0.100
442.000	-7.821	0.100
442.100	-12.186	0.100
442.200	-18.923	0.100
442.300	-15.125	0.100
442.400	-15.712	0.100
442.500	-8.959	0.100
442.600	0.784	0.100
442.700	-10.167	0.100
442.800	-24.897	0.100
442.900	-18.619	0.100
443.000	-20.535	0.100
443.100	-0.989	0.100
443.200	-1.277	0.100
443.300	-19.041	0.100
443.400	-9.236	0.100
443.500	-17.325	0.100
443.600	-18.222	0.100
443.700	-3.286	0.100
443.800	-15.691	0.100
443.900	-15.223	0.100
444.000	-14.473	0.100
444.100	-15.450	0.100
444.200	-19.957	0.100
444.300	-29.982	0.100
444.400	-0.957	0.100
444.500	-13.782	0.100
444.600	10.396	0.100
444.700	-21.189	0.100
444.800	-25.564	0.100
444.900	-12.314	0.100
445.000	-21.893	0.100
445.100	-2.473	0.100
445.200	-18.618	0.100
445.300	-0.815	0.100
445.400	-1.291	0.100
445.500	-13.121	0.100
445.600	-7.292	0.100
445.700	-8.555	0.100
445.800	-14.648	0.100
445.900	-14.483	0.100
446.000	-10.881	0.100
446.100	-9.137	0.100
446.200	-9.606	0.100
446.300	-21.888	0.100
446.400	-8.327	0.100
446.500	-16.137	0.100
446.600	-16.587	0.100
446.700	6.406	0.100
446.800	-23.558	0.100
446.900	2.159	0.100
447.000	-31.507	0.100
447.100	-22.368	0.100
447.200	-5.358	0.100
447.300	-15.124	0.100
447.400	9.560	0.100
447.500	-13.371	0.100
447.600	-17.495	0.100
447.700	-12.307	0.100
447.800	-9.892	0.100
447.900	-20.951	0.100
448.000	-9.523	0.100
448.100	-5.164	0.100
448.200	-5.376	0.100
448.300	-9.062	0.100
448.400	-11.613	0.100
448.500	-7.016	0.100
448.600	-9.386	0.100
448.700	-10.053	0.100
448.800	3.191	0.100
448.900	-33.633	0.100
449.000	-14.058	0.100
449.100	-7.458	0.100
449.200	-18.935	0.100
449.300	-24.530	0.100
449.400	-16.567	0.100
449.500	-6.994	0.100
449.600	-9.276	0.100
449.700	-15.246	0.100
449.800	-18.027	0.100
449.900	-6.629	0.100
450.000	-22.277	0.100
450.100	-6.990	0.100
450.200	-25.560	0.100
450.300	-9.026	0.100
450.400	-21.587	0.100
450.500	-31.762	0.100
450.600	-3.153	0.100
450.700	-23.351	0.100
450.800	-3.999	0.100
450.900	-20.028	0.100
451.000	-4.714	0.100
451.100	-13.387	0.100
451.200	-20.129	0.100
451.300	-21.303	0.100
451.400	-6.948	0.100
451.500	-15.319	0.100
451.600	-25.613	0.100
451.700	-15.919	0.100
451.800	-11.570	0.100
451.900	-24.437	0.100
452.000	-32.015	0.100
452.100	-20.095	0.100
452.200	4.874	0.100
452.300	-8.733	0.100
452.400	-19.176	0.100
452.500	-13.559	0.100
452.600	-24.737	0.100
452.700	-19.122	0.100
452.800	-7.324	0.100
452.900	-9.192	0.100
453.000	-18.953	0.100
453.100	-12.656	0.100
453.200	-23.215	0.100
453.300	-8.034	0.100
453.400	-29.592	0.100
453.500	-3.297	0.100
453.600	-20.378	0.100
453.700	3.561	0.100
453.800	-5.695	0.100
453.900	-24.972	0.100
454.000	-21.425	0.100
454.100	-12.876	0.100
454.200	-11.453	0.100
454.300	-17.422	0.100
454.400	-9.421	0.100
454.500	-23.632	0.100
454.600	-0.424	0.100
454.700	-26.967	0.100
454.800	-18.136	0.100
454.900	-14.897	0.100
455.000	-22.081	0.100
455.100	-4.110	0.100
455.200	-6.345	0.100
455.300	-15.692	0.100
455.400	-20.448	0.100
455.500	7.844	0.100
455.600	-17.402	0.100
455.700	-3.703	0.100
455.800	6.965	0.100
455.900	-2.374	0.100
456.000	-14.697	0.100
456.100	-12.393	0.100
456.200	-27.840	0.100
456.300	-6.972	0.100
456.400	-10.275	0.100
456.500	-5.065	0.100
456.600	-18.647	0.100
456.700	-4.734	0.100
456.800	-14.113	0.100
456.900	1.280	0.100
457.000	-26.897	0.100
457.100	-11.397	0.100
457.200	-17.690	0.100
457.300	-18.973	0.100
457.400	-5.856	0.100
457.500	-12.414	0.100
457.600	-20.688	0.100
457.700	-28.734	0.100
457.800	-8.350	0.100
457.900	-4.782	0.100
458.000	-17.666	0.100
458.100	4.327	0.100
458.200	-12.342	0.100
458.300	-8.808	0.100
458.400	-21.861	0.100
458.500	0.163	0.100
458.600	-6.183	0.100
458.700	-7.567	0.100
458.800	-6.848	0.100
458.900	-9.593	0.100
459.000	-25.312	0.100
459.100	-21.568	0.100
459.200	-23.554	0.100
459.300	-2.698	0.100
459.400	-1.070	0.100
459.500	-13.238	0.100
459.600	-3.563	0.100
459.700	-6.918	0.100
459.800	-3.171	0.100
459.900	-6.966	0.100
460.000	-6.995	0.100
460.100	-17.665	0.100
460.200	-8.281	0.100
460.300	2.826	0.100
460.400	12.075	0.100
460.500	0.926	0.100
460.600	-20.643	0.100
460.700	-12.778	0.100
460.800	-10.574	0.100
460.900	-16.592	0.100
461.000	-13.228	0.100
461.100	-5.744	0.100
461.200	-1.137	0.100
461.300	-12.803	0.100
461.400	-20.917	0.100
461.500	-13.584	0.100
461.600	-10.523	0.100
461.700	-16.684	0.100
461.800	-10.634	0.100
461.900	-13.406	0.100
462.000	-13.674	0.100
462.100	-2.554	0.100
462.200	-22.853	0.100
462.300	-4.012	0.100
462.400	-10.662	0.100
462.500	-29.127	0.100
462.600	-13.862	0.100
462.700	-3.567	0.100
462.800	-1.364	0.100
462.900	-26.526	0.100
463.000	-8.602	0.100
463.100	-5.358	0.100
463.200	-8.447	0.100
463.300	-22.484	0.100
463.400	-2.170	0.100
463.500	-6.380	0.100
463.600	-26.579	0.100
463.700	-22.727	0.100
463.800	-2.457	0.100
463.900	-15.787	0.100
464.000	-6.875	0.100
464.100	-6.778	0.100
464.200	-1.603	0.100
464.300	-9.583	0.100
464.400	-17.648	0.100
464.500	-19.251	0.100
464.600	-14.560	0.100
464.700	1.995	0.100
464.800	-23.800	0.100
464.900	-15.530	0.100
465.000	-21.816	0.100
465.100	-14.884	0.100
465.200	1.316	0.100
465.300	-21.785	0.100
465.400	-18.191	0.100
465.500	-9.570	0.100
465.600	-10.759	0.100
465.700	-9.104	0.100
465.800	-23.963	0.100
465.900	-14.083	0.100
466.000	1.228	0.100
466.100	-28.987	0.100
466.200	-11.003	0.100
466.300	-16.308	0.100
466.400	6.108	0.100
466.500	-12.213	0.100
466.600	-15.625	0.100
466.700	-1.171	0.100
466.800	-6.128	0.100
466.900	-9.520	0.100
467.000	-5.360	0.100
467.100	0.202	0.100
467.200	-16.902	0.100
467.300	-8.089	0.100
467.400	-18.159	0.100
467.500	3.852	0.100
467.600	1.080	0.100
467.700	-8.338	0.100
467.800	0.146	0.100
467.900	-23.598	0.100
468.000	-6.542	0.100
468.100	-2.825	0.100
468.200	-11.381	0.100
468.300	8.612	0.100
468.400	-4.661	0.100
468.500	-19.402	0.100
468.600	-8.324	0.100
468.700	-6.798	0.100
468.800	-16.954	0.100
468.900	-26.160	0.100
469.000	-13.272	0.100
469.100	-4.304	0.100
469.200	-15.256	0.100
469.300	-9.139	0.100
469.400	0.507	0.100
469.500	-7.590	0.100
469.600	0.703	0.100
469.700	6.068	0.100
469.800	-17.510	0.100
469.900	-9.935	0.100
470.000	-7.959	0.100
470.100	-7.551	0.100
470.200	-23.279	0.100
470.300	-13.581	0.100
470.400	-13.889	0.100
470.500	5.254	0.100
470.600	-4.194	0.100
470.700	-7.788	0.100
470.800	8.458	0.100
470.900	7.744	0.100
471.000	-10.250	0.100
471.100	-16.794	0.100
471.200	-9.915	0.100
471.300	-28.510	0.100
471.400	-9.853	0.100
471.500	-24.248	0.100
471.600	-15.647	0.100
471.700	-6.394	0.100
471.800	-5.496	0.100
471.900	-23.590	0.100
472.000	-6.317	0.100
472.100	-7.289	0.100
472.200	-0.093	0.100
472.300	-9.195	0.100
472.400	-17.237	0.100
472.500	-12.981	0.100
472.600	-3.023	0.100
472.700	-16.954	0.100
472.800	-23.919	0.100
472.900	5.964	0.100
473.000	-5.789	0.100
473.100	-17.794	0.100
473.200	-8.222	0.100
473.300	-1.953	0.100
473.400	-16.629	0.100
473.500	-6.782	0.100
473.600	-8.809	0.100
473.700	-9.985	0.100
473.800	-6.384	0.100
473.900	-12.548	0.100
474.000	-14.628	0.100
474.100	-2.850	0.100
474.200	-12.598	0.100
474.300	3.140	0.100
474.400	-3.403	0.100
474.500	-6.761	0.100
474.600	-17.076	0.100
474.700	-4.764	0.100
474.800	0.048	0.100
474.900	-1.253	0.100
475.000	-12.641	0.100
475.100	-8.649	0.100
475.200	-3.280	0.100
475.300	-15.163	0.100
475.400	0.311	0.100
475.500	-19.899	0.100
475.600	-13.055	0.100
475.700	-0.554	0.100
475.800	-11.731	0.100
475.900	-20.759	0.100
476.000	-7.189	0.100
476.100	-6.989	0.100
476.200	-17.055	0.100
476.300	2.123	0.100
476.400	-18.666	0.100
476.500	2.430	0.100
476.600	-19.778	0.100
476.700	-10.955	0.100
476.800	-5.305	0.100
476.900	-9.467	0.100
477.000	-5.666	0.100
477.100	3.559	0.100
477.200	7.030	0.100
477.300	-11.334	0.100
477.400	-28.201	0.100
477.500	15.354	0.100
477.600	-9.962	0.100
477.700	-1.404	0.100
477.800	-19.875	0.100
477.900	2.303	0.100
478.000	5.963	0.100
478.100	-6.601	0.100
478.200	-15.098	0.100
478.300	-16.981	0.100
478.400	-14.976	0.100
478.500	-18.144	0.100
478.600	-8.370	0.100
478.700	2.450	0.100
478.800	-18.041	0.100
478.900	-12.450	0.100
479.000	3.422	0.100
479.100	-0.045	0.100
479.200	-5.637	0.100
479.300	5.922	0.100
479.400	2.735	0.100
479.500	-20.173	0.100
479.600	-3.575	0.100
479.700	-20.068	0.100
479.800	2.359	0.100
479.900	-10.167	0.100
480.000	-4.673	0.100
480.100	-2.527	0.100
480.200	2.028	0.100
480.300	-13.354	0.100
480.400	-11.533	0.100
480.500	-16.614	0.100
480.600	14.083	0.100
480.700	-24.673	0.100
480.800	10.136	0.100
480.900	11.826	0.100
481.000	-7.866	0.100
481.100	2.598	0.100
481.200	-0.657	0.100
481.300	4.359	0.100
481.400	10.220	0.100
481.500	6.941	0.100
481.600	2.032	0.100
481.700	16.897	0.100
481.800	2.800	0.100
481.900	-1.149	0.100
482.000	29.718	0.100
482.100	1.476	0.100
482.200	-0.769	0.100
482.300	18.490	0.100
482.400	-3.883	0.100
482.500	11.272	0.100
482.600	3.239	0.100
482.700	13.297	0.100
482.800	22.842	0.100
482.900	5.737	0.100
483.000	29.464	0.100
483.100	3.812	0.100
483.200	18.507	0.100
483.300	27.106	0.100
483.400	27.501	0.100
483.500	16.635	0.100
483.600	17.766	0.100
483.700	32.773	0.100
483.800	11.960	0.100
483.900	8.962	0.100
484.000	11.872	0.100
484.100	26.312	0.100
484.200	23.295	0.100
484.300	-10.696	0.100
484.400	7.538	0.100
484.500	1.932	0.100
484.600	32.050	0.100
484.700	13.173	0.100
484.800	34.991	0.100
484.900	18.457	0.100
485.000	17.415	0.100
485.100	31.885	0.100
485.200	16.023	0.100
485.300	-8.869	0.100
485.400	25.341	0.100
485.500	31.423	0.100
485.600	9.412	0.100
485.700	22.288	0.100
485.800	25.272	0.100
485.900	18.084	0.100
486.000	5.656	0.100
486.100	29.800	0.100
486.200	6.055	0.100
486.300	14.410	0.100
486.400	30.857	0.100
486.500	4.022	0.100
486.600	12.967	0.100
486.700	20.583	0.100
486.800	20.816	0.100
486.900	26.658	0.100
487.000	10.010	0.100
487.100	27.462	0.100
487.200	15.722	0.100
487.300	3.150	0.100
487.400	14.933	0.100
487.500	26.385	0.100
487.600	23.322	0.100
487.700	25.085	0.100
487.800	24.104	0.100
487.900	18.098	0.100
488.000	15.298	0.100
488.100	6.542	0.100
488.200	27.246	0.100
488.300	21.127	0.100
488.400	8.982	0.100
488.500	16.418	0.100
488.600	24.845	0.100
488.700	-0.078	0.100
488.800	21.110	0.100
488.900	20.036	0.100
489.000	20.127	0.100
489.100	4.583	0.100
489.200	21.743	0.100
489.300	38.557	0.100
489.400	23.541	0.100
489.500	33.335	0.100
489.600	11.278	0.100
489.700	15.875	0.100
489.800	36.419	0.100
489.900	-2.151	0.100
490.000	39.028	0.100
490.100	18.469	0.100
490.200	25.376	0.100
490.300	29.069	0.100
490.400	0.576	0.100
490.500	25.049	0.100
490.600	21.536	0.100
490.700	19.933	0.100
490.800	11.711	0.100
490.900	23.102	0.100
491.000	6.228	0.100
491.100	22.302	0.100
491.200	24.292	0.100
491.300	16.973	0.100
491.400	39.502	0.100
491.500	12.113	0.100
491.600	29.983	0.100
491.700	28.422	0.100
491.800	35.391	0.100
491.900	19.639	0.100
492.000	17.035	0.100
492.100	21.051	0.100
492.200	17.749	0.100
492.300	43.515	0.100
492.400	11.722	0.100
492.500	43.135	0.100
492.600	22.814	0.100
492.700	19.697	0.100
492.800	21.862	0.100
492.900	23.797	0.100
493.000	36.984	0.100
493.100	22.245	0.100
493.200	25.693	0.100
493.300	33.133	0.100
493.400	21.247	0.100
493.500	20.953	0.100
493.600	33.045	0.100
493.700	36.617	0.100
493.800	31.882	0.100
493.900	20.146	0.100
494.000	44.515	0.100
494.100	20.417	0.100
494.200	31.479	0.100
494.300	24.675	0.100
494.400	14.797	0.100
494.500	18.524	0.100
494.600	7.070	0.100
494.700	41.717	0.100
494.800	28.488	0.100
494.900	39.239	0.100
495.000	46.088	0.100
495.100	39.540	0.100
495.200	46.877	0.100
495.300	24.337	0.100
495.400	34.480	0.100
495.500	26.595	0.100
495.600	37.332	0.100
495.700	32.899	0.100
495.800	15.733	0.100
495.900	53.929	0.100
496.000	23.865	0.100
496.100	40.010	0.100
496.200	28.049	0.100
496.300	40.467	0.100
496.400	26.908	0.100
496.500	30.038	0.100
496.600	37.394	0.100
496.700	42.071	0.100
496.800	34.278	0.100
496.900	49.453	0.100
497.000	28.589	0.100
497.100	34.940	0.100
497.200	46.628	0.100
497.300	49.377	0.100
497.400	38.903	0.100
497.500	30.942	0.100
497.600	27.635	0.100
497.700	31.317	0.100
497.800	40.911	0.100
497.900	48.064	0.100
498.000	40.993	0.100
498.100	32.394	0.100
498.200	27.327	0.100
498.300	39.876	0.100
498.400	42.458	0.100
498.500	46.319	0.100
498.600	43.109	0.100
498.700	31.930	0.100
498.800	34.417	0.100
498.900	33.935	0.100
499.000	42.424	0.100
499.100	30.594	0.100
499.200	47.851	0.100
499.300	41.293	0.100
499.400	45.174	0.100
499.500	48.528	0.100
499.600	49.796	0.100
499.700	65.114	0.100
499.800	37.154	0.100
499.900	33.673	0.100
500.000	50.225	0.100
500.100	26.701	0.100
500.200	51.492	0.100
500.300	33.196	0.100
500.400	27.048	0.100
500.500	43.183	0.100
500.600	47.049	0.100
500.700	52.891	0.100
500.800	43.077	0.100
500.900	44.002	0.100
501.000	38.369	0.100
501.100	45.847	0.100
501.200	42.308	0.100
501.300	41.108	0.100
501.400	47.818	0.100
501.500	37.602	0.100
501.600	44.790	0.100
501.700	34.705	0.100
501.800	33.729	0.100
501.900	44.638	0.100
502.000	41.796	0.100
502.100	58.003	0.100
502.200	54.924	0.100
502.300	69.605	0.100
502.400	40.736	0.100
502.500	47.675	0.100
502.600	35.647	0.100
502.700	59.565	0.100
502.800	41.748	0.100
502.900	41.072	0.100
503.000	65.627	0.100
503.100	33.913	0.100
503.200	44.650	0.100
503.300	38.297	0.100
503.400	52.286	0.100
503.500	42.999	0.100
503.600	50.829	0.100
503.700	44.597	0.100
503.800	36.617	0.100
503.900	50.662	0.100
504.000	49.229	0.100
504.100	43.822	0.100
504.200	56.048	0.100
504.300	42.563	0.100
504.400	43.078	0.100
504.500	46.591	0.100
504.600	39.855	0.100
504.700	53.879	0.100
504.800	52.353	0.100
504.900	45.159	0.100
505.000	58.651	0.100
505.100	28.761	0.100
505.200	45.127	0.100
505.300	37.853	0.100
505.400	38.418	0.100
505.500	37.304	0.100
505.600	55.338	0.100
505.700	33.759	0.100
505.800	23.590	0.100
505.900	42.839	0.100
506.000	50.174	0.100
506.100	41.067	0.100
506.200	39.826	0.100
506.300	40.124	0.100
506.400	57.838	0.100
506.500	35.506	0.100
506.600	51.471	0.100
506.700	46.564	0.100
506.800	63.212	0.100
506.900	24.800	0.100
507.000	60.891	0.100
507.100	30.312	0.100
507.200	44.372	0.100
507.300	50.699	0.100
507.400	30.931	0.100
507.500	40.753	0.100
507.600	60.002	0.100
507.700	39.407	0.100
507.800	57.341	0.100
507.900	36.483	0.100
508.000	44.110	0.100
508.100	50.681	0.100
508.200	33.818	0.100
508.300	27.559	0.100
508.400	52.528	0.100
508.500	47.679	0.100
508.600	45.623	0.100
508.700	47.801	0.100
508.800	35.645	0.100
508.900	43.650	0.100
509.000	42.891	0.100
509.100	30.573	0.100
509.200	33.575	0.100
509.300	40.908	0.100
509.400	43.134	0.100
509.500	36.746	0.100
509.600	44.582	0.100
509.700	39.882	0.100
509.800	50.219	0.100
509.900	45.643	0.100
510.000	44.835	0.100
510.100	39.122	0.100
510.200	47.939	0.100
510.300	43.692	0.100
510.400	46.622	0.100
510.500	46.921	0.100
510.600	34.898	0.100
510.700	42.494	0.100
510.800	44.575	0.100
510.900	27.036	0.100
511.000	29.792	0.100
511.100	45.294	0.100
511.200	56.958	0.100
511.300	41.453	0.100
511.400	34.852	0.100
511.500	39.687	0.100
511.600	36.911	0.100
511.700	33.846	0.100
511.800	38.131	0.100
511.900	28.296	0.100
512.000	48.878	0.100
512.100	40.865	0.100
512.200	48.013	0.100
512.300	39.562	0.100
512.400	26.419	0.100
512.500	47.143	0.100
512.600	36.779	0.100
512.700	47.242	0.100
512.800	37.776	0.100
512.900	39.516	0.100
513.000	41.655	0.100
513.100	48.909	0.100
513.200	19.042	0.100
513.300	18.104	0.100
513.400	35.423	0.100
513.500	25.916	0.100
513.600	29.436	0.100
513.700	37.952	0.100
513.800	38.419	0.100
513.900	37.729	0.100
514.000	35.097	0.100
514.100	30.033	0.100
514.200	30.316	0.100
514.300	43.096	0.100
514.400	34.684	0.100
514.500	45.822	0.100
514.600	29.315	0.100
514.700	39.085	0.100
514.800	39.629	0.100
514.900	31.265	0.100
515.000	40.087	0.100
515.100	33.109	0.100
515.200	39.323	0.100
515.300	33.378	0.100
515.400	51.809	0.100
515.500	31.732	0.100
515.600	33.059	0.100
515.700	34.906	0.100
515.800	30.796	0.100
515.900	52.999	0.100
516.000	51.018	0.100
516.100	33.885	0.100
516.200	56.943	0.100
516.300	7.272	0.100
516.400	54.238	0.100
516.500	18.353	0.100
516.600	41.998	0.100
516.700	41.297	0.100
516.800	27.393	0.100
516.900	34.046	0.100
517.000	15.801	0.100
517.100	37.047	0.100
517.200	35.063	0.100
517.300	27.472	0.100
517.400	36.136	0.100
517.500	22.192	0.100
517.600	37.473	0.100
517.700	26.702	0.100
517.800	40.865	0.100
517.900	31.148	0.100
518.000	33.347	0.100
518.100	36.356	0.100
518.200	38.783	0.100
518.300	43.893	0.100
518.400	40.523	0.100
518.500	40.402	0.100
518.600	24.685	0.100
518.700	37.859	0.100
518.800	24.783	0.100
518.900	30.594	0.100
519.000	18.992	0.100
519.100	27.458	0.100
519.200	30.676	0.100
519.300	40.748	0.100
519.400	37.845	0.100
519.500	39.379	0.100
519.600	42.378	0.100
519.700	27.313	0.100
519.800	36.187	0.100
519.900	17.523	0.100
520.000	44.506	0.100
520.100	45.407	0.100
520.200	34.105	0.100
520.300	46.905	0.100
520.400	18.419	0.100
520.500	22.220	0.100
520.600	15.668	0.100
520.700	40.324	0.100
520.800	19.178	0.100
520.900	29.559	0.100
521.000	42.432	0.100
521.100	25.928	0.100
521.200	13.783	0.100
521.300	43.220	0.100
521.400	29.626	0.100
521.500	53.406	0.100
521.600	26.359	0.100
521.700	20.410	0.100
521.800	10.208	0.100
521.900	20.012	0.100
522.000	44.615	0.100
522.100	32.885	0.100
522.200	46.081	0.100
522.300	30.530	0.100
522.400	28.442	0.100
522.500	23.786	0.100
522.600	31.322	0.100
522.700	15.079	0.100
522.800	24.210	0.100
522.900	45.254	0.100
523.000	25.479	0.100
523.100	53.639	0.100
523.200	27.053	0.100
523.300	24.139	0.100
523.400	42.418	0.100
523.500	29.965	0.100
523.600	34.213	0.100
523.700	38.126	0.100
523.800	35.806	0.100
523.900	25.316	0.100
524.000	27.020	0.100
524.100	25.206	0.100
524.200	18.175	0.100
524.300	27.644	0.100
524.400	30.998	0.100
524.500	27.424	0.100
524.600	11.434	0.100
524.700	21.295	0.100
524.800	40.191	0.100
524.900	17.743	0.100
525.000	24.831	0.100
525.100	26.208	0.100
525.200	15.950	0.100
525.300	33.726	0.100
525.400	26.922	0.100
525.500	26.427	0.100
525.600	29.300	0.100
525.700	29.946	0.100
525.800	27.563	0.100
525.900	25.395	0.100
526.000	17.048	0.100
526.100	20.615	0.100
526.200	48.203	0.100
526.300	29.354	0.100
526.400	19.833	0.100
526.500	31.335	0.100
526.600	43.636	0.100
526.700	31.449	0.100
526.800	20.399	0.100
526.900	32.350	0.100
527.000	28.110	0.100
527.100	43.370	0.100
527.200	19.239	0.100
527.300	37.767	0.100
527.400	22.373	0.100
527.500	43.317	0.100
527.600	16.068	0.100
527.700	29.887	0.100
527.800	30.653	0.100
527.900	27.909	0.100
528.000	37.321	0.100
528.100	25.581	0.100
528.200	25.235	0.100
528.300	37.582	0.100
528.400	17.677	0.100
528.500	52.742	0.100
528.600	23.228	0.100
528.700	19.305	0.100
528.800	39.594	0.100
528.900	-8.236	0.100
529.000	37.591	0.100
529.100	16.114	0.100
529.200	37.460	0.100
529.300	28.316	0.100
529.400	19.191	0.100
529.500	37.511	0.100
529.600	36.699	0.100
529.700	6.094	0.100
529.800	26.012	0.100
529.900	31.886	0.100
530.000	28.868	0.100
530.100	20.195	0.100
530.200	27.825	0.100
530.300	30.813	0.100
530.400	31.373	0.100
530.500	32.351	0.100
530.600	13.418	0.100
530.700	12.936	0.100
530.800	28.493	0.100
530.900	24.557	0.100
531.000	17.222	0.100
531.100	36.407	0.100
531.200	28.304	0.100
531.300	22.858	0.100
531.400	30.958	0.100
531.500	26.415	0.100
531.600	25.295	0.100
531.700	19.324	0.100
531.800	26.380	0.100
531.900	10.616	0.100
532.000	37.596	0.100
532.100	37.110	0.100
532.200	15.532	0.100
532.300	8.716	0.100
532.400	18.220	0.100
532.500	18.293	0.100
532.600	14.470	0.100
532.700	30.448	0.100
532.800	33.051	0.100
532.900	14.775	0.100
533.000	27.476	0.100
533.100	32.528	0.100
533.200	32.008	0.100
533.300	27.187	0.100
533.400	25.404	0.100
533.500	24.608	0.100
533.600	19.915	0.100
533.700	20.500	0.100
533.800	25.410	0.100
533.900	42.216	0.100
534.000	32.460	0.100
534.100	23.275	0.100
534.200	28.694	0.100
534.300	45.342	0.100
534.400	26.136	0.100
534.500	16.127	0.100
534.600	12.183	0.100
534.700	31.375	0.100
534.800	15.446	0.100
534.900	19.922	0.100
535.000	22.099	0.100
535.100	21.657	0.100
535.200	15.732	0.100
535.300	16.223	0.100
535.400	26.812	0.100
535.500	25.762	0.100
535.600	16.293	0.100
535.700	11.985	0.100
535.800	37.382	0.100
535.900	20.287	0.100
536.000	12.903	0.100
536.100	22.587	0.100
536.200	22.418	0.100
536.300	24.377	0.100
536.400	14.879	0.100
536.500	19.193	0.100
536.600	24.777	0.100
536.700	14.871	0.100
536.800	22.631	0.100
536.900	23.357	0.100
537.000	21.202	0.100
537.100	14.867	0.100
537.200	30.397	0.100
537.300	24.369	0.100
537.400	24.004	0.100
537.500	24.466	0.100
537.600	19.421	0.100
537.700	28.192	0.100
537.800	8.781	0.100
537.900	26.607	0.100
538.000	14.875	0.100
538.100	22.279	0.100
538.200	14.317	0.100
538.300	33.783	0.100
538.400	14.554	0.100
538.500	14.595	0.100
538.600	18.720	0.100
538.700	7.897	0.100
538.800	12.410	0.100
538.900	14.414	0.100
539.000	39.132	0.100
539.100	39.465	0.100
539.200	33.186	0.100
539.300	11.881	0.100
539.400	23.527	0.100
539.500	18.635	0.100
539.600	21.676	0.100
539.700	18.892	0.100
539.800	20.551	0.100
539.900	19.635	0.100
540.000	2.956	0.100
540.100	7.797	0.100
540.200	17.357	0.100
540.300	23.503	0.100
540.400	17.214	0.100
540.500	14.543	0.100
540.600	23.416	0.100
540.700	-2.788	0.100
540.800	19.462	0.100
540.900	-9.976	0.100
541.000	31.027	0.100
541.100	-15.174	0.100
541.200	22.391	0.100
541.300	-3.818	0.100
541.400	-6.553	0.100
541.500	9.755	0.100
541.600	2.951	0.100
541.700	10.107	0.100
541.800	6.539	0.100
541.900	2.985	0.100
542.000	-15.433	0.100
542.100	-0.431	0.100
542.200	-9.734	0.100
542.300	0.657	0.100
542.400	-15.188	0.100
542.500	-1.118	0.100
542.600	-9.232	0.100
542.700	-20.806	0.100
542.800	-16.850	0.100
542.900	-24.069	0.100
543.000	-24.566	0.100
543.100	-19.670	0.100
543.200	-17.923	0.100
543.300	-20.446	0.100
543.400	-7.824	0.100
543.500	-24.865	0.100
543.600	-18.841	0.100
543.700	-3.576	0.100
543.800	-19.064	0.100
543.900	-22.071	0.100
544.000	-30.557	0.100
544.100	-12.160	0.100
544.200	-23.030	0.100
544.300	-23.828	0.100
544.400	-20.138	0.100
544.500	-19.473	0.100
544.600	-19.530	0.100
544.700	-20.017	0.100
544.800	-29.146	0.100
544.900	-23.038	0.100
545.000	-12.943	0.100
545.100	-25.378	0.100
545.200	-19.215	0.100
545.300	-12.157	0.100
545.400	-28.166	0.100
545.500	-38.804	0.100
545.600	-30.820	0.100
545.700	-28.756	0.100
545.800	-25.344	0.100
545.900	-25.163	0.100
546.000	-34.361	0.100
546.100	-43.706	0.100
546.200	-16.210	0.100
546.300	-36.914	0.100
546.400	-18.796	0.100
546.500	-36.523	0.100
546.600	-13.751	0.100
546.700	-26.654	0.100
546.800	-41.898	0.100
546.900	-20.539	0.100
547.000	-20.481	0.100
547.100	-21.870	0.100
547.200	-19.036	0.100
547.300	-13.887	0.100
547.400	-14.946	0.100
547.500	-23.648	0.100
547.600	-29.894	0.100
547.700	-38.132	0.100
547.800	-19.966	0.100
547.900	-24.451	0.100
548.000	-22.978	0.100
548.100	-32.323	0.100
548.200	-23.061	0.100
548.300	-29.877	0.100
548.400	-34.535	0.100
548.500	-24.472	0.100
548.600	-31.365	0.100
548.700	-19.000	0.100
548.800	-45.039	0.100
548.900	-37.683	0.100
549.000	-25.709	0.100
549.100	-22.653	0.100
549.200	-20.774	0.100
549.300	-20.065	0.100
549.400	-29.967	0.100
549.500	-26.468	0.100
549.600	-22.170	0.100
549.700	-33.588	0.100
549.800	-23.124	0.100
549.900	-27.274	0.100
550.000	-19.635	0.100
550.100	-18.839	0.100
550.200	-16.458	0.100
550.300	-28.458	0.100
550.400	-19.465	0.100
550.500	-19.853	0.100
550.600	-38.542	0.100
550.700	-20.317	0.100
550.800	-30.104	0.100
550.900	-16.808	0.100
551.000	-9.908	0.100
551.100	-38.217	0.100
551.200	-27.971	0.100
551.300	-12.186	0.100
551.400	-23.062	0.100
551.500	-35.172	0.100
551.600	-28.589	0.100
551.700	-6.240	0.100
551.800	-44.105	0.100
551.900	-12.183	0.100
552.000	-20.888	0.100
552.100	-31.115	0.100
552.200	-17.384	0.100
552.300	-13.348	0.100
552.400	-25.558	0.100
552.500	-12.334	0.100
552.600	-18.871	0.100
552.700	-10.482	0.100
552.800	-20.675	0.100
552.900	-9.934	0.100
553.000	-17.199	0.100
553.100	-24.445	0.100
553.200	1.841	0.100
553.300	-23.657	0.100
553.400	-21.252	0.100
553.500	-19.816	0.100
553.600	-25.775	0.100
553.700	-22.564	0.100
553.800	-21.944	0.100
553.900	-38.437	0.100
554.000	-18.637	0.100
554.100	-14.170	0.100
554.200	-26.858	0.100
554.300	-20.835	0.100
554.400	-38.719	0.100
554.500	-22.359	0.100
554.600	-14.958	0.100
554.700	-16.984	0.100
554.800	-20.911	0.100
554.900	-17.580	0.100
555.000	-7.338	0.100
555.100	-41.610	0.100
555.200	-17.479	0.100
555.300	-16.681	0.100
555.400	-29.912	0.100
555.500	7.160	0.100
555.600	-13.600	0.100
555.700	-17.803	0.100
555.800	-21.498	0.100
555.900	-17.809	0.100
556.000	-21.884	0.100
556.100	-20.062	0.100
556.200	-18.078	0.100
556.300	-37.319	0.100
556.400	-8.902	0.100
556.500	-23.202	0.100
556.600	-24.692	0.100
556.700	-30.605	0.100
556.800	-29.154	0.100
556.900	-12.007	0.100
557.000	-16.578	0.100
557.100	-3.744	0.100
557.200	-16.552	0.100
557.300	-40.645	0.100
557.400	-15.723	0.100
557.500	-4.458	0.100
557.600	-8.794	0.100
557.700	-15.394	0.100
557.800	-4.545	0.100
557.900	-20.417	0.100
558.000	-13.802	0.100
558.100	-2.387	0.100
558.200	-34.744	0.100
558.300	-0.409	0.100
558.400	-6.996	0.100
558.500	-1.168	0.100
558.600	-15.656	0.100
558.700	-17.008	0.100
558.800	-14.616	0.100
558.900	-19.065	0.100
559.000	-28.217	0.100
559.100	-22.273	0.100
559.200	-19.289	0.100
559.300	-20.779	0.100
559.400	-31.260	0.100
559.500	-17.188	0.100
559.600	-16.374	0.100
559.700	-26.770	0.100
559.800	-11.645	0.100
559.900	-9.888	0.100
560.000	-17.943	0.100
560.100	-19.161	0.100
560.200	-12.031	0.100
560.300	-12.531	0.100
560.400	-20.600	0.100
560.500	-11.222	0.100
560.600	-26.426	0.100
560.700	-10.977	0.100
560.800	-41.937	0.100
560.900	-8.970	0.100
561.000	-26.426	0.100
561.100	-34.887	0.100
561.200	-18.232	0.100
561.300	-19.252	0.100
561.400	-24.438	0.100
561.500	-19.177	0.100
561.600	-9.049	0.100
561.700	-18.737	0.100
561.800	-29.279	0.100
561.900	-9.966	0.100
562.000	-17.822	0.100
562.100	-19.985	0.100
562.200	-23.380	0.100
562.300	-14.314	0.100
562.400	-19.370	0.100
562.500	-24.416	0.100
562.600	-9.170	0.100
562.700	-24.040	0.100
562.800	-0.177	0.100
562.900	-16.809	0.100
563.000	-19.041	0.100
563.100	-9.895	0.100
563.200	-6.128	0.100
563.300	-30.799	0.100
563.400	-6.938	0.100
563.500	-22.642	0.100
563.600	-32.724	0.100
563.700	-0.971	0.100
563.800	-20.414	0.100
563.900	-14.972	0.100
564.000	-16.364	0.100
564.100	-1.603	0.100
564.200	-14.467	0.100
564.300	-29.174	0.100
564.400	-28.360	0.100
564.500	-22.932	0.100
564.600	-25.518	0.100
564.700	-14.140	0.100
564.800	-13.819	0.100
564.900	-23.706	0.100
565.000	-23.549	0.100
565.100	-35.964	0.100
565.200	-20.154	0.100
565.300	-17.363	0.100
565.400	-19.426	0.100
565.500	-16.538	0.100
565.600	-12.670	0.100
565.700	-13.537	0.100
565.800	-15.216	0.100
565.900	-25.329	0.100
566.000	-4.152	0.100
566.100	-14.652	0.100
566.200	-4.748	0.100
566.300	-14.976	0.100
566.400	-26.525	0.100
566.500	-31.825	0.100
566.600	-16.569	0.100
566.700	-9.436	0.100
566.800	-28.265	0.100
566.900	-24.937	0.100
567.000	-26.038	0.100
567.100	-12.470	0.100
567.200	-5.216	0.100
567.300	-15.452	0.100
567.400	7.914	0.100
567.500	-31.172	0.100
567.600	-11.516	0.100
567.700	-12.409	0.100
567.800	-16.603	0.100
567.900	-13.549	0.100
568.000	-24.010	0.100
568.100	-19.132	0.100
568.200	-32.958	0.100
568.300	-23.347	0.100
568.400	-23.042	0.100
568.500	-23.954	0.100
568.600	-32.183	0.100
568.700	-11.475	0.100
568.800	-18.333	0.100
568.900	-22.954	0.100
569.000	-20.470	0.100
569.100	-16.221	0.100
569.200	-22.227	0.100
569.300	-15.591	0.100
569.400	-12.246	0.100
569.500	-15.598	0.100
569.600	-27.951	0.100
569.700	-8.828	0.100
569.800	-24.718	0.100
569.900	-35.362	0.100
570.000	-18.834	0.100
570.100	-30.533	0.100
570.200	-24.112	0.100
570.300	-8.078	0.100
570.400	-24.001	0.100
570.500	-14.667	0.100
570.600	-12.207	0.100
570.700	-10.345	0.100
570.800	-21.828	0.100
570.900	-19.451	0.100
571.000	-32.966	0.100
571.100	-8.806	0.100
571.200	-17.591	0.100
571.300	-14.523	0.100
571.400	-16.435	0.100
571.500	-21.689	0.100
571.600	-13.041	0.100
571.700	-20.408	0.100
571.800	-23.517	0.100
571.900	6.513	0.100
572.000	-22.052	0.100
572.100	-22.225	0.100
572.200	-41.735	0.100
572.300	-21.246	0.100
572.400	-21.192	0.100
572.500	-28.158	0.100
572.600	4.214	0.100
572.700	-19.591	0.100
572.800	-19.573	0.100
572.900	-19.684	0.100
573.000	-13.573	0.100
573.100	-28.206	0.100
573.200	-20.316	0.100
573.300	-18.738	0.100
573.400	-25.373	0.100
573.500	-20.552	0.100
573.600	-19.597	0.100
573.700	-20.319	0.100
573.800	-21.597	0.100
573.900	-21.755	0.100
574.000	-13.796	0.100
574.100	-8.554	0.100
574.200	-12.639	0.100
574.300	-33.088	0.100
574.400	-35.150	0.100
574.500	-18.942	0.100
574.600	-23.972	0.100
574.700	-17.533	0.100
574.800	-7.897	0.100
574.900	-24.523	0.100
575.000	-26.138	0.100
575.100	-1.134	0.100
575.200	-37.092	0.100
575.300	-24.694	0.100
575.400	-1.632	0.100
575.500	-7.574	0.100
575.600	-10.187	0.100
575.700	-29.675	0.100
575.800	-9.380	0.100
575.900	-12.322	0.100
576.000	-14.274	0.100
576.100	-26.252	0.100
576.200	-15.691	0.100
576.300	-9.634	0.100
576.400	-20.812	0.100
576.500	-17.086	0.100
576.600	-25.270	0.100
576.700	-10.274	0.100
576.800	-19.439	0.100
576.900	-12.200	0.100
577.000	3.264	0.100
577.100	-39.097	0.100
577.200	-7.151	0.100
577.300	-21.075	0.100
577.400	-29.546	0.100
577.500	12.364	0.100
577.600	-27.889	0.100
577.700	-18.597	0.100
577.800	-29.992	0.100
577.900	-10.838	0.100
578.000	-4.709	0.100
578.100	-21.573	0.100
578.200	-35.357	0.100
578.300	-13.709	0.100
578.400	-11.761	0.100
578.500	-31.146	0.100
578.600	-17.871	0.100
578.700	-29.288	0.100
578.800	-16.171	0.100
578.900	-8.070	0.100
579.000	-4.498	0.100
579.100	-24.605	0.100
579.200	-24.464	0.100
579.300	-23.613	0.100
579.400	-28.075	0.100
579.500	-11.980	0.100
579.600	-33.950	0.100
579.700	-19.036	0.100
579.800	-10.305	0.100
579.900	-11.255	0.100
580.000	-29.858	0.100
580.100	-19.756	0.100
580.200	-22.084	0.100
580.300	-25.729	0.100
580.400	-7.504	0.100
580.500	-27.660	0.100
580.600	-17.751	0.100
580.700	-15.137	0.100
580.800	-17.286	0.100
580.900	-30.022	0.100
581.000	-25.849	0.100
581.100	-9.462	0.100
581.200	-5.512	0.100
581.300	-16.264	0.100
581.400	-3.140	0.100
581.500	-42.675	0.100
581.600	-9.600	0.100
581.700	-22.631	0.100
581.800	-12.123	0.100
581.900	-29.361	0.100
582.000	-24.319	0.100
582.100	-27.428	0.100
582.200	-21.579	0.100
582.300	-11.870	0.100
582.400	-22.680	0.100
582.500	-6.252	0.100
582.600	-18.624	0.100
582.700	-32.385	0.100
582.800	-19.706	0.100
582.900	-23.185	0.100
583.000	-18.632	0.100
583.100	-14.128	0.100
583.200	-38.004	0.100
583.300	-26.290	0.100
583.400	-39.158	0.100
583.500	-9.621	0.100
583.600	-18.381	0.100
583.700	-34.199	0.100
583.800	-4.672	0.100
583.900	-6.798	0.100
584.000	-4.697	0.100
584.100	-30.170	0.100
584.200	-11.246	0.100
584.300	-30.663	0.100
584.400	-25.624	0.100
584.500	5.326	0.100
584.600	-16.607	0.100
584.700	-24.798	0.100
584.800	-20.968	0.100
584.900	-15.304	0.100
585.000	-16.844	0.100
585.100	-30.515	0.100
585.200	-16.843	0.100
585.300	-19.922	0.100
585.400	-18.696	0.100
585.500	-19.669	0.100
585.600	-22.476	0.100
585.700	-17.628	0.100
585.800	-37.988	0.100
585.900	-31.651	0.100
586.000	-10.607	0.100
586.100	-9.062	0.100
586.200	-32.536	0.100
586.300	-31.312	0.100
586.400	-10.878	0.100
586.500	-6.763	0.100
586.600	-26.237	0.100
586.700	-11.040	0.100
586.800	-19.337	0.100
586.900	-24.992	0.100
587.000	-40.374	0.100
587.100	-14.921	0.100
587.200	-30.602	0.100
587.300	-9.512	0.100
587.400	-37.110	0.100
587.500	-13.852	0.100
587.600	-12.372	0.100
587.700	-34.412	0.100
587.800	-5.230	0.100
587.900	-17.314	0.100
588.000	-2.766	0.100
588.100	-17.040	0.100
588.200	-23.925	0.100
588.300	-21.806	0.100
588.400	-4.571	0.100
588.500	-20.513	0.100
588.600	-25.394	0.100
588.700	-1.142	0.100
588.800	-13.553	0.100
588.900	-20.759	0.100
589.000	-12.470	0.100
589.100	-11.583	0.100
589.200	-24.146	0.100
589.300	-8.252	0.100
589.400	-11.906	0.100
589.500	-18.075	0.100
589.600	-20.311	0.100
589.700	-24.933	0.100
589.800	-17.956	0.100
589.900	-17.205	0.100
590.000	-12.924	0.100
590.100	-12.870	0.100
590.200	-11.165	0.100
590.300	-15.691	0.100
590.400	-23.161	0.100
590.500	-10.383	0.100
590.600	-21.077	0.100
590.700	-20.895	0.100
590.800	-17.109	0.100
590.900	-16.152	0.100
591.000	-24.393	0.100
591.100	5.813	0.100
591.200	-27.019	0.100
591.300	-17.952	0.100
591.400	-15.863	0.100
591.500	-23.953	0.100
591.600	-12.537	0.100
591.700	-22.436	0.100
591.800	-45.577	0.100
591.900	-12.859	0.100
592.000	-14.380	0.100
592.100	-18.134	0.100
592.200	-18.462	0.100
592.300	-5.300	0.100
592.400	-33.681	0.100
592.500	-22.134	0.100
592.600	-22.302	0.100
592.700	-20.845	0.100
592.800	-25.732	0.100
592.900	-9.026	0.100
593.000	3.982	0.100
593.100	-30.127	0.100
593.200	-14.740	0.100
593.300	-38.914	0.100
593.400	-18.029	0.100
593.500	-1.525	0.100
593.600	-11.370	0.100
593.700	-0.567	0.100
593.800	-25.861	0.100
593.900	-12.593	0.100
594.000	-7.043	0.100
594.100	-29.937	0.100
594.200	-11.552	0.100
594.300	-1.382	0.100
594.400	-22.069	0.100
594.500	-13.256	0.100
594.600	-24.322	0.100
594.700	-27.579	0.100
594.800	-6.650	0.100
594.900	-10.054	0.100
595.000	-7.474	0.100
595.100	-9.195	0.100
595.200	-25.680	0.100
595.300	-26.778	0.100
595.400	-23.430	0.100
595.500	-21.070	0.100
595.600	-19.076	0.100
595.700	-7.078	0.100
595.800	-13.232	0.100
595.900	-34.352	0.100
596.000	-6.130	0.100
596.100	-11.934	0.100
596.200	-14.375	0.100
596.300	-26.227	0.100
596.400	-20.138	0.100
596.500	-16.918	0.100
596.600	-18.150	0.100
596.700	-15.150	0.100
596.800	1.811	0.100
596.900	-19.784	0.100
597.000	-11.061	0.100
597.100	-15.566	0.100
597.200	-29.382	0.100
597.300	-21.638	0.100
597.400	-27.440	0.100
597.500	-17.245	0.100
597.600	-16.002	0.100
597.700	-23.386	0.100
597.800	-14.271	0.100
597.900	-8.843	0.100
598.000	-10.291	0.100
598.100	-28.830	0.100
598.200	-8.887	0.100
598.300	-6.297	0.100
598.400	-11.019	0.100
598.500	-8.208	0.100
598.600	-11.453	0.100
598.700	-19.434	0.100
598.800	-19.563	0.100
598.900	-2.833	0.100
599.000	-14.934	0.100
599.100	-7.542	0.100
599.200	-27.062	0.100
599.300	-26.201	0.100
599.400	4.086	0.100
599.500	-26.794	0.100
599.600	-18.110	0.100
599.700	-2.251	0.100
599.800	-16.395	0.100
599.900	-5.049	0.100
600.000	-28.320	0.100
600.100	-35.210	0.100
600.200	-16.159	0.100
600.300	-25.260	0.100
600.400	0.738	0.100
600.500	-10.442	0.100
600.600	-19.505	0.100
600.700	-8.890	0.100
600.800	-23.871	0.100
600.900	-16.253	0.100
601.000	-8.749	0.100
601.100	-29.648	0.100
601.200	-10.239	0.100
601.300	-20.809	0.100
601.400	0.913	0.100
601.500	-24.555	0.100
601.600	-21.210	0.100
601.700	-4.578	0.100
601.800	-9.555	0.100
601.900	-22.133	0.100
602.000	-21.333	0.100
602.100	-32.749	0.100
602.200	-8.415	0.100
602.300	-28.944	0.100
602.400	-30.138	0.100
602.500	-15.220	0.100
602.600	-28.971	0.100
602.700	-10.834	0.100
602.800	-14.962	0.100
602.900	-10.819	0.100
603.000	-16.802	0.100
603.100	-14.528	0.100
603.200	-15.447	0.100
603.300	-8.760	0.100
603.400	-17.778	0.100
603.500	-3.275	0.100
603.600	-18.351	0.100
603.700	-9.430	0.100
603.800	-3.151	0.100
603.900	-27.324	0.100
604.000	-5.413	0.100
604.100	-7.136	0.100
604.200	-17.296	0.100
604.300	-18.715	0.100
604.400	-7.916	0.100
604.500	-2.489	0.100
604.600	-13.721	0.100
604.700	-8.701	0.100
604.800	-3.707	0.100
604.900	-0.785	0.100
605.000	-15.034	0.100
605.100	-13.337	0.100
605.200	-4.684	0.100
605.300	-25.330	0.100
605.400	-7.671	0.100
605.500	-20.365	0.100
605.600	-20.699	0.100
605.700	-11.035	0.100
605.800	-23.334	0.100
605.900	-23.719	0.100
606.000	-6.307	0.100
606.100	-9.782	0.100
606.200	-28.971	0.100
606.300	-7.175	0.100
606.400	-0.703	0.100
606.500	-4.340	0.100
606.600	-13.307	0.100
606.700	-10.047	0.100
606.800	-16.325	0.100
606.900	-11.226	0.100
607.000	-20.371	0.100
607.100	-6.910	0.100
607.200	-21.876	0.100
607.300	0.496	0.100
607.400	-6.654	0.100
607.500	-26.850	0.100
607.600	-11.673	0.100
607.700	-15.359	0.100
607.800	-11.555	0.100
607.900	-19.207	0.100
608.000	6.003	0.100
608.100	-32.265	0.100
608.200	-9.431	0.100
608.300	-10.232	0.100
608.400	-23.151	0.100
608.500	-14.234	0.100
608.600	-17.095	0.100
608.700	-7.830	0.100
608.800	-16.873	0.100
608.900	-0.904	0.100
609.000	-26.105	0.100
609.100	-25.383	0.100
609.200	-12.044	0.100
609.300	7.608	0.100
609.400	-20.904	0.100
609.500	-10.306	0.100
609.600	-21.360	0.100
609.700	-10.718	0.100
609.800	-24.036	0.100
609.900	-1.984	0.100
610.000	-21.034	0.100
610.100	-23.919	0.100
610.200	-21.572	0.100
610.300	-22.969	0.100
610.400	-12.451	0.100
610.500	-18.633	0.100
610.600	-16.405	0.100
610.700	-8.242	0.100
610.800	-18.413	0.100
610.900	-10.189	0.100
611.000	-13.807	0.100
611.100	-3.014	0.100
611.200	-11.521	0.100
611.300	-7.460	0.100
611.400	-12.194	0.100
611.500	-16.064	0.100
611.600	-19.711	0.100
611.700	-11.271	0.100
611.800	-14.427	0.100
611.900	-17.482	0.100
612.000	-14.973	0.100
612.100	-19.283	0.100
612.200	-19.080	0.100
612.300	5.280	0.100
612.400	-16.972	0.100
612.500	-11.946	0.100
612.600	-16.501	0.100
612.700	-10.424	0.100
612.800	-19.429	0.100
612.900	-14.844	0.100
613.000	4.484	0.100
613.100	-18.763	0.100
613.200	-15.011	0.100
613.300	-19.639	0.100
613.400	-4.277	0.100
613.500	-6.450	0.100
613.600	-23.948	0.100
613.700	9.904	0.100
613.800	-32.625	0.100
613.900	-7.326	0.100
614.000	-16.962	0.100
614.100	-12.912	0.100
614.200	-11.391	0.100
614.300	-8.237	0.100
614.400	-12.980	0.100
614.500	-6.913	0.100
614.600	-5.860	0.100
614.700	-12.066	0.100
614.800	-21.826	0.100
614.900	-9.661	0.100
615.000	-6.882	0.100
615.100	-13.280	0.100
615.200	-12.406	0.100
615.300	-17.233	0.100
615.400	-10.704	0.100
615.500	-12.152	0.100
615.600	-12.214	0.100
615.700	-11.692	0.100
615.800	-19.226	0.100
615.900	0.340	0.100
616.000	-18.734	0.100
616.100	-8.272	0.100
616.200	-8.328	0.100
616.300	0.675	0.100
616.400	-24.908	0.100
616.500	-13.543	0.100
616.600	-8.801	0.100
616.700	-8.924	0.100
616.800	-27.316	0.100
616.900	-16.185	0.100
617.000	-8.935	0.100
617.100	-8.518	0.100
617.200	5.644	0.100
617.300	0.289	0.100
617.400	-25.405	0.100
617.500	-17.678	0.100
617.600	-10.412	0.100
617.700	-11.378	0.100
617.800	-18.217	0.100
617.900	-17.581	0.100
618.000	11.106	0.100
618.100	-22.098	0.100
618.200	-6.446	0.100
618.300	-16.201	0.100
618.400	-3.212	0.100
618.500	-8.730	0.100
618.600	0.717	0.100
618.700	-17.507	0.100
618.800	-23.525	0.100
618.900	-10.688	0.100
619.000	-16.014	0.100
619.100	-16.314	0.100
619.200	-14.319	0.100
619.300	-15.890	0.100
619.400	-6.710	0.100
619.500	-24.316	0.100
619.600	-31.415	0.100
619.700	-14.676	0.100
619.800	-7.528	0.100
619.900	-6.708	0.100
620.000	-14.231	0.100
620.100	-16.439	0.100
620.200	-24.056	0.100
620.300	-0.713	0.100
620.400	1.963	0.100
620.500	-4.879	0.100
620.600	-5.035	0.100
620.700	-17.876	0.100
620.800	-25.785	0.100
620.900	-13.600	0.100
621.000	-4.810	0.100
621.100	-19.664	0.100
621.200	1.789	0.100
621.300	-16.867	0.100
621.400	-14.921	0.100
621.500	-21.326	0.100
621.600	-7.903	0.100
621.700	-7.212	0.100
621.800	-18.170	0.100
621.900	-13.413	0.100
622.000	-12.533	0.100
622.100	-24.083	0.100
622.200	-5.703	0.100
622.300	-12.498	0.100
622.400	-12.178	0.100
622.500	11.834	0.100
622.600	-0.675	0.100
622.700	-33.543	0.100
622.800	-20.906	0.100
622.900	-13.331	0.100
623.000	-10.760	0.100
623.100	-26.745	0.100
623.200	-10.763	0.100
623.300	-23.720	0.100
623.400	-9.193	0.100
623.500	-6.774	0.100
623.600	0.171	0.100
623.700	-24.732	0.100
623.800	-22.864	0.100
623.900	15.085	0.100
624.000	-26.759	0.100
624.100	-14.172	0.100
624.200	-7.659	0.100
624.300	3.745	0.100
624.400	-3.793	0.100
624.500	-8.532	0.100
624.600	-8.322	0.100
624.700	6.397	0.100
624.800	-0.756	0.100
624.900	-30.915	0.100
625.000	8.806	0.100
625.100	1.842	0.100
625.200	-25.495	0.100
625.300	-16.986	0.100
625.400	-9.402	0.100
625.500	-10.377	0.100
625.600	-10.716	0.100
625.700	2.106	0.100
625.800	-11.742	0.100
625.900	-12.422	0.100
626.000	-15.718	0.100
626.100	-11.403	0.100
626.200	12.410	0.100
626.300	4.375	0.100
626.400	-17.369	0.100
626.500	-7.305	0.100
626.600	-24.108	0.100
626.700	-8.584	0.100
626.800	-2.675	0.100
626.900	-18.929	0.100
627.000	-21.219	0.100
627.100	-34.172	0.100
627.200	-2.271	0.100
627.300	-14.449	0.100
627.400	-4.506	0.100
627.500	-7.090	0.100
627.600	-4.794	0.100
627.700	-26.078	0.100
627.800	-19.063	0.100
627.900	0.713	0.100
628.000	-8.116	0.100
628.100	-24.779	0.100
628.200	-2.353	0.100
628.300	-16.206	0.100
628.400	-17.053	0.100
628.500	-9.166	0.100
628.600	-9.901	0.100
628.700	-16.797	0.100
628.800	-3.629	0.100
628.900	-17.568	0.100
629.000	-23.572	0.100
629.100	-8.141	0.100
629.200	-11.204	0.100
629.300	-18.500	0.100
629.400	-6.619	0.100
629.500	0.020	0.100
629.600	-3.914	0.100
629.700	-8.134	0.100
629.800	-10.276	0.100
629.900	-3.834	0.100
630.000	-9.167	0.100
630.100	-12.401	0.100
630.200	1.650	0.100
630.300	-15.678	0.100
630.400	-19.480	0.100
630.500	4.910	0.100
630.600	2.513	0.100
630.700	4.748	0.100
630.800	-8.483	0.100
630.900	8.219	0.100
631.000	-2.514	0.100
631.100	-6.488	0.100
631.200	5.769	0.100
631.300	-1.008	0.100
631.400	8.472	0.100
631.500	-3.188	0.100
631.600	6.541	0.100
631.700	8.976	0.100
631.800	-1.245	0.100
631.900	-7.161	0.100
632.000	6.812	0.100
632.100	30.386	0.100
632.200	1.748	0.100
632.300	20.583	0.100
632.400	8.321	0.100
632.500	8.888	0.100
632.600	5.241	0.100
632.700	5.757	0.100
632.800	11.513	0.100
632.900	4.724	0.100
633.000	7.135	0.100
633.100	32.895	0.100
633.200	16.653	0.100
633.300	18.688	0.100
633.400	12.647	0.100
633.500	23.657	0.100
633.600	15.521	0.100
633.700	19.525	0.100
633.800	7.010	0.100
633.900	26.987	0.100
634.000	15.610	0.100
634.100	12.943	0.100
634.200	35.619	0.100
634.300	22.322	0.100
634.400	27.955	0.100
634.500	19.897	0.100
634.600	21.800	0.100
634.700	12.635	0.100
634.800	17.569	0.100
634.900	19.049	0.100
635.000	3.638	0.100
635.100	39.475	0.100
635.200	29.465	0.100
635.300	28.027	0.100
635.400	24.611	0.100
635.500	1.673	0.100
635.600	12.110	0.100
635.700	27.039	0.100
635.800	21.227	0.100
635.900	-2.690	0.100
636.000	11.052	0.100
636.100	19.840	0.100
636.200	13.331	0.100
636.300	19.350	0.100
636.400	19.377	0.100
636.500	13.321	0.100
636.600	26.725	0.100
636.700	29.242	0.100
636.800	2.936	0.100
636.900	29.143	0.100
637.000	14.573	0.100
637.100	9.868	0.100
637.200	24.443	0.100
637.300	-5.078	0.100
637.400	26.750	0.100
637.500	8.367	0.100
637.600	22.329	0.100
637.700	16.945	0.100
637.800	19.987	0.100
637.900	26.109	0.100
638.000	15.800	0.100
638.100	33.285	0.100
638.200	19.900	0.100
638.300	25.018	0.100
638.400	27.122	0.100
638.500	3.903	0.100
638.600	14.774	0.100
638.700	12.345	0.100
638.800	-12.591	0.100
638.900	18.138	0.100
639.000	32.890	0.100
639.100	10.655	0.100
639.200	20.349	0.100
639.300	11.146	0.100
639.400	3.507	0.100
639.500	27.627	0.100
639.600	7.829	0.100
639.700	18.847	0.100
639.800	20.774	0.100
639.900	11.285	0.100
640.000	19.822	0.100
640.100	13.244	0.100
640.200	12.556	0.100
640.300	33.479	0.100
640.400	17.496	0.100
640.500	17.450	0.100
640.600	1.048	0.100
640.700	19.772	0.100
640.800	9.425	0.100
640.900	33.005	0.100
641.000	9.964	0.100
641.100	19.857	0.100
641.200	12.751	0.100
641.300	21.032	0.100
641.400	23.496	0.100
641.500	16.720	0.100
641.600	22.917	0.100
641.700	20.710	0.100
641.800	34.244	0.100
641.900	29.391	0.100
642.000	21.000	0.100
642.100	20.020	0.100
642.200	23.790	0.100
642.300	16.388	0.100
642.400	16.389	0.100
642.500	28.760	0.100
642.600	38.860	0.100
642.700	27.939	0.100
642.800	25.373	0.100
642.900	31.338	0.100
643.000	24.121	0.100
643.100	35.521	0.100
643.200	17.236	0.100
643.300	29.638	0.100
643.400	5.484	0.100
643.500	32.257	0.100
643.600	37.802	0.100
643.700	28.742	0.100
643.800	27.134	0.100
643.900	31.921	0.100
644.000	34.054	0.100
644.100	30.141	0.100
644.200	20.742	0.100
644.300	20.191	0.100
644.400	28.710	0.100
644.500	30.771	0.100
644.600	31.217	0.100
644.700	23.139	0.100
644.800	37.961	0.100
644.900	13.111	0.100
645.000	18.453	0.100
645.100	26.558	0.100
645.200	37.525	0.100
645.300	23.876	0.100
645.400	33.188	0.100
645.500	31.530	0.100
645.600	40.376	0.100
645.700	32.449	0.100
645.800	35.331	0.100
645.900	35.012	0.100
646.000	30.518	0.100
646.100	40.568	0.100
646.200	41.814	0.100
646.300	16.800	0.100
646.400	35.950	0.100
646.500	34.826	0.100
646.600	37.968	0.100
646.700	22.870	0.100
646.800	52.526	0.100
646.900	22.422	0.100
647.000	35.516	0.100
647.100	30.569	0.100
647.200	34.097	0.100
647.300	45.729	0.100
647.400	39.748	0.100
647.500	15.413	0.100
647.600	41.870	0.100
647.700	38.912	0.100
647.800	14.704	0.100
647.900	61.936	0.100
648.000	28.469	0.100
648.100	40.321	0.100
648.200	64.319	0.100
648.300	38.765	0.100
648.400	14.752	0.100
648.500	27.337	0.100
648.600	30.558	0.100
648.700	39.487	0.100
648.800	56.844	0.100
648.900	51.691	0.100
649.000	18.450	0.100
649.100	33.460	0.100
649.200	46.696	0.100
649.300	29.044	0.100
649.400	34.657	0.100
649.500	59.997	0.100
649.600	44.618	0.100
649.700	27.510	0.100
649.800	51.689	0.100
649.900	43.578	0.100
650.000	45.200	0.100
650.100	33.828	0.100
650.200	44.770	0.100
650.300	39.975	0.100
650.400	35.354	0.100
650.500	53.760	0.100
650.600	53.031	0.100
650.700	42.115	0.100
650.800	46.986	0.100
650.900	47.162	0.100
651.000	47.022	0.100
651.100	43.024	0.100
651.200	37.980	0.100
651.300	46.396	0.100
651.400	30.122	0.100
651.500	46.756	0.100
651.600	42.116	0.100
651.700	47.554	0.100
651.800	35.183	0.100
651.900	52.887	0.100
652.000	54.204	0.100
652.100	52.146	0.100
652.200	55.612	0.100
652.300	41.227	0.100
652.400	47.359	0.100
652.500	37.532	0.100
652.600	37.823	0.100
652.700	54.779	0.100
652.800	22.340	0.100
652.900	57.954	0.100
653.000	47.461	0.100
653.100	45.515	0.100
653.200	62.930	0.100
653.300	59.340	0.100
653.400	45.360	0.100
653.500	45.013	0.100
653.600	30.298	0.100
653.700	57.897	0.100
653.800	36.857	0.100
653.900	50.044	0.100
654.000	41.552	0.100
654.100	46.955	0.100
654.200	58.414	0.100
654.300	34.327	0.100
654.400	39.987	0.100
654.500	44.866	0.101
654.600	18.457	0.101
654.700	43.581	0.101
654.800	35.214	0.101
654.900	33.508	0.101
655.000	46.123	0.101
655.100	51.002	0.101
655.200	49.703	0.101
655.300	61.992	0.101
655.400	28.359	0.101
655.500	59.796	0.101
655.600	51.025	0.101
655.700	44.619	0.101
655.800	33.698	0.101
655.900	52.831	0.101
656.000	33.200	0.101
656.100	34.585	0.101
656.200	42.326	0.101
656.300	53.025	0.101
656.400	36.140	0.101
656.500	56.204	0.101
656.600	47.372	0.101
656.700	46.484	0.101
656.800	34.113	0.101
656.900	38.471	0.101
657.000	49.966	0.101
657.100	49.814	0.101
657.200	39.511	0.101
657.300	35.720	0.101
657.400	39.751	0.101
657.500	34.350	0.101
657.600	56.182	0.101
657.700	43.270	0.101
657.800	59.806	0.101
657.900	24.775	0.101
658.000	29.512	0.101
658.100	49.948	0.101
658.200	43.421	0.101
658.300	52.833	0.101
658.400	35.907	0.101
658.500	52.947	0.101
658.600	51.801	0.101
658.700	35.993	0.101
658.800	36.686	0.101
658.900	32.222	0.101
659.000	37.495	0.101
659.100	39.153	0.101
659.200	34.918	0.101
659.300	38.405	0.101
659.400	39.242	0.101
659.500	24.688	0.101
659.600	33.196	0.101
659.700	56.461	0.101
659.800	34.579	0.101
659.900	28.900	0.101
660.000	50.555	0.101
660.100	34.105	0.101
660.200	48.438	0.101
660.300	37.740	0.101
660.400	50.084	0.101
660.500	50.815	0.101
660.600	47.664	0.101
660.700	33.941	0.101
660.800	47.825	0.101
660.900	37.238	0.101
661.000	33.946	0.101
661.100	33.947	0.101
661.200	36.873	0.101
661.300	36.587	0.101
661.400	33.353	0.101
661.500	36.110	0.101
661.600	33.231	0.101
661.700	30.684	0.101
661.800	28.775	0.101
661.900	35.163	0.101
662.000	33.183	0.101
662.100	56.151	0.101
662.200	25.318	0.101
662.300	43.754	0.101
662.400	36.911	0.101
662.500	29.128	0.101
662.600	37.004	0.101
662.700	30.400	0.101
662.800	69.446	0.101
662.900	33.582	0.101
663.000	34.073	0.101
663.100	33.397	0.101
663.200	51.302	0.101
663.300	18.421	0.101
663.400	46.127	0.101
663.500	46.859	0.101
663.600	29.588	0.101
663.700	21.122	0.101
663.800	27.339	0.101
663.900	38.448	0.101
664.000	30.793	0.101
664.100	27.690	0.101
664.200	47.843	0.101
664.300	29.465	0.101
664.400	34.595	0.101
664.500	46.271	0.101
664.600	49.351	0.101
664.700	46.517	0.101
664.800	49.943	0.101
664.900	40.679	0.101
665.000	9.911	0.101
665.100	41.759	0.101
665.200	33.749	0.101
665.300	28.770	0.101
665.400	27.005	0.101
665.500	29.211	0.101
665.600	72.260	0.101
665.700	33.571	0.101
665.800	34.379	0.101
665.900	33.996	0.101
666.000	35.133	0.101
666.100	28.551	0.101
666.200	41.538	0.101
666.300	37.110	0.101
666.400	27.000	0.101
666.500	23.864	0.101
666.600	33.979	0.101
666.700	26.429	0.101
666.800	17.820	0.101
666.900	36.320	0.101
667.000	31.406	0.101
667.100	45.191	0.101
667.200	17.759	0.101
667.300	22.703	0.101
667.400	26.304	0.101
667.500	55.073	0.101
667.600	29.788	0.101
667.700	41.770	0.101
667.800	26.761	0.101
667.900	31.358	0.101
668.000	40.305	0.101
668.100	37.329	0.101
668.200	35.957	0.101
668.300	42.683	0.101
668.400	31.925	0.101
668.500	29.933	0.101
668.600	21.640	0.101
668.700	32.213	0.101
668.800	17.141	0.101
668.900	37.872	0.101
669.000	28.490	0.101
669.100	23.881	0.101
669.200	35.176	0.101
669.300	45.858	0.101
669.400	34.666	0.101
669.500	28.897	0.101
669.600	39.317	0.101
669.700	22.962	0.101
669.800	24.126	0.101
669.900	35.243	0.101
670.000	36.757	0.101
670.100	33.439	0.101
670.200	12.230	0.101
670.300	30.513	0.101
670.400	29.012	0.101
670.500	10.217	0.101
670.600	49.366	0.101
670.700	37.971	0.101
670.800	22.368	0.101
670.900	24.697	0.101
671.000	23.681	0.101
671.100	22.067	0.101
671.200	41.027	0.101
671.300	14.677	0.101
671.400	31.454	0.101
671.500	27.563	0.101
671.600	25.563	0.100
671.700	14.838	0.100
671.800	30.187	0.100
671.900	30.308	0.100
672.000	38.637	0.100
672.100	21.160	0.100
672.200	8.098	0.100
672.300	53.620	0.100
672.400	13.163	0.100
672.500	21.174	0.100
672.600	34.214	0.100
672.700	18.109	0.100
672.800	35.425	0.100
672.900	37.289	0.100
673.000	17.681	0.100
673.100	24.850	0.100
673.200	40.010	0.100
673.300	29.397	0.100
673.400	12.958	0.100
673.500	33.185	0.100
673.600	29.968	0.100
673.700	20.415	0.100
673.800	34.141	0.100
673.900	25.376	0.100
674.000	14.201	0.100
674.100	45.055	0.100
674.200	9.886	0.100
674.300	36.555	0.100
674.400	25.199	0.100
674.500	22.239	0.100
674.600	32.377	0.100
674.700	27.079	0.100
674.800	23.448	0.100
674.900	37.628	0.100
675.000	44.791	0.100
675.100	18.797	0.100
675.200	29.246	0.100
675.300	33.228	0.100
675.400	24.562	0.100
675.500	31.782	0.100
675.600	27.530	0.100
675.700	22.684	0.100
675.800	31.013	0.100
675.900	25.360	0.100
676.000	27.766	0.100
676.100	13.169	0.100
676.200	21.277	0.100
676.300	39.016	0.100
676.400	26.876	0.100
676.500	24.669	0.100
676.600	27.787	0.100
676.700	12.720	0.100
676.800	23.843	0.100
676.900	41.726	0.100
677.000	6.921	0.100
677.100	28.932	0.100
677.200	17.107	0.100
677.300	14.306	0.100
677.400	42.534	0.100
677.500	20.770	0.100
677.600	28.278	0.100
677.700	18.914	0.100
677.800	22.821	0.100
677.900	26.136	0.100
678.000	21.613	0.100
678.100	31.476	0.100
678.200	25.382	0.100
678.300	17.604	0.100
678.400	39.542	0.100
678.500	22.873	0.100
678.600	21.508	0.100
678.700	19.968	0.100
678.800	33.886	0.100
678.900	27.143	0.100
679.000	17.504	0.100
679.100	11.040	0.100
679.200	41.333	0.100
679.300	29.275	0.100
679.400	7.013	0.100
679.500	33.631	0.100
679.600	8.670	0.100
679.700	13.515	0.100
679.800	28.479	0.100
679.900	13.013	0.100
680.000	37.488	0.100
680.100	17.809	0.100
680.200	26.779	0.100
680.300	31.442	0.100
680.400	8.147	0.100
680.500	16.029	0.100
680.600	37.152	0.100
680.700	28.018	0.100
680.800	34.407	0.100
680.900	16.751	0.100
681.000	19.620	0.100
681.100	29.370	0.100
681.200	15.258	0.100
681.300	17.227	0.100
681.400	16.294	0.100
681.500	21.459	0.100
681.600	36.099	0.100
681.700	22.600	0.100
681.800	23.591	0.100
681.900	16.850	0.100
682.000	17.001	0.100
682.100	16.302	0.100
682.200	7.162	0.100
682.300	23.331	0.100
682.400	35.386	0.100
682.500	27.830	0.100
682.600	9.358	0.100
682.700	24.283	0.100
682.800	16.068	0.100
682.900	21.155	0.100
683.000	32.005	0.100
683.100	19.729	0.100
683.200	6.617	0.100
683.300	21.230	0.100
683.400	8.540	0.100
683.500	25.784	0.100
683.600	21.216	0.100
683.700	27.847	0.100
683.800	12.652	0.100
683.900	15.154	0.100
684.000	36.465	0.100
684.100	21.718	0.100
684.200	22.060	0.100
684.300	23.160	0.100
684.400	27.874	0.100
684.500	25.191	0.100
684.600	22.569	0.100
684.700	28.380	0.100
684.800	4.413	0.100
684.900	23.986	0.100
685.000	27.082	0.100
685.100	25.464	0.100
685.200	27.858	0.100
685.300	16.315	0.100
685.400	8.395	0.100
685.500	30.131	0.100
685.600	21.173	0.100
685.700	14.915	0.100
685.800	26.608	0.100
685.900	14.832	0.100
686.000	27.024	0.100
686.100	19.653	0.100
686.200	16.730	0.100
686.300	23.129	0.100
686.400	21.217	0.100
686.500	18.222	0.100
686.600	21.500	0.100
686.700	23.240	0.100
686.800	-4.937	0.100
686.900	19.223	0.100
687.000	22.958	0.100
687.100	24.997	0.100
687.200	20.254	0.100
687.300	39.502	0.100
687.400	16.914	0.100
687.500	18.778	0.100
687.600	21.036	0.100
687.700	17.243	0.100
687.800	26.291	0.100
687.900	15.852	0.100
688.000	18.884	0.100
688.100	18.545	0.100
688.200	17.069	0.100
688.300	21.189	0.100
688.400	35.167	0.100
688.500	15.560	0.100
688.600	23.937	0.100
688.700	20.398	0.100
688.800	10.959	0.100
688.900	2.968	0.100
689.000	31.913	0.100
689.100	21.785	0.100
689.200	23.752	0.100
689.300	13.652	0.100
689.400	31.805	0.100
689.500	8.004	0.100
689.600	22.035	0.100
689.700	17.283	0.100
689.800	26.427	0.100
689.900	16.719	0.100
690.000	27.871	0.100
690.100	33.780	0.100
690.200	-1.109	0.100
690.300	14.227	0.100
690.400	14.441	0.100
690.500	23.434	0.100
690.600	9.160	0.100
690.700	4.015	0.100
690.800	6.993	0.100
690.900	4.161	0.100
691.000	7.028	0.100
691.100	10.074	0.100
691.200	-14.531	0.100
691.300	5.559	0.100
691.400	-9.464	0.100
691.500	-8.134	0.100
691.600	-18.511	0.100
691.700	4.292	0.100
691.800	-7.367	0.100
691.900	-8.810	0.100
692.000	-13.304	0.100
692.100	-14.477	0.100
692.200	-17.067	0.100
692.300	-18.474	0.100
692.400	-13.823	0.100
692.500	-18.400	0.100
692.600	-22.862	0.100
692.700	-4.800	0.100
692.800	-13.880	0.100
692.900	-15.601	0.100
693.000	-20.622	0.100
693.100	-19.175	0.100
693.200	-13.101	0.100
693.300	-22.583	0.100
693.400	-13.839	0.100
693.500	-23.690	0.100
693.600	-12.912	0.100
693.700	-27.382	0.100
693.800	-31.883	0.100
693.900	-23.068	0.100
694.000	-24.319	0.100
694.100	-24.590	0.100
694.200	-27.324	0.100
694.300	-15.290	0.100
694.400	-15.242	0.100
694.500	-23.817	0.100
694.600	-29.699	0.100
694.700	-17.686	0.100
694.800	-25.843	0.100
694.900	-33.426	0.100
695.000	-21.557	0.100
695.100	-40.556	0.100
695.200	-25.506	0.100
695.300	-33.256	0.100
695.400	-19.747	0.100
695.500	-24.503	0.100
695.600	-16.486	0.100
695.700	-37.229	0.100
695.800	-49.496	0.100
695.900	-33.005	0.100
696.000	-40.089	0.100
696.100	-35.420	0.100
696.200	-14.946	0.100
696.300	-28.781	0.100
696.400	-40.630	0.100
696.500	-36.340	0.100
696.600	-24.488	0.100
696.700	-29.863	0.100
696.800	-35.847	0.100
696.900	-19.806	0.100
697.000	-27.933	0.100
697.100	-21.562	0.100
697.200	-31.978	0.100
697.300	-18.532	0.100
697.400	-27.837	0.100
697.500	-23.703	0.100
697.600	-22.688	0.100
697.700	-46.577	0.100
697.800	-19.824	0.100
697.900	-30.237	0.100
698.000	-29.492	0.100
698.100	-20.009	0.100
698.200	-31.073	0.100
698.300	-11.428	0.100
698.400	-32.174	0.100
698.500	-38.979	0.100
698.600	-28.098	0.100
698.700	-19.959	0.100
698.800	-45.417	0.100
698.900	-20.905	0.100
699.000	-28.171	0.100
699.100	-41.828	0.100
699.200	-19.121	0.100
699.300	-29.425	0.100
699.400	-14.693	0.100
699.500	-29.607	0.100
699.600	-29.071	0.100
699.700	-48.255	0.100
699.800	-21.714	0.100
699.900	-30.024	0.100
700.000	-26.566	0.100
700.100	-27.099	0.100
700.200	-27.485	0.100
700.300	-24.859	0.100
700.400	-37.902	0.100
700.500	-50.822	0.100
700.600	-39.795	0.100
700.700	-13.498	0.100
700.800	-30.019	0.100
700.900	-16.561	0.100
701.000	-21.012	0.100
701.100	-12.666	0.100
701.200	-17.097	0.100
701.300	-28.460	0.100
701.400	-24.736	0.100
701.500	-27.028	0.100
701.600	-14.411	0.100
701.700	-26.040	0.100
701.800	-17.621	0.100
701.900	-27.355	0.100
702.000	-21.318	0.100
702.100	-25.820	0.100
702.200	-34.011	0.100
702.300	-24.866	0.100
702.400	-22.384	0.100
702.500	-22.522	0.100
702.600	-25.434	0.100
702.700	-24.238	0.100
702.800	-25.237	0.100
702.900	-6.294	0.100
703.000	-25.696	0.100
703.100	-37.521	0.100
703.200	-31.191	0.100
703.300	-20.390	0.100
703.400	-11.228	0.100
703.500	-30.171	0.100
703.600	-19.291	0.100
703.700	-7.357	0.100
703.800	-40.350	0.100
703.900	-10.055	0.100
704.000	-20.269	0.100
704.100	-21.785	0.100
704.200	-29.086	0.100
704.300	-18.131	0.100
704.400	-18.104	0.100
704.500	-24.570	0.100
704.600	-33.538	0.100
704.700	-30.262	0.100
704.800	-12.104	0.100
704.900	-25.467	0.100
705.000	-22.403	0.100
705.100	-23.319	0.100
705.200	-16.248	0.100
705.300	-33.022	0.100
705.400	-19.161	0.100
705.500	-18.557	0.100
705.600	-29.505	0.100
705.700	-21.961	0.100
705.800	-15.530	0.100
705.900	-23.212	0.100
706.000	-14.726	0.100
706.100	-14.016	0.100
706.200	-20.462	0.100
706.300	-26.229	0.100
706.400	-33.108	0.100
706.500	-4.731	0.100
706.600	-22.980	0.100
706.700	-22.400	0.100
706.800	-12.255	0.100
706.900	-9.949	0.100
707.000	-27.331	0.100
707.100	1.678	0.100
707.200	-17.681	0.100
707.300	-24.948	0.100
707.400	-23.623	0.100
707.500	-21.686	0.100
707.600	-26.104	0.100
707.700	-23.001	0.100
707.800	-17.325	0.100
707.900	-30.214	0.100
708.000	6.633	0.100
708.100	-11.814	0.100
708.200	-9.703	0.100
708.300	-35.250	0.100
708.400	-26.026	0.100
708.500	-26.491	0.100
708.600	-24.297	0.100
708.700	-30.455	0.100
708.800	-20.288	0.100
708.900	-20.034	0.100
709.000	-28.334	0.100
709.100	-16.303	0.100
709.200	-35.443	0.100
709.300	-0.739	0.100
709.400	-27.267	0.100
709.500	-21.981	0.100
709.600	-14.033	0.100
709.700	-19.428	0.100
709.800	-20.023	0.100
709.900	-30.164	0.100
710.000	-21.383	0.100
710.100	-24.122	0.100
710.200	-25.240	0.100
710.300	-12.293	0.100
710.400	-25.235	0.100
710.500	-28.542	0.100
710.600	-1.460	0.100
710.700	-21.160	0.100
710.800	-24.746	0.100
710.900	-13.236	0.100
711.000	-9.758	0.100
711.100	-13.393	0.100
711.200	-20.963	0.100
711.300	-12.176	0.100
711.400	-21.109	0.100
711.500	-20.018	0.100
711.600	-27.833	0.100
711.700	-31.965	0.100
711.800	-25.383	0.100
711.900	-15.650	0.100
712.000	-37.556	0.100
712.100	-27.354	0.100
712.200	-43.635	0.100
712.300	-9.649	0.100
712.400	-13.204	0.100
712.500	-17.195	0.100
712.600	-22.976	0.100
712.700	-21.374	0.100
712.800	-9.274	0.100
712.900	-17.211	0.100
713.000	-22.454	0.100
713.100	-19.512	0.100
713.200	-17.857	0.100
713.300	-32.032	0.100
713.400	-11.709	0.100
713.500	-15.802	0.100
713.600	-31.947	0.100
713.700	-32.067	0.100
713.800	-35.067	0.100
713.900	-15.370	0.100
714.000	-14.065	0.100
714.100	-14.233	0.100
714.200	-34.107	0.100
714.300	-12.434	0.100
714.400	-3.711	0.100
714.500	-26.034	0.100
714.600	-22.379	0.100
714.700	-14.595	0.100
714.800	-16.703	0.100
714.900	-23.235	0.100
715.000	-15.688	0.100
715.100	-41.199	0.100
715.200	-3.897	0.100
715.300	-14.131	0.100
715.400	-18.462	0.100
715.500	-11.720	0.100
715.600	-23.331	0.100
715.700	-26.431	0.100
715.800	-16.234	0.100
715.900	-36.004	0.100
716.000	-12.825	0.100
716.100	-14.324	0.100
716.200	-27.599	0.100
716.300	-22.824	0.100
716.400	-28.330	0.100
716.500	-17.964	0.100
716.600	-24.036	0.100
716.700	-25.308	0.100
716.800	-29.704	0.100
716.900	-21.168	0.100
717.000	-15.151	0.100
717.100	-21.326	0.100
717.200	-19.366	0.100
717.300	-32.159	0.100
717.400	-14.236	0.100
717.500	-24.002	0.100
717.600	-24.617	0.100
717.700	-17.235	0.100
717.800	-20.305	0.100
717.900	-21.012	0.100
718.000	-23.677	0.100
718.100	-11.370	0.100
718.200	-17.253	0.100
718.300	-39.242	0.100
718.400	-33.871	0.100
718.500	-16.459	0.100
718.600	-20.654	0.100
718.700	-18.691	0.100
718.800	-9.866	0.100
718.900	-18.960	0.100
719.000	-27.649	0.100
719.100	-19.212	0.100
719.200	-25.957	0.100
719.300	-25.506	0.100
719.400	-29.359	0.100
719.500	-29.078	0.100
719.600	-23.844	0.100
719.700	-27.479	0.100
719.800	-31.425	0.100
719.900	-13.524	0.100
720.000	-24.559	0.100
720.100	-20.202	0.100
720.200	-10.332	0.100
720.300	-15.769	0.100
720.400	-12.288	0.100
720.500	-14.028	0.100
720.600	-36.132	0.100
720.700	-14.107	0.100
720.800	-24.432	0.100
720.900	-12.132	0.100
721.000	-11.874	0.100
721.100	-19.053	0.100
721.200	-22.652	0.100
721.300	-24.609	0.100
721.400	-23.171	0.100
721.500	-23.042	0.100
721.600	-12.738	0.100
721.700	-1.843	0.100
721.800	-17.834	0.100
721.900	-7.405	0.100
722.000	-26.397	0.100
722.100	-15.816	0.100
722.200	-39.392	0.100
722.300	-15.022	0.100
722.400	-22.843	0.100
722.500	-21.250	0.100
722.600	-30.783	0.100
722.700	-16.317	0.100
722.800	-15.853	0.100
722.900	-23.545	0.100
723.000	-12.132	0.100
723.100	-16.607	0.100
723.200	-38.347	0.100
723.300	-19.476	0.100
723.400	-11.552	0.100
723.500	-19.372	0.100
723.600	-32.976	0.100
723.700	-21.407	0.100
723.800	-21.570	0.100
723.900	-19.390	0.100
724.000	-21.696	0.100
724.100	-35.726	0.100
724.200	-26.826	0.100
724.300	-23.174	0.100
724.400	-25.748	0.100
724.500	-5.214	0.100
724.600	-24.747	0.100
724.700	-25.411	0.100
724.800	-20.472	0.100
724.900	-18.602	0.100
725.000	-31.419	0.100
725.100	-33.080	0.100
725.200	-25.390	0.100
725.300	-8.583	0.100
725.400	-36.478	0.100
725.500	-24.364	0.100
725.600	-29.494	0.100
725.700	-10.231	0.100
725.800	-16.430	0.100
725.900	-27.456	0.100
726.000	-41.828	0.100
726.100	-22.224	0.100
726.200	-13.984	0.100
726.300	-19.017	0.100
726.400	-21.472	0.100
726.500	-24.104	0.100
726.600	-17.184	0.100
726.700	-23.340	0.100
726.800	-17.509	0.100
726.900	-39.995	0.100
727.000	-26.050	0.100
727.100	-25.911	0.100
727.200	-10.925	0.100
727.300	-17.583	0.100
727.400	-24.415	0.100
727.500	-42.010	0.100
727.600	-18.544	0.100
727.700	-8.342	0.100
727.800	-27.332	0.100
727.900	-6.364	0.100
728.000	-33.053	0.100
728.100	-24.924	0.100
728.200	-25.676	0.100
728.300	-3.548	0.100
728.400	-12.570	0.100
728.500	-24.615	0.100
728.600	-26.488	0.100
728.700	-16.612	0.100
728.800	-25.387	0.100
728.900	-20.408	0.100
729.000	-18.090	0.100
729.100	-18.198	0.100
729.200	-19.617	0.100
729.300	-11.654	0.100
729.400	-20.790	0.100
729.500	-31.111	0.100
729.600	-13.467	0.100
729.700	-12.719	0.100
729.800	-30.126	0.100
729.900	-12.041	0.100
730.000	-10.704	0.100
730.100	-8.825	0.100
730.200	-6.025	0.100
730.300	-23.500	0.100
730.400	-16.149	0.100
730.500	-32.265	0.100
730.600	-23.470	0.100
730.700	-29.598	0.100
730.800	-29.986	0.100
730.900	-21.562	0.100
731.000	-32.227	0.100
731.100	-12.786	0.100
731.200	-33.845	0.100
731.300	-32.685	0.100
731.400	-8.276	0.100
731.500	-8.983	0.100
731.600	-28.304	0.100
731.700	-32.244	0.100
731.800	-26.598	0.100
731.900	-16.662	0.100
732.000	-18.110	0.100
732.100	-4.193	0.100
732.200	-28.548	0.100
732.300	-36.990	0.100
732.400	-20.941	0.100
732.500	-30.829	0.100
732.600	-17.076	0.100
732.700	-17.914	0.100
732.800	-11.932	0.100
732.900	-33.034	0.100
733.000	-26.525	0.100
733.100	-30.075	0.100
733.200	-27.100	0.100
733.300	-4.987	0.100
733.400	-3.518	0.100
733.500	-21.306	0.100
733.600	-28.023	0.100
733.700	-22.103	0.100
733.800	-22.346	0.100
733.900	-24.756	0.100
734.000	-18.207	0.100
734.100	-19.530	0.100
734.200	-25.624	0.100
734.300	-17.777	0.100
734.400	-26.751	0.100
734.500	-10.039	0.100
734.600	-19.201	0.100
734.700	-14.984	0.100
734.800	-23.091	0.100
734.900	-23.740	0.100
735.000	-42.523	0.100
735.100	-11.664	0.100
735.200	-10.164	0.100
735.300	-33.845	0.100
735.400	-3.828	0.100
735.500	-15.670	0.100
735.600	-17.847	0.100
735.700	-54.262	0.100
735.800	-11.740	0.100
735.900	-22.479	0.100
736.000	-20.449	0.100
736.100	-16.592	0.100
736.200	-8.008	0.100
736.300	-9.297	0.100
736.400	-20.095	0.100
736.500	-12.764	0.100
736.600	-27.699	0.100
736.700	-23.775	0.100
736.800	-12.185	0.100
736.900	-12.902	0.100
737.000	-18.100	0.100
737.100	-16.215	0.100
737.200	-15.621	0.100
737.300	-28.630	0.100
737.400	-19.171	0.100
737.500	-22.369	0.100
737.600	-4.946	0.100
737.700	-19.555	0.100
737.800	-15.370	0.100
737.900	-18.594	0.100
738.000	-16.337	0.100
738.100	-24.544	0.100
738.200	-14.786	0.100
738.300	-20.291	0.100
738.400	-4.140	0.100
738.500	-23.738	0.100
738.600	-15.788	0.100
738.700	-19.318	0.100
738.800	-28.457	0.100
738.900	-8.119	0.100
739.000	-20.762	0.100
739.100	-14.535	0.100
739.200	-10.028	0.100
739.300	-14.491	0.100
739.400	-14.604	0.100
739.500	-33.475	0.100
739.600	-16.099	0.100
739.700	-20.002	0.100
739.800	-5.178	0.100
739.900	-24.990	0.100
740.000	-22.110	0.100
740.100	-12.546	0.100
740.200	-18.497	0.100
740.300	-12.932	0.100
740.400	-35.033	0.100
740.500	-7.184	0.100
740.600	-31.260	0.100
740.700	1.731	0.100
740.800	-17.238	0.100
740.900	-39.880	0.100
741.000	-15.374	0.100
741.100	-24.998	0.100
741.200	-10.935	0.100
741.300	-20.951	0.100
741.400	-22.777	0.100
741.500	-30.115	0.100
741.600	-24.565	0.100
741.700	0.494	0.100
741.800	-10.154	0.100
741.900	-12.377	0.100
742.000	-13.031	0.100
742.100	-21.342	0.100
742.200	-13.828	0.100
742.300	-19.503	0.100
742.400	-14.067	0.100
742.500	-31.987	0.100
742.600	-0.337	0.100
742.700	-17.482	0.100
742.800	-20.613	0.100
742.900	-16.606	0.100
743.000	-21.828	0.100
743.100	-17.704	0.100
743.200	-11.692	0.100
743.300	-22.471	0.100
743.400	-5.224	0.100
743.500	-28.689	0.100
743.600	-13.561	0.100
743.700	-7.293	0.100
743.800	-20.322	0.100
743.900	-17.313	0.100
744.000	-13.697	0.100
744.100	-23.581	0.100
744.200	-8.756	0.100
744.300	-16.944	0.100
744.400	-14.739	0.100
744.500	6.771	0.100
744.600	-7.843	0.100
744.700	-36.939	0.100
744.800	-33.085	0.100
744.900	-12.058	0.100
745.000	-5.460	0.100
745.100	-20.191	0.100
745.200	-17.622	0.100
745.300	-20.498	0.100
745.400	-10.746	0.100
745.500	-18.281	0.100
745.600	-18.381	0.100
745.700	-22.645	0.100
745.800	-20.295	0.100
745.900	-5.959	0.100
746.000	-23.622	0.100
746.100	-15.723	0.100
746.200	-16.607	0.100
746.300	-18.194	0.100
746.400	-22.871	0.100
746.500	-23.465	0.100
746.600	-8.771	0.100
746.700	-9.420	0.100
746.800	-11.283	0.100
746.900	-26.244	0.100
747.000	-19.488	0.100
747.100	-6.167	0.100
747.200	-25.506	0.100
747.300	-14.878	0.100
747.400	-22.228	0.100
747.500	-19.129	0.100
747.600	-23.224	0.100
747.700	-8.301	0.100
747.800	-15.273	0.100
747.900	-23.200	0.100
748.000	-13.809	0.100
748.100	-17.969	0.100
748.200	-2.166	0.100
748.300	-16.682	0.100
748.400	-15.269	0.100
748.500	-20.195	0.100
748.600	-27.078	0.100
748.700	-27.449	0.100
748.800	-25.160	0.100
748.900	-16.644	0.100
749.000	-12.503	0.100
749.100	-15.528	0.100
749.200	-4.847	0.100
749.300	-13.968	0.100
749.400	-9.423	0.100
749.500	-23.930	0.100
749.600	-10.543	0.100
749.700	-25.609	0.100
749.800	-7.423	0.100
749.900	-22.495	0.100
750.000	-11.072	0.100
750.100	-12.462	0.100
750.200	-2.433	0.100
750.300	-32.028	0.100
750.400	-24.539	0.100
750.500	-34.744	0.100
750.600	-12.612	0.100
750.700	-2.078	0.100
750.800	-12.986	0.100
750.900	-12.409	0.100
751.000	-28.484	0.100
751.100	-22.593	0.100
751.200	-8.937	0.100
751.300	-28.527	0.100
751.400	-5.054	0.100
751.500	-3.422	0.100
751.600	-27.495	0.100
751.700	-16.656	0.100
751.800	-29.399	0.100
751.900	-23.371	0.100
752.000	-24.357	0.100
752.100	-12.392	0.100
752.200	-9.134	0.100
752.300	-1.700	0.100
752.400	-20.997	0.100
752.500	-20.267	0.100
752.600	-10.047	0.100
752.700	-19.668	0.100
752.800	-13.965	0.100
752.900	-10.638	0.100
753.000	-18.011	0.100
753.100	-25.747	0.100
753.200	-21.497	0.100
753.300	-23.979	0.100
753.400	-0.613	0.100
753.500	-30.225	0.100
753.600	-10.216	0.100
753.700	-13.532	0.100
753.800	-14.195	0.100
753.900	-11.974	0.100
754.000	-20.922	0.100
754.100	-19.810	0.100
754.200	-23.763	0.100
754.300	-36.051	0.100
754.400	-9.765	0.100
754.500	-15.259	0.100
754.600	1.628	0.100
754.700	-3.282	0.100
754.800	-18.835	0.100
754.900	-2.315	0.100
755.000	-26.631	0.100
755.100	-12.025	0.100
755.200	1.255	0.100
755.300	-13.927	0.100
755.400	-13.833	0.100
755.500	-16.054	0.100
755.600	-13.090	0.100
755.700	-1.487	0.100
755.800	-23.189	0.100
755.900	-12.700	0.100
756.000	-25.041	0.100
756.100	-20.423	0.100
756.200	-4.981	0.100
756.300	-13.839	0.100
756.400	-10.338	0.100
756.500	-6.397	0.100
756.600	-26.168	0.100
756.700	-8.043	0.100
756.800	-4.994	0.100
756.900	2.586	0.100
757.000	-15.350	0.100
757.100	-15.294	0.100
757.200	-21.317	0.100
757.300	-23.982	0.100
757.400	-13.209	0.100
757.500	-18.876	0.100
757.600	-19.402	0.100
757.700	-0.638	0.100
757.800	-12.735	0.100
757.900	-7.198	0.100
758.000	-16.050	0.100
758.100	-23.077	0.100
758.200	5.617	0.100
758.300	8.316	0.100
758.400	-13.417	0.100
758.500	-37.124	0.100
758.600	-16.143	0.100
758.700	-18.085	0.100
758.800	-17.901	0.100
758.900	-7.527	0.100
759.000	-17.009	0.100
759.100	-5.643	0.100
759.200	-26.411	0.100
759.300	-13.958	0.100
759.400	-14.342	0.100
759.500	-3.070	0.100
759.600	-6.822	0.100
759.700	-19.406	0.100
759.800	-5.686	0.100
759.900	-19.144	0.100
760.000	-31.256	0.100
760.100	-2.640	0.100
760.200	-12.894	0.100
760.300	-11.825	0.100
760.400	-6.679	0.100
760.500	-20.284	0.100
760.600	-8.320	0.100
760.700	-16.559	0.100
760.800	-17.493	0.100
760.900	-19.826	0.100
761.000	-22.078	0.100
761.100	-32.173	0.100
761.200	-20.023	0.100
761.300	-10.152	0.100
761.400	-17.007	0.100
761.500	-19.465	0.100
761.600	-24.969	0.100
761.700	-14.611	0.100
761.800	-1.672	0.100
761.900	-21.421	0.100
762.000	-11.311	0.100
762.100	-11.082	0.100
762.200	-23.726	0.100
762.300	4.016	0.100
762.400	-24.572	0.100
762.500	-8.184	0.100
762.600	-6.408	0.100
762.700	-7.837	0.100
762.800	-12.616	0.100
762.900	-16.369	0.100
763.000	-20.446	0.100
763.100	-16.389	0.100
763.200	-18.643	0.100
763.300	-8.045	0.100
763.400	-19.445	0.100
763.500	-13.079	0.100
763.600	-19.169	0.100
763.700	-23.603	0.100
763.800	-17.039	0.100
763.900	-24.769	0.100
764.000	-7.169	0.100
764.100	-24.167	0.100
764.200	-28.816	0.100
764.300	-17.146	0.100
764.400	-8.536	0.100
764.500	-22.482	0.100
764.600	-15.272	0.100
764.700	-8.862	0.100
764.800	5.395	0.100
764.900	-24.947	0.100
765.000	-25.332	0.100
765.100	-5.201	0.100
765.200	-1.293	0.100
765.300	-30.451	0.100
765.400	-19.143	0.100
765.500	-26.836	0.100
765.600	1.986	0.100
765.700	-13.556	0.100
765.800	-10.040	0.100
765.900	-9.701	0.100
766.000	-2.202	0.100
766.100	-27.677	0.100
766.200	-5.010	0.100
766.300	-18.172	0.100
766.400	-23.503	0.100
766.500	-18.246	0.100
766.600	-1.361	0.100
766.700	-1.639	0.100
766.800	-14.561	0.100
766.900	-19.894	0.100
767.000	-6.060	0.100
767.100	-10.498	0.100
767.200	-17.318	0.100
767.300	-4.137	0.100
767.400	-14.628	0.100
767.500	-16.511	0.100
767.600	-12.103	0.100
767.700	-13.859	0.100
767.800	-9.674	0.100
767.900	-6.474	0.100
768.000	2.689	0.100
768.100	-10.058	0.100
768.200	-9.666	0.100
768.300	-40.061	0.100
768.400	-11.223	0.100
768.500	-16.269	0.100
768.600	-27.614	0.100
768.700	-8.173	0.100
768.800	-13.879	0.100
768.900	-20.724	0.100
769.000	-16.860	0.100
769.100	-19.647	0.100
769.200	-26.686	0.100
769.300	-14.917	0.100
769.400	-24.358	0.100
769.500	-0.449	0.100
769.600	-9.585	0.100
769.700	-9.809	0.100
769.800	-29.838	0.100
769.900	-22.419	0.100
770.000	-13.791	0.100
770.100	-11.472	0.100
770.200	-6.780	0.100
770.300	-10.394	0.100
770.400	-6.804	0.100
770.500	-0.472	0.100
770.600	-23.983	0.100
770.700	-25.854	0.100
770.800	-13.091	0.100
770.900	-17.619	0.100
771.000	-15.442	0.100
771.100	-12.813	0.100
771.200	-19.008	0.100
771.300	-11.855	0.100
771.400	-18.821	0.100
771.500	-5.068	0.100
771.600	-19.367	0.100
771.700	-8.255	0.100
771.800	-20.045	0.100
771.900	-27.658	0.100
772.000	-10.398	0.100
772.100	-10.304	0.100
772.200	-12.062	0.100
772.300	-8.035	0.100
772.400	-34.370	0.100
772.500	-1.130	0.100
772.600	-9.054	0.100
772.700	-14.619	0.100
772.800	-23.931	0.100
772.900	-7.180	0.100
773.000	-8.004	0.100
773.100	-33.549	0.100
773.200	-22.235	0.100
773.300	-16.930	0.100
773.400	-35.541	0.100
773.500	-10.501	0.100
773.600	-11.073	0.100
773.700	-32.869	0.100
773.800	-9.531	0.100
773.900	-1.560	0.100
774.000	-8.590	0.100
774.100	-6.749	0.100
774.200	-4.346	0.100
774.300	-18.489	0.100
774.400	-2.992	0.100
774.500	-5.765	0.100
774.600	-17.339	0.100
774.700	-12.680	0.100
774.800	-25.901	0.100
774.900	-10.879	0.100
775.000	-12.378	0.100
775.100	-14.833	0.100
775.200	2.641	0.100
775.300	-10.297	0.100
775.400	-11.701	0.100
775.500	-18.880	0.100
775.600	-12.989	0.100
775.700	-10.115	0.100
775.800	-24.179	0.100
775.900	-19.763	0.100
776.000	-12.047	0.100
776.100	8.304	0.100
776.200	-10.345	0.100
776.300	-3.354	0.100
776.400	-2.480	0.100
776.500	-12.907	0.100
776.600	-26.447	0.100
776.700	-3.988	0.100
776.800	-17.259	0.100
776.900	-9.072	0.100
777.000	-15.070	0.100
777.100	-11.271	0.100
777.200	0.339	0.100
777.300	-6.003	0.100
777.400	-28.594	0.100
777.500	-5.791	0.100
777.600	-20.825	0.100
777.700	-23.676	0.100
777.800	-9.937	0.100
777.900	-27.330	0.100
778.000	-12.437	0.100
778.100	-8.441	0.100
778.200	-20.966	0.100
778.300	-27.794	0.100
778.400	-5.895	0.100
778.500	-10.820	0.100
778.600	-15.150	0.100
778.700	-6.097	0.100
778.800	1.251	0.100
778.900	-20.115	0.100
779.000	-26.079	0.100
779.100	-4.034	0.100
779.200	-0.998	0.100
779.300	8.582	0.100
779.400	-27.903	0.100
779.500	-6.446	0.100
779.600	-4.226	0.100
779.700	-27.289	0.100
779.800	6.461	0.100
779.900	-24.162	0.100
780.000	-12.243	0.100
780.100	-0.443	0.100
780.200	-19.648	0.100
780.300	-4.672	0.100
780.400	-19.124	0.100
780.500	-17.123	0.100
780.600	2.146	0.100
780.700	-6.828	0.100
780.800	18.116	0.100
780.900	13.008	0.100
781.000	2.877	0.100
781.100	-19.663	0.100
781.200	4.596	0.100
781.300	-14.271	0.100
781.400	0.156	0.100
781.500	2.935	0.100
781.600	-12.721	0.100
781.700	20.984	0.100
781.800	0.934	0.100
781.900	21.202	0.100
782.000	-5.541	0.100
782.100	3.715	0.100
782.200	-5.410	0.100
782.300	15.149	0.100
782.400	4.033	0.100
782.500	21.976	0.100
782.600	10.814	0.100
782.700	-0.298	0.100
782.800	20.652	0.100
782.900	12.446	0.100
783.000	3.525	0.100
783.100	22.128	0.100
783.200	15.259	0.100
783.300	19.247	0.100
783.400	22.644	0.100
783.500	18.025	0.100
783.600	3.536	0.100
783.700	20.788	0.100
783.800	16.803	0.100
783.900	9.589	0.100
784.000	21.442	0.100
784.100	12.493	0.100
784.200	20.481	0.100
784.300	17.628	0.100
784.400	17.762	0.100
784.500	22.951	0.100
784.600	17.431	0.100
784.700	7.868	0.100
784.800	-4.564	0.100
784.900	16.186	0.100
785.000	20.660	0.100
785.100	16.636	0.100
785.200	25.269	0.100
785.300	-0.644	0.100
785.400	10.575	0.100
785.500	22.547	0.100
785.600	10.064	0.100
785.700	22.281	0.100
785.800	16.372	0.100
785.900	24.678	0.100
786.000	7.972	0.100
786.100	35.747	0.100
786.200	23.446	0.100
786.300	14.545	0.100
786.400	-8.343	0.100
786.500	12.083	0.100
786.600	-5.563	0.100
786.700	25.077	0.100
786.800	16.175	0.100
786.900	7.866	0.100
787.000	20.355	0.100
787.100	2.412	0.100
787.200	16.160	0.100
787.300	10.895	0.100
787.400	16.807	0.100
787.500	13.870	0.100
787.600	23.875	0.100
787.700	11.836	0.100
787.800	25.146	0.100
787.900	19.765	0.100
788.000	2.936	0.100
788.100	20.067	0.100
788.200	28.279	0.100
788.300	16.611	0.100
788.400	23.651	0.100
788.500	30.871	0.100
788.600	19.858	0.100
788.700	18.927	0.100
788.800	12.459	0.100
788.900	19.376	0.100
789.000	11.152	0.100
789.100	19.140	0.100
789.200	11.756	0.100
789.300	17.661	0.100
789.400	22.638	0.100
789.500	5.104	0.100
789.600	23.167	0.100
789.700	27.397	0.100
789.800	22.465	0.100
789.900	3.096	0.100
790.000	0.558	0.100
790.100	25.926	0.100
790.200	35.550	0.100
790.300	14.420	0.100
790.400	12.519	0.100
790.500	29.265	0.100
790.600	11.711	0.100
790.700	4.947	0.100
790.800	13.248	0.100
790.900	37.780	0.100
791.000	1.725	0.100
791.100	12.003	0.100
791.200	25.809	0.100
791.300	25.544	0.100
791.400	15.756	0.100
791.500	30.840	0.100
791.600	29.544	0.100
791.700	29.611	0.100
791.800	10.550	0.100
791.900	20.518	0.100
792.000	17.447	0.100
792.100	17.973	0.100
792.200	22.967	0.100
792.300	30.822	0.100
792.400	19.148	0.100
792.500	39.967	0.100
792.600	17.640	0.100
792.700	25.813	0.100
792.800	31.146	0.100
792.900	4.509	0.100
793.000	37.017	0.100
793.100	19.129	0.100
793.200	17.381	0.100
793.300	20.430	0.100
793.400	23.583	0.100
793.500	22.320	0.100
793.600	24.479	0.100
793.700	18.318	0.100
793.800	19.634	0.100
793.900	22.827	0.100
794.000	1.398	0.100
794.100	24.503	0.100
794.200	21.989	0.100
794.300	12.136	0.100
794.400	30.584	0.100
794.500	38.580	0.100
794.600	25.682	0.100
794.700	20.035	0.100
794.800	31.121	0.100
794.900	34.792	0.100
795.000	42.676	0.100
795.100	21.430	0.100
795.200	28.733	0.100
795.300	24.626	0.100
795.400	42.295	0.100
795.500	29.929	0.100
795.600	31.806	0.100
795.700	15.169	0.100
795.800	25.789	0.100
795.900	44.167	0.100
796.000	23.252	0.100
796.100	19.149	0.100
796.200	17.869	0.100
796.300	31.885	0.100
796.400	12.305	0.100
796.500	46.138	0.100
796.600	23.367	0.100
796.700	37.828	0.100
796.800	29.655	0.100
796.900	41.501	0.100
797.000	36.353	0.100
797.100	28.763	0.100
797.200	22.617	0.100
797.300	54.884	0.100
797.400	26.000	0.100
797.500	39.886	0.100
797.600	45.130	0.100
797.700	46.664	0.100
797.800	13.472	0.100
797.900	41.941	0.100
798.000	41.577	0.100
798.100	39.551	0.100
798.200	33.202	0.100
798.300	39.204	0.100
798.400	45.111	0.100
798.500	50.450	0.100
798.600	44.089	0.100
798.700	35.128	0.100
798.800	49.158	0.100
798.900	38.129	0.100
799.000	41.917	0.100
799.100	29.978	0.100
799.200	50.717	0.100
799.300	34.236	0.100
799.400	36.731	0.100
799.500	49.721	0.100
799.600	38.816	0.100
799.700	45.869	0.100
799.800	47.357	0.100
799.900	43.841	0.100
800.000	48.412	0.100
