time /s	I /nA	E /V
0.100	20.081	0.100
0.200	9.971	0.100
0.300	8.326	0.100
0.400	3.016	0.100
0.500	10.199	0.100
0.600	-4.190	0.100
0.700	20.160	0.100
0.800	23.957	0.100
0.900	17.173	0.100
1.000	14.165	0.100
1.100	18.275	0.100
1.200	11.737	0.100
1.300	13.310	0.100
1.400	3.398	0.100
1.500	1.511	0.100
1.600	12.692	0.100
1.700	15.606	0.100
1.800	24.865	0.100
1.900	19.700	0.100
2.000	20.462	0.100
2.100	15.039	0.100
2.200	7.330	0.100
2.300	13.362	0.100
2.400	9.608	0.100
2.500	7.258	0.100
2.600	10.780	0.100
2.700	11.243	0.100
2.800	10.130	0.100
2.900	16.633	0.100
3.000	11.968	0.100
3.100	5.056	0.100
3.200	21.002	0.100
3.300	16.681	0.100
3.400	2.279	0.100
3.500	13.216	0.100
3.600	11.676	0.100
3.700	8.134	0.100
3.800	14.702	0.100
3.900	3.559	0.100
4.000	12.821	0.100
4.100	8.305	0.100
4.200	11.689	0.100
4.300	12.465	0.100
4.400	6.885	0.100
4.500	17.159	0.100
4.600	20.133	0.100
4.700	16.788	0.100
4.800	11.967	0.100
4.900	11.625	0.100
5.000	6.934	0.100
5.100	13.549	0.100
5.200	8.102	0.100
5.300	7.671	0.100
5.400	19.540	0.100
5.500	8.741	0.100
5.600	9.362	0.100
5.700	15.519	0.100
5.800	16.118	0.100
5.900	9.517	0.100
6.000	13.198	0.100
6.100	15.350	0.100
6.200	10.101	0.100
6.300	18.937	0.100
6.400	9.589	0.100
6.500	10.193	0.100
6.600	17.033	0.100
6.700	6.957	0.100
6.800	-5.136	0.100
6.900	8.833	0.100
7.000	14.370	0.100
7.100	18.750	0.100
7.200	6.327	0.100
7.300	16.075	0.100
7.400	15.606	0.100
7.500	7.799	0.100
7.600	15.575	0.100
7.700	11.749	0.100
7.800	-1.371	0.100
7.900	12.666	0.100
8.000	21.479	0.100
8.100	13.095	0.100
8.200	8.187	0.100
8.300	18.799	0.100
8.400	11.907	0.100
8.500	14.915	0.100
8.600	8.447	0.100
8.700	9.338	0.100
8.800	5.564	0.100
8.900	2.699	0.100
9.000	10.995	0.100
9.100	23.519	0.100
9.200	13.885	0.100
9.300	23.853	0.100
9.400	8.613	0.100
9.500	11.533	0.100
9.600	11.766	0.100
9.700	10.630	0.100
9.800	7.066	0.100
9.900	16.129	0.100
10.000	10.978	0.100
10.100	15.092	0.100
10.200	20.239	0.100
10.300	20.950	0.100
10.400	13.624	0.100
10.500	6.030	0.100
10.600	10.408	0.100
10.700	13.264	0.100
10.800	2.095	0.100
10.900	9.836	0.100
11.000	9.514	0.100
11.100	7.184	0.100
11.200	14.947	0.100
11.300	12.867	0.100
11.400	22.238	0.100
11.500	6.402	0.100
11.600	24.664	0.100
11.700	6.900	0.100
11.800	17.423	0.100
11.900	13.584	0.100
12.000	3.592	0.100
12.100	2.719	0.100
12.200	18.330	0.100
12.300	-3.698	0.100
12.400	12.509	0.100
12.500	9.477	0.100
12.600	8.636	0.100
12.700	14.479	0.100
12.800	13.469	0.100
12.900	7.644	0.100
13.000	16.055	0.100
13.100	6.838	0.100
13.200	16.418	0.100
13.300	13.044	0.100
13.400	17.515	0.100
13.500	14.876	0.100
13.600	11.519	0.100
13.700	11.073	0.100
13.800	7.950	0.100
13.900	5.432	0.100
14.000	17.263	0.100
14.100	18.827	0.100
14.200	4.110	0.100
14.300	10.832	0.100
14.400	5.587	0.100
14.500	9.508	0.100
14.600	7.537	0.100
14.700	10.055	0.100
14.800	3.131	0.100
14.900	12.240	0.100
15.000	13.408	0.100
15.100	13.668	0.100
15.200	15.261	0.100
15.300	14.153	0.100
15.400	12.781	0.100
15.500	14.648	0.100
15.600	20.068	0.100
15.700	11.855	0.100
15.800	9.120	0.100
15.900	9.135	0.100
16.000	10.442	0.100
16.100	9.056	0.100
16.200	17.835	0.100
16.300	14.013	0.100
16.400	15.105	0.100
16.500	12.824	0.100
16.600	15.233	0.100
16.700	1.699	0.100
16.800	13.443	0.100
16.900	3.687	0.100
17.000	6.191	0.100
17.100	4.793	0.100
17.200	12.914	0.100
17.300	18.440	0.100
17.400	21.992	0.100
17.500	1.285	0.100
17.600	1.011	0.100
17.700	10.714	0.100
17.800	13.854	0.100
17.900	12.962	0.100
18.000	11.291	0.100
18.100	15.174	0.100
18.200	-2.897	0.100
18.300	16.343	0.100
18.400	3.077	0.100
18.500	6.034	0.100
18.600	7.984	0.100
18.700	16.868	0.100
18.800	9.571	0.100
18.900	13.250	0.100
19.000	18.077	0.100
19.100	19.005	0.100
19.200	13.783	0.100
19.300	11.386	0.100
19.400	14.472	0.100
19.500	6.293	0.100
19.600	6.068	0.100
19.700	8.991	0.100
19.800	16.582	0.100
19.900	10.793	0.100
20.000	3.422	0.100
20.100	11.389	0.100
20.200	8.003	0.100
20.300	4.328	0.100
20.400	17.493	0.100
20.500	2.775	0.100
20.600	10.075	0.100
20.700	-2.523	0.100
20.800	10.167	0.100
20.900	16.138	0.100
21.000	11.424	0.100
21.100	-2.418	0.100
21.200	14.144	0.100
21.300	6.462	0.100
21.400	11.919	0.100
21.500	10.227	0.100
21.600	11.024	0.100
21.700	4.763	0.100
21.800	19.474	0.100
21.900	17.441	0.100
22.000	13.766	0.100
22.100	13.422	0.100
22.200	7.862	0.100
22.300	5.420	0.100
22.400	8.173	0.100
22.500	-0.309	0.100
22.600	8.861	0.100
22.700	21.695	0.100
22.800	15.002	0.100
22.900	17.752	0.100
23.000	8.481	0.100
23.100	13.766	0.100
23.200	12.246	0.100
23.300	5.958	0.100
23.400	18.184	0.100
23.500	-0.410	0.100
23.600	15.580	0.100
23.700	12.819	0.100
23.800	1.072	0.100
23.900	9.005	0.100
24.000	-2.096	0.100
24.100	4.443	0.100
24.200	3.871	0.100
24.300	10.209	0.100
24.400	18.387	0.100
24.500	17.721	0.100
24.600	7.638	0.100
24.700	12.303	0.100
24.800	5.916	0.100
24.900	9.335	0.100
25.000	0.700	0.100
25.100	3.047	0.100
25.200	14.682	0.100
25.300	20.824	0.100
25.400	21.016	0.100
25.500	14.119	0.100
25.600	-0.039	0.100
25.700	15.276	0.100
25.800	6.755	0.100
25.900	11.360	0.100
26.000	21.401	0.100
26.100	11.114	0.100
26.200	18.131	0.100
26.300	14.755	0.100
26.400	11.878	0.100
26.500	8.579	0.100
26.600	7.868	0.100
26.700	6.778	0.100
26.800	13.124	0.100
26.900	15.111	0.100
27.000	13.316	0.100
27.100	6.949	0.100
27.200	10.201	0.100
27.300	10.454	0.100
27.400	2.184	0.100
27.500	-0.217	0.100
27.600	12.787	0.100
27.700	5.913	0.100
27.800	5.378	0.100
27.900	13.635	0.100
28.000	13.773	0.100
28.100	10.862	0.100
28.200	2.944	0.100
28.300	-7.624	0.100
28.400	6.560	0.100
28.500	-6.329	0.100
28.600	12.801	0.100
28.700	1.842	0.100
28.800	7.098	0.100
28.900	16.314	0.100
29.000	19.438	0.100
29.100	10.809	0.100
29.200	19.559	0.100
29.300	19.034	0.100
29.400	14.145	0.100
29.500	12.810	0.100
29.600	10.573	0.100
29.700	10.365	0.100
29.800	5.587	0.100
29.900	7.509	0.100
30.000	11.292	0.100
30.100	13.083	0.100
30.200	17.754	0.100
30.300	16.457	0.100
30.400	5.277	0.100
30.500	11.738	0.100
30.600	18.514	0.100
30.700	6.758	0.100
30.800	5.740	0.100
30.900	4.080	0.100
31.000	14.594	0.100
31.100	10.124	0.100
31.200	18.920	0.100
31.300	19.754	0.100
31.400	10.003	0.100
31.500	13.017	0.100
31.600	18.494	0.100
31.700	10.622	0.100
31.800	18.868	0.100
31.900	18.227	0.100
32.000	18.378	0.100
32.100	25.228	0.100
32.200	24.891	0.100
32.300	22.702	0.099
32.400	27.103	0.099
32.500	18.854	0.100
32.600	16.883	0.099
32.700	27.092	0.100
32.800	14.205	0.100
32.900	27.997	0.100
33.000	33.028	0.100
33.100	41.220	0.100
33.200	28.644	0.100
33.300	26.934	0.100
33.400	29.306	0.100
33.500	19.464	0.100
33.600	36.992	0.100
33.700	42.121	0.100
33.800	31.860	0.100
33.900	36.819	0.100
34.000	38.530	0.099
34.100	39.719	0.100
34.200	29.918	0.100
34.300	38.432	0.099
34.400	41.300	0.100
34.500	36.241	0.099
34.600	44.666	0.100
34.700	26.898	0.100
34.800	41.692	0.099
34.900	44.948	0.099
35.000	41.778	0.099
35.100	33.393	0.099
35.200	46.331	0.100
35.300	44.042	0.100
35.400	26.505	0.100
35.500	38.364	0.099
35.600	54.285	0.099
35.700	44.105	0.099
35.800	48.555	0.099
35.900	38.522	0.099
36.000	30.308	0.099
36.100	40.529	0.100
36.200	42.272	0.099
36.300	43.093	0.099
36.400	47.122	0.099
36.500	46.991	0.099
36.600	47.444	0.099
36.700	54.382	0.099
36.800	42.370	0.099
36.900	45.239	0.099
37.000	55.420	0.099
37.100	52.150	0.099
37.200	48.794	0.099
37.300	45.048	0.100
37.400	27.218	0.099
37.500	32.749	0.100
37.600	52.473	0.099
37.700	55.964	0.099
37.800	53.980	0.100
37.900	49.050	0.100
38.000	42.397	0.100
38.100	44.560	0.100
38.200	43.391	0.099
38.300	53.917	0.100
38.400	49.482	0.100
38.500	42.198	0.100
38.600	45.883	0.100
38.700	54.832	0.099
38.800	52.088	0.099
38.900	45.443	0.099
39.000	44.416	0.099
39.100	63.320	0.099
39.200	59.488	0.099
39.300	59.680	0.099
39.400	51.852	0.099
39.500	51.946	0.099
39.600	46.484	0.099
39.700	51.875	0.099
39.800	40.558	0.099
39.900	47.710	0.100
40.000	49.061	0.099
40.100	37.742	0.099
40.200	47.720	0.099
40.300	46.591	0.099
40.400	50.897	0.099
40.500	63.724	0.099
40.600	52.907	0.099
40.700	45.296	0.099
40.800	58.953	0.099
40.900	50.323	0.099
41.000	62.963	0.099
41.100	50.201	0.099
41.200	46.361	0.099
41.300	41.110	0.099
41.400	52.161	0.099
41.500	63.579	0.099
41.600	39.705	0.099
41.700	49.743	0.099
41.800	53.598	0.099
41.900	65.355	0.099
42.000	53.163	0.099
42.100	56.540	0.099
42.200	52.650	0.099
42.300	52.029	0.099
42.400	59.506	0.099
42.500	46.932	0.099
42.600	39.563	0.099
42.700	57.849	0.099
42.800	53.310	0.099
42.900	49.817	0.099
43.000	46.426	0.099
43.100	54.242	0.099
43.200	48.808	0.099
43.300	57.696	0.099
43.400	54.304	0.099
43.500	63.970	0.099
43.600	53.493	0.099
43.700	55.542	0.099
43.800	40.503	0.099
43.900	40.516	0.099
44.000	40.516	0.099
44.100	60.017	0.099
44.200	49.827	0.099
44.300	50.753	0.099
44.400	48.187	0.099
44.500	50.808	0.099
44.600	51.794	0.099
44.700	45.396	0.099
44.800	50.152	0.099
44.900	37.251	0.099
45.000	59.011	0.099
45.100	46.760	0.099
45.200	61.170	0.099
45.300	63.967	0.099
45.400	58.191	0.099
45.500	64.953	0.099
45.600	47.767	0.099
45.700	43.199	0.099
45.800	50.438	0.099
45.900	51.765	0.099
46.000	48.380	0.099
46.100	42.146	0.099
46.200	53.287	0.099
46.300	59.152	0.099
46.400	41.986	0.099
46.500	49.700	0.099
46.600	42.615	0.099
46.700	52.611	0.099
46.800	55.397	0.099
46.900	61.079	0.099
47.000	55.594	0.099
47.100	44.885	0.099
47.200	58.584	0.099
47.300	63.216	0.099
47.400	43.314	0.099
47.500	29.997	0.099
47.600	57.357	0.099
47.700	52.740	0.099
47.800	72.975	0.099
47.900	59.850	0.099
48.000	55.423	0.099
48.100	46.449	0.099
48.200	37.243	0.099
48.300	50.526	0.099
48.400	54.420	0.099
48.500	50.707	0.099
48.600	50.356	0.099
48.700	52.838	0.099
48.800	56.592	0.099
48.900	48.486	0.099
49.000	52.637	0.099
49.100	58.492	0.099
49.200	44.413	0.099
49.300	56.943	0.099
49.400	55.239	0.099
49.500	54.724	0.099
49.600	47.724	0.099
49.700	49.553	0.099
49.800	51.969	0.099
49.900	46.423	0.099
50.000	51.058	0.099
50.100	42.665	0.099
50.200	53.808	0.099
50.300	54.914	0.099
50.400	53.966	0.099
50.500	48.771	0.099
50.600	52.032	0.099
50.700	53.971	0.099
50.800	50.874	0.099
50.900	46.587	0.099
51.000	56.459	0.099
51.100	66.254	0.099
51.200	60.143	0.099
51.300	53.646	0.099
51.400	48.658	0.099
51.500	55.010	0.099
51.600	50.520	0.099
51.700	49.302	0.099
51.800	46.829	0.099
51.900	52.317	0.099
52.000	42.869	0.099
52.100	58.861	0.099
52.200	50.804	0.099
52.300	59.108	0.099
52.400	43.492	0.099
52.500	50.398	0.099
52.600	49.440	0.099
52.700	50.775	0.099
52.800	49.291	0.099
52.900	59.692	0.099
53.000	48.014	0.099
53.100	48.938	0.099
53.200	53.940	0.099
53.300	57.279	0.099
53.400	47.488	0.099
53.500	47.128	0.099
53.600	48.054	0.099
53.700	49.351	0.099
53.800	53.376	0.099
53.900	56.669	0.099
54.000	43.700	0.099
54.100	53.778	0.099
54.200	49.366	0.099
54.300	49.226	0.099
54.400	49.987	0.099
54.500	49.216	0.099
54.600	56.464	0.099
54.700	53.024	0.099
54.800	52.118	0.099
54.900	47.652	0.099
55.000	52.650	0.099
55.100	46.814	0.099
55.200	58.916	0.099
55.300	60.946	0.099
55.400	42.866	0.099
55.500	54.566	0.099
55.600	58.536	0.099
55.700	49.936	0.099
55.800	55.959	0.099
55.900	45.753	0.099
56.000	58.180	0.099
56.100	59.093	0.099
56.200	45.310	0.099
56.300	53.698	0.099
56.400	52.637	0.099
56.500	55.653	0.099
56.600	51.612	0.099
56.700	55.622	0.099
56.800	62.988	0.099
56.900	49.620	0.099
57.000	46.128	0.099
57.100	57.236	0.099
57.200	48.092	0.099
57.300	57.754	0.099
57.400	44.571	0.099
57.500	46.846	0.099
57.600	58.976	0.099
57.700	51.889	0.099
57.800	53.789	0.099
57.900	58.128	0.099
58.000	52.159	0.099
58.100	57.022	0.099
58.200	44.372	0.099
58.300	55.513	0.099
58.400	49.858	0.099
58.500	46.464	0.099
58.600	54.402	0.099
58.700	53.669	0.099
58.800	42.440	0.099
58.900	45.630	0.099
59.000	61.035	0.099
59.100	52.755	0.099
59.200	60.417	0.099
59.300	51.354	0.099
59.400	52.498	0.099
59.500	52.881	0.099
59.600	65.535	0.099
59.700	58.628	0.099
59.800	43.089	0.099
59.900	53.313	0.099
60.000	55.058	0.099
60.100	53.372	0.099
60.200	52.378	0.099
60.300	51.058	0.099
60.400	48.356	0.099
60.500	50.565	0.099
60.600	43.204	0.099
60.700	54.511	0.099
60.800	57.757	0.099
60.900	58.887	0.099
61.000	63.754	0.099
61.100	48.025	0.099
61.200	52.970	0.099
61.300	48.701	0.099
61.400	60.422	0.099
61.500	56.102	0.099
61.600	51.837	0.099
61.700	62.480	0.099
61.800	49.933	0.099
61.900	38.024	0.099
62.000	60.440	0.099
62.100	70.133	0.099
62.200	59.284	0.099
62.300	62.134	0.099
62.400	50.741	0.099
62.500	56.326	0.099
62.600	62.603	0.099
62.700	55.279	0.099
62.800	59.112	0.099
62.900	50.847	0.099
63.000	49.067	0.099
63.100	52.731	0.099
63.200	61.229	0.099
63.300	46.415	0.099
63.400	45.088	0.099
63.500	65.060	0.099
63.600	60.659	0.099
63.700	42.117	0.099
63.800	54.239	0.099
63.900	68.535	0.099
64.000	71.899	0.099
64.100	58.266	0.099
64.200	61.139	0.099
64.300	51.823	0.099
64.400	54.276	0.099
64.500	52.671	0.099
64.600	46.360	0.099
64.700	42.301	0.099
64.800	59.416	0.099
64.900	67.130	0.099
65.000	52.665	0.099
65.100	54.724	0.099
65.200	58.122	0.099
65.300	49.912	0.099
65.400	50.884	0.099
65.500	51.195	0.099
65.600	54.696	0.099
65.700	57.261	0.099
65.800	67.162	0.099
65.900	51.622	0.099
66.000	43.325	0.099
66.100	57.587	0.099
66.200	60.222	0.099
66.300	55.461	0.099
66.400	49.697	0.099
66.500	50.453	0.099
66.600	54.316	0.099
66.700	56.347	0.099
66.800	51.929	0.099
66.900	55.792	0.099
67.000	56.968	0.099
67.100	53.670	0.099
67.200	59.629	0.099
67.300	54.411	0.099
67.400	53.552	0.099
67.500	56.353	0.099
67.600	49.441	0.099
67.700	51.849	0.099
67.800	62.298	0.099
67.900	63.307	0.099
68.000	47.758	0.099
68.100	48.511	0.099
68.200	54.981	0.099
68.300	57.561	0.099
68.400	61.292	0.099
68.500	70.918	0.099
68.600	54.514	0.099
68.700	55.190	0.099
68.800	57.282	0.099
68.900	56.989	0.099
69.000	63.509	0.099
69.100	59.951	0.099
69.200	63.101	0.099
69.300	49.738	0.099
69.400	56.815	0.099
69.500	46.372	0.099
69.600	62.348	0.099
69.700	56.473	0.099
69.800	60.196	0.099
69.900	54.089	0.099
70.000	64.565	0.099
70.100	57.389	0.099
70.200	59.166	0.099
70.300	58.899	0.099
70.400	60.225	0.099
70.500	58.032	0.099
70.600	55.482	0.099
70.700	60.981	0.099
70.800	49.271	0.099
70.900	63.069	0.099
71.000	47.332	0.099
71.100	74.223	0.099
71.200	61.358	0.099
71.300	55.341	0.099
71.400	59.459	0.099
71.500	69.311	0.099
71.600	57.960	0.099
71.700	48.857	0.099
71.800	60.653	0.099
71.900	64.810	0.099
72.000	62.056	0.099
72.100	57.189	0.099
72.200	61.876	0.099
72.300	61.660	0.099
72.400	55.403	0.099
72.500	60.176	0.099
72.600	54.239	0.099
72.700	63.495	0.099
72.800	60.121	0.099
72.900	56.224	0.099
73.000	60.425	0.099
73.100	68.281	0.099
73.200	57.961	0.099
73.300	54.875	0.099
73.400	57.693	0.099
73.500	58.147	0.099
73.600	52.165	0.099
73.700	63.987	0.099
73.800	60.862	0.099
73.900	54.101	0.099
74.000	61.626	0.099
74.100	62.212	0.099
74.200	67.258	0.099
74.300	56.263	0.099
74.400	61.280	0.099
74.500	56.404	0.099
74.600	55.699	0.099
74.700	62.470	0.099
74.800	59.010	0.100
74.900	55.997	0.099
75.000	65.100	0.100
75.100	56.735	0.100
75.200	67.320	0.100
75.300	57.823	0.100
75.400	64.202	0.100
75.500	63.109	0.100
75.600	56.043	0.100
75.700	60.797	0.100
75.800	56.011	0.100
75.900	57.087	0.100
76.000	59.249	0.100
76.100	51.638	0.100
76.200	55.604	0.100
76.300	65.172	0.100
76.400	60.043	0.100
76.500	56.951	0.100
76.600	61.234	0.100
76.700	62.893	0.100
76.800	58.726	0.100
76.900	57.512	0.100
77.000	67.200	0.100
77.100	61.220	0.100
77.200	48.391	0.100
77.300	72.198	0.100
77.400	72.832	0.100
77.500	64.755	0.100
77.600	50.959	0.100
77.700	70.419	0.100
77.800	60.141	0.100
77.900	56.801	0.100
78.000	66.181	0.100
78.100	62.204	0.100
78.200	69.523	0.100
78.300	56.510	0.100
78.400	60.443	0.100
78.500	63.481	0.100
78.600	66.737	0.100
78.700	57.429	0.100
78.800	66.443	0.100
78.900	65.068	0.100
79.000	62.183	0.100
79.100	66.239	0.100
79.200	64.858	0.100
79.300	43.599	0.100
79.400	52.154	0.100
79.500	57.540	0.100
79.600	62.785	0.100
79.700	65.960	0.100
79.800	61.521	0.100
79.900	62.842	0.100
80.000	56.972	0.100
80.100	52.230	0.100
80.200	60.074	0.100
80.300	75.595	0.100
80.400	72.953	0.100
80.500	65.387	0.100
80.600	73.787	0.100
80.700	72.674	0.100
80.800	66.325	0.100
80.900	66.202	0.100
81.000	72.861	0.100
81.100	76.547	0.100
81.200	63.806	0.100
81.300	64.570	0.100
81.400	58.660	0.100
81.500	64.605	0.100
81.600	67.464	0.100
81.700	65.051	0.100
81.800	72.694	0.100
81.900	72.167	0.100
82.000	61.260	0.100
82.100	67.982	0.100
82.200	71.097	0.100
82.300	73.442	0.100
82.400	54.238	0.100
82.500	68.275	0.100
82.600	81.881	0.100
82.700	74.463	0.100
82.800	75.205	0.100
82.900	57.621	0.100
83.000	70.315	0.100
83.100	80.889	0.100
83.200	74.217	0.100
83.300	57.140	0.100
83.400	70.610	0.100
83.500	70.478	0.100
83.600	64.421	0.100
83.700	56.016	0.100
83.800	80.255	0.100
83.900	71.551	0.100
84.000	71.264	0.100
84.100	71.862	0.100
84.200	73.599	0.100
84.300	68.729	0.100
84.400	68.479	0.100
84.500	76.747	0.100
84.600	68.068	0.100
84.700	68.612	0.100
84.800	73.787	0.100
84.900	69.658	0.100
85.000	73.849	0.100
85.100	73.701	0.100
85.200	74.627	0.100
85.300	69.138	0.100
85.400	71.106	0.100
85.500	72.389	0.100
85.600	69.196	0.100
85.700	68.845	0.100
85.800	73.573	0.100
85.900	75.978	0.100
86.000	71.618	0.100
86.100	81.630	0.100
86.200	79.551	0.100
86.300	71.557	0.100
86.400	66.932	0.100
86.500	82.971	0.100
86.600	82.974	0.100
86.700	69.119	0.100
86.800	82.317	0.100
86.900	81.415	0.100
87.000	72.164	0.100
87.100	80.126	0.100
87.200	73.163	0.100
87.300	74.828	0.100
87.400	76.186	0.100
87.500	75.188	0.100
87.600	77.615	0.100
87.700	70.452	0.100
87.800	64.403	0.100
87.900	87.357	0.100
88.000	79.563	0.100
88.100	87.392	0.100
88.200	79.194	0.100
88.300	79.315	0.100
88.400	75.927	0.100
88.500	62.063	0.100
88.600	75.500	0.100
88.700	73.409	0.100
88.800	76.087	0.100
88.900	73.153	0.100
89.000	82.185	0.100
89.100	82.461	0.100
89.200	81.984	0.101
89.300	83.767	0.100
89.400	78.429	0.101
89.500	77.591	0.101
89.600	82.557	0.101
89.700	83.834	0.101
89.800	70.367	0.101
89.900	79.022	0.101
90.000	66.057	0.101
90.100	72.986	0.100
90.200	86.758	0.100
90.300	79.631	0.101
90.400	79.257	0.100
90.500	74.831	0.101
90.600	78.883	0.101
90.700	83.137	0.101
90.800	79.749	0.100
90.900	66.901	0.100
91.000	73.406	0.101
91.100	75.087	0.101
91.200	65.652	0.101
91.300	72.717	0.101
91.400	71.834	0.101
91.500	67.605	0.100
91.600	85.505	0.100
91.700	73.780	0.100
91.800	73.885	0.100
91.900	78.418	0.100
92.000	69.774	0.100
92.100	62.883	0.100
92.200	60.014	0.100
92.300	73.041	0.100
92.400	72.061	0.100
92.500	67.617	0.100
92.600	72.060	0.100
92.700	68.460	0.100
92.800	67.033	0.100
92.900	66.274	0.100
93.000	71.393	0.100
93.100	63.537	0.100
93.200	65.011	0.100
93.300	56.474	0.100
93.400	58.699	0.100
93.500	55.973	0.100
93.600	64.312	0.100
93.700	55.337	0.100
93.800	65.391	0.100
93.900	68.275	0.100
94.000	56.258	0.100
94.100	52.167	0.100
94.200	62.870	0.100
94.300	51.667	0.100
94.400	63.628	0.100
94.500	44.062	0.100
94.600	52.728	0.100
94.700	54.006	0.100
94.800	51.541	0.100
94.900	42.623	0.100
95.000	44.499	0.100
95.100	49.921	0.100
95.200	52.993	0.100
95.300	50.454	0.100
95.400	46.154	0.100
95.500	42.118	0.100
95.600	46.151	0.100
95.700	41.925	0.100
95.800	43.976	0.100
95.900	41.577	0.100
96.000	44.874	0.100
96.100	43.174	0.100
96.200	55.257	0.100
96.300	41.330	0.100
96.400	45.615	0.100
96.500	51.558	0.100
96.600	40.406	0.100
96.700	31.815	0.100
96.800	43.239	0.100
96.900	42.080	0.100
97.000	43.443	0.100
97.100	43.941	0.100
97.200	31.711	0.100
97.300	22.648	0.100
97.400	39.066	0.100
97.500	36.434	0.100
97.600	20.283	0.100
97.700	39.590	0.100
97.800	44.338	0.100
97.900	39.071	0.100
98.000	43.668	0.100
98.100	36.167	0.100
98.200	23.350	0.100
98.300	36.653	0.100
98.400	37.159	0.100
98.500	41.806	0.100
98.600	35.763	0.100
98.700	28.547	0.100
98.800	27.739	0.100
98.900	40.027	0.100
99.000	36.443	0.100
99.100	26.416	0.100
99.200	17.705	0.100
99.300	19.066	0.100
99.400	39.899	0.100
99.500	43.795	0.100
99.600	31.598	0.100
99.700	33.900	0.100
99.800	35.389	0.100
99.900	28.611	0.100
100.000	26.018	0.100
100.100	38.668	0.100
100.200	34.133	0.100
100.300	22.167	0.100
100.400	35.085	0.100
100.500	22.083	0.100
100.600	26.976	0.100
100.700	26.415	0.100
100.800	17.640	0.100
100.900	29.870	0.100
101.000	27.451	0.100
101.100	44.202	0.100
101.200	28.052	0.100
101.300	19.952	0.100
101.400	35.450	0.100
101.500	25.797	0.100
101.600	21.273	0.100
101.700	21.635	0.100
101.800	38.214	0.100
101.900	21.192	0.100
102.000	23.191	0.100
102.100	29.818	0.100
102.200	27.390	0.100
102.300	20.338	0.100
102.400	17.528	0.100
102.500	19.668	0.100
102.600	34.636	0.100
102.700	31.006	0.100
102.800	16.609	0.100
102.900	30.948	0.100
103.000	28.854	0.100
103.100	20.338	0.100
103.200	16.009	0.100
103.300	24.296	0.100
103.400	24.477	0.100
103.500	24.681	0.100
103.600	27.094	0.100
103.700	33.633	0.100
103.800	23.579	0.100
103.900	27.923	0.100
104.000	15.258	0.100
104.100	28.627	0.100
104.200	25.725	0.100
104.300	27.221	0.100
104.400	25.730	0.100
104.500	9.574	0.100
104.600	14.249	0.100
104.700	17.266	0.100
104.800	16.023	0.100
104.900	30.160	0.100
105.000	27.656	0.100
105.100	29.990	0.100
105.200	26.404	0.100
105.300	21.433	0.100
105.400	15.468	0.100
105.500	22.497	0.100
105.600	19.409	0.100
105.700	21.404	0.100
105.800	19.727	0.100
105.900	7.655	0.100
106.000	15.235	0.100
106.100	10.613	0.100
106.200	19.012	0.100
106.300	27.512	0.100
106.400	22.406	0.100
106.500	7.445	0.100
106.600	19.225	0.100
106.700	18.206	0.100
106.800	16.365	0.100
106.900	16.891	0.100
107.000	24.945	0.100
107.100	24.065	0.100
107.200	30.350	0.100
107.300	28.964	0.100
107.400	21.928	0.100
107.500	27.551	0.100
107.600	25.325	0.100
107.700	6.971	0.100
107.800	18.988	0.100
107.900	21.505	0.100
108.000	12.376	0.100
108.100	15.830	0.100
108.200	35.792	0.100
108.300	27.807	0.100
108.400	20.525	0.100
108.500	18.004	0.100
108.600	22.771	0.100
108.700	29.579	0.100
108.800	10.339	0.100
108.900	8.124	0.100
109.000	20.078	0.100
109.100	22.567	0.100
109.200	15.525	0.100
109.300	24.111	0.100
109.400	12.618	0.100
109.500	23.421	0.100
109.600	18.210	0.100
109.700	18.250	0.100
109.800	18.210	0.100
109.900	14.321	0.100
110.000	6.871	0.100
110.100	17.775	0.100
110.200	14.603	0.100
110.300	17.087	0.100
110.400	19.983	0.100
110.500	22.891	0.100
110.600	23.166	0.100
110.700	23.398	0.100
110.800	8.953	0.100
110.900	21.229	0.100
111.000	9.874	0.100
111.100	11.121	0.100
111.200	24.125	0.100
111.300	14.677	0.100
111.400	17.412	0.100
111.500	17.778	0.100
111.600	21.978	0.100
111.700	26.938	0.100
111.800	18.329	0.100
111.900	21.131	0.100
112.000	12.177	0.100
112.100	16.208	0.100
112.200	5.216	0.100
112.300	22.950	0.100
112.400	16.541	0.100
112.500	19.210	0.100
112.600	18.221	0.100
112.700	9.566	0.100
112.800	23.050	0.100
112.900	17.826	0.100
113.000	9.801	0.100
113.100	15.767	0.100
113.200	22.267	0.100
113.300	13.261	0.100
113.400	-0.283	0.100
113.500	19.389	0.100
113.600	24.325	0.100
113.700	13.029	0.100
113.800	22.083	0.100
113.900	11.731	0.100
114.000	14.360	0.100
114.100	13.809	0.100
114.200	7.797	0.100
114.300	14.898	0.100
114.400	21.333	0.100
114.500	25.590	0.100
114.600	15.677	0.100
114.700	10.282	0.100
114.800	20.876	0.100
114.900	9.706	0.100
115.000	25.762	0.100
115.100	15.255	0.100
115.200	12.945	0.100
115.300	11.571	0.100
115.400	10.572	0.100
115.500	13.670	0.100
115.600	15.281	0.100
115.700	15.512	0.100
115.800	15.696	0.100
115.900	14.610	0.100
116.000	25.084	0.100
116.100	27.218	0.100
116.200	9.437	0.100
116.300	10.271	0.100
116.400	10.895	0.100
116.500	16.302	0.100
116.600	18.908	0.100
116.700	12.997	0.100
116.800	13.330	0.100
116.900	14.116	0.100
117.000	14.495	0.100
117.100	18.097	0.100
117.200	9.079	0.100
117.300	8.521	0.100
117.400	7.659	0.100
117.500	14.134	0.100
117.600	9.411	0.100
117.700	21.865	0.100
117.800	9.928	0.100
117.900	20.833	0.100
118.000	14.018	0.100
118.100	14.162	0.100
118.200	21.977	0.100
118.300	15.123	0.100
118.400	19.697	0.100
118.500	9.997	0.100
118.600	15.053	0.100
118.700	12.001	0.100
118.800	0.387	0.100
118.900	10.431	0.100
119.000	8.907	0.100
119.100	3.557	0.100
119.200	6.632	0.100
119.300	17.084	0.100
119.400	16.768	0.100
119.500	10.883	0.100
119.600	9.718	0.100
119.700	9.361	0.100
119.800	18.775	0.100
119.900	21.968	0.100
120.000	12.119	0.100
120.100	4.422	0.100
120.200	24.217	0.100
120.300	7.018	0.100
120.400	16.047	0.100
120.500	18.686	0.100
120.600	14.252	0.100
120.700	17.367	0.100
120.800	11.469	0.100
120.900	15.956	0.100
121.000	11.830	0.100
121.100	8.856	0.100
121.200	7.276	0.100
121.300	2.112	0.100
121.400	9.266	0.100
121.500	5.498	0.100
121.600	8.648	0.100
121.700	11.864	0.100
121.800	19.261	0.100
121.900	19.153	0.100
122.000	9.646	0.100
122.100	11.142	0.100
122.200	19.340	0.100
122.300	6.448	0.100
122.400	3.093	0.100
122.500	11.381	0.100
122.600	7.468	0.100
122.700	1.529	0.100
122.800	3.418	0.100
122.900	17.266	0.100
123.000	15.077	0.100
123.100	6.166	0.100
123.200	10.155	0.100
123.300	11.176	0.100
123.400	1.616	0.100
123.500	11.985	0.100
123.600	4.512	0.100
123.700	14.346	0.100
123.800	15.459	0.100
123.900	10.964	0.100
124.000	13.284	0.100
124.100	10.760	0.100
124.200	2.663	0.100
124.300	15.736	0.100
124.400	-0.016	0.100
124.500	9.134	0.100
124.600	11.625	0.100
124.700	9.416	0.100
124.800	13.924	0.100
124.900	20.656	0.100
125.000	14.761	0.100
125.100	-0.179	0.100
125.200	10.193	0.100
125.300	4.000	0.100
125.400	8.092	0.100
125.500	10.863	0.100
125.600	5.956	0.100
125.700	3.785	0.100
125.800	14.041	0.100
125.900	16.789	0.100
126.000	9.585	0.100
126.100	5.334	0.100
126.200	8.337	0.100
126.300	3.306	0.100
126.400	8.374	0.100
126.500	19.064	0.100
126.600	16.244	0.100
126.700	7.147	0.100
126.800	1.724	0.100
126.900	-2.682	0.100
127.000	8.863	0.100
127.100	10.015	0.100
127.200	8.130	0.100
127.300	6.117	0.100
127.400	8.062	0.100
127.500	10.032	0.100
127.600	10.797	0.100
127.700	9.844	0.100
127.800	10.164	0.100
127.900	12.074	0.100
128.000	14.836	0.100
128.100	18.459	0.100
128.200	14.786	0.100
128.300	-0.864	0.100
128.400	6.700	0.100
128.500	1.370	0.100
128.600	12.736	0.100
128.700	7.316	0.100
128.800	2.982	0.100
128.900	0.467	0.100
129.000	3.362	0.100
129.100	12.520	0.100
129.200	11.443	0.100
129.300	-0.565	0.100
129.400	13.975	0.100
129.500	-1.797	0.100
129.600	12.040	0.100
129.700	4.762	0.100
129.800	10.129	0.100
129.900	-2.371	0.100
130.000	7.618	0.100
130.100	9.618	0.100
130.200	9.649	0.100
130.300	7.454	0.100
130.400	-0.252	0.100
130.500	3.060	0.100
130.600	6.353	0.100
130.700	11.740	0.100
130.800	4.583	0.100
130.900	7.785	0.100
131.000	10.935	0.100
131.100	0.060	0.100
131.200	-1.109	0.100
131.300	14.401	0.100
131.400	9.810	0.100
131.500	7.376	0.100
131.600	10.228	0.100
131.700	-1.370	0.100
131.800	4.038	0.100
131.900	0.664	0.100
132.000	7.480	0.100
132.100	11.777	0.100
132.200	6.666	0.100
132.300	6.585	0.100
132.400	11.229	0.100
132.500	-0.245	0.100
132.600	2.631	0.100
132.700	-6.918	0.100
132.800	6.674	0.100
132.900	0.689	0.100
133.000	23.815	0.100
133.100	10.054	0.100
133.200	5.269	0.100
133.300	-4.715	0.100
133.400	-3.685	0.100
133.500	10.483	0.100
133.600	0.134	0.100
133.700	3.493	0.100
133.800	-0.721	0.100
133.900	14.492	0.100
134.000	17.492	0.100
134.100	0.365	0.100
134.200	8.435	0.100
134.300	5.475	0.100
134.400	2.090	0.100
134.500	6.198	0.100
134.600	10.546	0.100
134.700	2.906	0.100
134.800	1.843	0.100
134.900	5.627	0.100
135.000	-1.509	0.100
135.100	0.010	0.100
135.200	4.859	0.100
135.300	8.656	0.100
135.400	5.455	0.100
135.500	6.258	0.100
135.600	8.475	0.100
135.700	7.028	0.100
135.800	5.930	0.100
135.900	-0.551	0.100
136.000	-6.533	0.100
136.100	6.831	0.100
136.200	10.313	0.100
136.300	13.722	0.100
136.400	6.309	0.100
136.500	8.847	0.100
136.600	4.576	0.100
136.700	7.846	0.100
136.800	1.888	0.100
136.900	3.083	0.100
137.000	-6.381	0.100
137.100	3.661	0.100
137.200	5.302	0.100
137.300	10.357	0.100
137.400	-3.505	0.100
137.500	-3.455	0.100
137.600	4.138	0.100
137.700	6.128	0.100
137.800	12.218	0.100
137.900	-0.317	0.100
138.000	-1.381	0.100
138.100	-6.248	0.100
138.200	-1.820	0.100
138.300	7.583	0.100
138.400	-9.441	0.100
138.500	0.709	0.100
138.600	13.264	0.100
138.700	10.897	0.100
138.800	6.999	0.100
138.900	-3.539	0.100
139.000	2.605	0.100
139.100	-0.392	0.100
139.200	8.978	0.100
139.300	9.093	0.100
139.400	-6.097	0.100
139.500	3.490	0.100
139.600	14.110	0.100
139.700	0.859	0.100
139.800	4.642	0.100
139.900	10.112	0.100
140.000	7.261	0.100
140.100	-4.635	0.100
140.200	1.170	0.100
140.300	11.591	0.100
140.400	16.189	0.100
140.500	7.575	0.100
140.600	-1.201	0.100
140.700	2.968	0.100
140.800	2.880	0.100
140.900	5.147	0.100
141.000	1.875	0.100
141.100	-2.305	0.100
141.200	9.467	0.100
141.300	3.405	0.100
141.400	-2.898	0.100
141.500	1.216	0.100
141.600	3.761	0.100
141.700	2.964	0.100
141.800	0.454	0.100
141.900	-2.674	0.100
142.000	1.509	0.100
142.100	4.129	0.100
142.200	3.180	0.100
142.300	7.422	0.100
142.400	4.524	0.100
142.500	4.342	0.100
142.600	-2.095	0.100
142.700	3.211	0.100
142.800	9.959	0.100
142.900	1.618	0.100
143.000	-3.021	0.100
143.100	4.673	0.100
143.200	-4.152	0.100
143.300	4.848	0.100
143.400	6.335	0.100
143.500	0.836	0.100
143.600	1.417	0.100
143.700	3.333	0.100
143.800	-1.617	0.100
143.900	-5.018	0.100
144.000	-9.199	0.100
144.100	12.997	0.100
144.200	6.864	0.100
144.300	-9.197	0.100
144.400	-0.764	0.100
144.500	2.613	0.100
144.600	5.921	0.100
144.700	0.620	0.100
144.800	5.769	0.100
144.900	-3.711	0.100
145.000	-2.654	0.100
145.100	-5.800	0.100
145.200	3.692	0.100
145.300	-4.514	0.100
145.400	-3.266	0.100
145.500	12.417	0.100
145.600	9.532	0.100
145.700	7.003	0.100
145.800	-0.125	0.100
145.900	8.272	0.100
146.000	-3.594	0.100
146.100	1.095	0.100
146.200	8.157	0.100
146.300	0.845	0.100
146.400	0.197	0.100
146.500	8.585	0.100
146.600	-1.932	0.100
146.700	-1.534	0.100
146.800	-3.815	0.100
146.900	-2.060	0.100
147.000	6.569	0.100
147.100	6.557	0.100
147.200	-2.995	0.100
147.300	-3.242	0.100
147.400	10.642	0.100
147.500	2.202	0.100
147.600	2.184	0.100
147.700	-2.702	0.100
147.800	-5.193	0.100
147.900	1.325	0.100
148.000	2.087	0.100
148.100	1.639	0.100
148.200	5.141	0.100
148.300	-3.185	0.100
148.400	2.432	0.100
148.500	4.278	0.100
148.600	0.946	0.100
148.700	7.340	0.100
148.800	-5.152	0.100
148.900	-12.370	0.100
149.000	-2.751	0.100
149.100	-3.505	0.100
149.200	-4.161	0.100
149.300	2.354	0.100
149.400	8.397	0.100
149.500	-2.317	0.100
149.600	-0.948	0.100
149.700	5.818	0.100
149.800	1.189	0.100
149.900	7.066	0.100
150.000	-5.122	0.100
150.100	-4.322	0.100
150.200	6.649	0.100
150.300	3.500	0.100
150.400	13.717	0.100
150.500	3.551	0.100
150.600	-2.119	0.100
150.700	-0.982	0.100
150.800	0.833	0.100
150.900	0.493	0.100
151.000	-4.799	0.100
151.100	-5.627	0.100
151.200	-4.906	0.100
151.300	-14.473	0.100
151.400	0.983	0.100
151.500	0.713	0.100
151.600	-2.645	0.100
151.700	10.495	0.100
151.800	6.258	0.100
151.900	6.473	0.100
152.000	1.724	0.100
152.100	5.139	0.100
152.200	-5.795	0.100
152.300	0.451	0.100
152.400	3.908	0.100
152.500	-9.994	0.100
152.600	4.107	0.100
152.700	6.997	0.100
152.800	11.738	0.100
152.900	-2.371	0.100
153.000	-1.718	0.100
153.100	8.303	0.100
153.200	3.186	0.100
153.300	-3.212	0.100
153.400	0.942	0.100
153.500	-0.697	0.100
153.600	1.564	0.100
153.700	4.739	0.100
153.800	-7.532	0.100
153.900	-3.847	0.100
154.000	8.108	0.100
154.100	-0.576	0.100
154.200	-6.789	0.100
154.300	4.414	0.100
154.400	9.453	0.100
154.500	3.126	0.100
154.600	-2.684	0.100
154.700	-1.428	0.100
154.800	-13.822	0.100
154.900	-0.516	0.100
155.000	-5.478	0.100
155.100	1.696	0.100
155.200	1.193	0.100
155.300	2.673	0.100
155.400	4.748	0.100
155.500	-4.287	0.100
155.600	-5.009	0.100
155.700	-1.371	0.100
155.800	2.743	0.100
155.900	-2.383	0.100
156.000	5.182	0.100
156.100	1.149	0.100
156.200	1.031	0.100
156.300	-1.434	0.100
156.400	-3.937	0.100
156.500	-8.762	0.100
156.600	8.358	0.100
156.700	-2.371	0.100
156.800	-5.936	0.100
156.900	-7.594	0.100
157.000	-2.319	0.100
157.100	-5.883	0.100
157.200	-4.215	0.100
157.300	-5.309	0.100
157.400	6.756	0.100
157.500	-0.537	0.100
157.600	-7.885	0.100
157.700	2.153	0.100
157.800	11.685	0.100
157.900	5.440	0.100
158.000	-0.447	0.100
158.100	3.410	0.100
158.200	6.503	0.100
158.300	3.925	0.100
158.400	-4.312	0.100
158.500	-0.841	0.100
158.600	16.297	0.100
158.700	-3.222	0.100
158.800	-5.619	0.100
158.900	-5.759	0.100
159.000	-1.430	0.100
159.100	5.010	0.100
159.200	-6.672	0.100
159.300	1.993	0.100
159.400	-2.282	0.100
159.500	-7.518	0.100
159.600	-6.579	0.100
159.700	0.339	0.100
159.800	-14.368	0.100
159.900	-9.493	0.100
160.000	2.440	0.100
160.100	6.060	0.100
160.200	-7.926	0.100
160.300	-9.737	0.100
160.400	-9.294	0.100
160.500	7.773	0.100
160.600	10.461	0.100
160.700	-1.515	0.100
160.800	-4.216	0.100
160.900	-1.114	0.100
161.000	2.760	0.100
161.100	-3.942	0.100
161.200	2.656	0.100
161.300	-4.428	0.100
161.400	12.604	0.100
161.500	0.677	0.100
161.600	2.242	0.100
161.700	2.645	0.100
161.800	-6.425	0.100
161.900	-6.127	0.100
162.000	2.012	0.100
162.100	-1.402	0.100
162.200	-5.593	0.100
162.300	-7.428	0.100
162.400	1.368	0.100
162.500	-1.351	0.100
162.600	4.852	0.100
162.700	4.061	0.100
162.800	3.356	0.100
162.900	7.517	0.100
163.000	3.735	0.100
163.100	0.884	0.100
163.200	2.844	0.100
163.300	-3.435	0.100
163.400	-1.098	0.100
163.500	-2.843	0.100
163.600	-5.590	0.100
163.700	-5.015	0.100
163.800	-4.193	0.100
163.900	-8.064	0.100
164.000	-1.008	0.100
164.100	-10.077	0.100
164.200	7.305	0.100
164.300	6.983	0.100
164.400	5.791	0.100
164.500	-2.040	0.100
164.600	-0.766	0.100
164.700	-3.970	0.100
164.800	-8.682	0.100
164.900	-18.882	0.100
165.000	-2.437	0.100
165.100	3.062	0.100
165.200	-15.071	0.100
165.300	-12.965	0.100
165.400	-6.168	0.100
165.500	-1.851	0.100
165.600	-0.887	0.100
165.700	10.500	0.100
165.800	-11.657	0.100
165.900	-8.893	0.100
166.000	-0.306	0.100
166.100	3.664	0.100
166.200	2.660	0.100
166.300	-12.822	0.100
166.400	-6.186	0.100
166.500	3.350	0.100
166.600	5.478	0.100
166.700	4.626	0.100
166.800	2.916	0.100
166.900	11.812	0.100
167.000	12.574	0.100
167.100	-0.859	0.100
167.200	-7.042	0.100
167.300	-9.128	0.100
167.400	-8.659	0.100
167.500	-8.722	0.100
167.600	-4.977	0.100
167.700	-2.480	0.100
167.800	-1.083	0.100
167.900	3.724	0.100
168.000	3.727	0.100
168.100	-4.390	0.100
168.200	-4.525	0.100
168.300	-0.186	0.100
168.400	-5.596	0.100
168.500	3.471	0.100
168.600	0.247	0.100
168.700	-0.925	0.100
168.800	-2.213	0.100
168.900	-1.431	0.100
169.000	-2.624	0.100
169.100	5.455	0.100
169.200	-1.683	0.100
169.300	1.636	0.100
169.400	0.672	0.100
169.500	-3.347	0.100
169.600	2.121	0.100
169.700	-0.764	0.100
169.800	9.114	0.100
169.900	-13.684	0.100
170.000	-3.844	0.100
170.100	5.700	0.100
170.200	-2.383	0.100
170.300	-11.966	0.100
170.400	-7.318	0.100
170.500	-1.353	0.100
170.600	-3.433	0.100
170.700	-4.870	0.100
170.800	2.748	0.100
170.900	-3.251	0.100
171.000	-5.144	0.100
171.100	2.993	0.100
171.200	-0.556	0.100
171.300	-1.039	0.100
171.400	-4.653	0.100
171.500	0.476	0.100
171.600	-7.445	0.100
171.700	7.702	0.100
171.800	3.186	0.100
171.900	8.294	0.100
172.000	-4.039	0.100
172.100	-9.340	0.100
172.200	-4.269	0.100
172.300	-10.216	0.100
172.400	10.440	0.100
172.500	10.403	0.100
172.600	1.690	0.100
172.700	4.788	0.100
172.800	-6.639	0.100
172.900	-15.428	0.100
173.000	-7.575	0.100
173.100	-4.417	0.100
173.200	3.882	0.100
173.300	5.502	0.100
173.400	4.336	0.100
173.500	-4.403	0.100
173.600	-5.610	0.100
173.700	0.102	0.100
173.800	-5.736	0.100
173.900	-4.331	0.100
174.000	-0.435	0.100
174.100	7.659	0.100
174.200	-8.737	0.100
174.300	11.991	0.100
174.400	0.565	0.100
174.500	-2.345	0.100
174.600	-3.353	0.100
174.700	-1.364	0.100
174.800	-4.193	0.100
174.900	-2.452	0.100
175.000	-10.661	0.100
175.100	-10.345	0.100
175.200	4.098	0.100
175.300	-5.668	0.100
175.400	-8.680	0.100
175.500	3.795	0.100
175.600	0.166	0.100
175.700	-5.176	0.100
175.800	-4.492	0.100
175.900	9.390	0.100
176.000	-3.685	0.100
176.100	-4.911	0.100
176.200	-7.437	0.100
176.300	-1.902	0.100
176.400	-7.341	0.100
176.500	11.607	0.100
176.600	-4.549	0.100
176.700	9.787	0.100
176.800	-0.662	0.100
176.900	-5.043	0.100
177.000	-2.582	0.100
177.100	-1.321	0.100
177.200	-3.240	0.100
177.300	-9.776	0.100
177.400	-13.213	0.100
177.500	-6.753	0.100
177.600	-10.520	0.100
177.700	-1.520	0.100
177.800	7.822	0.100
177.900	14.833	0.100
178.000	-6.530	0.100
178.100	0.681	0.100
178.200	0.828	0.100
178.300	0.533	0.100
178.400	-0.639	0.100
178.500	0.424	0.100
178.600	-2.529	0.100
178.700	-5.207	0.100
178.800	-2.147	0.100
178.900	5.105	0.100
179.000	5.262	0.100
179.100	1.679	0.100
179.200	-0.327	0.100
179.300	-3.105	0.100
179.400	6.928	0.100
179.500	-1.057	0.100
179.600	-6.999	0.100
179.700	-1.302	0.100
179.800	1.298	0.100
179.900	0.752	0.100
180.000	-7.442	0.100
180.100	-1.969	0.100
180.200	-1.646	0.100
180.300	1.849	0.100
180.400	2.469	0.100
180.500	-3.142	0.100
180.600	-2.702	0.100
180.700	-16.644	0.100
180.800	-1.350	0.100
180.900	-3.985	0.100
181.000	-0.145	0.100
181.100	12.005	0.100
181.200	8.695	0.100
181.300	-2.391	0.100
181.400	-9.376	0.100
181.500	5.269	0.100
181.600	0.876	0.100
181.700	-1.148	0.100
181.800	19.791	0.100
181.900	16.449	0.100
182.000	15.611	0.100
182.100	9.994	0.100
182.200	3.119	0.100
182.300	4.911	0.100
182.400	9.945	0.100
182.500	6.503	0.100
182.600	13.432	0.100
182.700	7.668	0.100
182.800	6.250	0.100
182.900	3.916	0.100
183.000	18.223	0.100
183.100	15.255	0.100
183.200	19.216	0.100
183.300	13.133	0.100
183.400	21.069	0.100
183.500	12.063	0.100
183.600	14.461	0.100
183.700	22.664	0.100
183.800	32.222	0.100
183.900	21.753	0.100
184.000	11.725	0.100
184.100	29.937	0.100
184.200	22.035	0.100
184.300	19.011	0.100
184.400	15.844	0.100
184.500	9.767	0.100
184.600	28.740	0.100
184.700	13.852	0.100
184.800	25.648	0.100
184.900	30.790	0.100
185.000	27.307	0.100
185.100	26.117	0.100
185.200	8.665	0.100
185.300	23.104	0.100
185.400	32.513	0.100
185.500	33.195	0.100
185.600	24.779	0.100
185.700	31.920	0.100
185.800	43.697	0.100
185.900	26.824	0.100
186.000	26.487	0.100
186.100	31.057	0.100
186.200	24.687	0.100
186.300	19.696	0.100
186.400	28.854	0.100
186.500	24.309	0.100
186.600	29.953	0.100
186.700	28.073	0.100
186.800	33.911	0.100
186.900	24.804	0.100
187.000	27.773	0.100
187.100	37.357	0.100
187.200	25.172	0.100
187.300	41.111	0.100
187.400	30.264	0.100
187.500	37.266	0.100
187.600	32.390	0.100
187.700	24.016	0.100
187.800	32.361	0.100
187.900	34.745	0.100
188.000	32.845	0.100
188.100	25.389	0.100
188.200	32.956	0.100
188.300	30.687	0.100
188.400	34.288	0.100
188.500	32.415	0.100
188.600	22.198	0.100
188.700	24.549	0.100
188.800	33.532	0.100
188.900	42.256	0.100
189.000	41.309	0.100
189.100	41.833	0.100
189.200	30.676	0.100
189.300	31.006	0.100
189.400	48.029	0.100
189.500	41.105	0.100
189.600	38.947	0.100
189.700	34.936	0.100
189.800	41.977	0.100
189.900	39.393	0.100
190.000	40.319	0.100
190.100	33.653	0.100
190.200	30.877	0.100
190.300	47.930	0.100
190.400	32.056	0.100
190.500	39.561	0.100
190.600	42.638	0.100
190.700	41.804	0.100
190.800	31.139	0.100
190.900	45.262	0.100
191.000	42.813	0.100
191.100	40.234	0.100
191.200	40.265	0.100
191.300	54.851	0.100
191.400	42.702	0.100
191.500	37.803	0.100
191.600	35.611	0.100
191.700	42.483	0.100
191.800	36.379	0.100
191.900	31.119	0.100
192.000	49.366	0.100
192.100	49.315	0.100
192.200	37.990	0.100
192.300	48.008	0.100
192.400	41.580	0.100
192.500	40.614	0.100
192.600	43.513	0.100
192.700	40.875	0.100
192.800	48.129	0.100
192.900	34.404	0.100
193.000	36.859	0.100
193.100	44.254	0.100
193.200	49.136	0.100
193.300	41.878	0.100
193.400	38.405	0.100
193.500	41.669	0.100
193.600	35.501	0.100
193.700	41.919	0.100
193.800	41.211	0.100
193.900	41.292	0.100
194.000	50.692	0.100
194.100	40.309	0.100
194.200	52.090	0.100
194.300	60.929	0.100
194.400	45.797	0.100
194.500	50.741	0.100
194.600	43.049	0.100
194.700	53.704	0.100
194.800	50.706	0.100
194.900	54.771	0.100
195.000	39.874	0.100
195.100	40.351	0.100
195.200	40.777	0.100
195.300	41.169	0.100
195.400	45.598	0.100
195.500	50.663	0.100
195.600	52.760	0.100
195.700	57.647	0.100
195.800	49.377	0.100
195.900	48.964	0.100
196.000	51.046	0.100
196.100	42.877	0.100
196.200	58.527	0.100
196.300	57.514	0.100
196.400	49.515	0.100
196.500	51.389	0.100
196.600	53.756	0.100
196.700	49.760	0.100
196.800	51.215	0.100
196.900	50.548	0.100
197.000	50.828	0.100
197.100	54.771	0.100
197.200	46.052	0.100
197.300	39.155	0.100
197.400	47.355	0.100
197.500	60.075	0.100
197.600	51.454	0.100
197.700	57.874	0.100
197.800	54.563	0.100
197.900	53.697	0.100
198.000	47.039	0.100
198.100	48.780	0.100
198.200	51.055	0.100
198.300	51.696	0.100
198.400	55.942	0.100
198.500	54.064	0.100
198.600	53.649	0.100
198.700	56.831	0.100
198.800	55.554	0.100
198.900	52.024	0.100
199.000	51.849	0.100
199.100	55.348	0.100
199.200	56.758	0.100
199.300	54.386	0.100
199.400	63.268	0.100
199.500	50.695	0.100
199.600	51.852	0.100
199.700	50.353	0.100
199.800	67.427	0.100
199.900	58.378	0.100
200.000	66.759	0.100
200.100	68.908	0.100
200.200	61.234	0.100
200.300	52.841	0.100
200.400	47.487	0.100
200.500	64.735	0.100
200.600	65.557	0.100
200.700	60.403	0.100
200.800	55.484	0.100
200.900	63.653	0.100
201.000	70.366	0.100
201.100	59.128	0.100
201.200	75.584	0.100
201.300	56.255	0.100
201.400	69.024	0.100
201.500	54.480	0.100
201.600	59.851	0.100
201.700	53.063	0.100
201.800	57.097	0.100
201.900	60.727	0.100
202.000	58.462	0.100
202.100	51.020	0.100
202.200	61.614	0.100
202.300	68.649	0.100
202.400	67.354	0.100
202.500	66.589	0.100
202.600	68.735	0.100
202.700	65.194	0.100
202.800	59.326	0.100
202.900	55.044	0.100
203.000	60.576	0.100
203.100	55.271	0.100
203.200	61.622	0.100
203.300	63.369	0.100
203.400	69.006	0.100
203.500	59.698	0.100
203.600	47.962	0.100
203.700	65.355	0.100
203.800	71.390	0.100
203.900	66.005	0.100
204.000	61.300	0.100
204.100	51.665	0.100
204.200	63.734	0.100
204.300	71.033	0.100
204.400	68.491	0.100
204.500	72.699	0.100
204.600	65.338	0.100
204.700	66.451	0.100
204.800	65.229	0.100
204.900	69.868	0.100
205.000	68.543	0.100
205.100	55.879	0.100
205.200	67.898	0.100
205.300	66.846	0.100
205.400	75.314	0.100
205.500	72.202	0.100
205.600	68.893	0.100
205.700	75.437	0.100
205.800	71.575	0.100
205.900	59.516	0.100
206.000	56.388	0.100
206.100	66.722	0.100
206.200	68.267	0.100
206.300	66.483	0.100
206.400	59.804	0.100
206.500	64.266	0.100
206.600	63.661	0.100
206.700	60.120	0.100
206.800	65.278	0.100
206.900	71.302	0.100
207.000	76.839	0.100
207.100	69.964	0.100
207.200	67.856	0.100
207.300	69.549	0.100
207.400	75.041	0.100
207.500	81.762	0.100
207.600	66.978	0.100
207.700	63.207	0.100
207.800	64.416	0.100
207.900	69.211	0.100
208.000	65.387	0.100
208.100	75.978	0.100
208.200	73.032	0.100
208.300	81.584	0.100
208.400	72.546	0.100
208.500	74.230	0.100
208.600	69.915	0.100
208.700	66.563	0.100
208.800	74.088	0.100
208.900	72.310	0.100
209.000	78.483	0.100
209.100	65.906	0.100
209.200	78.749	0.100
209.300	74.275	0.100
209.400	62.986	0.100
209.500	61.211	0.100
209.600	74.937	0.100
209.700	81.851	0.100
209.800	63.187	0.100
209.900	67.418	0.100
210.000	66.834	0.100
210.100	75.762	0.100
210.200	86.661	0.100
210.300	77.919	0.100
210.400	69.351	0.100
210.500	80.095	0.100
210.600	71.003	0.100
210.700	67.081	0.100
210.800	65.865	0.100
210.900	79.936	0.100
211.000	80.719	0.100
211.100	71.693	0.100
211.200	79.818	0.100
211.300	79.028	0.100
211.400	66.116	0.100
211.500	60.641	0.100
211.600	67.185	0.100
211.700	76.131	0.100
211.800	86.121	0.100
211.900	75.205	0.100
212.000	82.612	0.100
212.100	65.220	0.100
212.200	69.110	0.100
212.300	78.024	0.100
212.400	76.829	0.100
212.500	77.833	0.100
212.600	66.990	0.100
212.700	77.529	0.100
212.800	76.789	0.100
212.900	71.183	0.100
213.000	79.064	0.100
213.100	75.846	0.100
213.200	87.314	0.100
213.300	86.060	0.100
213.400	73.588	0.100
213.500	72.952	0.100
213.600	63.927	0.100
213.700	74.370	0.100
213.800	64.545	0.100
213.900	73.861	0.100
214.000	80.560	0.100
214.100	80.350	0.100
214.200	76.933	0.100
214.300	79.700	0.100
214.400	81.768	0.100
214.500	77.566	0.100
214.600	72.458	0.100
214.700	61.766	0.100
214.800	65.719	0.100
214.900	81.247	0.100
215.000	72.884	0.100
215.100	82.784	0.100
215.200	88.139	0.100
215.300	81.979	0.100
215.400	70.781	0.100
215.500	80.848	0.100
215.600	81.285	0.100
215.700	74.929	0.100
215.800	82.008	0.100
215.900	80.689	0.100
216.000	74.331	0.100
216.100	76.447	0.100
216.200	73.553	0.100
216.300	71.517	0.100
216.400	63.840	0.100
216.500	77.713	0.100
216.600	85.169	0.100
216.700	82.729	0.100
216.800	84.757	0.100
216.900	87.650	0.100
217.000	88.576	0.100
217.100	72.383	0.100
217.200	85.034	0.100
217.300	78.380	0.100
217.400	67.956	0.100
217.500	86.364	0.100
217.600	78.046	0.100
217.700	70.571	0.100
217.800	70.793	0.100
217.900	79.819	0.100
218.000	89.157	0.100
218.100	79.867	0.100
218.200	70.921	0.100
218.300	69.978	0.100
218.400	77.345	0.100
218.500	71.942	0.100
218.600	86.270	0.100
218.700	81.004	0.100
218.800	74.684	0.100
218.900	80.965	0.100
219.000	84.556	0.100
219.100	76.924	0.100
219.200	82.873	0.100
219.300	78.161	0.100
219.400	70.458	0.100
219.500	74.197	0.100
219.600	78.167	0.100
219.700	73.205	0.100
219.800	90.288	0.100
219.900	75.172	0.100
220.000	76.412	0.100
220.100	89.477	0.100
220.200	92.731	0.100
220.300	84.323	0.100
220.400	88.435	0.100
220.500	83.915	0.100
220.600	73.136	0.100
220.700	71.759	0.100
220.800	80.105	0.100
220.900	78.734	0.100
221.000	82.172	0.100
221.100	83.295	0.100
221.200	82.142	0.100
221.300	74.784	0.100
221.400	67.709	0.100
221.500	78.250	0.100
221.600	79.941	0.100
221.700	72.654	0.100
221.800	83.399	0.100
221.900	88.228	0.100
222.000	75.279	0.100
222.100	80.738	0.100
222.200	92.774	0.100
222.300	90.673	0.100
222.400	87.311	0.100
222.500	83.169	0.100
222.600	82.623	0.100
222.700	80.203	0.100
222.800	80.946	0.100
222.900	87.610	0.100
223.000	72.299	0.100
223.100	87.683	0.100
223.200	87.018	0.100
223.300	70.407	0.100
223.400	74.868	0.100
223.500	81.775	0.100
223.600	98.731	0.100
223.700	87.314	0.100
223.800	77.980	0.100
223.900	80.843	0.100
224.000	82.264	0.100
224.100	64.683	0.100
224.200	75.290	0.100
224.300	71.828	0.100
224.400	80.284	0.100
224.500	91.729	0.100
224.600	81.943	0.100
224.700	72.949	0.100
224.800	87.538	0.100
224.900	92.830	0.100
225.000	77.359	0.100
225.100	73.631	0.100
225.200	77.276	0.100
225.300	73.085	0.100
225.400	94.257	0.100
225.500	82.347	0.100
225.600	88.367	0.100
225.700	79.695	0.100
225.800	74.552	0.100
225.900	86.391	0.100
226.000	86.701	0.100
226.100	84.406	0.100
226.200	78.541	0.100
226.300	85.225	0.100
226.400	86.491	0.100
226.500	83.679	0.100
226.600	79.643	0.100
226.700	78.958	0.100
226.800	78.190	0.100
226.900	81.306	0.100
227.000	74.962	0.100
227.100	85.977	0.100
227.200	94.891	0.100
227.300	75.947	0.100
227.400	69.618	0.100
227.500	80.595	0.100
227.600	76.133	0.100
227.700	72.547	0.100
227.800	73.659	0.100
227.900	73.668	0.100
228.000	83.917	0.100
228.100	86.515	0.100
228.200	84.555	0.100
228.300	88.340	0.100
228.400	81.098	0.100
228.500	88.750	0.100
228.600	87.435	0.100
228.700	70.665	0.100
228.800	81.170	0.100
228.900	76.127	0.100
229.000	86.701	0.100
229.100	84.044	0.100
229.200	79.473	0.100
229.300	95.376	0.100
229.400	79.291	0.100
229.500	85.465	0.100
229.600	80.410	0.100
229.700	77.137	0.100
229.800	76.018	0.100
229.900	79.734	0.100
230.000	87.079	0.100
230.100	81.334	0.100
230.200	89.129	0.100
230.300	81.667	0.100
230.400	88.818	0.100
230.500	85.514	0.100
230.600	79.117	0.100
230.700	81.536	0.100
230.800	86.391	0.100
230.900	80.082	0.100
231.000	79.122	0.100
231.100	90.355	0.100
231.200	76.048	0.100
231.300	78.898	0.100
231.400	73.655	0.100
231.500	85.042	0.100
231.600	82.778	0.100
231.700	86.204	0.100
231.800	88.093	0.100
231.900	77.327	0.100
232.000	76.425	0.100
232.100	86.161	0.100
232.200	82.179	0.100
232.300	79.067	0.100
232.400	89.124	0.100
232.500	84.930	0.100
232.600	94.270	0.100
232.700	80.598	0.100
232.800	77.554	0.100
232.900	76.413	0.100
233.000	83.472	0.100
233.100	77.586	0.100
233.200	79.836	0.100
233.300	78.285	0.100
233.400	76.476	0.100
233.500	83.502	0.100
233.600	76.521	0.100
233.700	91.746	0.100
233.800	99.521	0.100
233.900	88.605	0.100
234.000	74.364	0.100
234.100	70.980	0.100
234.200	94.123	0.100
234.300	87.789	0.100
234.400	78.066	0.100
234.500	90.199	0.100
234.600	86.456	0.100
234.700	93.346	0.100
234.800	89.069	0.100
234.900	79.399	0.100
235.000	75.742	0.100
235.100	77.419	0.100
235.200	67.872	0.100
235.300	87.374	0.100
235.400	83.664	0.100
235.500	84.251	0.100
235.600	86.037	0.100
235.700	86.592	0.100
235.800	72.211	0.100
235.900	80.975	0.100
236.000	95.107	0.100
236.100	88.387	0.100
236.200	72.955	0.100
236.300	82.513	0.100
236.400	98.026	0.100
236.500	93.026	0.100
236.600	76.964	0.100
236.700	85.896	0.100
236.800	67.340	0.100
236.900	81.291	0.100
237.000	83.549	0.100
237.100	82.649	0.100
237.200	79.784	0.100
237.300	91.477	0.100
237.400	81.530	0.100
237.500	86.669	0.100
237.600	85.697	0.100
237.700	90.306	0.100
237.800	79.104	0.100
237.900	85.836	0.100
238.000	75.515	0.100
238.100	80.408	0.100
238.200	81.864	0.100
238.300	83.572	0.100
238.400	92.419	0.100
238.500	94.914	0.100
238.600	80.085	0.100
238.700	81.466	0.100
238.800	79.554	0.100
238.900	77.571	0.100
239.000	88.894	0.100
239.100	85.229	0.100
239.200	95.382	0.100
239.300	77.863	0.100
239.400	84.487	0.100
239.500	89.572	0.100
239.600	86.322	0.100
239.700	79.383	0.100
239.800	79.456	0.100
239.900	77.028	0.100
240.000	92.123	0.100
240.100	88.376	0.100
240.200	78.844	0.100
240.300	89.072	0.100
240.400	83.396	0.100
240.500	81.050	0.100
240.600	85.720	0.100
240.700	79.475	0.100
240.800	85.894	0.100
240.900	83.548	0.100
241.000	69.780	0.100
241.100	86.722	0.100
241.200	80.894	0.100
241.300	80.548	0.100
241.400	76.456	0.100
241.500	75.201	0.100
241.600	71.679	0.100
241.700	66.805	0.100
241.800	78.496	0.100
241.900	76.010	0.100
242.000	70.444	0.100
242.100	77.683	0.100
242.200	74.103	0.100
242.300	63.227	0.100
242.400	73.009	0.100
242.500	70.344	0.100
242.600	68.030	0.100
242.700	76.002	0.100
242.800	65.183	0.100
242.900	70.321	0.100
243.000	72.179	0.100
243.100	67.430	0.100
243.200	54.365	0.100
243.300	64.030	0.100
243.400	53.582	0.100
243.500	62.905	0.100
243.600	53.858	0.100
243.700	64.053	0.100
243.800	65.914	0.100
243.900	60.382	0.100
244.000	61.794	0.100
244.100	60.705	0.100
244.200	55.205	0.100
244.300	41.989	0.100
244.400	55.148	0.100
244.500	43.926	0.100
244.600	44.563	0.100
244.700	56.117	0.100
244.800	58.628	0.100
244.900	59.920	0.100
245.000	49.470	0.100
245.100	46.427	0.100
245.200	49.050	0.100
245.300	41.927	0.100
245.400	55.398	0.100
245.500	45.529	0.100
245.600	54.911	0.100
245.700	48.892	0.100
245.800	43.867	0.100
245.900	49.171	0.100
246.000	47.448	0.100
246.100	40.984	0.100
246.200	46.346	0.100
246.300	41.812	0.100
246.400	47.223	0.100
246.500	44.287	0.100
246.600	41.318	0.100
246.700	44.333	0.100
246.800	41.007	0.100
246.900	44.666	0.100
247.000	33.322	0.100
247.100	38.330	0.100
247.200	43.429	0.100
247.300	37.314	0.100
247.400	56.390	0.100
247.500	39.350	0.100
247.600	39.173	0.100
247.700	42.665	0.100
247.800	35.528	0.100
247.900	32.139	0.100
248.000	22.690	0.100
248.100	40.453	0.100
248.200	38.094	0.100
248.300	32.807	0.100
248.400	35.726	0.100
248.500	29.153	0.100
248.600	40.860	0.100
248.700	28.170	0.100
248.800	34.677	0.100
248.900	42.980	0.100
249.000	39.502	0.100
249.100	31.601	0.100
249.200	35.090	0.100
249.300	28.415	0.100
249.400	32.340	0.100
249.500	32.979	0.100
249.600	36.370	0.100
249.700	37.447	0.100
249.800	37.142	0.100
249.900	31.851	0.100
250.000	31.256	0.100
250.100	28.661	0.100
250.200	27.600	0.100
250.300	29.125	0.100
250.400	33.825	0.100
250.500	40.417	0.100
250.600	32.383	0.100
250.700	27.860	0.100
250.800	26.924	0.100
250.900	32.862	0.100
251.000	29.890	0.100
251.100	25.961	0.100
251.200	21.676	0.100
251.300	39.327	0.100
251.400	36.598	0.100
251.500	28.012	0.100
251.600	36.771	0.100
251.700	19.541	0.100
251.800	31.590	0.100
251.900	20.570	0.100
252.000	22.950	0.100
252.100	23.266	0.100
252.200	27.427	0.100
252.300	34.644	0.100
252.400	33.499	0.100
252.500	21.261	0.100
252.600	21.896	0.100
252.700	25.168	0.100
252.800	20.856	0.100
252.900	21.519	0.100
253.000	23.119	0.100
253.100	20.646	0.100
253.200	18.801	0.100
253.300	22.363	0.100
253.400	16.819	0.100
253.500	26.168	0.100
253.600	26.819	0.100
253.700	28.152	0.100
253.800	30.123	0.100
253.900	30.302	0.100
254.000	26.097	0.100
254.100	21.146	0.100
254.200	25.726	0.100
254.300	23.846	0.100
254.400	25.224	0.100
254.500	25.112	0.100
254.600	16.593	0.100
254.700	18.597	0.100
254.800	10.281	0.100
254.900	33.449	0.100
255.000	26.916	0.100
255.100	25.316	0.100
255.200	30.686	0.100
255.300	25.567	0.100
255.400	20.668	0.100
255.500	26.468	0.100
255.600	21.565	0.100
255.700	5.211	0.100
255.800	24.402	0.100
255.900	30.870	0.100
256.000	21.578	0.100
256.100	20.013	0.100
256.200	20.605	0.100
256.300	14.863	0.100
256.400	15.500	0.100
256.500	12.522	0.100
256.600	12.280	0.100
256.700	13.000	0.100
256.800	7.454	0.100
256.900	21.062	0.100
257.000	10.273	0.100
257.100	21.224	0.100
257.200	26.539	0.100
257.300	29.484	0.100
257.400	26.588	0.100
257.500	17.870	0.100
257.600	21.431	0.100
257.700	21.565	0.100
257.800	6.712	0.100
257.900	15.053	0.100
258.000	15.710	0.100
258.100	24.000	0.100
258.200	16.800	0.100
258.300	21.522	0.100
258.400	13.035	0.100
258.500	18.416	0.100
258.600	7.687	0.100
258.700	10.132	0.100
258.800	15.306	0.100
258.900	18.615	0.100
259.000	15.680	0.100
259.100	15.660	0.100
259.200	9.614	0.100
259.300	19.356	0.100
259.400	26.516	0.100
259.500	11.835	0.100
259.600	13.391	0.100
259.700	18.255	0.100
259.800	11.610	0.100
259.900	9.180	0.100
260.000	19.956	0.100
260.100	29.511	0.100
260.200	21.333	0.100
260.300	14.870	0.100
260.400	4.741	0.100
260.500	16.702	0.100
260.600	26.344	0.100
260.700	17.026	0.100
260.800	11.148	0.100
260.900	7.797	0.100
261.000	6.928	0.100
261.100	-6.985	0.100
261.200	13.786	0.100
261.300	17.317	0.100
261.400	10.665	0.100
261.500	12.204	0.100
261.600	17.134	0.100
261.700	6.402	0.100
261.800	13.477	0.100
261.900	14.967	0.100
262.000	11.243	0.100
262.100	10.917	0.100
262.200	4.002	0.100
262.300	7.662	0.100
262.400	-2.493	0.100
262.500	-1.077	0.100
262.600	8.722	0.100
262.700	17.174	0.100
262.800	23.085	0.100
262.900	15.704	0.100
263.000	14.519	0.100
263.100	13.092	0.100
263.200	12.804	0.100
263.300	8.855	0.100
263.400	7.765	0.100
263.500	12.362	0.100
263.600	18.053	0.100
263.700	13.832	0.100
263.800	8.542	0.100
263.900	3.247	0.100
264.000	10.006	0.100
264.100	4.719	0.100
264.200	7.448	0.100
264.300	16.083	0.100
264.400	11.242	0.100
264.500	13.521	0.100
264.600	7.563	0.100
264.700	4.003	0.100
264.800	7.889	0.100
264.900	16.521	0.100
265.000	4.514	0.100
265.100	-6.338	0.100
265.200	0.899	0.100
265.300	9.096	0.100
265.400	8.300	0.100
265.500	11.131	0.100
265.600	16.138	0.100
265.700	-2.786	0.100
265.800	16.051	0.100
265.900	10.863	0.100
266.000	-7.932	0.100
266.100	-8.170	0.100
266.200	6.548	0.100
266.300	8.438	0.100
266.400	4.419	0.100
266.500	12.730	0.100
266.600	2.429	0.100
266.700	7.966	0.100
266.800	3.974	0.100
266.900	8.456	0.100
267.000	0.168	0.100
267.100	15.203	0.100
267.200	5.200	0.100
267.300	13.576	0.100
267.400	5.700	0.100
267.500	8.206	0.100
267.600	6.022	0.100
267.700	-6.740	0.100
267.800	9.643	0.100
267.900	-3.643	0.100
268.000	-5.382	0.100
268.100	6.617	0.100
268.200	4.750	0.100
268.300	8.686	0.100
268.400	8.962	0.100
268.500	1.032	0.100
268.600	-0.659	0.100
268.700	-1.666	0.100
268.800	2.277	0.100
268.900	2.003	0.100
269.000	4.868	0.100
269.100	7.400	0.100
269.200	2.844	0.100
269.300	7.961	0.100
269.400	5.994	0.100
269.500	1.403	0.100
269.600	2.815	0.100
269.700	1.607	0.100
269.800	7.995	0.100
269.900	1.488	0.100
270.000	3.916	0.100
270.100	1.271	0.100
270.200	-5.279	0.100
270.300	-3.269	0.100
270.400	-5.670	0.100
270.500	1.029	0.100
270.600	0.083	0.100
270.700	4.376	0.100
270.800	10.322	0.100
270.900	2.869	0.100
271.000	6.802	0.100
271.100	4.871	0.100
271.200	-6.188	0.100
271.300	-9.294	0.100
271.400	4.368	0.100
271.500	8.971	0.100
271.600	3.968	0.100
271.700	5.173	0.100
271.800	0.694	0.100
271.900	3.208	0.100
272.000	-0.162	0.100
272.100	2.003	0.100
272.200	-8.489	0.100
272.300	-4.192	0.100
272.400	2.720	0.100
272.500	-0.312	0.100
272.600	3.845	0.100
272.700	-6.053	0.100
272.800	0.566	0.100
272.900	-3.547	0.100
273.000	-17.798	0.100
273.100	-0.191	0.100
273.200	0.172	0.100
273.300	1.281	0.100
273.400	12.284	0.100
273.500	0.954	0.100
273.600	1.724	0.100
273.700	0.185	0.100
273.800	-2.210	0.100
273.900	-13.879	0.100
274.000	-3.444	0.100
274.100	8.102	0.100
274.200	7.938	0.100
274.300	9.799	0.100
274.400	0.258	0.100
274.500	1.480	0.100
274.600	5.516	0.100
274.700	-0.639	0.100
274.800	-0.163	0.100
274.900	1.684	0.100
275.000	-3.274	0.100
275.100	-7.115	0.100
275.200	-12.692	0.100
275.300	-7.506	0.100
275.400	1.314	0.100
275.500	2.628	0.100
275.600	-0.993	0.100
275.700	-5.208	0.100
275.800	-3.013	0.100
275.900	-2.753	0.100
276.000	-2.711	0.100
276.100	-10.537	0.100
276.200	-1.390	0.100
276.300	-5.293	0.100
276.400	-1.144	0.100
276.500	-7.013	0.100
276.600	0.221	0.100
276.700	-1.747	0.100
276.800	-2.763	0.100
276.900	-11.565	0.100
277.000	-6.205	0.100
277.100	-1.374	0.100
277.200	-6.810	0.100
277.300	-5.647	0.100
277.400	0.615	0.100
277.500	7.742	0.100
277.600	-10.471	0.100
277.700	-11.339	0.100
277.800	-1.264	0.100
277.900	-3.409	0.100
278.000	-6.547	0.100
278.100	1.898	0.100
278.200	-6.294	0.100
278.300	-5.480	0.100
278.400	-5.257	0.100
278.500	-1.985	0.100
278.600	-10.693	0.100
278.700	-6.232	0.100
278.800	-12.962	0.100
278.900	-7.354	0.100
279.000	-4.675	0.100
279.100	-4.988	0.100
279.200	-16.408	0.100
279.300	-6.327	0.100
279.400	-6.329	0.100
279.500	-8.427	0.100
279.600	-3.021	0.100
279.700	-6.580	0.100
279.800	-5.309	0.100
279.900	-1.287	0.100
280.000	2.591	0.100
280.100	-18.841	0.100
280.200	-13.722	0.100
280.300	-4.810	0.100
280.400	-4.641	0.100
280.500	-9.438	0.100
280.600	-3.625	0.100
280.700	-10.057	0.100
280.800	-13.169	0.100
280.900	-5.739	0.100
281.000	-10.216	0.100
281.100	-14.890	0.100
281.200	-3.749	0.100
281.300	-5.798	0.100
281.400	-4.469	0.100
281.500	-3.242	0.100
281.600	0.434	0.100
281.700	-4.568	0.100
281.800	-13.972	0.100
281.900	-15.297	0.100
282.000	-15.151	0.100
282.100	-9.991	0.100
282.200	-16.621	0.100
282.300	-0.507	0.100
282.400	-8.297	0.100
282.500	-16.028	0.100
282.600	-5.412	0.100
282.700	-11.408	0.100
282.800	-12.352	0.100
282.900	-12.159	0.100
283.000	-10.807	0.100
283.100	-10.926	0.100
283.200	-6.291	0.100
283.300	-17.628	0.100
283.400	-18.295	0.100
283.500	-7.445	0.100
283.600	-5.041	0.100
283.700	-14.999	0.100
283.800	-6.191	0.100
283.900	-2.693	0.100
284.000	-17.227	0.100
284.100	-9.619	0.100
284.200	-6.640	0.100
284.300	-9.335	0.100
284.400	-2.952	0.100
284.500	-14.504	0.100
284.600	-5.198	0.100
284.700	-12.651	0.100
284.800	-17.481	0.100
284.900	-2.481	0.100
285.000	-8.152	0.100
285.100	-5.794	0.100
285.200	-11.772	0.100
285.300	-10.367	0.100
285.400	-7.567	0.100
285.500	-3.620	0.100
285.600	-12.660	0.100
285.700	-16.285	0.100
285.800	-13.616	0.100
285.900	-2.904	0.100
286.000	-26.225	0.100
286.100	-1.652	0.100
286.200	-10.028	0.100
286.300	-10.954	0.100
286.400	-13.348	0.100
286.500	-9.409	0.100
286.600	-3.096	0.100
286.700	-18.589	0.100
286.800	-15.186	0.100
286.900	-13.606	0.100
287.000	-19.290	0.100
287.100	-7.275	0.100
287.200	-10.075	0.100
287.300	-12.399	0.100
287.400	-7.837	0.100
287.500	-8.857	0.100
287.600	-13.028	0.100
287.700	-10.892	0.100
287.800	-14.522	0.100
287.900	-2.748	0.100
288.000	-13.152	0.100
288.100	-6.947	0.100
288.200	-5.694	0.100
288.300	-10.229	0.100
288.400	-13.845	0.100
288.500	-3.051	0.100
288.600	-11.480	0.100
288.700	-21.773	0.100
288.800	-16.440	0.100
288.900	-15.198	0.100
289.000	-15.053	0.100
289.100	-7.889	0.100
289.200	-8.179	0.100
289.300	-9.381	0.100
289.400	-14.639	0.100
289.500	-11.000	0.100
289.600	-5.030	0.100
289.700	-8.409	0.100
289.800	-11.987	0.100
289.900	-6.038	0.100
290.000	-12.732	0.100
290.100	-2.126	0.100
290.200	-18.706	0.100
290.300	-14.288	0.100
290.400	-14.314	0.100
290.500	-16.163	0.100
290.600	-16.650	0.100
290.700	-3.861	0.100
290.800	2.689	0.100
290.900	-12.770	0.100
291.000	-20.306	0.100
291.100	-18.522	0.100
291.200	-21.367	0.100
291.300	-10.742	0.100
291.400	-7.264	0.100
291.500	-14.829	0.100
291.600	-17.691	0.100
291.700	-17.323	0.100
291.800	-10.483	0.100
291.900	-21.050	0.100
292.000	-8.063	0.100
292.100	-2.251	0.100
292.200	-10.505	0.100
292.300	-9.643	0.100
292.400	-12.320	0.100
292.500	-13.379	0.100
292.600	-9.661	0.100
292.700	-12.853	0.100
292.800	-9.205	0.100
292.900	-14.539	0.100
293.000	-18.976	0.100
293.100	-11.294	0.100
293.200	-20.945	0.100
293.300	-13.226	0.100
293.400	-14.078	0.100
293.500	-18.977	0.100
293.600	-14.800	0.100
293.700	-10.074	0.100
293.800	-12.059	0.100
293.900	-10.305	0.100
294.000	-20.804	0.100
294.100	-13.218	0.100
294.200	-9.191	0.100
294.300	-13.935	0.100
294.400	-20.418	0.100
294.500	-14.680	0.100
294.600	-19.816	0.100
294.700	-3.507	0.100
294.800	-9.746	0.100
294.900	-18.060	0.100
295.000	-14.323	0.100
295.100	-16.851	0.100
295.200	-16.675	0.100
295.300	-12.073	0.100
295.400	-10.078	0.100
295.500	-16.776	0.100
295.600	-18.404	0.100
295.700	-14.861	0.100
295.800	-18.309	0.100
295.900	-12.523	0.100
296.000	-14.656	0.100
296.100	-9.914	0.100
296.200	-9.565	0.100
296.300	-8.346	0.100
296.400	-6.715	0.100
296.500	-7.207	0.100
296.600	-14.782	0.100
296.700	-18.439	0.100
296.800	-13.345	0.100
296.900	-9.169	0.100
297.000	-15.585	0.100
297.100	-14.714	0.100
297.200	-22.512	0.100
297.300	-13.725	0.100
297.400	-14.182	0.100
297.500	-22.356	0.100
297.600	-12.281	0.100
297.700	-15.048	0.100
297.800	-16.670	0.100
297.900	-9.901	0.100
298.000	-20.921	0.100
298.100	-15.261	0.100
298.200	-11.642	0.100
298.300	-14.227	0.100
298.400	-9.126	0.100
298.500	-13.822	0.100
298.600	-11.191	0.100
298.700	-14.041	0.100
298.800	-10.574	0.100
298.900	-10.929	0.100
299.000	-14.299	0.100
299.100	-22.037	0.100
299.200	-12.775	0.100
299.300	-17.849	0.100
299.400	-17.896	0.100
299.500	-22.468	0.100
299.600	-30.710	0.100
299.700	-5.734	0.100
299.800	-17.593	0.100
299.900	-18.313	0.100
300.000	-13.485	0.100
300.100	-20.274	0.100
300.200	-8.943	0.100
300.300	-10.307	0.100
300.400	-11.999	0.100
300.500	-20.758	0.100
300.600	-0.263	0.100
300.700	-7.995	0.100
300.800	-20.473	0.100
300.900	-17.990	0.100
301.000	-13.784	0.100
301.100	-22.121	0.100
301.200	-12.355	0.100
301.300	-21.418	0.100
301.400	-13.250	0.100
301.500	-12.799	0.100
301.600	-23.012	0.100
301.700	-12.976	0.100
301.800	-12.798	0.100
301.900	-17.059	0.100
302.000	-9.481	0.100
302.100	-17.700	0.100
302.200	-10.449	0.100
302.300	-10.598	0.100
302.400	-25.472	0.100
302.500	-14.280	0.100
302.600	-18.263	0.100
302.700	-27.468	0.100
302.800	-17.840	0.100
302.900	-10.465	0.100
303.000	-11.624	0.100
303.100	-14.283	0.100
303.200	-17.866	0.100
303.300	-21.148	0.100
303.400	-12.510	0.100
303.500	-19.836	0.100
303.600	-17.725	0.100
303.700	-18.973	0.100
303.800	-4.753	0.100
303.900	-9.458	0.100
304.000	-13.661	0.100
304.100	-14.503	0.100
304.200	-14.415	0.100
304.300	-9.582	0.100
304.400	-15.384	0.100
304.500	-9.399	0.100
304.600	-10.163	0.100
304.700	-17.056	0.100
304.800	-16.692	0.100
304.900	-18.335	0.100
305.000	-11.299	0.100
305.100	-8.150	0.100
305.200	-8.846	0.100
305.300	-15.928	0.100
305.400	-10.961	0.100
305.500	-12.643	0.100
305.600	-14.834	0.100
305.700	-8.608	0.100
305.800	-20.125	0.100
305.900	-27.968	0.100
306.000	-20.576	0.100
306.100	-18.053	0.100
306.200	-7.755	0.100
306.300	-16.066	0.100
306.400	-12.816	0.100
306.500	-18.858	0.100
306.600	-30.857	0.100
306.700	-23.820	0.100
306.800	-16.014	0.100
306.900	-19.661	0.100
307.000	-22.627	0.100
307.100	-17.033	0.100
307.200	-20.167	0.100
307.300	-14.265	0.100
307.400	-18.640	0.100
307.500	-22.098	0.100
307.600	-12.761	0.100
307.700	-14.748	0.100
307.800	-17.854	0.100
307.900	-19.032	0.100
308.000	-14.338	0.100
308.100	-22.354	0.100
308.200	-11.818	0.100
308.300	-18.628	0.100
308.400	-19.173	0.100
308.500	-3.878	0.100
308.600	-5.835	0.100
308.700	-1.833	0.100
308.800	-21.030	0.100
308.900	-19.069	0.100
309.000	-24.484	0.100
309.100	-14.420	0.100
309.200	-19.547	0.100
309.300	-17.024	0.100
309.400	-16.849	0.100
309.500	-20.702	0.100
309.600	-15.752	0.100
309.700	-18.343	0.100
309.800	-15.741	0.100
309.900	-15.191	0.100
310.000	-14.125	0.100
310.100	-13.057	0.100
310.200	-18.159	0.100
310.300	-13.071	0.100
310.400	-23.108	0.100
310.500	-16.146	0.100
310.600	-19.718	0.100
310.700	-25.037	0.100
310.800	-20.591	0.100
310.900	-14.043	0.100
311.000	-14.841	0.100
311.100	-10.311	0.100
311.200	-4.017	0.100
311.300	-14.176	0.100
311.400	-13.319	0.100
311.500	-30.309	0.100
311.600	-16.229	0.100
311.700	-9.007	0.100
311.800	-12.806	0.100
311.900	-16.885	0.100
312.000	-11.354	0.100
312.100	-16.012	0.100
312.200	-29.144	0.100
312.300	-13.394	0.100
312.400	-18.997	0.100
312.500	-8.104	0.100
312.600	-14.135	0.100
312.700	-14.305	0.100
312.800	-16.846	0.100
312.900	-20.038	0.100
313.000	-19.822	0.100
313.100	-17.233	0.100
313.200	-21.884	0.100
313.300	-9.513	0.100
313.400	-5.696	0.100
313.500	-14.886	0.100
313.600	-23.214	0.100
313.700	-27.051	0.100
313.800	-24.152	0.100
313.900	-27.568	0.100
314.000	-9.277	0.100
314.100	-10.131	0.100
314.200	-15.959	0.100
314.300	-16.167	0.100
314.400	-17.998	0.100
314.500	-13.293	0.100
314.600	-22.500	0.100
314.700	-12.410	0.100
314.800	-17.412	0.100
314.900	-18.157	0.100
315.000	-20.743	0.100
315.100	-21.405	0.100
315.200	-15.871	0.100
315.300	-17.150	0.100
315.400	-15.793	0.100
315.500	-15.678	0.100
315.600	-11.602	0.100
315.700	-9.494	0.100
315.800	-13.699	0.100
315.900	-17.007	0.100
316.000	-19.363	0.100
316.100	-11.314	0.100
316.200	-11.688	0.100
316.300	-19.730	0.100
316.400	-20.975	0.100
316.500	-19.511	0.100
316.600	-14.696	0.100
316.700	-18.392	0.100
316.800	-10.258	0.100
316.900	-21.298	0.100
317.000	-17.877	0.100
317.100	-22.676	0.100
317.200	-10.730	0.100
317.300	-23.597	0.100
317.400	-7.920	0.100
317.500	-15.232	0.100
317.600	-12.988	0.100
317.700	-13.534	0.100
317.800	-15.723	0.100
317.900	-21.919	0.100
318.000	-20.292	0.100
318.100	-15.634	0.100
318.200	-13.698	0.100
318.300	-13.341	0.100
318.400	-11.282	0.100
318.500	-14.516	0.100
318.600	-25.239	0.100
318.700	-20.246	0.100
318.800	-14.564	0.100
318.900	-14.308	0.100
319.000	-20.861	0.100
319.100	-14.320	0.100
319.200	-12.269	0.100
319.300	-14.823	0.100
319.400	-9.255	0.100
319.500	-13.426	0.100
319.600	-25.216	0.100
319.700	-20.705	0.100
319.800	-16.337	0.100
319.900	-14.742	0.100
320.000	-18.922	0.100
320.100	-13.557	0.100
320.200	-17.838	0.100
320.300	-13.104	0.100
320.400	-23.133	0.100
320.500	-9.294	0.100
320.600	-17.906	0.100
320.700	-19.889	0.100
320.800	-4.068	0.100
320.900	-5.009	0.100
321.000	-15.603	0.100
321.100	-27.270	0.100
321.200	-29.440	0.100
321.300	-19.299	0.100
321.400	-14.978	0.100
321.500	-33.962	0.100
321.600	-14.081	0.100
321.700	-8.230	0.100
321.800	-28.035	0.100
321.900	-22.970	0.100
322.000	-22.856	0.100
322.100	-15.159	0.100
322.200	-6.631	0.100
322.300	-23.535	0.100
322.400	-7.728	0.100
322.500	-22.446	0.100
322.600	-25.707	0.100
322.700	-14.956	0.100
322.800	-16.181	0.100
322.900	-11.389	0.100
323.000	-17.300	0.100
323.100	-10.785	0.100
323.200	-18.373	0.100
323.300	-27.589	0.100
323.400	-23.504	0.100
323.500	-17.308	0.100
323.600	-10.509	0.100
323.700	-5.690	0.100
323.800	-16.388	0.100
323.900	-17.369	0.100
324.000	-10.180	0.100
324.100	-9.954	0.100
324.200	-9.948	0.100
324.300	-15.025	0.100
324.400	-17.654	0.100
324.500	-22.104	0.100
324.600	-26.205	0.100
324.700	-16.779	0.100
324.800	-8.133	0.100
324.900	-20.926	0.100
325.000	-24.010	0.100
325.100	-21.105	0.100
325.200	-6.899	0.100
325.300	-16.150	0.100
325.400	-21.551	0.100
325.500	-7.155	0.100
325.600	-9.622	0.100
325.700	-15.205	0.100
325.800	-12.094	0.100
325.900	-15.309	0.100
326.000	-16.477	0.100
326.100	-21.385	0.100
326.200	-19.954	0.100
326.300	-17.923	0.100
326.400	-21.600	0.100
326.500	-21.454	0.100
326.600	-28.969	0.100
326.700	-23.437	0.100
326.800	-22.143	0.100
326.900	-17.033	0.100
327.000	-17.627	0.100
327.100	-17.880	0.100
327.200	-25.046	0.100
327.300	-17.783	0.100
327.400	-18.922	0.100
327.500	-24.822	0.100
327.600	-9.957	0.100
327.700	-21.143	0.100
327.800	-7.059	0.100
327.900	-23.743	0.100
328.000	-20.055	0.100
328.100	-20.165	0.100
328.200	-11.950	0.100
328.300	-19.682	0.100
328.400	-25.304	0.100
328.500	-10.178	0.100
328.600	-12.855	0.100
328.700	-7.679	0.100
328.800	-13.078	0.100
328.900	-16.805	0.100
329.000	-12.714	0.100
329.100	-29.142	0.100
329.200	-27.293	0.100
329.300	-16.466	0.100
329.400	-14.743	0.100
329.500	-17.017	0.100
329.600	-19.857	0.100
329.700	-19.291	0.100
329.800	-16.034	0.100
329.900	-15.825	0.100
330.000	-14.637	0.100
330.100	-10.842	0.100
330.200	-22.882	0.100
330.300	-25.900	0.100
330.400	-24.039	0.100
330.500	-16.567	0.100
330.600	-20.493	0.100
330.700	-10.474	0.100
330.800	-8.740	0.100
330.900	-16.678	0.100
331.000	-18.159	0.100
331.100	-11.972	0.100
331.200	-10.748	0.100
331.300	-11.584	0.100
331.400	-12.668	0.100
331.500	-14.702	0.100
331.600	-18.729	0.100
331.700	-10.108	0.100
331.800	-2.993	0.100
331.900	-6.287	0.100
332.000	-12.836	0.100
332.100	-0.038	0.100
332.200	8.521	0.100
332.300	4.710	0.100
332.400	-9.724	0.100
332.500	-14.587	0.100
332.600	-21.713	0.100
332.700	-19.457	0.100
332.800	-4.992	0.100
332.900	9.942	0.100
333.000	1.964	0.100
333.100	0.923	0.100
333.200	1.695	0.100
333.300	-9.119	0.100
333.400	1.068	0.100
333.500	-1.840	0.100
333.600	23.493	0.100
333.700	5.239	0.100
333.800	8.030	0.100
333.900	2.266	0.100
334.000	-0.709	0.100
334.100	-2.339	0.100
334.200	2.427	0.100
334.300	-1.497	0.100
334.400	5.003	0.100
334.500	10.058	0.100
334.600	11.400	0.100
334.700	3.654	0.100
334.800	14.203	0.100
334.900	9.125	0.100
335.000	8.607	0.100
335.100	9.350	0.100
335.200	3.027	0.100
335.300	22.820	0.100
335.400	13.043	0.100
335.500	4.672	0.100
335.600	14.174	0.100
335.700	19.012	0.100
335.800	11.564	0.100
335.900	11.234	0.100
336.000	17.059	0.100
336.100	16.316	0.100
336.200	11.236	0.100
336.300	4.201	0.100
336.400	13.952	0.100
336.500	11.512	0.100
336.600	21.742	0.100
336.700	17.898	0.100
336.800	16.279	0.100
336.900	10.382	0.100
337.000	13.071	0.100
337.100	10.569	0.100
337.200	12.140	0.100
337.300	11.249	0.100
337.400	11.098	0.100
337.500	15.644	0.100
337.600	13.455	0.100
337.700	16.900	0.100
337.800	18.313	0.100
337.900	10.570	0.100
338.000	12.203	0.100
338.100	22.377	0.100
338.200	22.601	0.100
338.300	17.294	0.100
338.400	13.969	0.100
338.500	28.366	0.100
338.600	20.731	0.100
338.700	22.904	0.100
338.800	21.607	0.100
338.900	18.738	0.100
339.000	18.307	0.100
339.100	33.413	0.100
339.200	23.088	0.100
339.300	21.217	0.100
339.400	10.271	0.100
339.500	24.741	0.100
339.600	25.464	0.100
339.700	23.216	0.100
339.800	31.011	0.100
339.900	25.975	0.100
340.000	26.536	0.100
340.100	18.447	0.100
340.200	15.163	0.100
340.300	21.963	0.100
340.400	26.727	0.100
340.500	31.012	0.100
340.600	24.402	0.100
340.700	27.008	0.100
340.800	9.189	0.100
340.900	21.540	0.100
341.000	20.712	0.100
341.100	23.240	0.100
341.200	32.045	0.100
341.300	27.282	0.100
341.400	23.127	0.100
341.500	32.505	0.100
341.600	24.279	0.100
341.700	28.656	0.100
341.800	36.728	0.100
341.900	29.747	0.100
342.000	27.796	0.100
342.100	28.271	0.100
342.200	25.822	0.100
342.300	30.382	0.100
342.400	29.021	0.100
342.500	32.996	0.100
342.600	32.165	0.100
342.700	34.688	0.100
342.800	21.243	0.100
342.900	26.637	0.100
343.000	23.393	0.100
343.100	37.259	0.100
343.200	27.804	0.100
343.300	23.634	0.100
343.400	34.993	0.100
343.500	30.233	0.100
343.600	28.682	0.100
343.700	32.557	0.100
343.800	27.958	0.100
343.900	31.657	0.100
344.000	21.042	0.100
344.100	36.517	0.100
344.200	43.259	0.100
344.300	29.442	0.100
344.400	37.555	0.100
344.500	39.109	0.100
344.600	38.191	0.100
344.700	32.039	0.100
344.800	29.685	0.100
344.900	42.874	0.100
345.000	42.724	0.100
345.100	32.626	0.100
345.200	42.249	0.100
345.300	37.155	0.100
345.400	34.335	0.100
345.500	41.018	0.100
345.600	48.356	0.100
345.700	37.881	0.100
345.800	46.714	0.100
345.900	51.739	0.100
346.000	38.156	0.100
346.100	44.333	0.100
346.200	33.733	0.100
346.300	43.598	0.100
346.400	33.167	0.100
346.500	36.285	0.100
346.600	43.542	0.100
346.700	38.409	0.100
346.800	38.701	0.100
346.900	40.647	0.100
347.000	44.781	0.100
347.100	40.174	0.100
347.200	47.953	0.100
347.300	41.036	0.100
347.400	52.375	0.100
347.500	41.968	0.100
347.600	43.558	0.100
347.700	54.232	0.100
347.800	36.617	0.100
347.900	30.870	0.100
348.000	29.456	0.100
348.100	51.374	0.100
348.200	39.784	0.100
348.300	48.227	0.100
348.400	45.029	0.100
348.500	60.704	0.100
348.600	47.042	0.100
348.700	48.071	0.100
348.800	37.650	0.100
348.900	36.322	0.100
349.000	51.978	0.100
349.100	49.372	0.100
349.200	53.267	0.100
349.300	52.952	0.100
349.400	40.118	0.100
349.500	52.245	0.100
349.600	47.844	0.100
349.700	46.004	0.100
349.800	47.405	0.100
349.900	54.676	0.100
350.000	45.478	0.100
350.100	44.175	0.100
350.200	52.299	0.100
350.300	59.264	0.100
350.400	37.170	0.100
350.500	48.134	0.100
350.600	51.092	0.100
350.700	50.641	0.100
350.800	54.103	0.100
350.900	51.397	0.100
351.000	56.620	0.100
351.100	54.414	0.100
351.200	55.369	0.100
351.300	60.046	0.100
351.400	54.028	0.100
351.500	52.032	0.100
351.600	57.238	0.100
351.700	48.431	0.100
351.800	52.484	0.100
351.900	55.708	0.100
352.000	43.046	0.100
352.100	57.132	0.100
352.200	57.849	0.100
352.300	47.592	0.100
352.400	48.580	0.100
352.500	43.076	0.100
352.600	42.938	0.100
352.700	60.514	0.100
352.800	46.711	0.100
352.900	59.756	0.100
353.000	50.296	0.100
353.100	54.080	0.100
353.200	55.108	0.100
353.300	60.107	0.100
353.400	60.854	0.100
353.500	64.274	0.100
353.600	52.435	0.100
353.700	60.918	0.100
353.800	59.557	0.100
353.900	59.036	0.100
354.000	52.677	0.100
354.100	55.438	0.100
354.200	58.508	0.100
354.300	66.238	0.100
354.400	58.697	0.100
354.500	62.834	0.100
354.600	53.070	0.100
354.700	64.055	0.100
354.800	54.414	0.100
354.900	57.097	0.100
355.000	55.056	0.100
355.100	58.485	0.100
355.200	53.316	0.100
355.300	68.813	0.100
355.400	69.803	0.100
355.500	72.622	0.100
355.600	67.954	0.100
355.700	57.118	0.100
355.800	51.765	0.100
355.900	58.567	0.100
356.000	64.265	0.100
356.100	55.105	0.100
356.200	52.053	0.100
356.300	67.541	0.100
356.400	53.039	0.100
356.500	62.004	0.100
356.600	63.593	0.100
356.700	60.969	0.100
356.800	60.369	0.100
356.900	67.869	0.100
357.000	58.380	0.100
357.100	59.465	0.100
357.200	42.198	0.100
357.300	67.318	0.100
357.400	48.287	0.100
357.500	67.988	0.100
357.600	67.596	0.100
357.700	70.626	0.100
357.800	74.879	0.100
357.900	72.874	0.100
358.000	65.359	0.100
358.100	65.344	0.100
358.200	71.031	0.100
358.300	59.218	0.100
358.400	62.951	0.100
358.500	67.958	0.100
358.600	63.766	0.100
358.700	61.003	0.100
358.800	67.110	0.100
358.900	64.567	0.100
359.000	71.240	0.100
359.100	68.791	0.100
359.200	64.462	0.100
359.300	61.436	0.100
359.400	65.390	0.100
359.500	61.703	0.100
359.600	70.541	0.100
359.700	71.462	0.100
359.800	65.336	0.100
359.900	68.627	0.100
360.000	69.239	0.100
360.100	69.451	0.100
360.200	68.634	0.100
360.300	61.958	0.100
360.400	66.291	0.100
360.500	60.630	0.100
360.600	68.713	0.100
360.700	73.392	0.100
360.800	67.349	0.100
360.900	81.265	0.100
361.000	71.013	0.100
361.100	64.717	0.100
361.200	65.138	0.100
361.300	70.491	0.100
361.400	61.531	0.100
361.500	78.357	0.100
361.600	67.231	0.100
361.700	59.192	0.100
361.800	68.939	0.100
361.900	75.115	0.100
362.000	64.010	0.100
362.100	65.381	0.100
362.200	66.429	0.100
362.300	70.790	0.100
362.400	67.786	0.100
362.500	59.991	0.100
362.600	74.992	0.100
362.700	81.627	0.100
362.800	85.036	0.100
362.900	76.539	0.100
363.000	71.896	0.100
363.100	67.332	0.100
363.200	68.195	0.100
363.300	67.055	0.100
363.400	64.694	0.100
363.500	72.237	0.100
363.600	82.505	0.100
363.700	66.869	0.100
363.800	64.984	0.100
363.900	67.237	0.100
364.000	76.528	0.100
364.100	68.286	0.100
364.200	70.209	0.100
364.300	71.833	0.100
364.400	82.185	0.100
364.500	78.431	0.100
364.600	78.343	0.100
364.700	68.647	0.100
364.800	66.819	0.100
364.900	61.944	0.100
365.000	71.661	0.100
365.100	62.503	0.100
365.200	75.306	0.100
365.300	60.895	0.100
365.400	77.971	0.100
365.500	84.455	0.100
365.600	73.594	0.100
365.700	67.357	0.100
365.800	74.558	0.100
365.900	72.845	0.100
366.000	72.415	0.100
366.100	66.166	0.100
366.200	71.344	0.100
366.300	66.503	0.100
366.400	70.577	0.100
366.500	77.344	0.100
366.600	73.439	0.100
366.700	67.196	0.100
366.800	66.559	0.100
366.900	84.553	0.100
367.000	72.983	0.100
367.100	73.261	0.100
367.200	68.462	0.100
367.300	67.593	0.100
367.400	69.527	0.100
367.500	75.432	0.100
367.600	73.872	0.100
367.700	83.009	0.100
367.800	72.498	0.100
367.900	71.870	0.100
368.000	78.932	0.100
368.100	61.553	0.100
368.200	69.366	0.100
368.300	79.272	0.100
368.400	66.860	0.100
368.500	68.364	0.100
368.600	74.785	0.100
368.700	73.124	0.100
368.800	63.123	0.100
368.900	78.107	0.100
369.000	82.967	0.100
369.100	74.151	0.100
369.200	77.315	0.100
369.300	68.560	0.100
369.400	62.470	0.100
369.500	64.735	0.100
369.600	78.687	0.100
369.700	77.551	0.100
369.800	76.511	0.100
369.900	73.433	0.100
370.000	70.835	0.100
370.100	80.560	0.100
370.200	77.144	0.100
370.300	82.445	0.100
370.400	79.456	0.100
370.500	79.697	0.100
370.600	72.392	0.100
370.700	67.674	0.100
370.800	80.816	0.100
370.900	75.671	0.100
371.000	81.751	0.100
371.100	62.313	0.100
371.200	77.922	0.100
371.300	75.113	0.100
371.400	79.990	0.100
371.500	77.368	0.100
371.600	69.530	0.100
371.700	79.002	0.100
371.800	79.372	0.100
371.900	79.970	0.100
372.000	74.643	0.100
372.100	75.011	0.100
372.200	74.033	0.100
372.300	71.998	0.100
372.400	84.234	0.100
372.500	71.261	0.100
372.600	78.546	0.100
372.700	75.012	0.100
372.800	89.288	0.100
372.900	81.904	0.100
373.000	58.340	0.100
373.100	68.187	0.100
373.200	80.813	0.100
373.300	84.133	0.100
373.400	75.509	0.100
373.500	78.559	0.100
373.600	70.318	0.100
373.700	75.500	0.100
373.800	72.938	0.100
373.900	72.986	0.100
374.000	72.458	0.100
374.100	82.120	0.100
374.200	81.053	0.100
374.300	76.726	0.100
374.400	71.017	0.100
374.500	74.811	0.100
374.600	76.413	0.100
374.700	77.606	0.100
374.800	76.591	0.100
374.900	75.593	0.100
375.000	72.276	0.100
375.100	82.867	0.100
375.200	72.576	0.100
375.300	64.806	0.100
375.400	74.456	0.100
375.500	76.337	0.100
375.600	74.396	0.100
375.700	81.408	0.100
375.800	86.031	0.100
375.900	73.671	0.100
376.000	79.654	0.100
376.100	65.468	0.100
376.200	76.168	0.100
376.300	78.874	0.100
376.400	73.744	0.100
376.500	82.133	0.100
376.600	71.046	0.100
376.700	62.937	0.100
376.800	66.891	0.100
376.900	74.847	0.100
377.000	80.971	0.100
377.100	72.362	0.100
377.200	76.220	0.100
377.300	76.240	0.100
377.400	78.803	0.100
377.500	72.060	0.100
377.600	70.583	0.100
377.700	89.011	0.100
377.800	86.100	0.100
377.900	73.726	0.100
378.000	70.266	0.100
378.100	72.662	0.100
378.200	77.476	0.100
378.300	81.401	0.100
378.400	78.849	0.100
378.500	64.996	0.100
378.600	75.901	0.100
378.700	72.757	0.100
378.800	80.850	0.100
378.900	66.199	0.100
379.000	71.776	0.100
379.100	69.624	0.100
379.200	72.337	0.100
379.300	74.376	0.100
379.400	80.322	0.100
379.500	71.886	0.100
379.600	80.264	0.100
379.700	80.181	0.100
379.800	84.056	0.100
379.900	81.067	0.100
380.000	68.120	0.100
380.100	75.722	0.100
380.200	74.649	0.100
380.300	80.666	0.100
380.400	82.620	0.100
380.500	84.901	0.100
380.600	78.050	0.100
380.700	81.158	0.100
380.800	82.520	0.100
380.900	64.976	0.100
381.000	87.181	0.100
381.100	82.807	0.100
381.200	74.086	0.100
381.300	78.765	0.100
381.400	79.054	0.100
381.500	87.640	0.100
381.600	73.991	0.100
381.700	71.385	0.100
381.800	81.155	0.100
381.900	76.444	0.100
382.000	76.560	0.100
382.100	74.870	0.100
382.200	71.171	0.100
382.300	66.313	0.100
382.400	79.278	0.100
382.500	76.237	0.100
382.600	85.176	0.100
382.700	69.524	0.100
382.800	66.590	0.100
382.900	77.845	0.100
383.000	75.526	0.100
383.100	74.241	0.100
383.200	83.658	0.100
383.300	71.960	0.100
383.400	70.338	0.100
383.500	72.058	0.100
383.600	78.400	0.100
383.700	73.550	0.100
383.800	70.525	0.100
383.900	85.027	0.100
384.000	73.097	0.100
384.100	77.618	0.100
384.200	81.066	0.100
384.300	78.369	0.100
384.400	82.094	0.100
384.500	78.506	0.100
384.600	78.748	0.100
384.700	76.953	0.100
384.800	78.785	0.100
384.900	67.130	0.100
385.000	80.897	0.100
385.100	83.658	0.100
385.200	83.793	0.100
385.300	75.855	0.100
385.400	83.511	0.100
385.500	71.466	0.100
385.600	86.092	0.100
385.700	78.345	0.100
385.800	79.769	0.100
385.900	72.483	0.100
386.000	68.719	0.100
386.100	79.269	0.100
386.200	78.253	0.100
386.300	71.148	0.100
386.400	82.015	0.100
386.500	86.212	0.100
386.600	78.014	0.100
386.700	80.189	0.100
386.800	68.238	0.100
386.900	80.072	0.100
387.000	87.176	0.100
387.100	77.768	0.100
387.200	70.476	0.100
387.300	73.697	0.100
387.400	77.830	0.100
387.500	74.833	0.100
387.600	82.841	0.100
387.700	75.622	0.100
387.800	69.806	0.100
387.900	71.031	0.100
388.000	74.552	0.100
388.100	80.341	0.100
388.200	79.556	0.100
388.300	78.176	0.100
388.400	76.108	0.100
388.500	70.982	0.100
388.600	81.872	0.100
388.700	76.447	0.100
388.800	66.521	0.100
388.900	85.858	0.100
389.000	80.195	0.100
389.100	75.966	0.100
389.200	79.976	0.100
389.300	72.375	0.100
389.400	85.876	0.100
389.500	77.791	0.100
389.600	86.929	0.100
389.700	76.257	0.100
389.800	72.550	0.100
389.900	75.959	0.100
390.000	73.562	0.100
390.100	76.603	0.100
390.200	72.049	0.100
390.300	74.169	0.100
390.400	89.598	0.100
390.500	86.797	0.100
390.600	75.521	0.100
390.700	82.295	0.100
390.800	79.749	0.100
390.900	84.903	0.100
391.000	71.023	0.100
391.100	66.734	0.100
391.200	75.270	0.100
391.300	64.708	0.100
391.400	58.519	0.100
391.500	67.065	0.100
391.600	68.778	0.100
391.700	60.862	0.100
391.800	72.001	0.100
391.900	76.177	0.100
392.000	70.806	0.100
392.100	67.163	0.100
392.200	58.306	0.100
392.300	61.441	0.100
392.400	69.507	0.100
392.500	60.837	0.100
392.600	65.850	0.100
392.700	54.301	0.100
392.800	57.587	0.100
392.900	56.307	0.100
393.000	60.021	0.100
393.100	64.387	0.100
393.200	50.488	0.100
393.300	57.025	0.100
393.400	54.422	0.100
393.500	53.355	0.100
393.600	43.823	0.100
393.700	49.368	0.100
393.800	53.945	0.100
393.900	50.393	0.100
394.000	39.667	0.100
394.100	45.934	0.100
394.200	57.003	0.100
394.300	56.496	0.100
394.400	44.666	0.100
394.500	37.829	0.100
394.600	52.246	0.100
394.700	37.636	0.100
394.800	40.311	0.100
394.900	45.199	0.100
395.000	40.217	0.100
395.100	31.541	0.100
395.200	35.891	0.100
395.300	34.572	0.100
395.400	32.708	0.100
395.500	33.742	0.100
395.600	40.243	0.100
395.700	39.147	0.100
395.800	39.290	0.100
395.900	26.773	0.100
396.000	26.593	0.100
396.100	25.697	0.100
396.200	30.578	0.100
396.300	39.488	0.100
396.400	36.354	0.100
396.500	36.031	0.100
396.600	36.991	0.100
396.700	30.755	0.100
396.800	32.412	0.100
396.900	28.463	0.100
397.000	32.945	0.100
397.100	28.282	0.100
397.200	24.620	0.100
397.300	26.410	0.100
397.400	17.510	0.100
397.500	37.228	0.100
397.600	33.258	0.100
397.700	32.447	0.100
397.800	25.562	0.100
397.900	30.494	0.100
398.000	20.752	0.100
398.100	14.171	0.100
398.200	26.711	0.100
398.300	20.847	0.100
398.400	22.405	0.100
398.500	22.789	0.100
398.600	18.939	0.100
398.700	23.271	0.100
398.800	22.147	0.100
398.900	23.556	0.100
399.000	36.077	0.100
399.100	32.959	0.100
399.200	24.085	0.100
399.300	23.373	0.100
399.400	14.208	0.100
399.500	20.001	0.100
399.600	29.041	0.100
399.700	14.298	0.100
399.800	13.990	0.100
399.900	13.638	0.100
400.000	14.859	0.100
400.100	21.204	0.100
400.200	20.202	0.100
400.300	8.720	0.100
400.400	16.625	0.100
400.500	27.049	0.100
400.600	18.621	0.100
400.700	7.442	0.100
400.800	17.554	0.100
400.900	14.228	0.100
401.000	14.962	0.100
401.100	8.590	0.100
401.200	9.352	0.100
401.300	20.571	0.100
401.400	22.838	0.100
401.500	10.500	0.100
401.600	-4.434	0.100
401.700	6.269	0.100
401.800	17.527	0.100
401.900	24.025	0.100
402.000	23.629	0.100
402.100	8.213	0.100
402.200	28.092	0.100
402.300	18.149	0.100
402.400	16.251	0.100
402.500	1.627	0.100
402.600	14.758	0.100
402.700	16.000	0.100
402.800	18.344	0.100
402.900	9.893	0.100
403.000	16.609	0.100
403.100	12.649	0.100
403.200	14.202	0.100
403.300	9.306	0.100
403.400	12.368	0.100
403.500	15.752	0.100
403.600	22.529	0.100
403.700	14.269	0.100
403.800	15.934	0.100
403.900	15.994	0.100
404.000	9.339	0.100
404.100	9.592	0.100
404.200	10.029	0.100
404.300	10.819	0.100
404.400	11.887	0.100
404.500	0.553	0.100
404.600	0.074	0.100
404.700	11.430	0.100
404.800	18.569	0.100
404.900	11.125	0.100
405.000	10.115	0.100
405.100	5.344	0.100
405.200	13.115	0.100
405.300	16.402	0.100
405.400	8.720	0.100
405.500	8.833	0.100
405.600	6.318	0.100
405.700	16.277	0.100
405.800	7.438	0.100
405.900	3.146	0.100
406.000	15.890	0.100
406.100	12.155	0.100
406.200	17.470	0.100
406.300	7.619	0.100
406.400	9.516	0.100
406.500	19.380	0.100
406.600	10.109	0.100
406.700	19.763	0.100
406.800	21.146	0.100
406.900	10.707	0.100
407.000	9.476	0.100
407.100	-3.432	0.100
407.200	2.046	0.100
407.300	8.553	0.100
407.400	5.927	0.100
407.500	3.919	0.100
407.600	9.120	0.100
407.700	18.557	0.100
407.800	3.842	0.100
407.900	-2.539	0.100
408.000	16.814	0.100
408.100	9.074	0.100
408.200	2.538	0.100
408.300	6.723	0.100
408.400	2.505	0.100
408.500	-13.328	0.100
408.600	9.606	0.100
408.700	9.215	0.100
408.800	10.518	0.100
408.900	-2.026	0.100
409.000	13.100	0.100
409.100	15.267	0.100
409.200	4.397	0.100
409.300	3.422	0.100
409.400	9.953	0.100
409.500	0.356	0.100
409.600	7.676	0.100
409.700	11.780	0.100
409.800	0.988	0.100
409.900	1.127	0.100
410.000	-1.764	0.100
410.100	7.845	0.100
410.200	2.496	0.100
410.300	3.953	0.100
410.400	-1.029	0.100
410.500	-5.175	0.100
410.600	5.335	0.100
410.700	10.353	0.100
410.800	8.260	0.100
410.900	0.123	0.100
411.000	-3.994	0.100
411.100	3.238	0.100
411.200	1.345	0.100
411.300	1.658	0.100
411.400	-1.194	0.100
411.500	-4.736	0.100
411.600	3.028	0.100
411.700	-7.928	0.100
411.800	-7.934	0.100
411.900	-0.649	0.100
412.000	9.401	0.100
412.100	5.000	0.100
412.200	3.976	0.100
412.300	-4.770	0.100
412.400	-4.466	0.100
412.500	4.993	0.100
412.600	1.941	0.100
412.700	1.770	0.100
412.800	-2.121	0.100
412.900	-1.729	0.100
413.000	8.226	0.100
413.100	-5.904	0.100
413.200	-1.718	0.100
413.300	-1.112	0.100
413.400	3.281	0.100
413.500	-8.895	0.100
413.600	-1.454	0.100
413.700	3.241	0.100
413.800	-0.879	0.100
413.900	-10.265	0.100
414.000	-3.585	0.100
414.100	2.256	0.100
414.200	5.420	0.100
414.300	-5.783	0.100
414.400	-15.542	0.100
414.500	-1.080	0.100
414.600	5.263	0.100
414.700	1.458	0.100
414.800	-3.714	0.100
414.900	9.089	0.100
415.000	7.161	0.100
415.100	-3.931	0.100
415.200	-5.890	0.100
415.300	-0.375	0.100
415.400	-6.895	0.100
415.500	-12.091	0.100
415.600	-13.089	0.100
415.700	-3.300	0.100
415.800	-1.488	0.100
415.900	-6.895	0.100
416.000	-1.463	0.100
416.100	4.851	0.100
416.200	3.853	0.100
416.300	-4.285	0.100
416.400	-1.385	0.100
416.500	-4.620	0.100
416.600	-6.350	0.100
416.700	-1.889	0.100
416.800	1.940	0.100
416.900	-13.681	0.100
417.000	-8.061	0.100
417.100	-6.626	0.100
417.200	1.555	0.100
417.300	0.375	0.100
417.400	-8.998	0.100
417.500	-5.504	0.100
417.600	-2.472	0.100
417.700	-8.377	0.100
417.800	-5.343	0.100
417.900	-17.716	0.100
418.000	-12.548	0.100
418.100	-8.332	0.100
418.200	-1.998	0.100
418.300	-8.437	0.100
418.400	-6.012	0.100
418.500	-1.071	0.100
418.600	-6.612	0.100
418.700	-10.354	0.100
418.800	-8.714	0.100
418.900	-8.621	0.100
419.000	-7.364	0.100
419.100	-15.683	0.100
419.200	-5.889	0.100
419.300	-4.808	0.100
419.400	-4.100	0.100
419.500	-0.711	0.100
419.600	-5.890	0.100
419.700	-12.099	0.100
419.800	-10.949	0.100
419.900	1.903	0.100
420.000	0.411	0.100
420.100	-12.191	0.100
420.200	-15.858	0.100
420.300	-2.156	0.100
420.400	-12.277	0.100
420.500	-5.733	0.100
420.600	-11.204	0.100
420.700	-4.410	0.100
420.800	-8.915	0.100
420.900	-13.479	0.100
421.000	-4.218	0.100
421.100	-9.033	0.100
421.200	-5.230	0.100
421.300	-4.425	0.100
421.400	-3.824	0.100
421.500	-15.537	0.100
421.600	-13.762	0.100
421.700	-6.822	0.100
421.800	-18.755	0.100
421.900	-11.060	0.100
422.000	-21.352	0.100
422.100	-12.031	0.100
422.200	-28.314	0.100
422.300	0.292	0.100
422.400	4.291	0.100
422.500	-5.791	0.100
422.600	-12.806	0.100
422.700	-4.408	0.100
422.800	-20.188	0.100
422.900	-7.564	0.100
423.000	-1.440	0.100
423.100	-14.144	0.100
423.200	-7.843	0.100
423.300	-17.110	0.100
423.400	-10.301	0.100
423.500	-11.809	0.100
423.600	-15.448	0.100
423.700	-15.648	0.100
423.800	-15.223	0.100
423.900	-23.539	0.100
424.000	-16.646	0.100
424.100	-16.854	0.100
424.200	-9.835	0.100
424.300	-12.907	0.100
424.400	-11.064	0.100
424.500	-11.889	0.100
424.600	-0.821	0.100
424.700	3.065	0.100
424.800	-23.286	0.100
424.900	-1.814	0.100
425.000	-5.155	0.100
425.100	-15.034	0.100
425.200	-10.209	0.100
425.300	-20.823	0.100
425.400	-14.762	0.100
425.500	-13.653	0.100
425.600	-17.242	0.100
425.700	-4.735	0.100
425.800	-7.650	0.100
425.900	-18.905	0.100
426.000	-14.633	0.100
426.100	-9.835	0.100
426.200	-10.394	0.100
426.300	-11.610	0.100
426.400	-7.682	0.100
426.500	-15.591	0.100
426.600	-11.584	0.100
426.700	-15.781	0.100
426.800	-18.240	0.100
426.900	-20.538	0.100
427.000	-18.168	0.100
427.100	-10.316	0.100
427.200	-13.344	0.100
427.300	-20.260	0.100
427.400	-18.284	0.100
427.500	-9.366	0.100
427.600	-0.576	0.100
427.700	-13.250	0.100
427.800	-14.962	0.100
427.900	-13.544	0.100
428.000	-19.860	0.100
428.100	-12.939	0.100
428.200	-26.233	0.100
428.300	-7.384	0.100
428.400	-8.713	0.100
428.500	-19.570	0.100
428.600	-16.574	0.100
428.700	-36.007	0.100
428.800	-20.895	0.100
428.900	-13.120	0.100
429.000	-11.524	0.100
429.100	-8.276	0.100
429.200	-22.762	0.100
429.300	-13.770	0.100
429.400	-17.303	0.100
429.500	-24.169	0.100
429.600	-24.044	0.100
429.700	-14.993	0.100
429.800	-22.322	0.100
429.900	-14.308	0.100
430.000	-25.906	0.100
430.100	-8.728	0.100
430.200	-19.184	0.100
430.300	-18.668	0.100
430.400	-22.857	0.100
430.500	-9.444	0.100
430.600	-21.664	0.100
430.700	-8.995	0.100
430.800	-16.270	0.100
430.900	-16.817	0.100
431.000	-12.500	0.100
431.100	-28.147	0.100
431.200	-21.080	0.100
431.300	-29.038	0.100
431.400	-17.165	0.100
431.500	-27.149	0.100
431.600	-10.696	0.100
431.700	-20.059	0.100
431.800	-11.277	0.100
431.900	-8.259	0.100
432.000	-18.103	0.100
432.100	-29.775	0.100
432.200	-20.495	0.100
432.300	-17.010	0.100
432.400	-9.660	0.100
432.500	-14.113	0.100
432.600	-13.170	0.100
432.700	-9.562	0.100
432.800	-12.386	0.100
432.900	-20.242	0.100
433.000	-25.586	0.100
433.100	-25.031	0.100
433.200	-14.746	0.100
433.300	-25.252	0.100
433.400	-21.048	0.100
433.500	-14.029	0.100
433.600	-18.373	0.100
433.700	-8.740	0.100
433.800	-9.640	0.100
433.900	-25.386	0.100
434.000	-37.812	0.100
434.100	-24.681	0.100
434.200	-38.630	0.100
434.300	-24.500	0.100
434.400	-22.687	0.100
434.500	-27.330	0.100
434.600	-14.789	0.100
434.700	-9.721	0.100
434.800	-16.322	0.100
434.900	-24.519	0.100
435.000	-21.093	0.100
435.100	-23.084	0.100
435.200	-19.304	0.100
435.300	-18.005	0.100
435.400	-18.372	0.100
435.500	-19.236	0.100
435.600	-16.506	0.100
435.700	-23.418	0.100
435.800	-24.212	0.100
435.900	-20.884	0.100
436.000	-16.995	0.100
436.100	-25.084	0.100
436.200	-15.795	0.100
436.300	-14.089	0.100
436.400	-24.251	0.100
436.500	-26.452	0.100
436.600	-17.487	0.100
436.700	-19.347	0.100
436.800	-30.519	0.100
436.900	-21.140	0.100
437.000	-20.305	0.100
437.100	-25.871	0.100
437.200	-17.758	0.100
437.300	-13.183	0.100
437.400	-13.687	0.100
437.500	-28.182	0.100
437.600	-19.221	0.100
437.700	-21.770	0.100
437.800	-8.559	0.100
437.900	-24.228	0.100
438.000	-26.984	0.100
438.100	-11.579	0.100
438.200	-21.425	0.100
438.300	-24.741	0.100
438.400	-25.374	0.100
438.500	-16.951	0.100
438.600	-17.438	0.100
438.700	-21.137	0.100
438.800	-23.538	0.100
438.900	-25.569	0.100
439.000	-27.166	0.100
439.100	-19.690	0.100
439.200	-28.590	0.100
439.300	-29.095	0.100
439.400	-27.549	0.100
439.500	-19.172	0.100
439.600	-14.058	0.100
439.700	-20.197	0.100
439.800	-26.150	0.100
439.900	-33.781	0.100
440.000	-15.355	0.100
440.100	-30.418	0.100
440.200	-15.267	0.100
440.300	-16.173	0.100
440.400	-22.681	0.100
440.500	-16.531	0.100
440.600	-27.433	0.100
440.700	-34.020	0.100
440.800	-15.669	0.100
440.900	-21.692	0.100
441.000	-22.929	0.100
441.100	-26.996	0.100
441.200	-20.617	0.100
441.300	-18.284	0.100
441.400	-23.495	0.100
441.500	-28.438	0.100
441.600	-26.035	0.100
441.700	-34.679	0.100
441.800	-25.213	0.100
441.900	-19.068	0.100
442.000	-12.730	0.100
442.100	-32.386	0.100
442.200	-29.732	0.100
442.300	-15.514	0.100
442.400	-12.631	0.100
442.500	-18.669	0.100
442.600	-22.097	0.100
442.700	-24.517	0.100
442.800	-31.593	0.100
442.900	-24.388	0.100
443.000	-17.263	0.100
443.100	-26.142	0.100
443.200	-15.875	0.100
443.300	-23.599	0.100
443.400	-27.142	0.100
443.500	-31.555	0.100
443.600	-24.982	0.100
443.700	-22.810	0.100
443.800	-21.068	0.100
443.900	-18.980	0.100
444.000	-20.647	0.100
444.100	-33.007	0.100
444.200	-19.874	0.100
444.300	-20.266	0.100
444.400	-26.958	0.100
444.500	-19.452	0.100
444.600	-23.541	0.100
444.700	-24.433	0.100
444.800	-18.675	0.100
444.900	-26.823	0.100
445.000	-33.716	0.100
445.100	-30.249	0.100
445.200	-35.510	0.100
445.300	-14.032	0.100
445.400	-27.609	0.100
445.500	-23.096	0.100
445.600	-28.790	0.100
445.700	-28.130	0.100
445.800	-32.464	0.100
445.900	-25.596	0.100
446.000	-30.681	0.100
446.100	-31.938	0.100
446.200	-24.572	0.100
446.300	-27.056	0.100
446.400	-32.279	0.100
446.500	-28.914	0.100
446.600	-28.123	0.100
446.700	-21.500	0.100
446.800	-24.649	0.100
446.900	-23.717	0.100
447.000	-28.518	0.100
447.100	-23.633	0.100
447.200	-26.760	0.100
447.300	-32.481	0.100
447.400	-20.691	0.100
447.500	-23.660	0.100
447.600	-23.965	0.100
447.700	-25.898	0.100
447.800	-22.134	0.100
447.900	-29.535	0.100
448.000	-21.139	0.100
448.100	-21.539	0.100
448.200	-21.312	0.100
448.300	-10.078	0.100
448.400	-29.231	0.100
448.500	-32.220	0.100
448.600	-18.758	0.100
448.700	-28.435	0.100
448.800	-30.338	0.100
448.900	-35.344	0.100
449.000	-33.641	0.100
449.100	-21.638	0.100
449.200	-34.425	0.100
449.300	-31.926	0.100
449.400	-19.376	0.100
449.500	-17.923	0.100
449.600	-18.355	0.100
449.700	-25.474	0.100
449.800	-12.085	0.100
449.900	-21.192	0.100
450.000	-32.717	0.100
450.100	-29.415	0.100
450.200	-26.855	0.100
450.300	-21.698	0.100
450.400	-13.876	0.100
450.500	-17.079	0.100
450.600	-33.116	0.100
450.700	-24.778	0.100
450.800	-23.976	0.100
450.900	-26.532	0.100
451.000	-40.113	0.100
451.100	-26.630	0.100
451.200	-24.511	0.100
451.300	-29.433	0.100
451.400	-23.901	0.100
451.500	-18.103	0.100
451.600	-25.175	0.100
451.700	-27.365	0.100
451.800	-37.437	0.100
451.900	-24.235	0.100
452.000	-26.487	0.100
452.100	-25.544	0.100
452.200	-22.577	0.100
452.300	-25.987	0.100
452.400	-21.813	0.100
452.500	-30.273	0.100
452.600	-18.405	0.100
452.700	-26.640	0.100
452.800	-24.208	0.100
452.900	-24.252	0.100
453.000	-37.722	0.100
453.100	-36.919	0.100
453.200	-34.385	0.100
453.300	-22.753	0.100
453.400	-28.457	0.100
453.500	-18.278	0.100
453.600	-19.676	0.100
453.700	-21.738	0.100
453.800	-24.411	0.100
453.900	-27.266	0.100
454.000	-21.859	0.100
454.100	-29.229	0.100
454.200	-33.838	0.100
454.300	-28.805	0.100
454.400	-27.430	0.100
454.500	-23.708	0.100
454.600	-32.147	0.100
454.700	-26.066	0.100
454.800	-16.046	0.100
454.900	-23.895	0.100
455.000	-28.114	0.100
455.100	-25.327	0.100
455.200	-26.046	0.100
455.300	-37.000	0.100
455.400	-40.613	0.100
455.500	-24.973	0.100
455.600	-21.114	0.100
455.700	-25.124	0.100
455.800	-25.900	0.100
455.900	-29.840	0.100
456.000	-27.241	0.100
456.100	-34.572	0.100
456.200	-31.140	0.100
456.300	-21.859	0.100
456.400	-19.741	0.100
456.500	-26.674	0.100
456.600	-25.865	0.100
456.700	-16.181	0.100
456.800	-28.261	0.100
456.900	-32.170	0.100
457.000	-27.378	0.100
457.100	-34.748	0.100
457.200	-38.556	0.100
457.300	-20.424	0.100
457.400	-31.057	0.100
457.500	-20.965	0.100
457.600	-31.161	0.100
457.700	-34.012	0.100
457.800	-31.371	0.100
457.900	-34.825	0.100
458.000	-37.402	0.100
458.100	-28.684	0.100
458.200	-26.806	0.100
458.300	-20.746	0.100
458.400	-17.280	0.100
458.500	-21.379	0.100
458.600	-19.475	0.100
458.700	-21.638	0.100
458.800	-25.440	0.100
458.900	-22.028	0.100
459.000	-26.226	0.100
459.100	-28.980	0.100
459.200	-33.372	0.100
459.300	-39.181	0.100
459.400	-30.726	0.100
459.500	-18.497	0.100
459.600	-47.755	0.100
459.700	-26.553	0.100
459.800	-27.522	0.100
459.900	-32.518	0.100
460.000	-23.486	0.100
460.100	-16.774	0.100
460.200	-27.220	0.100
460.300	-18.554	0.100
460.400	-11.024	0.100
460.500	-20.150	0.100
460.600	-30.485	0.100
460.700	-35.130	0.100
460.800	-27.879	0.100
460.900	-16.851	0.100
461.000	-35.416	0.100
461.100	-44.369	0.100
461.200	-29.277	0.100
461.300	-26.377	0.100
461.400	-38.188	0.100
461.500	-27.759	0.100
461.600	-24.867	0.100
461.700	-26.709	0.100
461.800	-36.758	0.100
461.900	-31.826	0.100
462.000	-38.485	0.100
462.100	-45.739	0.100
462.200	-24.890	0.100
462.300	-26.688	0.100
462.400	-22.256	0.100
462.500	-27.522	0.100
462.600	-36.119	0.100
462.700	-21.666	0.100
462.800	-21.522	0.100
462.900	-27.519	0.100
463.000	-38.360	0.100
463.100	-25.325	0.100
463.200	-23.418	0.100
463.300	-32.562	0.100
463.400	-30.657	0.100
463.500	-33.815	0.100
463.600	-22.336	0.100
463.700	-27.686	0.100
463.800	-27.575	0.100
463.900	-29.378	0.100
464.000	-26.709	0.100
464.100	-32.993	0.100
464.200	-32.662	0.100
464.300	-33.577	0.100
464.400	-27.105	0.100
464.500	-36.503	0.100
464.600	-26.302	0.100
464.700	-24.560	0.100
464.800	-26.219	0.100
464.900	-19.104	0.100
465.000	-19.751	0.100
465.100	-23.335	0.100
465.200	-43.405	0.100
465.300	-38.259	0.100
465.400	-28.477	0.100
465.500	-25.275	0.100
465.600	-28.897	0.100
465.700	-30.999	0.100
465.800	-21.764	0.100
465.900	-23.476	0.100
466.000	-35.547	0.100
466.100	-32.110	0.100
466.200	-20.785	0.100
466.300	-28.721	0.100
466.400	-26.147	0.100
466.500	-31.178	0.100
466.600	-37.348	0.100
466.700	-20.536	0.100
466.800	-26.223	0.100
466.900	-23.118	0.100
467.000	-37.794	0.100
467.100	-26.222	0.100
467.200	-27.367	0.100
467.300	-30.112	0.100
467.400	-23.748	0.100
467.500	-20.387	0.100
467.600	-30.976	0.100
467.700	-27.882	0.100
467.800	-32.525	0.100
467.900	-29.599	0.100
468.000	-35.859	0.100
468.100	-44.691	0.100
468.200	-22.405	0.100
468.300	-27.744	0.100
468.400	-29.027	0.100
468.500	-26.470	0.100
468.600	-32.046	0.100
468.700	-35.574	0.100
468.800	-26.157	0.100
468.900	-27.520	0.100
469.000	-34.537	0.100
469.100	-22.872	0.100
469.200	-28.980	0.100
469.300	-22.184	0.100
469.400	-35.401	0.100
469.500	-36.181	0.100
469.600	-16.784	0.100
469.700	-28.615	0.100
469.800	-28.560	0.100
469.900	-32.308	0.100
470.000	-19.650	0.100
470.100	-31.144	0.100
470.200	-36.500	0.100
470.300	-25.670	0.100
470.400	-25.357	0.100
470.500	-29.294	0.100
470.600	-40.224	0.100
470.700	-30.862	0.100
470.800	-27.643	0.100
470.900	-21.566	0.100
471.000	-26.941	0.100
471.100	-23.596	0.100
471.200	-17.366	0.100
471.300	-35.542	0.100
471.400	-33.238	0.100
471.500	-25.034	0.100
471.600	-28.120	0.100
471.700	-26.193	0.100
471.800	-38.964	0.100
471.900	-27.215	0.100
472.000	-28.598	0.100
472.100	-29.317	0.100
472.200	-32.809	0.100
472.300	-27.583	0.100
472.400	-27.897	0.100
472.500	-22.072	0.100
472.600	-39.043	0.100
472.700	-25.304	0.100
472.800	-22.037	0.100
472.900	-14.573	0.100
473.000	-28.595	0.100
473.100	-28.373	0.100
473.200	-31.534	0.100
473.300	-26.653	0.100
473.400	-34.780	0.100
473.500	-25.466	0.100
473.600	-37.811	0.100
473.700	-45.325	0.100
473.800	-27.135	0.100
473.900	-25.532	0.100
474.000	-31.147	0.100
474.100	-28.512	0.100
474.200	-28.250	0.100
474.300	-24.792	0.100
474.400	-32.587	0.100
474.500	-39.086	0.100
474.600	-30.398	0.100
474.700	-16.845	0.100
474.800	-19.347	0.100
474.900	-23.887	0.100
475.000	-46.645	0.100
475.100	-22.434	0.100
475.200	-23.375	0.100
475.300	-30.513	0.100
475.400	-28.635	0.100
475.500	-42.584	0.100
475.600	-38.521	0.100
475.700	-29.610	0.100
475.800	-27.266	0.100
475.900	-26.059	0.100
476.000	-15.700	0.100
476.100	-19.618	0.100
476.200	-22.803	0.100
476.300	-32.312	0.100
476.400	-25.019	0.100
476.500	-22.583	0.100
476.600	-28.713	0.100
476.700	-31.560	0.100
476.800	-16.842	0.100
476.900	-25.143	0.100
477.000	-22.632	0.100
477.100	-33.664	0.100
477.200	-19.383	0.100
477.300	-29.685	0.100
477.400	-33.523	0.100
477.500	-29.715	0.100
477.600	-31.466	0.100
477.700	-33.307	0.100
477.800	-42.574	0.100
477.900	-28.291	0.100
478.000	-36.010	0.100
478.100	-40.587	0.100
478.200	-37.495	0.100
478.300	-38.159	0.100
478.400	-29.029	0.100
478.500	-21.922	0.100
478.600	-22.742	0.100
478.700	-26.907	0.100
478.800	-23.860	0.100
478.900	-29.441	0.100
479.000	-40.794	0.100
479.100	-32.093	0.100
479.200	-32.265	0.100
479.300	-36.597	0.100
479.400	-33.798	0.100
479.500	-31.802	0.100
479.600	-22.357	0.100
479.700	-37.533	0.100
479.800	-20.291	0.100
479.900	-19.675	0.100
480.000	-22.117	0.100
480.100	-30.586	0.100
480.200	-38.019	0.100
480.300	-16.595	0.100
480.400	-28.172	0.100
480.500	-32.024	0.100
480.600	-32.579	0.100
480.700	-30.419	0.100
480.800	-28.124	0.100
480.900	-33.197	0.100
481.000	-17.162	0.100
481.100	-18.260	0.100
481.200	-28.032	0.100
481.300	-25.230	0.100
481.400	-16.187	0.100
481.500	-24.344	0.100
481.600	-28.233	0.100
481.700	-21.039	0.100
481.800	-12.321	0.100
481.900	-17.674	0.100
482.000	-14.518	0.100
482.100	-12.254	0.100
482.200	-10.141	0.100
482.300	-20.932	0.100
482.400	-19.958	0.100
482.500	-17.982	0.100
482.600	-22.238	0.100
482.700	-19.948	0.100
482.800	-14.161	0.100
482.900	-11.176	0.100
483.000	-4.207	0.100
483.100	-12.418	0.100
483.200	-2.305	0.100
483.300	-22.725	0.100
483.400	-21.608	0.100
483.500	-3.666	0.100
483.600	-3.393	0.100
483.700	-1.925	0.100
483.800	-10.169	0.100
483.900	-1.137	0.100
484.000	-20.115	0.100
484.100	-0.786	0.100
484.200	1.764	0.100
484.300	-24.854	0.100
484.400	-7.167	0.100
484.500	-1.850	0.100
484.600	-7.062	0.100
484.700	-0.183	0.100
484.800	-3.114	0.100
484.900	0.014	0.100
485.000	-2.495	0.100
485.100	-0.596	0.100
485.200	-7.889	0.100
485.300	-0.426	0.100
485.400	0.318	0.100
485.500	2.616	0.100
485.600	-6.173	0.100
485.700	0.257	0.100
485.800	-2.823	0.100
485.900	-12.177	0.100
486.000	-9.547	0.100
486.100	13.446	0.100
486.200	2.837	0.100
486.300	0.258	0.100
486.400	6.358	0.100
486.500	3.982	0.100
486.600	8.734	0.100
486.700	0.457	0.100
486.800	7.507	0.100
486.900	1.733	0.100
487.000	-5.530	0.100
487.100	7.698	0.100
487.200	5.279	0.100
487.300	9.322	0.100
487.400	3.085	0.100
487.500	-5.910	0.100
487.600	-0.723	0.100
487.700	9.375	0.100
487.800	0.844	0.100
487.900	-2.029	0.100
488.000	4.143	0.100
488.100	15.376	0.100
488.200	6.100	0.100
488.300	1.810	0.100
488.400	8.033	0.100
488.500	18.270	0.100
488.600	11.512	0.100
488.700	13.451	0.100
488.800	8.659	0.100
488.900	-3.847	0.100
489.000	13.354	0.100
489.100	4.846	0.100
489.200	19.185	0.100
489.300	11.548	0.100
489.400	21.411	0.100
489.500	12.353	0.100
489.600	12.197	0.100
489.700	13.063	0.100
489.800	10.028	0.100
489.900	15.798	0.100
490.000	9.723	0.100
490.100	11.021	0.100
490.200	9.897	0.100
490.300	12.844	0.100
490.400	16.372	0.100
490.500	5.349	0.100
490.600	20.205	0.100
490.700	2.564	0.100
490.800	-4.393	0.100
490.900	20.147	0.100
491.000	14.374	0.100
491.100	24.091	0.100
491.200	16.277	0.100
491.300	7.474	0.100
491.400	15.111	0.100
491.500	15.675	0.100
491.600	25.024	0.100
491.700	14.653	0.100
491.800	7.457	0.100
491.900	19.064	0.100
492.000	9.903	0.100
492.100	8.648	0.100
492.200	25.789	0.100
492.300	14.873	0.100
492.400	16.322	0.100
492.500	-3.471	0.100
492.600	13.958	0.100
492.700	22.340	0.100
492.800	22.242	0.100
492.900	22.818	0.100
493.000	21.566	0.100
493.100	18.362	0.100
493.200	21.681	0.100
493.300	18.079	0.100
493.400	30.676	0.100
493.500	28.253	0.100
493.600	16.926	0.100
493.700	19.935	0.100
493.800	12.384	0.100
493.900	14.738	0.100
494.000	24.689	0.100
494.100	29.018	0.100
494.200	25.334	0.100
494.300	22.604	0.100
494.400	16.641	0.100
494.500	12.815	0.100
494.600	26.611	0.100
494.700	31.737	0.100
494.800	27.341	0.100
494.900	24.643	0.100
495.000	18.627	0.100
495.100	29.704	0.100
495.200	31.739	0.100
495.300	18.152	0.100
495.400	25.021	0.100
495.500	31.521	0.100
495.600	31.818	0.100
495.700	17.947	0.100
495.800	34.634	0.100
495.900	29.192	0.100
496.000	18.440	0.100
496.100	23.916	0.100
496.200	28.579	0.100
496.300	39.413	0.100
496.400	34.624	0.100
496.500	34.779	0.100
496.600	32.749	0.100
496.700	17.117	0.100
496.800	20.861	0.100
496.900	37.216	0.100
497.000	33.304	0.100
497.100	22.897	0.100
497.200	23.645	0.100
497.300	28.354	0.100
497.400	35.419	0.100
497.500	27.755	0.100
497.600	26.491	0.100
497.700	32.257	0.100
497.800	34.038	0.100
497.900	36.336	0.100
498.000	23.738	0.100
498.100	34.358	0.100
498.200	44.566	0.100
498.300	38.435	0.100
498.400	33.770	0.100
498.500	40.430	0.100
498.600	22.021	0.100
498.700	30.267	0.100
498.800	39.318	0.100
498.900	38.574	0.100
499.000	27.988	0.100
499.100	24.459	0.100
499.200	32.570	0.100
499.300	34.250	0.100
499.400	39.724	0.100
499.500	40.568	0.100
499.600	31.683	0.100
499.700	35.470	0.100
499.800	39.895	0.100
499.900	36.080	0.100
500.000	35.471	0.100
500.100	30.423	0.100
500.200	41.278	0.100
500.300	32.497	0.100
500.400	49.470	0.100
500.500	46.998	0.100
500.600	41.091	0.100
500.700	38.087	0.100
500.800	30.287	0.100
500.900	40.446	0.100
501.000	49.412	0.100
501.100	38.901	0.100
501.200	41.537	0.100
501.300	41.376	0.100
501.400	33.031	0.100
501.500	46.000	0.100
501.600	33.270	0.100
501.700	43.740	0.100
501.800	39.922	0.100
501.900	36.702	0.100
502.000	43.972	0.100
502.100	50.825	0.100
502.200	48.017	0.100
502.300	48.324	0.100
502.400	41.657	0.100
502.500	39.348	0.100
502.600	41.143	0.100
502.700	46.898	0.100
502.800	47.034	0.100
502.900	42.371	0.100
503.000	52.196	0.100
503.100	34.736	0.100
503.200	38.548	0.100
503.300	38.847	0.100
503.400	46.927	0.100
503.500	58.783	0.100
503.600	50.950	0.100
503.700	42.060	0.100
503.800	42.592	0.100
503.900	50.040	0.100
504.000	50.992	0.100
504.100	53.562	0.100
504.200	49.670	0.100
504.300	47.477	0.100
504.400	50.430	0.100
504.500	41.668	0.100
504.600	44.002	0.100
504.700	47.775	0.100
504.800	52.613	0.100
504.900	56.025	0.100
505.000	54.291	0.100
505.100	53.502	0.100
505.200	47.139	0.100
505.300	49.010	0.100
505.400	54.091	0.100
505.500	58.076	0.100
505.600	48.302	0.100
505.700	52.026	0.100
505.800	55.325	0.100
505.900	57.146	0.100
506.000	54.624	0.100
506.100	57.080	0.100
506.200	51.515	0.100
506.300	52.748	0.100
506.400	61.191	0.100
506.500	50.565	0.100
506.600	46.762	0.100
506.700	53.151	0.100
506.800	68.148	0.100
506.900	65.237	0.100
507.000	53.963	0.100
507.100	55.729	0.100
507.200	56.618	0.100
507.300	55.729	0.100
507.400	52.056	0.100
507.500	58.254	0.100
507.600	54.353	0.100
507.700	55.984	0.100
507.800	55.620	0.100
507.900	59.178	0.100
508.000	52.976	0.100
508.100	54.724	0.100
508.200	44.822	0.100
508.300	67.505	0.100
508.400	55.406	0.100
508.500	50.462	0.100
508.600	55.696	0.100
508.700	60.987	0.100
508.800	58.971	0.100
508.900	63.273	0.100
509.000	59.356	0.100
509.100	56.585	0.100
509.200	56.224	0.100
509.300	63.793	0.100
509.400	66.975	0.100
509.500	57.359	0.100
509.600	57.028	0.100
509.700	49.817	0.100
509.800	57.684	0.100
509.900	65.079	0.100
510.000	67.255	0.100
510.100	67.672	0.100
510.200	48.486	0.100
510.300	63.089	0.100
510.400	55.761	0.100
510.500	60.908	0.100
510.600	51.578	0.100
510.700	53.848	0.100
510.800	50.365	0.100
510.900	61.007	0.100
511.000	73.124	0.100
511.100	59.549	0.100
511.200	56.464	0.100
511.300	55.999	0.100
511.400	56.022	0.100
511.500	60.616	0.100
511.600	53.615	0.100
511.700	61.824	0.100
511.800	55.205	0.100
511.900	52.639	0.100
512.000	70.977	0.100
512.100	72.492	0.100
512.200	67.682	0.100
512.300	71.833	0.100
512.400	56.887	0.100
512.500	51.774	0.100
512.600	65.795	0.100
512.700	57.419	0.100
512.800	48.601	0.100
512.900	61.176	0.100
513.000	64.551	0.100
513.100	62.002	0.100
513.200	70.075	0.100
513.300	68.646	0.100
513.400	61.708	0.100
513.500	70.058	0.100
513.600	70.953	0.100
513.700	76.107	0.100
513.800	66.944	0.100
513.900	64.810	0.100
514.000	60.011	0.100
514.100	60.084	0.100
514.200	59.626	0.100
514.300	59.151	0.100
514.400	59.280	0.100
514.500	70.518	0.100
514.600	59.082	0.100
514.700	59.884	0.100
514.800	64.737	0.100
514.900	53.434	0.100
515.000	69.914	0.100
515.100	53.235	0.100
515.200	64.740	0.100
515.300	73.067	0.100
515.400	67.925	0.100
515.500	60.756	0.100
515.600	67.830	0.100
515.700	61.813	0.100
515.800	72.201	0.100
515.900	68.627	0.100
516.000	57.731	0.100
516.100	65.673	0.100
516.200	66.917	0.100
516.300	58.088	0.100
516.400	68.937	0.100
516.500	65.290	0.100
516.600	62.746	0.100
516.700	61.729	0.100
516.800	68.085	0.100
516.900	56.330	0.100
517.000	69.622	0.100
517.100	67.947	0.100
517.200	67.705	0.100
517.300	66.678	0.100
517.400	71.266	0.100
517.500	65.595	0.100
517.600	76.142	0.100
517.700	67.487	0.100
517.800	65.341	0.100
517.900	71.946	0.100
518.000	65.307	0.100
518.100	70.997	0.100
518.200	70.018	0.100
518.300	56.103	0.100
518.400	61.465	0.100
518.500	72.671	0.100
518.600	66.863	0.100
518.700	55.326	0.100
518.800	63.716	0.100
518.900	62.658	0.100
519.000	61.472	0.100
519.100	60.996	0.100
519.200	70.813	0.100
519.300	72.964	0.100
519.400	72.969	0.100
519.500	73.921	0.100
519.600	73.131	0.100
519.700	74.820	0.100
519.800	66.208	0.100
519.900	61.042	0.100
520.000	68.945	0.100
520.100	67.226	0.100
520.200	71.799	0.100
520.300	71.742	0.100
520.400	63.612	0.100
520.500	69.751	0.100
520.600	73.703	0.100
520.700	69.520	0.100
520.800	77.604	0.100
520.900	73.475	0.100
521.000	63.538	0.100
521.100	76.153	0.100
521.200	73.938	0.100
521.300	72.938	0.100
521.400	66.586	0.100
521.500	60.005	0.100
521.600	65.321	0.100
521.700	71.977	0.100
521.800	69.768	0.100
521.900	66.348	0.100
522.000	69.748	0.100
522.100	72.674	0.100
522.200	71.203	0.100
522.300	73.263	0.100
522.400	78.489	0.100
522.500	63.563	0.100
522.600	80.449	0.100
522.700	75.769	0.100
522.800	49.447	0.100
522.900	56.922	0.100
523.000	67.048	0.100
523.100	72.927	0.100
523.200	67.872	0.100
523.300	74.586	0.100
523.400	74.437	0.100
523.500	67.377	0.100
523.600	84.240	0.100
523.700	76.203	0.100
523.800	70.407	0.100
523.900	64.090	0.100
524.000	66.051	0.100
524.100	67.622	0.100
524.200	66.696	0.100
524.300	66.055	0.100
524.400	62.566	0.100
524.500	70.956	0.100
524.600	68.831	0.100
524.700	61.858	0.100
524.800	67.283	0.100
524.900	61.418	0.100
525.000	81.495	0.100
525.100	73.689	0.100
525.200	72.795	0.100
525.300	65.306	0.100
525.400	69.802	0.100
525.500	59.532	0.100
525.600	72.792	0.100
525.700	78.538	0.100
525.800	70.094	0.100
525.900	68.473	0.100
526.000	75.222	0.100
526.100	66.785	0.100
526.200	69.572	0.100
526.300	75.730	0.100
526.400	79.307	0.100
526.500	64.211	0.100
526.600	66.512	0.100
526.700	69.458	0.100
526.800	68.528	0.100
526.900	71.862	0.100
527.000	68.549	0.100
527.100	64.746	0.100
527.200	65.004	0.100
527.300	70.173	0.100
527.400	64.409	0.100
527.500	61.465	0.100
527.600	69.707	0.100
527.700	81.431	0.100
527.800	67.439	0.100
527.900	68.445	0.100
528.000	80.236	0.100
528.100	65.962	0.100
528.200	77.180	0.100
528.300	63.153	0.100
528.400	72.983	0.100
528.500	72.964	0.100
528.600	59.073	0.100
528.700	73.237	0.100
528.800	75.037	0.100
528.900	65.071	0.100
529.000	73.861	0.100
529.100	65.463	0.100
529.200	79.623	0.100
529.300	73.501	0.100
529.400	72.158	0.100
529.500	60.497	0.100
529.600	63.218	0.100
529.700	67.491	0.100
529.800	68.888	0.100
529.900	78.559	0.100
530.000	85.862	0.100
530.100	76.461	0.100
530.200	64.965	0.100
530.300	71.601	0.100
530.400	67.769	0.100
530.500	67.232	0.100
530.600	78.737	0.100
530.700	77.033	0.100
530.800	77.028	0.100
530.900	66.089	0.100
531.000	74.935	0.100
531.100	62.905	0.100
531.200	62.258	0.100
531.300	66.087	0.100
531.400	60.711	0.100
531.500	63.475	0.100
531.600	57.892	0.100
531.700	80.781	0.100
531.800	76.876	0.100
531.900	63.596	0.100
532.000	69.072	0.100
532.100	84.966	0.100
532.200	78.052	0.100
532.300	73.335	0.100
532.400	67.783	0.100
532.500	55.860	0.100
532.600	78.690	0.100
532.700	75.946	0.100
532.800	69.395	0.100
532.900	70.352	0.100
533.000	65.755	0.100
533.100	63.983	0.100
533.200	64.870	0.100
533.300	89.725	0.100
533.400	77.658	0.100
533.500	74.371	0.100
533.600	67.530	0.100
533.700	71.175	0.100
533.800	67.967	0.100
533.900	69.398	0.100
534.000	71.617	0.100
534.100	66.147	0.100
534.200	73.220	0.100
534.300	64.539	0.100
534.400	71.272	0.100
534.500	76.027	0.100
534.600	71.505	0.100
534.700	62.264	0.100
534.800	71.089	0.100
534.900	84.483	0.100
535.000	74.443	0.100
535.100	67.145	0.100
535.200	67.145	0.100
535.300	64.863	0.100
535.400	70.304	0.100
535.500	68.755	0.100
535.600	80.266	0.100
535.700	73.266	0.100
535.800	73.275	0.100
535.900	73.445	0.100
536.000	85.326	0.100
536.100	64.070	0.100
536.200	66.552	0.100
536.300	68.025	0.100
536.400	75.645	0.100
536.500	69.264	0.100
536.600	72.722	0.100
536.700	73.387	0.100
536.800	64.893	0.100
536.900	66.940	0.100
537.000	59.594	0.100
537.100	67.873	0.100
537.200	81.254	0.100
537.300	67.577	0.100
537.400	62.827	0.100
537.500	89.978	0.100
537.600	78.598	0.100
537.700	65.548	0.100
537.800	75.466	0.100
537.900	72.296	0.100
538.000	66.457	0.100
538.100	66.412	0.100
538.200	60.837	0.100
538.300	69.691	0.100
538.400	64.122	0.100
538.500	73.522	0.100
538.600	72.386	0.100
538.700	80.736	0.100
538.800	72.451	0.100
538.900	71.446	0.100
539.000	70.380	0.100
539.100	59.039	0.100
539.200	67.881	0.100
539.300	80.247	0.100
539.400	85.490	0.100
539.500	70.697	0.100
539.600	74.502	0.100
539.700	80.351	0.100
539.800	69.005	0.100
539.900	67.674	0.100
540.000	53.626	0.100
540.100	81.740	0.100
540.200	81.148	0.100
540.300	73.660	0.100
540.400	83.046	0.100
540.500	73.714	0.100
540.600	69.100	0.100
540.700	65.111	0.100
540.800	78.547	0.100
540.900	74.753	0.100
541.000	69.641	0.100
541.100	78.889	0.100
541.200	71.128	0.100
541.300	69.720	0.100
541.400	69.167	0.100
541.500	67.758	0.100
541.600	55.676	0.100
541.700	66.446	0.100
541.800	63.932	0.100
541.900	56.238	0.100
542.000	64.565	0.100
542.100	51.416	0.100
542.200	58.220	0.100
542.300	54.773	0.100
542.400	57.667	0.100
542.500	53.925	0.100
542.600	46.300	0.100
542.700	49.219	0.100
542.800	51.204	0.100
542.900	56.870	0.100
543.000	65.138	0.100
543.100	43.059	0.100
543.200	49.539	0.100
543.300	42.207	0.100
543.400	41.053	0.100
543.500	43.084	0.100
543.600	44.255	0.100
543.700	41.445	0.100
543.800	45.558	0.100
543.900	41.523	0.100
544.000	42.247	0.100
544.100	44.925	0.100
544.200	51.314	0.100
544.300	36.894	0.100
544.400	34.754	0.100
544.500	52.430	0.100
544.600	32.931	0.100
544.700	36.508	0.100
544.800	35.162	0.100
544.900	36.324	0.100
545.000	30.640	0.100
545.100	24.531	0.100
545.200	17.941	0.100
545.300	26.013	0.100
545.400	28.265	0.100
545.500	29.767	0.100
545.600	30.170	0.100
545.700	20.893	0.100
545.800	34.297	0.100
545.900	31.362	0.100
546.000	32.341	0.100
546.100	38.243	0.100
546.200	20.128	0.100
546.300	20.965	0.100
546.400	14.475	0.100
546.500	19.886	0.100
546.600	14.156	0.100
546.700	22.797	0.100
546.800	16.372	0.100
546.900	28.455	0.100
547.000	20.977	0.100
547.100	21.827	0.100
547.200	29.606	0.100
547.300	12.995	0.100
547.400	12.440	0.100
547.500	24.702	0.100
547.600	26.813	0.100
547.700	5.921	0.100
547.800	18.977	0.100
547.900	20.965	0.100
548.000	19.037	0.100
548.100	19.674	0.100
548.200	23.813	0.100
548.300	27.591	0.100
548.400	13.598	0.100
548.500	6.177	0.100
548.600	22.274	0.100
548.700	14.584	0.100
548.800	6.989	0.100
548.900	27.932	0.100
549.000	10.763	0.100
549.100	16.323	0.100
549.200	4.028	0.100
549.300	12.776	0.100
549.400	12.031	0.100
549.500	10.797	0.100
549.600	17.032	0.100
549.700	12.394	0.100
549.800	16.236	0.100
549.900	8.283	0.100
550.000	16.198	0.100
550.100	11.613	0.100
550.200	8.619	0.100
550.300	9.444	0.100
550.400	8.297	0.100
550.500	8.390	0.100
550.600	2.294	0.100
550.700	0.387	0.100
550.800	4.662	0.100
550.900	10.067	0.100
551.000	16.682	0.100
551.100	9.647	0.100
551.200	3.698	0.100
551.300	0.430	0.100
551.400	9.850	0.100
551.500	24.217	0.100
551.600	14.999	0.100
551.700	0.355	0.100
551.800	4.060	0.100
551.900	-0.709	0.100
552.000	6.609	0.100
552.100	-1.275	0.100
552.200	15.436	0.100
552.300	20.528	0.100
552.400	7.593	0.100
552.500	13.458	0.100
552.600	3.120	0.100
552.700	16.530	0.100
552.800	11.846	0.100
552.900	11.427	0.100
553.000	5.398	0.100
553.100	3.183	0.100
553.200	4.837	0.100
553.300	3.885	0.100
553.400	6.181	0.100
553.500	6.545	0.100
553.600	3.879	0.100
553.700	0.744	0.100
553.800	8.027	0.100
553.900	1.494	0.100
554.000	6.727	0.100
554.100	16.431	0.100
554.200	-2.250	0.100
554.300	2.482	0.100
554.400	-3.458	0.100
554.500	-4.026	0.100
554.600	-2.769	0.100
554.700	-3.839	0.100
554.800	5.394	0.100
554.900	3.326	0.100
555.000	12.030	0.100
555.100	3.312	0.100
555.200	0.870	0.100
555.300	1.052	0.100
555.400	7.780	0.100
555.500	5.469	0.100
555.600	8.714	0.100
555.700	-0.654	0.100
555.800	2.421	0.100
555.900	7.521	0.100
556.000	-1.594	0.100
556.100	1.828	0.100
556.200	7.757	0.100
556.300	2.760	0.100
556.400	-0.396	0.100
556.500	-6.941	0.100
556.600	3.017	0.100
556.700	-6.490	0.100
556.800	4.581	0.100
556.900	-0.718	0.100
557.000	-5.168	0.100
557.100	-7.069	0.100
557.200	-7.529	0.100
557.300	9.493	0.100
557.400	-0.018	0.100
557.500	2.539	0.100
557.600	-1.371	0.100
557.700	2.056	0.100
557.800	-2.605	0.100
557.900	3.703	0.100
558.000	1.209	0.100
558.100	2.650	0.100
558.200	-1.503	0.100
558.300	-4.920	0.100
558.400	-10.039	0.100
558.500	0.139	0.100
558.600	0.468	0.100
558.700	-2.325	0.100
558.800	-4.192	0.100
558.900	1.186	0.100
559.000	-6.640	0.100
559.100	-5.775	0.100
559.200	-1.046	0.100
559.300	-4.434	0.100
559.400	-5.805	0.100
559.500	3.462	0.100
559.600	2.430	0.100
559.700	-8.714	0.100
559.800	-1.207	0.100
559.900	0.655	0.100
560.000	-8.058	0.100
560.100	-1.830	0.100
560.200	-6.202	0.100
560.300	-1.359	0.100
560.400	-6.879	0.100
560.500	1.193	0.100
560.600	-11.503	0.100
560.700	-4.785	0.100
560.800	0.727	0.100
560.900	-6.068	0.100
561.000	-16.745	0.100
561.100	-11.242	0.100
561.200	-4.111	0.100
561.300	-7.457	0.100
561.400	-5.811	0.100
561.500	-0.968	0.100
561.600	-4.886	0.100
561.700	-7.874	0.100
561.800	-3.714	0.100
561.900	-7.152	0.100
562.000	1.785	0.100
562.100	-3.186	0.100
562.200	-1.528	0.100
562.300	-17.302	0.100
562.400	-13.247	0.100
562.500	-12.977	0.100
562.600	-12.174	0.100
562.700	-10.187	0.100
562.800	-6.795	0.100
562.900	1.446	0.100
563.000	-3.036	0.100
563.100	1.714	0.100
563.200	-10.609	0.100
563.300	-3.948	0.100
563.400	-10.724	0.100
563.500	-12.902	0.100
563.600	-13.902	0.100
563.700	-6.858	0.100
563.800	-13.023	0.100
563.900	-7.108	0.100
564.000	-9.410	0.100
564.100	-10.422	0.100
564.200	-11.342	0.100
564.300	-6.226	0.100
564.400	-5.752	0.100
564.500	-7.831	0.100
564.600	-10.624	0.100
564.700	-14.354	0.100
564.800	-4.633	0.100
564.900	-3.491	0.100
565.000	-6.002	0.100
565.100	-12.257	0.100
565.200	-15.209	0.100
565.300	-14.736	0.100
565.400	-20.565	0.100
565.500	2.061	0.100
565.600	-8.987	0.100
565.700	-6.396	0.100
565.800	-8.239	0.100
565.900	-10.966	0.100
566.000	-4.060	0.100
566.100	-9.427	0.100
566.200	-10.908	0.100
566.300	-8.779	0.100
566.400	-10.503	0.100
566.500	-13.014	0.100
566.600	-15.456	0.100
566.700	-9.218	0.100
566.800	-12.974	0.100
566.900	-8.179	0.100
567.000	-13.537	0.100
567.100	-12.703	0.100
567.200	-9.826	0.100
567.300	-9.455	0.100
567.400	-20.624	0.100
567.500	-8.817	0.100
567.600	-18.629	0.100
567.700	-24.789	0.100
567.800	-27.165	0.100
567.900	-23.087	0.100
568.000	-2.167	0.100
568.100	-11.870	0.100
568.200	-10.572	0.100
568.300	-18.901	0.100
568.400	-9.484	0.100
568.500	-13.560	0.100
568.600	-18.389	0.100
568.700	-25.089	0.100
568.800	-5.783	0.100
568.900	-13.883	0.100
569.000	-14.708	0.100
569.100	-10.163	0.100
569.200	-9.514	0.100
569.300	-15.879	0.100
569.400	-14.014	0.100
569.500	-11.070	0.100
569.600	-11.251	0.100
569.700	-12.753	0.100
569.800	-21.033	0.100
569.900	-13.201	0.100
570.000	-24.618	0.100
570.100	-23.651	0.100
570.200	-16.324	0.100
570.300	-12.927	0.100
570.400	-12.136	0.100
570.500	-16.347	0.100
570.600	-18.133	0.100
570.700	-25.898	0.100
570.800	-25.914	0.100
570.900	-19.265	0.100
571.000	-18.373	0.100
571.100	-18.430	0.100
571.200	-18.307	0.100
571.300	-26.177	0.100
571.400	-14.987	0.100
571.500	-18.493	0.100
571.600	-13.767	0.100
571.700	-19.635	0.100
571.800	-20.219	0.100
571.900	-25.385	0.100
572.000	-19.448	0.100
572.100	-19.782	0.100
572.200	-22.531	0.100
572.300	-30.074	0.100
572.400	-14.105	0.100
572.500	-14.599	0.100
572.600	-11.017	0.100
572.700	-5.020	0.100
572.800	-18.402	0.100
572.900	-19.692	0.100
573.000	-14.921	0.100
573.100	-14.861	0.100
573.200	-19.322	0.100
573.300	-19.409	0.100
573.400	-23.574	0.100
573.500	-16.528	0.100
573.600	-19.863	0.100
573.700	-22.684	0.100
573.800	-31.842	0.100
573.900	-25.271	0.100
574.000	-18.004	0.100
574.100	-27.037	0.100
574.200	-24.844	0.100
574.300	-21.779	0.100
574.400	-16.459	0.100
574.500	-21.770	0.100
574.600	-23.213	0.100
574.700	-31.673	0.100
574.800	-9.594	0.100
574.900	-18.260	0.100
575.000	-17.460	0.100
575.100	-20.188	0.100
575.200	-22.175	0.100
575.300	-20.932	0.100
575.400	-22.342	0.100
575.500	-22.636	0.100
575.600	-26.277	0.100
575.700	-16.518	0.100
575.800	-19.960	0.100
575.900	-13.094	0.100
576.000	-18.760	0.100
576.100	-17.995	0.100
576.200	-23.501	0.100
576.300	-21.099	0.100
576.400	-28.391	0.100
576.500	-30.319	0.100
576.600	-37.432	0.100
576.700	-33.327	0.100
576.800	-18.284	0.100
576.900	-13.385	0.100
577.000	-31.058	0.100
577.100	-24.554	0.099
577.200	-28.986	0.099
577.300	-23.397	0.099
577.400	-30.664	0.099
577.500	-17.265	0.099
577.600	-30.264	0.099
577.700	-21.295	0.099
577.800	-24.615	0.099
577.900	-34.254	0.099
578.000	-41.764	0.100
578.100	-40.224	0.099
578.200	-22.690	0.099
578.300	-25.287	0.099
578.400	-20.009	0.099
578.500	-20.970	0.099
578.600	-29.596	0.099
578.700	-15.986	0.099
578.800	-28.460	0.100
578.900	-33.689	0.099
579.000	-32.513	0.099
579.100	-38.550	0.100
579.200	-35.642	0.099
579.300	-28.232	0.099
579.400	-23.007	0.099
579.500	-26.418	0.099
579.600	-29.895	0.099
579.700	-28.072	0.099
579.800	-26.093	0.099
579.900	-29.318	0.099
580.000	-31.402	0.099
580.100	-30.011	0.099
580.200	-35.404	0.099
580.300	-17.524	0.099
580.400	-24.177	0.099
580.500	-28.106	0.099
580.600	-26.853	0.099
580.700	-24.539	0.099
580.800	-17.513	0.099
580.900	-28.160	0.099
581.000	-15.327	0.099
581.100	-25.175	0.100
581.200	-36.834	0.099
581.300	-27.162	0.099
581.400	-33.629	0.100
581.500	-28.655	0.099
581.600	-31.222	0.099
581.700	-22.912	0.099
581.800	-30.946	0.099
581.900	-20.131	0.100
582.000	-41.202	0.099
582.100	-31.894	0.100
582.200	-28.383	0.099
582.300	-27.609	0.099
582.400	-29.088	0.099
582.500	-26.351	0.099
582.600	-43.188	0.099
582.700	-26.760	0.099
582.800	-30.785	0.099
582.900	-26.507	0.099
583.000	-35.167	0.099
583.100	-27.536	0.099
583.200	-32.482	0.099
583.300	-34.808	0.099
583.400	-35.922	0.099
583.500	-32.415	0.099
583.600	-34.793	0.099
583.700	-31.106	0.099
583.800	-27.204	0.099
583.900	-32.614	0.099
584.000	-35.472	0.099
584.100	-28.702	0.099
584.200	-38.846	0.099
584.300	-21.815	0.099
584.400	-20.476	0.099
584.500	-29.240	0.099
584.600	-35.059	0.099
584.700	-36.258	0.099
584.800	-30.790	0.099
584.900	-27.154	0.099
585.000	-33.874	0.099
585.100	-33.770	0.099
585.200	-31.621	0.099
585.300	-27.922	0.099
585.400	-26.440	0.099
585.500	-41.961	0.099
585.600	-41.606	0.099
585.700	-42.913	0.099
585.800	-40.307	0.099
585.900	-41.485	0.099
586.000	-43.702	0.099
586.100	-33.700	0.099
586.200	-28.724	0.099
586.300	-30.473	0.099
586.400	-38.196	0.099
586.500	-28.615	0.099
586.600	-16.282	0.099
586.700	-29.349	0.099
586.800	-40.353	0.099
586.900	-42.514	0.099
587.000	-30.077	0.099
587.100	-35.122	0.099
587.200	-40.267	0.099
587.300	-36.787	0.099
587.400	-33.609	0.099
587.500	-32.116	0.099
587.600	-27.453	0.099
587.700	-45.914	0.099
587.800	-35.987	0.099
587.900	-28.730	0.099
588.000	-42.083	0.099
588.100	-45.072	0.099
588.200	-36.427	0.099
588.300	-34.302	0.099
588.400	-23.640	0.099
588.500	-31.478	0.099
588.600	-39.649	0.099
588.700	-38.542	0.099
588.800	-36.433	0.099
588.900	-40.144	0.099
589.000	-35.174	0.099
589.100	-30.980	0.099
589.200	-43.444	0.099
589.300	-35.928	0.099
589.400	-39.791	0.099
589.500	-41.335	0.099
589.600	-31.888	0.099
589.700	-40.550	0.099
589.800	-27.983	0.099
589.900	-29.611	0.099
590.000	-31.877	0.099
590.100	-32.119	0.099
590.200	-25.291	0.099
590.300	-32.881	0.099
590.400	-47.199	0.099
590.500	-36.870	0.099
590.600	-37.228	0.099
590.700	-30.729	0.099
590.800	-22.857	0.099
590.900	-31.084	0.099
591.000	-23.870	0.099
591.100	-47.629	0.099
591.200	-39.828	0.099
591.300	-33.946	0.099
591.400	-47.409	0.099
591.500	-37.445	0.099
591.600	-35.666	0.099
591.700	-39.850	0.099
591.800	-35.921	0.099
591.900	-34.518	0.099
592.000	-32.254	0.099
592.100	-37.018	0.099
592.200	-45.474	0.099
592.300	-40.414	0.099
592.400	-39.172	0.099
592.500	-31.791	0.099
592.600	-41.695	0.099
592.700	-39.758	0.099
592.800	-39.175	0.099
592.900	-36.580	0.099
593.000	-37.889	0.099
593.100	-35.720	0.099
593.200	-33.670	0.099
593.300	-38.019	0.099
593.400	-37.208	0.099
593.500	-31.392	0.099
593.600	-30.692	0.099
593.700	-28.763	0.100
593.800	-32.297	0.100
593.900	-27.664	0.100
594.000	-35.930	0.100
594.100	-40.227	0.100
594.200	-37.995	0.100
594.300	-37.960	0.100
594.400	-44.876	0.100
594.500	-45.724	0.100
594.600	-32.055	0.100
594.700	-23.748	0.100
594.800	-33.966	0.100
594.900	-27.756	0.100
595.000	-30.367	0.100
595.100	-35.553	0.100
595.200	-37.799	0.100
595.300	-40.084	0.100
595.400	-37.737	0.100
595.500	-23.761	0.100
595.600	-33.030	0.100
595.700	-37.251	0.100
595.800	-27.690	0.100
595.900	-33.723	0.100
596.000	-34.756	0.100
596.100	-38.829	0.100
596.200	-38.515	0.100
596.300	-35.833	0.100
596.400	-30.008	0.100
596.500	-21.500	0.100
596.600	-39.424	0.100
596.700	-30.060	0.100
596.800	-35.269	0.100
596.900	-33.690	0.100
597.000	-35.680	0.100
597.100	-36.972	0.100
597.200	-35.064	0.100
597.300	-41.797	0.100
597.400	-33.312	0.100
597.500	-34.983	0.100
597.600	-25.389	0.100
597.700	-31.204	0.100
597.800	-28.388	0.100
597.900	-38.380	0.100
598.000	-44.375	0.100
598.100	-39.264	0.100
598.200	-21.740	0.100
598.300	-27.002	0.100
598.400	-33.004	0.100
598.500	-38.309	0.100
598.600	-31.813	0.100
598.700	-45.445	0.100
598.800	-33.001	0.100
598.900	-21.223	0.100
599.000	-41.511	0.100
599.100	-51.000	0.100
599.200	-33.056	0.100
599.300	-35.007	0.100
599.400	-23.219	0.100
599.500	-26.665	0.100
599.600	-27.534	0.100
599.700	-49.198	0.100
599.800	-39.865	0.100
599.900	-36.253	0.100
600.000	-36.068	0.100
600.100	-34.127	0.100
600.200	-34.771	0.100
600.300	-38.203	0.100
600.400	-43.374	0.100
600.500	-33.422	0.100
600.600	-35.009	0.100
600.700	-38.954	0.100
600.800	-47.961	0.100
600.900	-41.237	0.100
601.000	-24.928	0.100
601.100	-33.257	0.100
601.200	-34.912	0.100
601.300	-31.346	0.100
601.400	-23.913	0.100
601.500	-33.433	0.100
601.600	-38.734	0.100
601.700	-33.575	0.100
601.800	-30.721	0.100
601.900	-29.010	0.100
602.000	-36.490	0.100
602.100	-35.623	0.100
602.200	-40.464	0.100
602.300	-38.547	0.100
602.400	-26.167	0.100
602.500	-41.510	0.100
602.600	-31.966	0.100
602.700	-31.817	0.100
602.800	-32.634	0.100
602.900	-29.787	0.100
603.000	-27.969	0.100
603.100	-37.618	0.100
603.200	-42.549	0.100
603.300	-38.128	0.100
603.400	-38.045	0.100
603.500	-37.797	0.100
603.600	-42.801	0.100
603.700	-30.988	0.100
603.800	-33.555	0.100
603.900	-28.851	0.100
604.000	-41.197	0.100
604.100	-41.816	0.100
604.200	-41.931	0.100
604.300	-33.313	0.100
604.400	-39.183	0.100
604.500	-41.170	0.100
604.600	-31.803	0.100
604.700	-30.151	0.100
604.800	-36.373	0.100
604.900	-28.414	0.100
605.000	-36.214	0.100
605.100	-39.347	0.100
605.200	-36.693	0.100
605.300	-29.007	0.100
605.400	-34.845	0.100
605.500	-39.775	0.100
605.600	-40.023	0.100
605.700	-34.244	0.100
605.800	-32.432	0.100
605.900	-33.709	0.100
606.000	-37.003	0.100
606.100	-36.227	0.100
606.200	-35.725	0.100
606.300	-39.900	0.100
606.400	-33.131	0.100
606.500	-22.810	0.100
606.600	-34.166	0.100
606.700	-36.232	0.100
606.800	-34.155	0.100
606.900	-37.235	0.100
607.000	-38.450	0.100
607.100	-36.496	0.100
607.200	-35.075	0.100
607.300	-37.061	0.100
607.400	-24.787	0.100
607.500	-36.779	0.100
607.600	-31.719	0.100
607.700	-36.647	0.100
607.800	-42.609	0.100
607.900	-43.161	0.100
608.000	-26.999	0.100
608.100	-36.816	0.100
608.200	-37.486	0.100
608.300	-38.827	0.100
608.400	-36.243	0.100
608.500	-32.766	0.100
608.600	-30.149	0.100
608.700	-41.015	0.100
608.800	-40.697	0.100
608.900	-42.263	0.100
609.000	-41.298	0.100
609.100	-37.710	0.100
609.200	-35.909	0.100
609.300	-33.637	0.100
609.400	-40.849	0.100
609.500	-36.974	0.100
609.600	-30.674	0.100
609.700	-42.313	0.100
609.800	-34.903	0.100
609.900	-26.145	0.100
610.000	-34.858	0.100
610.100	-27.284	0.100
610.200	-45.428	0.100
610.300	-39.721	0.100
610.400	-32.257	0.100
610.500	-29.535	0.100
610.600	-34.688	0.100
610.700	-36.879	0.100
610.800	-48.850	0.100
610.900	-38.341	0.100
611.000	-33.913	0.100
611.100	-29.387	0.100
611.200	-34.949	0.100
611.300	-43.630	0.100
611.400	-41.922	0.100
611.500	-28.961	0.100
611.600	-32.610	0.100
611.700	-41.501	0.100
611.800	-33.063	0.100
611.900	-30.854	0.100
612.000	-35.567	0.100
612.100	-46.383	0.100
612.200	-39.439	0.100
612.300	-38.065	0.100
612.400	-35.771	0.100
612.500	-28.612	0.100
612.600	-28.265	0.100
612.700	-37.907	0.100
612.800	-33.218	0.100
612.900	-44.674	0.100
613.000	-31.998	0.100
613.100	-37.694	0.100
613.200	-29.789	0.100
613.300	-30.203	0.100
613.400	-30.197	0.100
613.500	-45.184	0.100
613.600	-41.275	0.100
613.700	-38.774	0.100
613.800	-32.993	0.100
613.900	-28.984	0.100
614.000	-40.992	0.100
614.100	-53.784	0.100
614.200	-35.968	0.100
614.300	-31.484	0.100
614.400	-27.180	0.100
614.500	-33.085	0.100
614.600	-30.640	0.100
614.700	-34.655	0.100
614.800	-43.077	0.100
614.900	-44.335	0.100
615.000	-25.025	0.100
615.100	-34.609	0.100
615.200	-44.507	0.100
615.300	-31.875	0.100
615.400	-37.506	0.100
615.500	-39.056	0.100
615.600	-32.118	0.100
615.700	-34.874	0.100
615.800	-33.979	0.100
615.900	-35.553	0.100
616.000	-37.742	0.100
616.100	-40.233	0.100
616.200	-39.171	0.100
616.300	-30.816	0.100
616.400	-35.076	0.100
616.500	-30.175	0.100
616.600	-34.745	0.100
616.700	-30.168	0.100
616.800	-41.202	0.100
616.900	-44.251	0.100
617.000	-43.633	0.100
617.100	-37.553	0.100
617.200	-29.389	0.100
617.300	-43.789	0.100
617.400	-43.595	0.100
617.500	-34.941	0.100
617.600	-35.882	0.100
617.700	-42.479	0.100
617.800	-25.015	0.100
617.900	-36.781	0.100
618.000	-30.255	0.100
618.100	-32.763	0.100
618.200	-35.283	0.100
618.300	-30.618	0.100
618.400	-40.354	0.100
618.500	-43.834	0.100
618.600	-40.141	0.100
618.700	-45.381	0.100
618.800	-40.710	0.100
618.900	-42.187	0.100
619.000	-40.849	0.100
619.100	-36.765	0.100
619.200	-37.224	0.100
619.300	-34.662	0.100
619.400	-32.006	0.100
619.500	-27.716	0.100
619.600	-38.496	0.100
619.700	-32.833	0.100
619.800	-29.643	0.100
619.900	-37.929	0.100
620.000	-32.688	0.100
620.100	-29.182	0.100
620.200	-36.520	0.100
620.300	-29.111	0.100
620.400	-37.523	0.100
620.500	-44.919	0.100
620.600	-34.543	0.100
620.700	-43.277	0.100
620.800	-31.100	0.100
620.900	-33.056	0.100
621.000	-46.329	0.100
621.100	-44.041	0.100
621.200	-36.444	0.100
621.300	-39.390	0.100
621.400	-45.601	0.100
621.500	-29.622	0.100
621.600	-25.592	0.100
621.700	-37.109	0.100
621.800	-40.323	0.100
621.900	-37.661	0.100
622.000	-32.072	0.100
622.100	-36.493	0.100
622.200	-44.652	0.100
622.300	-52.932	0.100
622.400	-46.386	0.100
622.500	-36.746	0.100
622.600	-29.916	0.100
622.700	-37.420	0.100
622.800	-29.030	0.100
622.900	-32.464	0.100
623.000	-37.673	0.100
623.100	-46.799	0.100
623.200	-38.352	0.100
623.300	-33.269	0.100
623.400	-37.038	0.100
623.500	-44.249	0.100
623.600	-28.005	0.100
623.700	-32.556	0.100
623.800	-29.844	0.100
623.900	-35.807	0.100
624.000	-42.171	0.100
624.100	-37.454	0.100
624.200	-47.570	0.100
624.300	-34.766	0.100
624.400	-41.283	0.100
624.500	-36.310	0.100
624.600	-36.529	0.100
624.700	-29.260	0.100
624.800	-43.967	0.100
624.900	-32.853	0.100
625.000	-33.440	0.100
625.100	-37.070	0.100
625.200	-47.090	0.100
625.300	-29.930	0.100
625.400	-38.324	0.100
625.500	-35.412	0.100
625.600	-38.306	0.100
625.700	-32.168	0.100
625.800	-33.965	0.100
625.900	-41.734	0.100
626.000	-41.862	0.100
626.100	-39.819	0.100
626.200	-27.099	0.100
626.300	-31.854	0.100
626.400	-46.331	0.100
626.500	-28.127	0.100
626.600	-38.875	0.100
626.700	-34.633	0.100
626.800	-42.172	0.100
626.900	-31.721	0.100
627.000	-44.403	0.100
627.100	-30.388	0.100
627.200	-40.639	0.100
627.300	-47.239	0.100
627.400	-30.511	0.100
627.500	-20.348	0.100
627.600	-31.029	0.100
627.700	-34.757	0.100
627.800	-40.970	0.100
627.900	-34.851	0.100
628.000	-37.003	0.100
628.100	-42.158	0.100
628.200	-42.252	0.100
628.300	-40.504	0.100
628.400	-26.633	0.100
628.500	-23.184	0.100
628.600	-32.413	0.100
628.700	-36.519	0.100
628.800	-33.109	0.100
628.900	-42.882	0.100
629.000	-34.268	0.100
629.100	-37.946	0.100
629.200	-50.692	0.100
629.300	-37.865	0.100
629.400	-41.130	0.100
629.500	-41.352	0.100
629.600	-31.868	0.100
629.700	-35.446	0.100
629.800	-28.596	0.100
629.900	-28.573	0.100
630.000	-33.811	0.100
630.100	-33.463	0.100
630.200	-38.208	0.100
630.300	-37.932	0.100
630.400	-39.796	0.100
630.500	-32.188	0.100
630.600	-29.737	0.100
630.700	-35.331	0.100
630.800	-38.646	0.100
630.900	-32.093	0.100
631.000	-34.264	0.100
631.100	-32.030	0.100
631.200	-28.274	0.100
631.300	-26.159	0.100
631.400	-28.247	0.100
631.500	-30.850	0.100
631.600	-26.196	0.100
631.700	-33.234	0.100
631.800	-34.126	0.100
631.900	-29.512	0.100
632.000	-37.921	0.100
632.100	-25.604	0.100
632.200	-40.915	0.100
632.300	-38.987	0.100
632.400	-28.069	0.100
632.500	-36.132	0.100
632.600	-18.163	0.100
632.700	-7.216	0.100
632.800	-16.008	0.100
632.900	-18.244	0.100
633.000	-17.487	0.100
633.100	-11.300	0.100
633.200	-19.163	0.100
633.300	-15.376	0.100
633.400	-13.353	0.100
633.500	-13.989	0.100
633.600	-17.901	0.100
633.700	-9.163	0.100
633.800	-9.275	0.100
633.900	-7.742	0.100
634.000	-14.056	0.100
634.100	-16.495	0.100
634.200	-11.504	0.100
634.300	-5.145	0.100
634.400	-5.788	0.100
634.500	-13.880	0.100
634.600	-5.691	0.100
634.700	-18.879	0.100
634.800	-5.196	0.100
634.900	-7.600	0.100
635.000	-19.126	0.100
635.100	-11.791	0.100
635.200	-7.244	0.100
635.300	-9.413	0.100
635.400	-8.306	0.100
635.500	-5.849	0.100
635.600	-15.160	0.100
635.700	-8.705	0.100
635.800	-3.534	0.100
635.900	-1.598	0.100
636.000	-12.019	0.100
636.100	-5.119	0.100
636.200	-12.157	0.100
636.300	-8.844	0.100
636.400	-1.105	0.100
636.500	-1.713	0.100
636.600	-6.105	0.100
636.700	8.148	0.100
636.800	-3.956	0.100
636.900	-8.593	0.100
637.000	7.411	0.100
637.100	-7.626	0.100
637.200	-4.028	0.100
637.300	-13.710	0.100
637.400	9.257	0.100
637.500	6.048	0.100
637.600	-2.831	0.100
637.700	0.195	0.100
637.800	-1.273	0.100
637.900	2.478	0.100
638.000	-1.564	0.100
638.100	-0.763	0.100
638.200	-9.455	0.100
638.300	-5.398	0.100
638.400	-14.389	0.100
638.500	7.051	0.100
638.600	1.524	0.100
638.700	-1.719	0.100
638.800	2.455	0.100
638.900	-3.094	0.100
639.000	-2.288	0.100
639.100	-3.899	0.100
639.200	-7.261	0.100
639.300	3.152	0.100
639.400	0.261	0.100
639.500	5.547	0.100
639.600	0.280	0.099
639.700	0.543	0.099
639.800	-3.245	0.100
639.900	1.192	0.100
640.000	-2.915	0.100
640.100	1.261	0.100
640.200	9.733	0.100
640.300	4.313	0.100
640.400	5.814	0.100
640.500	9.444	0.100
640.600	2.970	0.100
640.700	10.918	0.100
640.800	11.516	0.100
640.900	11.280	0.100
641.000	-2.561	0.100
641.100	9.011	0.100
641.200	7.684	0.100
641.300	6.482	0.100
641.400	-6.056	0.100
641.500	6.260	0.100
641.600	6.914	0.100
641.700	8.328	0.100
641.800	14.130	0.100
641.900	3.580	0.100
642.000	18.839	0.100
642.100	14.815	0.100
642.200	14.858	0.100
642.300	-3.022	0.100
642.400	9.089	0.100
642.500	7.748	0.100
642.600	4.561	0.100
642.700	4.293	0.100
642.800	7.947	0.100
642.900	16.293	0.100
643.000	8.844	0.100
643.100	19.547	0.099
643.200	11.090	0.100
643.300	13.981	0.100
643.400	6.045	0.100
643.500	11.156	0.100
643.600	13.294	0.100
643.700	19.239	0.099
643.800	20.833	0.099
643.900	18.860	0.099
644.000	7.212	0.099
644.100	3.804	0.099
644.200	9.020	0.099
644.300	14.643	0.099
644.400	10.618	0.099
644.500	11.381	0.099
644.600	8.791	0.099
644.700	11.091	0.099
644.800	13.297	0.099
644.900	7.452	0.099
645.000	10.834	0.099
645.100	22.983	0.099
645.200	24.522	0.099
645.300	13.743	0.099
645.400	10.320	0.099
645.500	4.002	0.099
645.600	10.043	0.099
645.700	19.923	0.099
645.800	12.819	0.099
645.900	20.801	0.099
646.000	27.143	0.099
646.100	20.797	0.099
646.200	23.792	0.099
646.300	14.708	0.099
646.400	10.770	0.099
646.500	12.292	0.099
646.600	16.443	0.099
646.700	15.856	0.099
646.800	19.425	0.099
646.900	22.063	0.099
647.000	5.990	0.099
647.100	13.092	0.099
647.200	19.823	0.099
647.300	15.249	0.099
647.400	14.461	0.099
647.500	24.911	0.099
647.600	21.637	0.099
647.700	22.818	0.099
647.800	16.717	0.099
647.900	28.001	0.099
648.000	25.664	0.099
648.100	32.140	0.099
648.200	25.208	0.099
648.300	29.803	0.099
648.400	11.984	0.099
648.500	21.114	0.099
648.600	22.538	0.099
648.700	31.208	0.099
648.800	24.649	0.099
648.900	24.788	0.099
649.000	24.499	0.099
649.100	17.416	0.099
649.200	24.477	0.099
649.300	27.177	0.099
649.400	28.000	0.099
649.500	16.921	0.099
649.600	23.781	0.099
649.700	22.590	0.099
649.800	30.046	0.099
649.900	27.431	0.099
650.000	26.629	0.099
650.100	28.860	0.099
650.200	20.212	0.099
650.300	27.293	0.099
650.400	20.524	0.099
650.500	27.163	0.099
650.600	20.755	0.099
650.700	34.677	0.099
650.800	19.628	0.099
650.900	35.982	0.099
651.000	34.135	0.099
651.100	26.137	0.099
651.200	28.124	0.099
651.300	33.456	0.099
651.400	31.821	0.099
651.500	27.595	0.099
651.600	22.910	0.099
651.700	32.689	0.099
651.800	32.361	0.099
651.900	29.649	0.099
652.000	28.515	0.099
652.100	29.847	0.099
652.200	35.126	0.099
652.300	26.783	0.099
652.400	38.448	0.099
652.500	32.218	0.099
652.600	37.265	0.099
652.700	35.085	0.099
652.800	34.219	0.099
652.900	32.338	0.099
653.000	39.189	0.099
653.100	40.919	0.099
653.200	28.726	0.099
653.300	26.064	0.099
653.400	29.964	0.099
653.500	38.266	0.099
653.600	47.767	0.099
653.700	40.933	0.099
653.800	50.588	0.099
653.900	36.552	0.099
654.000	38.194	0.099
654.100	39.406	0.099
654.200	35.140	0.099
654.300	33.250	0.099
654.400	43.136	0.099
654.500	34.748	0.099
654.600	32.245	0.099
654.700	47.827	0.099
654.800	23.038	0.099
654.900	34.527	0.099
655.000	37.253	0.099
655.100	42.639	0.099
655.200	42.918	0.099
655.300	50.471	0.100
655.400	50.059	0.100
655.500	30.975	0.100
655.600	44.692	0.100
655.700	48.137	0.100
655.800	50.106	0.100
655.900	48.754	0.100
656.000	57.992	0.100
656.100	54.342	0.100
656.200	49.144	0.100
656.300	51.791	0.100
656.400	49.300	0.100
656.500	38.709	0.100
656.600	48.385	0.100
656.700	51.810	0.100
656.800	48.934	0.100
656.900	45.882	0.100
657.000	40.211	0.100
657.100	44.255	0.100
657.200	41.807	0.100
657.300	46.012	0.100
657.400	53.188	0.100
657.500	59.043	0.100
657.600	49.062	0.100
657.700	55.203	0.100
657.800	57.163	0.100
657.900	52.688	0.100
658.000	47.045	0.100
658.100	41.031	0.100
658.200	45.075	0.099
658.300	57.149	0.100
658.400	50.928	0.100
658.500	45.577	0.100
658.600	45.135	0.100
658.700	44.316	0.100
658.800	40.722	0.100
658.900	45.708	0.100
659.000	47.396	0.099
659.100	49.527	0.100
659.200	42.409	0.100
659.300	53.698	0.100
659.400	43.887	0.100
659.500	45.951	0.100
659.600	57.368	0.100
659.700	76.087	0.100
659.800	63.100	0.100
659.900	49.343	0.100
660.000	50.014	0.100
660.100	52.737	0.100
660.200	48.127	0.099
660.300	56.027	0.100
660.400	51.132	0.100
660.500	43.712	0.100
660.600	62.057	0.100
660.700	58.677	0.100
660.800	55.282	0.100
660.900	62.413	0.100
661.000	56.839	0.100
661.100	53.654	0.100
661.200	61.044	0.100
661.300	57.981	0.100
661.400	50.548	0.100
661.500	55.229	0.100
661.600	52.046	0.100
661.700	53.640	0.100
661.800	57.002	0.100
661.900	67.988	0.100
662.000	64.556	0.100
662.100	63.912	0.100
662.200	50.951	0.100
662.300	57.267	0.100
662.400	63.080	0.100
662.500	58.133	0.100
662.600	60.897	0.100
662.700	67.283	0.100
662.800	62.877	0.100
662.900	54.675	0.100
663.000	67.656	0.100
663.100	62.906	0.100
663.200	66.254	0.100
663.300	64.482	0.100
663.400	59.468	0.100
663.500	63.167	0.100
663.600	65.134	0.100
663.700	61.990	0.100
663.800	57.598	0.100
663.900	56.638	0.100
664.000	56.723	0.100
664.100	50.094	0.100
664.200	62.943	0.100
664.300	69.894	0.100
664.400	66.265	0.100
664.500	63.960	0.100
664.600	58.826	0.100
664.700	65.002	0.100
664.800	69.555	0.100
664.900	62.149	0.100
665.000	65.275	0.100
665.100	52.099	0.100
665.200	79.645	0.100
665.300	77.610	0.100
665.400	62.404	0.100
665.500	66.947	0.100
665.600	52.161	0.100
665.700	55.795	0.100
665.800	73.606	0.100
665.900	65.531	0.100
666.000	66.156	0.100
666.100	65.811	0.100
666.200	58.311	0.100
666.300	61.496	0.100
666.400	62.560	0.100
666.500	65.053	0.100
666.600	62.005	0.100
666.700	49.769	0.100
666.800	64.331	0.100
666.900	67.190	0.100
667.000	58.893	0.100
667.100	63.918	0.100
667.200	55.909	0.100
667.300	72.343	0.100
667.400	61.387	0.100
667.500	63.369	0.100
667.600	67.047	0.100
667.700	67.872	0.100
667.800	71.325	0.100
667.900	63.644	0.100
668.000	70.430	0.100
668.100	58.409	0.100
668.200	59.244	0.100
668.300	66.185	0.100
668.400	55.579	0.100
668.500	61.443	0.100
668.600	62.543	0.100
668.700	55.988	0.100
668.800	65.923	0.100
668.900	68.335	0.100
669.000	63.575	0.100
669.100	66.208	0.100
669.200	61.343	0.100
669.300	53.312	0.100
669.400	44.221	0.100
669.500	56.433	0.100
669.600	76.746	0.100
669.700	64.732	0.100
669.800	62.787	0.100
669.900	70.211	0.100
670.000	66.930	0.100
670.100	75.869	0.100
670.200	64.896	0.100
670.300	62.982	0.100
670.400	72.815	0.100
670.500	63.740	0.100
670.600	66.797	0.100
670.700	53.537	0.100
670.800	55.062	0.100
670.900	56.566	0.100
671.000	65.286	0.100
671.100	73.171	0.100
671.200	62.183	0.100
671.300	59.318	0.100
671.400	62.767	0.100
671.500	61.397	0.100
671.600	62.997	0.100
671.700	69.106	0.100
671.800	65.126	0.100
671.900	64.104	0.100
672.000	63.639	0.099
672.100	65.629	0.099
672.200	60.552	0.099
672.300	65.860	0.099
672.400	54.038	0.099
672.500	51.399	0.099
672.600	71.909	0.099
672.700	64.892	0.099
672.800	70.703	0.099
672.900	68.477	0.099
673.000	68.184	0.099
673.100	62.465	0.099
673.200	64.625	0.099
673.300	58.939	0.099
673.400	69.624	0.099
673.500	50.427	0.099
673.600	45.221	0.099
673.700	61.154	0.099
673.800	65.365	0.099
673.900	55.812	0.099
674.000	64.303	0.099
674.100	70.714	0.099
674.200	69.193	0.099
674.300	58.084	0.099
674.400	63.149	0.099
674.500	58.240	0.099
674.600	60.609	0.099
674.700	55.352	0.099
674.800	68.724	0.099
674.900	73.896	0.099
675.000	62.230	0.099
675.100	50.914	0.099
675.200	74.883	0.099
675.300	71.440	0.099
675.400	69.184	0.099
675.500	62.502	0.099
675.600	63.757	0.099
675.700	56.735	0.099
675.800	65.562	0.099
675.900	64.268	0.099
676.000	61.639	0.099
676.100	72.385	0.099
676.200	71.264	0.099
676.300	70.611	0.099
676.400	56.850	0.099
676.500	66.670	0.099
676.600	67.116	0.099
676.700	60.432	0.099
676.800	63.385	0.099
676.900	59.232	0.099
677.000	58.748	0.099
677.100	63.537	0.099
677.200	61.997	0.099
677.300	52.915	0.099
677.400	63.463	0.099
677.500	61.157	0.099
677.600	60.869	0.099
677.700	61.154	0.099
677.800	62.203	0.099
677.900	59.257	0.099
678.000	64.232	0.099
678.100	69.549	0.099
678.200	52.375	0.099
678.300	65.845	0.099
678.400	61.278	0.099
678.500	66.028	0.099
678.600	63.625	0.099
678.700	68.319	0.099
678.800	65.299	0.099
678.900	62.496	0.099
679.000	58.814	0.099
679.100	64.580	0.099
679.200	76.232	0.099
679.300	56.457	0.099
679.400	59.615	0.099
679.500	63.011	0.099
679.600	64.706	0.099
679.700	57.693	0.099
679.800	69.774	0.099
679.900	61.985	0.099
680.000	71.483	0.099
680.100	70.610	0.099
680.200	65.152	0.099
680.300	60.892	0.099
680.400	59.713	0.099
680.500	52.906	0.099
680.600	68.626	0.099
680.700	58.194	0.099
680.800	60.816	0.099
680.900	63.319	0.099
681.000	75.121	0.099
681.100	66.426	0.099
681.200	69.141	0.099
681.300	56.896	0.099
681.400	56.011	0.099
681.500	60.417	0.099
681.600	68.974	0.099
681.700	64.879	0.099
681.800	58.512	0.099
681.900	63.932	0.099
682.000	52.479	0.099
682.100	54.388	0.099
682.200	58.291	0.099
682.300	67.675	0.099
682.400	74.422	0.099
682.500	68.514	0.099
682.600	53.687	0.099
682.700	64.257	0.099
682.800	57.331	0.099
682.900	66.032	0.099
683.000	60.117	0.099
683.100	61.645	0.099
683.200	56.281	0.100
683.300	71.748	0.100
683.400	65.699	0.100
683.500	77.249	0.100
683.600	69.346	0.100
683.700	66.981	0.100
683.800	58.251	0.100
683.900	67.298	0.100
684.000	65.327	0.100
684.100	62.928	0.100
684.200	62.920	0.100
684.300	67.754	0.100
684.400	75.608	0.100
684.500	70.131	0.100
684.600	59.718	0.100
684.700	59.864	0.100
684.800	64.012	0.100
684.900	66.181	0.100
685.000	61.130	0.100
685.100	65.934	0.100
685.200	56.700	0.100
685.300	78.467	0.100
685.400	69.520	0.100
685.500	60.241	0.100
685.600	66.584	0.100
685.700	56.601	0.100
685.800	66.331	0.100
685.900	65.531	0.100
686.000	66.276	0.100
686.100	68.088	0.100
686.200	63.369	0.100
686.300	69.800	0.100
686.400	68.535	0.100
686.500	75.055	0.100
686.600	73.171	0.100
686.700	65.273	0.100
686.800	62.119	0.100
686.900	74.333	0.100
687.000	66.796	0.100
687.100	59.243	0.100
687.200	60.768	0.100
687.300	75.653	0.100
687.400	76.602	0.100
687.500	61.987	0.100
687.600	67.326	0.100
687.700	77.656	0.100
687.800	67.596	0.100
687.900	68.045	0.100
688.000	60.926	0.100
688.100	61.139	0.100
688.200	73.281	0.100
688.300	72.060	0.100
688.400	67.685	0.100
688.500	54.209	0.100
688.600	65.654	0.100
688.700	63.156	0.100
688.800	67.734	0.100
688.900	62.956	0.100
689.000	65.652	0.100
689.100	60.518	0.100
689.200	72.780	0.100
689.300	74.189	0.100
689.400	72.386	0.100
689.500	69.375	0.100
689.600	69.797	0.100
689.700	58.740	0.100
689.800	66.529	0.100
689.900	69.101	0.100
690.000	60.866	0.100
690.100	60.750	0.100
690.200	59.286	0.100
690.300	65.893	0.100
690.400	69.026	0.100
690.500	59.053	0.100
690.600	73.625	0.100
690.700	55.611	0.100
690.800	67.642	0.100
690.900	82.392	0.100
691.000	68.158	0.100
691.100	64.136	0.100
691.200	67.029	0.100
691.300	63.048	0.100
691.400	57.357	0.100
691.500	63.109	0.100
691.600	67.485	0.100
691.700	56.819	0.100
691.800	49.312	0.100
691.900	55.717	0.100
692.000	62.542	0.100
692.100	51.140	0.100
692.200	46.062	0.100
692.300	57.744	0.100
692.400	58.751	0.100
692.500	45.581	0.100
692.600	46.680	0.100
692.700	44.136	0.100
692.800	45.400	0.100
692.900	52.791	0.100
693.000	42.937	0.100
693.100	35.669	0.100
693.200	40.432	0.100
693.300	37.316	0.100
693.400	39.658	0.100
693.500	36.759	0.100
693.600	43.774	0.100
693.700	39.978	0.100
693.800	40.955	0.100
693.900	47.789	0.100
694.000	49.556	0.100
694.100	38.485	0.100
694.200	44.638	0.100
694.300	34.883	0.100
694.400	39.482	0.099
694.500	28.230	0.099
694.600	31.599	0.099
694.700	26.251	0.099
694.800	25.920	0.099
694.900	15.713	0.099
695.000	23.145	0.099
695.100	24.028	0.099
695.200	26.318	0.099
695.300	14.902	0.099
695.400	25.178	0.099
695.500	15.138	0.099
695.600	23.605	0.099
695.700	20.062	0.099
695.800	25.009	0.099
695.900	20.980	0.099
696.000	20.614	0.099
696.100	27.258	0.099
696.200	10.509	0.099
696.300	14.358	0.099
696.400	21.079	0.099
696.500	21.693	0.099
696.600	8.436	0.099
696.700	14.133	0.099
696.800	16.747	0.099
696.900	11.462	0.099
697.000	10.770	0.099
697.100	4.759	0.099
697.200	18.476	0.099
697.300	13.273	0.099
697.400	9.903	0.099
697.500	15.099	0.099
697.600	13.541	0.099
697.700	7.311	0.099
697.800	17.551	0.099
697.900	-0.153	0.099
698.000	4.261	0.099
698.100	19.802	0.099
698.200	16.601	0.099
698.300	24.244	0.099
698.400	12.419	0.099
698.500	7.212	0.099
698.600	0.720	0.099
698.700	0.270	0.099
698.800	-2.331	0.099
698.900	7.728	0.099
699.000	9.862	0.099
699.100	-0.821	0.099
699.200	7.342	0.099
699.300	11.872	0.099
699.400	2.663	0.099
699.500	18.355	0.099
699.600	0.280	0.099
699.700	7.227	0.099
699.800	1.796	0.099
699.900	14.194	0.099
700.000	4.606	0.099
700.100	4.871	0.099
700.200	-5.823	0.099
700.300	10.153	0.099
700.400	1.334	0.099
700.500	3.884	0.099
700.600	5.251	0.099
700.700	-3.402	0.099
700.800	-3.881	0.099
700.900	5.381	0.099
701.000	10.113	0.099
701.100	8.755	0.099
701.200	-4.644	0.099
701.300	6.631	0.099
701.400	3.450	0.099
701.500	12.787	0.099
701.600	-5.251	0.099
701.700	-3.600	0.099
701.800	6.792	0.099
701.900	9.188	0.099
702.000	-3.941	0.099
702.100	-2.582	0.099
702.200	-3.154	0.099
702.300	0.709	0.099
702.400	0.629	0.099
702.500	-7.492	0.099
702.600	1.252	0.099
702.700	11.490	0.099
702.800	6.365	0.099
702.900	-1.224	0.099
703.000	-7.891	0.099
703.100	-0.600	0.099
703.200	-8.280	0.099
703.300	-4.266	0.099
703.400	-5.047	0.099
703.500	-2.950	0.099
703.600	-5.080	0.099
703.700	-5.038	0.099
703.800	-6.606	0.099
703.900	-3.576	0.099
704.000	-1.371	0.099
704.100	3.577	0.099
704.200	-0.645	0.099
704.300	-9.585	0.099
704.400	-2.861	0.099
704.500	1.026	0.099
704.600	6.871	0.099
704.700	0.344	0.099
704.800	5.010	0.099
704.900	-4.232	0.099
705.000	-19.455	0.099
705.100	-8.110	0.099
705.200	-5.268	0.099
705.300	-2.840	0.099
705.400	-2.086	0.099
705.500	-14.271	0.099
705.600	-1.255	0.099
705.700	8.199	0.099
705.800	7.074	0.099
705.900	-3.485	0.099
706.000	0.275	0.099
706.100	1.846	0.099
706.200	-1.741	0.099
706.300	-2.475	0.099
706.400	-12.793	0.099
706.500	-2.992	0.099
706.600	-1.312	0.099
706.700	-3.582	0.099
706.800	-16.147	0.099
706.900	-7.544	0.099
707.000	-6.530	0.099
707.100	-12.766	0.099
707.200	-12.005	0.099
707.300	-7.005	0.099
707.400	-0.835	0.099
707.500	5.193	0.099
707.600	-1.118	0.099
707.700	-4.908	0.099
707.800	-4.528	0.099
707.900	-15.691	0.099
708.000	-12.569	0.099
708.100	-3.867	0.099
708.200	-8.438	0.099
708.300	-6.790	0.099
708.400	-4.335	0.099
708.500	-15.080	0.099
708.600	-1.324	0.099
708.700	-1.650	0.099
708.800	-17.594	0.099
708.900	-6.107	0.100
709.000	3.747	0.100
709.100	-10.149	0.100
709.200	-20.737	0.100
709.300	-22.546	0.100
709.400	-15.294	0.100
709.500	-14.555	0.100
709.600	2.185	0.100
709.700	-9.238	0.100
709.800	-6.908	0.100
709.900	-5.944	0.100
710.000	-8.519	0.100
710.100	-7.736	0.100
710.200	-9.455	0.100
710.300	-7.169	0.100
710.400	-3.957	0.100
710.500	-14.001	0.100
710.600	-17.679	0.100
710.700	-9.841	0.100
710.800	-7.980	0.100
710.900	-10.143	0.100
711.000	-1.140	0.100
711.100	-11.412	0.100
711.200	-14.325	0.100
711.300	-9.766	0.100
711.400	-9.691	0.100
711.500	-7.126	0.100
711.600	-12.931	0.100
711.700	-11.199	0.100
711.800	-5.872	0.100
711.900	-5.106	0.100
712.000	-8.608	0.100
712.100	-8.696	0.100
712.200	-9.257	0.100
712.300	-13.009	0.100
712.400	-10.964	0.100
712.500	-16.003	0.100
712.600	-20.289	0.100
712.700	-1.781	0.100
712.800	-7.597	0.100
712.900	-24.825	0.100
713.000	-11.463	0.100
713.100	-15.142	0.100
713.200	-10.164	0.100
713.300	-21.778	0.100
713.400	-15.730	0.100
713.500	-13.534	0.100
713.600	-7.520	0.100
713.700	-13.943	0.100
713.800	-7.797	0.100
713.900	-12.628	0.100
714.000	-15.404	0.100
714.100	-19.258	0.100
714.200	-9.648	0.100
714.300	-22.685	0.100
714.400	-13.020	0.100
714.500	-7.177	0.100
714.600	-10.617	0.100
714.700	-8.578	0.100
714.800	-19.137	0.100
714.900	-9.212	0.100
715.000	-11.230	0.100
715.100	-13.002	0.100
715.200	-12.407	0.100
715.300	-8.754	0.100
715.400	-3.787	0.100
715.500	-5.777	0.100
715.600	-11.293	0.100
715.700	-20.429	0.100
715.800	-16.891	0.100
715.900	-19.521	0.100
716.000	-15.778	0.100
716.100	-4.583	0.100
716.200	-15.586	0.100
716.300	-8.723	0.100
716.400	-28.348	0.100
716.500	-16.382	0.100
716.600	-14.411	0.100
716.700	-8.604	0.100
716.800	-10.417	0.100
716.900	-12.543	0.100
717.000	-12.333	0.100
717.100	-16.794	0.100
717.200	-10.514	0.100
717.300	-6.416	0.100
717.400	-26.312	0.100
717.500	-28.110	0.100
717.600	-12.827	0.100
717.700	-15.163	0.100
717.800	-20.558	0.100
717.900	-6.033	0.100
718.000	-22.718	0.100
718.100	-2.611	0.100
718.200	-23.139	0.100
718.300	-13.239	0.100
718.400	-19.308	0.100
718.500	-8.633	0.100
718.600	-15.678	0.100
718.700	-10.305	0.100
718.800	-13.423	0.100
718.900	-7.296	0.100
719.000	-14.877	0.100
719.100	-14.467	0.100
719.200	-6.019	0.100
719.300	-13.134	0.100
719.400	-16.291	0.100
719.500	-12.263	0.100
719.600	-3.219	0.100
719.700	-6.580	0.100
719.800	-16.764	0.100
719.900	-17.380	0.100
720.000	-14.786	0.100
720.100	-8.572	0.100
720.200	-21.159	0.100
720.300	-16.754	0.100
720.400	-19.051	0.100
720.500	-11.251	0.100
720.600	-10.583	0.100
720.700	-13.003	0.100
720.800	-14.723	0.100
720.900	-15.919	0.100
721.000	-20.961	0.100
721.100	-32.369	0.100
721.200	-12.893	0.100
721.300	-5.818	0.100
721.400	-20.184	0.100
721.500	-11.394	0.100
721.600	-8.752	0.100
721.700	-16.284	0.100
721.800	-14.455	0.100
721.900	-16.922	0.100
722.000	-5.162	0.100
722.100	-13.354	0.100
722.200	-13.032	0.100
722.300	-22.777	0.100
722.400	-18.307	0.100
722.500	-19.711	0.100
722.600	-19.270	0.100
722.700	-13.321	0.100
722.800	-20.131	0.100
722.900	-23.435	0.100
723.000	-16.235	0.100
723.100	-26.984	0.100
723.200	-24.741	0.100
723.300	-19.615	0.100
723.400	-10.192	0.100
723.500	-15.965	0.100
723.600	-17.591	0.100
723.700	-12.905	0.100
723.800	-11.107	0.100
723.900	-14.737	0.100
724.000	-13.218	0.100
724.100	-13.938	0.100
724.200	-8.835	0.100
724.300	-16.574	0.100
724.400	-14.811	0.100
724.500	-22.386	0.100
724.600	-23.677	0.100
724.700	-11.936	0.100
724.800	-15.218	0.100
724.900	-25.724	0.100
725.000	-13.906	0.100
725.100	-11.165	0.100
725.200	-25.035	0.100
725.300	-18.704	0.100
725.400	-17.529	0.100
725.500	-31.934	0.100
725.600	-17.444	0.100
725.700	-9.908	0.100
725.800	-12.884	0.100
725.900	-18.474	0.100
726.000	-22.497	0.100
726.100	-26.369	0.100
726.200	-18.807	0.100
726.300	-19.995	0.100
726.400	-13.302	0.100
726.500	-13.377	0.100
726.600	-33.103	0.100
726.700	-27.580	0.100
726.800	-12.344	0.100
726.900	-26.456	0.100
727.000	-13.405	0.100
727.100	-17.487	0.100
727.200	-24.096	0.100
727.300	-28.780	0.100
727.400	-4.949	0.100
727.500	-16.524	0.100
727.600	-15.683	0.100
727.700	-34.181	0.100
727.800	-21.116	0.100
727.900	-19.201	0.100
728.000	-21.622	0.100
728.100	-20.098	0.100
728.200	-32.654	0.100
728.300	-19.655	0.100
728.400	-22.259	0.100
728.500	-17.858	0.100
728.600	-19.682	0.100
728.700	-17.956	0.100
728.800	-23.360	0.100
728.900	-24.559	0.100
729.000	-17.279	0.100
729.100	-17.395	0.100
729.200	-17.616	0.100
729.300	-28.935	0.100
729.400	-16.235	0.100
729.500	-12.534	0.100
729.600	-28.020	0.100
729.700	-32.093	0.100
729.800	-27.824	0.100
729.900	-30.779	0.100
730.000	-31.074	0.100
730.100	-21.255	0.100
730.200	-29.150	0.100
730.300	-19.757	0.100
730.400	-18.169	0.100
730.500	-22.868	0.100
730.600	-27.059	0.100
730.700	-27.965	0.100
730.800	-27.300	0.100
730.900	-28.368	0.100
731.000	-23.239	0.100
731.100	-23.007	0.100
731.200	-21.110	0.100
731.300	-26.401	0.100
731.400	-29.544	0.100
731.500	-27.451	0.100
731.600	-13.429	0.100
731.700	-34.069	0.100
731.800	-40.236	0.100
731.900	-22.744	0.100
732.000	-30.638	0.100
732.100	-27.132	0.100
732.200	-36.525	0.100
732.300	-38.295	0.100
732.400	-36.819	0.100
732.500	-20.878	0.100
732.600	-35.154	0.100
732.700	-31.998	0.100
732.800	-27.962	0.100
732.900	-24.663	0.100
733.000	-32.809	0.100
733.100	-25.900	0.100
733.200	-35.484	0.100
733.300	-24.047	0.100
733.400	-36.284	0.100
733.500	-29.249	0.100
733.600	-33.246	0.100
733.700	-32.032	0.100
733.800	-38.242	0.100
733.900	-33.463	0.100
734.000	-40.751	0.100
734.100	-31.866	0.100
734.200	-30.600	0.100
734.300	-24.661	0.100
734.400	-34.288	0.100
734.500	-37.797	0.100
734.600	-22.829	0.100
734.700	-37.230	0.100
734.800	-25.741	0.100
734.900	-27.065	0.100
735.000	-25.655	0.100
735.100	-34.112	0.100
735.200	-26.991	0.100
735.300	-45.926	0.100
735.400	-26.634	0.100
735.500	-32.015	0.100
735.600	-32.183	0.100
735.700	-19.955	0.100
735.800	-38.288	0.100
735.900	-30.750	0.100
736.000	-37.819	0.100
736.100	-27.148	0.100
736.200	-35.527	0.100
736.300	-43.326	0.100
736.400	-43.469	0.100
736.500	-37.510	0.100
736.600	-35.314	0.100
736.700	-30.059	0.100
736.800	-26.440	0.100
736.900	-40.573	0.100
737.000	-44.749	0.100
737.100	-35.939	0.100
737.200	-37.802	0.100
737.300	-32.738	0.100
737.400	-45.062	0.100
737.500	-36.482	0.100
737.600	-33.742	0.100
737.700	-42.816	0.100
737.800	-34.264	0.100
737.900	-27.870	0.100
738.000	-35.573	0.100
738.100	-39.526	0.100
738.200	-32.617	0.100
738.300	-33.391	0.100
738.400	-44.570	0.100
738.500	-40.633	0.100
738.600	-36.919	0.100
738.700	-29.433	0.100
738.800	-36.146	0.100
738.900	-41.202	0.100
739.000	-38.492	0.100
739.100	-21.951	0.100
739.200	-26.599	0.100
739.300	-25.028	0.100
739.400	-37.106	0.100
739.500	-35.550	0.100
739.600	-33.116	0.100
739.700	-22.311	0.100
739.800	-36.684	0.100
739.900	-42.483	0.100
740.000	-43.891	0.100
740.100	-40.776	0.100
740.200	-26.222	0.100
740.300	-34.236	0.100
740.400	-35.905	0.100
740.500	-27.088	0.100
740.600	-34.175	0.100
740.700	-36.431	0.100
740.800	-41.769	0.100
740.900	-34.415	0.100
741.000	-42.808	0.100
741.100	-44.669	0.100
741.200	-32.416	0.100
741.300	-36.350	0.100
741.400	-27.079	0.100
741.500	-26.213	0.100
741.600	-32.576	0.100
741.700	-38.062	0.100
741.800	-37.986	0.100
741.900	-34.852	0.100
742.000	-40.975	0.100
742.100	-38.286	0.100
742.200	-42.260	0.100
742.300	-42.489	0.100
742.400	-36.764	0.100
742.500	-14.572	0.100
742.600	-28.422	0.100
742.700	-44.608	0.100
742.800	-42.056	0.100
742.900	-40.880	0.100
743.000	-49.103	0.100
743.100	-34.714	0.100
743.200	-24.002	0.100
743.300	-37.307	0.100
743.400	-33.792	0.100
743.500	-34.207	0.100
743.600	-27.851	0.100
743.700	-31.606	0.100
743.800	-34.606	0.100
743.900	-41.285	0.100
744.000	-31.881	0.100
744.100	-40.389	0.100
744.200	-26.594	0.100
744.300	-29.738	0.100
744.400	-36.749	0.100
744.500	-35.272	0.100
744.600	-37.175	0.100
744.700	-38.197	0.100
744.800	-34.274	0.100
744.900	-41.527	0.100
745.000	-36.926	0.100
745.100	-44.283	0.100
745.200	-35.574	0.100
745.300	-36.519	0.100
745.400	-40.799	0.100
745.500	-41.251	0.100
745.600	-35.548	0.100
745.700	-52.164	0.100
745.800	-41.898	0.100
745.900	-36.552	0.100
746.000	-42.117	0.100
746.100	-23.801	0.100
746.200	-26.725	0.100
746.300	-26.325	0.100
746.400	-41.076	0.100
746.500	-30.120	0.100
746.600	-31.478	0.100
746.700	-34.218	0.100
746.800	-37.314	0.100
746.900	-37.284	0.100
747.000	-40.267	0.100
747.100	-38.530	0.100
747.200	-34.233	0.100
747.300	-32.916	0.100
747.400	-35.352	0.100
747.500	-39.686	0.100
747.600	-29.766	0.100
747.700	-39.287	0.100
747.800	-20.571	0.100
747.900	-37.063	0.100
748.000	-29.700	0.100
748.100	-33.280	0.100
748.200	-40.757	0.100
748.300	-45.003	0.100
748.400	-44.997	0.100
748.500	-48.718	0.100
748.600	-31.343	0.100
748.700	-33.549	0.100
748.800	-36.085	0.100
748.900	-31.002	0.100
749.000	-45.972	0.100
749.100	-45.378	0.100
749.200	-43.190	0.100
749.300	-38.167	0.100
749.400	-28.393	0.100
749.500	-28.980	0.100
749.600	-39.388	0.100
749.700	-46.011	0.100
749.800	-33.280	0.100
749.900	-40.284	0.100
750.000	-36.439	0.100
750.100	-35.855	0.100
750.200	-46.274	0.100
750.300	-36.511	0.100
750.400	-35.956	0.100
750.500	-39.393	0.100
750.600	-20.476	0.100
750.700	-36.200	0.100
750.800	-31.270	0.100
750.900	-34.826	0.100
751.000	-35.150	0.100
751.100	-45.123	0.100
751.200	-38.781	0.100
751.300	-40.788	0.100
751.400	-31.566	0.100
751.500	-40.054	0.100
751.600	-34.097	0.100
751.700	-29.565	0.100
751.800	-34.842	0.100
751.900	-39.936	0.100
752.000	-48.331	0.100
752.100	-33.606	0.100
752.200	-40.014	0.100
752.300	-36.398	0.100
752.400	-30.804	0.100
752.500	-36.825	0.100
752.600	-32.145	0.100
752.700	-34.846	0.100
752.800	-40.279	0.100
752.900	-43.080	0.100
753.000	-26.539	0.100
753.100	-38.361	0.100
753.200	-39.039	0.100
753.300	-42.465	0.100
753.400	-37.080	0.100
753.500	-31.598	0.100
753.600	-41.643	0.100
753.700	-38.479	0.100
753.800	-32.479	0.100
753.900	-32.689	0.100
754.000	-36.099	0.100
754.100	-33.943	0.100
754.200	-39.252	0.100
754.300	-34.989	0.100
754.400	-45.618	0.100
754.500	-39.894	0.100
754.600	-48.134	0.100
754.700	-29.096	0.100
754.800	-37.984	0.100
754.900	-34.281	0.100
755.000	-32.029	0.100
755.100	-34.894	0.100
755.200	-43.385	0.100
755.300	-60.632	0.100
755.400	-34.976	0.100
755.500	-30.850	0.100
755.600	-47.320	0.100
755.700	-35.550	0.100
755.800	-28.661	0.100
755.900	-31.495	0.100
756.000	-34.130	0.100
756.100	-37.126	0.100
756.200	-39.844	0.100
756.300	-38.453	0.100
756.400	-40.636	0.100
756.500	-40.394	0.100
756.600	-22.848	0.100
756.700	-31.670	0.100
756.800	-28.802	0.100
756.900	-52.044	0.100
757.000	-36.499	0.100
757.100	-37.366	0.100
757.200	-27.887	0.100
757.300	-36.037	0.100
757.400	-37.788	0.100
757.500	-40.273	0.100
757.600	-53.570	0.100
757.700	-50.887	0.100
757.800	-44.176	0.100
757.900	-45.186	0.100
758.000	-26.630	0.100
758.100	-30.916	0.100
758.200	-29.800	0.100
758.300	-35.974	0.100
758.400	-24.896	0.100
758.500	-36.333	0.100
758.600	-48.862	0.100
758.700	-34.812	0.100
758.800	-34.555	0.100
758.900	-42.488	0.100
759.000	-36.229	0.100
759.100	-27.928	0.100
759.200	-37.599	0.100
759.300	-40.225	0.100
759.400	-44.539	0.100
759.500	-41.576	0.100
759.600	-39.221	0.100
759.700	-41.527	0.100
759.800	-41.519	0.100
759.900	-30.001	0.100
760.000	-36.960	0.100
760.100	-42.905	0.100
760.200	-38.847	0.100
760.300	-35.490	0.100
760.400	-40.753	0.100
760.500	-37.201	0.100
760.600	-36.388	0.100
760.700	-37.900	0.100
760.800	-50.521	0.100
760.900	-43.653	0.100
761.000	-30.520	0.100
761.100	-30.951	0.100
761.200	-36.910	0.100
761.300	-38.922	0.100
761.400	-30.801	0.100
761.500	-37.464	0.100
761.600	-37.978	0.100
761.700	-32.510	0.100
761.800	-44.025	0.100
761.900	-29.742	0.100
762.000	-30.010	0.100
762.100	-33.565	0.100
762.200	-37.187	0.100
762.300	-34.575	0.100
762.400	-40.009	0.100
762.500	-37.681	0.100
762.600	-31.299	0.100
762.700	-32.505	0.100
762.800	-28.371	0.100
762.900	-37.018	0.100
763.000	-32.591	0.100
763.100	-26.775	0.100
763.200	-38.913	0.100
763.300	-50.498	0.100
763.400	-38.375	0.100
763.500	-44.648	0.100
763.600	-37.074	0.100
763.700	-34.017	0.100
763.800	-29.783	0.100
763.900	-34.681	0.100
764.000	-38.427	0.100
764.100	-33.778	0.100
764.200	-32.792	0.100
764.300	-34.691	0.100
764.400	-33.154	0.100
764.500	-42.584	0.100
764.600	-31.730	0.100
764.700	-37.880	0.100
764.800	-41.999	0.100
764.900	-41.048	0.100
765.000	-34.710	0.100
765.100	-44.240	0.100
765.200	-38.927	0.100
765.300	-42.992	0.100
765.400	-31.555	0.100
765.500	-44.438	0.100
765.600	-43.838	0.100
765.700	-38.505	0.100
765.800	-34.556	0.100
765.900	-29.636	0.100
766.000	-41.467	0.100
766.100	-34.464	0.100
766.200	-37.658	0.100
766.300	-31.708	0.100
766.400	-26.171	0.100
766.500	-45.085	0.100
766.600	-25.705	0.100
766.700	-40.271	0.100
766.800	-29.981	0.100
766.900	-26.099	0.100
767.000	-36.333	0.100
767.100	-42.505	0.100
767.200	-38.130	0.100
767.300	-26.525	0.100
767.400	-38.433	0.100
767.500	-32.019	0.100
767.600	-29.656	0.100
767.700	-44.807	0.100
767.800	-40.129	0.100
767.900	-47.830	0.100
768.000	-40.536	0.100
768.100	-39.983	0.100
768.200	-34.520	0.100
768.300	-30.853	0.100
768.400	-33.641	0.100
768.500	-43.814	0.100
768.600	-28.506	0.100
768.700	-35.156	0.100
768.800	-33.928	0.100
768.900	-41.272	0.100
769.000	-31.955	0.100
769.100	-40.265	0.100
769.200	-35.671	0.100
769.300	-45.649	0.100
769.400	-37.543	0.100
769.500	-42.062	0.100
769.600	-43.570	0.100
769.700	-32.053	0.100
769.800	-27.795	0.100
769.900	-32.932	0.100
770.000	-37.360	0.100
770.100	-34.698	0.100
770.200	-44.360	0.100
770.300	-41.763	0.100
770.400	-39.433	0.100
770.500	-34.437	0.100
770.600	-31.331	0.100
770.700	-32.001	0.100
770.800	-31.072	0.100
770.900	-36.733	0.100
771.000	-41.168	0.100
771.100	-44.107	0.100
771.200	-38.401	0.100
771.300	-40.098	0.100
771.400	-30.818	0.100
771.500	-32.640	0.100
771.600	-30.902	0.100
771.700	-30.005	0.100
771.800	-37.861	0.100
771.900	-33.923	0.100
772.000	-38.312	0.100
772.100	-40.964	0.100
772.200	-45.341	0.100
772.300	-41.729	0.100
772.400	-49.026	0.100
772.500	-43.728	0.100
772.600	-45.218	0.100
772.700	-41.878	0.100
772.800	-25.966	0.100
772.900	-25.650	0.100
773.000	-37.800	0.100
773.100	-43.035	0.100
773.200	-51.097	0.100
773.300	-43.699	0.100
773.400	-41.622	0.100
773.500	-29.367	0.100
773.600	-32.507	0.100
773.700	-35.430	0.100
773.800	-36.604	0.100
773.900	-34.170	0.100
774.000	-36.100	0.100
774.100	-30.884	0.100
774.200	-35.899	0.100
774.300	-34.452	0.100
774.400	-32.150	0.100
774.500	-39.342	0.100
774.600	-38.119	0.100
774.700	-33.894	0.100
774.800	-37.287	0.100
774.900	-38.642	0.100
775.000	-34.745	0.100
775.100	-35.075	0.100
775.200	-34.702	0.100
775.300	-39.076	0.100
775.400	-31.592	0.100
775.500	-35.760	0.100
775.600	-44.197	0.100
775.700	-46.697	0.100
775.800	-46.601	0.100
775.900	-27.712	0.100
776.000	-32.855	0.100
776.100	-28.061	0.100
776.200	-28.178	0.100
776.300	-33.703	0.100
776.400	-42.299	0.100
776.500	-33.125	0.100
776.600	-34.553	0.100
776.700	-35.450	0.100
776.800	-32.118	0.100
776.900	-40.138	0.100
777.000	-30.448	0.100
777.100	-29.180	0.100
777.200	-29.012	0.100
777.300	-33.470	0.100
777.400	-36.381	0.100
777.500	-44.777	0.100
777.600	-37.846	0.100
777.700	-33.966	0.100
777.800	-41.079	0.100
777.900	-43.421	0.100
778.000	-34.523	0.100
778.100	-42.905	0.100
778.200	-39.604	0.100
778.300	-30.799	0.100
778.400	-32.798	0.100
778.500	-37.751	0.100
778.600	-42.727	0.100
778.700	-32.475	0.100
778.800	-39.017	0.100
778.900	-40.852	0.100
779.000	-36.221	0.100
779.100	-26.259	0.100
779.200	-41.165	0.100
779.300	-43.506	0.100
779.400	-32.672	0.100
779.500	-27.523	0.100
779.600	-35.677	0.100
779.700	-33.566	0.100
779.800	-34.094	0.100
779.900	-39.411	0.100
780.000	-39.848	0.100
780.100	-35.495	0.100
780.200	-45.787	0.100
780.300	-36.321	0.100
780.400	-33.997	0.100
780.500	-46.251	0.100
780.600	-41.423	0.100
780.700	-23.919	0.100
780.800	-24.815	0.100
780.900	-37.386	0.100
781.000	-35.800	0.100
781.100	-38.748	0.100
781.200	-37.609	0.100
781.300	-36.724	0.100
781.400	-32.623	0.100
781.500	-29.387	0.100
781.600	-38.136	0.100
781.700	-28.627	0.100
781.800	-30.286	0.100
781.900	-25.305	0.100
782.000	-34.817	0.100
782.100	-20.105	0.100
782.200	-18.773	0.100
782.300	-14.912	0.100
782.400	-23.217	0.100
782.500	-24.747	0.100
782.600	-19.221	0.100
782.700	-26.418	0.100
782.800	-14.060	0.100
782.900	-30.772	0.100
783.000	-10.322	0.100
783.100	-27.151	0.100
783.200	-12.482	0.100
783.300	-17.660	0.100
783.400	-10.137	0.100
783.500	-17.345	0.100
783.600	-11.855	0.100
783.700	-13.868	0.100
783.800	-6.264	0.100
783.900	-16.526	0.100
784.000	-11.619	0.100
784.100	-11.498	0.100
784.200	-13.253	0.100
784.300	4.458	0.100
784.400	-1.503	0.100
784.500	-12.038	0.100
784.600	-15.175	0.100
784.700	-16.897	0.100
784.800	-3.724	0.100
784.900	-8.204	0.100
785.000	2.423	0.100
785.100	-13.003	0.100
785.200	-7.195	0.100
785.300	-6.432	0.100
785.400	-8.182	0.100
785.500	2.341	0.100
785.600	-13.874	0.100
785.700	-15.910	0.100
785.800	-13.633	0.100
785.900	-6.994	0.100
786.000	-5.454	0.100
786.100	-5.956	0.100
786.200	1.210	0.100
786.300	2.797	0.100
786.400	-11.259	0.100
786.500	-4.945	0.100
786.600	-5.751	0.100
786.700	-3.908	0.100
786.800	1.268	0.100
786.900	-9.755	0.100
787.000	-2.457	0.100
787.100	0.139	0.100
787.200	-9.341	0.100
787.300	-0.648	0.100
787.400	-4.977	0.100
787.500	-4.762	0.100
787.600	-5.267	0.100
787.700	-2.126	0.100
787.800	-6.084	0.100
787.900	7.288	0.100
788.000	6.831	0.100
788.100	8.602	0.100
788.200	-9.448	0.100
788.300	-11.792	0.100
788.400	-3.516	0.100
788.500	-10.617	0.100
788.600	0.398	0.100
788.700	2.259	0.100
788.800	3.375	0.100
788.900	6.867	0.100
789.000	0.654	0.100
789.100	0.428	0.100
789.200	4.393	0.100
789.300	1.275	0.100
789.400	2.059	0.100
789.500	0.807	0.100
789.600	-10.115	0.100
789.700	2.309	0.100
789.800	6.421	0.100
789.900	7.299	0.100
790.000	1.462	0.100
790.100	4.041	0.100
790.200	7.900	0.100
790.300	7.054	0.100
790.400	1.764	0.100
790.500	6.854	0.100
790.600	-1.068	0.100
790.700	4.977	0.100
790.800	-5.722	0.100
790.900	7.814	0.100
791.000	-2.080	0.100
791.100	-4.390	0.100
791.200	3.554	0.100
791.300	1.236	0.100
791.400	-9.617	0.100
791.500	12.896	0.100
791.600	2.059	0.100
791.700	6.739	0.100
791.800	-1.934	0.100
791.900	11.824	0.100
792.000	1.110	0.100
792.100	21.292	0.100
792.200	10.912	0.100
792.300	-3.223	0.100
792.400	8.745	0.100
792.500	15.111	0.100
792.600	13.455	0.100
792.700	4.817	0.100
792.800	1.877	0.099
792.900	10.777	0.099
793.000	4.558	0.099
793.100	11.505	0.099
793.200	3.697	0.099
793.300	18.010	0.099
793.400	17.870	0.099
793.500	4.376	0.099
793.600	9.713	0.099
793.700	1.046	0.099
793.800	11.512	0.099
793.900	12.382	0.099
794.000	8.755	0.099
794.100	9.555	0.099
794.200	15.951	0.099
794.300	15.913	0.099
794.400	19.293	0.099
794.500	9.203	0.099
794.600	14.173	0.099
794.700	4.966	0.099
794.800	1.776	0.099
794.900	10.414	0.099
795.000	6.954	0.099
795.100	10.558	0.099
795.200	18.531	0.099
795.300	19.636	0.099
795.400	20.973	0.099
795.500	18.592	0.099
795.600	12.954	0.099
795.700	8.867	0.099
795.800	13.843	0.099
795.900	12.112	0.099
796.000	10.725	0.099
796.100	14.406	0.099
796.200	15.795	0.099
796.300	16.845	0.099
796.400	23.082	0.099
796.500	10.028	0.099
796.600	19.811	0.099
796.700	12.494	0.099
796.800	18.005	0.099
796.900	15.626	0.099
797.000	3.678	0.099
797.100	24.876	0.099
797.200	22.172	0.099
797.300	4.869	0.099
797.400	9.505	0.099
797.500	21.460	0.099
797.600	30.037	0.099
797.700	23.752	0.099
797.800	13.756	0.099
797.900	8.930	0.099
798.000	18.589	0.099
798.100	16.823	0.099
798.200	16.031	0.099
798.300	13.506	0.099
798.400	25.780	0.099
798.500	27.649	0.099
798.600	21.362	0.099
798.700	23.752	0.099
798.800	35.698	0.099
798.900	15.574	0.099
799.000	18.374	0.099
799.100	20.544	0.099
799.200	18.589	0.099
799.300	15.082	0.099
799.400	19.392	0.099
799.500	25.331	0.099
799.600	28.057	0.099
799.700	21.405	0.099
799.800	17.252	0.099
799.900	17.991	0.099
800.000	12.718	0.099
