time /s	I /nA	E /V
0.100	-16.472	0.100
0.200	-10.232	0.100
0.300	-21.684	0.100
0.400	8.924	0.100
0.500	6.821	0.100
0.600	-1.985	0.100
0.700	-8.418	0.100
0.800	5.099	0.100
0.900	-0.675	0.100
1.000	-3.835	0.100
1.100	-10.647	0.100
1.200	-8.167	0.100
1.300	-23.387	0.100
1.400	-8.622	0.100
1.500	-0.053	0.100
1.600	2.387	0.100
1.700	1.618	0.100
1.800	2.769	0.100
1.900	-11.164	0.100
2.000	0.543	0.100
2.100	2.217	0.100
2.200	-6.799	0.100
2.300	-12.280	0.100
2.400	2.528	0.100
2.500	-5.175	0.100
2.600	-6.574	0.100
2.700	-4.577	0.100
2.800	-6.556	0.100
2.900	-6.540	0.100
3.000	-15.097	0.100
3.100	2.521	0.100
3.200	-10.759	0.100
3.300	-2.199	0.100
3.400	-11.616	0.100
3.500	1.765	0.100
3.600	-8.110	0.100
3.700	-10.495	0.100
3.800	-7.652	0.100
3.900	-3.999	0.100
4.000	-14.040	0.100
4.100	-13.813	0.100
4.200	6.148	0.100
4.300	5.015	0.100
4.400	-7.805	0.100
4.500	-1.960	0.100
4.600	-0.128	0.100
4.700	-1.995	0.100
4.800	-8.253	0.100
4.900	-2.992	0.100
5.000	-11.386	0.100
5.100	8.245	0.100
5.200	-5.086	0.100
5.300	1.981	0.100
5.400	-9.125	0.100
5.500	-3.606	0.100
5.600	9.414	0.100
5.700	-1.548	0.100
5.800	1.938	0.100
5.900	-4.850	0.100
6.000	-5.049	0.100
6.100	-9.382	0.100
6.200	-13.710	0.100
6.300	-1.066	0.100
6.400	7.374	0.100
6.500	-5.320	0.100
6.600	3.572	0.100
6.700	-8.768	0.100
6.800	-6.721	0.100
6.900	-11.582	0.100
7.000	-6.628	0.100
7.100	-19.273	0.100
7.200	9.896	0.100
7.300	0.517	0.100
7.400	-2.967	0.100
7.500	-15.577	0.100
7.600	-6.516	0.100
7.700	-1.569	0.100
7.800	0.306	0.100
7.900	2.834	0.100
8.000	-6.050	0.100
8.100	-0.855	0.100
8.200	-0.361	0.100
8.300	-6.934	0.100
8.400	-14.317	0.100
8.500	-3.194	0.100
8.600	-5.101	0.100
8.700	-5.498	0.100
8.800	-5.638	0.100
8.900	-1.483	0.100
9.000	5.890	0.100
9.100	-11.213	0.100
9.200	-3.694	0.100
9.300	-9.628	0.100
9.400	2.548	0.100
9.500	-21.022	0.100
9.600	-8.210	0.100
9.700	1.068	0.100
9.800	0.503	0.100
9.900	-28.875	0.100
10.000	-10.837	0.100
10.100	11.487	0.100
10.200	-5.641	0.100
10.300	-1.272	0.100
10.400	-9.001	0.100
10.500	-11.293	0.100
10.600	-8.889	0.100
10.700	-4.595	0.100
10.800	-17.553	0.100
10.900	4.216	0.100
11.000	1.984	0.100
11.100	2.418	0.100
11.200	1.058	0.100
11.300	-1.195	0.100
11.400	-13.922	0.100
11.500	-0.257	0.100
11.600	0.560	0.100
11.700	-15.671	0.100
11.800	1.672	0.100
11.900	-0.901	0.100
12.000	-9.271	0.100
12.100	1.563	0.100
12.200	-7.969	0.100
12.300	-7.934	0.100
12.400	7.463	0.100
12.500	-0.947	0.100
12.600	-15.778	0.100
12.700	1.394	0.100
12.800	-1.029	0.100
12.900	-0.686	0.100
13.000	-24.056	0.100
13.100	-7.514	0.100
13.200	11.377	0.100
13.300	4.796	0.100
13.400	-21.410	0.100
13.500	-3.924	0.100
13.600	-14.133	0.100
13.700	-1.419	0.100
13.800	9.888	0.100
13.900	-1.243	0.100
14.000	5.280	0.100
14.100	-6.332	0.100
14.200	3.206	0.100
14.300	-4.056	0.100
14.400	-9.373	0.100
14.500	-5.539	0.100
14.600	1.276	0.100
14.700	-14.112	0.100
14.800	-20.072	0.100
14.900	-8.978	0.100
15.000	-2.903	0.100
15.100	-7.390	0.100
15.200	3.907	0.100
15.300	-3.346	0.100
15.400	4.544	0.100
15.500	-3.591	0.100
15.600	0.126	0.100
15.700	-6.916	0.100
15.800	-9.272	0.100
15.900	-14.942	0.100
16.000	15.074	0.100
16.100	-12.786	0.100
16.200	-14.898	0.100
16.300	3.603	0.100
16.400	-6.238	0.100
16.500	-8.939	0.100
16.600	-18.117	0.100
16.700	-13.667	0.100
16.800	-2.273	0.100
16.900	0.304	0.100
17.000	-7.571	0.100
17.100	-1.171	0.100
17.200	-1.779	0.100
17.300	-7.719	0.100
17.400	1.089	0.100
17.500	0.129	0.100
17.600	6.810	0.100
17.700	-8.812	0.100
17.800	-4.506	0.100
17.900	-3.913	0.100
18.000	-4.207	0.100
18.100	-11.998	0.100
18.200	-3.528	0.100
18.300	-3.436	0.100
18.400	-3.225	0.100
18.500	-7.814	0.100
18.600	0.629	0.100
18.700	-8.225	0.100
18.800	-10.574	0.100
18.900	-4.652	0.100
19.000	3.854	0.100
19.100	-6.772	0.100
19.200	6.701	0.100
19.300	-0.090	0.100
19.400	-7.816	0.100
19.500	-12.845	0.100
19.600	-5.901	0.100
19.700	2.052	0.100
19.800	-6.835	0.100
19.900	-0.688	0.100
20.000	-9.643	0.100
20.100	-12.758	0.100
20.200	14.536	0.100
20.300	-1.029	0.100
20.400	11.850	0.100
20.500	-9.519	0.100
20.600	3.309	0.100
20.700	-3.959	0.100
20.800	-18.910	0.100
20.900	9.658	0.100
21.000	-24.232	0.100
21.100	12.591	0.100
21.200	-10.318	0.100
21.300	-5.291	0.100
21.400	-6.255	0.100
21.500	4.534	0.100
21.600	-2.864	0.100
21.700	-13.877	0.100
21.800	-13.842	0.100
21.900	-5.012	0.100
22.000	6.284	0.100
22.100	0.809	0.100
22.200	-6.275	0.100
22.300	-2.161	0.100
22.400	-19.255	0.100
22.500	-10.085	0.100
22.600	-6.389	0.100
22.700	2.844	0.100
22.800	-1.109	0.100
22.900	-8.198	0.100
23.000	4.759	0.100
23.100	-1.143	0.100
23.200	5.461	0.100
23.300	-15.223	0.100
23.400	-0.410	0.100
23.500	-8.729	0.100
23.600	-3.504	0.100
23.700	-2.723	0.100
23.800	-1.960	0.100
23.900	-1.485	0.100
24.000	-9.312	0.100
24.100	-14.694	0.100
24.200	-4.655	0.100
24.300	-1.670	0.100
24.400	1.431	0.100
24.500	-2.222	0.100
24.600	-7.262	0.100
24.700	4.647	0.100
24.800	1.918	0.100
24.900	-1.074	0.100
25.000	-9.074	0.100
25.100	-10.049	0.100
25.200	1.958	0.100
25.300	-23.633	0.100
25.400	-4.796	0.100
25.500	-2.927	0.100
25.600	2.364	0.100
25.700	-12.024	0.100
25.800	-4.180	0.100
25.900	3.868	0.100
26.000	-3.344	0.100
26.100	-5.050	0.100
26.200	7.178	0.100
26.300	-15.254	0.100
26.400	2.253	0.100
26.500	7.480	0.100
26.600	-2.145	0.100
26.700	-4.206	0.100
26.800	-3.185	0.100
26.900	6.488	0.100
27.000	-6.517	0.100
27.100	-5.837	0.100
27.200	-10.232	0.100
27.300	5.283	0.100
27.400	-3.412	0.100
27.500	-2.897	0.100
27.600	0.293	0.100
27.700	-13.054	0.100
27.800	-4.508	0.100
27.900	-0.675	0.100
28.000	0.316	0.100
28.100	-1.091	0.100
28.200	-19.787	0.100
28.300	15.785	0.100
28.400	-10.606	0.100
28.500	-3.196	0.100
28.600	-13.046	0.100
28.700	-5.530	0.100
28.800	0.335	0.100
28.900	-4.773	0.100
29.000	-25.474	0.100
29.100	-5.608	0.100
29.200	-1.227	0.100
29.300	-9.750	0.100
29.400	0.041	0.100
29.500	1.267	0.100
29.600	7.409	0.100
29.700	9.056	0.100
29.800	-8.838	0.100
29.900	-4.638	0.100
30.000	-8.890	0.100
30.100	-6.286	0.100
30.200	-7.121	0.100
30.300	-4.212	0.100
30.400	-5.216	0.100
30.500	-3.761	0.100
30.600	6.960	0.100
30.700	-3.987	0.100
30.800	-1.322	0.100
30.900	2.930	0.100
31.000	7.717	0.100
31.100	2.144	0.100
31.200	12.629	0.100
31.300	-7.972	0.100
31.400	26.599	0.100
31.500	24.942	0.100
31.600	42.636	0.100
31.700	30.462	0.100
31.800	22.135	0.100
31.900	22.795	0.100
32.000	13.817	0.100
32.100	40.219	0.100
32.200	28.030	0.100
32.300	30.980	0.100
32.400	28.034	0.100
32.500	36.124	0.100
32.600	34.690	0.100
32.700	36.060	0.100
32.800	33.866	0.100
32.900	35.461	0.100
33.000	34.774	0.100
33.100	37.659	0.100
33.200	45.302	0.100
33.300	19.149	0.100
33.400	38.934	0.100
33.500	44.146	0.100
33.600	45.472	0.100
33.700	50.697	0.100
33.800	50.755	0.100
33.900	28.483	0.100
34.000	44.353	0.100
34.100	47.149	0.100
34.200	61.102	0.100
34.300	36.710	0.100
34.400	49.387	0.100
34.500	48.621	0.100
34.600	38.405	0.100
34.700	42.524	0.100
34.800	50.644	0.100
34.900	42.776	0.100
35.000	40.961	0.100
35.100	56.447	0.100
35.200	47.169	0.100
35.300	55.446	0.100
35.400	54.380	0.100
35.500	56.395	0.100
35.600	49.784	0.100
35.700	40.581	0.100
35.800	47.249	0.100
35.900	47.605	0.100
36.000	51.091	0.100
36.100	50.390	0.100
36.200	54.767	0.100
36.300	48.362	0.100
36.400	53.132	0.100
36.500	60.100	0.100
36.600	50.280	0.100
36.700	58.706	0.100
36.800	48.595	0.100
36.900	61.496	0.100
37.000	69.671	0.100
37.100	69.029	0.100
37.200	72.428	0.100
37.300	68.919	0.100
37.400	58.524	0.100
37.500	49.260	0.100
37.600	66.558	0.100
37.700	59.896	0.100
37.800	78.694	0.100
37.900	68.762	0.100
38.000	72.613	0.100
38.100	54.037	0.100
38.200	57.204	0.100
38.300	91.657	0.100
38.400	79.038	0.100
38.500	72.529	0.100
38.600	66.084	0.100
38.700	71.131	0.100
38.800	86.960	0.100
38.900	61.065	0.100
39.000	88.107	0.100
39.100	74.591	0.100
39.200	72.375	0.100
39.300	74.882	0.100
39.400	85.199	0.100
39.500	79.997	0.100
39.600	68.735	0.100
39.700	74.742	0.100
39.800	74.748	0.100
39.900	64.088	0.100
40.000	95.981	0.100
40.100	75.348	0.100
40.200	87.377	0.100
40.300	77.200	0.100
40.400	68.903	0.100
40.500	78.345	0.100
40.600	72.362	0.100
40.700	90.348	0.100
40.800	77.310	0.100
40.900	58.959	0.100
41.000	83.443	0.100
41.100	78.783	0.100
41.200	84.883	0.100
41.300	77.989	0.100
41.400	79.708	0.100
41.500	83.911	0.100
41.600	64.728	0.100
41.700	69.159	0.100
41.800	69.912	0.100
41.900	98.072	0.100
42.000	80.494	0.100
42.100	76.861	0.100
42.200	73.327	0.100
42.300	88.491	0.100
42.400	75.832	0.100
42.500	79.660	0.100
42.600	79.527	0.100
42.700	62.574	0.100
42.800	66.780	0.100
42.900	70.429	0.100
43.000	81.889	0.100
43.100	75.529	0.100
43.200	56.491	0.100
43.300	67.147	0.100
43.400	77.005	0.100
43.500	72.500	0.100
43.600	80.866	0.100
43.700	65.791	0.100
43.800	67.936	0.100
43.900	56.966	0.100
44.000	68.755	0.100
44.100	72.302	0.100
44.200	62.778	0.100
44.300	65.390	0.100
44.400	62.790	0.100
44.500	60.822	0.100
44.600	54.672	0.100
44.700	68.768	0.100
44.800	56.142	0.100
44.900	73.567	0.100
45.000	59.975	0.100
45.100	69.014	0.100
45.200	66.294	0.100
45.300	55.182	0.100
45.400	66.524	0.100
45.500	64.407	0.100
45.600	59.784	0.100
45.700	57.025	0.100
45.800	59.649	0.100
45.900	41.320	0.100
46.000	49.976	0.100
46.100	57.060	0.100
46.200	64.504	0.100
46.300	51.891	0.100
46.400	53.247	0.100
46.500	58.881	0.100
46.600	70.343	0.100
46.700	58.004	0.100
46.800	42.121	0.100
46.900	45.872	0.100
47.000	56.736	0.100
47.100	58.942	0.100
47.200	51.437	0.100
47.300	50.292	0.100
47.400	65.137	0.100
47.500	60.158	0.100
47.600	54.862	0.100
47.700	30.739	0.100
47.800	52.988	0.100
47.900	42.923	0.100
48.000	42.669	0.100
48.100	47.132	0.100
48.200	53.638	0.100
48.300	57.543	0.100
48.400	38.488	0.100
48.500	56.874	0.100
48.600	48.011	0.100
48.700	45.800	0.100
48.800	33.770	0.100
48.900	60.537	0.100
49.000	37.325	0.100
49.100	62.186	0.100
49.200	52.794	0.100
49.300	41.428	0.100
49.400	44.848	0.100
49.500	34.260	0.100
49.600	60.256	0.100
49.700	41.884	0.100
49.800	35.131	0.100
49.900	41.882	0.100
50.000	41.375	0.100
50.100	52.346	0.100
50.200	32.464	0.100
50.300	49.906	0.100
50.400	45.523	0.100
50.500	43.686	0.100
50.600	44.433	0.100
50.700	53.323	0.100
50.800	42.632	0.100
50.900	43.568	0.100
51.000	48.337	0.100
51.100	36.086	0.100
51.200	30.172	0.100
51.300	36.246	0.100
51.400	37.916	0.100
51.500	45.026	0.100
51.600	39.400	0.100
51.700	44.657	0.100
51.800	37.829	0.100
51.900	34.556	0.100
52.000	36.934	0.100
52.100	36.292	0.100
52.200	38.852	0.100
52.300	43.806	0.100
52.400	45.886	0.100
52.500	33.316	0.100
52.600	46.564	0.100
52.700	46.084	0.100
52.800	33.318	0.100
52.900	28.757	0.100
53.000	55.952	0.100
53.100	38.730	0.100
53.200	37.280	0.100
53.300	52.088	0.100
53.400	34.739	0.100
53.500	41.845	0.100
53.600	55.231	0.100
53.700	39.272	0.100
53.800	44.839	0.100
53.900	42.534	0.100
54.000	36.774	0.100
54.100	40.754	0.100
54.200	33.480	0.100
54.300	44.700	0.100
54.400	48.327	0.100
54.500	36.109	0.100
54.600	56.467	0.100
54.700	41.327	0.100
54.800	48.547	0.100
54.900	29.841	0.100
55.000	33.356	0.100
55.100	20.108	0.100
55.200	49.323	0.100
55.300	42.613	0.100
55.400	42.157	0.100
55.500	50.474	0.100
55.600	54.855	0.100
55.700	49.855	0.100
55.800	42.143	0.100
55.900	51.891	0.100
56.000	43.038	0.100
56.100	30.543	0.100
56.200	39.799	0.100
56.300	42.127	0.100
56.400	47.870	0.100
56.500	34.205	0.100
56.600	28.582	0.100
56.700	51.414	0.100
56.800	47.530	0.100
56.900	47.890	0.100
57.000	38.179	0.100
57.100	44.033	0.100
57.200	49.821	0.100
57.300	27.499	0.100
57.400	51.026	0.100
57.500	40.579	0.100
57.600	55.538	0.100
57.700	41.036	0.100
57.800	33.141	0.100
57.900	43.924	0.100
58.000	40.319	0.100
58.100	43.188	0.100
58.200	48.317	0.100
58.300	45.011	0.100
58.400	48.402	0.100
58.500	41.304	0.100
58.600	43.288	0.100
58.700	41.835	0.100
58.800	36.302	0.100
58.900	46.184	0.100
59.000	42.081	0.100
59.100	32.467	0.100
59.200	60.208	0.100
59.300	46.564	0.100
59.400	44.395	0.100
59.500	44.263	0.100
59.600	33.958	0.100
59.700	55.268	0.100
59.800	28.188	0.100
59.900	47.140	0.100
60.000	39.495	0.100
60.100	30.701	0.100
60.200	39.434	0.100
60.300	51.849	0.100
60.400	46.110	0.100
60.500	36.594	0.100
60.600	53.868	0.100
60.700	55.343	0.100
60.800	45.595	0.100
60.900	44.474	0.100
61.000	40.644	0.100
61.100	58.574	0.100
61.200	49.922	0.100
61.300	46.246	0.100
61.400	40.338	0.100
61.500	29.936	0.100
61.600	43.536	0.100
61.700	45.178	0.100
61.800	46.568	0.100
61.900	49.866	0.100
62.000	34.012	0.100
62.100	45.573	0.100
62.200	57.955	0.100
62.300	36.006	0.100
62.400	35.744	0.100
62.500	53.260	0.100
62.600	46.875	0.100
62.700	28.313	0.100
62.800	36.396	0.100
62.900	57.391	0.100
63.000	54.497	0.100
63.100	48.270	0.100
63.200	45.104	0.100
63.300	55.076	0.100
63.400	46.947	0.100
63.500	38.927	0.100
63.600	56.999	0.100
63.700	40.979	0.100
63.800	42.368	0.100
63.900	53.157	0.100
64.000	38.968	0.100
64.100	27.587	0.100
64.200	44.117	0.100
64.300	60.075	0.100
64.400	17.717	0.100
64.500	71.926	0.100
64.600	41.030	0.100
64.700	39.428	0.100
64.800	40.328	0.100
64.900	50.370	0.100
65.000	55.065	0.100
65.100	50.393	0.100
65.200	39.577	0.100
65.300	34.596	0.100
65.400	49.249	0.100
65.500	46.427	0.100
65.600	45.218	0.100
65.700	50.402	0.100
65.800	54.107	0.100
65.900	39.365	0.100
66.000	37.824	0.100
66.100	54.431	0.100
66.200	40.900	0.100
66.300	49.970	0.100
66.400	55.489	0.100
66.500	52.712	0.100
66.600	45.784	0.100
66.700	53.090	0.100
66.800	54.343	0.100
66.900	51.557	0.100
67.000	40.742	0.100
67.100	53.698	0.100
67.200	47.487	0.100
67.300	55.016	0.100
67.400	43.013	0.100
67.500	41.335	0.100
67.600	30.934	0.100
67.700	51.210	0.100
67.800	61.260	0.100
67.900	48.975	0.100
68.000	52.148	0.100
68.100	33.534	0.100
68.200	37.789	0.100
68.300	50.303	0.100
68.400	34.282	0.100
68.500	58.108	0.100
68.600	53.854	0.100
68.700	50.129	0.100
68.800	61.607	0.100
68.900	56.335	0.100
69.000	61.070	0.100
69.100	35.605	0.100
69.200	40.260	0.100
69.300	52.700	0.100
69.400	47.743	0.100
69.500	37.921	0.100
69.600	36.820	0.100
69.700	61.910	0.100
69.800	62.007	0.100
69.900	48.868	0.100
70.000	53.391	0.100
70.100	54.917	0.100
70.200	55.256	0.100
70.300	43.265	0.100
70.400	55.685	0.100
70.500	51.645	0.100
70.600	56.016	0.100
70.700	52.590	0.100
70.800	43.286	0.100
70.900	52.190	0.100
71.000	43.148	0.100
71.100	48.535	0.100
71.200	62.125	0.100
71.300	48.600	0.100
71.400	40.677	0.100
71.500	46.607	0.100
71.600	52.134	0.100
71.700	46.832	0.100
71.800	52.919	0.100
71.900	62.361	0.100
72.000	50.073	0.100
72.100	50.369	0.100
72.200	44.159	0.100
72.300	50.825	0.100
72.400	48.826	0.100
72.500	43.035	0.100
72.600	55.417	0.100
72.700	53.468	0.100
72.800	42.474	0.100
72.900	58.761	0.100
73.000	56.798	0.100
73.100	53.615	0.100
73.200	47.392	0.100
73.300	38.120	0.100
73.400	49.624	0.100
73.500	55.781	0.100
73.600	55.085	0.100
73.700	44.882	0.100
73.800	43.243	0.100
73.900	40.343	0.100
74.000	44.974	0.100
74.100	56.402	0.100
74.200	45.380	0.100
74.300	45.990	0.100
74.400	58.801	0.100
74.500	54.098	0.100
74.600	54.952	0.100
74.700	62.724	0.100
74.800	64.760	0.100
74.900	46.147	0.100
75.000	57.400	0.100
75.100	55.398	0.100
75.200	34.527	0.100
75.300	49.159	0.100
75.400	52.306	0.100
75.500	32.637	0.100
75.600	61.567	0.100
75.700	50.129	0.100
75.800	77.459	0.100
75.900	51.259	0.100
76.000	64.134	0.100
76.100	41.868	0.100
76.200	45.826	0.100
76.300	46.096	0.100
76.400	41.925	0.100
76.500	58.193	0.100
76.600	48.439	0.100
76.700	42.843	0.100
76.800	42.918	0.100
76.900	46.161	0.100
77.000	51.829	0.100
77.100	58.469	0.100
77.200	56.807	0.100
77.300	44.899	0.100
77.400	45.747	0.100
77.500	50.839	0.100
77.600	59.911	0.100
77.700	47.283	0.100
77.800	54.532	0.100
77.900	47.773	0.100
78.000	40.699	0.100
78.100	45.921	0.100
78.200	44.985	0.100
78.300	54.903	0.100
78.400	53.562	0.100
78.500	61.930	0.100
78.600	50.367	0.100
78.700	57.767	0.100
78.800	63.103	0.100
78.900	59.805	0.100
79.000	51.296	0.100
79.100	46.571	0.100
79.200	45.892	0.100
79.300	54.273	0.100
79.400	56.532	0.100
79.500	58.340	0.100
79.600	57.929	0.100
79.700	55.101	0.100
79.800	46.053	0.100
79.900	51.040	0.100
80.000	70.165	0.100
80.100	64.542	0.100
80.200	42.583	0.100
80.300	62.082	0.100
80.400	49.771	0.100
80.500	50.365	0.100
80.600	52.240	0.100
80.700	43.642	0.100
80.800	55.505	0.100
80.900	48.042	0.100
81.000	51.359	0.100
81.100	51.121	0.100
81.200	43.418	0.100
81.300	49.168	0.100
81.400	58.052	0.100
81.500	50.773	0.100
81.600	63.958	0.100
81.700	45.777	0.100
81.800	42.224	0.100
81.900	58.550	0.100
82.000	64.884	0.100
82.100	49.903	0.100
82.200	43.449	0.100
82.300	46.315	0.100
82.400	51.232	0.100
82.500	50.709	0.100
82.600	61.691	0.100
82.700	62.922	0.100
82.800	35.122	0.100
82.900	45.170	0.100
83.000	62.882	0.100
83.100	63.601	0.100
83.200	45.981	0.100
83.300	63.051	0.100
83.400	53.933	0.100
83.500	54.144	0.100
83.600	58.049	0.100
83.700	43.637	0.100
83.800	51.544	0.100
83.900	44.959	0.100
84.000	63.720	0.100
84.100	53.598	0.100
84.200	54.894	0.100
84.300	47.855	0.100
84.400	53.082	0.100
84.500	55.360	0.100
84.600	45.083	0.100
84.700	61.700	0.100
84.800	64.206	0.100
84.900	64.249	0.100
85.000	61.550	0.100
85.100	50.157	0.100
85.200	54.328	0.100
85.300	49.456	0.100
85.400	46.007	0.100
85.500	43.818	0.100
85.600	73.712	0.100
85.700	40.222	0.100
85.800	42.745	0.100
85.900	53.888	0.100
86.000	44.585	0.100
86.100	67.921	0.100
86.200	47.925	0.100
86.300	42.397	0.100
86.400	49.541	0.100
86.500	59.051	0.100
86.600	42.701	0.100
86.700	64.697	0.100
86.800	62.643	0.100
86.900	51.365	0.100
87.000	39.167	0.100
87.100	64.662	0.100
87.200	57.009	0.100
87.300	50.810	0.100
87.400	59.197	0.100
87.500	59.833	0.100
87.600	62.994	0.100
87.700	58.823	0.100
87.800	51.222	0.100
87.900	51.294	0.100
88.000	49.035	0.100
88.100	62.784	0.100
88.200	49.768	0.100
88.300	57.460	0.100
88.400	56.007	0.100
88.500	44.585	0.100
88.600	38.301	0.100
88.700	58.200	0.100
88.800	58.843	0.100
88.900	57.323	0.100
89.000	57.586	0.100
89.100	41.430	0.100
89.200	53.407	0.100
89.300	56.767	0.100
89.400	63.521	0.100
89.500	54.374	0.100
89.600	69.448	0.100
89.700	40.633	0.100
89.800	55.815	0.100
89.900	55.371	0.100
90.000	46.058	0.100
90.100	57.665	0.100
90.200	59.742	0.100
90.300	65.419	0.100
90.400	32.888	0.100
90.500	66.809	0.100
90.600	58.518	0.100
90.700	54.040	0.100
90.800	43.122	0.100
90.900	35.982	0.100
91.000	48.573	0.100
91.100	40.227	0.100
91.200	34.817	0.100
91.300	29.792	0.100
91.400	16.127	0.100
91.500	21.379	0.100
91.600	18.825	0.100
91.700	13.900	0.100
91.800	22.486	0.100
91.900	-1.377	0.100
92.000	18.868	0.100
92.100	19.058	0.100
92.200	22.631	0.100
92.300	14.700	0.100
92.400	-2.291	0.100
92.500	21.118	0.100
92.600	15.831	0.100
92.700	10.906	0.100
92.800	2.450	0.100
92.900	-0.586	0.100
93.000	-4.316	0.100
93.100	-2.076	0.100
93.200	-3.056	0.100
93.300	-10.316	0.100
93.400	-11.768	0.100
93.500	-5.516	0.100
93.600	-5.561	0.100
93.700	-1.693	0.100
93.800	8.659	0.100
93.900	-12.983	0.100
94.000	-12.801	0.100
94.100	-13.544	0.100
94.200	-20.826	0.100
94.300	-13.551	0.100
94.400	-18.853	0.100
94.500	-20.899	0.100
94.600	-21.177	0.100
94.700	-6.025	0.100
94.800	-23.599	0.100
94.900	-19.078	0.100
95.000	-34.072	0.100
95.100	-35.312	0.100
95.200	-11.124	0.100
95.300	-12.478	0.100
95.400	-13.391	0.100
95.500	-27.051	0.100
95.600	-25.282	0.100
95.700	-20.334	0.100
95.800	-22.670	0.100
95.900	-27.877	0.100
96.000	-31.112	0.100
96.100	-22.750	0.100
96.200	-26.036	0.100
96.300	-37.162	0.100
96.400	-28.954	0.100
96.500	-32.827	0.100
96.600	-17.061	0.100
96.700	-24.024	0.100
96.800	-31.066	0.100
96.900	-17.441	0.100
97.000	-26.093	0.100
97.100	-19.124	0.100
97.200	-41.925	0.100
97.300	-27.086	0.100
97.400	-22.137	0.100
97.500	-29.352	0.100
97.600	-32.182	0.100
97.700	-22.972	0.100
97.800	-29.953	0.100
97.900	-18.372	0.100
98.000	-13.091	0.100
98.100	-27.995	0.100
98.200	-25.291	0.100
98.300	-16.005	0.100
98.400	-18.790	0.100
98.500	-14.248	0.100
98.600	-22.390	0.100
98.700	-25.626	0.100
98.800	-34.457	0.100
98.900	-24.698	0.100
99.000	-33.355	0.100
99.100	-31.641	0.100
99.200	-25.184	0.100
99.300	-21.750	0.100
99.400	-15.321	0.100
99.500	-26.725	0.100
99.600	-10.232	0.100
99.700	-17.662	0.100
99.800	-18.220	0.100
99.900	-28.394	0.100
100.000	-27.347	0.100
100.100	-14.417	0.100
100.200	-18.021	0.100
100.300	-20.620	0.100
100.400	-18.057	0.100
100.500	-11.254	0.100
100.600	-21.933	0.100
100.700	-18.323	0.100
100.800	-16.302	0.100
100.900	-19.253	0.100
101.000	-14.985	0.100
101.100	-13.948	0.100
101.200	-8.946	0.100
101.300	-19.711	0.100
101.400	-3.612	0.100
101.500	-22.259	0.100
101.600	-1.837	0.100
101.700	-8.171	0.100
101.800	-20.950	0.100
101.900	-28.075	0.100
102.000	-8.112	0.100
102.100	-13.324	0.100
102.200	-8.147	0.100
102.300	-17.496	0.100
102.400	-11.835	0.100
102.500	-6.867	0.100
102.600	-20.070	0.100
102.700	-12.936	0.100
102.800	-22.365	0.100
102.900	-20.558	0.100
103.000	-18.441	0.100
103.100	-16.765	0.100
103.200	-25.967	0.100
103.300	-11.024	0.100
103.400	-13.853	0.100
103.500	-13.695	0.100
103.600	-14.688	0.100
103.700	-16.555	0.100
103.800	-21.407	0.100
103.900	-25.538	0.100
104.000	-4.402	0.100
104.100	-29.619	0.100
104.200	-9.088	0.100
104.300	-19.990	0.100
104.400	0.844	0.100
104.500	-14.182	0.100
104.600	-15.340	0.100
104.700	-18.905	0.100
104.800	-8.086	0.100
104.900	-12.228	0.100
105.000	-14.964	0.100
105.100	-11.357	0.100
105.200	3.635	0.100
105.300	-13.518	0.100
105.400	-15.332	0.100
105.500	-3.111	0.100
105.600	-10.945	0.100
105.700	-24.376	0.100
105.800	-15.028	0.100
105.900	-16.310	0.100
106.000	-7.287	0.100
106.100	-10.115	0.100
106.200	-9.471	0.100
106.300	-7.388	0.100
106.400	-19.837	0.100
106.500	-23.800	0.100
106.600	-6.303	0.100
106.700	-14.020	0.100
106.800	-15.019	0.100
106.900	-13.727	0.100
107.000	-5.999	0.100
107.100	-18.125	0.100
107.200	-3.678	0.100
107.300	-7.756	0.100
107.400	-25.440	0.100
107.500	-17.780	0.100
107.600	-12.908	0.100
107.700	-4.877	0.100
107.800	-8.331	0.100
107.900	-13.948	0.100
108.000	-20.104	0.100
108.100	-17.737	0.100
108.200	-15.263	0.100
108.300	-9.568	0.100
108.400	-18.295	0.100
108.500	-10.655	0.100
108.600	-18.045	0.100
108.700	-7.713	0.100
108.800	-32.300	0.100
108.900	-28.928	0.100
109.000	6.316	0.100
109.100	-1.985	0.100
109.200	5.095	0.100
109.300	-20.499	0.100
109.400	-10.078	0.100
109.500	-8.115	0.100
109.600	-20.107	0.100
109.700	-33.624	0.100
109.800	-21.718	0.100
109.900	-9.058	0.100
110.000	-2.397	0.100
110.100	-21.683	0.100
110.200	-33.460	0.100
110.300	-18.099	0.100
110.400	-1.407	0.100
110.500	-21.401	0.100
110.600	-13.514	0.100
110.700	-19.198	0.100
110.800	-12.752	0.100
110.900	-21.235	0.100
111.000	-29.783	0.100
111.100	-10.474	0.100
111.200	-6.436	0.100
111.300	-19.325	0.100
111.400	-0.528	0.100
111.500	-12.717	0.100
111.600	-23.266	0.100
111.700	-12.574	0.100
111.800	-15.901	0.100
111.900	-17.598	0.100
112.000	-16.854	0.100
112.100	-22.529	0.100
112.200	-24.189	0.100
112.300	-26.633	0.100
112.400	-20.156	0.100
112.500	-9.263	0.100
112.600	1.816	0.100
112.700	-4.252	0.100
112.800	-10.860	0.100
112.900	-16.488	0.100
113.000	-18.634	0.100
113.100	-19.380	0.100
113.200	-17.217	0.100
113.300	2.173	0.100
113.400	-11.007	0.100
113.500	-5.886	0.100
113.600	-13.408	0.100
113.700	-23.131	0.100
113.800	-17.676	0.100
113.900	-19.002	0.100
114.000	-20.780	0.100
114.100	-4.853	0.100
114.200	-11.526	0.100
114.300	-20.981	0.100
114.400	-25.797	0.100
114.500	-14.631	0.100
114.600	-14.918	0.100
114.700	-10.368	0.100
114.800	-10.448	0.100
114.900	-15.727	0.100
115.000	-12.911	0.100
115.100	-8.480	0.100
115.200	-18.534	0.100
115.300	-8.688	0.100
115.400	-22.413	0.100
115.500	-21.123	0.100
115.600	-13.150	0.100
115.700	-29.889	0.100
115.800	-33.071	0.100
115.900	-18.255	0.100
116.000	9.085	0.100
116.100	-11.475	0.100
116.200	-22.563	0.100
116.300	-20.581	0.100
116.400	-14.118	0.100
116.500	-38.778	0.100
116.600	-14.251	0.100
116.700	-20.757	0.100
116.800	-8.637	0.100
116.900	-30.601	0.100
117.000	-0.689	0.100
117.100	-24.507	0.099
117.200	-30.551	0.099
117.300	-14.345	0.099
117.400	-22.279	0.099
117.500	-25.003	0.099
117.600	-16.822	0.099
117.700	-20.548	0.099
117.800	-17.457	0.099
117.900	-22.793	0.099
118.000	-17.377	0.099
118.100	-27.034	0.099
118.200	-24.588	0.099
118.300	-15.902	0.099
118.400	-5.263	0.099
118.500	-18.876	0.099
118.600	-22.915	0.099
118.700	-17.394	0.099
118.800	-22.259	0.099
118.900	-24.473	0.099
119.000	-17.093	0.099
119.100	-26.562	0.099
119.200	-22.466	0.099
119.300	-25.882	0.099
119.400	-11.858	0.099
119.500	-23.326	0.099
119.600	-12.294	0.099
119.700	-19.745	0.099
119.800	-38.190	0.099
119.900	-27.767	0.099
120.000	-9.263	0.099
120.100	-18.116	0.099
120.200	-16.344	0.099
120.300	-14.820	0.099
120.400	-26.754	0.099
120.500	-18.916	0.099
120.600	-24.976	0.099
120.700	-31.377	0.099
120.800	-21.122	0.099
120.900	-15.497	0.099
121.000	-12.951	0.099
121.100	-20.999	0.099
121.200	-25.540	0.099
121.300	-24.681	0.099
121.400	-23.742	0.099
121.500	-18.862	0.099
121.600	-32.709	0.099
121.700	-24.795	0.099
121.800	-21.378	0.099
121.900	-25.259	0.099
122.000	-32.104	0.099
122.100	-18.281	0.099
122.200	-18.848	0.099
122.300	-29.018	0.099
122.400	-17.938	0.099
122.500	-13.718	0.099
122.600	-20.827	0.099
122.700	-30.292	0.099
122.800	-29.210	0.099
122.900	-15.343	0.099
123.000	-16.285	0.099
123.100	-39.264	0.099
123.200	-19.134	0.099
123.300	-17.136	0.099
123.400	-24.283	0.099
123.500	-18.459	0.099
123.600	-27.789	0.099
123.700	-20.683	0.099
123.800	-25.742	0.099
123.900	-27.404	0.099
124.000	-33.903	0.099
124.100	-33.612	0.099
124.200	-40.828	0.099
124.300	-41.196	0.099
124.400	-15.548	0.099
124.500	-11.570	0.099
124.600	-14.660	0.099
124.700	-28.259	0.099
124.800	-15.254	0.099
124.900	-29.964	0.099
125.000	-34.774	0.099
125.100	-23.510	0.099
125.200	-22.642	0.099
125.300	-33.033	0.099
125.400	-12.967	0.099
125.500	-26.668	0.099
125.600	-22.774	0.099
125.700	-26.145	0.099
125.800	-15.819	0.099
125.900	-16.587	0.099
126.000	-19.831	0.099
126.100	-24.756	0.099
126.200	-15.301	0.099
126.300	-26.958	0.099
126.400	-35.219	0.099
126.500	-30.578	0.099
126.600	-19.874	0.099
126.700	-29.515	0.099
126.800	-31.163	0.099
126.900	-20.093	0.099
127.000	-22.009	0.099
127.100	-16.857	0.099
127.200	-14.228	0.099
127.300	-28.736	0.099
127.400	-24.950	0.099
127.500	-42.770	0.099
127.600	-40.141	0.099
127.700	-24.209	0.099
127.800	-26.407	0.099
127.900	-16.253	0.099
128.000	-20.021	0.099
128.100	-27.502	0.099
128.200	-26.584	0.099
128.300	-27.995	0.099
128.400	-13.748	0.099
128.500	-28.449	0.099
128.600	-36.548	0.099
128.700	-25.127	0.099
128.800	-18.586	0.099
128.900	-29.492	0.099
129.000	-31.469	0.099
129.100	-19.704	0.099
129.200	-15.707	0.099
129.300	-23.498	0.099
129.400	-24.534	0.099
129.500	-36.778	0.099
129.600	-16.124	0.099
129.700	-36.166	0.099
129.800	-18.769	0.099
129.900	-35.766	0.099
130.000	-36.307	0.099
130.100	-24.720	0.099
130.200	-14.089	0.099
130.300	-17.415	0.099
130.400	-24.620	0.099
130.500	-25.911	0.099
130.600	-30.730	0.099
130.700	-30.273	0.099
130.800	-27.390	0.099
130.900	-21.041	0.099
131.000	-34.348	0.099
131.100	-30.663	0.099
131.200	-9.090	0.099
131.300	-22.993	0.099
131.400	-19.863	0.099
131.500	-27.632	0.099
131.600	-20.878	0.099
131.700	-20.176	0.099
131.800	-24.675	0.099
131.900	-24.040	0.099
132.000	-28.267	0.099
132.100	-19.189	0.099
132.200	-28.583	0.099
132.300	-30.451	0.099
132.400	-17.973	0.099
132.500	-29.263	0.099
132.600	-35.867	0.099
132.700	-13.106	0.099
132.800	-23.596	0.099
132.900	-38.487	0.099
133.000	-24.037	0.099
133.100	-25.038	0.099
133.200	-35.255	0.099
133.300	-27.151	0.099
133.400	-28.805	0.099
133.500	-36.890	0.099
133.600	-14.633	0.099
133.700	-28.809	0.099
133.800	-22.742	0.099
133.900	-28.256	0.100
134.000	-15.876	0.100
134.100	-22.356	0.100
134.200	-16.604	0.100
134.300	-25.958	0.100
134.400	-7.128	0.100
134.500	-20.567	0.100
134.600	-28.544	0.100
134.700	-22.610	0.100
134.800	-22.771	0.100
134.900	-17.988	0.100
135.000	-8.233	0.100
135.100	-26.685	0.100
135.200	-25.630	0.100
135.300	-20.798	0.100
135.400	-31.701	0.100
135.500	-21.433	0.100
135.600	-23.020	0.100
135.700	-15.396	0.100
135.800	-39.710	0.100
135.900	-20.662	0.100
136.000	-7.243	0.100
136.100	-26.142	0.100
136.200	-15.355	0.100
136.300	-10.334	0.100
136.400	-13.347	0.100
136.500	-38.660	0.100
136.600	-38.108	0.100
136.700	-31.647	0.100
136.800	-23.561	0.100
136.900	-22.471	0.100
137.000	-24.358	0.100
137.100	-20.443	0.100
137.200	-39.658	0.100
137.300	-17.717	0.100
137.400	-25.330	0.100
137.500	-15.916	0.100
137.600	-22.172	0.100
137.700	-17.309	0.100
137.800	-29.179	0.100
137.900	-13.669	0.100
138.000	-13.581	0.100
138.100	-27.853	0.100
138.200	-18.569	0.100
138.300	-16.787	0.100
138.400	-18.937	0.100
138.500	-12.890	0.100
138.600	-23.740	0.100
138.700	-26.561	0.100
138.800	-20.495	0.100
138.900	-21.907	0.100
139.000	-22.002	0.100
139.100	-28.563	0.100
139.200	-10.170	0.100
139.300	-30.241	0.100
139.400	-13.551	0.100
139.500	-3.258	0.100
139.600	-17.988	0.100
139.700	-39.051	0.100
139.800	-32.426	0.100
139.900	-15.721	0.100
140.000	-32.958	0.100
140.100	-17.555	0.100
140.200	-33.488	0.100
140.300	-2.113	0.100
140.400	-9.681	0.100
140.500	-17.976	0.100
140.600	-23.085	0.100
140.700	-12.533	0.100
140.800	-16.860	0.100
140.900	-21.973	0.100
141.000	-33.605	0.100
141.100	-26.567	0.100
141.200	-15.435	0.100
141.300	-22.701	0.100
141.400	-4.842	0.100
141.500	-6.381	0.100
141.600	-16.662	0.100
141.700	-34.156	0.100
141.800	-10.310	0.100
141.900	-15.576	0.100
142.000	-14.754	0.100
142.100	-8.144	0.100
142.200	-19.724	0.100
142.300	-15.755	0.100
142.400	-25.944	0.100
142.500	-33.762	0.100
142.600	-11.427	0.100
142.700	-3.176	0.100
142.800	-20.087	0.100
142.900	-28.903	0.100
143.000	-16.287	0.100
143.100	-30.155	0.100
143.200	-14.096	0.100
143.300	-21.410	0.100
143.400	-28.928	0.100
143.500	-16.285	0.100
143.600	-22.619	0.100
143.700	-25.762	0.100
143.800	-38.179	0.100
143.900	-13.908	0.100
144.000	-15.589	0.100
144.100	-28.567	0.100
144.200	-8.240	0.100
144.300	-26.082	0.100
144.400	-20.496	0.100
144.500	-22.549	0.100
144.600	-8.325	0.100
144.700	-15.294	0.100
144.800	-17.041	0.100
144.900	-27.712	0.100
145.000	-23.095	0.100
145.100	-19.977	0.100
145.200	-16.301	0.100
145.300	-22.147	0.100
145.400	-13.612	0.100
145.500	-17.010	0.100
145.600	-25.955	0.100
145.700	-18.511	0.100
145.800	-19.432	0.100
145.900	-28.080	0.100
146.000	-27.749	0.100
146.100	-10.581	0.100
146.200	-16.108	0.100
146.300	-14.596	0.100
146.400	-21.175	0.100
146.500	-21.408	0.100
146.600	-15.301	0.100
146.700	-10.014	0.100
146.800	-18.576	0.100
146.900	-8.794	0.100
147.000	-31.705	0.100
147.100	-14.214	0.100
147.200	-15.315	0.100
147.300	-24.063	0.100
147.400	-11.342	0.100
147.500	-21.629	0.100
147.600	-23.709	0.100
147.700	-19.219	0.100
147.800	-13.339	0.100
147.900	-26.188	0.100
148.000	-10.525	0.100
148.100	-21.487	0.100
148.200	-27.812	0.100
148.300	-17.502	0.100
148.400	-25.406	0.100
148.500	-2.883	0.100
148.600	-36.125	0.100
148.700	-13.975	0.100
148.800	-12.634	0.100
148.900	-29.860	0.100
149.000	-11.687	0.100
149.100	-11.988	0.100
149.200	-9.533	0.100
149.300	-19.169	0.100
149.400	-28.696	0.100
149.500	-21.818	0.100
149.600	-15.467	0.100
149.700	-18.819	0.100
149.800	-19.195	0.100
149.900	-23.018	0.100
150.000	-31.613	0.100
150.100	-29.009	0.100
150.200	-29.827	0.100
150.300	-15.231	0.100
150.400	-4.295	0.100
150.500	-22.509	0.100
150.600	-18.572	0.100
150.700	-7.243	0.100
150.800	-26.242	0.100
150.900	-20.556	0.100
151.000	-11.562	0.100
151.100	-24.890	0.100
151.200	-22.298	0.100
151.300	-28.293	0.100
151.400	-23.682	0.100
151.500	-30.511	0.100
151.600	-15.073	0.100
151.700	-15.462	0.100
151.800	-18.657	0.100
151.900	-21.761	0.100
152.000	-20.260	0.100
152.100	-28.230	0.100
152.200	-15.152	0.100
152.300	-17.017	0.100
152.400	-20.414	0.100
152.500	-20.693	0.100
152.600	-24.839	0.100
152.700	-20.262	0.100
152.800	-11.976	0.100
152.900	-26.988	0.100
153.000	-22.084	0.100
153.100	-5.035	0.100
153.200	-14.720	0.100
153.300	-18.481	0.100
153.400	-20.785	0.100
153.500	-29.300	0.100
153.600	-24.113	0.100
153.700	-9.671	0.100
153.800	-0.202	0.100
153.900	-0.731	0.100
154.000	-31.100	0.100
154.100	-15.131	0.100
154.200	-19.072	0.100
154.300	-18.413	0.100
154.400	-17.995	0.100
154.500	-18.064	0.100
154.600	-15.310	0.100
154.700	-21.747	0.100
154.800	-28.863	0.100
154.900	-16.882	0.100
155.000	-17.044	0.100
155.100	-16.977	0.100
155.200	-39.859	0.100
155.300	-25.443	0.100
155.400	-21.168	0.100
155.500	-17.887	0.100
155.600	-9.254	0.100
155.700	-7.223	0.100
155.800	-23.070	0.100
155.900	-26.438	0.100
156.000	-30.601	0.100
156.100	-15.080	0.100
156.200	-19.678	0.100
156.300	-25.972	0.100
156.400	-11.671	0.100
156.500	-0.855	0.100
156.600	-21.434	0.100
156.700	-32.832	0.100
156.800	-20.890	0.100
156.900	-15.071	0.100
157.000	-12.602	0.100
157.100	-20.348	0.100
157.200	-22.454	0.100
157.300	-27.166	0.100
157.400	-14.605	0.100
157.500	-20.898	0.100
157.600	-12.905	0.100
157.700	-10.871	0.100
157.800	-16.708	0.100
157.900	-14.412	0.100
158.000	-7.790	0.100
158.100	-29.633	0.100
158.200	0.881	0.100
158.300	-3.314	0.100
158.400	-12.611	0.100
158.500	-32.515	0.100
158.600	-7.170	0.100
158.700	-19.911	0.100
158.800	-15.833	0.100
158.900	-22.820	0.100
159.000	-25.075	0.100
159.100	-12.988	0.100
159.200	-21.640	0.100
159.300	-13.393	0.100
159.400	-7.617	0.100
159.500	-10.851	0.100
159.600	-23.953	0.100
159.700	-12.573	0.100
159.800	-21.108	0.100
159.900	-30.339	0.100
160.000	-17.338	0.100
160.100	-17.890	0.100
160.200	-21.784	0.100
160.300	-4.633	0.100
160.400	-21.076	0.100
160.500	-9.514	0.100
160.600	-11.225	0.100
160.700	-18.809	0.100
160.800	-3.790	0.100
160.900	-6.629	0.100
161.000	-6.668	0.100
161.100	-30.916	0.100
161.200	-15.376	0.100
161.300	-24.301	0.100
161.400	-14.624	0.100
161.500	-27.226	0.100
161.600	-17.305	0.100
161.700	-4.325	0.100
161.800	-9.169	0.100
161.900	-19.526	0.100
162.000	-17.418	0.100
162.100	-2.828	0.100
162.200	-13.318	0.100
162.300	-12.039	0.100
162.400	-32.933	0.100
162.500	-34.621	0.100
162.600	-13.190	0.100
162.700	-10.652	0.100
162.800	-22.190	0.100
162.900	-9.979	0.100
163.000	-12.776	0.100
163.100	-24.542	0.100
163.200	-16.213	0.100
163.300	-6.452	0.100
163.400	-15.448	0.100
163.500	-12.583	0.100
163.600	-6.612	0.100
163.700	-19.483	0.100
163.800	-13.555	0.100
163.900	-1.660	0.100
164.000	-29.947	0.100
164.100	-20.026	0.100
164.200	-13.909	0.100
164.300	-22.839	0.100
164.400	-15.309	0.100
164.500	-7.957	0.100
164.600	-13.508	0.100
164.700	-0.298	0.100
164.800	0.522	0.100
164.900	-35.121	0.100
165.000	-30.017	0.100
165.100	-2.869	0.100
165.200	-17.783	0.100
165.300	-22.862	0.100
165.400	-17.616	0.100
165.500	-10.873	0.100
165.600	-17.990	0.100
165.700	-3.591	0.100
165.800	-13.771	0.100
165.900	-9.249	0.100
166.000	-13.955	0.100
166.100	-12.902	0.100
166.200	-16.929	0.100
166.300	-15.349	0.100
166.400	-19.711	0.100
166.500	-17.276	0.100
166.600	-9.450	0.100
166.700	-27.678	0.100
166.800	-15.412	0.100
166.900	-21.080	0.100
167.000	-15.576	0.100
167.100	-23.314	0.100
167.200	-7.595	0.100
167.300	-0.617	0.100
167.400	-23.878	0.100
167.500	-13.278	0.100
167.600	-27.732	0.100
167.700	-11.340	0.100
167.800	-6.881	0.100
167.900	-18.528	0.100
168.000	-7.866	0.100
168.100	-16.147	0.100
168.200	-19.716	0.100
168.300	-14.778	0.100
168.400	-5.423	0.100
168.500	-14.759	0.100
168.600	-13.357	0.100
168.700	-24.667	0.100
168.800	-12.853	0.100
168.900	-21.580	0.100
169.000	-5.383	0.100
169.100	-13.903	0.100
169.200	-24.741	0.100
169.300	-3.107	0.100
169.400	-17.886	0.100
169.500	-12.367	0.100
169.600	-15.767	0.100
169.700	-13.987	0.100
169.800	-18.816	0.100
169.900	-39.164	0.100
170.000	-20.395	0.100
170.100	-10.269	0.100
170.200	-6.355	0.100
170.300	-24.598	0.100
170.400	-34.101	0.100
170.500	-9.491	0.100
170.600	-18.235	0.100
170.700	-0.813	0.100
170.800	-10.396	0.100
170.900	-23.211	0.100
171.000	-7.463	0.100
171.100	-18.080	0.100
171.200	-19.126	0.100
171.300	-10.968	0.100
171.400	-4.945	0.100
171.500	-16.524	0.100
171.600	-19.328	0.100
171.700	-5.779	0.100
171.800	-12.119	0.100
171.900	-6.789	0.100
172.000	-24.361	0.100
172.100	-16.523	0.100
172.200	-2.313	0.100
172.300	-17.007	0.100
172.400	-14.875	0.100
172.500	-27.612	0.100
172.600	-31.664	0.100
172.700	-9.734	0.100
172.800	-11.696	0.100
172.900	-5.837	0.100
173.000	9.290	0.100
173.100	-5.809	0.100
173.200	-18.136	0.100
173.300	-26.651	0.100
173.400	2.988	0.100
173.500	-3.639	0.100
173.600	-12.404	0.100
173.700	-25.150	0.100
173.800	-28.811	0.100
173.900	-6.065	0.100
174.000	-13.702	0.100
174.100	-20.251	0.100
174.200	-3.531	0.100
174.300	-8.515	0.100
174.400	-14.282	0.100
174.500	-15.076	0.100
174.600	-23.654	0.100
174.700	-18.390	0.100
174.800	-13.219	0.100
174.900	-6.281	0.100
175.000	12.341	0.100
175.100	-12.756	0.100
175.200	-17.251	0.100
175.300	-18.119	0.100
175.400	-11.990	0.100
175.500	-23.279	0.100
175.600	-15.979	0.100
175.700	-15.884	0.100
175.800	-13.408	0.100
175.900	-16.787	0.100
176.000	-4.591	0.100
176.100	-9.939	0.100
176.200	-10.488	0.100
176.300	-17.809	0.100
176.400	-5.067	0.100
176.500	-14.538	0.100
176.600	-20.085	0.100
176.700	-4.200	0.100
176.800	-14.043	0.100
176.900	-14.736	0.100
177.000	-11.480	0.100
177.100	-16.808	0.100
177.200	-13.120	0.100
177.300	-15.435	0.100
177.400	-10.106	0.100
177.500	-9.474	0.100
177.600	-11.366	0.100
177.700	-21.007	0.100
177.800	-12.346	0.100
177.900	-3.884	0.100
178.000	-24.893	0.100
178.100	-0.619	0.100
178.200	-9.054	0.100
178.300	-12.160	0.100
178.400	-8.552	0.100
178.500	-6.852	0.100
178.600	-17.781	0.100
178.700	-34.124	0.100
178.800	-13.689	0.100
178.900	-7.908	0.100
179.000	-8.501	0.100
179.100	-9.894	0.100
179.200	-20.135	0.100
179.300	-13.448	0.100
179.400	-18.841	0.100
179.500	-11.966	0.100
179.600	-10.223	0.100
179.700	-15.617	0.100
179.800	-4.661	0.100
179.900	-6.689	0.100
180.000	-30.063	0.100
180.100	-13.994	0.100
180.200	-21.805	0.100
180.300	-0.971	0.100
180.400	-4.011	0.100
180.500	-6.988	0.100
180.600	-0.168	0.100
180.700	2.525	0.100
180.800	6.405	0.100
180.900	3.243	0.100
181.000	16.037	0.100
181.100	-14.683	0.100
181.200	-3.281	0.100
181.300	12.419	0.100
181.400	19.182	0.100
181.500	-1.962	0.100
181.600	40.877	0.100
181.700	37.526	0.100
181.800	37.495	0.100
181.900	43.999	0.100
182.000	46.567	0.100
182.100	39.140	0.100
182.200	42.048	0.100
182.300	58.429	0.100
182.400	36.111	0.100
182.500	47.692	0.100
182.600	65.373	0.099
182.700	41.001	0.100
182.800	54.310	0.100
182.900	56.620	0.100
183.000	58.078	0.099
183.100	30.831	0.100
183.200	45.284	0.100
183.300	65.735	0.100
183.400	57.535	0.100
183.500	55.127	0.100
183.600	66.126	0.099
183.700	53.427	0.100
183.800	35.490	0.100
183.900	54.248	0.099
184.000	51.952	0.099
184.100	49.282	0.099
184.200	55.732	0.099
184.300	50.191	0.099
184.400	48.051	0.099
184.500	55.458	0.099
184.600	43.709	0.099
184.700	38.336	0.099
184.800	36.428	0.099
184.900	34.400	0.099
185.000	47.724	0.099
185.100	52.648	0.099
185.200	37.852	0.099
185.300	26.367	0.099
185.400	51.348	0.099
185.500	38.830	0.099
185.600	47.904	0.099
185.700	27.564	0.099
185.800	27.112	0.099
185.900	37.501	0.099
186.000	43.673	0.099
186.100	37.915	0.099
186.200	31.155	0.099
186.300	45.304	0.099
186.400	45.218	0.099
186.500	38.372	0.099
186.600	40.092	0.099
186.700	45.863	0.099
186.800	38.657	0.099
186.900	36.152	0.099
187.000	20.211	0.099
187.100	57.201	0.099
187.200	45.146	0.099
187.300	44.373	0.099
187.400	51.791	0.099
187.500	52.783	0.099
187.600	57.900	0.099
187.700	39.304	0.099
187.800	34.385	0.099
187.900	30.721	0.099
188.000	42.416	0.099
188.100	46.486	0.099
188.200	56.460	0.099
188.300	55.662	0.099
188.400	56.911	0.099
188.500	50.922	0.099
188.600	38.477	0.099
188.700	48.158	0.099
188.800	62.255	0.099
188.900	46.329	0.099
189.000	45.524	0.099
189.100	30.848	0.099
189.200	66.771	0.099
189.300	48.504	0.099
189.400	49.896	0.099
189.500	46.403	0.099
189.600	52.180	0.099
189.700	46.919	0.099
189.800	40.052	0.099
189.900	69.849	0.099
190.000	47.355	0.099
190.100	59.215	0.099
190.200	47.372	0.099
190.300	63.904	0.099
190.400	58.987	0.099
190.500	49.827	0.099
190.600	64.318	0.099
190.700	61.036	0.099
190.800	71.730	0.099
190.900	52.970	0.099
191.000	42.341	0.099
191.100	65.105	0.099
191.200	62.635	0.099
191.300	61.243	0.099
191.400	63.235	0.099
191.500	53.315	0.099
191.600	59.736	0.099
191.700	63.770	0.099
191.800	75.363	0.099
191.900	59.014	0.099
192.000	62.203	0.099
192.100	65.454	0.099
192.200	50.982	0.099
192.300	70.335	0.099
192.400	68.135	0.099
192.500	62.531	0.099
192.600	71.450	0.099
192.700	75.432	0.099
192.800	72.096	0.099
192.900	66.995	0.099
193.000	70.010	0.099
193.100	74.411	0.099
193.200	76.079	0.099
193.300	55.784	0.099
193.400	57.754	0.099
193.500	67.519	0.099
193.600	77.316	0.099
193.700	57.550	0.099
193.800	62.319	0.099
193.900	80.367	0.099
194.000	63.457	0.099
194.100	81.267	0.099
194.200	79.284	0.099
194.300	74.075	0.099
194.400	59.778	0.099
194.500	83.025	0.099
194.600	88.300	0.099
194.700	73.631	0.099
194.800	78.260	0.099
194.900	71.739	0.099
195.000	77.123	0.099
195.100	64.962	0.099
195.200	70.888	0.099
195.300	70.220	0.099
195.400	77.925	0.099
195.500	76.493	0.100
195.600	78.665	0.099
195.700	77.937	0.099
195.800	61.111	0.100
195.900	70.537	0.100
196.000	83.943	0.099
196.100	91.385	0.099
196.200	71.614	0.100
196.300	80.594	0.099
196.400	78.851	0.099
196.500	73.682	0.100
196.600	70.553	0.100
196.700	75.405	0.099
196.800	75.688	0.099
196.900	100.181	0.099
197.000	86.800	0.100
197.100	67.971	0.099
197.200	77.106	0.099
197.300	76.117	0.099
197.400	63.005	0.100
197.500	72.871	0.100
197.600	74.453	0.100
197.700	79.150	0.100
197.800	90.783	0.100
197.900	85.117	0.099
198.000	65.440	0.100
198.100	78.719	0.099
198.200	83.135	0.099
198.300	79.229	0.099
198.400	77.974	0.099
198.500	72.953	0.100
198.600	79.651	0.099
198.700	82.927	0.099
198.800	81.162	0.099
198.900	80.365	0.099
199.000	75.959	0.099
199.100	73.767	0.100
199.200	86.278	0.100
199.300	78.653	0.099
199.400	78.173	0.099
199.500	78.940	0.099
199.600	77.247	0.099
199.700	82.669	0.099
199.800	82.944	0.099
199.900	64.913	0.100
200.000	77.817	0.099
200.100	64.341	0.100
200.200	70.154	0.100
200.300	72.110	0.100
200.400	89.612	0.099
200.500	75.788	0.099
200.600	73.194	0.100
200.700	85.870	0.100
200.800	74.187	0.100
200.900	78.288	0.100
201.000	73.323	0.100
201.100	87.184	0.100
201.200	73.839	0.100
201.300	92.684	0.100
201.400	74.442	0.100
201.500	75.549	0.100
201.600	83.025	0.100
201.700	66.400	0.100
201.800	80.118	0.100
201.900	77.630	0.100
202.000	81.168	0.100
202.100	94.617	0.100
202.200	72.092	0.100
202.300	68.681	0.100
202.400	62.345	0.100
202.500	68.776	0.100
202.600	82.580	0.100
202.700	84.127	0.100
202.800	58.928	0.100
202.900	72.077	0.100
203.000	74.348	0.100
203.100	82.887	0.100
203.200	90.375	0.100
203.300	80.557	0.100
203.400	72.248	0.100
203.500	77.354	0.100
203.600	80.871	0.100
203.700	70.672	0.100
203.800	72.504	0.100
203.900	68.525	0.100
204.000	71.007	0.100
204.100	70.024	0.100
204.200	75.158	0.100
204.300	83.989	0.100
204.400	73.168	0.100
204.500	66.958	0.100
204.600	74.023	0.100
204.700	81.267	0.100
204.800	92.183	0.100
204.900	63.923	0.100
205.000	81.889	0.100
205.100	77.229	0.100
205.200	74.037	0.100
205.300	71.978	0.100
205.400	62.752	0.100
205.500	90.201	0.100
205.600	72.690	0.100
205.700	82.058	0.100
205.800	64.410	0.100
205.900	71.195	0.100
206.000	82.022	0.100
206.100	71.681	0.100
206.200	71.469	0.100
206.300	85.025	0.100
206.400	80.075	0.100
206.500	82.028	0.100
206.600	82.928	0.100
206.700	79.916	0.100
206.800	61.867	0.100
206.900	71.657	0.100
207.000	73.964	0.100
207.100	67.958	0.100
207.200	76.545	0.100
207.300	74.068	0.100
207.400	70.513	0.100
207.500	50.724	0.100
207.600	87.647	0.100
207.700	74.082	0.100
207.800	57.543	0.100
207.900	71.850	0.100
208.000	68.125	0.100
208.100	71.109	0.100
208.200	84.664	0.100
208.300	79.372	0.100
208.400	65.681	0.100
208.500	65.410	0.100
208.600	51.903	0.100
208.700	76.217	0.100
208.800	55.838	0.100
208.900	89.268	0.100
209.000	88.505	0.100
209.100	67.537	0.100
209.200	80.246	0.100
209.300	74.960	0.100
209.400	81.705	0.100
209.500	63.599	0.100
209.600	48.506	0.100
209.700	67.793	0.100
209.800	68.454	0.100
209.900	85.666	0.100
210.000	81.895	0.100
210.100	73.163	0.100
210.200	70.714	0.100
210.300	69.809	0.100
210.400	60.187	0.100
210.500	65.039	0.100
210.600	85.896	0.100
210.700	88.943	0.100
210.800	65.914	0.100
210.900	69.800	0.100
211.000	66.299	0.100
211.100	75.544	0.100
211.200	74.485	0.100
211.300	51.391	0.100
211.400	71.506	0.100
211.500	72.253	0.100
211.600	75.584	0.100
211.700	73.907	0.100
211.800	70.781	0.100
211.900	80.712	0.100
212.000	66.164	0.100
212.100	52.734	0.100
212.200	71.103	0.099
212.300	68.112	0.099
212.400	76.191	0.099
212.500	46.337	0.099
212.600	72.319	0.099
212.700	74.450	0.099
212.800	70.836	0.099
212.900	50.450	0.099
213.000	55.298	0.099
213.100	58.553	0.099
213.200	70.160	0.099
213.300	61.827	0.099
213.400	59.146	0.099
213.500	65.586	0.099
213.600	59.138	0.099
213.700	76.219	0.099
213.800	60.208	0.099
213.900	52.294	0.099
214.000	51.072	0.099
214.100	65.917	0.099
214.200	66.492	0.099
214.300	70.212	0.099
214.400	57.376	0.099
214.500	77.778	0.099
214.600	72.126	0.099
214.700	54.132	0.099
214.800	64.688	0.099
214.900	56.209	0.099
215.000	61.487	0.099
215.100	62.517	0.099
215.200	65.465	0.099
215.300	63.638	0.099
215.400	37.066	0.099
215.500	59.116	0.099
215.600	63.907	0.099
215.700	70.286	0.099
215.800	57.034	0.099
215.900	65.325	0.099
216.000	65.768	0.099
216.100	56.675	0.099
216.200	62.322	0.099
216.300	59.894	0.099
216.400	56.790	0.099
216.500	63.671	0.099
216.600	65.661	0.099
216.700	64.666	0.099
216.800	72.743	0.099
216.900	58.113	0.099
217.000	67.390	0.099
217.100	77.543	0.099
217.200	73.973	0.099
217.300	55.597	0.099
217.400	37.657	0.099
217.500	71.906	0.099
217.600	61.401	0.099
217.700	69.553	0.099
217.800	60.262	0.099
217.900	55.627	0.099
218.000	53.370	0.099
218.100	66.685	0.099
218.200	47.212	0.099
218.300	56.500	0.099
218.400	63.291	0.099
218.500	60.084	0.099
218.600	70.508	0.099
218.700	61.127	0.099
218.800	63.822	0.099
218.900	62.119	0.099
219.000	56.298	0.099
219.100	63.549	0.099
219.200	65.592	0.099
219.300	74.247	0.099
219.400	49.018	0.099
219.500	47.848	0.099
219.600	57.520	0.099
219.700	69.481	0.099
219.800	65.151	0.099
219.900	52.193	0.099
220.000	51.802	0.099
220.100	66.805	0.099
220.200	74.578	0.099
220.300	59.486	0.099
220.400	66.480	0.099
220.500	75.124	0.099
220.600	63.655	0.099
220.700	56.785	0.099
220.800	60.313	0.099
220.900	57.136	0.099
221.000	61.994	0.099
221.100	48.178	0.099
221.200	47.024	0.099
221.300	66.559	0.099
221.400	61.936	0.099
221.500	52.138	0.099
221.600	55.098	0.099
221.700	57.365	0.099
221.800	47.062	0.099
221.900	63.501	0.099
222.000	58.769	0.099
222.100	59.897	0.099
222.200	50.828	0.099
222.300	57.089	0.099
222.400	58.288	0.099
222.500	66.593	0.099
222.600	41.286	0.099
222.700	50.076	0.099
222.800	74.650	0.099
222.900	70.804	0.099
223.000	50.411	0.099
223.100	60.527	0.099
223.200	55.806	0.099
223.300	71.991	0.100
223.400	65.289	0.100
223.500	71.646	0.100
223.600	69.432	0.100
223.700	56.135	0.100
223.800	68.390	0.100
223.900	74.172	0.100
224.000	62.431	0.100
224.100	54.607	0.100
224.200	71.891	0.100
224.300	71.336	0.100
224.400	52.988	0.100
224.500	71.000	0.100
224.600	84.535	0.100
224.700	65.732	0.100
224.800	65.531	0.100
224.900	79.622	0.100
225.000	73.045	0.100
225.100	64.331	0.100
225.200	67.179	0.100
225.300	59.831	0.100
225.400	34.343	0.100
225.500	63.138	0.100
225.600	55.901	0.100
225.700	64.820	0.100
225.800	64.459	0.100
225.900	68.393	0.100
226.000	60.940	0.100
226.100	55.015	0.100
226.200	76.344	0.100
226.300	55.119	0.100
226.400	50.864	0.100
226.500	37.294	0.100
226.600	63.247	0.100
226.700	83.972	0.100
226.800	54.626	0.100
226.900	63.529	0.100
227.000	78.526	0.100
227.100	62.853	0.100
227.200	60.699	0.100
227.300	59.117	0.100
227.400	80.561	0.100
227.500	55.538	0.100
227.600	66.423	0.100
227.700	54.553	0.100
227.800	67.334	0.100
227.900	56.123	0.100
228.000	63.017	0.100
228.100	60.388	0.100
228.200	59.773	0.100
228.300	50.787	0.100
228.400	61.866	0.100
228.500	63.000	0.100
228.600	48.311	0.100
228.700	46.289	0.100
228.800	65.462	0.100
228.900	79.796	0.100
229.000	58.628	0.100
229.100	63.118	0.100
229.200	65.534	0.100
229.300	53.670	0.100
229.400	58.416	0.100
229.500	63.976	0.100
229.600	64.718	0.100
229.700	58.971	0.100
229.800	57.860	0.100
229.900	68.358	0.100
230.000	70.772	0.100
230.100	65.911	0.100
230.200	74.848	0.100
230.300	50.931	0.100
230.400	48.445	0.100
230.500	55.904	0.100
230.600	46.199	0.100
230.700	55.801	0.100
230.800	56.365	0.100
230.900	75.122	0.100
231.000	63.362	0.100
231.100	65.016	0.100
231.200	65.726	0.100
231.300	43.409	0.100
231.400	49.781	0.100
231.500	65.000	0.100
231.600	64.098	0.100
231.700	53.986	0.100
231.800	56.109	0.100
231.900	57.883	0.100
232.000	63.118	0.100
232.100	70.407	0.100
232.200	60.846	0.100
232.300	61.349	0.100
232.400	62.693	0.100
232.500	59.525	0.100
232.600	61.784	0.100
232.700	63.173	0.100
232.800	60.978	0.100
232.900	76.686	0.100
233.000	58.830	0.100
233.100	60.228	0.100
233.200	56.514	0.100
233.300	61.352	0.100
233.400	54.274	0.100
233.500	65.140	0.100
233.600	65.074	0.100
233.700	62.131	0.100
233.800	67.639	0.100
233.900	49.472	0.100
234.000	53.387	0.100
234.100	60.483	0.100
234.200	56.861	0.100
234.300	55.156	0.100
234.400	55.332	0.100
234.500	64.423	0.099
234.600	63.452	0.099
234.700	60.751	0.099
234.800	63.320	0.099
234.900	51.593	0.099
235.000	71.523	0.099
235.100	54.619	0.099
235.200	54.661	0.099
235.300	54.504	0.099
235.400	50.042	0.099
235.500	67.495	0.099
235.600	69.694	0.099
235.700	56.244	0.099
235.800	59.692	0.099
235.900	68.033	0.099
236.000	57.842	0.099
236.100	59.597	0.099
236.200	58.021	0.099
236.300	46.231	0.099
236.400	66.497	0.099
236.500	58.617	0.099
236.600	60.662	0.099
236.700	50.428	0.099
236.800	54.580	0.099
236.900	62.906	0.099
237.000	64.312	0.099
237.100	58.019	0.099
237.200	39.560	0.099
237.300	37.118	0.099
237.400	59.105	0.099
237.500	57.133	0.099
237.600	69.271	0.099
237.700	52.855	0.099
237.800	59.428	0.099
237.900	63.468	0.099
238.000	54.714	0.099
238.100	57.842	0.099
238.200	42.006	0.099
238.300	61.846	0.099
238.400	59.457	0.099
238.500	59.477	0.099
238.600	44.635	0.099
238.700	42.860	0.099
238.800	54.458	0.099
238.900	57.248	0.099
239.000	72.092	0.099
239.100	58.019	0.099
239.200	61.636	0.099
239.300	57.465	0.099
239.400	57.304	0.099
239.500	53.249	0.099
239.600	61.165	0.099
239.700	55.576	0.099
239.800	59.545	0.099
239.900	51.555	0.099
240.000	57.282	0.099
240.100	56.441	0.099
240.200	54.146	0.099
240.300	51.955	0.099
240.400	68.877	0.099
240.500	54.621	0.099
240.600	42.336	0.099
240.700	43.118	0.099
240.800	43.697	0.099
240.900	29.823	0.099
241.000	38.133	0.099
241.100	44.896	0.099
241.200	17.436	0.099
241.300	33.983	0.099
241.400	29.024	0.099
241.500	26.904	0.099
241.600	6.997	0.099
241.700	12.782	0.099
241.800	15.114	0.099
241.900	1.906	0.099
242.000	12.592	0.099
242.100	2.798	0.099
242.200	4.232	0.099
242.300	9.260	0.099
242.400	13.811	0.099
242.500	-4.253	0.099
242.600	-8.575	0.099
242.700	-4.949	0.099
242.800	5.456	0.099
242.900	-7.650	0.099
243.000	-5.428	0.099
243.100	-2.772	0.099
243.200	-16.909	0.099
243.300	-17.256	0.099
243.400	-18.309	0.099
243.500	-13.788	0.099
243.600	-17.358	0.099
243.700	-12.867	0.099
243.800	-21.010	0.099
243.900	-21.007	0.099
244.000	-31.587	0.099
244.100	-35.024	0.099
244.200	-15.292	0.099
244.300	-13.590	0.099
244.400	-34.998	0.099
244.500	-35.729	0.099
244.600	-33.704	0.099
244.700	-28.097	0.099
244.800	-20.794	0.099
244.900	-50.424	0.099
245.000	-20.688	0.099
245.100	-24.750	0.099
245.200	-28.225	0.099
245.300	-32.210	0.099
245.400	-27.318	0.099
245.500	-31.934	0.099
245.600	-24.350	0.099
245.700	-31.037	0.099
245.800	-28.488	0.099
245.900	-42.825	0.099
246.000	-45.282	0.099
246.100	-50.882	0.099
246.200	-28.086	0.099
246.300	-36.365	0.099
246.400	-38.806	0.099
246.500	-38.298	0.099
246.600	-31.080	0.099
246.700	-32.318	0.099
246.800	-33.792	0.099
246.900	-27.522	0.099
247.000	-36.790	0.099
247.100	-40.077	0.099
247.200	-22.914	0.099
247.300	-26.142	0.099
247.400	-36.436	0.099
247.500	-36.396	0.099
247.600	-22.252	0.099
247.700	-33.559	0.099
247.800	-29.119	0.099
247.900	-44.654	0.099
248.000	-28.811	0.099
248.100	-28.305	0.099
248.200	-35.467	0.099
248.300	-20.852	0.099
248.400	-21.937	0.099
248.500	-35.236	0.099
248.600	-28.517	0.099
248.700	-32.243	0.099
248.800	-34.685	0.099
248.900	-28.278	0.099
249.000	-13.334	0.100
249.100	-28.578	0.100
249.200	-47.528	0.100
249.300	-13.426	0.100
249.400	-16.365	0.100
249.500	-30.376	0.100
249.600	-25.391	0.100
249.700	-18.744	0.100
249.800	-27.373	0.100
249.900	-26.717	0.100
250.000	-29.219	0.100
250.100	-28.325	0.100
250.200	-26.466	0.100
250.300	-24.313	0.100
250.400	-23.343	0.100
250.500	-30.825	0.100
250.600	-28.057	0.100
250.700	-30.880	0.100
250.800	-22.239	0.100
250.900	-36.275	0.100
251.000	-21.609	0.100
251.100	-30.111	0.100
251.200	-40.256	0.100
251.300	-37.411	0.100
251.400	-10.367	0.100
251.500	-4.367	0.100
251.600	-20.938	0.100
251.700	-10.426	0.100
251.800	-18.206	0.100
251.900	-40.064	0.100
252.000	-17.702	0.100
252.100	-17.046	0.100
252.200	-16.265	0.100
252.300	-23.294	0.100
252.400	-30.724	0.100
252.500	-26.277	0.100
252.600	-19.573	0.100
252.700	-25.626	0.100
252.800	-11.923	0.100
252.900	-15.715	0.100
253.000	-21.927	0.100
253.100	-21.792	0.100
253.200	-13.897	0.100
253.300	-20.639	0.100
253.400	-16.477	0.100
253.500	-23.289	0.100
253.600	-18.977	0.100
253.700	-24.900	0.100
253.800	-31.176	0.100
253.900	-19.242	0.100
254.000	-5.725	0.100
254.100	-32.636	0.100
254.200	-24.690	0.100
254.300	-20.116	0.100
254.400	-26.256	0.100
254.500	-20.253	0.100
254.600	-19.500	0.100
254.700	-10.708	0.100
254.800	-12.882	0.100
254.900	-45.758	0.100
255.000	-12.016	0.100
255.100	-3.960	0.100
255.200	-23.417	0.100
255.300	-19.547	0.100
255.400	-14.521	0.100
255.500	-27.565	0.100
255.600	-12.985	0.100
255.700	-23.604	0.100
255.800	-15.372	0.100
255.900	-23.211	0.100
256.000	-22.265	0.100
256.100	-13.954	0.100
256.200	-12.094	0.100
256.300	-23.165	0.100
256.400	-36.174	0.100
256.500	-21.752	0.100
256.600	-33.324	0.100
256.700	-5.395	0.100
256.800	-18.358	0.100
256.900	-7.590	0.100
257.000	-16.457	0.100
257.100	-23.915	0.100
257.200	-27.083	0.100
257.300	-15.836	0.100
257.400	-16.452	0.100
257.500	-16.848	0.100
257.600	-21.759	0.100
257.700	-30.838	0.100
257.800	-31.296	0.100
257.900	-10.333	0.100
258.000	-11.063	0.100
258.100	-16.558	0.100
258.200	-18.156	0.100
258.300	-29.340	0.100
258.400	-28.619	0.100
258.500	-13.987	0.100
258.600	2.463	0.100
258.700	-29.847	0.100
258.800	-23.257	0.100
258.900	-16.348	0.100
259.000	-12.767	0.100
259.100	-14.873	0.100
259.200	-19.799	0.100
259.300	-12.758	0.100
259.400	-20.191	0.100
259.500	-23.642	0.100
259.600	-8.326	0.100
259.700	-19.422	0.100
259.800	-25.630	0.100
259.900	-12.093	0.100
260.000	-29.397	0.100
260.100	-13.212	0.100
260.200	-18.237	0.100
260.300	-19.230	0.100
260.400	-5.746	0.100
260.500	-7.275	0.100
260.600	-24.683	0.100
260.700	-23.869	0.100
260.800	-11.840	0.100
260.900	-22.270	0.100
261.000	-11.967	0.100
261.100	-15.091	0.100
261.200	-18.404	0.100
261.300	-2.532	0.100
261.400	-21.011	0.100
261.500	-17.354	0.100
261.600	-23.654	0.100
261.700	-21.480	0.100
261.800	-14.306	0.100
261.900	-16.523	0.100
262.000	-14.434	0.100
262.100	-24.658	0.100
262.200	-21.336	0.100
262.300	-5.217	0.100
262.400	-22.854	0.100
262.500	-12.907	0.100
262.600	-15.965	0.100
262.700	-12.974	0.100
262.800	-3.816	0.100
262.900	-3.200	0.100
263.000	-28.675	0.100
263.100	-38.329	0.100
263.200	-22.762	0.100
263.300	-26.740	0.100
263.400	-20.630	0.100
263.500	-11.266	0.100
263.600	-24.763	0.100
263.700	-5.592	0.100
263.800	-17.616	0.100
263.900	-16.833	0.100
264.000	-9.698	0.100
264.100	-21.503	0.100
264.200	-22.239	0.100
264.300	-24.109	0.100
264.400	-2.195	0.100
264.500	-16.679	0.100
264.600	-11.498	0.100
264.700	-35.573	0.100
264.800	-27.494	0.100
264.900	-6.433	0.100
265.000	-12.467	0.100
265.100	-11.037	0.100
265.200	-19.711	0.100
265.300	-18.916	0.100
265.400	-39.050	0.100
265.500	-24.263	0.100
265.600	-19.043	0.100
265.700	-9.214	0.100
265.800	-0.137	0.100
265.900	-27.730	0.100
266.000	-34.892	0.100
266.100	-32.015	0.100
266.200	-15.611	0.100
266.300	-6.099	0.100
266.400	-24.893	0.100
266.500	-11.579	0.100
266.600	-14.194	0.100
266.700	-30.364	0.100
266.800	-19.454	0.100
266.900	-12.819	0.100
267.000	-26.072	0.100
267.100	-28.141	0.100
267.200	-14.999	0.100
267.300	-19.034	0.100
267.400	-14.182	0.100
267.500	-13.275	0.100
267.600	-31.774	0.100
267.700	-18.922	0.100
267.800	-10.088	0.100
267.900	-15.910	0.100
268.000	-20.990	0.100
268.100	-11.829	0.100
268.200	-19.405	0.100
268.300	-27.044	0.100
268.400	-22.141	0.100
268.500	-35.136	0.100
268.600	-32.441	0.100
268.700	-21.186	0.100
268.800	-32.951	0.100
268.900	-23.199	0.100
269.000	-19.833	0.100
269.100	-15.602	0.100
269.200	-14.645	0.100
269.300	-22.144	0.100
269.400	-15.422	0.100
269.500	-19.291	0.100
269.600	-16.722	0.100
269.700	-32.251	0.100
269.800	-27.289	0.100
269.900	-23.665	0.100
270.000	-19.573	0.100
270.100	-30.746	0.100
270.200	-9.942	0.100
270.300	-20.521	0.100
270.400	-27.628	0.100
270.500	-19.866	0.100
270.600	-22.635	0.100
270.700	-18.614	0.100
270.800	-16.853	0.100
270.900	-32.410	0.100
271.000	-29.869	0.100
271.100	-32.231	0.100
271.200	-36.140	0.100
271.300	-21.479	0.100
271.400	-20.162	0.100
271.500	-23.107	0.100
271.600	-36.649	0.100
271.700	-28.015	0.100
271.800	-22.918	0.100
271.900	-31.443	0.100
272.000	-35.314	0.100
272.100	-26.228	0.100
272.200	-32.873	0.100
272.300	-20.334	0.100
272.400	-16.431	0.100
272.500	-27.022	0.100
272.600	-16.541	0.100
272.700	-23.693	0.100
272.800	-39.023	0.100
272.900	-22.587	0.100
273.000	-16.380	0.100
273.100	-32.131	0.100
273.200	-31.852	0.100
273.300	-24.533	0.100
273.400	-29.027	0.100
273.500	-42.678	0.100
273.600	-26.662	0.100
273.700	-34.069	0.100
273.800	-23.899	0.100
273.900	-25.606	0.100
274.000	-30.755	0.100
274.100	-22.091	0.100
274.200	-35.905	0.100
274.300	-25.966	0.100
274.400	-27.609	0.100
274.500	-42.727	0.100
274.600	-44.352	0.100
274.700	-19.078	0.100
274.800	-20.061	0.100
274.900	-35.251	0.100
275.000	-31.172	0.100
275.100	-42.148	0.100
275.200	-35.427	0.100
275.300	-18.093	0.100
275.400	-36.287	0.100
275.500	-30.988	0.100
275.600	-39.716	0.100
275.700	-26.749	0.100
275.800	-22.367	0.100
275.900	-28.035	0.100
276.000	-36.525	0.100
276.100	-23.568	0.100
276.200	-34.374	0.100
276.300	-17.269	0.100
276.400	-36.088	0.100
276.500	-41.545	0.100
276.600	-30.557	0.100
276.700	-34.941	0.100
276.800	-32.754	0.100
276.900	-46.861	0.100
277.000	-25.245	0.100
277.100	-33.301	0.100
277.200	-22.558	0.100
277.300	-23.021	0.100
277.400	-31.330	0.100
277.500	-21.663	0.100
277.600	-13.977	0.100
277.700	-27.723	0.100
277.800	-41.896	0.100
277.900	-13.876	0.100
278.000	-29.266	0.100
278.100	-46.363	0.100
278.200	-36.977	0.100
278.300	-32.504	0.100
278.400	-40.582	0.100
278.500	-32.686	0.100
278.600	-26.896	0.100
278.700	-39.134	0.100
278.800	-32.863	0.100
278.900	-29.879	0.100
279.000	-35.032	0.100
279.100	-19.990	0.100
279.200	-30.926	0.100
279.300	-31.892	0.100
279.400	-33.033	0.100
279.500	-39.168	0.100
279.600	-37.941	0.100
279.700	-25.918	0.100
279.800	-30.821	0.100
279.900	-35.938	0.100
280.000	-42.339	0.100
280.100	-23.510	0.100
280.200	-39.431	0.100
280.300	-11.677	0.100
280.400	-26.122	0.100
280.500	-29.604	0.100
280.600	-47.712	0.100
280.700	-26.643	0.100
280.800	-27.680	0.100
280.900	-24.994	0.100
281.000	-27.913	0.100
281.100	-24.537	0.100
281.200	-46.566	0.100
281.300	-18.611	0.100
281.400	-25.386	0.100
281.500	-40.558	0.100
281.600	-31.796	0.100
281.700	-18.064	0.100
281.800	-35.139	0.100
281.900	-25.935	0.100
282.000	-36.767	0.100
282.100	-15.280	0.100
282.200	-40.425	0.100
282.300	-27.212	0.100
282.400	-27.618	0.100
282.500	-38.452	0.100
282.600	-30.721	0.100
282.700	-29.413	0.100
282.800	-18.953	0.100
282.900	-46.720	0.100
283.000	-24.528	0.100
283.100	-35.695	0.100
283.200	-33.073	0.100
283.300	-39.586	0.100
283.400	-21.321	0.100
283.500	-41.163	0.100
283.600	-40.987	0.100
283.700	-30.788	0.100
283.800	-23.197	0.100
283.900	-17.619	0.100
284.000	-31.622	0.100
284.100	-19.613	0.100
284.200	-38.171	0.100
284.300	-25.232	0.100
284.400	-28.854	0.100
284.500	-23.263	0.100
284.600	-37.153	0.100
284.700	-48.482	0.100
284.800	-26.918	0.100
284.900	-26.262	0.100
285.000	-30.175	0.100
285.100	-26.875	0.100
285.200	-15.044	0.100
285.300	-40.501	0.100
285.400	-36.644	0.100
285.500	-30.813	0.100
285.600	-25.382	0.100
285.700	-36.555	0.100
285.800	-30.513	0.100
285.900	-12.599	0.100
286.000	-25.337	0.100
286.100	-26.653	0.100
286.200	-23.651	0.100
286.300	-27.284	0.100
286.400	-34.304	0.100
286.500	-37.632	0.100
286.600	-32.098	0.100
286.700	-29.228	0.100
286.800	-37.241	0.100
286.900	-22.534	0.100
287.000	-36.509	0.100
287.100	-42.321	0.100
287.200	-21.599	0.100
287.300	-25.041	0.100
287.400	-10.710	0.100
287.500	-26.331	0.100
287.600	-36.385	0.100
287.700	-35.786	0.100
287.800	-24.905	0.100
287.900	-46.880	0.100
288.000	-28.161	0.100
288.100	-14.236	0.100
288.200	-14.155	0.100
288.300	-35.118	0.100
288.400	-31.659	0.100
288.500	-41.933	0.100
288.600	-26.444	0.100
288.700	-23.703	0.100
288.800	-25.391	0.100
288.900	-33.192	0.100
289.000	-33.994	0.100
289.100	-29.979	0.100
289.200	-32.608	0.100
289.300	-46.679	0.100
289.400	-24.136	0.100
289.500	-28.750	0.100
289.600	-30.655	0.100
289.700	-32.450	0.100
289.800	-26.978	0.100
289.900	-16.129	0.100
290.000	-24.419	0.100
290.100	-32.462	0.100
290.200	-33.476	0.100
290.300	-19.909	0.100
290.400	-27.621	0.100
290.500	-27.388	0.100
290.600	-35.349	0.100
290.700	-22.363	0.100
290.800	-33.338	0.100
290.900	-23.639	0.100
291.000	-34.285	0.100
291.100	-28.368	0.100
291.200	-29.554	0.100
291.300	-35.711	0.100
291.400	-26.985	0.100
291.500	-38.511	0.100
291.600	-26.571	0.100
291.700	-23.568	0.100
291.800	-22.488	0.100
291.900	-32.148	0.100
292.000	-33.287	0.100
292.100	-25.806	0.100
292.200	-29.850	0.100
292.300	-34.537	0.100
292.400	-21.434	0.100
292.500	-22.130	0.100
292.600	-31.278	0.100
292.700	-25.071	0.100
292.800	-33.778	0.100
292.900	-24.674	0.100
293.000	-28.359	0.100
293.100	-30.362	0.100
293.200	-33.407	0.100
293.300	-35.728	0.100
293.400	-41.626	0.100
293.500	-35.260	0.100
293.600	-24.951	0.100
293.700	-19.000	0.100
293.800	-29.895	0.100
293.900	-16.620	0.100
294.000	-20.006	0.100
294.100	-31.373	0.100
294.200	-23.909	0.100
294.300	-23.884	0.100
294.400	-24.568	0.100
294.500	-18.346	0.100
294.600	-20.539	0.100
294.700	-27.477	0.100
294.800	-37.454	0.100
294.900	-33.270	0.100
295.000	-8.808	0.100
295.100	-27.367	0.100
295.200	-47.403	0.100
295.300	-27.008	0.100
295.400	-24.411	0.100
295.500	-47.018	0.100
295.600	-23.295	0.100
295.700	-20.760	0.100
295.800	-37.569	0.100
295.900	-25.727	0.100
296.000	-18.592	0.100
296.100	-35.263	0.100
296.200	-11.765	0.100
296.300	-27.385	0.100
296.400	-39.212	0.100
296.500	-13.730	0.100
296.600	-18.099	0.100
296.700	-30.471	0.100
296.800	-43.259	0.100
296.900	-21.399	0.100
297.000	-16.569	0.100
297.100	-21.801	0.100
297.200	-22.374	0.100
297.300	-12.881	0.100
297.400	-29.026	0.100
297.500	-24.939	0.100
297.600	-17.952	0.100
297.700	-36.390	0.100
297.800	-44.337	0.100
297.900	-5.995	0.100
298.000	-21.163	0.100
298.100	-16.992	0.100
298.200	-24.724	0.100
298.300	-39.916	0.100
298.400	-28.632	0.100
298.500	-21.269	0.100
298.600	-8.573	0.100
298.700	-18.062	0.100
298.800	-25.152	0.100
298.900	-15.577	0.100
299.000	-27.395	0.100
299.100	-32.495	0.100
299.200	-34.954	0.100
299.300	-16.408	0.100
299.400	-24.638	0.100
299.500	-33.148	0.100
299.600	-25.633	0.100
299.700	-32.257	0.100
299.800	-32.942	0.100
299.900	-31.008	0.100
300.000	-23.519	0.100
300.100	-15.408	0.100
300.200	-22.563	0.100
300.300	-17.941	0.100
300.400	-24.988	0.100
300.500	-15.543	0.100
300.600	-31.411	0.100
300.700	-21.375	0.100
300.800	-8.962	0.100
300.900	-22.460	0.100
301.000	-38.407	0.100
301.100	-28.710	0.100
301.200	-21.850	0.100
301.300	-26.539	0.100
301.400	-18.456	0.100
301.500	-46.408	0.100
301.600	-26.617	0.100
301.700	-28.506	0.100
301.800	-10.426	0.100
301.900	-10.915	0.100
302.000	-15.689	0.100
302.100	-22.020	0.100
302.200	-19.744	0.100
302.300	-32.581	0.100
302.400	-34.814	0.100
302.500	-16.339	0.100
302.600	-34.484	0.100
302.700	-12.399	0.100
302.800	-30.911	0.100
302.900	-21.980	0.100
303.000	-17.792	0.100
303.100	-22.077	0.100
303.200	-20.837	0.100
303.300	-23.547	0.100
303.400	-20.084	0.100
303.500	-20.634	0.100
303.600	-16.213	0.100
303.700	-15.551	0.100
303.800	-29.714	0.100
303.900	-36.163	0.100
304.000	-32.092	0.100
304.100	-20.890	0.100
304.200	3.583	0.100
304.300	-11.616	0.100
304.400	-18.507	0.100
304.500	-16.371	0.100
304.600	-22.322	0.100
304.700	-34.800	0.100
304.800	-33.243	0.100
304.900	-18.600	0.100
305.000	-8.656	0.100
305.100	-27.513	0.100
305.200	-25.943	0.100
305.300	-28.684	0.100
305.400	-28.356	0.100
305.500	-34.756	0.100
305.600	-31.570	0.100
305.700	-12.922	0.100
305.800	-14.119	0.100
305.900	-31.365	0.100
306.000	-21.743	0.100
306.100	-35.774	0.100
306.200	-25.235	0.100
306.300	-19.006	0.100
306.400	-24.807	0.100
306.500	-23.285	0.100
306.600	-13.715	0.100
306.700	-23.001	0.100
306.800	-30.408	0.100
306.900	-32.694	0.100
307.000	-9.441	0.100
307.100	-21.373	0.100
307.200	-22.452	0.100
307.300	-9.686	0.100
307.400	-18.237	0.100
307.500	-29.207	0.100
307.600	-13.155	0.100
307.700	-23.627	0.100
307.800	-35.390	0.100
307.900	-33.706	0.100
308.000	-12.153	0.100
308.100	-28.581	0.100
308.200	-17.086	0.100
308.300	-17.869	0.100
308.400	-27.255	0.100
308.500	-22.984	0.100
308.600	-33.523	0.100
308.700	-10.420	0.100
308.800	-27.914	0.100
308.900	-22.196	0.100
309.000	-29.597	0.100
309.100	-17.256	0.100
309.200	-27.181	0.100
309.300	-22.952	0.100
309.400	-19.186	0.100
309.500	-25.649	0.100
309.600	-30.410	0.100
309.700	-11.464	0.100
309.800	-15.174	0.100
309.900	-33.313	0.100
310.000	-21.372	0.100
310.100	-24.467	0.100
310.200	-22.126	0.100
310.300	-24.286	0.100
310.400	-12.776	0.100
310.500	-25.209	0.100
310.600	-16.647	0.100
310.700	-28.874	0.100
310.800	-34.737	0.100
310.900	-33.427	0.100
311.000	-20.955	0.100
311.100	-23.007	0.100
311.200	-11.432	0.100
311.300	-9.218	0.100
311.400	-24.681	0.100
311.500	-35.347	0.100
311.600	-7.411	0.100
311.700	-15.836	0.100
311.800	-26.720	0.100
311.900	-28.854	0.100
312.000	-38.243	0.100
312.100	-34.615	0.100
312.200	-19.169	0.100
312.300	-22.564	0.100
312.400	-9.021	0.100
312.500	-17.817	0.100
312.600	-23.829	0.100
312.700	-23.144	0.100
312.800	-26.535	0.100
312.900	-20.587	0.100
313.000	-33.135	0.100
313.100	-18.618	0.100
313.200	-26.251	0.100
313.300	-16.414	0.100
313.400	-20.223	0.100
313.500	-7.871	0.100
313.600	4.212	0.100
313.700	-26.631	0.100
313.800	-20.225	0.100
313.900	-15.031	0.100
314.000	11.941	0.100
314.100	-21.835	0.100
314.200	-33.020	0.100
314.300	-14.559	0.100
314.400	-28.397	0.100
314.500	-39.105	0.100
314.600	-14.783	0.100
314.700	-31.382	0.100
314.800	-18.861	0.100
314.900	-19.478	0.100
315.000	-20.653	0.100
315.100	-21.094	0.100
315.200	-1.353	0.100
315.300	-24.398	0.100
315.400	-11.476	0.100
315.500	-21.339	0.100
315.600	-25.760	0.100
315.700	-17.355	0.100
315.800	-12.084	0.100
315.900	-27.353	0.100
316.000	-23.262	0.100
316.100	-18.258	0.100
316.200	-24.713	0.100
316.300	-6.873	0.100
316.400	-17.789	0.100
316.500	-17.392	0.100
316.600	-10.466	0.100
316.700	-34.063	0.100
316.800	-14.219	0.100
316.900	-6.232	0.100
317.000	-15.511	0.100
317.100	-27.695	0.100
317.200	-23.424	0.100
317.300	-29.170	0.100
317.400	-23.903	0.100
317.500	-6.822	0.100
317.600	-26.912	0.100
317.700	-28.182	0.100
317.800	-10.610	0.100
317.900	-14.821	0.100
318.000	-8.426	0.100
318.100	-9.323	0.100
318.200	-20.217	0.100
318.300	-30.764	0.100
318.400	-6.343	0.100
318.500	-12.507	0.100
318.600	-20.979	0.100
318.700	-37.325	0.100
318.800	-25.813	0.100
318.900	-14.861	0.100
319.000	-11.023	0.100
319.100	-20.873	0.100
319.200	-20.765	0.100
319.300	-22.894	0.100
319.400	-5.110	0.100
319.500	-11.631	0.100
319.600	-5.553	0.100
319.700	-22.782	0.100
319.800	-36.615	0.100
319.900	-17.544	0.100
320.000	-19.284	0.100
320.100	-17.973	0.100
320.200	-12.816	0.100
320.300	-20.852	0.100
320.400	-10.350	0.100
320.500	-12.241	0.100
320.600	-24.352	0.100
320.700	-25.757	0.100
320.800	-21.283	0.100
320.900	-18.200	0.100
321.000	-23.338	0.100
321.100	-19.129	0.100
321.200	-18.228	0.100
321.300	-14.337	0.100
321.400	-25.532	0.100
321.500	-6.425	0.100
321.600	-11.533	0.100
321.700	-19.986	0.100
321.800	-21.131	0.100
321.900	-22.969	0.100
322.000	-17.305	0.100
322.100	-17.998	0.100
322.200	-16.131	0.100
322.300	-9.971	0.100
322.400	-29.211	0.100
322.500	-5.538	0.100
322.600	-23.774	0.100
322.700	-35.462	0.100
322.800	-13.307	0.100
322.900	-23.826	0.100
323.000	-11.374	0.100
323.100	-18.890	0.100
323.200	-29.909	0.100
323.300	-22.926	0.100
323.400	-6.514	0.100
323.500	-13.164	0.100
323.600	-16.457	0.100
323.700	-16.080	0.100
323.800	-14.713	0.100
323.900	-10.249	0.100
324.000	-21.882	0.100
324.100	-8.383	0.100
324.200	-6.599	0.100
324.300	-10.758	0.100
324.400	-10.828	0.100
324.500	-19.127	0.100
324.600	-45.059	0.100
324.700	-15.304	0.100
324.800	-13.911	0.100
324.900	-34.330	0.100
325.000	-21.983	0.100
325.100	-6.274	0.100
325.200	1.481	0.100
325.300	-26.604	0.100
325.400	-23.118	0.100
325.500	-16.911	0.100
325.600	-33.626	0.100
325.700	-21.076	0.100
325.800	-8.622	0.100
325.900	-14.316	0.100
326.000	-12.240	0.100
326.100	-12.729	0.100
326.200	-10.356	0.100
326.300	-11.214	0.100
326.400	-9.502	0.100
326.500	-5.194	0.100
326.600	-19.155	0.100
326.700	-17.584	0.100
326.800	-27.142	0.100
326.900	-43.659	0.100
327.000	-14.873	0.100
327.100	-8.236	0.100
327.200	-14.742	0.100
327.300	-15.341	0.100
327.400	-20.418	0.100
327.500	-10.915	0.100
327.600	-11.982	0.100
327.700	-34.170	0.100
327.800	-27.681	0.100
327.900	-10.945	0.100
328.000	-15.896	0.100
328.100	-14.421	0.100
328.200	-8.153	0.100
328.300	-22.025	0.100
328.400	-15.320	0.100
328.500	-12.876	0.100
328.600	-17.861	0.100
328.700	-21.649	0.100
328.800	-19.028	0.100
328.900	-16.728	0.100
329.000	-13.529	0.100
329.100	-7.025	0.100
329.200	-25.782	0.100
329.300	-25.917	0.100
329.400	-10.837	0.100
329.500	-13.081	0.100
329.600	-16.094	0.100
329.700	-16.652	0.100
329.800	-19.195	0.100
329.900	-3.378	0.100
330.000	-33.301	0.100
330.100	-11.765	0.100
330.200	-11.083	0.100
330.300	-20.918	0.100
330.400	-29.265	0.100
330.500	-11.751	0.100
330.600	-14.237	0.100
330.700	-18.122	0.100
330.800	9.755	0.100
330.900	13.504	0.100
331.000	-3.764	0.100
331.100	13.167	0.100
331.200	3.211	0.100
331.300	11.758	0.100
331.400	20.718	0.100
331.500	29.304	0.100
331.600	28.362	0.100
331.700	23.559	0.100
331.800	37.365	0.100
331.900	28.694	0.100
332.000	35.844	0.100
332.100	44.542	0.100
332.200	37.136	0.100
332.300	44.706	0.100
332.400	30.574	0.100
332.500	40.323	0.100
332.600	47.369	0.099
332.700	39.227	0.100
332.800	45.793	0.099
332.900	43.200	0.099
333.000	52.780	0.099
333.100	52.099	0.099
333.200	33.137	0.099
333.300	59.802	0.099
333.400	47.198	0.099
333.500	26.453	0.099
333.600	37.463	0.099
333.700	40.496	0.099
333.800	47.589	0.099
333.900	51.655	0.099
334.000	48.557	0.099
334.100	53.178	0.099
334.200	49.441	0.099
334.300	50.540	0.099
334.400	55.887	0.099
334.500	33.578	0.099
334.600	46.991	0.099
334.700	46.440	0.099
334.800	50.258	0.099
334.900	46.369	0.099
335.000	46.808	0.099
335.100	40.714	0.099
335.200	39.836	0.099
335.300	35.668	0.099
335.400	46.423	0.099
335.500	40.935	0.099
335.600	39.658	0.099
335.700	39.876	0.099
335.800	23.519	0.099
335.900	31.714	0.099
336.000	41.487	0.099
336.100	43.314	0.099
336.200	37.817	0.099
336.300	33.848	0.099
336.400	35.301	0.099
336.500	33.646	0.099
336.600	26.409	0.099
336.700	39.469	0.099
336.800	43.038	0.099
336.900	51.320	0.099
337.000	48.334	0.099
337.100	33.684	0.099
337.200	33.265	0.099
337.300	38.329	0.099
337.400	35.783	0.099
337.500	46.610	0.099
337.600	40.601	0.099
337.700	47.939	0.099
337.800	45.770	0.099
337.900	36.126	0.099
338.000	30.321	0.099
338.100	42.009	0.099
338.200	42.483	0.099
338.300	48.086	0.099
338.400	42.051	0.099
338.500	39.295	0.099
338.600	28.552	0.099
338.700	47.859	0.099
338.800	45.669	0.099
338.900	41.264	0.099
339.000	45.302	0.099
339.100	52.867	0.099
339.200	45.511	0.099
339.300	36.968	0.099
339.400	44.867	0.099
339.500	52.758	0.099
339.600	40.808	0.099
339.700	34.472	0.099
339.800	44.766	0.099
339.900	52.338	0.099
340.000	37.647	0.099
340.100	50.667	0.099
340.200	40.847	0.099
340.300	53.847	0.099
340.400	53.563	0.099
340.500	54.296	0.099
340.600	36.932	0.099
340.700	44.418	0.099
340.800	54.092	0.099
340.900	69.719	0.099
341.000	64.855	0.099
341.100	45.880	0.099
341.200	23.027	0.099
341.300	47.480	0.099
341.400	54.178	0.099
341.500	64.024	0.099
341.600	50.103	0.099
341.700	55.406	0.099
341.800	58.099	0.099
341.900	65.891	0.099
342.000	75.478	0.099
342.100	59.764	0.099
342.200	47.474	0.099
342.300	49.942	0.099
342.400	62.494	0.099
342.500	70.746	0.099
342.600	53.712	0.099
342.700	71.752	0.099
342.800	67.337	0.099
342.900	79.945	0.099
343.000	50.283	0.099
343.100	66.733	0.099
343.200	76.091	0.099
343.300	64.427	0.099
343.400	41.477	0.099
343.500	63.621	0.099
343.600	66.966	0.099
343.700	61.830	0.099
343.800	50.013	0.099
343.900	64.807	0.099
344.000	60.323	0.099
344.100	70.142	0.099
344.200	84.832	0.099
344.300	73.548	0.099
344.400	71.955	0.099
344.500	70.200	0.099
344.600	57.423	0.099
344.700	71.053	0.099
344.800	60.786	0.099
344.900	67.571	0.099
345.000	79.202	0.099
345.100	69.386	0.099
345.200	87.999	0.099
345.300	80.779	0.099
345.400	71.269	0.099
345.500	80.361	0.099
345.600	70.281	0.099
345.700	66.903	0.099
345.800	83.787	0.099
345.900	90.653	0.099
346.000	84.276	0.099
346.100	78.027	0.099
346.200	57.687	0.099
346.300	68.955	0.099
346.400	83.325	0.099
346.500	86.457	0.099
346.600	67.403	0.099
346.700	76.908	0.099
346.800	81.628	0.099
346.900	74.575	0.099
347.000	79.421	0.099
347.100	79.458	0.099
347.200	71.571	0.099
347.300	73.533	0.099
347.400	82.646	0.099
347.500	77.522	0.099
347.600	85.228	0.099
347.700	86.296	0.099
347.800	78.915	0.099
347.900	71.690	0.099
348.000	69.021	0.099
348.100	80.951	0.099
348.200	80.166	0.099
348.300	82.593	0.099
348.400	87.430	0.099
348.500	67.580	0.099
348.600	79.347	0.099
348.700	86.849	0.099
348.800	83.109	0.099
348.900	86.491	0.099
349.000	90.814	0.100
349.100	80.571	0.100
349.200	81.628	0.100
349.300	80.755	0.100
349.400	75.291	0.100
349.500	75.785	0.100
349.600	83.649	0.100
349.700	69.167	0.100
349.800	80.912	0.100
349.900	78.995	0.100
350.000	67.271	0.100
350.100	76.223	0.100
350.200	79.254	0.100
350.300	75.339	0.100
350.400	86.383	0.100
350.500	77.842	0.100
350.600	88.267	0.100
350.700	88.637	0.100
350.800	77.223	0.100
350.900	72.135	0.100
351.000	81.078	0.100
351.100	82.718	0.100
351.200	76.045	0.100
351.300	81.745	0.100
351.400	88.582	0.100
351.500	77.730	0.100
351.600	84.116	0.100
351.700	67.769	0.100
351.800	77.011	0.100
351.900	83.161	0.100
352.000	87.326	0.100
352.100	79.947	0.100
352.200	72.952	0.100
352.300	87.159	0.100
352.400	87.000	0.100
352.500	63.066	0.100
352.600	81.205	0.100
352.700	89.399	0.100
352.800	82.249	0.100
352.900	69.340	0.100
353.000	75.044	0.100
353.100	84.541	0.100
353.200	81.789	0.100
353.300	74.410	0.100
353.400	89.138	0.100
353.500	85.249	0.100
353.600	79.691	0.100
353.700	75.998	0.100
353.800	84.060	0.100
353.900	88.838	0.100
354.000	82.881	0.100
354.100	89.307	0.100
354.200	64.559	0.100
354.300	87.242	0.100
354.400	69.458	0.100
354.500	71.322	0.100
354.600	89.702	0.100
354.700	83.595	0.100
354.800	73.588	0.100
354.900	76.353	0.100
355.000	70.701	0.100
355.100	81.443	0.100
355.200	84.417	0.100
355.300	92.693	0.100
355.400	83.091	0.100
355.500	69.792	0.100
355.600	79.315	0.100
355.700	73.228	0.100
355.800	73.027	0.100
355.900	92.514	0.100
356.000	72.241	0.100
356.100	80.492	0.100
356.200	76.386	0.100
356.300	83.525	0.100
356.400	72.242	0.100
356.500	85.790	0.100
356.600	77.552	0.100
356.700	86.759	0.100
356.800	76.050	0.100
356.900	70.723	0.100
357.000	84.093	0.100
357.100	59.608	0.100
357.200	67.396	0.100
357.300	67.721	0.100
357.400	72.501	0.100
357.500	73.662	0.100
357.600	79.608	0.100
357.700	82.573	0.100
357.800	74.319	0.100
357.900	68.339	0.100
358.000	77.500	0.100
358.100	67.002	0.100
358.200	59.830	0.100
358.300	61.416	0.100
358.400	86.888	0.100
358.500	72.693	0.100
358.600	94.901	0.100
358.700	86.089	0.100
358.800	71.259	0.100
358.900	70.528	0.100
359.000	70.731	0.100
359.100	74.091	0.100
359.200	76.773	0.100
359.300	80.992	0.100
359.400	65.378	0.100
359.500	63.992	0.100
359.600	75.219	0.100
359.700	76.804	0.100
359.800	85.298	0.100
359.900	70.593	0.100
360.000	64.338	0.100
360.100	74.681	0.100
360.200	58.381	0.100
360.300	60.140	0.100
360.400	75.688	0.100
360.500	68.528	0.100
360.600	73.605	0.100
360.700	78.863	0.100
360.800	66.103	0.100
360.900	69.386	0.100
361.000	77.227	0.100
361.100	75.503	0.100
361.200	74.989	0.100
361.300	63.212	0.100
361.400	66.103	0.100
361.500	74.528	0.100
361.600	69.559	0.100
361.700	67.925	0.100
361.800	70.038	0.100
361.900	69.395	0.100
362.000	73.846	0.100
362.100	64.341	0.100
362.200	68.491	0.100
362.300	89.318	0.100
362.400	67.030	0.100
362.500	68.664	0.100
362.600	71.473	0.100
362.700	73.386	0.100
362.800	75.613	0.100
362.900	67.087	0.100
363.000	75.808	0.100
363.100	75.480	0.100
363.200	60.593	0.100
363.300	72.031	0.100
363.400	75.694	0.100
363.500	77.261	0.100
363.600	70.108	0.100
363.700	56.106	0.100
363.800	63.892	0.100
363.900	79.137	0.100
364.000	67.850	0.100
364.100	70.033	0.100
364.200	70.971	0.100
364.300	53.548	0.100
364.400	66.060	0.100
364.500	44.858	0.100
364.600	48.178	0.100
364.700	96.834	0.100
364.800	72.670	0.100
364.900	68.578	0.100
365.000	75.771	0.100
365.100	74.485	0.100
365.200	79.081	0.100
365.300	67.145	0.100
365.400	71.382	0.100
365.500	61.335	0.100
365.600	59.215	0.100
365.700	62.841	0.100
365.800	50.755	0.100
365.900	71.158	0.100
366.000	46.880	0.100
366.100	77.338	0.100
366.200	68.187	0.100
366.300	62.227	0.100
366.400	75.339	0.100
366.500	64.534	0.100
366.600	81.273	0.100
366.700	69.654	0.100
366.800	55.933	0.100
366.900	65.473	0.100
367.000	69.112	0.100
367.100	59.523	0.100
367.200	72.280	0.100
367.300	59.437	0.100
367.400	73.130	0.100
367.500	71.957	0.100
367.600	85.741	0.100
367.700	67.410	0.100
367.800	71.227	0.100
367.900	69.230	0.100
368.000	58.113	0.100
368.100	56.660	0.100
368.200	60.120	0.100
368.300	68.413	0.100
368.400	68.894	0.100
368.500	64.142	0.100
368.600	64.775	0.100
368.700	60.463	0.100
368.800	70.462	0.100
368.900	69.063	0.100
369.000	67.714	0.100
369.100	67.473	0.100
369.200	46.216	0.100
369.300	54.509	0.100
369.400	60.546	0.100
369.500	76.537	0.100
369.600	63.963	0.100
369.700	69.993	0.100
369.800	69.087	0.100
369.900	65.762	0.100
370.000	64.170	0.100
370.100	63.150	0.100
370.200	67.571	0.100
370.300	71.400	0.100
370.400	67.071	0.100
370.500	64.694	0.100
370.600	69.552	0.100
370.700	62.677	0.100
370.800	56.437	0.100
370.900	63.779	0.100
371.000	55.715	0.100
371.100	66.233	0.100
371.200	76.806	0.100
371.300	70.740	0.100
371.400	66.208	0.100
371.500	55.815	0.100
371.600	46.352	0.100
371.700	62.985	0.100
371.800	80.607	0.100
371.900	51.181	0.100
372.000	71.569	0.100
372.100	81.308	0.100
372.200	69.521	0.100
372.300	61.487	0.100
372.400	70.619	0.100
372.500	62.586	0.100
372.600	56.575	0.100
372.700	51.583	0.100
372.800	68.775	0.100
372.900	55.064	0.100
373.000	60.414	0.100
373.100	67.047	0.100
373.200	57.834	0.100
373.300	69.372	0.100
373.400	50.473	0.100
373.500	63.296	0.100
373.600	72.783	0.100
373.700	75.207	0.100
373.800	44.858	0.100
373.900	58.461	0.100
374.000	64.352	0.100
374.100	61.928	0.100
374.200	67.045	0.100
374.300	81.532	0.100
374.400	66.110	0.100
374.500	70.222	0.100
374.600	63.317	0.100
374.700	73.832	0.100
374.800	43.824	0.100
374.900	47.422	0.100
375.000	63.258	0.100
375.100	66.688	0.100
375.200	62.827	0.100
375.300	64.706	0.100
375.400	65.608	0.100
375.500	69.351	0.100
375.600	61.544	0.100
375.700	65.491	0.100
375.800	57.359	0.100
375.900	75.984	0.100
376.000	66.161	0.100
376.100	57.776	0.100
376.200	67.170	0.100
376.300	65.261	0.100
376.400	63.854	0.100
376.500	61.657	0.100
376.600	35.435	0.100
376.700	61.780	0.100
376.800	66.515	0.100
376.900	54.173	0.100
377.000	68.511	0.100
377.100	63.820	0.100
377.200	64.047	0.100
377.300	60.540	0.100
377.400	62.448	0.100
377.500	65.393	0.100
377.600	64.018	0.100
377.700	63.328	0.100
377.800	64.556	0.100
377.900	50.747	0.100
378.000	51.509	0.100
378.100	77.518	0.100
378.200	48.262	0.100
378.300	43.527	0.100
378.400	61.026	0.100
378.500	48.252	0.100
378.600	59.672	0.100
378.700	62.888	0.100
378.800	70.174	0.100
378.900	53.661	0.100
379.000	62.873	0.100
379.100	86.603	0.100
379.200	79.111	0.100
379.300	47.044	0.100
379.400	56.667	0.100
379.500	49.694	0.100
379.600	54.371	0.100
379.700	69.659	0.100
379.800	64.390	0.100
379.900	76.580	0.100
380.000	62.232	0.100
380.100	72.303	0.100
380.200	68.505	0.100
380.300	63.504	0.100
380.400	64.843	0.100
380.500	60.705	0.100
380.600	57.374	0.100
380.700	57.632	0.100
380.800	66.837	0.100
380.900	61.016	0.100
381.000	62.732	0.100
381.100	69.518	0.100
381.200	59.874	0.100
381.300	59.278	0.100
381.400	63.323	0.100
381.500	49.156	0.100
381.600	52.193	0.100
381.700	69.645	0.100
381.800	60.699	0.100
381.900	67.838	0.100
382.000	57.871	0.100
382.100	62.917	0.100
382.200	60.621	0.100
382.300	50.474	0.100
382.400	68.240	0.100
382.500	53.264	0.100
382.600	52.541	0.100
382.700	48.035	0.100
382.800	57.947	0.100
382.900	74.416	0.100
383.000	63.812	0.100
383.100	72.080	0.100
383.200	69.257	0.100
383.300	72.103	0.100
383.400	46.806	0.100
383.500	71.230	0.100
383.600	75.749	0.100
383.700	56.476	0.100
383.800	46.510	0.100
383.900	59.844	0.100
384.000	59.221	0.100
384.100	55.792	0.100
384.200	70.843	0.100
384.300	55.879	0.100
384.400	72.615	0.100
384.500	57.888	0.100
384.600	66.391	0.100
384.700	49.987	0.100
384.800	52.492	0.100
384.900	65.699	0.100
385.000	67.085	0.100
385.100	54.189	0.100
385.200	45.865	0.100
385.300	62.065	0.100
385.400	70.876	0.100
385.500	56.525	0.100
385.600	52.758	0.100
385.700	53.845	0.100
385.800	55.058	0.100
385.900	59.385	0.100
386.000	66.376	0.100
386.100	55.495	0.100
386.200	65.670	0.100
386.300	57.094	0.100
386.400	53.088	0.100
386.500	61.763	0.100
386.600	72.556	0.100
386.700	49.513	0.100
386.800	66.903	0.100
386.900	62.404	0.100
387.000	65.646	0.100
387.100	62.143	0.100
387.200	57.446	0.100
387.300	57.199	0.100
387.400	71.963	0.100
387.500	57.463	0.100
387.600	55.959	0.100
387.700	53.284	0.100
387.800	48.757	0.100
387.900	86.494	0.100
388.000	62.988	0.100
388.100	49.915	0.100
388.200	60.797	0.100
388.300	60.773	0.100
388.400	57.946	0.100
388.500	61.196	0.099
388.600	64.478	0.099
388.700	54.172	0.099
388.800	60.397	0.099
388.900	47.093	0.099
389.000	67.346	0.099
389.100	51.258	0.099
389.200	44.917	0.099
389.300	64.496	0.099
389.400	49.956	0.099
389.500	51.822	0.099
389.600	57.777	0.099
389.700	53.586	0.099
389.800	48.222	0.099
389.900	59.437	0.099
390.000	50.526	0.099
390.100	61.335	0.099
390.200	42.676	0.099
390.300	56.384	0.099
390.400	61.108	0.099
390.500	59.324	0.099
390.600	56.135	0.099
390.700	46.108	0.099
390.800	41.879	0.099
390.900	32.054	0.099
391.000	37.662	0.099
391.100	41.404	0.099
391.200	31.607	0.099
391.300	31.283	0.099
391.400	28.762	0.099
391.500	11.594	0.099
391.600	6.824	0.099
391.700	12.197	0.099
391.800	5.024	0.099
391.900	0.067	0.099
392.000	-9.409	0.099
392.100	-10.229	0.099
392.200	11.072	0.099
392.300	-0.329	0.099
392.400	-6.960	0.099
392.500	-11.268	0.099
392.600	-24.844	0.099
392.700	-12.108	0.099
392.800	-29.576	0.099
392.900	-10.685	0.099
393.000	-12.597	0.099
393.100	-29.001	0.099
393.200	-11.910	0.099
393.300	-26.262	0.099
393.400	-23.374	0.099
393.500	-38.945	0.099
393.600	-34.627	0.099
393.700	-28.664	0.099
393.800	-36.149	0.099
393.900	-29.504	0.099
394.000	-41.610	0.099
394.100	-41.547	0.099
394.200	-46.141	0.099
394.300	-43.631	0.099
394.400	-31.422	0.099
394.500	-34.054	0.099
394.600	-38.492	0.099
394.700	-48.870	0.099
394.800	-46.392	0.099
394.900	-36.572	0.099
395.000	-46.118	0.099
395.100	-45.862	0.099
395.200	-41.456	0.099
395.300	-60.618	0.099
395.400	-30.422	0.099
395.500	-60.020	0.099
395.600	-35.171	0.099
395.700	-31.702	0.099
395.800	-40.655	0.099
395.900	-49.188	0.099
396.000	-37.187	0.099
396.100	-52.156	0.099
396.200	-50.157	0.099
396.300	-42.626	0.099
396.400	-56.491	0.099
396.500	-48.543	0.099
396.600	-35.792	0.099
396.700	-48.860	0.099
396.800	-46.153	0.099
396.900	-49.740	0.099
397.000	-36.069	0.099
397.100	-49.524	0.099
397.200	-52.831	0.099
397.300	-53.818	0.099
397.400	-45.770	0.099
397.500	-53.180	0.099
397.600	-54.428	0.099
397.700	-35.617	0.099
397.800	-37.777	0.099
397.900	-48.068	0.099
398.000	-64.437	0.099
398.100	-38.603	0.099
398.200	-52.441	0.099
398.300	-40.371	0.099
398.400	-32.335	0.099
398.500	-24.188	0.099
398.600	-43.126	0.099
398.700	-52.032	0.099
398.800	-43.546	0.099
398.900	-38.994	0.099
399.000	-44.131	0.099
399.100	-23.334	0.099
399.200	-21.896	0.099
399.300	-34.008	0.099
399.400	-40.357	0.099
399.500	-38.804	0.099
399.600	-29.533	0.099
399.700	-35.087	0.099
399.800	-46.092	0.099
399.900	-38.364	0.099
400.000	-31.946	0.099
400.100	-28.224	0.099
400.200	-42.171	0.099
400.300	-40.072	0.099
400.400	-29.636	0.099
400.500	-27.977	0.099
400.600	-31.671	0.099
400.700	-39.673	0.099
400.800	-32.416	0.099
400.900	-33.946	0.099
401.000	-40.173	0.099
401.100	-36.399	0.099
401.200	-31.911	0.099
401.300	-41.090	0.099
401.400	-25.238	0.099
401.500	-25.710	0.099
401.600	-36.424	0.099
401.700	-51.592	0.099
401.800	-28.169	0.099
401.900	-39.002	0.099
402.000	-23.639	0.099
402.100	-26.979	0.099
402.200	-37.704	0.099
402.300	-28.097	0.099
402.400	-34.923	0.099
402.500	-37.242	0.099
402.600	-38.173	0.099
402.700	-28.779	0.099
402.800	-26.683	0.099
402.900	-41.409	0.099
403.000	-42.068	0.099
403.100	-28.701	0.099
403.200	-22.106	0.099
403.300	-30.647	0.099
403.400	-26.119	0.099
403.500	-30.359	0.099
403.600	-42.200	0.099
403.700	-27.505	0.099
403.800	-29.207	0.099
403.900	-21.868	0.099
404.000	-29.455	0.099
404.100	-22.242	0.099
404.200	-32.177	0.099
404.300	-30.571	0.099
404.400	-36.764	0.099
404.500	-41.400	0.099
404.600	-39.787	0.099
404.700	-38.582	0.099
404.800	-37.980	0.099
404.900	-21.474	0.099
405.000	-32.821	0.099
405.100	-19.379	0.099
405.200	-25.455	0.099
405.300	-35.436	0.099
405.400	-24.982	0.099
405.500	-20.170	0.099
405.600	-19.500	0.100
405.700	-32.059	0.100
405.800	-21.568	0.100
405.900	-32.398	0.100
406.000	-41.531	0.100
406.100	-31.489	0.100
406.200	-16.902	0.100
406.300	-28.757	0.100
406.400	-17.745	0.100
406.500	-22.630	0.100
406.600	-27.670	0.100
406.700	-27.024	0.100
406.800	-27.281	0.100
406.900	-22.397	0.100
407.000	-27.388	0.100
407.100	-31.927	0.100
407.200	-24.629	0.100
407.300	-28.167	0.100
407.400	-21.372	0.100
407.500	-21.329	0.100
407.600	-18.700	0.100
407.700	-36.627	0.100
407.800	-23.509	0.100
407.900	-15.729	0.100
408.000	-11.339	0.100
408.100	-29.102	0.100
408.200	-33.068	0.100
408.300	-22.563	0.100
408.400	-33.948	0.100
408.500	-25.448	0.100
408.600	-30.080	0.100
408.700	-31.803	0.100
408.800	-28.581	0.100
408.900	-22.140	0.100
409.000	-24.480	0.100
409.100	-26.394	0.100
409.200	-28.012	0.100
409.300	-41.160	0.100
409.400	-41.985	0.100
409.500	-35.737	0.100
409.600	-20.660	0.100
409.700	-28.322	0.100
409.800	-26.637	0.100
409.900	-16.031	0.100
410.000	-32.636	0.100
410.100	-32.591	0.100
410.200	-23.593	0.100
410.300	-19.537	0.100
410.400	-36.073	0.100
410.500	-29.611	0.100
410.600	-27.517	0.100
410.700	-18.189	0.100
410.800	-29.513	0.100
410.900	-39.407	0.100
411.000	-26.643	0.100
411.100	-25.270	0.100
411.200	-25.311	0.100
411.300	-16.023	0.100
411.400	-31.897	0.100
411.500	-27.054	0.100
411.600	-27.496	0.100
411.700	-16.882	0.100
411.800	-39.119	0.100
411.900	-27.933	0.100
412.000	-40.388	0.100
412.100	-38.613	0.100
412.200	-40.535	0.100
412.300	-24.044	0.100
412.400	-21.759	0.100
412.500	-14.881	0.100
412.600	-26.472	0.100
412.700	-19.480	0.100
412.800	-39.474	0.100
412.900	-29.015	0.100
413.000	-42.494	0.100
413.100	-31.152	0.100
413.200	-27.847	0.100
413.300	-25.560	0.100
413.400	-24.726	0.100
413.500	-22.541	0.100
413.600	-25.431	0.100
413.700	-34.461	0.100
413.800	-40.990	0.100
413.900	-30.073	0.100
414.000	-34.087	0.100
414.100	-31.454	0.100
414.200	-20.303	0.100
414.300	-23.599	0.100
414.400	-36.401	0.100
414.500	-31.676	0.100
414.600	-35.876	0.100
414.700	-46.169	0.100
414.800	-28.204	0.100
414.900	-21.858	0.100
415.000	-17.484	0.100
415.100	-25.673	0.100
415.200	-16.236	0.100
415.300	-34.373	0.100
415.400	-33.808	0.100
415.500	-32.314	0.100
415.600	-33.948	0.100
415.700	-15.431	0.100
415.800	-23.018	0.100
415.900	-30.529	0.100
416.000	-39.784	0.100
416.100	-48.206	0.100
416.200	-31.140	0.100
416.300	-37.650	0.100
416.400	-16.860	0.100
416.500	-47.962	0.100
416.600	-28.978	0.100
416.700	-32.821	0.100
416.800	-26.292	0.100
416.900	-24.011	0.100
417.000	-29.987	0.100
417.100	-25.006	0.100
417.200	-45.088	0.100
417.300	-50.916	0.100
417.400	-35.746	0.100
417.500	-26.847	0.100
417.600	-21.451	0.100
417.700	-24.021	0.100
417.800	-23.249	0.100
417.900	-27.583	0.100
418.000	-30.546	0.100
418.100	-25.877	0.100
418.200	-35.067	0.100
418.300	-31.152	0.100
418.400	-40.038	0.100
418.500	-30.491	0.100
418.600	-28.645	0.100
418.700	-37.937	0.100
418.800	-30.815	0.100
418.900	-46.749	0.100
419.000	-34.066	0.100
419.100	-29.547	0.100
419.200	-37.825	0.100
419.300	-21.307	0.100
419.400	-37.317	0.100
419.500	-36.848	0.100
419.600	-21.293	0.100
419.700	-31.320	0.100
419.800	-31.284	0.100
419.900	-28.633	0.100
420.000	-33.551	0.100
420.100	-39.736	0.100
420.200	-21.272	0.100
420.300	-22.954	0.100
420.400	-31.307	0.100
420.500	-24.526	0.100
420.600	-50.208	0.100
420.700	-49.103	0.100
420.800	-23.043	0.100
420.900	-36.436	0.100
421.000	-25.518	0.100
421.100	-29.302	0.100
421.200	-40.900	0.100
421.300	-27.896	0.100
421.400	-33.445	0.100
421.500	-32.079	0.100
421.600	-36.077	0.100
421.700	-42.640	0.100
421.800	-35.047	0.100
421.900	-39.893	0.100
422.000	-37.395	0.100
422.100	-36.729	0.100
422.200	-30.192	0.100
422.300	-25.147	0.100
422.400	-29.049	0.100
422.500	-39.549	0.100
422.600	-31.707	0.100
422.700	-34.319	0.100
422.800	-39.555	0.100
422.900	-42.816	0.100
423.000	-43.693	0.100
423.100	-38.795	0.100
423.200	-24.626	0.100
423.300	-44.404	0.100
423.400	-37.676	0.100
423.500	-21.802	0.100
423.600	-43.285	0.100
423.700	-40.710	0.100
423.800	-23.332	0.100
423.900	-32.292	0.100
424.000	-37.383	0.100
424.100	-35.723	0.100
424.200	-43.116	0.100
424.300	-36.822	0.100
424.400	-27.071	0.100
424.500	-30.598	0.100
424.600	-32.234	0.100
424.700	-31.328	0.100
424.800	-43.231	0.100
424.900	-30.342	0.100
425.000	-26.685	0.100
425.100	-34.719	0.100
425.200	-33.516	0.100
425.300	-41.924	0.100
425.400	-48.377	0.100
425.500	-27.211	0.100
425.600	-48.785	0.100
425.700	-23.901	0.100
425.800	-24.418	0.100
425.900	-41.832	0.100
426.000	-47.996	0.100
426.100	-28.917	0.100
426.200	-35.472	0.100
426.300	-38.219	0.100
426.400	-37.443	0.100
426.500	-32.199	0.100
426.600	-35.297	0.100
426.700	-34.786	0.100
426.800	-38.082	0.100
426.900	-26.219	0.100
427.000	-52.129	0.100
427.100	-36.643	0.100
427.200	-38.852	0.100
427.300	-30.033	0.100
427.400	-48.989	0.100
427.500	-25.679	0.100
427.600	-31.526	0.100
427.700	-43.676	0.100
427.800	-35.176	0.100
427.900	-11.567	0.100
428.000	-53.921	0.100
428.100	-37.825	0.100
428.200	-35.855	0.100
428.300	-28.055	0.100
428.400	-35.613	0.100
428.500	-23.745	0.100
428.600	-34.366	0.100
428.700	-33.876	0.100
428.800	-25.972	0.100
428.900	-62.940	0.100
429.000	-53.796	0.100
429.100	-36.603	0.100
429.200	-30.787	0.100
429.300	-25.057	0.100
429.400	-40.330	0.100
429.500	-24.920	0.100
429.600	-40.187	0.100
429.700	-33.298	0.100
429.800	-37.314	0.100
429.900	-53.734	0.100
430.000	-43.490	0.100
430.100	-35.006	0.100
430.200	-35.752	0.100
430.300	-30.873	0.100
430.400	-21.427	0.100
430.500	-47.812	0.100
430.600	-47.636	0.100
430.700	-28.736	0.100
430.800	-36.549	0.100
430.900	-39.424	0.100
431.000	-32.642	0.100
431.100	-38.022	0.100
431.200	-32.864	0.100
431.300	-31.147	0.100
431.400	-37.487	0.100
431.500	-37.074	0.100
431.600	-35.226	0.100
431.700	-38.375	0.100
431.800	-33.149	0.100
431.900	-35.268	0.100
432.000	-43.322	0.100
432.100	-33.836	0.100
432.200	-53.556	0.100
432.300	-32.118	0.100
432.400	-15.950	0.100
432.500	-26.467	0.100
432.600	-34.394	0.100
432.700	-51.167	0.100
432.800	-41.961	0.100
432.900	-30.767	0.100
433.000	-29.141	0.100
433.100	-41.419	0.100
433.200	-50.107	0.100
433.300	-40.937	0.100
433.400	-39.598	0.100
433.500	-17.713	0.100
433.600	-40.221	0.100
433.700	-40.302	0.100
433.800	-21.008	0.100
433.900	-28.377	0.100
434.000	-41.731	0.100
434.100	-25.515	0.100
434.200	-37.093	0.100
434.300	-29.092	0.100
434.400	-43.319	0.100
434.500	-29.522	0.100
434.600	-46.397	0.100
434.700	-31.276	0.100
434.800	-34.273	0.100
434.900	-23.135	0.100
435.000	-34.314	0.100
435.100	-42.914	0.100
435.200	-33.529	0.100
435.300	-45.706	0.100
435.400	-28.978	0.100
435.500	-29.547	0.100
435.600	-31.696	0.100
435.700	-40.929	0.100
435.800	-24.649	0.100
435.900	-30.580	0.100
436.000	-45.876	0.100
436.100	-21.876	0.100
436.200	-39.922	0.100
436.300	-38.352	0.100
436.400	-20.863	0.100
436.500	-25.535	0.100
436.600	-29.306	0.100
436.700	-31.557	0.100
436.800	-36.649	0.100
436.900	-35.668	0.100
437.000	-35.778	0.100
437.100	-40.806	0.100
437.200	-40.029	0.100
437.300	-25.156	0.100
437.400	-28.262	0.100
437.500	-49.466	0.100
437.600	-26.835	0.100
437.700	-18.516	0.100
437.800	-30.345	0.100
437.900	-30.421	0.100
438.000	-34.719	0.100
438.100	-41.717	0.100
438.200	-41.346	0.100
438.300	-43.676	0.100
438.400	-44.749	0.100
438.500	-28.980	0.100
438.600	-43.622	0.100
438.700	-34.526	0.100
438.800	-26.893	0.100
438.900	-35.456	0.100
439.000	-26.026	0.100
439.100	-30.859	0.100
439.200	-28.532	0.100
439.300	-36.756	0.100
439.400	-35.671	0.100
439.500	-36.071	0.100
439.600	-28.095	0.100
439.700	-44.921	0.100
439.800	-24.769	0.100
439.900	-33.523	0.100
440.000	-28.129	0.100
440.100	-33.166	0.100
440.200	-43.184	0.100
440.300	-32.677	0.100
440.400	-30.160	0.100
440.500	-35.226	0.100
440.600	-33.776	0.100
440.700	-36.571	0.100
440.800	-45.036	0.100
440.900	-25.917	0.100
441.000	-29.815	0.100
441.100	-33.043	0.100
441.200	-33.330	0.100
441.300	-32.818	0.100
441.400	-37.452	0.100
441.500	-31.012	0.100
441.600	-35.210	0.100
441.700	-25.412	0.100
441.800	-22.820	0.100
441.900	-37.438	0.100
442.000	-37.247	0.100
442.100	-29.371	0.100
442.200	-26.413	0.100
442.300	-34.172	0.100
442.400	-30.004	0.100
442.500	-21.180	0.100
442.600	-27.424	0.100
442.700	-35.774	0.100
442.800	-29.748	0.100
442.900	-37.172	0.100
443.000	-33.986	0.100
443.100	-38.584	0.100
443.200	-30.510	0.100
443.300	-26.669	0.100
443.400	-31.610	0.100
443.500	-38.657	0.100
443.600	-39.273	0.100
443.700	-26.525	0.100
443.800	-27.988	0.100
443.900	-37.133	0.100
444.000	-32.646	0.100
444.100	-32.023	0.100
444.200	-45.594	0.100
444.300	-31.609	0.100
444.400	-29.473	0.100
444.500	-23.268	0.100
444.600	-27.773	0.100
444.700	-22.111	0.100
444.800	-35.229	0.100
444.900	-27.617	0.100
445.000	-18.120	0.100
445.100	-26.876	0.100
445.200	-43.299	0.100
445.300	-42.511	0.100
445.400	-28.463	0.100
445.500	-18.925	0.100
445.600	-22.095	0.100
445.700	-34.492	0.100
445.800	-28.854	0.100
445.900	-37.673	0.100
446.000	-47.097	0.100
446.100	-22.206	0.100
446.200	-23.538	0.100
446.300	-32.291	0.100
446.400	-30.430	0.100
446.500	-28.538	0.100
446.600	-30.445	0.100
446.700	-24.359	0.100
446.800	-40.189	0.100
446.900	-37.081	0.100
447.000	-25.327	0.100
447.100	-42.210	0.100
447.200	-17.262	0.100
447.300	-34.650	0.100
447.400	-21.125	0.100
447.500	-21.542	0.100
447.600	-35.268	0.100
447.700	-14.118	0.100
447.800	-35.580	0.100
447.900	-39.365	0.100
448.000	-24.162	0.100
448.100	-17.564	0.100
448.200	-41.078	0.100
448.300	-43.190	0.100
448.400	-28.420	0.100
448.500	-44.196	0.100
448.600	-18.629	0.100
448.700	-28.281	0.100
448.800	-53.088	0.100
448.900	-38.167	0.100
449.000	-5.297	0.100
449.100	-13.940	0.100
449.200	-46.898	0.100
449.300	-26.035	0.100
449.400	-25.406	0.100
449.500	-30.310	0.100
449.600	-49.003	0.100
449.700	-25.141	0.100
449.800	-52.395	0.100
449.900	-8.995	0.100
450.000	-18.950	0.100
450.100	-31.549	0.100
450.200	-23.811	0.100
450.300	-21.957	0.100
450.400	-26.049	0.100
450.500	-33.913	0.100
450.600	-36.747	0.100
450.700	-29.015	0.100
450.800	-24.888	0.100
450.900	-42.379	0.100
451.000	-37.343	0.100
451.100	-41.910	0.100
451.200	-34.124	0.100
451.300	-41.206	0.100
451.400	-14.492	0.100
451.500	-30.687	0.100
451.600	-39.457	0.100
451.700	-35.159	0.100
451.800	-20.358	0.100
451.900	-24.217	0.100
452.000	-36.638	0.100
452.100	-44.006	0.100
452.200	-32.323	0.100
452.300	-11.444	0.100
452.400	-21.188	0.100
452.500	-36.652	0.100
452.600	-27.971	0.100
452.700	-26.850	0.100
452.800	-29.180	0.100
452.900	-25.639	0.100
453.000	-27.413	0.100
453.100	-34.874	0.100
453.200	-24.611	0.100
453.300	-34.224	0.100
453.400	-27.194	0.100
453.500	-25.655	0.100
453.600	-40.612	0.100
453.700	-26.487	0.100
453.800	-13.161	0.100
453.900	-24.051	0.100
454.000	-32.801	0.100
454.100	-26.594	0.100
454.200	-35.147	0.100
454.300	-31.336	0.100
454.400	-23.637	0.100
454.500	-41.965	0.100
454.600	-36.775	0.100
454.700	-35.574	0.100
454.800	-22.385	0.100
454.900	-12.608	0.100
455.000	-26.016	0.100
455.100	-37.179	0.100
455.200	-24.957	0.100
455.300	-17.814	0.100
455.400	-24.531	0.100
455.500	-26.993	0.100
455.600	-35.748	0.100
455.700	-29.338	0.100
455.800	-31.478	0.100
455.900	-31.422	0.100
456.000	-24.948	0.100
456.100	-22.083	0.100
456.200	-23.573	0.100
456.300	-36.077	0.100
456.400	-33.536	0.100
456.500	-20.693	0.100
456.600	-37.435	0.100
456.700	-26.696	0.100
456.800	-33.373	0.100
456.900	-35.594	0.100
457.000	-36.684	0.100
457.100	-15.706	0.100
457.200	-25.810	0.100
457.300	-28.173	0.100
457.400	-7.074	0.100
457.500	-33.154	0.100
457.600	-32.438	0.100
457.700	-25.402	0.100
457.800	-23.107	0.100
457.900	-24.738	0.100
458.000	-17.602	0.100
458.100	-19.250	0.100
458.200	-27.919	0.100
458.300	-21.884	0.100
458.400	-20.777	0.100
458.500	-24.175	0.100
458.600	-16.865	0.100
458.700	-35.573	0.100
458.800	-36.585	0.100
458.900	-15.554	0.100
459.000	-14.617	0.100
459.100	-42.292	0.100
459.200	-33.031	0.100
459.300	-4.425	0.100
459.400	-17.578	0.100
459.500	-32.869	0.100
459.600	-50.780	0.100
459.700	-36.887	0.100
459.800	-22.078	0.100
459.900	-23.581	0.100
460.000	-18.822	0.100
460.100	-13.035	0.100
460.200	-38.110	0.100
460.300	-23.587	0.100
460.400	-10.583	0.100
460.500	-27.433	0.100
460.600	-30.151	0.100
460.700	-30.329	0.100
460.800	-24.712	0.100
460.900	-29.194	0.100
461.000	-27.445	0.100
461.100	-42.856	0.100
461.200	-25.609	0.100
461.300	-24.088	0.100
461.400	-17.110	0.100
461.500	-19.852	0.100
461.600	-28.120	0.100
461.700	-33.249	0.100
461.800	-24.228	0.100
461.900	-24.027	0.100
462.000	-37.025	0.100
462.100	-24.235	0.100
462.200	-25.918	0.100
462.300	-25.359	0.100
462.400	-33.635	0.100
462.500	-43.618	0.100
462.600	-28.061	0.100
462.700	-20.338	0.100
462.800	-17.872	0.100
462.900	-15.985	0.100
463.000	-24.982	0.100
463.100	-34.438	0.100
463.200	-32.507	0.100
463.300	-33.039	0.100
463.400	-24.212	0.100
463.500	-27.598	0.100
463.600	-25.100	0.100
463.700	-16.374	0.100
463.800	-19.494	0.100
463.900	-15.407	0.100
464.000	-37.854	0.100
464.100	-30.615	0.100
464.200	-14.585	0.100
464.300	-17.046	0.100
464.400	-24.094	0.100
464.500	-27.292	0.100
464.600	-31.216	0.100
464.700	-27.402	0.100
464.800	-17.783	0.100
464.900	-22.616	0.100
465.000	-34.652	0.100
465.100	-28.980	0.100
465.200	-26.602	0.100
465.300	-17.504	0.100
465.400	-37.281	0.100
465.500	-16.784	0.100
465.600	-16.229	0.100
465.700	-21.605	0.100
465.800	-30.957	0.100
465.900	-30.324	0.100
466.000	-14.475	0.100
466.100	-32.999	0.100
466.200	-17.538	0.100
466.300	-16.788	0.100
466.400	-26.156	0.100
466.500	-20.973	0.100
466.600	-33.275	0.100
466.700	-46.357	0.100
466.800	-35.653	0.100
466.900	-34.121	0.100
467.000	-21.930	0.100
467.100	-19.734	0.100
467.200	-11.089	0.100
467.300	-26.791	0.100
467.400	-24.507	0.100
467.500	-34.782	0.100
467.600	-21.582	0.100
467.700	-25.687	0.100
467.800	-23.363	0.100
467.900	-21.126	0.100
468.000	-22.083	0.100
468.100	-33.923	0.100
468.200	-26.688	0.100
468.300	-30.549	0.100
468.400	-21.950	0.100
468.500	-10.391	0.100
468.600	-19.558	0.100
468.700	-28.285	0.100
468.800	-28.710	0.100
468.900	-20.472	0.100
469.000	-32.626	0.100
469.100	-34.812	0.100
469.200	-18.433	0.100
469.300	-16.080	0.100
469.400	-21.853	0.100
469.500	-25.672	0.100
469.600	-26.430	0.100
469.700	-20.410	0.100
469.800	-20.811	0.100
469.900	-35.289	0.100
470.000	-16.328	0.100
470.100	-20.156	0.100
470.200	-37.555	0.100
470.300	-16.593	0.100
470.400	-32.346	0.100
470.500	-19.336	0.100
470.600	-13.735	0.100
470.700	-19.359	0.100
470.800	-41.312	0.100
470.900	-28.527	0.100
471.000	-26.050	0.100
471.100	-17.260	0.100
471.200	-25.845	0.100
471.300	-28.296	0.100
471.400	-25.405	0.100
471.500	-15.652	0.100
471.600	-23.128	0.100
471.700	-0.842	0.100
471.800	-23.053	0.100
471.900	-12.875	0.100
472.000	-29.870	0.100
472.100	-34.190	0.100
472.200	-27.292	0.100
472.300	-29.755	0.100
472.400	-27.306	0.100
472.500	-26.464	0.100
472.600	-28.748	0.100
472.700	-13.157	0.100
472.800	-3.865	0.100
472.900	-20.857	0.100
473.000	-34.205	0.100
473.100	-21.851	0.100
473.200	-12.611	0.100
473.300	-26.323	0.100
473.400	-20.473	0.100
473.500	-25.084	0.100
473.600	-22.356	0.100
473.700	-26.274	0.100
473.800	-31.538	0.100
473.900	-24.244	0.100
474.000	-50.145	0.100
474.100	-16.176	0.100
474.200	-24.933	0.100
474.300	-8.995	0.100
474.400	-27.464	0.100
474.500	-24.706	0.100
474.600	-6.999	0.100
474.700	-17.242	0.100
474.800	-22.118	0.100
474.900	-20.973	0.100
475.000	-18.278	0.100
475.100	-27.533	0.100
475.200	-9.140	0.100
475.300	-23.915	0.100
475.400	-32.263	0.100
475.500	-9.849	0.100
475.600	-22.038	0.100
475.700	-39.089	0.100
475.800	-15.827	0.100
475.900	-31.650	0.100
476.000	-19.589	0.100
476.100	-12.401	0.100
476.200	-11.106	0.100
476.300	-22.265	0.100
476.400	-23.800	0.100
476.500	-24.579	0.100
476.600	-25.698	0.100
476.700	-31.957	0.100
476.800	-23.890	0.100
476.900	-22.371	0.100
477.000	-16.489	0.100
477.100	-22.974	0.100
477.200	-35.907	0.100
477.300	-18.893	0.100
477.400	-14.450	0.100
477.500	-19.011	0.100
477.600	-31.675	0.100
477.700	-22.739	0.100
477.800	-29.531	0.100
477.900	-11.469	0.100
478.000	-18.511	0.100
478.100	-20.545	0.100
478.200	-25.411	0.100
478.300	-17.265	0.100
478.400	-31.497	0.100
478.500	-31.474	0.100
478.600	-11.152	0.100
478.700	-16.892	0.100
478.800	-19.437	0.100
478.900	-25.132	0.100
479.000	-15.444	0.100
479.100	-9.724	0.100
479.200	-30.280	0.100
479.300	-34.098	0.100
479.400	-16.745	0.100
479.500	-28.106	0.100
479.600	-21.352	0.100
479.700	-21.343	0.100
479.800	-13.589	0.100
479.900	-14.162	0.100
480.000	-23.084	0.100
480.100	-27.223	0.100
480.200	-17.391	0.100
480.300	-20.645	0.100
480.400	-28.681	0.100
480.500	-29.832	0.100
480.600	-14.332	0.100
480.700	-14.423	0.100
480.800	-11.499	0.100
480.900	-1.450	0.100
481.000	-2.383	0.100
481.100	-6.557	0.100
481.200	-3.387	0.100
481.300	16.834	0.100
481.400	20.398	0.100
481.500	29.171	0.100
481.600	31.346	0.100
481.700	25.541	0.100
481.800	21.554	0.100
481.900	13.294	0.100
482.000	41.687	0.100
482.100	30.187	0.100
482.200	30.154	0.100
482.300	46.775	0.100
482.400	35.894	0.100
482.500	41.057	0.100
482.600	47.617	0.100
482.700	51.803	0.100
482.800	50.507	0.100
482.900	53.487	0.100
483.000	46.800	0.100
483.100	67.200	0.100
483.200	58.910	0.100
483.300	43.400	0.100
483.400	43.276	0.100
483.500	34.349	0.100
483.600	44.750	0.100
483.700	50.488	0.100
483.800	46.400	0.100
483.900	45.563	0.100
484.000	50.874	0.100
484.100	65.830	0.100
484.200	34.872	0.100
484.300	60.558	0.100
484.400	59.020	0.100
484.500	40.303	0.100
484.600	49.530	0.100
484.700	42.669	0.100
484.800	38.939	0.100
484.900	58.700	0.100
485.000	42.478	0.100
485.100	41.375	0.100
485.200	49.207	0.100
485.300	50.369	0.100
485.400	49.394	0.100
485.500	47.847	0.100
485.600	35.576	0.100
485.700	31.752	0.100
485.800	41.963	0.100
485.900	29.858	0.100
486.000	35.064	0.100
486.100	48.744	0.100
486.200	53.563	0.100
486.300	44.888	0.100
486.400	37.526	0.100
486.500	35.767	0.100
486.600	32.252	0.100
486.700	35.942	0.100
486.800	49.883	0.100
486.900	45.615	0.100
487.000	44.614	0.100
487.100	18.957	0.100
487.200	32.678	0.100
487.300	34.812	0.100
487.400	38.444	0.100
487.500	40.913	0.100
487.600	40.503	0.100
487.700	44.177	0.100
487.800	45.960	0.100
487.900	42.688	0.100
488.000	39.106	0.100
488.100	31.400	0.100
488.200	49.795	0.100
488.300	44.251	0.100
488.400	23.524	0.100
488.500	62.631	0.100
488.600	31.049	0.100
488.700	53.399	0.100
488.800	46.141	0.100
488.900	52.144	0.100
489.000	42.695	0.100
489.100	33.843	0.100
489.200	32.637	0.100
489.300	50.152	0.100
489.400	45.799	0.100
489.500	48.699	0.100
489.600	52.118	0.100
489.700	59.499	0.100
489.800	34.572	0.100
489.900	38.960	0.100
490.000	57.445	0.100
490.100	54.816	0.100
490.200	43.001	0.100
490.300	33.055	0.100
490.400	52.981	0.100
490.500	63.768	0.100
490.600	45.440	0.100
490.700	42.974	0.100
490.800	55.406	0.100
490.900	56.692	0.100
491.000	45.328	0.100
491.100	55.970	0.100
491.200	59.700	0.100
491.300	56.543	0.100
491.400	50.841	0.100
491.500	57.369	0.100
491.600	49.064	0.100
491.700	56.628	0.100
491.800	42.439	0.100
491.900	64.847	0.100
492.000	41.151	0.100
492.100	54.273	0.100
492.200	67.508	0.100
492.300	56.027	0.100
492.400	48.653	0.100
492.500	61.634	0.100
492.600	77.963	0.100
492.700	77.705	0.100
492.800	74.762	0.100
492.900	67.225	0.100
493.000	73.967	0.100
493.100	61.810	0.100
493.200	57.248	0.100
493.300	58.823	0.100
493.400	71.816	0.100
493.500	70.631	0.100
493.600	52.875	0.100
493.700	71.778	0.100
493.800	73.795	0.100
493.900	68.860	0.100
494.000	67.521	0.100
494.100	63.898	0.100
494.200	83.791	0.100
494.300	51.776	0.100
494.400	67.418	0.100
494.500	75.305	0.100
494.600	45.592	0.100
494.700	68.494	0.100
494.800	68.299	0.100
494.900	61.016	0.100
495.000	69.549	0.100
495.100	83.594	0.100
495.200	81.225	0.100
495.300	75.910	0.100
495.400	61.602	0.100
495.500	83.978	0.100
495.600	62.332	0.100
495.700	65.707	0.100
495.800	78.726	0.100
495.900	80.124	0.100
496.000	83.114	0.100
496.100	69.700	0.100
496.200	70.816	0.100
496.300	76.229	0.100
496.400	87.992	0.100
496.500	68.359	0.100
496.600	87.165	0.100
496.700	73.659	0.100
496.800	82.165	0.100
496.900	77.817	0.100
497.000	80.175	0.100
497.100	78.493	0.100
497.200	79.369	0.100
497.300	69.935	0.100
497.400	80.302	0.100
497.500	78.728	0.100
497.600	91.592	0.100
497.700	68.810	0.100
497.800	67.728	0.100
497.900	73.849	0.100
498.000	79.459	0.100
498.100	80.813	0.100
498.200	94.756	0.100
498.300	80.393	0.100
498.400	91.188	0.100
498.500	78.892	0.100
498.600	78.293	0.100
498.700	72.536	0.100
498.800	69.104	0.100
498.900	84.815	0.100
499.000	80.926	0.100
499.100	81.650	0.100
499.200	77.057	0.100
499.300	79.323	0.100
499.400	79.658	0.100
499.500	82.269	0.100
499.600	78.831	0.100
499.700	74.900	0.100
499.800	69.783	0.100
499.900	91.640	0.100
500.000	76.479	0.100
500.100	71.402	0.100
500.200	80.802	0.100
500.300	82.067	0.100
500.400	78.878	0.100
500.500	89.672	0.100
500.600	90.268	0.100
500.700	85.102	0.100
500.800	87.193	0.100
500.900	87.731	0.100
501.000	72.705	0.100
501.100	89.318	0.100
501.200	80.531	0.100
501.300	80.851	0.100
501.400	73.850	0.100
501.500	77.857	0.100
501.600	84.874	0.100
501.700	58.473	0.100
501.800	89.236	0.100
501.900	65.934	0.100
502.000	78.392	0.100
502.100	76.219	0.100
502.200	76.698	0.100
502.300	84.541	0.100
502.400	68.284	0.100
502.500	83.739	0.100
502.600	84.923	0.100
502.700	75.164	0.100
502.800	86.520	0.100
502.900	93.722	0.100
503.000	78.388	0.100
503.100	82.795	0.100
503.200	85.894	0.100
503.300	83.710	0.100
503.400	70.410	0.100
503.500	66.723	0.100
503.600	73.507	0.100
503.700	79.885	0.100
503.800	89.517	0.100
503.900	81.090	0.100
504.000	73.580	0.100
504.100	79.479	0.100
504.200	68.370	0.100
504.300	83.149	0.100
504.400	87.595	0.100
504.500	82.847	0.100
504.600	73.261	0.100
504.700	65.995	0.100
504.800	77.781	0.100
504.900	77.502	0.100
505.000	82.465	0.100
505.100	67.035	0.100
505.200	69.625	0.100
505.300	81.224	0.100
505.400	85.149	0.100
505.500	77.635	0.100
505.600	67.824	0.100
505.700	78.763	0.100
505.800	79.868	0.100
505.900	69.823	0.100
506.000	83.155	0.100
506.100	75.461	0.100
506.200	77.718	0.100
506.300	72.385	0.100
506.400	80.239	0.100
506.500	76.180	0.100
506.600	72.375	0.100
506.700	86.371	0.100
506.800	74.923	0.100
506.900	84.069	0.100
507.000	84.900	0.100
507.100	56.209	0.100
507.200	56.914	0.100
507.300	80.673	0.100
507.400	82.611	0.100
507.500	81.129	0.100
507.600	73.349	0.100
507.700	73.307	0.100
507.800	75.562	0.100
507.900	84.475	0.100
508.000	67.091	0.100
508.100	72.037	0.100
508.200	79.105	0.100
508.300	73.547	0.100
508.400	78.803	0.100
508.500	71.870	0.100
508.600	83.244	0.100
508.700	66.325	0.100
508.800	64.193	0.100
508.900	80.152	0.100
509.000	62.336	0.100
509.100	62.192	0.100
509.200	57.103	0.100
509.300	80.920	0.100
509.400	67.332	0.100
509.500	82.655	0.100
509.600	75.386	0.100
509.700	67.416	0.100
509.800	56.908	0.100
509.900	71.011	0.100
510.000	80.334	0.100
510.100	77.701	0.100
510.200	59.583	0.100
510.300	64.419	0.100
510.400	74.770	0.100
510.500	62.526	0.100
510.600	72.972	0.100
510.700	82.481	0.100
510.800	70.029	0.100
510.900	47.594	0.100
511.000	65.545	0.100
511.100	59.223	0.100
511.200	81.052	0.100
511.300	65.286	0.100
511.400	76.330	0.100
511.500	70.976	0.100
511.600	71.965	0.100
511.700	68.068	0.100
511.800	55.308	0.100
511.900	63.043	0.100
512.000	83.886	0.100
512.100	69.375	0.100
512.200	65.278	0.100
512.300	62.799	0.100
512.400	51.144	0.100
512.500	73.813	0.100
512.600	68.715	0.100
512.700	68.459	0.100
512.800	66.346	0.100
512.900	60.771	0.100
513.000	75.156	0.100
513.100	71.348	0.100
513.200	73.790	0.100
513.300	67.455	0.100
513.400	58.820	0.100
513.500	63.953	0.100
513.600	79.639	0.100
513.700	71.890	0.100
513.800	74.637	0.100
513.900	56.298	0.100
514.000	72.008	0.100
514.100	75.489	0.100
514.200	62.177	0.100
514.300	64.170	0.100
514.400	64.896	0.100
514.500	73.209	0.100
514.600	60.561	0.100
514.700	53.244	0.100
514.800	63.878	0.100
514.900	77.469	0.100
515.000	56.949	0.100
515.100	70.747	0.100
515.200	70.524	0.100
515.300	58.347	0.100
515.400	51.566	0.100
515.500	83.466	0.100
515.600	66.474	0.100
515.700	70.033	0.100
515.800	61.594	0.100
515.900	74.529	0.100
516.000	68.195	0.100
516.100	64.315	0.100
516.200	74.043	0.100
516.300	70.729	0.100
516.400	60.635	0.100
516.500	65.922	0.100
516.600	49.916	0.100
516.700	71.520	0.100
516.800	90.969	0.100
516.900	68.204	0.100
517.000	56.968	0.100
517.100	68.394	0.100
517.200	55.559	0.100
517.300	73.637	0.100
517.400	55.642	0.100
517.500	61.772	0.100
517.600	59.718	0.100
517.700	72.296	0.100
517.800	77.781	0.100
517.900	57.920	0.100
518.000	66.573	0.100
518.100	52.315	0.100
518.200	73.632	0.100
518.300	77.868	0.100
518.400	55.124	0.100
518.500	55.553	0.100
518.600	62.746	0.100
518.700	65.375	0.100
518.800	72.639	0.100
518.900	58.660	0.100
519.000	68.873	0.100
519.100	58.771	0.100
519.200	72.354	0.100
519.300	72.354	0.100
519.400	67.047	0.100
519.500	66.731	0.100
519.600	58.935	0.100
519.700	56.781	0.100
519.800	63.888	0.100
519.900	56.441	0.100
520.000	62.822	0.100
520.100	67.712	0.100
520.200	61.372	0.100
520.300	62.980	0.100
520.400	60.471	0.100
520.500	65.358	0.100
520.600	64.511	0.100
520.700	75.572	0.100
520.800	78.723	0.100
520.900	70.703	0.100
521.000	69.670	0.100
521.100	51.156	0.100
521.200	77.387	0.100
521.300	53.467	0.100
521.400	48.120	0.100
521.500	63.785	0.100
521.600	53.076	0.100
521.700	62.240	0.100
521.800	73.700	0.100
521.900	55.973	0.100
522.000	60.618	0.100
522.100	59.819	0.100
522.200	70.902	0.100
522.300	67.904	0.100
522.400	49.305	0.100
522.500	47.824	0.100
522.600	62.165	0.100
522.700	44.004	0.100
522.800	70.432	0.100
522.900	68.260	0.100
523.000	61.049	0.100
523.100	53.949	0.100
523.200	66.972	0.100
523.300	41.537	0.100
523.400	70.090	0.100
523.500	57.143	0.100
523.600	80.836	0.100
523.700	57.647	0.100
523.800	56.094	0.100
523.900	65.187	0.100
524.000	63.215	0.100
524.100	49.251	0.100
524.200	55.271	0.100
524.300	59.103	0.100
524.400	61.990	0.100
524.500	69.409	0.100
524.600	39.670	0.100
524.700	65.534	0.100
524.800	41.379	0.100
524.900	55.864	0.100
525.000	52.104	0.100
525.100	67.712	0.100
525.200	61.392	0.100
525.300	73.649	0.100
525.400	67.470	0.100
525.500	60.287	0.100
525.600	56.690	0.100
525.700	55.323	0.100
525.800	53.557	0.100
525.900	53.151	0.100
526.000	72.021	0.100
526.100	63.425	0.100
526.200	65.324	0.100
526.300	63.109	0.100
526.400	69.331	0.100
526.500	75.630	0.100
526.600	62.066	0.100
526.700	68.214	0.100
526.800	61.511	0.100
526.900	65.083	0.100
527.000	53.738	0.100
527.100	57.209	0.100
527.200	51.734	0.100
527.300	53.652	0.100
527.400	49.314	0.100
527.500	43.366	0.100
527.600	53.459	0.100
527.700	59.194	0.100
527.800	56.241	0.100
527.900	62.910	0.100
528.000	53.031	0.100
528.100	62.299	0.100
528.200	62.224	0.100
528.300	58.019	0.100
528.400	48.396	0.100
528.500	61.372	0.100
528.600	51.560	0.100
528.700	68.722	0.100
528.800	56.280	0.100
528.900	54.359	0.100
529.000	61.490	0.100
529.100	62.359	0.100
529.200	55.685	0.100
529.300	55.210	0.100
529.400	55.065	0.100
529.500	47.281	0.100
529.600	56.827	0.100
529.700	42.405	0.100
529.800	73.562	0.100
529.900	55.139	0.100
530.000	59.030	0.100
530.100	33.112	0.100
530.200	56.575	0.100
530.300	61.522	0.100
530.400	66.084	0.100
530.500	50.779	0.100
530.600	63.636	0.100
530.700	54.581	0.100
530.800	45.606	0.100
530.900	82.405	0.100
531.000	66.271	0.100
531.100	54.360	0.100
531.200	66.310	0.100
531.300	51.356	0.100
531.400	53.214	0.100
531.500	54.782	0.100
531.600	61.369	0.100
531.700	57.437	0.100
531.800	55.990	0.100
531.900	51.224	0.100
532.000	61.426	0.100
532.100	55.436	0.100
532.200	52.332	0.100
532.300	51.903	0.100
532.400	55.398	0.100
532.500	49.616	0.100
532.600	56.670	0.100
532.700	54.287	0.100
532.800	60.314	0.100
532.900	53.007	0.100
533.000	66.276	0.100
533.100	48.811	0.100
533.200	51.889	0.100
533.300	56.595	0.100
533.400	61.616	0.100
533.500	62.315	0.100
533.600	57.708	0.100
533.700	53.319	0.100
533.800	54.549	0.100
533.900	70.202	0.100
534.000	30.511	0.100
534.100	70.582	0.100
534.200	65.887	0.100
534.300	52.910	0.100
534.400	69.716	0.100
534.500	56.284	0.100
534.600	52.832	0.100
534.700	59.960	0.100
534.800	66.360	0.100
534.900	50.870	0.100
535.000	59.223	0.100
535.100	52.487	0.100
535.200	47.563	0.100
535.300	50.537	0.100
535.400	65.952	0.100
535.500	58.567	0.100
535.600	68.269	0.100
535.700	62.476	0.100
535.800	45.206	0.100
535.900	50.131	0.100
536.000	68.588	0.100
536.100	70.015	0.100
536.200	51.569	0.100
536.300	51.575	0.100
536.400	64.916	0.100
536.500	41.234	0.100
536.600	64.415	0.100
536.700	62.603	0.100
536.800	67.945	0.100
536.900	41.249	0.100
537.000	47.474	0.100
537.100	49.990	0.100
537.200	56.609	0.100
537.300	46.131	0.100
537.400	53.376	0.100
537.500	47.358	0.100
537.600	52.841	0.100
537.700	67.179	0.100
537.800	48.212	0.100
537.900	42.731	0.100
538.000	71.882	0.100
538.100	57.730	0.100
538.200	51.915	0.100
538.300	53.859	0.100
538.400	64.778	0.100
538.500	50.441	0.100
538.600	49.026	0.100
538.700	58.297	0.100
538.800	36.002	0.100
538.900	69.159	0.100
539.000	49.443	0.100
539.100	56.784	0.100
539.200	66.112	0.100
539.300	50.496	0.100
539.400	59.151	0.100
539.500	52.948	0.100
539.600	62.131	0.100
539.700	38.614	0.100
539.800	68.634	0.100
539.900	71.782	0.100
540.000	57.442	0.100
540.100	42.069	0.100
540.200	53.989	0.100
540.300	58.879	0.100
540.400	54.664	0.100
540.500	58.095	0.100
540.600	54.667	0.100
540.700	42.629	0.100
540.800	36.811	0.100
540.900	40.877	0.100
541.000	45.806	0.100
541.100	29.807	0.100
541.200	27.422	0.100
541.300	18.666	0.100
541.400	18.451	0.100
541.500	37.545	0.100
541.600	15.039	0.100
541.700	20.985	0.100
541.800	18.673	0.100
541.900	11.426	0.100
542.000	7.167	0.100
542.100	5.535	0.100
542.200	-13.023	0.100
542.300	-10.567	0.100
542.400	0.511	0.100
542.500	-18.381	0.100
542.600	-3.662	0.100
542.700	-25.975	0.100
542.800	-14.075	0.100
542.900	-17.785	0.100
543.000	-30.539	0.100
543.100	-32.231	0.100
543.200	-16.215	0.100
543.300	-12.355	0.100
543.400	-15.340	0.100
543.500	-11.860	0.100
543.600	-38.748	0.100
543.700	-20.912	0.100
543.800	-33.718	0.100
543.900	-27.151	0.100
544.000	-35.206	0.100
544.100	-36.785	0.100
544.200	-14.182	0.100
544.300	-24.973	0.100
544.400	-42.686	0.100
544.500	-27.727	0.100
544.600	-32.029	0.100
544.700	-30.465	0.100
544.800	-30.769	0.100
544.900	-50.360	0.100
545.000	-42.212	0.100
545.100	-37.199	0.100
545.200	-49.841	0.100
545.300	-44.436	0.100
545.400	-25.123	0.100
545.500	-26.190	0.100
545.600	-38.574	0.100
545.700	-59.611	0.100
545.800	-37.684	0.100
545.900	-32.804	0.100
546.000	-42.108	0.100
546.100	-39.345	0.100
546.200	-35.260	0.100
546.300	-39.330	0.100
546.400	-38.447	0.100
546.500	-45.431	0.100
546.600	-45.580	0.100
546.700	-37.581	0.100
546.800	-39.955	0.100
546.900	-39.230	0.100
547.000	-50.012	0.100
547.100	-49.972	0.100
547.200	-31.498	0.100
547.300	-32.386	0.100
547.400	-28.167	0.100
547.500	-40.192	0.100
547.600	-56.916	0.100
547.700	-53.234	0.100
547.800	-38.393	0.100
547.900	-31.857	0.100
548.000	-34.546	0.100
548.100	-25.305	0.100
548.200	-30.848	0.100
548.300	-45.626	0.100
548.400	-42.512	0.100
548.500	-34.967	0.100
548.600	-44.778	0.100
548.700	-47.151	0.100
548.800	-38.341	0.100
548.900	-41.156	0.100
549.000	-20.279	0.100
549.100	-24.165	0.100
549.200	-28.897	0.100
549.300	-30.559	0.100
549.400	-44.453	0.100
549.500	-40.529	0.100
549.600	-28.290	0.100
549.700	-40.492	0.100
549.800	-22.803	0.100
549.900	-38.229	0.100
550.000	-18.122	0.100
550.100	-24.169	0.100
550.200	-25.829	0.100
550.300	-27.663	0.100
550.400	-29.059	0.100
550.500	-46.584	0.100
550.600	-37.909	0.100
550.700	-26.285	0.100
550.800	-35.084	0.100
550.900	-43.233	0.100
551.000	-20.199	0.100
551.100	-16.236	0.100
551.200	-23.049	0.100
551.300	-32.636	0.100
551.400	-29.463	0.100
551.500	-25.584	0.100
551.600	-23.165	0.100
551.700	-37.777	0.100
551.800	-44.193	0.100
551.900	-39.456	0.100
552.000	-22.557	0.100
552.100	-17.947	0.100
552.200	-10.860	0.100
552.300	-18.412	0.100
552.400	-12.677	0.100
552.500	-29.907	0.100
552.600	-32.590	0.100
552.700	-38.976	0.100
552.800	-40.972	0.100
552.900	-17.075	0.100
553.000	-23.743	0.100
553.100	-26.420	0.100
553.200	-9.752	0.100
553.300	-32.530	0.100
553.400	-23.720	0.100
553.500	-24.733	0.100
553.600	-18.773	0.100
553.700	-39.821	0.100
553.800	-40.330	0.100
553.900	-38.608	0.100
554.000	-17.676	0.100
554.100	-24.793	0.100
554.200	-24.419	0.100
554.300	-27.514	0.100
554.400	-26.766	0.100
554.500	-20.135	0.100
554.600	-22.042	0.100
554.700	-31.182	0.100
554.800	-20.823	0.100
554.900	-28.386	0.100
555.000	-27.410	0.100
555.100	-28.727	0.100
555.200	-10.232	0.100
555.300	-30.802	0.100
555.400	-21.884	0.100
555.500	-38.723	0.100
555.600	-31.074	0.100
555.700	-25.422	0.100
555.800	-34.900	0.100
555.900	-44.626	0.100
556.000	-23.605	0.100
556.100	-18.766	0.100
556.200	-30.401	0.100
556.300	-31.313	0.100
556.400	-31.428	0.100
556.500	-18.399	0.100
556.600	-23.394	0.100
556.700	-31.889	0.100
556.800	-18.097	0.100
556.900	-31.491	0.100
557.000	-17.545	0.100
557.100	-28.498	0.100
557.200	-23.446	0.100
557.300	-35.354	0.100
557.400	-20.593	0.100
557.500	-37.274	0.100
557.600	-32.590	0.100
557.700	-30.942	0.100
557.800	-19.060	0.100
557.900	-20.844	0.100
558.000	-34.668	0.100
558.100	-33.186	0.100
558.200	-32.766	0.100
558.300	-30.204	0.100
558.400	-19.898	0.100
558.500	-20.227	0.100
558.600	-16.520	0.100
558.700	-39.381	0.100
558.800	-33.954	0.100
558.900	-23.286	0.100
559.000	-32.427	0.100
559.100	-22.420	0.100
559.200	-37.540	0.100
559.300	-14.421	0.100
559.400	-25.492	0.100
559.500	-29.536	0.100
559.600	-37.955	0.100
559.700	-29.728	0.100
559.800	-39.716	0.100
559.900	-35.107	0.100
560.000	-26.852	0.100
560.100	-17.688	0.100
560.200	-11.112	0.100
560.300	-39.879	0.100
560.400	-21.140	0.100
560.500	-22.227	0.100
560.600	-29.706	0.100
560.700	-40.888	0.100
560.800	-37.966	0.100
560.900	-26.758	0.100
561.000	-31.573	0.100
561.100	-36.500	0.100
561.200	-32.735	0.100
561.300	-30.559	0.100
561.400	-31.420	0.100
561.500	-38.110	0.100
561.600	-23.016	0.100
561.700	-35.285	0.100
561.800	-29.357	0.100
561.900	-12.773	0.100
562.000	-26.469	0.100
562.100	-37.877	0.100
562.200	-32.835	0.100
562.300	-18.470	0.100
562.400	-33.253	0.100
562.500	-32.858	0.100
562.600	-35.804	0.100
562.700	-32.462	0.100
562.800	-33.942	0.100
562.900	-41.199	0.100
563.000	-39.844	0.100
563.100	-36.715	0.100
563.200	-35.714	0.100
563.300	-24.933	0.100
563.400	-14.386	0.100
563.500	-13.175	0.100
563.600	-25.396	0.100
563.700	-26.498	0.100
563.800	-35.317	0.100
563.900	-29.993	0.100
564.000	-44.922	0.100
564.100	-34.354	0.100
564.200	-10.538	0.100
564.300	-38.398	0.100
564.400	-18.928	0.100
564.500	-43.083	0.100
564.600	-30.427	0.100
564.700	-19.216	0.100
564.800	-24.411	0.100
564.900	-28.607	0.100
565.000	-24.827	0.100
565.100	-53.758	0.100
565.200	-36.911	0.100
565.300	-27.004	0.100
565.400	-26.715	0.100
565.500	-32.245	0.100
565.600	-35.640	0.100
565.700	-20.858	0.100
565.800	-27.730	0.100
565.900	-33.657	0.100
566.000	-33.416	0.100
566.100	-50.027	0.100
566.200	-35.259	0.100
566.300	-36.221	0.100
566.400	-35.091	0.100
566.500	-28.739	0.100
566.600	-27.536	0.100
566.700	-20.873	0.100
566.800	-38.767	0.100
566.900	-22.688	0.100
567.000	-37.460	0.100
567.100	-20.443	0.100
567.200	-44.016	0.100
567.300	-36.272	0.100
567.400	-24.569	0.100
567.500	-33.833	0.100
567.600	-49.996	0.100
567.700	-29.938	0.100
567.800	-30.089	0.100
567.900	-31.279	0.100
568.000	-31.776	0.100
568.100	-26.493	0.100
568.200	-38.706	0.100
568.300	-45.194	0.100
568.400	-17.449	0.100
568.500	-34.567	0.100
568.600	-25.944	0.100
568.700	-29.561	0.100
568.800	-31.607	0.100
568.900	-28.794	0.100
569.000	-34.423	0.100
569.100	-34.274	0.100
569.200	-36.738	0.100
569.300	-31.285	0.100
569.400	-44.404	0.100
569.500	-39.014	0.100
569.600	-27.646	0.100
569.700	-24.393	0.100
569.800	-37.786	0.100
569.900	-37.466	0.100
570.000	-39.359	0.100
570.100	-47.436	0.100
570.200	-31.871	0.100
570.300	-26.952	0.100
570.400	-44.616	0.100
570.500	-49.765	0.100
570.600	-36.555	0.100
570.700	-36.506	0.100
570.800	-26.921	0.100
570.900	-49.366	0.100
571.000	-29.909	0.100
571.100	-36.348	0.100
571.200	-28.684	0.100
571.300	-36.309	0.100
571.400	-30.103	0.100
571.500	-29.170	0.100
571.600	-29.337	0.100
571.700	-30.073	0.100
571.800	-44.462	0.100
571.900	-30.949	0.100
572.000	-35.312	0.100
572.100	-37.138	0.100
572.200	-39.013	0.100
572.300	-38.151	0.100
572.400	-27.047	0.100
572.500	-42.253	0.100
572.600	-47.488	0.100
572.700	-35.214	0.100
572.800	-36.001	0.100
572.900	-33.270	0.100
573.000	-41.659	0.100
573.100	-26.921	0.100
573.200	-33.894	0.100
573.300	-38.554	0.100
573.400	-26.788	0.100
573.500	-40.995	0.100
573.600	-33.020	0.100
573.700	-41.767	0.100
573.800	-36.069	0.100
573.900	-29.912	0.100
574.000	-33.356	0.100
574.100	-33.549	0.100
574.200	-40.244	0.100
574.300	-29.081	0.100
574.400	-37.343	0.100
574.500	-50.084	0.100
574.600	-39.658	0.100
574.700	-35.919	0.100
574.800	-35.737	0.100
574.900	-47.025	0.100
575.000	-60.399	0.100
575.100	-47.232	0.100
575.200	-30.048	0.100
575.300	-27.686	0.100
575.400	-30.404	0.100
575.500	-31.836	0.100
575.600	-45.502	0.100
575.700	-32.328	0.100
575.800	-31.098	0.100
575.900	-48.752	0.100
576.000	-44.729	0.100
576.100	-22.517	0.100
576.200	-38.387	0.100
576.300	-45.442	0.100
576.400	-37.814	0.100
576.500	-42.811	0.100
576.600	-22.649	0.100
576.700	-29.288	0.100
576.800	-33.841	0.100
576.900	-42.069	0.100
577.000	-44.761	0.100
577.100	-40.559	0.100
577.200	-29.079	0.100
577.300	-40.020	0.100
577.400	-45.030	0.100
577.500	-37.849	0.100
577.600	-33.485	0.100
577.700	-47.019	0.100
577.800	-40.162	0.100
577.900	-27.741	0.100
578.000	-32.663	0.100
578.100	-28.357	0.100
578.200	-27.102	0.100
578.300	-28.969	0.100
578.400	-42.289	0.100
578.500	-34.189	0.100
578.600	-43.687	0.100
578.700	-45.561	0.100
578.800	-48.779	0.100
578.900	-33.552	0.100
579.000	-24.756	0.100
579.100	-42.882	0.100
579.200	-33.716	0.100
579.300	-36.483	0.100
579.400	-39.834	0.100
579.500	-36.312	0.100
579.600	-35.324	0.100
579.700	-30.828	0.100
579.800	-31.980	0.100
579.900	-63.653	0.100
580.000	-42.295	0.100
580.100	-39.112	0.100
580.200	-39.238	0.100
580.300	-29.067	0.100
580.400	-44.803	0.100
580.500	-38.151	0.100
580.600	-31.730	0.100
580.700	-32.901	0.100
580.800	-43.602	0.100
580.900	-37.581	0.100
581.000	-39.181	0.100
581.100	-33.077	0.100
581.200	-35.045	0.100
581.300	-39.900	0.100
581.400	-34.862	0.100
581.500	-44.329	0.100
581.600	-50.124	0.100
581.700	-35.188	0.100
581.800	-26.971	0.100
581.900	-27.730	0.100
582.000	-51.305	0.100
582.100	-46.917	0.100
582.200	-55.099	0.100
582.300	-37.441	0.100
582.400	-40.196	0.100
582.500	-32.999	0.100
582.600	-29.990	0.100
582.700	-34.751	0.100
582.800	-37.900	0.100
582.900	-44.839	0.100
583.000	-39.252	0.100
583.100	-42.612	0.100
583.200	-35.374	0.100
583.300	-38.033	0.100
583.400	-37.918	0.100
583.500	-27.979	0.100
583.600	-39.120	0.100
583.700	-36.723	0.100
583.800	-44.312	0.100
583.900	-39.778	0.100
584.000	-47.137	0.100
584.100	-39.399	0.100
584.200	-35.377	0.100
584.300	-34.518	0.100
584.400	-36.724	0.100
584.500	-28.955	0.100
584.600	-31.694	0.100
584.700	-32.271	0.100
584.800	-40.382	0.100
584.900	-43.894	0.100
585.000	-26.925	0.100
585.100	-35.777	0.100
585.200	-24.785	0.100
585.300	-32.674	0.100
585.400	-43.244	0.100
585.500	-38.478	0.100
585.600	-40.279	0.100
585.700	-39.612	0.100
585.800	-43.602	0.100
585.900	-33.571	0.100
586.000	-25.875	0.100
586.100	-40.909	0.100
586.200	-51.922	0.100
586.300	-44.798	0.100
586.400	-38.973	0.100
586.500	-32.872	0.100
586.600	-25.704	0.100
586.700	-38.004	0.100
586.800	-44.439	0.100
586.900	-38.481	0.100
587.000	-38.387	0.100
587.100	-43.121	0.100
587.200	-34.549	0.100
587.300	-23.827	0.100
587.400	-31.561	0.100
587.500	-43.914	0.100
587.600	-33.388	0.100
587.700	-36.309	0.100
587.800	-29.499	0.100
587.900	-26.892	0.100
588.000	-37.032	0.100
588.100	-42.321	0.100
588.200	-49.199	0.100
588.300	-41.574	0.100
588.400	-30.750	0.100
588.500	-31.394	0.100
588.600	-45.194	0.100
588.700	-42.374	0.100
588.800	-33.476	0.100
588.900	-29.078	0.100
589.000	-17.323	0.100
589.100	-45.370	0.100
589.200	-44.626	0.100
589.300	-32.932	0.100
589.400	-41.274	0.100
589.500	-40.676	0.100
589.600	-45.906	0.100
589.700	-38.102	0.100
589.800	-32.127	0.100
589.900	-37.510	0.100
590.000	-39.365	0.100
590.100	-44.243	0.100
590.200	-38.933	0.100
590.300	-32.476	0.100
590.400	-43.572	0.100
590.500	-39.983	0.100
590.600	-24.999	0.100
590.700	-46.725	0.100
590.800	-21.625	0.100
590.900	-45.335	0.100
591.000	-40.845	0.100
591.100	-28.737	0.100
591.200	-21.129	0.100
591.300	-38.597	0.100
591.400	-48.604	0.100
591.500	-45.065	0.100
591.600	-33.471	0.100
591.700	-47.957	0.100
591.800	-38.163	0.100
591.900	-32.847	0.100
592.000	-29.291	0.100
592.100	-43.837	0.100
592.200	-32.936	0.100
592.300	-33.330	0.100
592.400	-33.741	0.100
592.500	-46.250	0.100
592.600	-36.296	0.100
592.700	-30.177	0.100
592.800	-42.178	0.100
592.900	-39.880	0.100
593.000	-30.775	0.100
593.100	-30.137	0.100
593.200	-30.056	0.100
593.300	-38.199	0.100
593.400	-42.994	0.100
593.500	-32.127	0.100
593.600	-38.896	0.100
593.700	-31.138	0.100
593.800	-45.118	0.100
593.900	-19.990	0.100
594.000	-28.702	0.100
594.100	-29.229	0.100
594.200	-30.197	0.100
594.300	-38.459	0.100
594.400	-40.662	0.100
594.500	-32.833	0.100
594.600	-30.571	0.100
594.700	-42.327	0.100
594.800	-38.553	0.100
594.900	-39.496	0.100
595.000	-45.701	0.100
595.100	-37.129	0.100
595.200	-26.867	0.100
595.300	-38.024	0.100
595.400	-33.980	0.100
595.500	-33.908	0.100
595.600	-40.540	0.100
595.700	-6.956	0.100
595.800	-45.643	0.100
595.900	-51.770	0.100
596.000	-29.226	0.100
596.100	-25.653	0.100
596.200	-51.627	0.100
596.300	-36.937	0.100
596.400	-21.113	0.100
596.500	-20.142	0.100
596.600	-34.464	0.100
596.700	-26.743	0.100
596.800	-41.321	0.100
596.900	-34.576	0.100
597.000	-26.653	0.100
597.100	-23.867	0.100
597.200	-38.045	0.100
597.300	-26.389	0.100
597.400	-47.309	0.100
597.500	-42.263	0.100
597.600	-35.030	0.100
597.700	-42.076	0.100
597.800	-43.613	0.100
597.900	-34.463	0.100
598.000	-23.059	0.100
598.100	-34.094	0.100
598.200	-31.449	0.100
598.300	-33.272	0.100
598.400	-40.305	0.100
598.500	-20.843	0.100
598.600	-31.319	0.100
598.700	-24.891	0.100
598.800	-42.686	0.100
598.900	-17.395	0.100
599.000	-29.242	0.100
599.100	-29.990	0.100
599.200	-35.426	0.100
599.300	-39.644	0.100
599.400	-33.134	0.100
599.500	-27.059	0.100
599.600	-28.178	0.100
599.700	-27.683	0.100
599.800	-46.262	0.100
599.900	-28.937	0.100
600.000	-45.279	0.100
600.100	-14.631	0.100
600.200	-25.276	0.100
600.300	-30.310	0.100
600.400	-31.500	0.100
600.500	-45.095	0.100
600.600	-30.166	0.100
600.700	-26.308	0.100
600.800	-36.460	0.100
600.900	-35.346	0.100
601.000	-31.074	0.100
601.100	-34.040	0.100
601.200	-30.583	0.100
601.300	-28.932	0.100
601.400	-41.703	0.100
601.500	-39.722	0.100
601.600	-27.333	0.100
601.700	-42.322	0.100
601.800	-26.084	0.100
601.900	-38.349	0.100
602.000	-9.076	0.100
602.100	-23.714	0.100
602.200	-31.624	0.100
602.300	-46.368	0.100
602.400	-29.211	0.100
602.500	-31.567	0.100
602.600	-27.309	0.100
602.700	-33.680	0.100
602.800	-31.317	0.100
602.900	-32.600	0.100
603.000	-45.744	0.100
603.100	-37.164	0.100
603.200	-40.239	0.100
603.300	-52.650	0.100
603.400	-45.474	0.100
603.500	-23.162	0.100
603.600	-21.534	0.100
603.700	-22.794	0.100
603.800	-35.288	0.100
603.900	-22.150	0.100
604.000	-37.817	0.100
604.100	-35.401	0.100
604.200	-36.252	0.100
604.300	-36.082	0.100
604.400	-24.143	0.100
604.500	-15.899	0.100
604.600	-22.084	0.100
604.700	-32.065	0.100
604.800	-28.652	0.100
604.900	-32.979	0.100
605.000	-30.792	0.100
605.100	-29.792	0.100
605.200	-34.405	0.100
605.300	-32.182	0.100
605.400	-30.859	0.100
605.500	-36.367	0.100
605.600	-25.874	0.100
605.700	-18.413	0.100
605.800	-20.515	0.100
605.900	-38.630	0.100
606.000	-32.981	0.100
606.100	-25.857	0.100
606.200	-35.380	0.100
606.300	-30.146	0.100
606.400	-31.159	0.100
606.500	-30.047	0.100
606.600	-34.514	0.100
606.700	-7.387	0.100
606.800	-51.374	0.100
606.900	-30.474	0.100
607.000	-35.190	0.100
607.100	-23.231	0.100
607.200	-18.945	0.100
607.300	-26.591	0.100
607.400	-31.914	0.100
607.500	-31.308	0.100
607.600	-35.081	0.100
607.700	-11.378	0.100
607.800	-31.371	0.100
607.900	-40.599	0.100
608.000	-19.682	0.100
608.100	-41.951	0.100
608.200	-34.589	0.100
608.300	-35.188	0.100
608.400	-25.829	0.100
608.500	-32.820	0.100
608.600	-28.960	0.100
608.700	-23.556	0.100
608.800	-30.853	0.100
608.900	-23.478	0.100
609.000	-26.708	0.100
609.100	-28.382	0.100
609.200	-26.873	0.100
609.300	-28.524	0.100
609.400	-21.628	0.100
609.500	-22.340	0.100
609.600	-41.806	0.100
609.700	-27.960	0.100
609.800	-35.856	0.100
609.900	-28.307	0.100
610.000	-44.459	0.100
610.100	-29.312	0.100
610.200	-24.516	0.100
610.300	-12.571	0.100
610.400	-38.406	0.100
610.500	-39.174	0.100
610.600	-26.102	0.100
610.700	-24.525	0.100
610.800	-32.179	0.100
610.900	-25.454	0.100
611.000	-36.597	0.100
611.100	-21.411	0.100
611.200	-15.864	0.100
611.300	-22.345	0.100
611.400	-24.021	0.100
611.500	-38.790	0.100
611.600	-30.195	0.100
611.700	-30.024	0.100
611.800	-34.981	0.100
611.900	-41.130	0.100
612.000	-32.991	0.100
612.100	-29.643	0.100
612.200	-21.632	0.100
612.300	-28.839	0.100
612.400	-41.073	0.100
612.500	-23.947	0.100
612.600	-18.412	0.100
612.700	-15.977	0.100
612.800	-30.358	0.100
612.900	-21.595	0.100
613.000	-24.511	0.100
613.100	-16.826	0.100
613.200	-16.350	0.100
613.300	-11.202	0.100
613.400	-41.746	0.100
613.500	-56.329	0.100
613.600	-28.983	0.100
613.700	-34.049	0.100
613.800	-17.216	0.100
613.900	-15.904	0.100
614.000	-19.960	0.100
614.100	-23.090	0.100
614.200	-40.532	0.100
614.300	-35.505	0.100
614.400	-32.415	0.100
614.500	-32.366	0.100
614.600	-22.701	0.100
614.700	-17.332	0.100
614.800	-24.336	0.100
614.900	-29.058	0.100
615.000	-26.551	0.100
615.100	-35.557	0.100
615.200	-35.426	0.100
615.300	-25.112	0.100
615.400	-23.181	0.100
615.500	-24.937	0.100
615.600	-19.669	0.100
615.700	-41.430	0.100
615.800	-28.374	0.100
615.900	-15.729	0.100
616.000	-35.955	0.100
616.100	-17.590	0.100
616.200	-30.930	0.100
616.300	-28.412	0.100
616.400	-42.197	0.100
616.500	-20.017	0.100
616.600	-21.910	0.100
616.700	-31.383	0.100
616.800	-27.808	0.100
616.900	-24.059	0.100
617.000	-23.582	0.100
617.100	-26.783	0.100
617.200	-23.670	0.100
617.300	-22.382	0.100
617.400	-34.282	0.100
617.500	-22.589	0.100
617.600	-24.666	0.100
617.700	-42.086	0.100
617.800	-20.965	0.100
617.900	-21.091	0.100
618.000	-27.986	0.100
618.100	-34.754	0.100
618.200	-11.331	0.100
618.300	-24.177	0.100
618.400	-32.328	0.100
618.500	-16.865	0.100
618.600	-24.881	0.100
618.700	-18.327	0.100
618.800	-18.369	0.100
618.900	-29.229	0.100
619.000	-29.735	0.100
619.100	-37.543	0.100
619.200	-23.522	0.100
619.300	-19.773	0.100
619.400	-40.224	0.100
619.500	-19.432	0.100
619.600	-13.963	0.100
619.700	-30.309	0.100
619.800	-29.115	0.100
619.900	-35.196	0.100
620.000	-12.576	0.100
620.100	-3.297	0.100
620.200	-33.684	0.100
620.300	-27.237	0.100
620.400	-13.391	0.100
620.500	-12.707	0.100
620.600	-37.041	0.100
620.700	-27.269	0.100
620.800	-18.727	0.100
620.900	-38.996	0.100
621.000	-32.861	0.100
621.100	-31.886	0.100
621.200	-19.264	0.100
621.300	-21.106	0.100
621.400	-14.441	0.100
621.500	-37.970	0.100
621.600	-30.724	0.100
621.700	-24.779	0.100
621.800	-27.756	0.100
621.900	-23.243	0.100
622.000	-26.864	0.100
622.100	-20.561	0.100
622.200	-22.941	0.100
622.300	-25.225	0.100
622.400	-38.418	0.100
622.500	-14.389	0.100
622.600	-32.458	0.100
622.700	-27.534	0.100
622.800	-21.001	0.100
622.900	-23.807	0.100
623.000	-37.411	0.100
623.100	-24.743	0.100
623.200	-37.147	0.100
623.300	-20.995	0.100
623.400	-28.642	0.100
623.500	-18.945	0.100
623.600	-17.361	0.100
623.700	-14.063	0.100
623.800	-20.892	0.100
623.900	-39.203	0.100
624.000	-36.060	0.100
624.100	-26.930	0.100
624.200	-19.201	0.100
624.300	-21.301	0.100
624.400	-15.970	0.100
624.500	-32.783	0.100
624.600	-28.917	0.100
624.700	-46.654	0.100
624.800	-22.391	0.100
624.900	-14.495	0.100
625.000	-24.775	0.100
625.100	-39.750	0.100
625.200	-28.642	0.100
625.300	-13.551	0.100
625.400	-30.319	0.100
625.500	-31.923	0.100
625.600	-11.729	0.100
625.700	-23.394	0.100
625.800	-30.674	0.100
625.900	-12.776	0.100
626.000	-30.928	0.100
626.100	-25.052	0.100
626.200	-27.821	0.100
626.300	-39.466	0.100
626.400	-26.018	0.100
626.500	-12.516	0.100
626.600	-20.783	0.100
626.700	-40.527	0.100
626.800	-17.906	0.100
626.900	-21.016	0.100
627.000	-23.771	0.100
627.100	-27.056	0.100
627.200	-31.457	0.100
627.300	-19.057	0.100
627.400	-32.634	0.100
627.500	-16.209	0.100
627.600	-10.986	0.100
627.700	-15.868	0.100
627.800	-21.332	0.100
627.900	-3.498	0.100
628.000	-24.933	0.100
628.100	-24.859	0.100
628.200	-20.812	0.100
628.300	-24.349	0.100
628.400	1.437	0.100
628.500	-24.718	0.100
628.600	-34.164	0.100
628.700	-22.669	0.100
628.800	-21.534	0.100
628.900	-26.676	0.100
629.000	-12.806	0.100
629.100	-28.777	0.100
629.200	-25.314	0.100
629.300	-23.403	0.100
629.400	-26.864	0.100
629.500	-21.411	0.100
629.600	-26.187	0.100
629.700	-31.127	0.100
629.800	-14.472	0.100
629.900	-21.146	0.100
630.000	-19.134	0.100
630.100	-29.288	0.100
630.200	-23.538	0.100
630.300	-22.327	0.100
630.400	-26.047	0.100
630.500	-27.701	0.100
630.600	-12.562	0.100
630.700	-12.576	0.100
630.800	-14.886	0.100
630.900	-10.013	0.100
631.000	-10.350	0.100
631.100	-1.497	0.100
631.200	-1.262	0.100
631.300	-2.656	0.100
631.400	3.595	0.100
631.500	16.178	0.100
631.600	20.173	0.100
631.700	34.101	0.100
631.800	26.455	0.100
631.900	51.855	0.100
632.000	38.402	0.100
632.100	38.776	0.100
632.200	40.397	0.100
632.300	37.688	0.100
632.400	36.768	0.100
632.500	33.288	0.100
632.600	43.395	0.100
632.700	45.152	0.100
632.800	36.154	0.100
632.900	62.408	0.100
633.000	46.875	0.100
633.100	28.575	0.100
633.200	43.538	0.100
633.300	65.022	0.100
633.400	45.992	0.100
633.500	23.343	0.100
633.600	62.094	0.100
633.700	49.476	0.100
633.800	37.037	0.100
633.900	48.535	0.100
634.000	67.076	0.100
634.100	32.245	0.100
634.200	61.593	0.100
634.300	60.425	0.100
634.400	71.125	0.100
634.500	55.824	0.100
634.600	45.839	0.100
634.700	26.426	0.100
634.800	33.732	0.100
634.900	40.024	0.100
635.000	58.873	0.100
635.100	53.727	0.100
635.200	43.178	0.100
635.300	39.298	0.100
635.400	54.665	0.100
635.500	37.319	0.100
635.600	40.222	0.100
635.700	57.679	0.100
635.800	55.585	0.100
635.900	40.538	0.100
636.000	36.580	0.100
636.100	31.326	0.100
636.200	51.302	0.100
636.300	35.016	0.100
636.400	27.663	0.100
636.500	43.679	0.100
636.600	29.238	0.100
636.700	52.642	0.100
636.800	42.331	0.100
636.900	37.897	0.100
637.000	33.359	0.100
637.100	28.103	0.100
637.200	39.394	0.100
637.300	39.727	0.100
637.400	42.952	0.100
637.500	23.977	0.100
637.600	31.309	0.100
637.700	50.250	0.100
637.800	47.203	0.100
637.900	49.990	0.100
638.000	41.080	0.100
638.100	37.935	0.100
638.200	39.699	0.100
638.300	39.592	0.100
638.400	35.064	0.100
638.500	53.721	0.100
638.600	53.094	0.100
638.700	44.369	0.100
638.800	42.678	0.100
638.900	27.939	0.100
639.000	46.875	0.100
639.100	38.511	0.100
639.200	66.101	0.100
639.300	55.679	0.100
639.400	46.239	0.100
639.500	45.825	0.100
639.600	41.379	0.100
639.700	47.203	0.100
639.800	51.596	0.100
639.900	33.874	0.100
640.000	35.898	0.100
640.100	61.406	0.100
640.200	50.183	0.100
640.300	41.654	0.100
640.400	42.523	0.100
640.500	55.415	0.100
640.600	44.229	0.100
640.700	51.029	0.100
640.800	44.759	0.100
640.900	43.568	0.100
641.000	40.870	0.100
641.100	62.120	0.100
641.200	52.375	0.100
641.300	44.272	0.100
641.400	54.428	0.100
641.500	49.519	0.100
641.600	44.462	0.100
641.700	61.191	0.100
641.800	64.282	0.100
641.900	52.075	0.100
642.000	45.813	0.100
642.100	46.165	0.100
642.200	45.170	0.100
642.300	58.351	0.100
642.400	53.346	0.100
642.500	59.707	0.100
642.600	55.853	0.100
642.700	60.498	0.100
642.800	54.034	0.100
642.900	66.244	0.100
643.000	60.389	0.100
643.100	60.980	0.100
643.200	65.243	0.100
643.300	56.211	0.100
643.400	46.337	0.100
643.500	56.828	0.100
643.600	37.527	0.100
643.700	73.128	0.100
643.800	69.219	0.100
643.900	69.543	0.100
644.000	70.898	0.100
644.100	64.767	0.100
644.200	46.029	0.100
644.300	59.979	0.100
644.400	61.315	0.100
644.500	89.834	0.100
644.600	68.025	0.100
644.700	59.152	0.100
644.800	65.810	0.100
644.900	66.958	0.100
645.000	61.277	0.100
645.100	64.907	0.100
645.200	60.828	0.100
645.300	68.365	0.100
645.400	71.425	0.100
645.500	58.021	0.100
645.600	68.148	0.100
645.700	62.747	0.100
645.800	67.012	0.100
645.900	69.933	0.100
646.000	63.356	0.100
646.100	71.217	0.100
646.200	88.197	0.100
646.300	69.398	0.100
646.400	58.507	0.100
646.500	79.375	0.100
646.600	81.457	0.100
646.700	79.133	0.100
646.800	76.815	0.100
646.900	72.126	0.100
647.000	76.035	0.100
647.100	61.068	0.100
647.200	76.435	0.100
647.300	75.096	0.100
647.400	74.095	0.100
647.500	76.614	0.100
647.600	76.373	0.100
647.700	59.339	0.100
647.800	86.966	0.100
647.900	89.672	0.100
648.000	70.744	0.100
648.100	92.488	0.100
648.200	66.722	0.100
648.300	75.953	0.100
648.400	73.586	0.100
648.500	93.015	0.100
648.600	77.705	0.100
648.700	81.756	0.100
648.800	82.117	0.100
648.900	89.261	0.100
649.000	75.932	0.100
649.100	69.044	0.100
649.200	68.260	0.100
649.300	85.088	0.100
649.400	80.578	0.100
649.500	67.435	0.100
649.600	74.295	0.100
649.700	86.394	0.100
649.800	72.828	0.100
649.900	81.688	0.100
650.000	68.819	0.100
650.100	77.060	0.100
650.200	62.092	0.100
650.300	69.547	0.100
650.400	87.644	0.100
650.500	70.392	0.100
650.600	82.436	0.100
650.700	80.275	0.100
650.800	81.959	0.100
650.900	65.502	0.100
651.000	63.395	0.100
651.100	81.493	0.100
651.200	98.928	0.100
651.300	72.374	0.100
651.400	71.106	0.100
651.500	76.389	0.100
651.600	62.463	0.100
651.700	82.902	0.100
651.800	75.927	0.100
651.900	66.420	0.100
652.000	77.753	0.100
652.100	87.345	0.100
652.200	85.445	0.100
652.300	77.390	0.100
652.400	75.008	0.100
652.500	81.417	0.100
652.600	88.134	0.100
652.700	81.492	0.100
652.800	70.979	0.100
652.900	67.919	0.100
653.000	97.044	0.100
653.100	91.300	0.100
653.200	69.058	0.100
653.300	85.248	0.100
653.400	65.542	0.100
653.500	74.071	0.100
653.600	80.071	0.100
653.700	82.496	0.100
653.800	81.740	0.100
653.900	87.621	0.100
654.000	67.407	0.100
654.100	82.168	0.100
654.200	81.383	0.100
654.300	67.594	0.100
654.400	65.246	0.100
654.500	92.977	0.100
654.600	74.141	0.100
654.700	91.629	0.100
654.800	74.154	0.100
654.900	78.086	0.100
655.000	82.261	0.100
655.100	79.271	0.100
655.200	82.928	0.100
655.300	86.489	0.100
655.400	74.641	0.100
655.500	74.342	0.100
655.600	80.023	0.100
655.700	84.363	0.100
655.800	64.229	0.100
655.900	87.288	0.100
656.000	69.871	0.100
656.100	73.872	0.100
656.200	79.566	0.100
656.300	61.171	0.100
656.400	76.895	0.100
656.500	88.372	0.100
656.600	71.614	0.100
656.700	67.258	0.100
656.800	66.720	0.100
656.900	67.695	0.100
657.000	75.256	0.100
657.100	78.749	0.100
657.200	71.379	0.100
657.300	69.130	0.100
657.400	66.665	0.100
657.500	76.335	0.100
657.600	78.797	0.100
657.700	71.945	0.100
657.800	69.046	0.100
657.900	76.042	0.100
658.000	77.572	0.100
658.100	90.622	0.100
658.200	68.034	0.100
658.300	63.235	0.100
658.400	71.644	0.100
658.500	68.653	0.100
658.600	75.256	0.100
658.700	73.951	0.100
658.800	65.557	0.100
658.900	77.718	0.100
659.000	55.021	0.100
659.100	74.376	0.100
659.200	71.135	0.100
659.300	72.884	0.100
659.400	78.257	0.100
659.500	79.778	0.100
659.600	68.624	0.100
659.700	79.383	0.100
659.800	72.791	0.100
659.900	62.276	0.100
660.000	69.823	0.100
660.100	60.863	0.100
660.200	57.728	0.100
660.300	63.710	0.100
660.400	79.025	0.100
660.500	67.879	0.100
660.600	75.897	0.100
660.700	69.185	0.100
660.800	74.302	0.100
660.900	68.287	0.100
661.000	72.172	0.100
661.100	63.314	0.100
661.200	64.809	0.100
661.300	60.405	0.100
661.400	79.464	0.100
661.500	84.984	0.100
661.600	61.985	0.100
661.700	70.452	0.100
661.800	85.505	0.100
661.900	53.861	0.100
662.000	57.719	0.100
662.100	59.405	0.100
662.200	77.029	0.100
662.300	78.024	0.100
662.400	67.228	0.100
662.500	62.698	0.100
662.600	65.402	0.100
662.700	44.897	0.100
662.800	62.276	0.100
662.900	77.994	0.100
663.000	70.475	0.100
663.100	56.976	0.100
663.200	75.684	0.100
663.300	61.177	0.100
663.400	56.554	0.100
663.500	58.702	0.100
663.600	81.567	0.100
663.700	81.893	0.100
663.800	76.720	0.100
663.900	61.009	0.100
664.000	55.389	0.100
664.100	68.244	0.100
664.200	60.835	0.100
664.300	69.170	0.100
664.400	60.233	0.100
664.500	58.019	0.100
664.600	60.693	0.100
664.700	63.771	0.100
664.800	70.665	0.100
664.900	76.792	0.100
665.000	62.571	0.100
665.100	75.559	0.100
665.200	77.433	0.100
665.300	71.482	0.100
665.400	59.813	0.100
665.500	54.339	0.100
665.600	68.732	0.100
665.700	63.288	0.100
665.800	59.453	0.100
665.900	55.432	0.100
666.000	73.389	0.100
666.100	71.138	0.100
666.200	68.755	0.100
666.300	76.012	0.100
666.400	59.257	0.100
666.500	64.393	0.100
666.600	56.361	0.100
666.700	64.148	0.100
666.800	63.527	0.100
666.900	63.524	0.100
667.000	57.164	0.100
667.100	65.422	0.100
667.200	74.503	0.100
667.300	70.594	0.100
667.400	73.846	0.100
667.500	63.828	0.100
667.600	53.040	0.100
667.700	57.179	0.100
667.800	63.802	0.100
667.900	56.605	0.100
668.000	66.011	0.100
668.100	67.288	0.100
668.200	68.146	0.100
668.300	75.631	0.100
668.400	61.904	0.100
668.500	62.135	0.100
668.600	54.015	0.100
668.700	50.591	0.100
668.800	68.675	0.100
668.900	62.811	0.100
669.000	58.472	0.100
669.100	65.315	0.100
669.200	66.058	0.100
669.300	61.767	0.100
669.400	58.761	0.100
669.500	51.201	0.100
669.600	64.679	0.100
669.700	68.195	0.100
669.800	42.667	0.100
669.900	60.415	0.100
670.000	63.081	0.100
670.100	85.008	0.100
670.200	52.328	0.100
670.300	54.687	0.100
670.400	59.568	0.100
670.500	68.138	0.100
670.600	71.292	0.100
670.700	55.528	0.100
670.800	67.337	0.100
670.900	57.708	0.100
671.000	52.524	0.100
671.100	55.666	0.100
671.200	62.194	0.100
671.300	64.142	0.100
671.400	75.654	0.100
671.500	55.838	0.100
671.600	69.967	0.100
671.700	52.590	0.100
671.800	62.166	0.100
671.900	65.772	0.100
672.000	56.595	0.100
672.100	67.928	0.100
672.200	68.810	0.100
672.300	60.822	0.100
672.400	67.140	0.100
672.500	56.330	0.100
672.600	53.949	0.100
672.700	64.820	0.100
672.800	52.450	0.100
672.900	55.896	0.100
673.000	61.320	0.100
673.100	55.590	0.100
673.200	53.549	0.100
673.300	53.910	0.100
673.400	72.809	0.100
673.500	54.448	0.100
673.600	61.205	0.100
673.700	53.572	0.100
673.800	59.272	0.100
673.900	63.446	0.100
674.000	63.454	0.100
674.100	62.014	0.100
674.200	63.605	0.100
674.300	57.688	0.100
674.400	43.887	0.100
674.500	66.960	0.100
674.600	62.152	0.100
674.700	68.404	0.100
674.800	66.483	0.100
674.900	64.672	0.100
675.000	34.642	0.100
675.100	57.060	0.100
675.200	58.407	0.100
675.300	67.151	0.100
675.400	53.188	0.100
675.500	71.701	0.100
675.600	52.550	0.100
675.700	54.313	0.100
675.800	61.427	0.100
675.900	53.785	0.100
676.000	42.482	0.100
676.100	62.191	0.100
676.200	62.329	0.100
676.300	52.447	0.100
676.400	42.422	0.100
676.500	57.731	0.100
676.600	64.525	0.100
676.700	52.792	0.100
676.800	68.198	0.100
676.900	72.507	0.100
677.000	63.202	0.100
677.100	56.703	0.100
677.200	60.136	0.100
677.300	46.755	0.100
677.400	56.047	0.100
677.500	60.385	0.100
677.600	54.750	0.100
677.700	47.948	0.100
677.800	58.768	0.100
677.900	61.493	0.100
678.000	56.125	0.100
678.100	54.710	0.100
678.200	58.689	0.100
678.300	65.802	0.100
678.400	60.687	0.100
678.500	53.517	0.100
678.600	60.944	0.100
678.700	65.249	0.100
678.800	55.423	0.100
678.900	55.883	0.100
679.000	55.285	0.100
679.100	56.743	0.100
679.200	58.978	0.100
679.300	54.348	0.100
679.400	49.075	0.100
679.500	60.231	0.100
679.600	55.272	0.100
679.700	65.560	0.100
679.800	70.189	0.100
679.900	50.753	0.100
680.000	50.844	0.100
680.100	52.869	0.100
680.200	50.799	0.100
680.300	56.585	0.100
680.400	73.967	0.100
680.500	45.072	0.100
680.600	48.202	0.100
680.700	60.736	0.100
680.800	43.530	0.100
680.900	52.326	0.100
681.000	49.337	0.100
681.100	54.813	0.100
681.200	54.477	0.100
681.300	57.570	0.100
681.400	59.180	0.100
681.500	57.878	0.100
681.600	53.005	0.100
681.700	49.886	0.100
681.800	73.134	0.100
681.900	54.273	0.100
682.000	59.088	0.100
682.100	62.977	0.100
682.200	67.554	0.100
682.300	58.945	0.100
682.400	49.174	0.100
682.500	56.468	0.100
682.600	51.707	0.100
682.700	48.875	0.100
682.800	50.937	0.100
682.900	38.875	0.100
683.000	69.083	0.100
683.100	48.460	0.100
683.200	70.585	0.100
683.300	64.997	0.100
683.400	58.907	0.100
683.500	44.782	0.100
683.600	70.873	0.100
683.700	52.136	0.100
683.800	54.069	0.100
683.900	59.391	0.100
684.000	65.037	0.100
684.100	52.715	0.100
684.200	66.135	0.100
684.300	34.447	0.100
684.400	48.437	0.100
684.500	66.572	0.100
684.600	61.812	0.100
684.700	57.333	0.100
684.800	49.809	0.100
684.900	43.895	0.100
685.000	66.409	0.100
685.100	56.861	0.100
685.200	62.039	0.100
685.300	57.135	0.100
685.400	57.135	0.100
685.500	60.912	0.100
685.600	64.243	0.100
685.700	65.042	0.100
685.800	50.296	0.100
685.900	48.259	0.100
686.000	49.686	0.100
686.100	56.949	0.100
686.200	50.882	0.100
686.300	53.430	0.100
686.400	56.617	0.100
686.500	52.873	0.100
686.600	59.536	0.100
686.700	55.041	0.100
686.800	50.255	0.100
686.900	49.119	0.100
687.000	70.737	0.100
687.100	48.313	0.100
687.200	48.616	0.100
687.300	58.602	0.100
687.400	61.222	0.100
687.500	45.782	0.100
687.600	60.351	0.100
687.700	58.153	0.100
687.800	61.081	0.100
687.900	52.852	0.100
688.000	56.525	0.100
688.100	54.049	0.100
688.200	58.984	0.100
688.300	45.977	0.100
688.400	47.018	0.100
688.500	62.212	0.100
688.600	55.935	0.100
688.700	50.136	0.100
688.800	60.484	0.100
688.900	54.592	0.100
689.000	47.117	0.100
689.100	62.923	0.100
689.200	58.337	0.100
689.300	57.684	0.100
689.400	63.711	0.100
689.500	37.538	0.100
689.600	56.903	0.100
689.700	51.773	0.100
689.800	55.298	0.100
689.900	46.547	0.100
690.000	47.798	0.100
690.100	50.329	0.100
690.200	57.060	0.100
690.300	58.317	0.100
690.400	33.676	0.100
690.500	46.052	0.100
690.600	52.190	0.100
690.700	59.122	0.100
690.800	49.473	0.100
690.900	54.399	0.100
691.000	40.023	0.100
691.100	38.784	0.100
691.200	34.881	0.100
691.300	29.438	0.100
691.400	24.189	0.100
691.500	29.777	0.100
691.600	19.797	0.100
691.700	19.538	0.100
691.800	6.888	0.100
691.900	10.043	0.100
692.000	8.286	0.100
692.100	-4.370	0.100
692.200	-3.916	0.100
692.300	0.907	0.100
692.400	-2.253	0.100
692.500	-8.417	0.100
692.600	-16.414	0.100
692.700	-12.865	0.100
692.800	1.742	0.100
692.900	-19.986	0.100
693.000	-20.217	0.100
693.100	-36.306	0.100
693.200	-28.722	0.100
693.300	-15.108	0.100
693.400	-32.757	0.100
693.500	-34.658	0.100
693.600	-21.838	0.100
693.700	-28.900	0.100
693.800	-27.293	0.100
693.900	-41.859	0.100
694.000	-17.069	0.100
694.100	-24.749	0.100
694.200	-43.147	0.100
694.300	-39.741	0.100
694.400	-43.308	0.100
694.500	-37.806	0.100
694.600	-50.471	0.100
694.700	-37.526	0.100
694.800	-38.159	0.100
694.900	-34.503	0.100
695.000	-44.396	0.100
695.100	-45.664	0.100
695.200	-27.437	0.100
695.300	-58.052	0.100
695.400	-42.667	0.100
695.500	-47.993	0.100
695.600	-46.129	0.100
695.700	-46.921	0.100
695.800	-34.227	0.100
695.900	-38.328	0.100
696.000	-40.290	0.100
696.100	-56.341	0.100
696.200	-28.137	0.100
696.300	-41.163	0.100
696.400	-31.955	0.100
696.500	-34.507	0.100
696.600	-27.746	0.100
696.700	-45.568	0.100
696.800	-52.703	0.100
696.900	-41.683	0.100
697.000	-28.045	0.100
697.100	-33.963	0.100
697.200	-38.974	0.100
697.300	-42.250	0.100
697.400	-30.782	0.100
697.500	-52.382	0.100
697.600	-32.932	0.100
697.700	-37.005	0.100
697.800	-35.697	0.100
697.900	-45.735	0.100
698.000	-38.450	0.100
698.100	-44.809	0.100
698.200	-30.097	0.100
698.300	-32.623	0.100
698.400	-31.934	0.100
698.500	-33.273	0.100
698.600	-29.009	0.100
698.700	-31.857	0.100
698.800	-27.298	0.100
698.900	-36.871	0.100
699.000	-33.460	0.100
699.100	-38.841	0.100
699.200	-32.993	0.100
699.300	-23.409	0.100
699.400	-31.478	0.100
699.500	-35.252	0.100
699.600	-47.720	0.100
699.700	-33.578	0.100
699.800	-17.999	0.100
699.900	-21.856	0.100
700.000	-38.087	0.100
700.100	-34.258	0.100
700.200	-28.175	0.100
700.300	-32.340	0.100
700.400	-28.423	0.100
700.500	-24.090	0.100
700.600	-21.224	0.100
700.700	-29.538	0.100
700.800	-39.854	0.100
700.900	-29.394	0.100
701.000	-31.366	0.100
701.100	-40.069	0.100
701.200	-39.115	0.100
701.300	-32.472	0.100
701.400	-24.983	0.100
701.500	-30.684	0.100
701.600	-16.238	0.100
701.700	-36.779	0.100
701.800	-18.192	0.100
701.900	-27.183	0.100
702.000	-24.933	0.100
702.100	-23.705	0.100
702.200	-39.275	0.100
702.300	-34.578	0.100
702.400	-22.941	0.100
702.500	-29.562	0.100
702.600	-35.137	0.100
702.700	-16.264	0.100
702.800	-30.217	0.100
702.900	-31.103	0.100
703.000	-35.939	0.100
703.100	-27.807	0.100
703.200	-12.957	0.100
703.300	-30.128	0.100
703.400	-22.714	0.100
703.500	-23.731	0.100
703.600	-24.073	0.100
703.700	-26.210	0.100
703.800	-32.444	0.100
703.900	-32.435	0.100
704.000	-27.539	0.100
704.100	-35.504	0.100
704.200	-29.482	0.100
704.300	-35.708	0.100
704.400	-21.510	0.100
704.500	-42.007	0.100
704.600	-25.664	0.100
704.700	-23.276	0.100
704.800	-32.856	0.100
704.900	-28.167	0.100
705.000	-35.108	0.100
705.100	-36.834	0.100
705.200	-28.593	0.100
705.300	-41.190	0.100
705.400	-20.202	0.100
705.500	-30.257	0.100
705.600	-17.049	0.100
705.700	-38.130	0.100
705.800	-20.190	0.100
705.900	-36.963	0.100
706.000	-21.655	0.100
706.100	-30.278	0.100
706.200	-21.395	0.100
706.300	-23.479	0.100
706.400	-43.969	0.100
706.500	-25.820	0.100
706.600	-29.090	0.100
706.700	-31.619	0.100
706.800	-26.999	0.100
706.900	-27.560	0.100
707.000	-23.594	0.100
707.100	-28.900	0.100
707.200	-25.518	0.100
707.300	-24.264	0.100
707.400	-28.776	0.100
707.500	-41.004	0.100
707.600	-29.447	0.100
707.700	-27.034	0.100
707.800	-31.146	0.100
707.900	-36.894	0.100
708.000	-39.443	0.100
708.100	-26.950	0.100
708.200	-26.207	0.100
708.300	-19.299	0.100
708.400	-27.086	0.100
708.500	-44.032	0.100
708.600	-33.260	0.100
708.700	-25.158	0.100
708.800	-37.394	0.100
708.900	-20.323	0.100
709.000	-21.163	0.100
709.100	-34.213	0.100
709.200	-41.821	0.100
709.300	-39.260	0.100
709.400	-36.986	0.100
709.500	-26.056	0.100
709.600	-27.506	0.100
709.700	-32.148	0.100
709.800	-33.390	0.100
709.900	-34.228	0.100
710.000	-28.760	0.100
710.100	-38.386	0.100
710.200	-34.924	0.100
710.300	-29.752	0.100
710.400	-26.159	0.100
710.500	-46.984	0.100
710.600	-25.822	0.100
710.700	-23.078	0.100
710.800	-37.031	0.100
710.900	-25.508	0.100
711.000	-40.901	0.100
711.100	-22.446	0.100
711.200	-31.475	0.100
711.300	-46.975	0.100
711.400	-34.498	0.100
711.500	-28.906	0.100
711.600	-24.395	0.100
711.700	-42.344	0.100
711.800	-45.647	0.100
711.900	-24.868	0.100
712.000	-39.537	0.100
712.100	-34.604	0.100
712.200	-12.963	0.100
712.300	-26.581	0.100
712.400	-32.887	0.100
712.500	-41.648	0.100
712.600	-8.125	0.100
712.700	-31.032	0.100
712.800	-34.195	0.100
712.900	-49.441	0.100
713.000	-35.665	0.100
713.100	-28.503	0.100
713.200	-34.290	0.100
713.300	-32.999	0.100
713.400	-35.610	0.100
713.500	-34.932	0.100
713.600	-47.769	0.100
713.700	-40.354	0.100
713.800	-20.296	0.100
713.900	-40.187	0.100
714.000	-36.345	0.100
714.100	-36.473	0.100
714.200	-32.263	0.100
714.300	-23.587	0.100
714.400	-28.564	0.100
714.500	-28.074	0.100
714.600	-31.379	0.100
714.700	-30.352	0.100
714.800	-32.622	0.100
714.900	-28.590	0.100
715.000	-25.495	0.100
715.100	-37.458	0.100
715.200	-25.138	0.100
715.300	-41.565	0.100
715.400	-47.422	0.100
715.500	-31.267	0.100
715.600	-25.397	0.100
715.700	-31.045	0.100
715.800	-25.443	0.100
715.900	-36.788	0.100
716.000	-43.320	0.100
716.100	-47.240	0.100
716.200	-36.345	0.100
716.300	-36.470	0.100
716.400	-32.401	0.100
716.500	-30.260	0.100
716.600	-35.067	0.100
716.700	-28.934	0.100
716.800	-38.358	0.100
716.900	-34.814	0.100
717.000	-36.027	0.100
717.100	-28.688	0.100
717.200	-39.313	0.100
717.300	-35.272	0.100
717.400	-43.169	0.100
717.500	-43.165	0.100
717.600	-37.993	0.100
717.700	-37.903	0.100
717.800	-38.231	0.100
717.900	-28.097	0.100
718.000	-34.003	0.100
718.100	-36.769	0.100
718.200	-40.540	0.100
718.300	-48.195	0.100
718.400	-29.657	0.100
718.500	-29.867	0.100
718.600	-32.443	0.100
718.700	-45.756	0.100
718.800	-41.469	0.100
718.900	-32.099	0.100
719.000	-45.690	0.100
719.100	-39.589	0.100
719.200	-31.423	0.100
719.300	-21.928	0.100
719.400	-34.041	0.100
719.500	-38.419	0.100
719.600	-31.878	0.100
719.700	-48.036	0.100
719.800	-42.013	0.100
719.900	-33.770	0.100
720.000	-38.717	0.100
720.100	-30.827	0.100
720.200	-45.755	0.100
720.300	-34.581	0.100
720.400	-29.910	0.100
720.500	-35.334	0.100
720.600	-47.844	0.100
720.700	-36.172	0.100
720.800	-35.867	0.100
720.900	-43.026	0.100
721.000	-32.579	0.100
721.100	-40.029	0.100
721.200	-44.832	0.100
721.300	-32.827	0.100
721.400	-46.880	0.100
721.500	-18.370	0.100
721.600	-31.320	0.100
721.700	-43.490	0.100
721.800	-30.086	0.100
721.900	-36.408	0.100
722.000	-40.808	0.100
722.100	-32.703	0.100
722.200	-35.108	0.100
722.300	-37.389	0.100
722.400	-37.193	0.100
722.500	-46.337	0.100
722.600	-28.727	0.100
722.700	-38.101	0.100
722.800	-38.268	0.100
722.900	-43.319	0.100
723.000	-36.891	0.100
723.100	-48.097	0.100
723.200	-36.903	0.100
723.300	-29.731	0.100
723.400	-39.873	0.100
723.500	-40.251	0.100
723.600	-39.548	0.100
723.700	-36.211	0.100
723.800	-46.575	0.100
723.900	-35.420	0.100
724.000	-40.448	0.100
724.100	-37.109	0.100
724.200	-42.057	0.100
724.300	-32.637	0.100
724.400	-42.713	0.100
724.500	-43.786	0.100
724.600	-36.805	0.100
724.700	-37.009	0.100
724.800	-27.643	0.100
724.900	-37.624	0.100
725.000	-40.480	0.100
725.100	-36.060	0.100
725.200	-33.779	0.100
725.300	-45.022	0.100
725.400	-43.188	0.100
725.500	-42.882	0.100
725.600	-26.329	0.100
725.700	-55.757	0.100
725.800	-37.040	0.100
725.900	-34.839	0.100
726.000	-35.482	0.100
726.100	-44.870	0.100
726.200	-32.674	0.100
726.300	-50.950	0.100
726.400	-25.319	0.100
726.500	-39.660	0.100
726.600	-37.323	0.100
726.700	-42.555	0.100
726.800	-38.531	0.100
726.900	-42.364	0.100
727.000	-60.013	0.100
727.100	-36.537	0.100
727.200	-36.677	0.100
727.300	-25.485	0.100
727.400	-39.119	0.100
727.500	-37.848	0.100
727.600	-38.424	0.100
727.700	-42.132	0.100
727.800	-47.688	0.100
727.900	-41.006	0.100
728.000	-25.370	0.100
728.100	-38.041	0.100
728.200	-47.403	0.100
728.300	-49.069	0.100
728.400	-50.680	0.100
728.500	-28.549	0.100
728.600	-47.271	0.100
728.700	-47.225	0.100
728.800	-39.897	0.100
728.900	-46.950	0.100
729.000	-25.439	0.100
729.100	-31.150	0.100
729.200	-47.884	0.100
729.300	-30.842	0.100
729.400	-36.871	0.100
729.500	-37.529	0.100
729.600	-50.140	0.100
729.700	-53.950	0.100
729.800	-33.132	0.100
729.900	-38.495	0.100
730.000	-42.971	0.100
730.100	-31.800	0.100
730.200	-53.151	0.100
730.300	-33.017	0.100
730.400	-50.324	0.100
730.500	-32.832	0.100
730.600	-39.680	0.100
730.700	-45.903	0.100
730.800	-31.040	0.100
730.900	-49.621	0.100
731.000	-32.623	0.100
731.100	-40.831	0.100
731.200	-38.042	0.100
731.300	-47.617	0.100
731.400	-31.204	0.100
731.500	-46.057	0.100
731.600	-39.712	0.100
731.700	-36.883	0.100
731.800	-47.337	0.100
731.900	-60.433	0.100
732.000	-44.867	0.100
732.100	-27.178	0.100
732.200	-46.854	0.100
732.300	-40.385	0.100
732.400	-48.758	0.100
732.500	-46.507	0.100
732.600	-43.723	0.100
732.700	-36.178	0.100
732.800	-43.720	0.100
732.900	-43.075	0.100
733.000	-40.651	0.100
733.100	-36.247	0.100
733.200	-53.111	0.100
733.300	-47.131	0.100
733.400	-33.968	0.100
733.500	-41.858	0.100
733.600	-27.192	0.100
733.700	-30.235	0.100
733.800	-40.241	0.100
733.900	-48.335	0.100
734.000	-39.312	0.100
734.100	-42.054	0.100
734.200	-34.711	0.100
734.300	-19.397	0.100
734.400	-32.666	0.100
734.500	-52.007	0.100
734.600	-49.034	0.100
734.700	-33.641	0.100
734.800	-37.208	0.100
734.900	-50.531	0.100
735.000	-32.879	0.100
735.100	-34.725	0.100
735.200	-31.658	0.100
735.300	-55.772	0.100
735.400	-40.434	0.100
735.500	-47.767	0.100
735.600	-39.652	0.100
735.700	-33.534	0.100
735.800	-43.058	0.100
735.900	-41.816	0.100
736.000	-41.036	0.100
736.100	-55.411	0.100
736.200	-46.288	0.100
736.300	-42.034	0.100
736.400	-38.349	0.100
736.500	-56.557	0.100
736.600	-23.682	0.100
736.700	-39.796	0.100
736.800	-42.456	0.100
736.900	-54.773	0.100
737.000	-29.467	0.100
737.100	-36.687	0.100
737.200	-30.214	0.100
737.300	-32.657	0.100
737.400	-30.043	0.100
737.500	-42.137	0.100
737.600	-44.697	0.100
737.700	-41.982	0.100
737.800	-35.222	0.100
737.900	-44.996	0.100
738.000	-33.125	0.100
738.100	-37.504	0.100
738.200	-30.706	0.100
738.300	-36.654	0.100
738.400	-40.340	0.100
738.500	-51.937	0.100
738.600	-27.099	0.100
738.700	-30.019	0.100
738.800	-41.498	0.100
738.900	-38.996	0.100
739.000	-33.821	0.100
739.100	-26.696	0.100
739.200	-45.374	0.100
739.300	-31.299	0.100
739.400	-40.356	0.100
739.500	-42.048	0.100
739.600	-47.810	0.100
739.700	-38.645	0.100
739.800	-40.307	0.100
739.900	-34.486	0.100
740.000	-24.940	0.100
740.100	-45.443	0.100
740.200	-52.394	0.100
740.300	-47.665	0.100
740.400	-38.646	0.100
740.500	-29.200	0.100
740.600	-28.730	0.100
740.700	-50.159	0.100
740.800	-37.204	0.100
740.900	-34.397	0.100
741.000	-39.709	0.100
741.100	-53.608	0.100
741.200	-43.572	0.100
741.300	-27.575	0.100
741.400	-26.009	0.100
741.500	-25.333	0.100
741.600	-41.921	0.100
741.700	-38.767	0.100
741.800	-29.118	0.100
741.900	-37.858	0.100
742.000	-36.744	0.100
742.100	-45.347	0.100
742.200	-38.990	0.100
742.300	-35.504	0.100
742.400	-25.751	0.100
742.500	-25.480	0.100
742.600	-30.709	0.100
742.700	-41.367	0.100
742.800	-51.082	0.100
742.900	-29.363	0.100
743.000	-51.468	0.100
743.100	-47.422	0.100
743.200	-37.103	0.100
743.300	-27.433	0.100
743.400	-28.908	0.100
743.500	-32.683	0.100
743.600	-40.613	0.100
743.700	-34.084	0.100
743.800	-48.420	0.100
743.900	-29.507	0.100
744.000	-30.700	0.100
744.100	-25.494	0.100
744.200	-44.803	0.100
744.300	-35.036	0.100
744.400	-38.255	0.100
744.500	-28.834	0.100
744.600	-23.815	0.100
744.700	-33.447	0.100
744.800	-38.026	0.100
744.900	-34.491	0.100
745.000	-24.753	0.100
745.100	-33.673	0.100
745.200	-42.850	0.100
745.300	-38.496	0.100
745.400	-32.131	0.100
745.500	-19.431	0.100
745.600	-27.422	0.100
745.700	-38.038	0.100
745.800	-21.586	0.100
745.900	-38.933	0.100
746.000	-40.765	0.100
746.100	-28.989	0.100
746.200	-60.722	0.100
746.300	-26.788	0.100
746.400	-37.195	0.100
746.500	-50.861	0.100
746.600	-29.869	0.100
746.700	-40.593	0.100
746.800	-27.387	0.100
746.900	-24.318	0.100
747.000	-24.746	0.100
747.100	-46.889	0.100
747.200	-42.836	0.100
747.300	-29.515	0.100
747.400	-35.505	0.100
747.500	-35.861	0.100
747.600	-28.829	0.100
747.700	-34.602	0.100
747.800	-33.680	0.100
747.900	-35.164	0.100
748.000	-46.891	0.100
748.100	-27.319	0.100
748.200	-26.883	0.100
748.300	-27.802	0.100
748.400	-39.367	0.100
748.500	-19.517	0.100
748.600	-37.215	0.100
748.700	-30.204	0.100
748.800	-35.170	0.100
748.900	-32.577	0.100
749.000	-26.424	0.100
749.100	-39.281	0.100
749.200	-39.551	0.100
749.300	-49.383	0.100
749.400	-27.523	0.100
749.500	-32.078	0.100
749.600	-45.643	0.100
749.700	-28.466	0.100
749.800	-48.771	0.100
749.900	-45.289	0.100
750.000	-25.434	0.100
750.100	-30.925	0.100
750.200	-32.722	0.100
750.300	-31.507	0.100
750.400	-44.217	0.100
750.500	-46.616	0.100
750.600	-22.630	0.100
750.700	-23.239	0.100
750.800	-44.070	0.100
750.900	-36.396	0.100
751.000	-34.376	0.100
751.100	-45.304	0.100
751.200	-36.086	0.100
751.300	-32.516	0.100
751.400	-31.590	0.100
751.500	-28.708	0.100
751.600	-27.227	0.100
751.700	-31.140	0.100
751.800	-29.466	0.100
751.900	-39.586	0.100
752.000	-29.976	0.100
752.100	-33.827	0.100
752.200	-33.284	0.100
752.300	-32.199	0.100
752.400	-36.073	0.100
752.500	-30.040	0.100
752.600	-26.705	0.100
752.700	-28.489	0.100
752.800	-40.113	0.100
752.900	-36.361	0.100
753.000	-38.958	0.100
753.100	-32.798	0.100
753.200	-38.275	0.100
753.300	-33.977	0.100
753.400	-22.434	0.100
753.500	-39.172	0.100
753.600	-49.101	0.100
753.700	-43.115	0.100
753.800	-44.104	0.100
753.900	-37.239	0.100
754.000	-45.111	0.100
754.100	-46.694	0.100
754.200	-29.098	0.100
754.300	-24.695	0.100
754.400	-41.872	0.100
754.500	-22.149	0.100
754.600	-27.243	0.100
754.700	-36.120	0.100
754.800	-38.557	0.100
754.900	-25.316	0.100
755.000	-27.968	0.100
755.100	-37.006	0.100
755.200	-21.082	0.100
755.300	-22.627	0.100
755.400	-39.735	0.100
755.500	-43.700	0.100
755.600	-45.069	0.100
755.700	-22.509	0.100
755.800	-25.316	0.100
755.900	-28.990	0.100
756.000	-39.408	0.100
756.100	-35.150	0.100
756.200	-33.833	0.100
756.300	-34.615	0.100
756.400	-30.270	0.100
756.500	-35.633	0.100
756.600	-36.217	0.100
756.700	-23.107	0.100
756.800	-33.008	0.100
756.900	-19.807	0.100
757.000	-37.178	0.100
757.100	-41.298	0.100
757.200	-26.314	0.100
757.300	-26.141	0.100
757.400	-38.817	0.100
757.500	-37.323	0.100
757.600	-27.566	0.100
757.700	-24.070	0.100
757.800	-33.318	0.100
757.900	-32.433	0.100
758.000	-25.734	0.100
758.100	-29.490	0.100
758.200	-43.066	0.100
758.300	-32.720	0.100
758.400	-25.698	0.100
758.500	-33.024	0.100
758.600	-28.241	0.100
758.700	-38.663	0.100
758.800	-22.468	0.100
758.900	-28.011	0.100
759.000	-44.372	0.100
759.100	-35.855	0.100
759.200	-12.867	0.100
759.300	-24.999	0.100
759.400	-20.427	0.100
759.500	-40.786	0.100
759.600	-46.530	0.100
759.700	-17.955	0.100
759.800	-29.236	0.100
759.900	-21.988	0.100
760.000	-24.293	0.100
760.100	-30.638	0.100
760.200	-21.004	0.100
760.300	-36.819	0.100
760.400	-26.939	0.100
760.500	-47.231	0.100
760.600	-27.836	0.100
760.700	-24.819	0.100
760.800	-23.657	0.100
760.900	-32.085	0.100
761.000	-25.707	0.100
761.100	-24.149	0.100
761.200	-25.359	0.100
761.300	-21.462	0.100
761.400	-26.452	0.100
761.500	-39.030	0.100
761.600	-38.498	0.100
761.700	-22.181	0.100
761.800	-31.161	0.100
761.900	-40.040	0.100
762.000	-19.741	0.100
762.100	-22.785	0.100
762.200	-32.646	0.100
762.300	-23.876	0.100
762.400	-33.315	0.100
762.500	-32.649	0.100
762.600	-22.751	0.100
762.700	-35.401	0.100
762.800	-22.367	0.100
762.900	-22.130	0.100
763.000	-24.186	0.100
763.100	-24.595	0.100
763.200	-29.026	0.100
763.300	-28.626	0.100
763.400	-37.247	0.100
763.500	-27.611	0.100
763.600	-35.203	0.100
763.700	-7.886	0.100
763.800	-17.076	0.100
763.900	-33.333	0.100
764.000	-39.457	0.100
764.100	-30.122	0.100
764.200	-19.178	0.100
764.300	-19.285	0.100
764.400	-22.308	0.100
764.500	-34.181	0.100
764.600	-35.625	0.100
764.700	-39.094	0.100
764.800	-38.377	0.100
764.900	-30.332	0.100
765.000	-36.543	0.100
765.100	-17.860	0.100
765.200	-17.453	0.100
765.300	-21.859	0.100
765.400	-20.938	0.100
765.500	-25.851	0.100
765.600	-33.779	0.100
765.700	-19.810	0.100
765.800	-34.658	0.100
765.900	-29.944	0.100
766.000	-41.583	0.100
766.100	-17.855	0.100
766.200	-21.646	0.100
766.300	-28.083	0.100
766.400	-27.319	0.100
766.500	-31.051	0.100
766.600	-28.241	0.100
766.700	-17.532	0.100
766.800	-23.089	0.100
766.900	-39.348	0.100
767.000	-34.602	0.100
767.100	-21.910	0.100
767.200	-34.484	0.100
767.300	-27.209	0.100
767.400	-33.169	0.100
767.500	-25.301	0.100
767.600	-16.301	0.100
767.700	-16.066	0.100
767.800	-20.978	0.100
767.900	-20.548	0.100
768.000	-23.754	0.100
768.100	-36.368	0.100
768.200	-32.108	0.100
768.300	-29.625	0.100
768.400	-17.981	0.100
768.500	-25.400	0.100
768.600	-15.301	0.100
768.700	-31.901	0.100
768.800	-41.102	0.100
768.900	-35.573	0.100
769.000	-28.514	0.100
769.100	-20.571	0.100
769.200	-22.777	0.100
769.300	-18.960	0.100
769.400	-40.601	0.100
769.500	-33.240	0.100
769.600	-19.314	0.100
769.700	-42.756	0.100
769.800	-21.097	0.100
769.900	-24.583	0.100
770.000	-21.507	0.100
770.100	-47.844	0.100
770.200	-23.112	0.100
770.300	-15.692	0.100
770.400	-30.641	0.100
770.500	-17.130	0.100
770.600	-42.604	0.100
770.700	-30.033	0.100
770.800	-40.892	0.100
770.900	-20.314	0.100
771.000	-26.374	0.100
771.100	-14.835	0.100
771.200	-16.978	0.100
771.300	-31.694	0.100
771.400	-28.046	0.100
771.500	-23.495	0.100
771.600	-29.617	0.100
771.700	-13.687	0.100
771.800	-21.933	0.100
771.900	-27.295	0.100
772.000	-36.972	0.100
772.100	-20.151	0.100
772.200	-31.159	0.100
772.300	-21.255	0.100
772.400	-24.376	0.100
772.500	-16.158	0.100
772.600	-20.548	0.100
772.700	-30.480	0.100
772.800	-35.370	0.100
772.900	-29.104	0.100
773.000	-33.181	0.100
773.100	-25.508	0.100
773.200	-18.087	0.100
773.300	-37.679	0.100
773.400	-34.996	0.100
773.500	-35.236	0.100
773.600	-33.027	0.100
773.700	-34.396	0.100
773.800	-28.069	0.100
773.900	-21.818	0.100
774.000	-29.602	0.100
774.100	-28.996	0.100
774.200	-19.563	0.100
774.300	-30.142	0.100
774.400	-25.141	0.100
774.500	-41.576	0.100
774.600	-29.381	0.100
774.700	-29.945	0.100
774.800	-11.503	0.100
774.900	-15.596	0.100
775.000	-26.179	0.100
775.100	-39.312	0.100
775.200	-20.182	0.100
775.300	-35.160	0.100
775.400	-17.276	0.100
775.500	-24.283	0.100
775.600	-31.822	0.100
775.700	-26.006	0.100
775.800	-45.178	0.100
775.900	-16.951	0.100
776.000	-22.514	0.100
776.100	-21.264	0.100
776.200	-36.244	0.100
776.300	-30.986	0.100
776.400	-38.551	0.100
776.500	-29.021	0.100
776.600	-29.413	0.100
776.700	-22.753	0.100
776.800	-34.067	0.100
776.900	-46.322	0.100
777.000	-26.490	0.100
777.100	-6.766	0.100
777.200	-22.388	0.100
777.300	-25.106	0.100
777.400	-19.532	0.100
777.500	-15.152	0.100
777.600	-28.268	0.100
777.700	-23.220	0.100
777.800	-29.674	0.100
777.900	-33.214	0.100
778.000	-33.109	0.100
778.100	-17.486	0.100
778.200	-37.270	0.100
778.300	-33.411	0.100
778.400	-31.492	0.100
778.500	-22.543	0.100
778.600	-30.827	0.100
778.700	-36.316	0.100
778.800	-36.244	0.100
778.900	-10.715	0.100
779.000	-14.938	0.100
779.100	-25.967	0.100
779.200	-26.737	0.100
779.300	-36.221	0.100
779.400	-35.726	0.100
779.500	-18.838	0.100
779.600	-20.257	0.100
779.700	-26.950	0.100
779.800	-29.821	0.100
779.900	-41.334	0.100
780.000	-32.421	0.100
780.100	-19.011	0.100
780.200	-25.334	0.100
780.300	-28.192	0.100
780.400	-14.619	0.100
780.500	-19.719	0.100
780.600	-25.488	0.100
780.700	-51.019	0.100
780.800	-26.444	0.100
780.900	-19.416	0.100
781.000	-3.355	0.100
781.100	-8.863	0.100
781.200	-8.164	0.100
781.300	7.475	0.100
781.400	7.627	0.100
781.500	9.753	0.100
781.600	9.669	0.100
781.700	18.224	0.100
781.800	35.154	0.100
781.900	37.824	0.100
782.000	31.328	0.100
782.100	25.167	0.100
782.200	38.136	0.100
782.300	35.930	0.100
782.400	58.180	0.100
782.500	36.094	0.100
782.600	51.403	0.100
782.700	34.797	0.100
782.800	50.482	0.100
782.900	42.169	0.100
783.000	26.669	0.100
783.100	46.115	0.100
783.200	46.668	0.100
783.300	43.903	0.100
783.400	57.156	0.100
783.500	50.720	0.100
783.600	66.015	0.100
783.700	56.775	0.100
783.800	42.931	0.100
783.900	46.754	0.100
784.000	47.283	0.100
784.100	46.410	0.100
784.200	41.574	0.100
784.300	66.248	0.100
784.400	60.241	0.100
784.500	49.505	0.100
784.600	55.470	0.100
784.700	45.937	0.100
784.800	44.683	0.100
784.900	55.263	0.100
785.000	40.017	0.100
785.100	55.807	0.100
785.200	57.767	0.100
785.300	37.723	0.100
785.400	51.374	0.100
785.500	41.533	0.100
785.600	39.685	0.100
785.700	51.567	0.100
785.800	39.324	0.100
785.900	45.140	0.100
786.000	41.251	0.100
786.100	38.786	0.100
786.200	33.911	0.100
786.300	40.942	0.100
786.400	47.382	0.100
786.500	34.696	0.100
786.600	39.808	0.100
786.700	36.161	0.100
786.800	38.649	0.100
786.900	29.982	0.100
787.000	29.404	0.100
787.100	41.100	0.100
787.200	36.891	0.100
787.300	27.831	0.100
787.400	40.765	0.100
787.500	34.424	0.100
787.600	31.257	0.100
787.700	36.767	0.100
787.800	38.597	0.100
787.900	33.174	0.100
788.000	28.575	0.100
788.100	39.192	0.100
788.200	46.271	0.100
788.300	44.367	0.100
788.400	48.598	0.100
788.500	43.788	0.100
788.600	36.152	0.100
788.700	40.185	0.100
788.800	49.745	0.100
788.900	44.560	0.100
789.000	39.495	0.100
789.100	47.042	0.100
789.200	42.167	0.100
789.300	48.068	0.100
789.400	26.996	0.100
789.500	38.272	0.100
789.600	40.397	0.100
789.700	52.246	0.100
789.800	51.350	0.100
789.900	35.678	0.100
790.000	36.850	0.100
790.100	26.847	0.100
790.200	37.892	0.100
790.300	48.926	0.100
790.400	40.323	0.100
790.500	34.228	0.100
790.600	32.228	0.100
790.700	37.818	0.100
790.800	50.612	0.100
790.900	45.322	0.100
791.000	50.136	0.100
791.100	50.197	0.100
791.200	50.815	0.100
791.300	51.003	0.100
791.400	49.331	0.100
791.500	54.995	0.100
791.600	50.085	0.100
791.700	53.666	0.100
791.800	42.137	0.100
791.900	52.682	0.100
792.000	64.205	0.100
792.100	55.190	0.100
792.200	62.822	0.100
792.300	45.665	0.100
792.400	57.120	0.100
792.500	53.710	0.100
792.600	63.914	0.100
792.700	40.473	0.100
792.800	56.736	0.100
792.900	45.095	0.100
793.000	50.539	0.100
793.100	63.021	0.100
793.200	61.191	0.100
793.300	63.765	0.100
793.400	50.507	0.100
793.500	68.738	0.100
793.600	48.851	0.100
793.700	57.489	0.100
793.800	56.913	0.100
793.900	60.655	0.100
794.000	60.670	0.100
794.100	63.937	0.100
794.200	62.522	0.100
794.300	57.763	0.100
794.400	55.958	0.100
794.500	68.221	0.100
794.600	54.130	0.100
794.700	56.983	0.100
794.800	61.619	0.100
794.900	48.020	0.100
795.000	61.584	0.100
795.100	47.579	0.100
795.200	67.108	0.100
795.300	63.169	0.100
795.400	54.593	0.100
795.500	71.531	0.100
795.600	68.141	0.100
795.700	71.960	0.100
795.800	79.422	0.100
795.900	70.367	0.100
796.000	60.236	0.100
796.100	54.653	0.100
796.200	75.858	0.100
796.300	65.791	0.100
796.400	81.950	0.100
796.500	74.370	0.100
796.600	72.118	0.100
796.700	57.078	0.100
796.800	83.891	0.100
796.900	75.550	0.100
797.000	65.646	0.100
797.100	74.610	0.100
797.200	63.228	0.100
797.300	81.472	0.100
797.400	82.937	0.100
797.500	70.369	0.100
797.600	73.734	0.100
797.700	83.991	0.100
797.800	68.943	0.100
797.900	70.171	0.100
798.000	74.592	0.100
798.100	72.612	0.100
798.200	77.742	0.100
798.300	59.638	0.100
798.400	76.519	0.100
798.500	66.760	0.100
798.600	78.693	0.100
798.700	60.975	0.100
798.800	83.078	0.100
798.900	81.582	0.100
799.000	65.358	0.100
799.100	63.739	0.100
799.200	68.831	0.100
799.300	73.088	0.100
799.400	59.842	0.100
799.500	82.559	0.100
799.600	87.214	0.100
799.700	76.096	0.100
799.800	80.713	0.100
799.900	80.345	0.100
800.000	61.311	0.100
