time /s	I /nA	E /V
0.100	-8.929	0.100
0.200	-11.038	0.100
0.300	-0.769	0.100
0.400	-9.081	0.100
0.500	-11.762	0.100
0.600	-7.704	0.100
0.700	-11.162	0.100
0.800	-0.389	0.100
0.900	-5.607	0.100
1.000	6.260	0.100
1.100	-17.662	0.100
1.200	-1.039	0.100
1.300	-10.109	0.100
1.400	-27.868	0.100
1.500	-2.447	0.100
1.600	-11.664	0.100
1.700	-17.366	0.100
1.800	-14.006	0.100
1.900	-5.664	0.100
2.000	-25.276	0.100
2.100	-14.460	0.100
2.200	-7.440	0.100
2.300	-11.547	0.100
2.400	-19.944	0.100
2.500	-1.374	0.100
2.600	-16.612	0.100
2.700	-1.456	0.100
2.800	-4.627	0.100
2.900	-8.438	0.100
3.000	-16.135	0.100
3.100	-10.785	0.100
3.200	-2.237	0.100
3.300	-4.975	0.100
3.400	-7.419	0.100
3.500	-11.519	0.100
3.600	-12.125	0.100
3.700	-11.455	0.100
3.800	-11.007	0.100
3.900	-13.845	0.100
4.000	-15.022	0.100
4.100	-10.859	0.100
4.200	-7.827	0.100
4.300	-7.075	0.100
4.400	-5.394	0.100
4.500	-3.928	0.100
4.600	-9.519	0.100
4.700	-13.013	0.100
4.800	-19.635	0.100
4.900	-14.870	0.100
5.000	-9.501	0.100
5.100	-10.356	0.100
5.200	-10.109	0.100
5.300	-7.817	0.100
5.400	-5.470	0.100
5.500	-8.397	0.100
5.600	-14.427	0.100
5.700	-14.896	0.100
5.800	-18.431	0.100
5.900	-14.247	0.100
6.000	-9.606	0.100
6.100	-10.491	0.100
6.200	-17.460	0.100
6.300	-15.077	0.100
6.400	-2.912	0.100
6.500	-4.033	0.100
6.600	-0.870	0.100
6.700	-1.368	0.100
6.800	-9.996	0.100
6.900	-12.862	0.100
7.000	-7.397	0.100
7.100	-30.991	0.100
7.200	-22.080	0.100
7.300	-21.761	0.100
7.400	-1.500	0.100
7.500	5.760	0.100
7.600	-7.531	0.100
7.700	-11.771	0.100
7.800	-17.987	0.100
7.900	-8.558	0.100
8.000	-2.769	0.100
8.100	-4.900	0.100
8.200	-20.007	0.100
8.300	-22.454	0.100
8.400	-3.936	0.100
8.500	-11.846	0.100
8.600	-15.617	0.100
8.700	-12.284	0.100
8.800	-7.374	0.100
8.900	-3.458	0.100
9.000	-9.723	0.100
9.100	-21.198	0.100
9.200	-21.185	0.100
9.300	-16.917	0.100
9.400	-17.774	0.100
9.500	-9.047	0.100
9.600	-3.304	0.100
9.700	-4.888	0.100
9.800	-6.596	0.100
9.900	-0.925	0.100
10.000	-3.429	0.100
10.100	-14.156	0.100
10.200	-19.417	0.100
10.300	-16.944	0.100
10.400	-14.706	0.100
10.500	-9.721	0.100
10.600	-14.079	0.100
10.700	-8.132	0.099
10.800	-8.909	0.100
10.900	-20.159	0.099
11.000	-23.466	0.099
11.100	-24.871	0.099
11.200	-21.050	0.099
11.300	-16.546	0.099
11.400	-13.049	0.099
11.500	-13.928	0.099
11.600	-16.722	0.099
11.700	-10.569	0.099
11.800	-10.745	0.099
11.900	-17.329	0.099
12.000	-17.176	0.099
12.100	-8.411	0.099
12.200	-1.644	0.099
12.300	-9.211	0.099
12.400	-21.116	0.099
12.500	-23.466	0.099
12.600	-15.470	0.099
12.700	-11.898	0.099
12.800	-10.230	0.099
12.900	-19.710	0.099
13.000	-24.606	0.099
13.100	-20.139	0.099
13.200	-14.499	0.099
13.300	-12.691	0.099
13.400	-16.828	0.099
13.500	-20.502	0.099
13.600	-17.654	0.099
13.700	-11.751	0.099
13.800	-17.959	0.099
13.900	-24.914	0.099
14.000	-21.663	0.099
14.100	-14.992	0.099
14.200	-8.331	0.099
14.300	-2.656	0.099
14.400	-2.970	0.099
14.500	-21.661	0.099
14.600	-14.369	0.099
14.700	-21.655	0.099
14.800	-24.346	0.099
14.900	-25.238	0.099
15.000	-15.312	0.099
15.100	-6.287	0.099
15.200	-9.623	0.099
15.300	-10.983	0.099
15.400	-20.912	0.099
15.500	-12.096	0.099
15.600	-24.361	0.099
15.700	-10.865	0.099
15.800	-12.298	0.099
15.900	-18.695	0.099
16.000	-30.585	0.099
16.100	-23.113	0.099
16.200	-11.118	0.099
16.300	-11.142	0.099
16.400	-9.894	0.099
16.500	-16.150	0.099
16.600	-22.037	0.099
16.700	-17.598	0.099
16.800	-20.840	0.099
16.900	-24.326	0.099
17.000	-22.520	0.099
17.100	-11.306	0.099
17.200	0.105	0.099
17.300	-1.460	0.099
17.400	-11.463	0.099
17.500	-11.969	0.099
17.600	-14.970	0.099
17.700	-20.719	0.099
17.800	-22.535	0.099
17.900	-16.780	0.099
18.000	-23.915	0.099
18.100	-22.034	0.099
18.200	-14.027	0.099
18.300	-8.023	0.099
18.400	-13.230	0.099
18.500	-3.265	0.099
18.600	-15.471	0.099
18.700	-21.907	0.099
18.800	-27.490	0.099
18.900	-19.846	0.099
19.000	-6.738	0.099
19.100	-18.249	0.099
19.200	-17.777	0.099
19.300	-17.368	0.099
19.400	-35.416	0.099
19.500	-24.954	0.099
19.600	-17.113	0.099
19.700	-13.157	0.099
19.800	-26.286	0.099
19.900	-23.360	0.099
20.000	-4.517	0.099
20.100	-11.122	0.099
20.200	-18.571	0.099
20.300	-2.576	0.099
20.400	-3.677	0.099
20.500	-17.437	0.099
20.600	-14.900	0.099
20.700	-19.478	0.099
20.800	-22.365	0.099
20.900	-15.353	0.099
21.000	-16.426	0.099
21.100	-21.530	0.099
21.200	-19.256	0.099
21.300	-31.440	0.099
21.400	-29.994	0.099
21.500	-2.867	0.099
21.600	-24.973	0.099
21.700	-26.380	0.099
21.800	-3.242	0.099
21.900	-7.589	0.099
22.000	-13.229	0.099
22.100	-28.901	0.099
22.200	-16.163	0.100
22.300	-2.497	0.100
22.400	-10.954	0.100
22.500	-15.806	0.100
22.600	-8.345	0.100
22.700	-12.901	0.100
22.800	-18.057	0.100
22.900	-14.216	0.100
23.000	-17.283	0.100
23.100	-18.844	0.100
23.200	-7.249	0.100
23.300	-13.485	0.100
23.400	-14.903	0.100
23.500	-2.247	0.100
23.600	-15.321	0.100
23.700	-22.869	0.100
23.800	-11.438	0.100
23.900	-7.486	0.100
24.000	-4.943	0.100
24.100	1.075	0.100
24.200	-13.664	0.100
24.300	-13.477	0.100
24.400	-10.663	0.100
24.500	-22.028	0.100
24.600	-18.675	0.100
24.700	-0.476	0.100
24.800	-14.492	0.100
24.900	-16.903	0.100
25.000	-4.046	0.100
25.100	-12.804	0.100
25.200	-30.697	0.100
25.300	-19.414	0.100
25.400	-17.918	0.100
25.500	-18.664	0.100
25.600	-10.777	0.100
25.700	-11.651	0.100
25.800	-12.102	0.100
25.900	-0.357	0.100
26.000	-13.782	0.100
26.100	-12.815	0.100
26.200	1.282	0.100
26.300	-21.024	0.100
26.400	-19.092	0.100
26.500	-7.083	0.100
26.600	-15.635	0.100
26.700	-15.269	0.100
26.800	-18.419	0.100
26.900	-17.930	0.100
27.000	-5.168	0.100
27.100	-9.672	0.100
27.200	-11.156	0.100
27.300	-23.929	0.100
27.400	-9.211	0.100
27.500	-16.463	0.100
27.600	-8.113	0.100
27.700	-14.582	0.100
27.800	-25.964	0.100
27.900	-13.563	0.100
28.000	4.724	0.100
28.100	-8.473	0.100
28.200	-7.060	0.100
28.300	-13.945	0.100
28.400	-20.591	0.100
28.500	-16.137	0.100
28.600	-13.917	0.100
28.700	-5.742	0.100
28.800	-0.436	0.100
28.900	-5.959	0.100
29.000	-2.883	0.100
29.100	-6.622	0.100
29.200	0.792	0.100
29.300	-12.137	0.100
29.400	-8.628	0.100
29.500	-19.252	0.100
29.600	-12.668	0.100
29.700	-10.572	0.100
29.800	-4.020	0.100
29.900	-9.459	0.100
30.000	-12.142	0.100
30.100	-5.366	0.100
30.200	-5.089	0.100
30.300	-8.958	0.100
30.400	-11.285	0.100
30.500	-6.439	0.100
30.600	-7.471	0.100
30.700	-13.081	0.100
30.800	-7.431	0.100
30.900	-20.329	0.100
31.000	2.337	0.100
31.100	12.684	0.100
31.200	5.748	0.100
31.300	-7.869	0.100
31.400	-11.021	0.100
31.500	3.183	0.100
31.600	8.680	0.100
31.700	-5.291	0.100
31.800	5.985	0.100
31.900	4.402	0.100
32.000	2.257	0.100
32.100	-4.302	0.100
32.200	1.265	0.100
32.300	18.394	0.100
32.400	16.987	0.100
32.500	1.672	0.100
32.600	-2.777	0.100
32.700	-5.432	0.100
32.800	22.360	0.100
32.900	15.477	0.100
33.000	8.772	0.100
33.100	15.991	0.100
33.200	14.918	0.100
33.300	17.004	0.100
33.400	15.982	0.100
33.500	20.867	0.100
33.600	10.716	0.100
33.700	18.023	0.100
33.800	6.076	0.100
33.900	9.598	0.100
34.000	8.168	0.100
34.100	11.269	0.100
34.200	26.786	0.100
34.300	16.020	0.100
34.400	15.765	0.100
34.500	29.967	0.100
34.600	31.210	0.100
34.700	12.730	0.100
34.800	9.212	0.100
34.900	25.150	0.100
35.000	28.562	0.100
35.100	26.717	0.100
35.200	24.243	0.100
35.300	18.706	0.100
35.400	28.004	0.100
35.500	29.861	0.100
35.600	17.580	0.100
35.700	26.573	0.100
35.800	29.407	0.100
35.900	21.502	0.100
36.000	16.694	0.100
36.100	17.862	0.100
36.200	22.975	0.100
36.300	10.190	0.100
36.400	27.909	0.100
36.500	36.379	0.100
36.600	41.111	0.100
36.700	28.634	0.100
36.800	30.449	0.100
36.900	28.076	0.100
37.000	22.280	0.100
37.100	23.527	0.100
37.200	27.975	0.100
37.300	32.652	0.100
37.400	29.042	0.100
37.500	25.027	0.100
37.600	19.613	0.100
37.700	29.763	0.100
37.800	37.247	0.100
37.900	26.550	0.100
38.000	30.998	0.100
38.100	19.205	0.100
38.200	32.576	0.100
38.300	39.411	0.100
38.400	24.995	0.100
38.500	35.862	0.100
38.600	24.045	0.100
38.700	36.984	0.100
38.800	42.284	0.100
38.900	35.251	0.099
39.000	25.682	0.099
39.100	43.417	0.099
39.200	19.372	0.099
39.300	47.597	0.099
39.400	42.967	0.099
39.500	22.139	0.099
39.600	27.969	0.099
39.700	35.894	0.099
39.800	25.395	0.099
39.900	44.503	0.099
40.000	38.034	0.099
40.100	37.136	0.099
40.200	48.687	0.099
40.300	40.596	0.099
40.400	32.755	0.099
40.500	23.856	0.099
40.600	42.546	0.099
40.700	31.201	0.099
40.800	35.939	0.099
40.900	34.840	0.099
41.000	36.230	0.099
41.100	33.052	0.099
41.200	30.523	0.099
41.300	54.406	0.099
41.400	39.184	0.099
41.500	37.041	0.099
41.600	38.999	0.099
41.700	43.991	0.099
41.800	35.505	0.099
41.900	36.603	0.099
42.000	38.520	0.099
42.100	19.888	0.099
42.200	35.504	0.099
42.300	45.567	0.099
42.400	49.755	0.099
42.500	35.166	0.099
42.600	28.513	0.099
42.700	37.450	0.099
42.800	48.665	0.099
42.900	44.531	0.099
43.000	41.778	0.099
43.100	26.559	0.099
43.200	33.946	0.099
43.300	52.289	0.099
43.400	26.094	0.099
43.500	38.701	0.099
43.600	40.457	0.099
43.700	30.557	0.099
43.800	46.197	0.099
43.900	34.346	0.099
44.000	32.993	0.099
44.100	30.479	0.099
44.200	31.490	0.099
44.300	24.313	0.099
44.400	43.518	0.099
44.500	34.749	0.099
44.600	46.205	0.099
44.700	32.625	0.099
44.800	31.228	0.099
44.900	30.856	0.099
45.000	22.608	0.099
45.100	50.189	0.099
45.200	37.475	0.099
45.300	34.193	0.099
45.400	45.054	0.099
45.500	39.787	0.099
45.600	42.615	0.099
45.700	40.055	0.099
45.800	53.318	0.099
45.900	34.648	0.099
46.000	36.059	0.099
46.100	17.767	0.099
46.200	36.819	0.099
46.300	52.095	0.099
46.400	41.772	0.099
46.500	42.845	0.099
46.600	39.425	0.099
46.700	31.661	0.099
46.800	27.776	0.099
46.900	21.580	0.099
47.000	36.894	0.099
47.100	49.217	0.099
47.200	48.868	0.099
47.300	20.879	0.099
47.400	30.499	0.099
47.500	36.170	0.099
47.600	34.713	0.099
47.700	36.908	0.099
47.800	35.623	0.099
47.900	44.476	0.099
48.000	49.677	0.099
48.100	36.850	0.099
48.200	33.137	0.099
48.300	31.233	0.099
48.400	18.447	0.099
48.500	37.435	0.099
48.600	40.380	0.099
48.700	30.797	0.099
48.800	34.824	0.099
48.900	36.856	0.099
49.000	39.137	0.099
49.100	25.205	0.099
49.200	27.427	0.099
49.300	18.821	0.099
49.400	32.773	0.099
49.500	38.783	0.099
49.600	45.147	0.099
49.700	41.076	0.099
49.800	33.800	0.099
49.900	27.733	0.099
50.000	27.123	0.099
50.100	36.223	0.100
50.200	38.608	0.100
50.300	34.365	0.100
50.400	42.566	0.100
50.500	34.034	0.100
50.600	38.281	0.100
50.700	47.638	0.100
50.800	32.504	0.100
50.900	38.120	0.100
51.000	48.935	0.100
51.100	44.395	0.100
51.200	45.693	0.100
51.300	37.037	0.100
51.400	48.623	0.100
51.500	33.705	0.100
51.600	24.798	0.100
51.700	46.334	0.100
51.800	43.001	0.100
51.900	27.434	0.100
52.000	38.456	0.100
52.100	43.033	0.100
52.200	42.978	0.100
52.300	46.827	0.100
52.400	43.975	0.100
52.500	44.663	0.100
52.600	39.719	0.100
52.700	32.760	0.100
52.800	52.516	0.100
52.900	38.084	0.100
53.000	20.398	0.100
53.100	33.488	0.100
53.200	41.241	0.100
53.300	26.991	0.100
53.400	42.000	0.100
53.500	30.480	0.100
53.600	43.679	0.100
53.700	45.095	0.100
53.800	35.350	0.100
53.900	31.392	0.100
54.000	17.220	0.100
54.100	40.709	0.100
54.200	41.431	0.100
54.300	27.197	0.100
54.400	43.306	0.100
54.500	54.159	0.100
54.600	32.054	0.100
54.700	41.571	0.100
54.800	37.851	0.100
54.900	41.209	0.100
55.000	21.655	0.100
55.100	29.574	0.100
55.200	48.935	0.100
55.300	35.752	0.100
55.400	40.049	0.100
55.500	41.405	0.100
55.600	36.543	0.100
55.700	40.081	0.100
55.800	28.699	0.100
55.900	42.796	0.100
56.000	44.743	0.100
56.100	34.864	0.100
56.200	34.231	0.100
56.300	37.895	0.100
56.400	54.035	0.100
56.500	35.680	0.100
56.600	33.635	0.100
56.700	28.201	0.100
56.800	34.708	0.100
56.900	56.292	0.100
57.000	43.808	0.100
57.100	30.607	0.100
57.200	41.878	0.100
57.300	36.854	0.100
57.400	31.475	0.100
57.500	53.174	0.100
57.600	47.036	0.100
57.700	15.243	0.100
57.800	51.796	0.100
57.900	35.671	0.100
58.000	34.782	0.100
58.100	32.488	0.100
58.200	35.778	0.100
58.300	45.160	0.100
58.400	33.782	0.100
58.500	37.874	0.100
58.600	42.147	0.100
58.700	33.284	0.100
58.800	47.444	0.100
58.900	37.066	0.100
59.000	40.700	0.100
59.100	44.010	0.100
59.200	41.038	0.100
59.300	30.741	0.100
59.400	36.016	0.100
59.500	48.271	0.100
59.600	36.224	0.100
59.700	35.842	0.100
59.800	38.750	0.100
59.900	36.402	0.100
60.000	28.296	0.100
60.100	38.758	0.100
60.200	40.576	0.100
60.300	38.876	0.100
60.400	42.574	0.100
60.500	40.067	0.100
60.600	44.431	0.100
60.700	42.764	0.100
60.800	40.619	0.100
60.900	30.365	0.100
61.000	44.896	0.100
61.100	42.334	0.100
61.200	35.372	0.100
61.300	39.997	0.099
61.400	32.907	0.099
61.500	29.885	0.099
61.600	45.144	0.099
61.700	40.571	0.099
61.800	31.959	0.099
61.900	27.448	0.099
62.000	28.763	0.099
62.100	46.047	0.099
62.200	45.419	0.099
62.300	26.743	0.099
62.400	35.821	0.099
62.500	24.365	0.099
62.600	40.434	0.099
62.700	49.131	0.099
62.800	50.927	0.099
62.900	30.244	0.099
63.000	27.725	0.099
63.100	33.610	0.099
63.200	32.893	0.099
63.300	39.154	0.099
63.400	37.066	0.099
63.500	31.464	0.099
63.600	40.499	0.099
63.700	34.296	0.099
63.800	54.213	0.099
63.900	44.591	0.099
64.000	35.884	0.099
64.100	32.812	0.099
64.200	35.268	0.099
64.300	34.780	0.099
64.400	36.034	0.099
64.500	31.500	0.099
64.600	37.838	0.099
64.700	47.750	0.099
64.800	45.554	0.099
64.900	24.400	0.099
65.000	37.424	0.099
65.100	28.625	0.099
65.200	42.175	0.099
65.300	39.371	0.099
65.400	24.995	0.099
65.500	53.733	0.099
65.600	39.761	0.099
65.700	29.902	0.099
65.800	35.548	0.099
65.900	33.158	0.099
66.000	44.033	0.099
66.100	29.524	0.099
66.200	44.692	0.099
66.300	44.989	0.099
66.400	40.340	0.099
66.500	34.011	0.099
66.600	32.163	0.099
66.700	41.545	0.099
66.800	45.362	0.099
66.900	26.763	0.099
67.000	35.836	0.099
67.100	60.553	0.099
67.200	43.645	0.099
67.300	40.148	0.099
67.400	39.195	0.099
67.500	23.847	0.099
67.600	36.299	0.099
67.700	25.938	0.099
67.800	50.802	0.099
67.900	43.155	0.099
68.000	32.079	0.099
68.100	41.359	0.099
68.200	42.512	0.099
68.300	57.130	0.099
68.400	40.357	0.099
68.500	51.739	0.099
68.600	44.243	0.099
68.700	35.744	0.099
68.800	39.241	0.099
68.900	37.676	0.099
69.000	35.868	0.099
69.100	47.736	0.099
69.200	34.242	0.099
69.300	31.907	0.099
69.400	22.377	0.099
69.500	55.372	0.099
69.600	46.878	0.099
69.700	37.421	0.099
69.800	30.748	0.099
69.900	38.195	0.099
70.000	36.431	0.099
70.100	23.219	0.099
70.200	45.164	0.099
70.300	34.996	0.099
70.400	34.562	0.099
70.500	43.987	0.099
70.600	41.609	0.099
70.700	37.430	0.099
70.800	40.832	0.099
70.900	40.283	0.099
71.000	47.324	0.099
71.100	40.000	0.099
71.200	33.175	0.099
71.300	21.661	0.099
71.400	52.611	0.099
71.500	46.735	0.099
71.600	51.351	0.099
71.700	32.588	0.099
71.800	22.631	0.099
71.900	33.584	0.099
72.000	38.179	0.099
72.100	50.718	0.099
72.200	43.532	0.099
72.300	34.259	0.099
72.400	37.904	0.099
72.500	31.869	0.099
72.600	59.240	0.099
72.700	50.979	0.099
72.800	40.706	0.099
72.900	43.098	0.099
73.000	29.861	0.099
73.100	46.820	0.099
73.200	31.461	0.099
73.300	27.370	0.099
73.400	40.253	0.099
73.500	45.713	0.099
73.600	35.606	0.099
73.700	46.262	0.099
73.800	36.509	0.099
73.900	41.746	0.099
74.000	44.450	0.099
74.100	30.604	0.099
74.200	44.626	0.099
74.300	36.938	0.099
74.400	41.010	0.099
74.500	55.863	0.099
74.600	44.517	0.099
74.700	41.102	0.099
74.800	48.363	0.099
74.900	34.171	0.099
75.000	48.120	0.099
75.100	39.650	0.099
75.200	31.608	0.099
75.300	48.848	0.100
75.400	41.813	0.099
75.500	48.065	0.099
75.600	40.490	0.100
75.700	38.436	0.099
75.800	43.691	0.100
75.900	34.153	0.100
76.000	36.299	0.100
76.100	43.633	0.100
76.200	49.020	0.100
76.300	50.166	0.100
76.400	42.532	0.100
76.500	36.528	0.100
76.600	45.296	0.100
76.700	44.376	0.100
76.800	41.989	0.100
76.900	24.768	0.100
77.000	15.546	0.100
77.100	25.760	0.100
77.200	45.846	0.100
77.300	39.200	0.100
77.400	40.026	0.100
77.500	59.695	0.100
77.600	37.021	0.100
77.700	47.359	0.100
77.800	48.465	0.100
77.900	41.897	0.100
78.000	39.479	0.100
78.100	39.966	0.100
78.200	55.269	0.100
78.300	56.375	0.100
78.400	36.840	0.100
78.500	46.823	0.100
78.600	55.548	0.100
78.700	47.519	0.100
78.800	51.616	0.100
78.900	30.169	0.100
79.000	47.148	0.100
79.100	47.546	0.100
79.200	45.534	0.100
79.300	35.701	0.100
79.400	54.563	0.100
79.500	62.433	0.100
79.600	27.151	0.100
79.700	37.030	0.100
79.800	44.796	0.100
79.900	25.651	0.100
80.000	53.290	0.100
80.100	47.606	0.100
80.200	43.752	0.100
80.300	51.762	0.100
80.400	43.506	0.100
80.500	49.027	0.100
80.600	24.736	0.100
80.700	47.577	0.100
80.800	38.396	0.100
80.900	34.854	0.100
81.000	47.770	0.100
81.100	36.423	0.100
81.200	29.110	0.100
81.300	63.098	0.100
81.400	47.494	0.100
81.500	52.742	0.100
81.600	42.713	0.100
81.700	38.266	0.100
81.800	56.974	0.100
81.900	60.952	0.100
82.000	53.065	0.100
82.100	46.709	0.100
82.200	59.669	0.100
82.300	30.652	0.100
82.400	24.972	0.100
82.500	40.719	0.100
82.600	63.097	0.100
82.700	51.270	0.100
82.800	50.364	0.100
82.900	51.765	0.100
83.000	51.181	0.100
83.100	45.649	0.100
83.200	45.949	0.100
83.300	58.622	0.100
83.400	43.867	0.100
83.500	47.519	0.100
83.600	51.488	0.100
83.700	42.592	0.100
83.800	33.117	0.100
83.900	43.729	0.100
84.000	63.441	0.100
84.100	54.958	0.100
84.200	53.042	0.100
84.300	53.086	0.100
84.400	54.287	0.100
84.500	60.281	0.100
84.600	60.819	0.100
84.700	40.604	0.100
84.800	56.014	0.100
84.900	50.881	0.100
85.000	52.036	0.100
85.100	59.926	0.100
85.200	41.077	0.100
85.300	53.634	0.100
85.400	40.939	0.100
85.500	38.516	0.100
85.600	40.634	0.100
85.700	52.607	0.100
85.800	59.246	0.100
85.900	47.320	0.100
86.000	30.359	0.100
86.100	53.923	0.100
86.200	56.450	0.100
86.300	75.722	0.100
86.400	56.336	0.100
86.500	60.120	0.100
86.600	66.159	0.100
86.700	44.848	0.100
86.800	53.016	0.100
86.900	54.247	0.100
87.000	63.405	0.100
87.100	52.834	0.100
87.200	54.198	0.100
87.300	62.989	0.100
87.400	68.243	0.100
87.500	62.169	0.100
87.600	54.414	0.100
87.700	50.580	0.100
87.800	55.642	0.100
87.900	47.669	0.100
88.000	54.831	0.100
88.100	57.949	0.100
88.200	49.949	0.100
88.300	52.130	0.100
88.400	38.657	0.100
88.500	43.489	0.100
88.600	68.129	0.100
88.700	38.479	0.100
88.800	56.851	0.100
88.900	62.238	0.100
89.000	74.002	0.100
89.100	59.683	0.100
89.200	60.918	0.100
89.300	41.180	0.100
89.400	53.678	0.100
89.500	55.737	0.100
89.600	51.848	0.100
89.700	49.729	0.100
89.800	62.598	0.100
89.900	51.184	0.100
90.000	42.661	0.100
90.100	39.402	0.100
90.200	56.030	0.100
90.300	58.487	0.100
90.400	68.727	0.100
90.500	57.855	0.100
90.600	56.122	0.100
90.700	40.467	0.100
90.800	52.700	0.100
90.900	47.379	0.100
91.000	38.741	0.100
91.100	50.128	0.100
91.200	41.093	0.100
91.300	49.107	0.100
91.400	49.801	0.100
91.500	43.444	0.100
91.600	36.873	0.100
91.700	42.235	0.100
91.800	32.832	0.100
91.900	34.224	0.100
92.000	44.059	0.100
92.100	38.140	0.100
92.200	27.945	0.100
92.300	31.863	0.100
92.400	30.644	0.101
92.500	29.283	0.101
92.600	35.524	0.100
92.700	38.884	0.100
92.800	37.424	0.100
92.900	20.873	0.100
93.000	18.808	0.100
93.100	37.541	0.100
93.200	22.103	0.100
93.300	18.241	0.100
93.400	38.933	0.100
93.500	34.849	0.100
93.600	31.674	0.100
93.700	26.271	0.100
93.800	6.226	0.100
93.900	24.523	0.100
94.000	20.009	0.100
94.100	17.663	0.100
94.200	9.509	0.100
94.300	42.071	0.100
94.400	12.891	0.100
94.500	22.717	0.100
94.600	3.897	0.100
94.700	4.064	0.100
94.800	2.636	0.100
94.900	25.162	0.100
95.000	20.134	0.100
95.100	13.530	0.100
95.200	-0.468	0.100
95.300	10.908	0.100
95.400	22.831	0.100
95.500	10.279	0.100
95.600	11.389	0.100
95.700	7.601	0.100
95.800	11.784	0.100
95.900	14.919	0.100
96.000	-3.744	0.100
96.100	17.418	0.100
96.200	-0.188	0.100
96.300	-5.363	0.100
96.400	5.180	0.100
96.500	7.734	0.100
96.600	10.633	0.100
96.700	-1.068	0.100
96.800	9.244	0.100
96.900	1.511	0.100
97.000	7.702	0.100
97.100	-5.090	0.100
97.200	8.228	0.100
97.300	6.410	0.100
97.400	-5.339	0.100
97.500	-0.514	0.100
97.600	5.371	0.100
97.700	-0.993	0.100
97.800	4.057	0.100
97.900	-12.786	0.100
98.000	0.533	0.100
98.100	-3.470	0.100
98.200	0.375	0.100
98.300	0.713	0.100
98.400	-6.404	0.100
98.500	-11.414	0.100
98.600	-7.788	0.100
98.700	1.052	0.100
98.800	7.307	0.100
98.900	-8.674	0.100
99.000	-9.809	0.100
99.100	-21.962	0.100
99.200	-4.646	0.100
99.300	-3.211	0.100
99.400	-1.707	0.100
99.500	3.684	0.100
99.600	0.415	0.100
99.700	-12.134	0.100
99.800	-3.173	0.100
99.900	-6.519	0.100
100.000	-8.066	0.100
100.100	2.251	0.100
100.200	-21.747	0.100
100.300	-9.329	0.100
100.400	1.218	0.100
100.500	-2.034	0.100
100.600	-11.585	0.100
100.700	2.027	0.100
100.800	-11.012	0.100
100.900	-15.732	0.100
101.000	-3.427	0.100
101.100	-4.319	0.100
101.200	1.003	0.100
101.300	1.756	0.100
101.400	-15.128	0.100
101.500	-2.897	0.100
101.600	-10.919	0.100
101.700	-14.361	0.100
101.800	-9.931	0.100
101.900	0.536	0.100
102.000	-11.719	0.100
102.100	-17.765	0.100
102.200	-1.721	0.100
102.300	-15.264	0.100
102.400	-8.500	0.100
102.500	-3.016	0.100
102.600	-11.506	0.100
102.700	-4.583	0.100
102.800	-4.735	0.100
102.900	-6.609	0.100
103.000	-7.433	0.100
103.100	-9.931	0.100
103.200	-20.334	0.100
103.300	-5.280	0.100
103.400	-3.395	0.100
103.500	-1.667	0.100
103.600	-9.137	0.100
103.700	-5.133	0.100
103.800	-9.551	0.100
103.900	-4.863	0.100
104.000	2.509	0.100
104.100	-5.129	0.100
104.200	-15.663	0.100
104.300	-4.385	0.100
104.400	-20.978	0.100
104.500	-5.791	0.100
104.600	-14.576	0.100
104.700	-25.702	0.100
104.800	-3.306	0.100
104.900	-0.542	0.100
105.000	0.034	0.100
105.100	-8.641	0.100
105.200	-18.292	0.100
105.300	-8.316	0.100
105.400	-11.901	0.100
105.500	-11.858	0.100
105.600	0.349	0.100
105.700	-19.964	0.100
105.800	-15.464	0.100
105.900	-12.376	0.100
106.000	-18.931	0.100
106.100	-23.383	0.100
106.200	-7.426	0.100
106.300	-6.822	0.100
106.400	-20.720	0.100
106.500	-7.969	0.100
106.600	-5.073	0.100
106.700	-5.546	0.100
106.800	-22.995	0.100
106.900	-27.315	0.100
107.000	-10.491	0.100
107.100	-1.439	0.100
107.200	-8.616	0.100
107.300	5.415	0.100
107.400	-4.848	0.100
107.500	-10.022	0.100
107.600	-13.849	0.100
107.700	-23.899	0.100
107.800	-6.310	0.100
107.900	-9.303	0.100
108.000	-6.315	0.100
108.100	1.868	0.100
108.200	-7.072	0.100
108.300	-15.044	0.100
108.400	-15.700	0.100
108.500	-2.976	0.100
108.600	-9.646	0.100
108.700	-22.353	0.100
108.800	3.284	0.100
108.900	-12.102	0.100
109.000	-12.603	0.100
109.100	-12.848	0.100
109.200	-15.980	0.100
109.300	-18.566	0.100
109.400	2.138	0.100
109.500	-10.811	0.100
109.600	-13.807	0.100
109.700	-13.391	0.100
109.800	-12.643	0.100
109.900	-3.749	0.100
110.000	-16.604	0.100
110.100	-9.343	0.100
110.200	-10.710	0.100
110.300	-13.039	0.100
110.400	-12.507	0.100
110.500	-6.744	0.100
110.600	-8.263	0.100
110.700	-10.085	0.100
110.800	-27.612	0.100
110.900	-8.910	0.100
111.000	-19.238	0.100
111.100	-16.981	0.100
111.200	-1.382	0.100
111.300	-14.118	0.100
111.400	-14.098	0.100
111.500	-8.748	0.100
111.600	-8.642	0.100
111.700	2.692	0.100
111.800	-8.388	0.100
111.900	-29.515	0.100
112.000	0.086	0.100
112.100	-11.222	0.100
112.200	-13.722	0.100
112.300	-3.160	0.100
112.400	-9.327	0.100
112.500	-1.977	0.100
112.600	-15.594	0.100
112.700	-20.348	0.100
112.800	-12.531	0.100
112.900	-30.709	0.100
113.000	-6.429	0.100
113.100	3.209	0.100
113.200	-19.644	0.100
113.300	-9.341	0.100
113.400	-10.134	0.100
113.500	3.191	0.100
113.600	-21.211	0.100
113.700	-24.318	0.100
113.800	1.112	0.100
113.900	-25.221	0.100
114.000	-24.462	0.100
114.100	-12.514	0.100
114.200	-8.880	0.100
114.300	-14.593	0.100
114.400	-14.124	0.100
114.500	-18.099	0.100
114.600	-7.005	0.100
114.700	-14.938	0.100
114.800	-20.326	0.100
114.900	-3.887	0.100
115.000	-16.633	0.100
115.100	-18.096	0.100
115.200	-1.883	0.100
115.300	-15.522	0.100
115.400	-17.636	0.100
115.500	-2.273	0.100
115.600	-21.165	0.100
115.700	-25.118	0.100
115.800	-4.978	0.100
115.900	-18.546	0.100
116.000	-12.461	0.100
116.100	-29.438	0.100
116.200	-1.249	0.100
116.300	-14.573	0.100
116.400	-23.188	0.100
116.500	-14.082	0.100
116.600	-13.577	0.100
116.700	-7.828	0.100
116.800	-2.279	0.100
116.900	-26.447	0.100
117.000	-26.015	0.100
117.100	-5.998	0.100
117.200	-8.584	0.100
117.300	-12.082	0.100
117.400	-11.743	0.100
117.500	-21.836	0.100
117.600	-10.370	0.100
117.700	-12.622	0.100
117.800	-12.982	0.100
117.900	-20.438	0.100
118.000	-16.601	0.100
118.100	-21.825	0.100
118.200	-16.578	0.100
118.300	-15.920	0.100
118.400	-18.366	0.100
118.500	-9.947	0.100
118.600	1.363	0.100
118.700	-3.763	0.100
118.800	-16.543	0.100
118.900	-4.448	0.100
119.000	-30.445	0.100
119.100	-15.329	0.100
119.200	-5.858	0.100
119.300	-21.554	0.100
119.400	-18.235	0.100
119.500	-12.848	0.100
119.600	-5.964	0.100
119.700	-6.315	0.100
119.800	-17.723	0.100
119.900	-27.093	0.100
120.000	-27.709	0.100
120.100	-27.145	0.100
120.200	-32.214	0.100
120.300	-22.141	0.100
120.400	-17.708	0.100
120.500	2.331	0.100
120.600	-4.109	0.100
120.700	-7.915	0.100
120.800	-29.392	0.100
120.900	-17.329	0.100
121.000	-5.966	0.100
121.100	-20.085	0.100
121.200	-18.859	0.100
121.300	-3.796	0.100
121.400	-18.572	0.100
121.500	-17.286	0.100
121.600	-25.894	0.100
121.700	-0.053	0.100
121.800	-11.417	0.100
121.900	-10.403	0.100
122.000	-19.267	0.100
122.100	-28.051	0.100
122.200	-8.575	0.100
122.300	-12.896	0.100
122.400	-18.318	0.100
122.500	-17.921	0.100
122.600	-20.343	0.100
122.700	-18.896	0.100
122.800	-28.261	0.100
122.900	-22.967	0.100
123.000	0.295	0.100
123.100	-2.429	0.100
123.200	-29.009	0.100
123.300	-13.526	0.100
123.400	-24.028	0.100
123.500	-4.848	0.100
123.600	-21.243	0.100
123.700	-36.680	0.100
123.800	-5.112	0.100
123.900	-17.095	0.100
124.000	-27.008	0.100
124.100	-10.658	0.100
124.200	-15.281	0.100
124.300	-18.948	0.100
124.400	-3.094	0.100
124.500	6.209	0.100
124.600	6.422	0.100
124.700	8.798	0.100
124.800	-3.715	0.100
124.900	-10.606	0.100
125.000	-20.567	0.100
125.100	-28.426	0.100
125.200	-17.860	0.100
125.300	-21.338	0.100
125.400	-8.874	0.100
125.500	-7.566	0.100
125.600	-17.786	0.100
125.700	-16.805	0.100
125.800	-15.749	0.100
125.900	-23.576	0.100
126.000	-17.286	0.100
126.100	-8.521	0.100
126.200	-34.189	0.100
126.300	-13.321	0.100
126.400	-11.119	0.100
126.500	-19.889	0.100
126.600	-26.205	0.100
126.700	-21.224	0.100
126.800	-16.713	0.100
126.900	-29.725	0.100
127.000	-21.678	0.100
127.100	-21.226	0.100
127.200	-11.959	0.100
127.300	-19.012	0.100
127.400	-24.927	0.100
127.500	-16.718	0.100
127.600	-18.163	0.100
127.700	-33.580	0.100
127.800	-25.584	0.100
127.900	-24.482	0.100
128.000	-10.955	0.100
128.100	-4.793	0.100
128.200	-0.481	0.100
128.300	-13.193	0.100
128.400	-33.339	0.100
128.500	-17.791	0.100
128.600	-11.470	0.100
128.700	-18.290	0.100
128.800	-21.355	0.100
128.900	-22.526	0.100
129.000	-23.507	0.100
129.100	-17.633	0.100
129.200	-23.079	0.100
129.300	-10.062	0.100
129.400	-15.056	0.100
129.500	-13.984	0.100
129.600	-36.398	0.100
129.700	-14.886	0.100
129.800	-41.501	0.100
129.900	-21.298	0.100
130.000	-6.337	0.100
130.100	-12.871	0.100
130.200	-17.127	0.100
130.300	-30.802	0.100
130.400	-24.868	0.100
130.500	-20.102	0.100
130.600	-17.104	0.100
130.700	-24.370	0.100
130.800	-16.011	0.100
130.900	-27.244	0.100
131.000	-27.833	0.100
131.100	-19.580	0.100
131.200	-38.616	0.100
131.300	-13.650	0.100
131.400	-21.097	0.100
131.500	-8.530	0.100
131.600	-22.511	0.100
131.700	-19.477	0.100
131.800	-6.778	0.100
131.900	-24.795	0.100
132.000	-17.703	0.100
132.100	-31.958	0.100
132.200	-21.799	0.100
132.300	-28.494	0.100
132.400	-27.234	0.100
132.500	-15.565	0.100
132.600	-32.383	0.100
132.700	-21.891	0.100
132.800	-20.912	0.100
132.900	-10.630	0.100
133.000	-19.990	0.100
133.100	-25.434	0.100
133.200	-18.445	0.100
133.300	-36.710	0.100
133.400	-16.314	0.100
133.500	-22.894	0.100
133.600	-12.143	0.100
133.700	-24.701	0.100
133.800	-27.264	0.100
133.900	-6.021	0.100
134.000	-18.766	0.100
134.100	-21.059	0.100
134.200	-20.446	0.100
134.300	-19.155	0.100
134.400	-26.208	0.100
134.500	-19.169	0.100
134.600	-27.836	0.100
134.700	-17.176	0.100
134.800	-27.620	0.100
134.900	-23.240	0.100
135.000	-18.687	0.100
135.100	-7.908	0.100
135.200	-13.167	0.100
135.300	-17.277	0.100
135.400	-22.908	0.100
135.500	-23.922	0.100
135.600	-23.181	0.100
135.700	-18.229	0.100
135.800	-13.362	0.100
135.900	-19.088	0.100
136.000	-8.435	0.100
136.100	-29.165	0.100
136.200	-13.201	0.100
136.300	-16.146	0.100
136.400	-32.570	0.100
136.500	-32.415	0.100
136.600	-7.785	0.100
136.700	-21.356	0.100
136.800	-35.107	0.100
136.900	-20.366	0.100
137.000	-23.734	0.100
137.100	-7.430	0.100
137.200	-23.643	0.100
137.300	-30.577	0.100
137.400	-22.923	0.100
137.500	-27.594	0.100
137.600	-29.334	0.100
137.700	-20.325	0.100
137.800	-20.927	0.100
137.900	-24.347	0.100
138.000	-15.609	0.100
138.100	-23.832	0.100
138.200	-9.182	0.100
138.300	-36.056	0.100
138.400	-11.138	0.100
138.500	-24.076	0.100
138.600	-18.379	0.100
138.700	-10.716	0.100
138.800	-31.799	0.100
138.900	-20.202	0.100
139.000	-24.758	0.100
139.100	-25.293	0.100
139.200	-14.250	0.100
139.300	-22.624	0.100
139.400	-18.907	0.100
139.500	-37.693	0.100
139.600	-21.343	0.100
139.700	-25.350	0.100
139.800	-25.771	0.100
139.900	-16.175	0.100
140.000	-25.765	0.100
140.100	-23.332	0.100
140.200	-12.381	0.100
140.300	-15.384	0.100
140.400	-33.109	0.100
140.500	-7.400	0.100
140.600	-9.928	0.100
140.700	-38.823	0.100
140.800	-22.322	0.100
140.900	-37.544	0.100
141.000	-34.328	0.100
141.100	-24.048	0.100
141.200	-13.837	0.100
141.300	-9.177	0.100
141.400	-11.978	0.100
141.500	-22.978	0.100
141.600	-32.637	0.100
141.700	-20.571	0.100
141.800	-17.544	0.100
141.900	-38.329	0.100
142.000	-27.367	0.100
142.100	-30.557	0.100
142.200	-20.683	0.100
142.300	-3.522	0.100
142.400	-19.802	0.100
142.500	-36.322	0.100
142.600	-22.386	0.100
142.700	-39.109	0.100
142.800	-9.766	0.100
142.900	-23.593	0.100
143.000	-11.533	0.100
143.100	-28.147	0.100
143.200	-26.265	0.100
143.300	-28.472	0.100
143.400	-11.426	0.100
143.500	-27.093	0.100
143.600	-14.391	0.100
143.700	-19.633	0.100
143.800	-21.093	0.100
143.900	-29.499	0.100
144.000	-28.619	0.100
144.100	-28.546	0.100
144.200	-6.660	0.100
144.300	-29.473	0.100
144.400	-39.637	0.100
144.500	-23.973	0.100
144.600	-14.662	0.100
144.700	-17.309	0.100
144.800	-33.105	0.100
144.900	-21.516	0.100
145.000	-26.354	0.100
145.100	-13.597	0.100
145.200	-28.932	0.100
145.300	-13.673	0.100
145.400	-20.027	0.100
145.500	-44.965	0.100
145.600	-26.662	0.100
145.700	-7.831	0.100
145.800	-29.679	0.100
145.900	-25.549	0.100
146.000	-35.626	0.100
146.100	-17.869	0.100
146.200	-15.582	0.100
146.300	-20.840	0.100
146.400	-16.377	0.100
146.500	-26.481	0.100
146.600	-31.457	0.100
146.700	-39.529	0.100
146.800	-12.131	0.100
146.900	-37.195	0.100
147.000	-29.930	0.100
147.100	-18.924	0.100
147.200	-31.051	0.100
147.300	-23.614	0.100
147.400	-14.311	0.100
147.500	-20.487	0.100
147.600	-29.378	0.100
147.700	-19.915	0.100
147.800	-10.391	0.100
147.900	-18.686	0.100
148.000	-20.404	0.100
148.100	-18.920	0.100
148.200	-25.719	0.100
148.300	-21.936	0.100
148.400	-19.816	0.100
148.500	-8.690	0.100
148.600	-30.181	0.100
148.700	-19.647	0.100
148.800	-30.910	0.100
148.900	-27.649	0.100
149.000	-18.703	0.100
149.100	-22.402	0.100
149.200	-27.053	0.100
149.300	-18.267	0.100
149.400	-27.739	0.100
149.500	-33.053	0.100
149.600	-33.261	0.100
149.700	-11.705	0.100
149.800	-19.485	0.100
149.900	-17.731	0.100
150.000	-25.529	0.100
150.100	-20.875	0.100
150.200	-3.974	0.100
150.300	-11.102	0.100
150.400	-31.993	0.100
150.500	-23.941	0.100
150.600	-18.891	0.100
150.700	-23.331	0.100
150.800	-26.098	0.100
150.900	-38.062	0.100
151.000	-17.780	0.100
151.100	-24.361	0.100
151.200	-17.886	0.100
151.300	-22.391	0.100
151.400	-11.920	0.100
151.500	-29.771	0.100
151.600	-24.698	0.100
151.700	-22.544	0.100
151.800	-32.855	0.100
151.900	-31.532	0.100
152.000	-20.936	0.100
152.100	-19.448	0.100
152.200	-21.669	0.100
152.300	-15.027	0.100
152.400	-20.107	0.100
152.500	-32.363	0.100
152.600	-29.401	0.100
152.700	-23.778	0.100
152.800	-18.396	0.100
152.900	-15.047	0.100
153.000	-45.405	0.100
153.100	-11.124	0.100
153.200	-30.739	0.100
153.300	-39.672	0.100
153.400	-16.828	0.100
153.500	-12.160	0.100
153.600	-29.912	0.100
153.700	-30.088	0.100
153.800	-23.190	0.100
153.900	-19.103	0.100
154.000	-35.603	0.100
154.100	-17.227	0.100
154.200	-13.712	0.100
154.300	-19.299	0.100
154.400	-12.608	0.100
154.500	-23.136	0.100
154.600	-18.070	0.100
154.700	-32.176	0.100
154.800	-22.462	0.100
154.900	-26.659	0.100
155.000	-13.135	0.100
155.100	-20.073	0.100
155.200	-27.747	0.100
155.300	-34.694	0.100
155.400	-33.514	0.100
155.500	-24.434	0.100
155.600	-17.700	0.100
155.700	-22.722	0.100
155.800	-24.877	0.100
155.900	-24.203	0.100
156.000	-28.091	0.100
156.100	-17.541	0.100
156.200	-19.866	0.100
156.300	-23.809	0.100
156.400	-20.210	0.100
156.500	-42.273	0.100
156.600	-37.940	0.100
156.700	-16.690	0.100
156.800	-28.156	0.100
156.900	-9.068	0.100
157.000	-16.446	0.100
157.100	-8.760	0.100
157.200	-18.678	0.100
157.300	-34.018	0.100
157.400	-5.119	0.100
157.500	-13.284	0.100
157.600	-10.144	0.100
157.700	-29.300	0.100
157.800	-22.241	0.100
157.900	-33.672	0.100
158.000	-31.468	0.100
158.100	-25.787	0.100
158.200	-15.632	0.100
158.300	-29.430	0.100
158.400	-39.695	0.100
158.500	-16.040	0.100
158.600	-26.257	0.100
158.700	-17.325	0.100
158.800	-24.546	0.100
158.900	-18.511	0.100
159.000	-5.208	0.100
159.100	-17.184	0.100
159.200	-31.328	0.100
159.300	-26.432	0.100
159.400	-20.893	0.100
159.500	-21.083	0.100
159.600	-28.914	0.100
159.700	-29.645	0.099
159.800	-33.560	0.099
159.900	-28.107	0.099
160.000	-31.619	0.099
160.100	-34.840	0.099
160.200	-23.814	0.099
160.300	-12.047	0.099
160.400	-25.705	0.099
160.500	-20.892	0.099
160.600	-29.185	0.099
160.700	-46.702	0.099
160.800	-16.535	0.099
160.900	-41.203	0.099
161.000	-26.110	0.099
161.100	-28.245	0.099
161.200	-25.144	0.099
161.300	-29.959	0.099
161.400	-32.970	0.099
161.500	-19.863	0.099
161.600	-21.536	0.099
161.700	-23.076	0.099
161.800	-39.244	0.099
161.900	-13.511	0.099
162.000	-21.208	0.099
162.100	-10.474	0.099
162.200	-20.070	0.099
162.300	-19.593	0.099
162.400	-29.044	0.099
162.500	-38.311	0.099
162.600	-32.282	0.099
162.700	-27.848	0.099
162.800	-19.123	0.099
162.900	-30.841	0.099
163.000	-27.008	0.099
163.100	-26.371	0.099
163.200	-28.319	0.099
163.300	-19.843	0.099
163.400	-37.409	0.099
163.500	-27.114	0.099
163.600	-35.222	0.099
163.700	-25.325	0.099
163.800	-36.106	0.099
163.900	-25.909	0.099
164.000	-21.277	0.099
164.100	-35.740	0.099
164.200	-23.482	0.099
164.300	-9.672	0.099
164.400	-26.985	0.099
164.500	-12.999	0.099
164.600	-25.071	0.099
164.700	-33.122	0.099
164.800	-31.176	0.099
164.900	-36.287	0.099
165.000	-27.135	0.099
165.100	-22.834	0.099
165.200	-28.846	0.099
165.300	-17.942	0.099
165.400	-20.131	0.099
165.500	-25.334	0.099
165.600	-28.391	0.099
165.700	-30.212	0.099
165.800	-28.451	0.099
165.900	-32.875	0.099
166.000	-20.657	0.099
166.100	-33.100	0.099
166.200	-23.199	0.099
166.300	-26.295	0.099
166.400	-29.737	0.099
166.500	-34.653	0.099
166.600	-23.119	0.099
166.700	-34.567	0.099
166.800	-26.993	0.099
166.900	-38.301	0.099
167.000	-35.458	0.099
167.100	-34.021	0.099
167.200	-33.451	0.099
167.300	-26.676	0.099
167.400	-38.134	0.099
167.500	-27.109	0.099
167.600	-40.667	0.099
167.700	-27.427	0.099
167.800	-27.427	0.099
167.900	-27.490	0.099
168.000	-29.426	0.099
168.100	-19.665	0.099
168.200	-46.104	0.099
168.300	-32.663	0.099
168.400	-26.467	0.099
168.500	-25.931	0.099
168.600	-41.355	0.099
168.700	-20.912	0.099
168.800	-33.658	0.099
168.900	-26.941	0.099
169.000	-15.625	0.099
169.100	-14.153	0.099
169.200	-31.862	0.099
169.300	-35.229	0.099
169.400	-39.686	0.099
169.500	-35.554	0.099
169.600	-40.966	0.099
169.700	-25.041	0.099
169.800	-36.224	0.099
169.900	-25.955	0.099
170.000	-23.555	0.099
170.100	-26.729	0.099
170.200	-31.757	0.099
170.300	-32.107	0.099
170.400	-21.618	0.099
170.500	-25.599	0.099
170.600	-28.098	0.099
170.700	-27.634	0.099
170.800	-37.067	0.099
170.900	-32.866	0.099
171.000	-16.383	0.099
171.100	-25.900	0.099
171.200	-35.309	0.099
171.300	-30.169	0.099
171.400	-27.114	0.099
171.500	-20.703	0.099
171.600	-18.684	0.099
171.700	-27.077	0.099
171.800	-45.246	0.099
171.900	-24.329	0.099
172.000	-27.721	0.099
172.100	-20.944	0.099
172.200	-28.290	0.099
172.300	-21.292	0.099
172.400	-14.020	0.099
172.500	-21.902	0.099
172.600	-29.069	0.099
172.700	-24.928	0.099
172.800	-27.244	0.099
172.900	-25.491	0.099
173.000	-26.479	0.099
173.100	-45.522	0.099
173.200	-18.321	0.099
173.300	-19.244	0.099
173.400	-24.813	0.099
173.500	-33.059	0.099
173.600	-15.421	0.099
173.700	-25.279	0.100
173.800	-38.010	0.100
173.900	-39.134	0.100
174.000	-15.553	0.100
174.100	-28.534	0.100
174.200	-7.353	0.100
174.300	-18.510	0.100
174.400	-23.660	0.100
174.500	-22.978	0.100
174.600	-21.436	0.100
174.700	-16.195	0.100
174.800	-27.384	0.100
174.900	-50.930	0.100
175.000	-42.474	0.100
175.100	-2.587	0.100
175.200	-19.486	0.100
175.300	-20.184	0.100
175.400	-14.239	0.100
175.500	-32.177	0.100
175.600	-38.922	0.100
175.700	-21.510	0.100
175.800	-36.563	0.100
175.900	-6.430	0.100
176.000	-14.185	0.100
176.100	-27.119	0.100
176.200	-24.548	0.100
176.300	-25.463	0.100
176.400	-22.285	0.100
176.500	-11.339	0.100
176.600	-26.938	0.100
176.700	-12.157	0.100
176.800	-29.489	0.100
176.900	-43.250	0.100
177.000	-21.149	0.100
177.100	-20.461	0.100
177.200	-18.019	0.100
177.300	-21.539	0.100
177.400	-10.017	0.100
177.500	-25.655	0.100
177.600	-26.516	0.100
177.700	-13.971	0.100
177.800	-25.558	0.100
177.900	-21.206	0.100
178.000	-31.146	0.100
178.100	-19.406	0.100
178.200	-14.898	0.100
178.300	-13.583	0.100
178.400	-29.817	0.100
178.500	-28.186	0.100
178.600	-38.743	0.100
178.700	-20.601	0.100
178.800	-16.131	0.100
178.900	-5.729	0.100
179.000	-9.094	0.100
179.100	-16.432	0.100
179.200	-39.802	0.100
179.300	-33.601	0.100
179.400	-30.700	0.100
179.500	-10.603	0.100
179.600	-20.768	0.100
179.700	-27.103	0.100
179.800	-27.204	0.100
179.900	-17.305	0.100
180.000	-11.930	0.100
180.100	-31.072	0.100
180.200	-12.666	0.100
180.300	4.515	0.100
180.400	-13.972	0.100
180.500	-22.026	0.100
180.600	-34.080	0.100
180.700	-14.587	0.100
180.800	-15.681	0.100
180.900	-14.099	0.100
181.000	-8.618	0.100
181.100	-4.931	0.100
181.200	-6.458	0.100
181.300	-19.708	0.100
181.400	-2.806	0.100
181.500	1.788	0.100
181.600	-6.182	0.100
181.700	-4.106	0.100
181.800	0.974	0.100
181.900	-6.729	0.100
182.000	-2.064	0.100
182.100	12.663	0.100
182.200	-1.261	0.100
182.300	5.699	0.100
182.400	1.221	0.100
182.500	-7.974	0.100
182.600	-2.543	0.100
182.700	9.919	0.100
182.800	0.976	0.100
182.900	4.040	0.100
183.000	-3.271	0.100
183.100	-0.511	0.100
183.200	7.601	0.100
183.300	20.591	0.100
183.400	7.816	0.100
183.500	0.966	0.100
183.600	7.403	0.100
183.700	-0.193	0.100
183.800	-14.363	0.100
183.900	9.690	0.100
184.000	8.384	0.100
184.100	5.329	0.100
184.200	16.665	0.100
184.300	9.660	0.100
184.400	11.085	0.100
184.500	12.913	0.100
184.600	15.060	0.100
184.700	8.605	0.100
184.800	17.416	0.100
184.900	7.503	0.100
185.000	5.081	0.100
185.100	19.515	0.100
185.200	16.029	0.100
185.300	30.699	0.100
185.400	-2.233	0.100
185.500	11.806	0.100
185.600	4.248	0.100
185.700	23.337	0.100
185.800	8.778	0.100
185.900	10.690	0.100
186.000	13.825	0.100
186.100	12.477	0.100
186.200	10.362	0.100
186.300	13.523	0.100
186.400	26.939	0.100
186.500	0.789	0.100
186.600	17.645	0.100
186.700	3.836	0.100
186.800	13.176	0.100
186.900	13.794	0.100
187.000	-0.056	0.100
187.100	29.750	0.100
187.200	2.020	0.100
187.300	8.481	0.100
187.400	16.794	0.100
187.500	6.480	0.100
187.600	22.435	0.100
187.700	21.709	0.100
187.800	8.827	0.100
187.900	7.287	0.100
188.000	20.889	0.100
188.100	28.457	0.100
188.200	17.366	0.100
188.300	14.657	0.100
188.400	23.320	0.100
188.500	15.968	0.100
188.600	8.119	0.100
188.700	22.984	0.100
188.800	29.743	0.100
188.900	-3.841	0.100
189.000	5.018	0.100
189.100	19.018	0.100
189.200	21.445	0.100
189.300	29.556	0.100
189.400	11.378	0.100
189.500	27.753	0.100
189.600	18.868	0.100
189.700	15.485	0.100
189.800	13.894	0.100
189.900	17.557	0.100
190.000	20.691	0.100
190.100	12.910	0.100
190.200	31.173	0.100
190.300	25.273	0.100
190.400	25.182	0.100
190.500	25.510	0.100
190.600	31.736	0.100
190.700	25.817	0.100
190.800	37.806	0.100
190.900	20.301	0.100
191.000	36.649	0.100
191.100	20.400	0.100
191.200	26.513	0.100
191.300	11.075	0.100
191.400	25.579	0.100
191.500	36.531	0.100
191.600	31.242	0.100
191.700	32.194	0.100
191.800	28.484	0.100
191.900	14.216	0.100
192.000	42.664	0.100
192.100	25.667	0.100
192.200	28.504	0.100
192.300	40.312	0.100
192.400	31.949	0.100
192.500	39.360	0.100
192.600	26.127	0.100
192.700	11.602	0.100
192.800	41.051	0.100
192.900	24.851	0.100
193.000	18.666	0.100
193.100	35.527	0.100
193.200	37.516	0.100
193.300	44.965	0.100
193.400	37.775	0.100
193.500	26.892	0.100
193.600	18.891	0.100
193.700	47.920	0.100
193.800	41.744	0.100
193.900	37.331	0.100
194.000	36.638	0.100
194.100	45.848	0.100
194.200	50.493	0.100
194.300	30.203	0.100
194.400	31.699	0.100
194.500	29.271	0.100
194.600	44.399	0.100
194.700	38.726	0.100
194.800	38.313	0.100
194.900	35.573	0.100
195.000	44.108	0.100
195.100	50.022	0.100
195.200	37.121	0.100
195.300	41.631	0.100
195.400	36.117	0.100
195.500	37.006	0.100
195.600	49.397	0.100
195.700	40.009	0.100
195.800	44.970	0.100
195.900	39.646	0.100
196.000	44.471	0.100
196.100	52.464	0.100
196.200	65.614	0.100
196.300	57.949	0.100
196.400	63.060	0.100
196.500	49.115	0.100
196.600	60.903	0.100
196.700	52.978	0.100
196.800	47.689	0.100
196.900	55.812	0.100
197.000	50.537	0.100
197.100	53.519	0.100
197.200	47.756	0.100
197.300	45.708	0.100
197.400	61.268	0.100
197.500	48.541	0.100
197.600	55.138	0.100
197.700	49.383	0.100
197.800	38.473	0.100
197.900	54.179	0.100
198.000	43.297	0.100
198.100	61.728	0.100
198.200	54.141	0.100
198.300	59.076	0.100
198.400	52.660	0.100
198.500	44.966	0.100
198.600	41.010	0.100
198.700	41.490	0.100
198.800	65.299	0.100
198.900	50.505	0.100
199.000	70.373	0.100
199.100	54.564	0.100
199.200	53.364	0.100
199.300	54.733	0.100
199.400	52.811	0.100
199.500	60.831	0.100
199.600	60.475	0.100
199.700	61.921	0.100
199.800	57.135	0.100
199.900	52.674	0.100
200.000	58.709	0.100
200.100	57.264	0.100
200.200	69.612	0.100
200.300	60.162	0.100
200.400	59.172	0.100
200.500	56.903	0.100
200.600	51.288	0.100
200.700	69.346	0.100
200.800	52.978	0.100
200.900	66.595	0.100
201.000	41.525	0.100
201.100	66.028	0.100
201.200	44.510	0.100
201.300	55.377	0.100
201.400	58.745	0.100
201.500	60.411	0.100
201.600	63.437	0.100
201.700	68.347	0.100
201.800	65.200	0.100
201.900	66.650	0.100
202.000	63.684	0.100
202.100	69.225	0.100
202.200	72.937	0.100
202.300	50.861	0.100
202.400	69.158	0.100
202.500	53.758	0.100
202.600	60.334	0.100
202.700	44.280	0.100
202.800	65.661	0.100
202.900	70.327	0.100
203.000	57.291	0.100
203.100	74.046	0.100
203.200	66.745	0.100
203.300	58.188	0.100
203.400	60.619	0.100
203.500	60.707	0.100
203.600	64.740	0.100
203.700	65.135	0.100
203.800	68.798	0.100
203.900	61.357	0.100
204.000	62.344	0.100
204.100	77.960	0.100
204.200	63.727	0.100
204.300	61.099	0.100
204.400	69.999	0.100
204.500	54.566	0.100
204.600	77.086	0.100
204.700	72.467	0.100
204.800	41.175	0.100
204.900	66.581	0.100
205.000	62.249	0.100
205.100	82.435	0.100
205.200	69.222	0.100
205.300	62.263	0.100
205.400	57.780	0.100
205.500	74.748	0.100
205.600	69.359	0.100
205.700	51.586	0.100
205.800	65.145	0.100
205.900	57.003	0.100
206.000	87.752	0.100
206.100	70.924	0.100
206.200	82.405	0.100
206.300	79.625	0.100
206.400	67.766	0.100
206.500	41.686	0.100
206.600	66.135	0.100
206.700	60.693	0.100
206.800	58.863	0.100
206.900	76.145	0.100
207.000	64.597	0.100
207.100	71.371	0.100
207.200	61.335	0.100
207.300	74.106	0.100
207.400	77.387	0.100
207.500	67.924	0.100
207.600	72.835	0.100
207.700	71.739	0.100
207.800	66.379	0.100
207.900	65.287	0.100
208.000	71.382	0.100
208.100	71.696	0.100
208.200	50.280	0.100
208.300	63.716	0.100
208.400	88.615	0.100
208.500	64.550	0.100
208.600	58.096	0.100
208.700	66.653	0.100
208.800	65.232	0.100
208.900	71.017	0.100
209.000	81.890	0.100
209.100	68.425	0.100
209.200	73.456	0.100
209.300	67.015	0.100
209.400	64.620	0.100
209.500	71.210	0.100
209.600	60.918	0.100
209.700	54.633	0.100
209.800	55.875	0.100
209.900	79.738	0.100
210.000	89.917	0.100
210.100	68.341	0.100
210.200	50.037	0.100
210.300	65.085	0.100
210.400	59.313	0.100
210.500	71.348	0.100
210.600	76.534	0.100
210.700	73.142	0.100
210.800	55.501	0.100
210.900	64.426	0.100
211.000	68.178	0.100
211.100	77.374	0.100
211.200	62.759	0.100
211.300	68.485	0.100
211.400	58.525	0.100
211.500	75.728	0.100
211.600	63.667	0.100
211.700	62.137	0.100
211.800	71.952	0.100
211.900	60.983	0.100
212.000	63.871	0.100
212.100	75.802	0.100
212.200	69.380	0.100
212.300	64.754	0.100
212.400	54.494	0.100
212.500	59.885	0.100
212.600	66.028	0.100
212.700	61.232	0.100
212.800	54.472	0.100
212.900	88.001	0.100
213.000	63.281	0.100
213.100	69.261	0.100
213.200	73.088	0.100
213.300	73.393	0.100
213.400	65.309	0.100
213.500	69.918	0.100
213.600	77.388	0.100
213.700	65.414	0.100
213.800	81.158	0.100
213.900	74.376	0.100
214.000	64.866	0.100
214.100	63.285	0.100
214.200	76.346	0.100
214.300	78.245	0.100
214.400	82.215	0.100
214.500	56.157	0.100
214.600	62.893	0.100
214.700	66.307	0.100
214.800	64.338	0.100
214.900	60.483	0.100
215.000	62.160	0.100
215.100	70.117	0.100
215.200	56.687	0.100
215.300	65.489	0.100
215.400	58.958	0.100
215.500	47.741	0.100
215.600	60.483	0.099
215.700	67.823	0.099
215.800	61.715	0.099
215.900	66.651	0.099
216.000	68.589	0.099
216.100	67.432	0.099
216.200	70.367	0.099
216.300	61.263	0.099
216.400	55.738	0.099
216.500	45.837	0.099
216.600	58.202	0.099
216.700	59.445	0.099
216.800	74.497	0.099
216.900	48.882	0.099
217.000	69.800	0.099
217.100	56.582	0.099
217.200	48.869	0.099
217.300	60.866	0.099
217.400	64.519	0.099
217.500	68.023	0.099
217.600	52.456	0.099
217.700	56.157	0.099
217.800	56.286	0.099
217.900	64.075	0.099
218.000	72.912	0.099
218.100	71.624	0.099
218.200	66.244	0.099
218.300	47.018	0.099
218.400	60.451	0.099
218.500	68.750	0.099
218.600	65.525	0.099
218.700	49.624	0.099
218.800	65.013	0.099
218.900	57.181	0.099
219.000	72.650	0.099
219.100	60.259	0.099
219.200	55.925	0.099
219.300	57.058	0.099
219.400	65.177	0.099
219.500	56.339	0.099
219.600	53.149	0.099
219.700	53.716	0.099
219.800	64.269	0.099
219.900	75.181	0.099
220.000	68.261	0.099
220.100	55.616	0.099
220.200	65.040	0.099
220.300	63.003	0.099
220.400	52.794	0.099
220.500	57.374	0.099
220.600	64.219	0.099
220.700	60.368	0.099
220.800	56.384	0.099
220.900	57.780	0.099
221.000	57.592	0.099
221.100	62.650	0.099
221.200	70.449	0.099
221.300	60.717	0.099
221.400	43.754	0.099
221.500	54.649	0.099
221.600	55.524	0.099
221.700	42.409	0.099
221.800	70.398	0.099
221.900	60.739	0.099
222.000	61.996	0.099
222.100	40.800	0.099
222.200	48.514	0.099
222.300	57.753	0.099
222.400	67.953	0.099
222.500	64.562	0.099
222.600	53.968	0.099
222.700	41.436	0.099
222.800	44.770	0.099
222.900	63.579	0.099
223.000	51.849	0.099
223.100	62.778	0.099
223.200	59.192	0.099
223.300	59.261	0.099
223.400	67.177	0.099
223.500	50.579	0.099
223.600	60.543	0.099
223.700	54.373	0.099
223.800	34.682	0.099
223.900	70.081	0.099
224.000	44.927	0.099
224.100	39.727	0.099
224.200	62.069	0.099
224.300	58.735	0.099
224.400	61.806	0.099
224.500	49.964	0.099
224.600	54.107	0.099
224.700	51.336	0.099
224.800	53.923	0.099
224.900	57.595	0.099
225.000	47.812	0.099
225.100	68.471	0.099
225.200	51.704	0.099
225.300	58.905	0.099
225.400	67.470	0.099
225.500	56.454	0.099
225.600	50.309	0.099
225.700	52.013	0.099
225.800	57.201	0.099
225.900	54.207	0.099
226.000	58.982	0.099
226.100	63.552	0.099
226.200	48.859	0.099
226.300	41.324	0.099
226.400	39.638	0.099
226.500	59.943	0.099
226.600	60.750	0.099
226.700	52.294	0.099
226.800	58.079	0.099
226.900	50.672	0.099
227.000	58.925	0.099
227.100	46.849	0.099
227.200	62.074	0.099
227.300	58.203	0.099
227.400	61.807	0.099
227.500	60.766	0.099
227.600	44.367	0.099
227.700	59.807	0.099
227.800	52.847	0.099
227.900	64.200	0.099
228.000	61.996	0.099
228.100	57.771	0.099
228.200	55.964	0.099
228.300	51.440	0.099
228.400	49.538	0.099
228.500	61.374	0.099
228.600	57.602	0.099
228.700	62.476	0.099
228.800	45.345	0.099
228.900	51.428	0.099
229.000	49.596	0.099
229.100	67.639	0.099
229.200	44.231	0.099
229.300	45.406	0.099
229.400	43.256	0.099
229.500	62.154	0.099
229.600	66.789	0.099
229.700	69.460	0.099
229.800	54.593	0.099
229.900	56.522	0.099
230.000	49.130	0.099
230.100	55.829	0.099
230.200	72.490	0.099
230.300	66.377	0.099
230.400	44.966	0.099
230.500	47.257	0.099
230.600	60.409	0.099
230.700	50.163	0.099
230.800	49.510	0.099
230.900	61.297	0.099
231.000	59.680	0.099
231.100	51.547	0.099
231.200	62.010	0.099
231.300	61.625	0.099
231.400	73.231	0.099
231.500	60.132	0.099
231.600	54.546	0.099
231.700	53.658	0.099
231.800	52.610	0.099
231.900	51.374	0.099
232.000	49.174	0.099
232.100	46.273	0.099
232.200	46.069	0.099
232.300	59.660	0.099
232.400	63.632	0.100
232.500	64.856	0.100
232.600	78.990	0.100
232.700	59.519	0.100
232.800	58.820	0.100
232.900	70.058	0.100
233.000	72.825	0.100
233.100	59.137	0.100
233.200	59.065	0.100
233.300	69.497	0.100
233.400	45.833	0.100
233.500	75.093	0.100
233.600	59.387	0.100
233.700	59.939	0.100
233.800	66.632	0.100
233.900	60.868	0.100
234.000	62.212	0.100
234.100	60.259	0.100
234.200	59.969	0.100
234.300	61.766	0.100
234.400	62.742	0.100
234.500	59.194	0.100
234.600	49.657	0.100
234.700	55.648	0.100
234.800	74.641	0.100
234.900	45.310	0.100
235.000	58.262	0.100
235.100	54.612	0.100
235.200	58.928	0.100
235.300	48.291	0.100
235.400	57.388	0.100
235.500	73.971	0.100
235.600	70.879	0.100
235.700	66.573	0.100
235.800	51.055	0.100
235.900	48.661	0.100
236.000	50.105	0.100
236.100	44.393	0.100
236.200	41.177	0.100
236.300	56.853	0.100
236.400	58.294	0.100
236.500	63.113	0.100
236.600	73.585	0.100
236.700	64.387	0.100
236.800	68.076	0.100
236.900	62.848	0.100
237.000	74.446	0.100
237.100	59.258	0.100
237.200	72.096	0.100
237.300	65.119	0.100
237.400	67.163	0.100
237.500	63.429	0.100
237.600	62.148	0.100
237.700	69.472	0.100
237.800	63.207	0.100
237.900	63.825	0.100
238.000	66.380	0.100
238.100	56.654	0.100
238.200	58.412	0.100
238.300	55.921	0.100
238.400	53.758	0.100
238.500	64.114	0.100
238.600	54.770	0.100
238.700	59.897	0.100
238.800	49.502	0.100
238.900	60.135	0.100
239.000	50.480	0.100
239.100	49.133	0.100
239.200	58.605	0.100
239.300	56.059	0.100
239.400	63.645	0.100
239.500	59.505	0.100
239.600	65.807	0.100
239.700	77.728	0.100
239.800	59.468	0.100
239.900	62.235	0.100
240.000	70.041	0.100
240.100	79.015	0.100
240.200	47.839	0.100
240.300	64.841	0.100
240.400	65.097	0.100
240.500	66.894	0.100
240.600	42.984	0.100
240.700	52.562	0.100
240.800	40.883	0.100
240.900	53.491	0.100
241.000	55.042	0.100
241.100	60.071	0.100
241.200	62.146	0.100
241.300	61.211	0.100
241.400	43.556	0.100
241.500	45.584	0.100
241.600	43.935	0.100
241.700	25.708	0.100
241.800	46.228	0.100
241.900	35.737	0.100
242.000	44.315	0.100
242.100	44.430	0.100
242.200	33.641	0.100
242.300	40.605	0.100
242.400	31.509	0.100
242.500	39.249	0.100
242.600	34.946	0.100
242.700	23.600	0.100
242.800	12.833	0.100
242.900	28.429	0.100
243.000	32.402	0.100
243.100	42.226	0.100
243.200	23.289	0.100
243.300	25.624	0.100
243.400	33.934	0.100
243.500	32.841	0.100
243.600	33.128	0.100
243.700	34.797	0.100
243.800	13.120	0.100
243.900	6.031	0.100
244.000	12.316	0.100
244.100	8.524	0.100
244.200	36.548	0.100
244.300	17.784	0.100
244.400	11.234	0.100
244.500	17.012	0.100
244.600	12.286	0.100
244.700	4.268	0.100
244.800	0.828	0.100
244.900	25.736	0.100
245.000	20.544	0.100
245.100	27.594	0.100
245.200	13.218	0.100
245.300	12.390	0.100
245.400	-7.684	0.100
245.500	4.538	0.100
245.600	22.814	0.100
245.700	5.065	0.100
245.800	13.809	0.100
245.900	4.241	0.100
246.000	2.018	0.100
246.100	-5.993	0.100
246.200	8.387	0.100
246.300	6.496	0.100
246.400	12.799	0.100
246.500	9.609	0.100
246.600	8.417	0.100
246.700	13.650	0.100
246.800	14.660	0.100
246.900	5.390	0.100
247.000	-5.080	0.100
247.100	5.085	0.100
247.200	-6.721	0.100
247.300	15.413	0.100
247.400	11.613	0.100
247.500	-8.251	0.100
247.600	8.538	0.100
247.700	-4.385	0.100
247.800	-0.844	0.100
247.900	7.765	0.100
248.000	-4.152	0.100
248.100	8.072	0.100
248.200	13.808	0.100
248.300	-5.487	0.100
248.400	-14.113	0.100
248.500	-7.394	0.100
248.600	-0.850	0.100
248.700	-15.053	0.100
248.800	6.318	0.100
248.900	5.820	0.100
249.000	-4.393	0.100
249.100	-10.311	0.100
249.200	-0.559	0.100
249.300	11.357	0.100
249.400	2.076	0.100
249.500	5.222	0.100
249.600	-1.079	0.100
249.700	4.693	0.100
249.800	0.016	0.100
249.900	-12.505	0.100
250.000	12.526	0.100
250.100	-10.066	0.100
250.200	-3.143	0.100
250.300	-27.790	0.100
250.400	-3.226	0.100
250.500	-8.723	0.100
250.600	4.652	0.100
250.700	4.250	0.100
250.800	-12.286	0.100
250.900	-23.624	0.100
251.000	-10.840	0.100
251.100	-3.366	0.100
251.200	-0.179	0.100
251.300	-8.345	0.100
251.400	-4.167	0.100
251.500	2.105	0.100
251.600	-13.574	0.100
251.700	-11.616	0.100
251.800	2.896	0.100
251.900	-7.696	0.100
252.000	-8.040	0.100
252.100	-3.985	0.100
252.200	-10.902	0.100
252.300	-0.147	0.100
252.400	-10.019	0.100
252.500	-2.719	0.100
252.600	3.263	0.100
252.700	-1.644	0.100
252.800	-4.788	0.100
252.900	-5.841	0.100
253.000	-7.215	0.100
253.100	-19.757	0.100
253.200	-14.089	0.100
253.300	-14.880	0.100
253.400	-0.235	0.100
253.500	-15.772	0.100
253.600	-0.962	0.100
253.700	-12.588	0.100
253.800	-15.070	0.100
253.900	-2.553	0.100
254.000	-4.879	0.100
254.100	-0.573	0.100
254.200	0.335	0.100
254.300	-8.870	0.100
254.400	-10.192	0.100
254.500	4.294	0.100
254.600	-10.397	0.100
254.700	-14.929	0.100
254.800	-6.194	0.100
254.900	-10.643	0.100
255.000	-16.367	0.100
255.100	-8.642	0.100
255.200	-12.321	0.100
255.300	-15.275	0.100
255.400	-14.981	0.100
255.500	-5.257	0.100
255.600	3.338	0.100
255.700	-27.885	0.100
255.800	-7.984	0.100
255.900	-11.757	0.100
256.000	-15.842	0.100
256.100	-17.625	0.100
256.200	-1.252	0.100
256.300	-1.454	0.100
256.400	-2.004	0.100
256.500	-14.133	0.100
256.600	-7.322	0.100
256.700	-13.011	0.100
256.800	-18.704	0.100
256.900	-18.812	0.100
257.000	-21.131	0.100
257.100	-3.712	0.100
257.200	-25.012	0.100
257.300	-7.408	0.100
257.400	-21.246	0.100
257.500	0.951	0.100
257.600	-6.283	0.100
257.700	-22.356	0.100
257.800	-8.047	0.100
257.900	-11.234	0.100
258.000	-14.838	0.100
258.100	-10.180	0.100
258.200	-15.093	0.100
258.300	-12.894	0.100
258.400	-13.094	0.100
258.500	-12.810	0.100
258.600	-14.562	0.100
258.700	-7.843	0.100
258.800	-15.936	0.100
258.900	-20.085	0.100
259.000	-3.885	0.100
259.100	-1.054	0.100
259.200	-11.069	0.100
259.300	-20.251	0.100
259.400	-12.881	0.100
259.500	-10.655	0.100
259.600	-14.102	0.100
259.700	-9.939	0.100
259.800	-21.445	0.100
259.900	-10.626	0.100
260.000	-24.528	0.100
260.100	-5.782	0.100
260.200	-2.846	0.100
260.300	-11.312	0.100
260.400	-25.462	0.100
260.500	-26.338	0.100
260.600	-14.176	0.100
260.700	-10.750	0.100
260.800	-5.063	0.100
260.900	-11.437	0.100
261.000	-16.521	0.100
261.100	-16.595	0.100
261.200	-22.500	0.100
261.300	-18.235	0.100
261.400	-13.324	0.100
261.500	-9.640	0.100
261.600	-16.199	0.100
261.700	-17.827	0.100
261.800	-13.342	0.100
261.900	-28.497	0.100
262.000	-25.488	0.100
262.100	-17.906	0.100
262.200	-9.850	0.100
262.300	-7.781	0.100
262.400	-20.173	0.100
262.500	-26.131	0.100
262.600	-30.169	0.100
262.700	-22.909	0.100
262.800	-11.067	0.100
262.900	-13.054	0.100
263.000	-31.195	0.100
263.100	-16.475	0.100
263.200	-14.579	0.100
263.300	-8.355	0.100
263.400	-15.976	0.100
263.500	-24.959	0.100
263.600	-23.530	0.100
263.700	-12.940	0.100
263.800	-21.100	0.100
263.900	-28.389	0.100
264.000	-17.691	0.100
264.100	-22.435	0.100
264.200	-15.467	0.100
264.300	-27.165	0.100
264.400	-23.378	0.100
264.500	-21.985	0.100
264.600	-31.233	0.100
264.700	-1.129	0.100
264.800	-11.639	0.100
264.900	-32.666	0.100
265.000	-11.910	0.100
265.100	-18.125	0.100
265.200	-6.493	0.100
265.300	-31.739	0.100
265.400	-5.808	0.100
265.500	-21.203	0.100
265.600	-25.698	0.100
265.700	-19.152	0.100
265.800	-21.536	0.100
265.900	-27.382	0.100
266.000	-22.071	0.100
266.100	-16.595	0.100
266.200	-35.550	0.100
266.300	-21.267	0.100
266.400	-24.037	0.100
266.500	-16.704	0.100
266.600	-22.486	0.100
266.700	-24.976	0.100
266.800	-19.710	0.100
266.900	-17.581	0.100
267.000	-28.613	0.100
267.100	-4.177	0.100
267.200	-18.652	0.100
267.300	-24.519	0.100
267.400	-17.728	0.100
267.500	-23.095	0.100
267.600	-25.052	0.100
267.700	-18.221	0.100
267.800	-28.178	0.100
267.900	-15.044	0.100
268.000	-23.538	0.100
268.100	-40.454	0.100
268.200	-18.640	0.100
268.300	-23.292	0.100
268.400	-9.898	0.100
268.500	-21.733	0.100
268.600	-25.101	0.100
268.700	-40.950	0.100
268.800	-34.389	0.100
268.900	-28.118	0.100
269.000	-38.217	0.100
269.100	-15.079	0.100
269.200	-23.502	0.100
269.300	-26.020	0.100
269.400	-38.372	0.100
269.500	-27.353	0.100
269.600	-38.787	0.100
269.700	-32.079	0.100
269.800	-19.520	0.100
269.900	-40.924	0.100
270.000	-23.089	0.100
270.100	-26.039	0.100
270.200	-28.728	0.100
270.300	-16.357	0.100
270.400	-21.445	0.100
270.500	-34.238	0.100
270.600	-31.124	0.100
270.700	-29.018	0.100
270.800	-14.834	0.100
270.900	-33.913	0.100
271.000	-30.364	0.100
271.100	-33.319	0.100
271.200	-31.544	0.100
271.300	-20.752	0.100
271.400	-18.094	0.100
271.500	-19.132	0.100
271.600	-18.658	0.100
271.700	-29.389	0.100
271.800	-27.103	0.100
271.900	-34.500	0.100
272.000	-39.667	0.100
272.100	-35.102	0.100
272.200	-15.235	0.100
272.300	-18.056	0.100
272.400	-39.667	0.100
272.500	-29.544	0.100
272.600	-36.283	0.100
272.700	-23.674	0.100
272.800	-34.576	0.100
272.900	-32.623	0.100
273.000	-27.206	0.100
273.100	-24.411	0.100
273.200	-26.099	0.100
273.300	-23.226	0.100
273.400	-51.885	0.100
273.500	-37.943	0.100
273.600	-28.603	0.100
273.700	-28.438	0.100
273.800	-18.212	0.100
273.900	-22.511	0.100
274.000	-24.969	0.100
274.100	-28.055	0.100
274.200	-24.526	0.100
274.300	-36.635	0.100
274.400	-34.595	0.100
274.500	-12.750	0.100
274.600	-22.610	0.100
274.700	-26.548	0.100
274.800	-40.947	0.100
274.900	-18.102	0.100
275.000	-35.832	0.100
275.100	-24.936	0.100
275.200	-23.636	0.100
275.300	-34.586	0.100
275.400	-41.168	0.100
275.500	-20.910	0.100
275.600	-29.013	0.100
275.700	-17.846	0.100
275.800	-25.334	0.100
275.900	-37.377	0.100
276.000	-38.544	0.100
276.100	-31.005	0.100
276.200	-47.746	0.100
276.300	-40.727	0.100
276.400	-20.358	0.100
276.500	-28.227	0.100
276.600	-28.886	0.100
276.700	-21.496	0.100
276.800	-27.102	0.100
276.900	-33.076	0.100
277.000	-16.865	0.100
277.100	-30.746	0.100
277.200	-27.845	0.100
277.300	-19.339	0.100
277.400	-48.868	0.100
277.500	-29.326	0.100
277.600	-30.759	0.100
277.700	-40.745	0.100
277.800	-37.684	0.100
277.900	-35.538	0.100
278.000	-38.633	0.100
278.100	-29.554	0.100
278.200	-31.163	0.100
278.300	-34.845	0.100
278.400	-22.106	0.100
278.500	-23.073	0.100
278.600	-25.897	0.100
278.700	-17.250	0.100
278.800	-42.302	0.100
278.900	-40.967	0.100
279.000	-28.497	0.100
279.100	-24.355	0.100
279.200	-26.090	0.100
279.300	-22.751	0.100
279.400	-26.706	0.100
279.500	-24.615	0.100
279.600	-37.325	0.100
279.700	-44.189	0.100
279.800	-34.549	0.100
279.900	-29.692	0.100
280.000	-40.690	0.100
280.100	-25.718	0.100
280.200	-39.356	0.100
280.300	-22.129	0.100
280.400	-33.931	0.100
280.500	-30.701	0.100
280.600	-21.220	0.100
280.700	-26.210	0.100
280.800	-29.516	0.100
280.900	-39.057	0.100
281.000	-30.658	0.100
281.100	-28.966	0.100
281.200	-43.139	0.100
281.300	-26.657	0.100
281.400	-32.703	0.100
281.500	-22.733	0.100
281.600	-29.118	0.100
281.700	-38.171	0.100
281.800	-35.332	0.100
281.900	-31.998	0.100
282.000	-39.759	0.100
282.100	-30.758	0.100
282.200	-41.222	0.100
282.300	-35.527	0.100
282.400	-27.634	0.100
282.500	-39.350	0.100
282.600	-34.665	0.100
282.700	-36.172	0.100
282.800	-21.316	0.100
282.900	-33.490	0.100
283.000	-38.881	0.100
283.100	-35.619	0.100
283.200	-44.232	0.100
283.300	-30.559	0.100
283.400	-18.444	0.100
283.500	-35.985	0.100
283.600	-39.401	0.100
283.700	-36.643	0.100
283.800	-28.244	0.100
283.900	-34.782	0.100
284.000	-35.649	0.100
284.100	-24.040	0.100
284.200	-37.438	0.100
284.300	-22.529	0.100
284.400	-47.683	0.100
284.500	-48.635	0.100
284.600	-21.249	0.100
284.700	-33.385	0.100
284.800	-27.551	0.100
284.900	-34.011	0.100
285.000	-46.834	0.100
285.100	-36.747	0.100
285.200	-43.806	0.100
285.300	-26.722	0.100
285.400	-22.785	0.100
285.500	-23.746	0.100
285.600	-54.715	0.100
285.700	-22.011	0.100
285.800	-37.374	0.100
285.900	-44.628	0.100
286.000	-33.962	0.100
286.100	-41.105	0.100
286.200	-33.739	0.100
286.300	-26.633	0.100
286.400	-41.904	0.100
286.500	-30.542	0.100
286.600	-38.328	0.100
286.700	-36.083	0.100
286.800	-26.921	0.100
286.900	-23.174	0.100
287.000	-38.346	0.100
287.100	-34.212	0.100
287.200	-38.252	0.100
287.300	-27.310	0.100
287.400	-28.445	0.100
287.500	-23.271	0.100
287.600	-31.800	0.100
287.700	-44.180	0.100
287.800	-45.824	0.100
287.900	-30.667	0.100
288.000	-37.020	0.100
288.100	-27.283	0.100
288.200	-28.581	0.100
288.300	-26.883	0.100
288.400	-23.873	0.100
288.500	-35.088	0.100
288.600	-41.792	0.100
288.700	-48.121	0.100
288.800	-28.852	0.100
288.900	-27.948	0.100
289.000	-27.735	0.100
289.100	-32.922	0.100
289.200	-49.403	0.100
289.300	-21.758	0.100
289.400	-25.944	0.100
289.500	-34.353	0.100
289.600	-45.158	0.100
289.700	-26.648	0.100
289.800	-20.072	0.100
289.900	-22.833	0.100
290.000	-26.717	0.100
290.100	-41.758	0.100
290.200	-27.825	0.100
290.300	-23.610	0.100
290.400	-41.984	0.100
290.500	-41.456	0.100
290.600	-47.061	0.100
290.700	-9.894	0.100
290.800	-26.734	0.100
290.900	-41.492	0.100
291.000	-34.458	0.100
291.100	-36.792	0.100
291.200	-33.114	0.100
291.300	-45.664	0.100
291.400	-29.981	0.100
291.500	-30.542	0.100
291.600	-23.999	0.100
291.700	-36.551	0.100
291.800	-29.282	0.100
291.900	-23.801	0.100
292.000	-31.236	0.100
292.100	-31.129	0.100
292.200	-20.599	0.100
292.300	-54.371	0.100
292.400	-43.216	0.100
292.500	-22.494	0.100
292.600	-29.252	0.100
292.700	-41.994	0.100
292.800	-20.173	0.100
292.900	-37.555	0.100
293.000	-25.492	0.100
293.100	-35.424	0.100
293.200	-33.157	0.100
293.300	-41.530	0.100
293.400	-32.830	0.100
293.500	-38.117	0.100
293.600	-43.333	0.100
293.700	-31.452	0.100
293.800	-21.996	0.100
293.900	-42.741	0.100
294.000	-33.050	0.100
294.100	-23.515	0.100
294.200	-36.422	0.100
294.300	-40.584	0.100
294.400	-38.349	0.100
294.500	-23.072	0.100
294.600	-21.200	0.100
294.700	-26.389	0.100
294.800	-38.643	0.100
294.900	-39.442	0.100
295.000	-31.503	0.100
295.100	-38.465	0.100
295.200	-23.624	0.100
295.300	-33.102	0.100
295.400	-44.134	0.100
295.500	-23.502	0.100
295.600	-30.618	0.100
295.700	-34.267	0.100
295.800	-33.606	0.100
295.900	-43.866	0.100
296.000	-30.157	0.100
296.100	-37.242	0.100
296.200	-38.749	0.100
296.300	-38.620	0.100
296.400	-28.055	0.100
296.500	-40.760	0.100
296.600	-38.217	0.100
296.700	-41.281	0.100
296.800	-20.544	0.100
296.900	-45.023	0.100
297.000	-32.446	0.100
297.100	-23.437	0.100
297.200	-27.778	0.100
297.300	-32.466	0.100
297.400	-39.183	0.100
297.500	-31.639	0.100
297.600	-22.670	0.100
297.700	-41.930	0.100
297.800	-28.727	0.100
297.900	-33.338	0.100
298.000	-49.383	0.100
298.100	-29.775	0.100
298.200	-46.797	0.100
298.300	-39.350	0.100
298.400	-37.046	0.100
298.500	-46.785	0.100
298.600	-32.538	0.100
298.700	-30.284	0.100
298.800	-38.892	0.100
298.900	-33.471	0.100
299.000	-30.598	0.100
299.100	-28.676	0.100
299.200	-30.129	0.100
299.300	-18.747	0.100
299.400	-30.979	0.100
299.500	-30.013	0.100
299.600	-39.752	0.100
299.700	-34.143	0.100
299.800	-39.701	0.100
299.900	-37.158	0.100
300.000	-37.909	0.100
300.100	-35.932	0.100
300.200	-11.772	0.100
300.300	-35.812	0.100
300.400	-33.125	0.100
300.500	-34.684	0.100
300.600	-56.393	0.100
300.700	-26.337	0.100
300.800	-27.884	0.100
300.900	-31.480	0.100
301.000	-32.231	0.100
301.100	-37.875	0.100
301.200	-35.231	0.100
301.300	-61.924	0.100
301.400	-30.551	0.100
301.500	-32.852	0.100
301.600	-23.783	0.100
301.700	-28.699	0.100
301.800	-26.515	0.100
301.900	-15.353	0.100
302.000	-31.610	0.100
302.100	-36.221	0.100
302.200	-28.129	0.100
302.300	-18.134	0.100
302.400	-38.666	0.100
302.500	-33.693	0.100
302.600	-35.210	0.100
302.700	-38.093	0.100
302.800	-38.588	0.100
302.900	-6.093	0.100
303.000	-36.994	0.100
303.100	-39.108	0.100
303.200	-32.875	0.100
303.300	-26.458	0.100
303.400	-42.724	0.100
303.500	-39.551	0.100
303.600	-30.916	0.100
303.700	-31.438	0.100
303.800	-22.997	0.100
303.900	-48.727	0.100
304.000	-28.613	0.100
304.100	-14.179	0.100
304.200	-33.214	0.100
304.300	-40.369	0.100
304.400	-29.492	0.100
304.500	-33.318	0.100
304.600	-48.233	0.100
304.700	-31.610	0.100
304.800	-26.036	0.100
304.900	-37.210	0.100
305.000	-24.373	0.100
305.100	-26.709	0.100
305.200	-33.882	0.100
305.300	-43.098	0.100
305.400	-31.984	0.100
305.500	-42.230	0.100
305.600	-26.325	0.100
305.700	-18.894	0.100
305.800	-26.855	0.100
305.900	-30.231	0.100
306.000	-38.626	0.100
306.100	-31.164	0.100
306.200	-39.933	0.100
306.300	-39.568	0.100
306.400	-39.434	0.100
306.500	-23.280	0.100
306.600	-24.226	0.100
306.700	-45.255	0.100
306.800	-30.031	0.100
306.900	-15.254	0.100
307.000	-45.581	0.100
307.100	-34.486	0.100
307.200	-36.563	0.100
307.300	-22.140	0.100
307.400	-23.812	0.100
307.500	-30.059	0.100
307.600	-18.415	0.100
307.700	-33.844	0.100
307.800	-47.045	0.100
307.900	-36.746	0.100
308.000	-37.172	0.100
308.100	-41.657	0.100
308.200	-27.781	0.100
308.300	-24.459	0.100
308.400	-36.539	0.100
308.500	-33.594	0.100
308.600	-20.325	0.100
308.700	-30.077	0.100
308.800	-38.136	0.100
308.900	-28.990	0.100
309.000	-51.879	0.100
309.100	-32.769	0.100
309.200	-21.514	0.100
309.300	-25.699	0.100
309.400	-23.604	0.100
309.500	-37.182	0.100
309.600	-41.619	0.100
309.700	-32.918	0.100
309.800	-25.498	0.100
309.900	-46.170	0.100
310.000	-20.749	0.100
310.100	-24.447	0.100
310.200	-26.625	0.100
310.300	-35.850	0.100
310.400	-29.252	0.100
310.500	-19.997	0.100
310.600	-40.713	0.100
310.700	-28.135	0.100
310.800	-37.702	0.100
310.900	-37.990	0.100
311.000	-26.729	0.100
311.100	-28.672	0.100
311.200	-34.725	0.100
311.300	-28.745	0.100
311.400	-35.803	0.100
311.500	-32.545	0.100
311.600	-24.198	0.100
311.700	-42.681	0.100
311.800	-22.813	0.100
311.900	-48.267	0.100
312.000	-30.198	0.100
312.100	-44.705	0.100
312.200	-29.653	0.100
312.300	-35.861	0.100
312.400	-26.069	0.100
312.500	-33.871	0.100
312.600	-42.535	0.100
312.700	-29.829	0.100
312.800	-26.820	0.100
312.900	-30.364	0.100
313.000	-27.579	0.100
313.100	-23.394	0.100
313.200	-25.584	0.100
313.300	-50.571	0.100
313.400	-45.003	0.100
313.500	-24.051	0.100
313.600	-29.505	0.100
313.700	-33.980	0.100
313.800	-33.387	0.100
313.900	-47.496	0.100
314.000	-27.034	0.100
314.100	-38.593	0.100
314.200	-31.323	0.100
314.300	-38.249	0.100
314.400	-28.340	0.100
314.500	-30.157	0.100
314.600	-29.398	0.100
314.700	-42.224	0.100
314.800	-38.229	0.100
314.900	-20.481	0.100
315.000	-29.768	0.100
315.100	-27.654	0.100
315.200	-33.140	0.100
315.300	-34.440	0.100
315.400	-33.169	0.100
315.500	-36.379	0.100
315.600	-15.321	0.100
315.700	-24.350	0.100
315.800	-35.392	0.100
315.900	-42.666	0.100
316.000	-43.619	0.100
316.100	-36.842	0.100
316.200	-42.393	0.100
316.300	-36.917	0.100
316.400	-26.240	0.100
316.500	-32.309	0.100
316.600	-32.088	0.100
316.700	-29.029	0.100
316.800	-33.908	0.100
316.900	-16.567	0.100
317.000	-40.930	0.100
317.100	-27.670	0.100
317.200	-34.533	0.100
317.300	-32.027	0.100
317.400	-58.949	0.100
317.500	-48.209	0.100
317.600	-19.524	0.100
317.700	-27.683	0.100
317.800	-27.850	0.100
317.900	-20.991	0.100
318.000	-24.148	0.100
318.100	-41.816	0.100
318.200	-45.483	0.100
318.300	-28.376	0.100
318.400	-32.352	0.100
318.500	-29.515	0.100
318.600	-37.300	0.100
318.700	-17.326	0.100
318.800	-38.246	0.100
318.900	-26.355	0.100
319.000	-29.602	0.100
319.100	-30.995	0.100
319.200	-48.880	0.100
319.300	-10.186	0.100
319.400	-26.345	0.100
319.500	-25.169	0.100
319.600	-30.531	0.100
319.700	-26.473	0.100
319.800	-37.799	0.100
319.900	-34.273	0.100
320.000	-56.179	0.100
320.100	-30.825	0.100
320.200	-42.095	0.100
320.300	-17.309	0.100
320.400	-33.148	0.100
320.500	-32.216	0.100
320.600	-29.838	0.100
320.700	-29.548	0.100
320.800	-36.834	0.100
320.900	-29.298	0.100
321.000	-38.156	0.100
321.100	-20.507	0.100
321.200	-37.656	0.100
321.300	-36.195	0.100
321.400	-36.634	0.100
321.500	-25.327	0.100
321.600	-28.351	0.100
321.700	-33.155	0.100
321.800	-34.103	0.100
321.900	-42.178	0.100
322.000	-22.573	0.100
322.100	-32.042	0.100
322.200	-20.870	0.100
322.300	-22.696	0.100
322.400	-35.479	0.100
322.500	-26.752	0.100
322.600	-33.206	0.100
322.700	-31.836	0.100
322.800	-24.568	0.100
322.900	-26.490	0.100
323.000	-24.796	0.100
323.100	-51.082	0.100
323.200	-23.131	0.100
323.300	-30.083	0.100
323.400	-26.812	0.100
323.500	-32.032	0.100
323.600	-32.677	0.100
323.700	-48.200	0.100
323.800	-12.609	0.100
323.900	-35.683	0.100
324.000	-33.382	0.100
324.100	-34.394	0.100
324.200	-33.215	0.100
324.300	-32.481	0.100
324.400	-28.514	0.100
324.500	-23.135	0.100
324.600	-25.997	0.100
324.700	-26.050	0.100
324.800	-29.423	0.100
324.900	-49.581	0.100
325.000	-33.217	0.100
325.100	-37.596	0.100
325.200	-27.730	0.100
325.300	-22.839	0.100
325.400	-30.099	0.100
325.500	-31.189	0.100
325.600	-13.399	0.100
325.700	-28.696	0.100
325.800	-27.011	0.100
325.900	-38.686	0.100
326.000	-15.249	0.100
326.100	-24.873	0.100
326.200	-36.143	0.100
326.300	-32.955	0.100
326.400	-33.542	0.100
326.500	-22.178	0.100
326.600	-27.350	0.100
326.700	-29.840	0.100
326.800	-25.429	0.100
326.900	-38.867	0.100
327.000	-33.756	0.100
327.100	-19.974	0.100
327.200	-11.090	0.100
327.300	-30.511	0.100
327.400	-27.411	0.100
327.500	-32.502	0.100
327.600	-37.904	0.100
327.700	-19.535	0.100
327.800	-21.408	0.100
327.900	-24.218	0.100
328.000	-29.650	0.100
328.100	-34.641	0.100
328.200	-22.669	0.100
328.300	-27.120	0.100
328.400	-32.604	0.100
328.500	-34.621	0.100
328.600	-30.942	0.100
328.700	-38.752	0.100
328.800	-23.501	0.100
328.900	-26.145	0.100
329.000	-29.673	0.100
329.100	-41.131	0.100
329.200	-23.619	0.100
329.300	-26.322	0.100
329.400	-35.105	0.100
329.500	-31.006	0.100
329.600	-25.575	0.100
329.700	-33.500	0.100
329.800	-26.092	0.100
329.900	-38.656	0.100
330.000	-27.286	0.100
330.100	-24.658	0.100
330.200	-32.256	0.100
330.300	-29.866	0.100
330.400	-22.075	0.100
330.500	-18.534	0.100
330.600	-15.080	0.100
330.700	-20.725	0.100
330.800	-30.428	0.100
330.900	-26.883	0.100
331.000	-39.157	0.100
331.100	-27.910	0.100
331.200	-10.549	0.100
331.300	-10.836	0.100
331.400	-20.472	0.100
331.500	-19.575	0.100
331.600	-8.500	0.100
331.700	-24.602	0.100
331.800	-10.305	0.100
331.900	-12.468	0.100
332.000	-2.717	0.100
332.100	-13.083	0.100
332.200	-14.176	0.100
332.300	-6.041	0.100
332.400	4.322	0.100
332.500	-0.859	0.100
332.600	-11.227	0.100
332.700	-5.884	0.100
332.800	-18.143	0.100
332.900	-15.619	0.100
333.000	8.136	0.100
333.100	6.782	0.100
333.200	-12.499	0.100
333.300	-3.375	0.100
333.400	-12.548	0.100
333.500	14.691	0.100
333.600	-4.942	0.100
333.700	-0.096	0.100
333.800	8.081	0.100
333.900	-9.166	0.100
334.000	-12.982	0.100
334.100	-5.703	0.100
334.200	9.214	0.100
334.300	3.123	0.100
334.400	-5.444	0.100
334.500	-1.603	0.100
334.600	-4.784	0.100
334.700	-0.441	0.100
334.800	1.990	0.100
334.900	19.518	0.100
335.000	-5.375	0.100
335.100	-8.995	0.100
335.200	13.155	0.100
335.300	3.250	0.100
335.400	2.513	0.100
335.500	2.620	0.100
335.600	-5.532	0.100
335.700	-0.770	0.100
335.800	7.782	0.100
335.900	-2.195	0.100
336.000	6.212	0.100
336.100	-1.281	0.100
336.200	-0.550	0.100
336.300	-1.206	0.100
336.400	20.435	0.100
336.500	1.879	0.100
336.600	6.605	0.100
336.700	16.196	0.100
336.800	13.840	0.100
336.900	-6.806	0.100
337.000	3.382	0.100
337.100	10.759	0.100
337.200	-5.228	0.100
337.300	11.978	0.100
337.400	7.233	0.100
337.500	26.422	0.100
337.600	-6.781	0.100
337.700	-1.209	0.100
337.800	5.145	0.100
337.900	17.593	0.100
338.000	14.844	0.100
338.100	6.533	0.100
338.200	3.281	0.100
338.300	-19.604	0.100
338.400	20.450	0.100
338.500	18.620	0.100
338.600	11.821	0.100
338.700	15.864	0.100
338.800	4.317	0.100
338.900	39.690	0.100
339.000	24.764	0.100
339.100	17.065	0.100
339.200	-8.680	0.100
339.300	16.688	0.100
339.400	18.963	0.100
339.500	14.306	0.100
339.600	9.145	0.100
339.700	3.896	0.100
339.800	1.202	0.100
339.900	20.915	0.100
340.000	15.923	0.100
340.100	22.837	0.100
340.200	1.721	0.100
340.300	9.148	0.100
340.400	30.115	0.100
340.500	17.026	0.100
340.600	12.867	0.100
340.700	15.677	0.100
340.800	28.296	0.100
340.900	19.086	0.100
341.000	22.711	0.100
341.100	19.078	0.100
341.200	11.424	0.100
341.300	14.764	0.100
341.400	14.130	0.100
341.500	8.418	0.100
341.600	8.987	0.100
341.700	20.737	0.100
341.800	35.326	0.100
341.900	27.218	0.100
342.000	29.381	0.100
342.100	23.337	0.100
342.200	13.694	0.100
342.300	22.983	0.100
342.400	25.774	0.100
342.500	13.146	0.100
342.600	17.933	0.100
342.700	15.808	0.100
342.800	18.862	0.100
342.900	20.128	0.100
343.000	28.504	0.100
343.100	18.220	0.100
343.200	17.916	0.100
343.300	32.708	0.100
343.400	37.320	0.100
343.500	22.694	0.100
343.600	29.212	0.100
343.700	32.337	0.100
343.800	27.934	0.100
343.900	15.123	0.100
344.000	21.209	0.100
344.100	12.503	0.100
344.200	21.440	0.100
344.300	33.129	0.100
344.400	27.974	0.100
344.500	22.480	0.100
344.600	34.314	0.100
344.700	29.683	0.100
344.800	29.085	0.100
344.900	27.606	0.100
345.000	11.015	0.100
345.100	14.093	0.100
345.200	16.015	0.100
345.300	41.206	0.100
345.400	37.877	0.100
345.500	17.327	0.100
345.600	26.698	0.100
345.700	38.157	0.100
345.800	33.419	0.100
345.900	24.828	0.100
346.000	36.603	0.100
346.100	35.884	0.100
346.200	48.826	0.100
346.300	40.007	0.100
346.400	30.522	0.100
346.500	40.837	0.100
346.600	34.109	0.100
346.700	45.560	0.100
346.800	42.394	0.100
346.900	29.809	0.100
347.000	25.290	0.100
347.100	31.182	0.100
347.200	47.957	0.100
347.300	33.892	0.100
347.400	30.721	0.100
347.500	32.337	0.100
347.600	48.014	0.100
347.700	46.808	0.100
347.800	42.411	0.100
347.900	31.529	0.100
348.000	47.105	0.100
348.100	50.004	0.100
348.200	38.189	0.100
348.300	41.763	0.100
348.400	52.553	0.100
348.500	52.082	0.100
348.600	53.217	0.100
348.700	34.418	0.100
348.800	35.810	0.100
348.900	13.891	0.100
349.000	34.409	0.100
349.100	52.113	0.100
349.200	65.096	0.100
349.300	57.337	0.100
349.400	31.588	0.100
349.500	38.856	0.100
349.600	41.491	0.100
349.700	48.340	0.100
349.800	64.916	0.100
349.900	69.429	0.100
350.000	56.020	0.100
350.100	50.533	0.100
350.200	48.061	0.100
350.300	55.049	0.100
350.400	46.901	0.100
350.500	47.709	0.100
350.600	46.519	0.100
350.700	51.957	0.100
350.800	37.938	0.100
350.900	46.075	0.100
351.000	52.651	0.100
351.100	45.905	0.100
351.200	51.897	0.100
351.300	52.289	0.100
351.400	65.384	0.100
351.500	43.647	0.100
351.600	44.904	0.100
351.700	70.660	0.100
351.800	52.196	0.100
351.900	63.023	0.100
352.000	63.713	0.100
352.100	55.042	0.100
352.200	62.260	0.100
352.300	46.587	0.100
352.400	49.660	0.100
352.500	56.753	0.100
352.600	65.290	0.100
352.700	50.511	0.100
352.800	64.652	0.100
352.900	61.872	0.100
353.000	62.594	0.100
353.100	53.732	0.100
353.200	58.763	0.100
353.300	42.468	0.100
353.400	52.918	0.100
353.500	69.723	0.100
353.600	62.054	0.100
353.700	61.418	0.100
353.800	51.451	0.100
353.900	49.398	0.100
354.000	43.148	0.100
354.100	65.520	0.100
354.200	49.024	0.100
354.300	71.851	0.100
354.400	48.863	0.100
354.500	70.308	0.100
354.600	50.439	0.100
354.700	64.912	0.100
354.800	63.274	0.100
354.900	66.582	0.100
355.000	57.909	0.100
355.100	59.572	0.100
355.200	67.617	0.100
355.300	75.236	0.100
355.400	62.779	0.100
355.500	59.880	0.100
355.600	71.378	0.100
355.700	65.065	0.100
355.800	46.709	0.100
355.900	61.758	0.100
356.000	72.245	0.100
356.100	59.585	0.100
356.200	69.406	0.100
356.300	72.029	0.100
356.400	49.433	0.100
356.500	77.177	0.100
356.600	50.191	0.100
356.700	51.374	0.100
356.800	66.950	0.100
356.900	69.011	0.100
357.000	73.136	0.100
357.100	67.679	0.100
357.200	58.197	0.100
357.300	65.522	0.100
357.400	70.445	0.100
357.500	75.573	0.100
357.600	70.542	0.100
357.700	49.505	0.100
357.800	49.691	0.100
357.900	70.409	0.100
358.000	70.122	0.100
358.100	71.192	0.100
358.200	67.685	0.100
358.300	69.979	0.100
358.400	51.351	0.100
358.500	56.273	0.100
358.600	70.311	0.100
358.700	70.888	0.100
358.800	72.150	0.100
358.900	55.409	0.100
359.000	79.324	0.100
359.100	64.623	0.100
359.200	56.376	0.100
359.300	66.512	0.100
359.400	71.276	0.100
359.500	79.340	0.100
359.600	66.765	0.100
359.700	68.917	0.100
359.800	58.137	0.100
359.900	64.671	0.100
360.000	51.915	0.100
360.100	64.649	0.100
360.200	85.119	0.100
360.300	60.586	0.100
360.400	66.314	0.100
360.500	60.300	0.100
360.600	64.096	0.100
360.700	48.598	0.100
360.800	76.055	0.100
360.900	44.235	0.100
361.000	75.113	0.100
361.100	69.881	0.100
361.200	56.917	0.100
361.300	77.029	0.100
361.400	64.752	0.100
361.500	56.940	0.100
361.600	70.761	0.100
361.700	80.937	0.100
361.800	93.938	0.100
361.900	71.373	0.100
362.000	48.422	0.100
362.100	75.268	0.100
362.200	67.079	0.100
362.300	69.444	0.100
362.400	68.712	0.100
362.500	65.419	0.100
362.600	60.040	0.100
362.700	63.288	0.100
362.800	55.758	0.100
362.900	82.694	0.100
363.000	74.296	0.100
363.100	69.415	0.100
363.200	79.996	0.100
363.300	65.900	0.100
363.400	72.713	0.100
363.500	67.278	0.100
363.600	65.063	0.100
363.700	57.501	0.100
363.800	58.502	0.100
363.900	61.824	0.100
364.000	79.928	0.100
364.100	57.760	0.100
364.200	75.320	0.100
364.300	69.172	0.100
364.400	71.870	0.100
364.500	71.948	0.100
364.600	76.550	0.100
364.700	73.363	0.100
364.800	60.814	0.100
364.900	71.014	0.100
365.000	68.158	0.100
365.100	66.478	0.100
365.200	67.519	0.100
365.300	58.046	0.100
365.400	69.078	0.100
365.500	62.181	0.100
365.600	68.002	0.100
365.700	79.524	0.100
365.800	65.795	0.100
365.900	56.129	0.100
366.000	72.435	0.100
366.100	70.962	0.100
366.200	61.873	0.100
366.300	61.728	0.100
366.400	73.717	0.100
366.500	74.155	0.100
366.600	76.499	0.100
366.700	65.247	0.100
366.800	48.866	0.100
366.900	56.755	0.100
367.000	74.868	0.100
367.100	72.382	0.100
367.200	69.199	0.100
367.300	61.626	0.100
367.400	76.177	0.100
367.500	68.778	0.100
367.600	70.953	0.100
367.700	51.034	0.100
367.800	51.543	0.100
367.900	59.972	0.100
368.000	75.256	0.100
368.100	65.537	0.100
368.200	65.146	0.100
368.300	70.901	0.100
368.400	61.861	0.100
368.500	63.694	0.100
368.600	68.471	0.100
368.700	53.263	0.100
368.800	68.859	0.100
368.900	74.491	0.100
369.000	75.858	0.100
369.100	68.230	0.100
369.200	66.523	0.100
369.300	64.079	0.100
369.400	78.139	0.100
369.500	43.418	0.100
369.600	57.877	0.100
369.700	54.747	0.100
369.800	70.315	0.100
369.900	78.989	0.100
370.000	68.816	0.100
370.100	57.610	0.100
370.200	64.277	0.100
370.300	71.715	0.100
370.400	64.530	0.100
370.500	68.370	0.100
370.600	62.646	0.100
370.700	63.304	0.100
370.800	62.165	0.100
370.900	71.782	0.100
371.000	76.496	0.100
371.100	62.998	0.100
371.200	74.753	0.100
371.300	75.615	0.100
371.400	64.659	0.100
371.500	62.860	0.100
371.600	70.021	0.100
371.700	65.480	0.100
371.800	76.396	0.100
371.900	49.633	0.100
372.000	64.602	0.100
372.100	74.462	0.100
372.200	54.768	0.100
372.300	64.101	0.100
372.400	55.194	0.100
372.500	58.245	0.100
372.600	77.738	0.100
372.700	56.643	0.100
372.800	67.222	0.100
372.900	60.057	0.100
373.000	69.208	0.100
373.100	51.299	0.100
373.200	70.683	0.100
373.300	69.825	0.100
373.400	71.623	0.100
373.500	66.684	0.100
373.600	61.446	0.100
373.700	70.300	0.100
373.800	73.055	0.100
373.900	54.507	0.100
374.000	44.919	0.100
374.100	72.539	0.100
374.200	72.817	0.100
374.300	50.697	0.100
374.400	52.935	0.100
374.500	69.642	0.100
374.600	81.967	0.100
374.700	58.182	0.100
374.800	67.809	0.100
374.900	61.642	0.100
375.000	59.195	0.100
375.100	46.748	0.100
375.200	64.407	0.100
375.300	60.714	0.100
375.400	73.470	0.100
375.500	88.467	0.100
375.600	65.531	0.100
375.700	52.246	0.100
375.800	60.385	0.100
375.900	51.952	0.100
376.000	57.103	0.100
376.100	74.925	0.100
376.200	46.096	0.100
376.300	50.899	0.100
376.400	69.299	0.100
376.500	70.596	0.100
376.600	54.727	0.100
376.700	55.889	0.100
376.800	47.361	0.100
376.900	75.920	0.100
377.000	69.921	0.100
377.100	79.525	0.100
377.200	68.244	0.100
377.300	70.312	0.100
377.400	65.948	0.100
377.500	60.307	0.100
377.600	71.515	0.100
377.700	60.267	0.100
377.800	69.331	0.100
377.900	67.404	0.100
378.000	56.428	0.100
378.100	56.526	0.100
378.200	64.073	0.100
378.300	69.310	0.100
378.400	70.084	0.100
378.500	56.841	0.100
378.600	55.919	0.100
378.700	60.667	0.100
378.800	60.690	0.100
378.900	59.244	0.100
379.000	68.660	0.100
379.100	68.554	0.100
379.200	62.287	0.100
379.300	56.100	0.100
379.400	66.478	0.100
379.500	66.323	0.100
379.600	63.524	0.100
379.700	53.329	0.100
379.800	65.601	0.100
379.900	71.404	0.100
380.000	62.155	0.100
380.100	39.416	0.100
380.200	72.434	0.100
380.300	65.779	0.100
380.400	65.724	0.100
380.500	64.954	0.100
380.600	59.655	0.100
380.700	68.214	0.100
380.800	59.646	0.100
380.900	69.073	0.100
381.000	65.695	0.100
381.100	65.263	0.100
381.200	60.918	0.100
381.300	67.407	0.100
381.400	58.384	0.100
381.500	73.424	0.100
381.600	71.765	0.100
381.700	43.092	0.100
381.800	56.145	0.100
381.900	62.312	0.100
382.000	65.868	0.100
382.100	65.180	0.100
382.200	53.608	0.100
382.300	61.562	0.100
382.400	63.889	0.100
382.500	67.354	0.100
382.600	58.363	0.100
382.700	72.889	0.100
382.800	56.221	0.100
382.900	69.138	0.100
383.000	63.458	0.100
383.100	44.801	0.100
383.200	72.213	0.100
383.300	75.316	0.100
383.400	56.413	0.100
383.500	56.615	0.100
383.600	57.152	0.100
383.700	58.787	0.100
383.800	53.188	0.100
383.900	68.227	0.100
384.000	66.149	0.100
384.100	54.845	0.100
384.200	62.692	0.100
384.300	56.856	0.100
384.400	60.785	0.100
384.500	72.668	0.100
384.600	72.411	0.100
384.700	70.409	0.100
384.800	62.612	0.100
384.900	61.098	0.100
385.000	59.669	0.100
385.100	66.164	0.100
385.200	71.028	0.100
385.300	62.226	0.100
385.400	54.622	0.100
385.500	64.646	0.100
385.600	67.800	0.100
385.700	72.860	0.100
385.800	62.273	0.100
385.900	61.308	0.100
386.000	64.763	0.100
386.100	59.689	0.100
386.200	53.632	0.100
386.300	57.452	0.100
386.400	62.667	0.100
386.500	58.815	0.100
386.600	52.337	0.100
386.700	68.960	0.100
386.800	66.181	0.100
386.900	54.354	0.100
387.000	68.673	0.100
387.100	66.549	0.100
387.200	52.394	0.100
387.300	45.770	0.100
387.400	76.864	0.100
387.500	57.995	0.100
387.600	50.128	0.100
387.700	54.144	0.100
387.800	66.458	0.100
387.900	68.646	0.100
388.000	57.923	0.100
388.100	76.312	0.100
388.200	41.942	0.100
388.300	65.387	0.100
388.400	62.946	0.100
388.500	64.098	0.100
388.600	42.446	0.100
388.700	49.647	0.100
388.800	48.166	0.100
388.900	79.123	0.100
389.000	69.415	0.100
389.100	65.851	0.100
389.200	68.663	0.100
389.300	56.793	0.100
389.400	71.200	0.100
389.500	60.299	0.100
389.600	53.923	0.100
389.700	47.151	0.100
389.800	66.422	0.100
389.900	54.222	0.100
390.000	64.177	0.100
390.100	74.092	0.100
390.200	71.978	0.100
390.300	54.425	0.100
390.400	56.500	0.100
390.500	45.155	0.100
390.600	43.372	0.100
390.700	61.798	0.100
390.800	53.408	0.100
390.900	49.012	0.100
391.000	50.608	0.100
391.100	56.693	0.100
391.200	50.361	0.100
391.300	46.190	0.100
391.400	51.015	0.100
391.500	50.090	0.100
391.600	28.861	0.100
391.700	43.571	0.100
391.800	40.076	0.100
391.900	27.198	0.100
392.000	34.411	0.100
392.100	38.320	0.100
392.200	44.018	0.100
392.300	30.074	0.100
392.400	39.238	0.100
392.500	27.184	0.100
392.600	31.602	0.100
392.700	22.947	0.100
392.800	36.011	0.100
392.900	21.379	0.100
393.000	21.669	0.100
393.100	14.682	0.100
393.200	21.433	0.100
393.300	31.690	0.100
393.400	35.461	0.100
393.500	22.257	0.100
393.600	21.020	0.100
393.700	16.512	0.100
393.800	10.612	0.100
393.900	7.405	0.100
394.000	8.222	0.100
394.100	16.193	0.100
394.200	19.855	0.100
394.300	11.695	0.100
394.400	2.256	0.100
394.500	21.453	0.100
394.600	22.512	0.100
394.700	6.667	0.100
394.800	10.690	0.100
394.900	10.829	0.100
395.000	13.409	0.100
395.100	11.259	0.100
395.200	13.989	0.100
395.300	14.306	0.100
395.400	5.965	0.100
395.500	8.190	0.100
395.600	1.596	0.100
395.700	3.999	0.100
395.800	5.884	0.100
395.900	-0.793	0.100
396.000	11.226	0.100
396.100	8.260	0.100
396.200	-3.340	0.100
396.300	-5.481	0.100
396.400	6.189	0.100
396.500	-1.946	0.100
396.600	14.088	0.100
396.700	-0.697	0.100
396.800	-8.340	0.100
396.900	13.282	0.100
397.000	-3.458	0.100
397.100	4.402	0.100
397.200	5.150	0.100
397.300	-1.295	0.100
397.400	-16.288	0.100
397.500	-6.980	0.100
397.600	6.074	0.100
397.700	-1.465	0.100
397.800	2.173	0.100
397.900	0.041	0.100
398.000	-19.019	0.100
398.100	2.243	0.100
398.200	6.448	0.100
398.300	-8.011	0.100
398.400	-6.921	0.100
398.500	-6.206	0.100
398.600	3.835	0.100
398.700	-14.312	0.100
398.800	14.485	0.100
398.900	-2.138	0.100
399.000	-11.723	0.100
399.100	-10.178	0.100
399.200	-0.666	0.100
399.300	5.958	0.100
399.400	-13.951	0.100
399.500	5.456	0.100
399.600	-0.743	0.100
399.700	-6.151	0.100
399.800	-38.882	0.100
399.900	-5.644	0.100
400.000	3.342	0.100
400.100	-5.359	0.100
400.200	7.676	0.100
400.300	1.445	0.100
400.400	-6.867	0.100
400.500	-13.413	0.100
400.600	-6.249	0.100
400.700	-8.541	0.100
400.800	-10.859	0.100
400.900	5.807	0.100
401.000	-10.338	0.100
401.100	-32.654	0.100
401.200	-6.139	0.100
401.300	-23.924	0.100
401.400	-5.794	0.100
401.500	-2.193	0.100
401.600	-8.693	0.100
401.700	-0.898	0.100
401.800	-6.261	0.100
401.900	-11.211	0.100
402.000	-13.181	0.100
402.100	-4.528	0.100
402.200	-8.256	0.100
402.300	-8.906	0.100
402.400	-14.792	0.100
402.500	-7.256	0.100
402.600	-17.219	0.100
402.700	-3.268	0.100
402.800	-22.353	0.100
402.900	-7.797	0.100
403.000	-0.209	0.100
403.100	-14.466	0.100
403.200	-0.539	0.100
403.300	-24.885	0.100
403.400	3.301	0.100
403.500	-4.094	0.100
403.600	-9.833	0.100
403.700	-2.828	0.100
403.800	-20.389	0.100
403.900	-1.771	0.100
404.000	-10.209	0.100
404.100	-3.406	0.100
404.200	-14.863	0.100
404.300	-15.116	0.100
404.400	-2.749	0.100
404.500	-7.259	0.100
404.600	-9.570	0.100
404.700	-3.528	0.100
404.800	-4.785	0.100
404.900	-24.065	0.100
405.000	-5.336	0.100
405.100	-31.849	0.100
405.200	-9.044	0.100
405.300	-6.965	0.100
405.400	-3.182	0.100
405.500	-4.839	0.100
405.600	-8.550	0.100
405.700	-6.364	0.100
405.800	-13.344	0.100
405.900	-30.086	0.100
406.000	-14.709	0.100
406.100	-5.795	0.100
406.200	-15.172	0.100
406.300	-17.182	0.100
406.400	-13.068	0.100
406.500	12.240	0.100
406.600	-16.672	0.100
406.700	-21.700	0.100
406.800	-19.932	0.100
406.900	-23.728	0.100
407.000	-19.472	0.100
407.100	-17.338	0.100
407.200	-20.378	0.100
407.300	-28.080	0.100
407.400	-21.085	0.100
407.500	-4.160	0.100
407.600	1.201	0.100
407.700	-4.249	0.100
407.800	-25.225	0.100
407.900	-24.973	0.100
408.000	-28.957	0.100
408.100	-14.179	0.100
408.200	-27.884	0.100
408.300	-30.559	0.100
408.400	-21.045	0.100
408.500	-25.868	0.100
408.600	-20.319	0.100
408.700	-21.589	0.100
408.800	-11.191	0.100
408.900	-8.783	0.100
409.000	-8.274	0.100
409.100	-10.903	0.100
409.200	-17.875	0.100
409.300	-25.514	0.100
409.400	-28.419	0.100
409.500	-25.848	0.100
409.600	-14.855	0.100
409.700	-14.829	0.100
409.800	-24.549	0.100
409.900	-11.458	0.100
410.000	-16.118	0.100
410.100	-15.162	0.100
410.200	-27.514	0.100
410.300	-28.259	0.100
410.400	-7.124	0.100
410.500	-15.139	0.100
410.600	-25.485	0.100
410.700	-12.407	0.100
410.800	-16.307	0.100
410.900	-25.403	0.100
411.000	-13.859	0.100
411.100	-12.139	0.100
411.200	-32.505	0.100
411.300	-8.651	0.100
411.400	-3.476	0.100
411.500	-20.469	0.100
411.600	-13.319	0.100
411.700	-16.253	0.100
411.800	-34.527	0.100
411.900	-12.723	0.100
412.000	-30.497	0.100
412.100	-12.215	0.100
412.200	-17.521	0.100
412.300	-16.908	0.100
412.400	-21.887	0.100
412.500	-27.926	0.100
412.600	-22.118	0.100
412.700	-11.637	0.100
412.800	-21.258	0.100
412.900	-21.795	0.100
413.000	-16.517	0.100
413.100	-26.246	0.100
413.200	-23.237	0.100
413.300	-29.763	0.100
413.400	-18.129	0.100
413.500	-21.655	0.100
413.600	-20.647	0.100
413.700	-28.642	0.100
413.800	-20.395	0.100
413.900	-34.236	0.100
414.000	-19.117	0.100
414.100	-24.313	0.100
414.200	-25.255	0.100
414.300	-19.630	0.100
414.400	-16.957	0.100
414.500	-8.588	0.100
414.600	-17.398	0.100
414.700	-21.770	0.100
414.800	-34.195	0.100
414.900	-24.070	0.100
415.000	-20.384	0.100
415.100	-19.612	0.100
415.200	-35.476	0.100
415.300	-21.186	0.100
415.400	-15.106	0.100
415.500	-15.763	0.100
415.600	-28.155	0.100
415.700	-32.305	0.100
415.800	-30.106	0.100
415.900	-36.860	0.100
416.000	-15.343	0.100
416.100	-29.435	0.100
416.200	-17.334	0.100
416.300	-12.868	0.100
416.400	-31.760	0.100
416.500	-35.826	0.100
416.600	-37.299	0.100
416.700	-22.316	0.100
416.800	-11.403	0.100
416.900	-18.850	0.100
417.000	-22.978	0.100
417.100	-18.608	0.100
417.200	-26.798	0.100
417.300	-41.668	0.100
417.400	-20.415	0.100
417.500	-13.115	0.100
417.600	-29.806	0.100
417.700	-29.679	0.100
417.800	-28.846	0.100
417.900	-15.965	0.100
418.000	-30.269	0.100
418.100	-32.340	0.100
418.200	-40.012	0.100
418.300	-23.858	0.100
418.400	-29.162	0.100
418.500	-34.891	0.100
418.600	-32.645	0.100
418.700	-27.186	0.100
418.800	-22.373	0.100
418.900	-30.085	0.100
419.000	-23.093	0.100
419.100	-21.208	0.100
419.200	-18.037	0.100
419.300	-23.830	0.100
419.400	-24.102	0.100
419.500	-25.908	0.100
419.600	-30.930	0.100
419.700	-26.154	0.100
419.800	-37.586	0.100
419.900	-31.558	0.100
420.000	-19.080	0.100
420.100	-31.586	0.100
420.200	-27.306	0.100
420.300	-23.013	0.100
420.400	-29.311	0.100
420.500	-41.531	0.100
420.600	-34.336	0.100
420.700	-18.168	0.100
420.800	-39.569	0.100
420.900	-32.007	0.100
421.000	-13.284	0.100
421.100	-23.167	0.100
421.200	-29.499	0.100
421.300	-27.600	0.100
421.400	-33.045	0.100
421.500	-20.383	0.100
421.600	-32.234	0.100
421.700	-9.986	0.100
421.800	-31.632	0.100
421.900	-42.897	0.100
422.000	-33.600	0.100
422.100	-45.077	0.100
422.200	-21.556	0.100
422.300	-31.708	0.100
422.400	-40.417	0.100
422.500	-30.925	0.100
422.600	-29.945	0.100
422.700	-32.171	0.100
422.800	-32.259	0.100
422.900	-35.614	0.100
423.000	-28.161	0.100
423.100	-32.084	0.100
423.200	-23.682	0.100
423.300	-31.667	0.100
423.400	-28.667	0.100
423.500	-25.897	0.100
423.600	-35.387	0.100
423.700	-28.222	0.100
423.800	-39.096	0.100
423.900	-17.483	0.100
424.000	-21.680	0.100
424.100	-38.836	0.100
424.200	-32.833	0.100
424.300	-29.311	0.100
424.400	-27.989	0.100
424.500	-43.515	0.100
424.600	-40.319	0.100
424.700	-30.151	0.100
424.800	-24.477	0.100
424.900	-32.527	0.100
425.000	-34.267	0.100
425.100	-45.013	0.100
425.200	-40.984	0.100
425.300	-28.005	0.100
425.400	-27.945	0.100
425.500	-27.419	0.100
425.600	-44.304	0.100
425.700	-25.340	0.100
425.800	-28.885	0.100
425.900	-18.997	0.100
426.000	-34.098	0.100
426.100	-42.695	0.100
426.200	-33.738	0.100
426.300	-33.687	0.100
426.400	-24.807	0.100
426.500	-32.895	0.100
426.600	-31.509	0.100
426.700	-31.337	0.100
426.800	-20.093	0.100
426.900	-35.118	0.100
427.000	-37.449	0.100
427.100	-37.310	0.100
427.200	-30.034	0.100
427.300	-41.651	0.100
427.400	-37.043	0.100
427.500	-30.779	0.100
427.600	-35.466	0.100
427.700	-25.339	0.100
427.800	-30.926	0.100
427.900	-25.186	0.100
428.000	-55.034	0.100
428.100	-34.216	0.100
428.200	-16.802	0.100
428.300	-40.193	0.100
428.400	-35.119	0.100
428.500	-35.338	0.100
428.600	-37.127	0.100
428.700	-44.954	0.100
428.800	-14.676	0.100
428.900	-23.553	0.100
429.000	-32.052	0.100
429.100	-28.785	0.100
429.200	-46.742	0.100
429.300	-34.320	0.100
429.400	-24.313	0.100
429.500	-24.628	0.100
429.600	-33.316	0.100
429.700	-41.217	0.100
429.800	-43.211	0.100
429.900	-38.424	0.100
430.000	-38.263	0.100
430.100	-20.575	0.100
430.200	-26.797	0.100
430.300	-16.969	0.100
430.400	-41.898	0.100
430.500	-38.447	0.100
430.600	-42.082	0.100
430.700	-36.739	0.100
430.800	-29.015	0.100
430.900	-32.720	0.100
431.000	-50.767	0.100
431.100	-39.965	0.100
431.200	-17.269	0.100
431.300	-23.182	0.100
431.400	-31.052	0.100
431.500	-46.448	0.100
431.600	-47.189	0.100
431.700	-18.507	0.100
431.800	-34.895	0.100
431.900	-31.440	0.100
432.000	-28.373	0.100
432.100	-36.102	0.100
432.200	-33.094	0.100
432.300	-35.895	0.100
432.400	-37.069	0.100
432.500	-55.624	0.100
432.600	-33.332	0.100
432.700	-29.924	0.100
432.800	-47.151	0.100
432.900	-33.764	0.100
433.000	-28.037	0.100
433.100	-34.523	0.100
433.200	-35.976	0.100
433.300	-35.249	0.100
433.400	-44.931	0.100
433.500	-31.452	0.100
433.600	-55.766	0.100
433.700	-23.768	0.100
433.800	-23.807	0.100
433.900	-36.848	0.100
434.000	-47.487	0.100
434.100	-40.713	0.100
434.200	-42.220	0.100
434.300	-37.353	0.100
434.400	-25.598	0.100
434.500	-33.161	0.100
434.600	-41.108	0.100
434.700	-32.660	0.100
434.800	-33.952	0.100
434.900	-34.621	0.100
435.000	-40.872	0.100
435.100	-46.329	0.100
435.200	-38.124	0.100
435.300	-38.981	0.100
435.400	-33.845	0.100
435.500	-41.708	0.100
435.600	-44.265	0.100
435.700	-32.657	0.100
435.800	-28.117	0.100
435.900	-28.649	0.100
436.000	-22.678	0.100
436.100	-37.429	0.100
436.200	-33.934	0.100
436.300	-32.757	0.100
436.400	-36.134	0.100
436.500	-39.197	0.100
436.600	-18.136	0.100
436.700	-23.527	0.100
436.800	-36.526	0.100
436.900	-40.015	0.100
437.000	-32.004	0.100
437.100	-26.979	0.100
437.200	-40.696	0.100
437.300	-43.336	0.100
437.400	-42.532	0.100
437.500	-44.324	0.100
437.600	-34.727	0.100
437.700	-24.681	0.100
437.800	-41.973	0.100
437.900	-40.098	0.100
438.000	-30.890	0.100
438.100	-29.942	0.100
438.200	-59.320	0.100
438.300	-21.913	0.100
438.400	-34.397	0.100
438.500	-42.566	0.100
438.600	-27.482	0.100
438.700	-38.009	0.100
438.800	-34.564	0.100
438.900	-39.900	0.100
439.000	-31.357	0.100
439.100	-36.286	0.100
439.200	-27.411	0.100
439.300	-36.312	0.100
439.400	-33.280	0.100
439.500	-50.220	0.100
439.600	-38.898	0.100
439.700	-34.090	0.100
439.800	-24.704	0.100
439.900	-35.335	0.100
440.000	-14.837	0.100
440.100	-39.922	0.100
440.200	-30.488	0.100
440.300	-32.113	0.100
440.400	-44.747	0.100
440.500	-38.921	0.100
440.600	-41.452	0.100
440.700	-28.477	0.100
440.800	-38.415	0.100
440.900	-41.685	0.100
441.000	-43.104	0.100
441.100	-34.317	0.100
441.200	-37.875	0.100
441.300	-34.426	0.100
441.400	-29.308	0.100
441.500	-41.174	0.100
441.600	-26.223	0.100
441.700	-37.930	0.100
441.800	-31.980	0.100
441.900	-32.260	0.100
442.000	-23.487	0.100
442.100	-43.457	0.100
442.200	-52.564	0.100
442.300	-39.669	0.100
442.400	-39.991	0.100
442.500	-18.143	0.100
442.600	-30.701	0.100
442.700	-30.834	0.100
442.800	-48.043	0.100
442.900	-43.812	0.100
443.000	-29.032	0.100
443.100	-42.460	0.100
443.200	-30.969	0.100
443.300	-33.226	0.100
443.400	-33.329	0.100
443.500	-43.060	0.100
443.600	-35.795	0.100
443.700	-34.351	0.100
443.800	-39.839	0.100
443.900	-41.931	0.100
444.000	-24.232	0.100
444.100	-36.234	0.100
444.200	-30.499	0.100
444.300	-26.964	0.100
444.400	-36.279	0.100
444.500	-31.808	0.100
444.600	-33.609	0.100
444.700	-46.153	0.100
444.800	-40.460	0.100
444.900	-38.800	0.100
445.000	-43.590	0.100
445.100	-45.003	0.100
445.200	-27.663	0.100
445.300	-29.860	0.100
445.400	-37.107	0.100
445.500	-42.911	0.100
445.600	-30.327	0.100
445.700	-32.096	0.100
445.800	-34.092	0.100
445.900	-36.066	0.100
446.000	-28.799	0.100
446.100	-42.197	0.100
446.200	-43.336	0.100
446.300	-32.248	0.100
446.400	-31.854	0.100
446.500	-28.969	0.100
446.600	-38.139	0.100
446.700	-41.413	0.100
446.800	-40.343	0.100
446.900	-16.848	0.100
447.000	-22.940	0.100
447.100	-47.931	0.100
447.200	-34.146	0.100
447.300	-42.808	0.100
447.400	-44.082	0.100
447.500	-40.607	0.100
447.600	-39.462	0.100
447.700	-36.565	0.100
447.800	-38.049	0.100
447.900	-38.487	0.100
448.000	-29.613	0.100
448.100	-20.423	0.100
448.200	-48.724	0.100
448.300	-27.787	0.100
448.400	-41.301	0.100
448.500	-38.363	0.100
448.600	-28.596	0.100
448.700	-33.243	0.100
448.800	-51.624	0.100
448.900	-41.965	0.100
449.000	-23.403	0.100
449.100	-37.567	0.100
449.200	-37.187	0.100
449.300	-36.640	0.100
449.400	-32.092	0.100
449.500	-38.272	0.100
449.600	-37.892	0.100
449.700	-45.520	0.100
449.800	-24.923	0.100
449.900	-19.642	0.100
450.000	-31.193	0.100
450.100	-41.789	0.100
450.200	-37.366	0.100
450.300	-49.582	0.100
450.400	-34.371	0.100
450.500	-29.567	0.100
450.600	-35.404	0.100
450.700	-31.291	0.100
450.800	-38.047	0.100
450.900	-29.820	0.100
451.000	-37.630	0.100
451.100	-39.065	0.100
451.200	-44.528	0.100
451.300	-29.671	0.100
451.400	-32.784	0.100
451.500	-51.978	0.100
451.600	-36.629	0.100
451.700	-48.149	0.100
451.800	-40.303	0.100
451.900	-23.530	0.100
452.000	-30.487	0.100
452.100	-25.880	0.100
452.200	-28.288	0.100
452.300	-29.400	0.100
452.400	-33.165	0.100
452.500	-30.299	0.100
452.600	-29.265	0.100
452.700	-40.980	0.100
452.800	-32.840	0.100
452.900	-31.005	0.100
453.000	-44.312	0.100
453.100	-22.757	0.100
453.200	-51.341	0.100
453.300	-32.754	0.100
453.400	-37.770	0.100
453.500	-36.028	0.100
453.600	-27.974	0.100
453.700	-36.281	0.100
453.800	-30.896	0.100
453.900	-41.735	0.100
454.000	-40.210	0.100
454.100	-23.918	0.100
454.200	-29.998	0.100
454.300	-29.605	0.100
454.400	-33.471	0.100
454.500	-46.492	0.100
454.600	-35.113	0.100
454.700	-39.805	0.100
454.800	-30.319	0.100
454.900	-20.575	0.100
455.000	-35.832	0.100
455.100	-35.714	0.100
455.200	-33.500	0.100
455.300	-33.954	0.100
455.400	-37.155	0.100
455.500	-35.335	0.100
455.600	-31.127	0.100
455.700	-43.282	0.100
455.800	-27.364	0.100
455.900	-42.379	0.100
456.000	-34.106	0.100
456.100	-32.642	0.100
456.200	-39.535	0.100
456.300	-41.996	0.100
456.400	-28.386	0.100
456.500	-32.898	0.100
456.600	-47.340	0.100
456.700	-20.579	0.100
456.800	-34.408	0.100
456.900	-26.426	0.100
457.000	-38.533	0.100
457.100	-30.459	0.100
457.200	-37.064	0.100
457.300	-41.560	0.100
457.400	-45.844	0.100
457.500	-41.211	0.100
457.600	-37.978	0.100
457.700	-50.436	0.100
457.800	-36.381	0.100
457.900	-44.398	0.100
458.000	-34.843	0.100
458.100	-11.296	0.100
458.200	-22.664	0.100
458.300	-38.813	0.100
458.400	-41.358	0.100
458.500	-26.177	0.100
458.600	-43.357	0.100
458.700	-32.711	0.100
458.800	-47.640	0.100
458.900	-27.632	0.100
459.000	-25.984	0.100
459.100	-35.892	0.100
459.200	-22.684	0.100
459.300	-39.298	0.100
459.400	-25.702	0.100
459.500	-24.516	0.100
459.600	-42.913	0.100
459.700	-36.152	0.100
459.800	-36.707	0.100
459.900	-34.880	0.100
460.000	-52.474	0.100
460.100	-36.621	0.100
460.200	-19.541	0.100
460.300	-16.718	0.100
460.400	-32.999	0.100
460.500	-20.927	0.100
460.600	-44.222	0.100
460.700	-26.587	0.100
460.800	-33.873	0.100
460.900	-29.148	0.100
461.000	-34.178	0.100
461.100	-35.243	0.100
461.200	-38.973	0.100
461.300	-31.587	0.100
461.400	-35.801	0.100
461.500	-26.590	0.100
461.600	-43.142	0.100
461.700	-35.306	0.100
461.800	-30.080	0.100
461.900	-33.586	0.100
462.000	-29.371	0.100
462.100	-33.253	0.100
462.200	-21.094	0.100
462.300	-27.433	0.100
462.400	-40.964	0.100
462.500	-40.774	0.100
462.600	-38.229	0.100
462.700	-38.252	0.100
462.800	-42.145	0.100
462.900	-37.644	0.100
463.000	-17.648	0.100
463.100	-38.481	0.100
463.200	-27.491	0.100
463.300	-34.969	0.100
463.400	-25.195	0.100
463.500	-21.402	0.100
463.600	-28.819	0.100
463.700	-32.026	0.100
463.800	-34.929	0.100
463.900	-31.124	0.100
464.000	-42.462	0.100
464.100	-31.874	0.100
464.200	-28.912	0.100
464.300	-36.218	0.100
464.400	-34.552	0.100
464.500	-28.573	0.100
464.600	-23.889	0.100
464.700	-31.690	0.100
464.800	-32.280	0.100
464.900	-44.728	0.100
465.000	-26.689	0.100
465.100	-37.839	0.100
465.200	-28.668	0.100
465.300	-32.860	0.100
465.400	-35.337	0.100
465.500	-41.764	0.100
465.600	-40.852	0.100
465.700	-34.819	0.100
465.800	-33.661	0.100
465.900	-31.494	0.100
466.000	-29.929	0.100
466.100	-32.185	0.100
466.200	-35.360	0.100
466.300	-42.465	0.100
466.400	-44.067	0.100
466.500	-30.821	0.100
466.600	-38.239	0.100
466.700	-43.083	0.100
466.800	-40.210	0.100
466.900	-37.425	0.100
467.000	-20.950	0.100
467.100	-34.357	0.100
467.200	-27.983	0.100
467.300	-28.534	0.100
467.400	-39.563	0.100
467.500	-31.946	0.100
467.600	-48.215	0.100
467.700	-47.533	0.100
467.800	-22.734	0.100
467.900	-15.842	0.100
468.000	-40.736	0.100
468.100	-43.072	0.100
468.200	-33.963	0.100
468.300	-37.691	0.100
468.400	-44.525	0.100
468.500	-41.370	0.100
468.600	-38.890	0.100
468.700	-19.978	0.100
468.800	-38.430	0.100
468.900	-29.286	0.100
469.000	-24.185	0.100
469.100	-32.064	0.100
469.200	-40.228	0.100
469.300	-36.138	0.100
469.400	-48.109	0.100
469.500	-9.873	0.100
469.600	-31.532	0.100
469.700	-34.368	0.100
469.800	-27.500	0.100
469.900	-32.873	0.100
470.000	-26.400	0.100
470.100	-28.610	0.100
470.200	-17.170	0.100
470.300	-32.870	0.100
470.400	-20.729	0.100
470.500	-39.655	0.100
470.600	-38.939	0.100
470.700	-37.337	0.100
470.800	-34.443	0.100
470.900	-31.673	0.100
471.000	-34.901	0.100
471.100	-28.987	0.100
471.200	-29.139	0.100
471.300	-29.518	0.100
471.400	-33.578	0.100
471.500	-34.208	0.100
471.600	-47.485	0.100
471.700	-59.674	0.100
471.800	-40.967	0.100
471.900	-15.671	0.100
472.000	-22.702	0.100
472.100	-18.807	0.100
472.200	-40.092	0.100
472.300	-36.042	0.100
472.400	-31.205	0.100
472.500	-28.040	0.100
472.600	-27.520	0.100
472.700	-35.122	0.100
472.800	-29.279	0.100
472.900	-27.250	0.100
473.000	-51.074	0.100
473.100	-50.783	0.100
473.200	-39.799	0.100
473.300	-43.684	0.100
473.400	-43.207	0.100
473.500	-40.693	0.100
473.600	-42.261	0.100
473.700	-29.407	0.100
473.800	-24.879	0.100
473.900	-28.495	0.100
474.000	-42.982	0.100
474.100	-28.664	0.100
474.200	-29.098	0.100
474.300	-35.904	0.100
474.400	-41.165	0.100
474.500	-39.241	0.100
474.600	-16.203	0.100
474.700	-17.089	0.100
474.800	-40.659	0.100
474.900	-26.967	0.100
475.000	-21.965	0.100
475.100	-39.850	0.100
475.200	-22.015	0.100
475.300	-33.707	0.100
475.400	-34.739	0.100
475.500	-27.401	0.100
475.600	-35.968	0.100
475.700	-33.414	0.100
475.800	-35.257	0.100
475.900	-35.668	0.100
476.000	-32.260	0.100
476.100	-39.008	0.100
476.200	-37.607	0.100
476.300	-41.660	0.100
476.400	-29.726	0.100
476.500	-22.665	0.100
476.600	-56.218	0.100
476.700	-21.611	0.100
476.800	-32.771	0.100
476.900	-29.766	0.100
477.000	-38.863	0.100
477.100	-15.229	0.100
477.200	-23.294	0.100
477.300	-21.692	0.100
477.400	-29.577	0.100
477.500	-32.326	0.100
477.600	-38.669	0.100
477.700	-32.280	0.100
477.800	-34.420	0.100
477.900	-29.398	0.100
478.000	-40.446	0.100
478.100	-42.302	0.100
478.200	-36.330	0.100
478.300	-35.242	0.100
478.400	-28.465	0.100
478.500	-33.444	0.100
478.600	-38.551	0.100
478.700	-30.119	0.100
478.800	-29.748	0.100
478.900	-29.295	0.100
479.000	-31.060	0.100
479.100	-30.183	0.100
479.200	-32.493	0.100
479.300	-17.814	0.100
479.400	-23.355	0.100
479.500	-39.445	0.100
479.600	-30.913	0.100
479.700	-32.878	0.100
479.800	-36.805	0.100
479.900	-34.831	0.100
480.000	-20.378	0.100
480.100	-28.495	0.100
480.200	-36.841	0.100
480.300	-30.925	0.100
480.400	-19.386	0.100
480.500	-21.197	0.100
480.600	-31.524	0.100
480.700	-30.565	0.100
480.800	-33.660	0.100
480.900	-6.464	0.100
481.000	-21.976	0.100
481.100	-28.150	0.100
481.200	-41.633	0.100
481.300	-21.457	0.100
481.400	-8.601	0.100
481.500	-15.655	0.100
481.600	-20.915	0.100
481.700	-1.756	0.100
481.800	-3.363	0.100
481.900	-22.127	0.100
482.000	-16.419	0.100
482.100	-16.529	0.100
482.200	3.031	0.100
482.300	-18.295	0.100
482.400	-5.702	0.100
482.500	-1.405	0.100
482.600	1.541	0.100
482.700	-7.756	0.100
482.800	-5.912	0.100
482.900	-1.391	0.100
483.000	5.019	0.100
483.100	-0.383	0.100
483.200	1.015	0.100
483.300	-2.687	0.100
483.400	-12.718	0.100
483.500	-4.088	0.100
483.600	-6.758	0.100
483.700	-4.730	0.100
483.800	-6.732	0.100
483.900	1.423	0.100
484.000	-2.743	0.100
484.100	5.357	0.100
484.200	0.142	0.100
484.300	-7.636	0.100
484.400	-1.995	0.100
484.500	8.478	0.100
484.600	-0.277	0.100
484.700	19.176	0.100
484.800	2.738	0.100
484.900	8.921	0.100
485.000	-0.309	0.100
485.100	-14.158	0.100
485.200	7.340	0.100
485.300	9.759	0.100
485.400	-2.999	0.100
485.500	9.361	0.100
485.600	-5.742	0.100
485.700	-1.797	0.100
485.800	-10.380	0.100
485.900	-1.134	0.100
486.000	-1.541	0.100
486.100	11.761	0.100
486.200	4.141	0.100
486.300	9.618	0.100
486.400	-8.720	0.100
486.500	-0.398	0.100
486.600	11.605	0.100
486.700	28.933	0.100
486.800	6.953	0.100
486.900	-6.528	0.100
487.000	-4.174	0.100
487.100	10.127	0.100
487.200	1.268	0.100
487.300	6.871	0.100
487.400	10.313	0.100
487.500	12.083	0.100
487.600	0.496	0.100
487.700	6.319	0.100
487.800	2.469	0.100
487.900	3.862	0.100
488.000	13.356	0.100
488.100	2.855	0.100
488.200	-8.216	0.100
488.300	3.258	0.100
488.400	21.905	0.100
488.500	13.533	0.100
488.600	-2.573	0.100
488.700	11.956	0.100
488.800	8.055	0.100
488.900	8.777	0.100
489.000	8.919	0.100
489.100	9.940	0.100
489.200	1.022	0.100
489.300	1.020	0.100
489.400	4.304	0.100
489.500	12.155	0.100
489.600	1.083	0.100
489.700	31.253	0.100
489.800	11.482	0.100
489.900	6.746	0.100
490.000	8.404	0.100
490.100	10.337	0.100
490.200	22.984	0.100
490.300	15.910	0.100
490.400	10.169	0.100
490.500	11.449	0.100
490.600	25.710	0.100
490.700	11.538	0.100
490.800	11.248	0.100
490.900	9.655	0.100
491.000	15.750	0.100
491.100	23.032	0.100
491.200	8.275	0.100
491.300	10.596	0.100
491.400	14.777	0.100
491.500	8.271	0.100
491.600	25.495	0.100
491.700	16.863	0.100
491.800	17.869	0.100
491.900	24.102	0.100
492.000	21.014	0.100
492.100	15.405	0.100
492.200	6.979	0.100
492.300	6.283	0.100
492.400	19.549	0.100
492.500	33.311	0.100
492.600	24.568	0.100
492.700	9.097	0.100
492.800	13.822	0.100
492.900	24.633	0.100
493.000	22.349	0.100
493.100	23.646	0.100
493.200	18.778	0.100
493.300	24.954	0.100
493.400	4.863	0.100
493.500	19.920	0.100
493.600	19.326	0.100
493.700	14.265	0.100
493.800	27.862	0.100
493.900	23.970	0.100
494.000	36.489	0.100
494.100	25.020	0.100
494.200	26.819	0.100
494.300	36.578	0.100
494.400	34.756	0.100
494.500	31.564	0.100
494.600	31.736	0.100
494.700	31.135	0.100
494.800	19.779	0.100
494.900	25.041	0.100
495.000	27.206	0.100
495.100	28.328	0.100
495.200	30.098	0.100
495.300	36.276	0.100
495.400	18.937	0.100
495.500	17.223	0.100
495.600	27.656	0.100
495.700	33.977	0.100
495.800	39.986	0.100
495.900	40.858	0.100
496.000	39.132	0.100
496.100	19.745	0.100
496.200	34.826	0.100
496.300	27.489	0.100
496.400	16.572	0.100
496.500	31.210	0.100
496.600	42.784	0.100
496.700	16.576	0.100
496.800	29.045	0.100
496.900	36.350	0.100
497.000	34.401	0.100
497.100	38.203	0.100
497.200	33.499	0.100
497.300	21.077	0.100
497.400	33.741	0.100
497.500	24.753	0.100
497.600	49.892	0.100
497.700	48.317	0.100
497.800	26.709	0.100
497.900	40.148	0.100
498.000	39.690	0.100
498.100	41.243	0.100
498.200	41.206	0.100
498.300	32.473	0.100
498.400	39.793	0.100
498.500	44.385	0.100
498.600	52.020	0.100
498.700	39.016	0.100
498.800	42.808	0.100
498.900	43.630	0.100
499.000	41.229	0.100
499.100	46.179	0.100
499.200	39.705	0.100
499.300	45.485	0.100
499.400	39.314	0.100
499.500	46.712	0.100
499.600	40.667	0.100
499.700	43.096	0.100
499.800	48.043	0.100
499.900	45.589	0.100
500.000	40.480	0.100
500.100	37.265	0.100
500.200	48.511	0.100
500.300	41.166	0.100
500.400	29.792	0.100
500.500	38.041	0.100
500.600	70.979	0.100
500.700	49.795	0.100
500.800	33.912	0.100
500.900	55.673	0.100
501.000	50.940	0.100
501.100	45.868	0.100
501.200	57.877	0.100
501.300	43.893	0.100
501.400	56.730	0.100
501.500	49.092	0.100
501.600	48.808	0.100
501.700	70.824	0.100
501.800	50.723	0.100
501.900	44.855	0.100
502.000	50.905	0.100
502.100	47.284	0.100
502.200	54.038	0.100
502.300	41.347	0.100
502.400	50.945	0.100
502.500	48.319	0.100
502.600	52.518	0.100
502.700	65.543	0.100
502.800	65.926	0.100
502.900	60.020	0.100
503.000	49.516	0.100
503.100	54.541	0.100
503.200	65.764	0.100
503.300	64.620	0.100
503.400	59.171	0.100
503.500	64.843	0.100
503.600	41.623	0.100
503.700	63.426	0.100
503.800	56.701	0.100
503.900	52.780	0.100
504.000	63.267	0.100
504.100	63.569	0.100
504.200	48.135	0.100
504.300	59.496	0.100
504.400	59.744	0.100
504.500	66.671	0.100
504.600	65.684	0.100
504.700	58.102	0.100
504.800	62.980	0.100
504.900	46.115	0.100
505.000	42.762	0.100
505.100	74.782	0.100
505.200	61.194	0.100
505.300	64.564	0.100
505.400	56.876	0.100
505.500	66.739	0.100
505.600	65.934	0.100
505.700	73.300	0.100
505.800	68.618	0.100
505.900	61.956	0.100
506.000	57.377	0.100
506.100	45.175	0.100
506.200	70.358	0.100
506.300	69.779	0.100
506.400	62.283	0.100
506.500	64.787	0.100
506.600	62.681	0.100
506.700	68.942	0.100
506.800	82.683	0.100
506.900	67.826	0.100
507.000	59.421	0.100
507.100	66.245	0.100
507.200	61.836	0.100
507.300	71.718	0.100
507.400	58.731	0.100
507.500	55.499	0.100
507.600	69.832	0.100
507.700	70.870	0.100
507.800	60.069	0.100
507.900	62.578	0.100
508.000	41.648	0.100
508.100	79.658	0.100
508.200	85.154	0.100
508.300	73.593	0.100
508.400	62.532	0.100
508.500	70.537	0.100
508.600	71.954	0.100
508.700	76.335	0.100
508.800	71.657	0.100
508.900	64.364	0.100
509.000	72.251	0.100
509.100	71.977	0.100
509.200	63.987	0.100
509.300	65.978	0.100
509.400	41.163	0.100
509.500	62.065	0.100
509.600	67.918	0.100
509.700	73.659	0.100
509.800	71.333	0.100
509.900	64.019	0.100
510.000	80.443	0.100
510.100	56.647	0.100
510.200	68.275	0.100
510.300	47.247	0.100
510.400	54.366	0.100
510.500	83.037	0.100
510.600	74.586	0.100
510.700	70.792	0.100
510.800	70.229	0.100
510.900	80.938	0.100
511.000	56.309	0.100
511.100	70.519	0.100
511.200	75.015	0.100
511.300	68.689	0.100
511.400	80.124	0.100
511.500	66.354	0.100
511.600	65.860	0.100
511.700	65.445	0.100
511.800	62.457	0.100
511.900	70.395	0.100
512.000	83.862	0.100
512.100	68.378	0.100
512.200	55.611	0.100
512.300	67.862	0.100
512.400	71.618	0.100
512.500	79.922	0.100
512.600	76.783	0.100
512.700	66.507	0.100
512.800	60.495	0.100
512.900	77.781	0.100
513.000	68.100	0.100
513.100	69.116	0.100
513.200	63.681	0.100
513.300	74.384	0.100
513.400	70.283	0.100
513.500	63.333	0.100
513.600	70.229	0.100
513.700	56.197	0.100
513.800	70.076	0.100
513.900	79.872	0.100
514.000	69.843	0.100
514.100	61.056	0.100
514.200	70.754	0.100
514.300	59.713	0.100
514.400	72.622	0.100
514.500	77.954	0.100
514.600	77.472	0.100
514.700	78.610	0.100
514.800	59.258	0.100
514.900	69.811	0.100
515.000	76.919	0.100
515.100	55.038	0.100
515.200	59.223	0.100
515.300	70.219	0.100
515.400	77.166	0.100
515.500	62.841	0.100
515.600	50.419	0.100
515.700	71.969	0.100
515.800	84.239	0.100
515.900	71.152	0.100
516.000	62.142	0.100
516.100	76.189	0.100
516.200	64.442	0.100
516.300	79.191	0.100
516.400	58.513	0.100
516.500	75.020	0.100
516.600	64.387	0.100
516.700	53.595	0.100
516.800	69.578	0.100
516.900	67.426	0.100
517.000	63.161	0.100
517.100	73.800	0.100
517.200	70.666	0.100
517.300	70.934	0.100
517.400	74.316	0.100
517.500	77.532	0.100
517.600	60.385	0.100
517.700	75.046	0.100
517.800	51.691	0.100
517.900	69.452	0.100
518.000	81.797	0.100
518.100	63.097	0.100
518.200	79.589	0.100
518.300	75.641	0.100
518.400	63.274	0.100
518.500	65.646	0.100
518.600	73.246	0.100
518.700	71.099	0.100
518.800	67.740	0.100
518.900	68.882	0.100
519.000	77.686	0.100
519.100	60.270	0.100
519.200	74.696	0.100
519.300	76.539	0.100
519.400	65.321	0.100
519.500	61.573	0.100
519.600	71.847	0.100
519.700	76.304	0.100
519.800	55.421	0.100
519.900	77.181	0.100
520.000	64.183	0.100
520.100	72.970	0.100
520.200	79.513	0.100
520.300	56.261	0.100
520.400	66.251	0.100
520.500	68.447	0.100
520.600	63.745	0.100
520.700	55.896	0.100
520.800	65.168	0.100
520.900	68.545	0.100
521.000	79.918	0.100
521.100	81.656	0.100
521.200	64.098	0.100
521.300	60.878	0.100
521.400	67.317	0.100
521.500	71.259	0.100
521.600	65.091	0.100
521.700	59.326	0.100
521.800	61.022	0.100
521.900	58.640	0.100
522.000	48.618	0.100
522.100	63.779	0.100
522.200	85.758	0.100
522.300	82.172	0.100
522.400	58.936	0.100
522.500	81.524	0.100
522.600	71.332	0.100
522.700	54.506	0.100
522.800	64.308	0.100
522.900	59.425	0.100
523.000	82.045	0.100
523.100	61.298	0.100
523.200	63.934	0.100
523.300	69.147	0.100
523.400	60.734	0.100
523.500	66.601	0.100
523.600	73.048	0.100
523.700	69.572	0.100
523.800	65.822	0.100
523.900	75.680	0.100
524.000	80.085	0.100
524.100	61.798	0.100
524.200	61.763	0.100
524.300	66.133	0.100
524.400	63.377	0.100
524.500	58.535	0.100
524.600	64.308	0.100
524.700	70.070	0.100
524.800	78.506	0.100
524.900	66.464	0.100
525.000	61.113	0.100
525.100	64.527	0.100
525.200	63.354	0.100
525.300	67.579	0.100
525.400	66.380	0.100
525.500	69.564	0.100
525.600	69.926	0.100
525.700	72.038	0.100
525.800	70.166	0.100
525.900	69.403	0.100
526.000	60.471	0.100
526.100	71.112	0.100
526.200	56.957	0.100
526.300	61.346	0.100
526.400	69.454	0.100
526.500	82.873	0.100
526.600	60.793	0.100
526.700	67.738	0.100
526.800	54.159	0.100
526.900	60.379	0.100
527.000	51.664	0.100
527.100	71.802	0.100
527.200	76.787	0.100
527.300	71.120	0.100
527.400	63.247	0.100
527.500	80.707	0.100
527.600	76.813	0.100
527.700	63.917	0.100
527.800	50.792	0.100
527.900	73.084	0.100
528.000	67.292	0.100
528.100	52.582	0.100
528.200	54.301	0.100
528.300	54.297	0.100
528.400	49.975	0.100
528.500	62.801	0.100
528.600	60.472	0.100
528.700	49.340	0.100
528.800	77.528	0.100
528.900	70.622	0.100
529.000	56.030	0.100
529.100	69.149	0.100
529.200	66.874	0.100
529.300	58.265	0.100
529.400	65.410	0.100
529.500	69.149	0.100
529.600	65.405	0.100
529.700	64.150	0.100
529.800	58.763	0.100
529.900	54.360	0.100
530.000	60.487	0.100
530.100	70.277	0.100
530.200	59.430	0.100
530.300	61.021	0.100
530.400	52.909	0.100
530.500	61.528	0.100
530.600	58.829	0.100
530.700	61.179	0.100
530.800	60.832	0.100
530.900	57.527	0.100
531.000	73.479	0.100
531.100	77.978	0.100
531.200	77.499	0.100
531.300	64.534	0.100
531.400	73.819	0.100
531.500	68.891	0.100
531.600	44.197	0.100
531.700	64.068	0.100
531.800	47.168	0.100
531.900	68.384	0.100
532.000	59.434	0.100
532.100	73.326	0.100
532.200	56.857	0.100
532.300	61.374	0.100
532.400	70.931	0.100
532.500	65.680	0.100
532.600	73.562	0.100
532.700	58.297	0.100
532.800	57.100	0.100
532.900	72.366	0.100
533.000	36.854	0.100
533.100	56.215	0.100
533.200	59.460	0.100
533.300	64.206	0.100
533.400	56.948	0.100
533.500	74.538	0.100
533.600	56.804	0.100
533.700	68.129	0.100
533.800	60.533	0.100
533.900	60.040	0.100
534.000	56.180	0.100
534.100	65.801	0.100
534.200	83.880	0.100
534.300	61.947	0.100
534.400	52.078	0.100
534.500	48.219	0.100
534.600	70.246	0.100
534.700	48.489	0.100
534.800	63.561	0.100
534.900	62.673	0.100
535.000	60.251	0.100
535.100	61.182	0.100
535.200	76.761	0.100
535.300	58.041	0.100
535.400	54.859	0.100
535.500	66.966	0.100
535.600	63.422	0.100
535.700	63.602	0.100
535.800	72.825	0.100
535.900	68.146	0.100
536.000	56.241	0.100
536.100	50.065	0.100
536.200	54.825	0.100
536.300	63.284	0.100
536.400	65.959	0.100
536.500	54.944	0.100
536.600	61.024	0.100
536.700	66.294	0.100
536.800	71.276	0.100
536.900	44.966	0.100
537.000	62.115	0.100
537.100	61.593	0.100
537.200	76.517	0.100
537.300	67.153	0.100
537.400	47.117	0.100
537.500	71.698	0.100
537.600	63.595	0.100
537.700	68.430	0.100
537.800	61.073	0.100
537.900	65.348	0.100
538.000	64.266	0.100
538.100	45.498	0.100
538.200	50.637	0.100
538.300	70.291	0.100
538.400	74.368	0.100
538.500	52.809	0.100
538.600	61.745	0.100
538.700	66.383	0.100
538.800	56.919	0.100
538.900	69.754	0.100
539.000	64.830	0.100
539.100	48.685	0.100
539.200	55.804	0.100
539.300	66.051	0.100
539.400	64.882	0.100
539.500	43.608	0.100
539.600	70.439	0.100
539.700	62.483	0.100
539.800	50.178	0.100
539.900	60.417	0.100
540.000	50.654	0.100
540.100	68.097	0.100
540.200	69.852	0.100
540.300	70.442	0.100
540.400	46.171	0.100
540.500	56.066	0.100
540.600	61.570	0.100
540.700	74.281	0.100
540.800	51.682	0.100
540.900	59.959	0.100
541.000	58.283	0.100
541.100	47.974	0.100
541.200	37.930	0.100
541.300	40.391	0.100
541.400	58.087	0.100
541.500	50.289	0.100
541.600	36.163	0.100
541.700	55.469	0.100
541.800	54.366	0.100
541.900	35.030	0.100
542.000	31.676	0.100
542.100	47.027	0.100
542.200	44.166	0.100
542.300	32.528	0.100
542.400	49.372	0.100
542.500	39.678	0.100
542.600	26.465	0.100
542.700	37.326	0.100
542.800	22.162	0.100
542.900	31.007	0.100
543.000	28.949	0.100
543.100	22.254	0.100
543.200	28.421	0.100
543.300	20.889	0.100
543.400	20.812	0.100
543.500	24.227	0.100
543.600	19.736	0.100
543.700	17.866	0.100
543.800	19.490	0.100
543.900	27.629	0.100
544.000	7.494	0.100
544.100	14.616	0.100
544.200	25.587	0.100
544.300	12.765	0.100
544.400	13.938	0.100
544.500	8.294	0.100
544.600	6.459	0.100
544.700	11.913	0.100
544.800	-3.458	0.100
544.900	11.151	0.100
545.000	-2.034	0.100
545.100	3.060	0.100
545.200	11.114	0.100
545.300	12.096	0.100
545.400	12.834	0.100
545.500	0.821	0.100
545.600	15.992	0.100
545.700	5.067	0.100
545.800	6.703	0.100
545.900	10.189	0.100
546.000	7.121	0.100
546.100	7.071	0.100
546.200	-3.159	0.100
546.300	-4.679	0.100
546.400	7.129	0.100
546.500	-1.105	0.100
546.600	-3.327	0.100
546.700	11.962	0.100
546.800	-4.799	0.100
546.900	-0.387	0.100
547.000	-1.437	0.100
547.100	2.024	0.100
547.200	-11.536	0.100
547.300	-4.036	0.100
547.400	-0.812	0.100
547.500	-17.075	0.100
547.600	-1.724	0.100
547.700	-27.807	0.100
547.800	-20.694	0.100
547.900	5.276	0.100
548.000	-0.718	0.100
548.100	-0.619	0.100
548.200	-0.908	0.100
548.300	8.390	0.100
548.400	6.948	0.100
548.500	-3.773	0.100
548.600	8.613	0.100
548.700	-2.132	0.100
548.800	-5.607	0.100
548.900	-14.849	0.100
549.000	-8.217	0.100
549.100	-5.849	0.100
549.200	-7.121	0.100
549.300	-7.046	0.100
549.400	0.188	0.100
549.500	9.592	0.100
549.600	-3.525	0.100
549.700	-16.580	0.100
549.800	-18.444	0.100
549.900	-2.248	0.100
550.000	8.300	0.100
550.100	-4.603	0.100
550.200	-4.794	0.100
550.300	-9.159	0.100
550.400	-10.304	0.100
550.500	5.909	0.100
550.600	-4.425	0.100
550.700	-19.745	0.100
550.800	-14.467	0.100
550.900	-1.194	0.100
551.000	-10.399	0.100
551.100	-2.556	0.100
551.200	-6.950	0.100
551.300	-3.274	0.100
551.400	-15.186	0.100
551.500	-8.797	0.100
551.600	-9.001	0.100
551.700	-26.479	0.100
551.800	2.608	0.100
551.900	-14.723	0.100
552.000	-5.211	0.100
552.100	-11.444	0.100
552.200	-3.936	0.100
552.300	-16.848	0.100
552.400	-5.398	0.100
552.500	-11.476	0.100
552.600	-5.461	0.100
552.700	-20.656	0.100
552.800	-15.464	0.100
552.900	-11.253	0.100
553.000	-12.267	0.100
553.100	-15.531	0.100
553.200	-22.345	0.100
553.300	-13.356	0.100
553.400	-8.932	0.100
553.500	-8.599	0.100
553.600	-15.533	0.100
553.700	2.662	0.100
553.800	-19.911	0.100
553.900	-11.429	0.100
554.000	-15.500	0.100
554.100	-9.479	0.100
554.200	-14.912	0.100
554.300	-9.959	0.100
554.400	-20.722	0.100
554.500	-14.524	0.100
554.600	-6.321	0.100
554.700	-17.864	0.100
554.800	-12.036	0.100
554.900	-4.600	0.100
555.000	-20.850	0.100
555.100	-14.132	0.100
555.200	-13.068	0.100
555.300	-12.243	0.100
555.400	-11.431	0.100
555.500	-13.233	0.100
555.600	-16.992	0.100
555.700	-17.478	0.100
555.800	-15.053	0.100
555.900	-2.866	0.100
556.000	-18.059	0.100
556.100	-19.397	0.100
556.200	-21.011	0.100
556.300	-16.284	0.100
556.400	-18.293	0.100
556.500	-6.188	0.100
556.600	-3.743	0.100
556.700	-9.088	0.100
556.800	-17.314	0.100
556.900	-32.208	0.100
557.000	-31.265	0.100
557.100	-8.119	0.100
557.200	2.237	0.100
557.300	-11.860	0.100
557.400	-25.276	0.100
557.500	-18.283	0.100
557.600	-10.768	0.100
557.700	-12.858	0.100
557.800	-19.022	0.100
557.900	-23.605	0.100
558.000	-19.026	0.100
558.100	-25.343	0.100
558.200	-18.625	0.100
558.300	-13.060	0.100
558.400	-18.934	0.100
558.500	-21.352	0.100
558.600	-19.023	0.100
558.700	-18.484	0.100
558.800	-15.248	0.100
558.900	-14.547	0.100
559.000	-30.126	0.100
559.100	-8.083	0.100
559.200	-20.774	0.100
559.300	-13.258	0.100
559.400	-13.767	0.100
559.500	-16.213	0.100
559.600	-8.754	0.100
559.700	-11.794	0.100
559.800	-24.621	0.100
559.900	-17.417	0.100
560.000	-16.753	0.100
560.100	-20.876	0.100
560.200	-11.458	0.100
560.300	-15.885	0.100
560.400	-18.966	0.100
560.500	-36.772	0.100
560.600	-24.838	0.100
560.700	-25.826	0.100
560.800	-10.891	0.100
560.900	-0.950	0.100
561.000	-14.228	0.100
561.100	-32.249	0.100
561.200	-18.920	0.100
561.300	-25.742	0.100
561.400	-18.139	0.100
561.500	-8.362	0.100
561.600	-31.216	0.100
561.700	-16.948	0.100
561.800	-21.867	0.100
561.900	-10.446	0.100
562.000	-21.373	0.100
562.100	-14.959	0.100
562.200	-19.439	0.100
562.300	-22.791	0.100
562.400	-3.888	0.100
562.500	-27.841	0.100
562.600	-16.170	0.100
562.700	-24.126	0.100
562.800	-22.836	0.100
562.900	-42.220	0.100
563.000	-13.132	0.100
563.100	-18.548	0.100
563.200	-26.033	0.100
563.300	-29.208	0.100
563.400	-18.223	0.100
563.500	-22.048	0.100
563.600	-19.687	0.100
563.700	-18.646	0.100
563.800	-26.617	0.100
563.900	-21.257	0.100
564.000	-13.252	0.100
564.100	-21.683	0.100
564.200	-7.433	0.100
564.300	-35.502	0.100
564.400	-24.447	0.100
564.500	-7.321	0.100
564.600	3.497	0.100
564.700	-38.717	0.100
564.800	-14.023	0.100
564.900	-24.312	0.100
565.000	-23.374	0.100
565.100	-24.459	0.100
565.200	-24.401	0.100
565.300	-38.009	0.100
565.400	-6.219	0.100
565.500	-19.130	0.100
565.600	-33.669	0.100
565.700	-16.607	0.100
565.800	-29.052	0.100
565.900	-16.958	0.100
566.000	-27.408	0.100
566.100	-19.892	0.100
566.200	-42.646	0.100
566.300	-34.396	0.100
566.400	-12.215	0.100
566.500	-19.742	0.100
566.600	-21.277	0.100
566.700	-21.416	0.100
566.800	-29.855	0.100
566.900	-17.096	0.100
567.000	-18.485	0.100
567.100	-38.553	0.100
567.200	-26.846	0.100
567.300	-24.655	0.100
567.400	-41.689	0.100
567.500	-31.665	0.100
567.600	-39.988	0.100
567.700	-31.785	0.100
567.800	-4.121	0.100
567.900	-17.690	0.100
568.000	-12.189	0.100
568.100	-25.238	0.100
568.200	-33.917	0.100
568.300	-39.102	0.100
568.400	-18.543	0.100
568.500	-33.482	0.100
568.600	-25.816	0.100
568.700	-11.763	0.100
568.800	-21.249	0.100
568.900	-29.817	0.100
569.000	-33.715	0.100
569.100	-19.721	0.100
569.200	-28.140	0.100
569.300	-36.365	0.100
569.400	-24.994	0.100
569.500	-23.794	0.100
569.600	-27.833	0.100
569.700	-18.408	0.100
569.800	-5.933	0.100
569.900	-27.258	0.100
570.000	-37.883	0.100
570.100	-39.344	0.100
570.200	-24.545	0.100
570.300	-26.774	0.100
570.400	-21.862	0.100
570.500	-30.999	0.100
570.600	-22.704	0.100
570.700	-31.284	0.100
570.800	-27.787	0.100
570.900	-28.589	0.100
571.000	-47.590	0.100
571.100	-29.174	0.100
571.200	-20.366	0.100
571.300	-26.306	0.100
571.400	-39.543	0.100
571.500	-30.318	0.100
571.600	-31.101	0.100
571.700	-32.737	0.100
571.800	-28.622	0.100
571.900	-20.286	0.100
572.000	-20.297	0.100
572.100	-39.847	0.100
572.200	-44.091	0.100
572.300	-28.656	0.100
572.400	-34.535	0.100
572.500	-32.251	0.100
572.600	-34.399	0.100
572.700	-24.753	0.100
572.800	-39.302	0.100
572.900	-34.287	0.100
573.000	-31.140	0.100
573.100	-26.870	0.100
573.200	-35.354	0.100
573.300	-39.758	0.100
573.400	-40.766	0.100
573.500	-18.278	0.100
573.600	-24.805	0.100
573.700	-26.242	0.100
573.800	-43.970	0.100
573.900	-31.831	0.100
574.000	-30.099	0.100
574.100	-29.032	0.100
574.200	-26.328	0.100
574.300	-32.196	0.100
574.400	-27.296	0.100
574.500	-35.817	0.100
574.600	-31.767	0.100
574.700	-35.165	0.100
574.800	-29.173	0.100
574.900	-36.465	0.100
575.000	-25.472	0.100
575.100	-17.432	0.100
575.200	-25.311	0.100
575.300	-44.577	0.100
575.400	-35.108	0.100
575.500	-23.007	0.100
575.600	-33.059	0.100
575.700	-46.172	0.100
575.800	-23.619	0.100
575.900	-22.734	0.100
576.000	-34.484	0.100
576.100	-42.617	0.100
576.200	-25.511	0.100
576.300	-20.400	0.100
576.400	-46.791	0.100
576.500	-36.588	0.100
576.600	-24.451	0.100
576.700	-43.412	0.100
576.800	-24.614	0.100
576.900	-23.899	0.100
577.000	-29.231	0.100
577.100	-31.970	0.100
577.200	-38.019	0.100
577.300	-40.714	0.100
577.400	-30.494	0.100
577.500	-40.162	0.100
577.600	-22.222	0.100
577.700	-33.183	0.100
577.800	-19.423	0.100
577.900	-43.204	0.100
578.000	-40.264	0.100
578.100	-34.773	0.100
578.200	-32.571	0.100
578.300	-30.247	0.100
578.400	-34.405	0.100
578.500	-30.560	0.100
578.600	-44.579	0.100
578.700	-44.176	0.100
578.800	-40.210	0.100
578.900	-39.641	0.100
579.000	-33.479	0.100
579.100	-29.611	0.100
579.200	-29.810	0.100
579.300	-37.610	0.100
579.400	-29.797	0.100
579.500	-30.273	0.100
579.600	-26.841	0.100
579.700	-31.052	0.100
579.800	-37.569	0.100
579.900	-43.222	0.100
580.000	-35.754	0.100
580.100	-45.152	0.100
580.200	-35.305	0.100
580.300	-23.927	0.100
580.400	-30.903	0.100
580.500	-38.984	0.100
580.600	-36.649	0.100
580.700	-34.843	0.100
580.800	-32.162	0.100
580.900	-29.098	0.100
581.000	-31.057	0.100
581.100	-26.550	0.100
581.200	-48.505	0.100
581.300	-31.742	0.100
581.400	-28.745	0.100
581.500	-30.720	0.100
581.600	-41.300	0.100
581.700	-38.501	0.100
581.800	-38.567	0.100
581.900	-40.756	0.100
582.000	-39.296	0.100
582.100	-35.375	0.100
582.200	-21.813	0.100
582.300	-25.184	0.100
582.400	-21.422	0.100
582.500	-53.272	0.100
582.600	-38.859	0.100
582.700	-33.896	0.100
582.800	-19.652	0.100
582.900	-21.507	0.100
583.000	-19.402	0.100
583.100	-37.296	0.100
583.200	-34.837	0.100
583.300	-27.884	0.100
583.400	-38.525	0.100
583.500	-43.000	0.100
583.600	-43.403	0.100
583.700	-34.126	0.100
583.800	-48.316	0.100
583.900	-41.668	0.100
584.000	-41.343	0.100
584.100	-37.497	0.100
584.200	-33.673	0.100
584.300	-32.637	0.100
584.400	-29.674	0.100
584.500	-35.580	0.100
584.600	-47.021	0.100
584.700	-50.406	0.100
584.800	-22.524	0.100
584.900	-35.312	0.100
585.000	-37.716	0.100
585.100	-34.912	0.100
585.200	-37.858	0.100
585.300	-34.829	0.100
585.400	-25.852	0.100
585.500	-42.443	0.100
585.600	-35.642	0.100
585.700	-36.603	0.100
585.800	-25.518	0.100
585.900	-39.474	0.100
586.000	-48.594	0.100
586.100	-35.699	0.100
586.200	-22.209	0.100
586.300	-40.733	0.100
586.400	-45.894	0.100
586.500	-52.219	0.100
586.600	-44.872	0.100
586.700	-35.420	0.100
586.800	-23.919	0.100
586.900	-32.366	0.100
587.000	-34.731	0.100
587.100	-48.382	0.100
587.200	-37.032	0.100
587.300	-44.462	0.100
587.400	-32.246	0.100
587.500	-37.002	0.100
587.600	-41.594	0.100
587.700	-27.332	0.100
587.800	-20.108	0.100
587.900	-37.950	0.100
588.000	-39.100	0.100
588.100	-41.698	0.100
588.200	-25.696	0.100
588.300	-56.048	0.100
588.400	-29.013	0.100
588.500	-28.569	0.100
588.600	-47.389	0.100
588.700	-32.600	0.100
588.800	-32.604	0.100
588.900	-35.056	0.100
589.000	-37.461	0.100
589.100	-32.311	0.100
589.200	-49.927	0.100
589.300	-50.571	0.100
589.400	-40.602	0.100
589.500	-41.757	0.100
589.600	-37.535	0.100
589.700	-32.461	0.100
589.800	-32.869	0.100
589.900	-36.060	0.100
590.000	-36.758	0.100
590.100	-27.235	0.100
590.200	-45.195	0.100
590.300	-38.488	0.100
590.400	-28.181	0.100
590.500	-30.024	0.100
590.600	-34.676	0.100
590.700	-44.025	0.100
590.800	-30.897	0.100
590.900	-34.044	0.100
591.000	-26.082	0.100
591.100	-42.181	0.100
591.200	-51.745	0.100
591.300	-54.705	0.100
591.400	-35.996	0.100
591.500	-20.308	0.100
591.600	-28.580	0.100
591.700	-42.813	0.100
591.800	-39.028	0.100
591.900	-30.943	0.100
592.000	-34.673	0.100
592.100	-40.727	0.100
592.200	-40.952	0.100
592.300	-31.107	0.100
592.400	-34.110	0.100
592.500	-43.710	0.100
592.600	-32.478	0.100
592.700	-34.437	0.100
592.800	-44.246	0.100
592.900	-44.248	0.100
593.000	-27.689	0.100
593.100	-17.223	0.100
593.200	-51.440	0.100
593.300	-33.444	0.100
593.400	-33.879	0.100
593.500	-20.004	0.100
593.600	-19.348	0.100
593.700	-44.649	0.100
593.800	-40.445	0.100
593.900	-31.492	0.100
594.000	-36.946	0.100
594.100	-32.706	0.100
594.200	-30.479	0.100
594.300	-41.663	0.100
594.400	-39.505	0.100
594.500	-30.336	0.100
594.600	-32.409	0.100
594.700	-33.565	0.100
594.800	-34.224	0.100
594.900	-35.663	0.100
595.000	-34.770	0.100
595.100	-28.503	0.100
595.200	-29.959	0.100
595.300	-46.110	0.100
595.400	-64.155	0.100
595.500	-31.667	0.100
595.600	-38.314	0.100
595.700	-45.802	0.100
595.800	-26.551	0.100
595.900	-39.335	0.100
596.000	-44.286	0.100
596.100	-15.405	0.100
596.200	-40.691	0.100
596.300	-28.809	0.100
596.400	-27.669	0.100
596.500	-20.001	0.100
596.600	-31.572	0.100
596.700	-54.794	0.100
596.800	-27.393	0.100
596.900	-31.353	0.100
597.000	-37.952	0.100
597.100	-28.897	0.100
597.200	-30.453	0.100
597.300	-50.271	0.100
597.400	-34.392	0.100
597.500	-35.781	0.100
597.600	-35.794	0.100
597.700	-45.644	0.100
597.800	-32.784	0.100
597.900	-39.096	0.100
598.000	-29.161	0.100
598.100	-34.728	0.100
598.200	-44.636	0.100
598.300	-34.463	0.100
598.400	-34.946	0.100
598.500	-39.580	0.100
598.600	-35.056	0.100
598.700	-31.573	0.100
598.800	-30.816	0.100
598.900	-37.811	0.100
599.000	-37.323	0.100
599.100	-40.900	0.100
599.200	-34.553	0.100
599.300	-36.414	0.100
599.400	-41.901	0.100
599.500	-26.297	0.100
599.600	-38.800	0.100
599.700	-40.878	0.100
599.800	-48.805	0.100
599.900	-41.435	0.100
600.000	-46.139	0.100
600.100	-51.724	0.100
600.200	-37.766	0.100
600.300	-14.535	0.100
600.400	-38.778	0.100
600.500	-29.298	0.100
600.600	-39.569	0.100
600.700	-31.172	0.100
600.800	-35.797	0.100
600.900	-31.799	0.100
601.000	-19.526	0.100
601.100	-25.773	0.100
601.200	-35.823	0.100
601.300	-26.786	0.100
601.400	-36.062	0.100
601.500	-33.399	0.100
601.600	-39.298	0.100
601.700	-28.877	0.100
601.800	-29.715	0.100
601.900	-42.132	0.100
602.000	-36.476	0.100
602.100	-32.904	0.100
602.200	-39.414	0.100
602.300	-36.808	0.100
602.400	-41.079	0.100
602.500	-46.664	0.100
602.600	-20.529	0.100
602.700	-35.019	0.100
602.800	-50.599	0.100
602.900	-26.308	0.100
603.000	-48.586	0.100
603.100	-32.653	0.100
603.200	-39.844	0.100
603.300	-28.799	0.100
603.400	-37.892	0.100
603.500	-26.702	0.100
603.600	-41.856	0.100
603.700	-30.796	0.100
603.800	-28.196	0.100
603.900	-39.155	0.100
604.000	-33.183	0.100
604.100	-49.607	0.100
604.200	-28.915	0.100
604.300	-26.771	0.100
604.400	-32.493	0.100
604.500	-34.159	0.100
604.600	-26.216	0.100
604.700	-30.425	0.100
604.800	-32.709	0.100
604.900	-41.640	0.100
605.000	-22.055	0.100
605.100	-32.239	0.100
605.200	-32.611	0.100
605.300	-44.085	0.100
605.400	-41.137	0.100
605.500	-45.817	0.100
605.600	-38.728	0.100
605.700	-30.105	0.100
605.800	-29.516	0.100
605.900	-33.851	0.100
606.000	-32.777	0.100
606.100	-30.637	0.100
606.200	-32.059	0.100
606.300	-33.854	0.100
606.400	-29.717	0.100
606.500	-20.383	0.100
606.600	-31.587	0.100
606.700	-40.904	0.100
606.800	-31.576	0.100
606.900	-28.943	0.100
607.000	-33.703	0.100
607.100	-39.562	0.100
607.200	-25.963	0.100
607.300	-38.027	0.100
607.400	-37.777	0.100
607.500	-48.063	0.100
607.600	-36.655	0.100
607.700	-26.823	0.100
607.800	-30.273	0.100
607.900	-31.035	0.100
608.000	-39.634	0.100
608.100	-36.635	0.100
608.200	-32.764	0.100
608.300	-28.560	0.100
608.400	-30.276	0.100
608.500	-51.118	0.100
608.600	-36.485	0.100
608.700	-38.829	0.100
608.800	-32.513	0.100
608.900	-39.767	0.100
609.000	-30.100	0.100
609.100	-30.687	0.100
609.200	-45.598	0.100
609.300	-35.760	0.100
609.400	-32.570	0.100
609.500	-39.620	0.100
609.600	-43.461	0.100
609.700	-29.735	0.100
609.800	-36.131	0.100
609.900	-32.668	0.100
610.000	-27.229	0.100
610.100	-39.430	0.100
610.200	-37.245	0.100
610.300	-39.768	0.100
610.400	-33.730	0.100
610.500	-38.996	0.100
610.600	-33.448	0.100
610.700	-32.597	0.100
610.800	-41.294	0.100
610.900	-17.893	0.100
611.000	-25.325	0.100
611.100	-39.511	0.100
611.200	-35.665	0.100
611.300	-31.740	0.100
611.400	-31.457	0.100
611.500	-23.039	0.100
611.600	-35.237	0.100
611.700	-36.211	0.100
611.800	-29.745	0.100
611.900	-26.777	0.100
612.000	-33.142	0.100
612.100	-38.039	0.100
612.200	-44.422	0.100
612.300	-32.499	0.100
612.400	-33.070	0.100
612.500	-33.836	0.100
612.600	-44.479	0.100
612.700	-39.531	0.100
612.800	-24.267	0.100
612.900	-35.600	0.100
613.000	-40.256	0.100
613.100	-22.163	0.100
613.200	-29.420	0.100
613.300	-32.032	0.100
613.400	-33.631	0.100
613.500	-44.369	0.100
613.600	-22.813	0.100
613.700	-29.326	0.100
613.800	-42.762	0.100
613.900	-26.904	0.100
614.000	-47.058	0.100
614.100	-30.851	0.100
614.200	-31.156	0.100
614.300	-26.248	0.100
614.400	-36.516	0.100
614.500	-28.360	0.100
614.600	-31.455	0.100
614.700	-20.821	0.100
614.800	-40.748	0.100
614.900	-36.490	0.100
615.000	-27.634	0.100
615.100	-30.037	0.100
615.200	-28.023	0.100
615.300	-43.517	0.100
615.400	-46.956	0.100
615.500	-23.200	0.100
615.600	-32.695	0.100
615.700	-25.348	0.100
615.800	-33.752	0.100
615.900	-40.399	0.100
616.000	-47.357	0.100
616.100	-44.044	0.100
616.200	-32.343	0.100
616.300	-41.344	0.100
616.400	-23.617	0.100
616.500	-23.188	0.100
616.600	-20.607	0.100
616.700	-28.461	0.100
616.800	-26.794	0.100
616.900	-40.978	0.100
617.000	-41.853	0.100
617.100	-36.874	0.100
617.200	-40.077	0.100
617.300	-44.050	0.100
617.400	-26.665	0.100
617.500	-34.271	0.100
617.600	-30.223	0.100
617.700	-22.124	0.100
617.800	-33.148	0.100
617.900	-32.381	0.100
618.000	-38.433	0.100
618.100	-37.317	0.100
618.200	-42.473	0.100
618.300	-14.320	0.100
618.400	-28.682	0.100
618.500	-29.700	0.100
618.600	-30.726	0.100
618.700	-40.095	0.100
618.800	-38.137	0.100
618.900	-34.313	0.100
619.000	-23.079	0.100
619.100	-28.809	0.100
619.200	-28.972	0.100
619.300	-27.323	0.100
619.400	-41.257	0.100
619.500	-20.752	0.100
619.600	-29.680	0.100
619.700	-39.516	0.100
619.800	-26.519	0.100
619.900	-38.142	0.100
620.000	-39.678	0.100
620.100	-42.537	0.100
620.200	-27.960	0.100
620.300	-35.539	0.100
620.400	-26.591	0.100
620.500	-39.375	0.100
620.600	-37.201	0.100
620.700	-12.427	0.100
620.800	-27.411	0.100
620.900	-41.912	0.100
621.000	-25.960	0.100
621.100	-33.920	0.100
621.200	-30.672	0.100
621.300	-42.414	0.100
621.400	-26.712	0.100
621.500	-29.863	0.100
621.600	-25.084	0.100
621.700	-36.979	0.100
621.800	-31.449	0.100
621.900	-19.883	0.100
622.000	-30.796	0.100
622.100	-49.487	0.100
622.200	-25.215	0.100
622.300	-15.435	0.100
622.400	-35.777	0.100
622.500	-34.914	0.100
622.600	-40.489	0.100
622.700	-23.417	0.100
622.800	-39.811	0.100
622.900	-45.474	0.100
623.000	-42.919	0.100
623.100	-22.914	0.100
623.200	-13.439	0.100
623.300	-25.176	0.100
623.400	-39.506	0.100
623.500	-24.407	0.100
623.600	-32.194	0.100
623.700	-47.183	0.100
623.800	-49.769	0.100
623.900	-19.393	0.100
624.000	-40.005	0.100
624.100	-33.439	0.100
624.200	-35.443	0.100
624.300	-19.662	0.100
624.400	-39.315	0.100
624.500	-24.907	0.100
624.600	-39.318	0.100
624.700	-36.276	0.100
624.800	-27.506	0.100
624.900	-28.291	0.100
625.000	-33.601	0.100
625.100	-55.153	0.100
625.200	-42.801	0.100
625.300	-31.590	0.100
625.400	-25.057	0.100
625.500	-17.946	0.100
625.600	-35.519	0.100
625.700	-23.360	0.100
625.800	-28.918	0.100
625.900	-23.164	0.100
626.000	-28.800	0.100
626.100	-29.145	0.100
626.200	-45.232	0.100
626.300	-13.039	0.100
626.400	-45.388	0.100
626.500	-30.143	0.100
626.600	-36.332	0.100
626.700	-23.738	0.100
626.800	-43.055	0.100
626.900	-24.111	0.100
627.000	-31.216	0.100
627.100	-28.003	0.100
627.200	-32.047	0.100
627.300	-27.729	0.100
627.400	-49.515	0.100
627.500	-25.193	0.100
627.600	-43.328	0.100
627.700	-25.915	0.100
627.800	-31.972	0.100
627.900	-21.818	0.100
628.000	-37.011	0.100
628.100	-40.181	0.100
628.200	-23.844	0.100
628.300	-27.785	0.100
628.400	-40.241	0.100
628.500	-26.030	0.100
628.600	-28.293	0.100
628.700	-34.725	0.100
628.800	-34.645	0.100
628.900	-28.598	0.100
629.000	-55.713	0.100
629.100	-29.403	0.100
629.200	-8.446	0.100
629.300	-29.188	0.100
629.400	-28.578	0.100
629.500	-22.623	0.100
629.600	-14.938	0.100
629.700	-27.028	0.100
629.800	-42.402	0.100
629.900	-37.435	0.100
630.000	-37.904	0.100
630.100	-18.050	0.100
630.200	-27.211	0.100
630.300	-30.028	0.100
630.400	-49.418	0.100
630.500	-19.978	0.100
630.600	-24.910	0.100
630.700	-17.829	0.100
630.800	-7.408	0.100
630.900	-12.879	0.100
631.000	-33.543	0.100
631.100	-34.687	0.100
631.200	-36.462	0.100
631.300	-34.044	0.100
631.400	-27.312	0.100
631.500	-21.805	0.100
631.600	-5.067	0.100
631.700	-7.581	0.100
631.800	-12.642	0.100
631.900	-6.142	0.100
632.000	-7.049	0.100
632.100	3.086	0.100
632.200	10.268	0.100
632.300	-17.786	0.100
632.400	-16.288	0.100
632.500	0.736	0.100
632.600	2.731	0.100
632.700	-5.444	0.100
632.800	6.100	0.100
632.900	-14.683	0.100
633.000	-8.713	0.100
633.100	1.340	0.100
633.200	1.005	0.100
633.300	-18.568	0.100
633.400	2.795	0.100
633.500	12.916	0.100
633.600	-1.086	0.100
633.700	-6.686	0.100
633.800	-9.179	0.100
633.900	-8.526	0.100
634.000	-8.034	0.100
634.100	18.850	0.100
634.200	3.641	0.100
634.300	2.443	0.100
634.400	-10.181	0.100
634.500	13.632	0.100
634.600	16.047	0.100
634.700	-2.244	0.100
634.800	14.507	0.100
634.900	-4.592	0.100
635.000	-5.066	0.100
635.100	9.920	0.100
635.200	3.068	0.100
635.300	-5.208	0.100
635.400	10.730	0.100
635.500	5.535	0.100
635.600	-7.554	0.100
635.700	5.055	0.100
635.800	-7.426	0.100
635.900	10.627	0.100
636.000	11.791	0.100
636.100	2.507	0.100
636.200	-0.723	0.100
636.300	6.663	0.100
636.400	18.097	0.100
636.500	8.377	0.100
636.600	5.725	0.100
636.700	-12.628	0.100
636.800	-9.490	0.100
636.900	11.553	0.100
637.000	4.107	0.100
637.100	16.317	0.100
637.200	1.302	0.100
637.300	7.261	0.100
637.400	14.403	0.100
637.500	2.671	0.100
637.600	6.286	0.100
637.700	1.745	0.100
637.800	-9.314	0.100
637.900	11.023	0.100
638.000	12.723	0.100
638.100	9.237	0.100
638.200	4.284	0.100
638.300	14.502	0.100
638.400	-11.162	0.100
638.500	11.758	0.100
638.600	25.986	0.100
638.700	10.354	0.100
638.800	11.944	0.100
638.900	11.386	0.100
639.000	6.580	0.100
639.100	13.274	0.100
639.200	3.566	0.100
639.300	4.414	0.100
639.400	15.837	0.100
639.500	6.464	0.100
639.600	8.107	0.100
639.700	18.629	0.100
639.800	13.610	0.100
639.900	15.419	0.100
640.000	10.858	0.100
640.100	21.692	0.100
640.200	9.582	0.100
640.300	9.468	0.100
640.400	8.576	0.100
640.500	-8.904	0.100
640.600	10.261	0.100
640.700	23.078	0.100
640.800	15.975	0.100
640.900	10.210	0.100
641.000	19.149	0.100
641.100	20.807	0.100
641.200	2.674	0.100
641.300	0.920	0.100
641.400	19.676	0.100
641.500	18.595	0.100
641.600	17.764	0.100
641.700	25.214	0.100
641.800	16.357	0.100
641.900	11.485	0.100
642.000	19.451	0.100
642.100	12.661	0.100
642.200	19.256	0.100
642.300	15.540	0.100
642.400	16.799	0.100
642.500	16.195	0.100
642.600	8.999	0.100
642.700	27.148	0.100
642.800	18.795	0.100
642.900	8.249	0.100
643.000	28.043	0.100
643.100	27.279	0.100
643.200	22.944	0.100
643.300	20.481	0.100
643.400	10.290	0.100
643.500	18.466	0.100
643.600	27.724	0.100
643.700	35.248	0.100
643.800	25.159	0.100
643.900	22.826	0.100
644.000	22.017	0.100
644.100	25.253	0.100
644.200	28.763	0.100
644.300	35.913	0.100
644.400	37.340	0.100
644.500	18.201	0.100
644.600	32.338	0.100
644.700	34.242	0.100
644.800	19.984	0.100
644.900	7.734	0.100
645.000	27.718	0.100
645.100	24.670	0.100
645.200	36.117	0.100
645.300	24.568	0.100
645.400	18.946	0.100
645.500	27.876	0.100
645.600	36.391	0.100
645.700	24.656	0.100
645.800	16.167	0.100
645.900	31.369	0.100
646.000	25.754	0.100
646.100	42.367	0.100
646.200	24.727	0.100
646.300	30.204	0.100
646.400	43.981	0.100
646.500	35.603	0.100
646.600	34.854	0.100
646.700	45.337	0.100
646.800	29.133	0.100
646.900	23.815	0.100
647.000	33.583	0.100
647.100	37.450	0.100
647.200	40.268	0.100
647.300	42.025	0.100
647.400	38.289	0.100
647.500	30.292	0.100
647.600	33.103	0.100
647.700	42.738	0.100
647.800	31.386	0.100
647.900	36.620	0.100
648.000	43.579	0.100
648.100	36.039	0.100
648.200	50.395	0.100
648.300	35.013	0.100
648.400	41.398	0.100
648.500	45.555	0.100
648.600	29.090	0.100
648.700	37.811	0.100
648.800	32.384	0.100
648.900	25.461	0.100
649.000	40.412	0.100
649.100	52.142	0.100
649.200	36.918	0.100
649.300	50.272	0.100
649.400	52.108	0.100
649.500	44.500	0.100
649.600	42.639	0.100
649.700	44.756	0.100
649.800	44.362	0.100
649.900	50.815	0.100
650.000	54.049	0.100
650.100	44.776	0.100
650.200	41.229	0.100
650.300	44.951	0.100
650.400	32.223	0.100
650.500	46.266	0.100
650.600	33.163	0.100
650.700	44.165	0.100
650.800	60.655	0.100
650.900	55.815	0.100
651.000	36.345	0.100
651.100	47.622	0.100
651.200	37.138	0.100
651.300	50.680	0.100
651.400	44.152	0.100
651.500	50.468	0.100
651.600	50.198	0.100
651.700	49.225	0.100
651.800	57.826	0.100
651.900	32.487	0.100
652.000	46.110	0.100
652.100	51.388	0.100
652.200	43.200	0.100
652.300	55.286	0.100
652.400	55.395	0.100
652.500	45.820	0.100
652.600	56.532	0.100
652.700	59.917	0.100
652.800	44.789	0.100
652.900	65.836	0.100
653.000	45.170	0.100
653.100	43.118	0.100
653.200	67.927	0.100
653.300	58.795	0.100
653.400	61.027	0.100
653.500	63.198	0.100
653.600	44.037	0.100
653.700	52.354	0.100
653.800	59.511	0.100
653.900	57.425	0.100
654.000	55.895	0.100
654.100	66.412	0.100
654.200	59.318	0.100
654.300	56.002	0.100
654.400	42.914	0.100
654.500	56.790	0.100
654.600	61.826	0.100
654.700	65.489	0.100
654.800	64.656	0.100
654.900	62.276	0.100
655.000	47.599	0.100
655.100	73.211	0.100
655.200	64.349	0.100
655.300	57.028	0.100
655.400	59.463	0.100
655.500	70.974	0.100
655.600	51.972	0.100
655.700	61.902	0.100
655.800	63.159	0.100
655.900	55.453	0.100
656.000	74.889	0.100
656.100	62.281	0.100
656.200	65.401	0.100
656.300	59.923	0.100
656.400	65.928	0.100
656.500	51.647	0.100
656.600	61.292	0.100
656.700	66.466	0.100
656.800	71.301	0.100
656.900	60.452	0.100
657.000	62.629	0.100
657.100	59.770	0.100
657.200	65.857	0.100
657.300	76.787	0.100
657.400	62.594	0.100
657.500	60.583	0.100
657.600	79.562	0.100
657.700	60.460	0.100
657.800	64.130	0.100
657.900	75.469	0.100
658.000	68.882	0.100
658.100	67.530	0.100
658.200	62.966	0.100
658.300	62.373	0.100
658.400	69.141	0.100
658.500	59.928	0.100
658.600	71.420	0.100
658.700	62.540	0.100
658.800	65.486	0.100
658.900	64.829	0.100
659.000	70.438	0.100
659.100	71.735	0.100
659.200	74.243	0.100
659.300	68.822	0.100
659.400	80.773	0.100
659.500	56.697	0.100
659.600	73.432	0.100
659.700	64.139	0.100
659.800	67.807	0.100
659.900	74.411	0.100
660.000	74.732	0.100
660.100	76.352	0.100
660.200	70.117	0.100
660.300	60.625	0.100
660.400	75.558	0.100
660.500	65.174	0.100
660.600	86.081	0.100
660.700	80.572	0.100
660.800	60.569	0.100
660.900	75.538	0.100
661.000	76.295	0.100
661.100	63.980	0.100
661.200	81.897	0.100
661.300	71.321	0.100
661.400	66.196	0.100
661.500	76.088	0.100
661.600	65.419	0.100
661.700	70.570	0.100
661.800	63.739	0.100
661.900	75.719	0.100
662.000	68.338	0.100
662.100	80.508	0.100
662.200	70.959	0.100
662.300	70.747	0.100
662.400	65.893	0.100
662.500	69.521	0.100
662.600	58.597	0.100
662.700	51.665	0.100
662.800	77.960	0.100
662.900	62.293	0.100
663.000	70.824	0.100
663.100	52.883	0.100
663.200	66.492	0.100
663.300	59.453	0.100
663.400	78.993	0.100
663.500	71.201	0.100
663.600	67.013	0.100
663.700	94.464	0.100
663.800	83.020	0.100
663.900	65.537	0.100
664.000	69.215	0.100
664.100	75.808	0.100
664.200	72.818	0.100
664.300	74.637	0.100
664.400	81.838	0.100
664.500	70.306	0.100
664.600	71.003	0.100
664.700	59.241	0.100
664.800	74.404	0.100
664.900	74.781	0.100
665.000	67.286	0.100
665.100	89.955	0.100
665.200	46.248	0.100
665.300	66.441	0.100
665.400	67.640	0.100
665.500	75.900	0.100
665.600	66.687	0.100
665.700	66.440	0.100
665.800	76.727	0.100
665.900	62.667	0.100
666.000	72.241	0.100
666.100	59.382	0.100
666.200	80.825	0.100
666.300	85.769	0.100
666.400	75.451	0.100
666.500	59.152	0.100
666.600	82.082	0.100
666.700	69.937	0.100
666.800	73.495	0.100
666.900	75.800	0.100
667.000	68.762	0.100
667.100	75.771	0.100
667.200	70.846	0.100
667.300	74.209	0.100
667.400	86.813	0.100
667.500	75.172	0.100
667.600	61.441	0.100
667.700	74.167	0.100
667.800	74.603	0.100
667.900	58.000	0.100
668.000	62.214	0.100
668.100	62.273	0.100
668.200	62.765	0.100
668.300	79.997	0.100
668.400	64.318	0.100
668.500	52.918	0.100
668.600	59.085	0.100
668.700	82.501	0.100
668.800	80.377	0.100
668.900	72.684	0.100
669.000	72.136	0.100
669.100	67.918	0.100
669.200	62.562	0.100
669.300	65.575	0.100
669.400	80.423	0.100
669.500	70.105	0.100
669.600	75.912	0.100
669.700	77.951	0.100
669.800	76.942	0.100
669.900	67.243	0.100
670.000	69.184	0.100
670.100	56.930	0.100
670.200	69.008	0.100
670.300	66.204	0.100
670.400	75.898	0.100
670.500	67.251	0.100
670.600	56.936	0.100
670.700	72.570	0.100
670.800	58.909	0.100
670.900	71.309	0.100
671.000	72.047	0.100
671.100	81.145	0.100
671.200	69.903	0.100
671.300	75.578	0.100
671.400	70.476	0.100
671.500	51.517	0.100
671.600	75.405	0.100
671.700	68.626	0.100
671.800	64.102	0.100
671.900	70.899	0.100
672.000	72.515	0.100
672.100	73.809	0.100
672.200	61.383	0.100
672.300	78.103	0.100
672.400	75.099	0.100
672.500	64.902	0.100
672.600	64.711	0.100
672.700	66.490	0.100
672.800	68.509	0.100
672.900	67.749	0.100
673.000	74.696	0.100
673.100	70.447	0.100
673.200	71.290	0.100
673.300	57.681	0.100
673.400	55.869	0.100
673.500	79.070	0.100
673.600	59.638	0.100
673.700	50.178	0.100
673.800	66.719	0.100
673.900	56.135	0.100
674.000	74.702	0.100
674.100	64.751	0.100
674.200	65.565	0.100
674.300	76.976	0.100
674.400	64.652	0.100
674.500	72.601	0.100
674.600	70.415	0.100
674.700	56.027	0.100
674.800	74.158	0.100
674.900	69.662	0.100
675.000	57.274	0.100
675.100	72.532	0.100
675.200	73.096	0.100
675.300	56.549	0.100
675.400	55.441	0.100
675.500	62.319	0.100
675.600	75.394	0.100
675.700	82.519	0.100
675.800	66.871	0.100
675.900	47.057	0.100
676.000	78.228	0.100
676.100	65.569	0.100
676.200	73.384	0.100
676.300	59.039	0.100
676.400	75.191	0.100
676.500	74.604	0.100
676.600	66.175	0.100
676.700	72.287	0.100
676.800	65.125	0.100
676.900	69.270	0.100
677.000	65.037	0.100
677.100	43.217	0.100
677.200	64.341	0.100
677.300	66.543	0.100
677.400	70.982	0.100
677.500	57.984	0.100
677.600	60.920	0.100
677.700	74.623	0.100
677.800	67.726	0.100
677.900	63.691	0.100
678.000	73.861	0.100
678.100	71.747	0.100
678.200	68.778	0.100
678.300	73.628	0.100
678.400	64.159	0.100
678.500	53.307	0.100
678.600	72.141	0.100
678.700	60.963	0.100
678.800	53.903	0.100
678.900	73.560	0.100
679.000	69.121	0.100
679.100	55.835	0.100
679.200	68.263	0.100
679.300	67.890	0.100
679.400	59.612	0.100
679.500	80.393	0.100
679.600	71.931	0.100
679.700	58.449	0.100
679.800	68.535	0.100
679.900	70.689	0.100
680.000	63.949	0.100
680.100	64.039	0.100
680.200	68.750	0.100
680.300	65.364	0.100
680.400	59.942	0.100
680.500	61.015	0.100
680.600	60.261	0.100
680.700	60.144	0.100
680.800	47.651	0.100
680.900	66.595	0.100
681.000	76.484	0.100
681.100	54.672	0.100
681.200	60.707	0.100
681.300	67.537	0.100
681.400	56.031	0.100
681.500	58.970	0.100
681.600	67.447	0.100
681.700	69.185	0.100
681.800	62.273	0.100
681.900	67.255	0.100
682.000	64.495	0.100
682.100	55.764	0.100
682.200	65.114	0.100
682.300	74.394	0.100
682.400	66.960	0.100
682.500	65.063	0.100
682.600	63.658	0.100
682.700	63.987	0.100
682.800	58.128	0.100
682.900	70.073	0.100
683.000	75.063	0.100
683.100	78.576	0.100
683.200	62.804	0.100
683.300	63.866	0.100
683.400	46.197	0.100
683.500	56.798	0.100
683.600	56.865	0.100
683.700	58.996	0.100
683.800	68.571	0.100
683.900	70.044	0.100
684.000	58.962	0.100
684.100	61.985	0.100
684.200	69.317	0.100
684.300	82.281	0.100
684.400	68.025	0.100
684.500	42.949	0.100
684.600	55.292	0.100
684.700	78.227	0.100
684.800	50.453	0.100
684.900	62.007	0.100
685.000	59.952	0.100
685.100	69.995	0.100
685.200	57.762	0.100
685.300	65.756	0.100
685.400	63.630	0.100
685.500	54.993	0.100
685.600	64.740	0.100
685.700	66.057	0.100
685.800	55.265	0.100
685.900	64.737	0.100
686.000	58.407	0.100
686.100	49.061	0.100
686.200	65.499	0.100
686.300	64.127	0.100
686.400	60.098	0.100
686.500	64.504	0.100
686.600	55.748	0.100
686.700	69.277	0.100
686.800	67.355	0.100
686.900	56.934	0.100
687.000	55.398	0.100
687.100	74.787	0.100
687.200	74.759	0.100
687.300	48.701	0.100
687.400	72.458	0.100
687.500	55.634	0.100
687.600	77.966	0.100
687.700	58.337	0.100
687.800	54.664	0.100
687.900	65.819	0.100
688.000	69.950	0.100
688.100	54.615	0.100
688.200	66.857	0.100
688.300	56.408	0.100
688.400	59.628	0.100
688.500	68.528	0.100
688.600	67.703	0.100
688.700	63.886	0.100
688.800	67.456	0.100
688.900	59.349	0.100
689.000	56.830	0.100
689.100	72.766	0.100
689.200	74.134	0.100
689.300	68.886	0.100
689.400	53.399	0.100
689.500	55.682	0.100
689.600	66.264	0.100
689.700	62.937	0.100
689.800	62.197	0.100
689.900	63.162	0.100
690.000	55.105	0.100
690.100	54.457	0.100
690.200	72.001	0.100
690.300	53.657	0.100
690.400	63.924	0.100
690.500	45.402	0.100
690.600	72.270	0.100
690.700	61.068	0.100
690.800	49.568	0.100
690.900	66.532	0.100
691.000	63.170	0.100
691.100	53.002	0.100
691.200	47.410	0.100
691.300	53.568	0.100
691.400	34.985	0.100
691.500	46.639	0.100
691.600	52.998	0.100
691.700	40.737	0.100
691.800	53.160	0.100
691.900	51.314	0.100
692.000	23.488	0.100
692.100	47.387	0.100
692.200	27.811	0.100
692.300	32.933	0.100
692.400	37.772	0.100
692.500	38.576	0.100
692.600	23.905	0.100
692.700	34.860	0.100
692.800	36.915	0.100
692.900	13.897	0.100
693.000	31.214	0.100
693.100	24.879	0.100
693.200	27.235	0.100
693.300	29.764	0.100
693.400	29.798	0.100
693.500	28.627	0.100
693.600	36.368	0.100
693.700	13.527	0.100
693.800	26.795	0.100
693.900	30.121	0.100
694.000	29.807	0.100
694.100	23.809	0.100
694.200	5.732	0.100
694.300	12.413	0.100
694.400	13.382	0.100
694.500	17.890	0.100
694.600	11.183	0.100
694.700	18.770	0.100
694.800	10.285	0.100
694.900	0.025	0.100
695.000	10.028	0.100
695.100	1.149	0.100
695.200	15.188	0.100
695.300	21.730	0.100
695.400	-1.217	0.100
695.500	1.823	0.100
695.600	13.428	0.100
695.700	6.042	0.100
695.800	13.674	0.100
695.900	-0.306	0.100
696.000	19.895	0.100
696.100	-7.238	0.100
696.200	2.584	0.100
696.300	8.449	0.100
696.400	-7.425	0.100
696.500	10.609	0.100
696.600	4.350	0.100
696.700	3.781	0.100
696.800	5.752	0.100
696.900	-6.071	0.100
697.000	1.573	0.100
697.100	10.360	0.100
697.200	2.486	0.100
697.300	-14.237	0.100
697.400	-0.961	0.100
697.500	-7.753	0.100
697.600	9.442	0.100
697.700	10.182	0.100
697.800	-6.565	0.100
697.900	2.303	0.100
698.000	-0.830	0.100
698.100	-0.524	0.100
698.200	-1.115	0.100
698.300	-9.369	0.100
698.400	-5.217	0.100
698.500	-10.341	0.100
698.600	-7.482	0.100
698.700	-11.040	0.100
698.800	-1.236	0.100
698.900	0.531	0.100
699.000	-1.725	0.100
699.100	-6.700	0.100
699.200	-6.016	0.100
699.300	2.372	0.100
699.400	-20.599	0.100
699.500	-12.034	0.100
699.600	2.472	0.100
699.700	1.256	0.100
699.800	3.493	0.100
699.900	-8.870	0.100
700.000	10.189	0.100
700.100	0.405	0.100
700.200	0.583	0.100
700.300	-15.977	0.100
700.400	-24.761	0.100
700.500	0.266	0.100
700.600	2.909	0.100
700.700	2.368	0.100
700.800	2.807	0.100
700.900	1.259	0.100
701.000	-6.022	0.100
701.100	-20.716	0.100
701.200	0.896	0.100
701.300	-15.315	0.100
701.400	-14.895	0.100
701.500	0.672	0.100
701.600	-10.403	0.100
701.700	-22.026	0.100
701.800	-6.525	0.100
701.900	3.163	0.100
702.000	6.785	0.100
702.100	-3.882	0.100
702.200	-4.958	0.100
702.300	-9.789	0.100
702.400	-15.303	0.100
702.500	-26.625	0.100
702.600	-2.426	0.100
702.700	-4.324	0.100
702.800	-4.854	0.100
702.900	-10.607	0.100
703.000	-9.050	0.100
703.100	0.917	0.100
703.200	-11.492	0.100
703.300	3.062	0.100
703.400	-18.520	0.100
703.500	0.943	0.100
703.600	-2.486	0.100
703.700	1.029	0.100
703.800	1.224	0.100
703.900	2.922	0.100
704.000	-15.240	0.100
704.100	-10.463	0.100
704.200	-9.876	0.100
704.300	-14.570	0.100
704.400	-0.004	0.100
704.500	-27.861	0.100
704.600	-2.730	0.100
704.700	-7.203	0.100
704.800	1.702	0.100
704.900	-13.865	0.100
705.000	-7.730	0.100
705.100	-22.915	0.100
705.200	-16.434	0.100
705.300	0.522	0.100
705.400	-4.862	0.100
705.500	-12.654	0.100
705.600	-17.366	0.100
705.700	-21.442	0.100
705.800	-8.619	0.100
705.900	-21.749	0.100
706.000	-17.521	0.100
706.100	-11.670	0.100
706.200	-15.925	0.100
706.300	-15.632	0.100
706.400	-6.974	0.100
706.500	8.812	0.100
706.600	-10.715	0.100
706.700	-20.875	0.100
706.800	-11.855	0.100
706.900	-21.971	0.100
707.000	-8.214	0.100
707.100	-9.701	0.100
707.200	-22.304	0.100
707.300	-25.077	0.100
707.400	-21.442	0.100
707.500	-13.359	0.100
707.600	-12.988	0.100
707.700	-19.586	0.100
707.800	-11.038	0.100
707.900	-5.230	0.100
708.000	-15.110	0.100
708.100	-19.293	0.100
708.200	-12.504	0.100
708.300	-13.728	0.100
708.400	-20.716	0.100
708.500	-31.839	0.100
708.600	-15.617	0.100
708.700	-6.876	0.100
708.800	-28.869	0.100
708.900	-6.332	0.100
709.000	-1.523	0.100
709.100	-28.963	0.100
709.200	-8.904	0.100
709.300	-12.005	0.100
709.400	-12.648	0.100
709.500	-21.082	0.100
709.600	-14.207	0.100
709.700	-2.185	0.100
709.800	-21.637	0.100
709.900	-14.499	0.100
710.000	-23.964	0.100
710.100	-28.397	0.100
710.200	-0.084	0.100
710.300	-17.771	0.100
710.400	-20.104	0.100
710.500	-13.518	0.100
710.600	-22.390	0.100
710.700	-27.842	0.100
710.800	-8.415	0.100
710.900	-16.350	0.100
711.000	-16.183	0.100
711.100	-15.054	0.100
711.200	-17.607	0.100
711.300	-9.314	0.100
711.400	-12.997	0.100
711.500	-17.556	0.100
711.600	-0.324	0.100
711.700	-19.252	0.100
711.800	-13.313	0.100
711.900	-28.619	0.100
712.000	-11.794	0.100
712.100	-28.947	0.100
712.200	-12.689	0.100
712.300	-23.444	0.100
712.400	-19.636	0.100
712.500	-18.106	0.100
712.600	-16.658	0.100
712.700	-23.490	0.100
712.800	-21.897	0.100
712.900	-26.925	0.100
713.000	-23.075	0.100
713.100	-20.509	0.100
713.200	-4.762	0.100
713.300	-20.927	0.100
713.400	-13.843	0.100
713.500	-27.743	0.100
713.600	-24.666	0.100
713.700	-19.310	0.100
713.800	-15.084	0.100
713.900	-34.632	0.100
714.000	-24.572	0.100
714.100	-20.607	0.100
714.200	-32.657	0.100
714.300	-26.340	0.100
714.400	-30.174	0.100
714.500	-45.316	0.100
714.600	-12.470	0.100
714.700	-6.416	0.100
714.800	0.295	0.100
714.900	-17.824	0.100
715.000	-28.023	0.100
715.100	-14.171	0.100
715.200	-31.929	0.100
715.300	-24.186	0.100
715.400	-34.489	0.100
715.500	-24.637	0.100
715.600	-40.247	0.100
715.700	-18.385	0.100
715.800	-17.758	0.100
715.900	-24.200	0.100
716.000	-19.495	0.100
716.100	-35.269	0.100
716.200	-25.986	0.100
716.300	-18.629	0.100
716.400	-26.728	0.100
716.500	-21.629	0.100
716.600	-27.697	0.100
716.700	-4.934	0.100
716.800	-34.434	0.100
716.900	-31.057	0.100
717.000	-22.357	0.100
717.100	-17.417	0.100
717.200	-10.495	0.100
717.300	-18.266	0.100
717.400	-20.938	0.100
717.500	-26.030	0.100
717.600	-20.620	0.100
717.700	-18.953	0.100
717.800	-27.631	0.100
717.900	-35.436	0.100
718.000	-29.371	0.100
718.100	-29.775	0.100
718.200	-13.849	0.100
718.300	-25.557	0.100
718.400	-27.914	0.100
718.500	-36.007	0.100
718.600	-21.641	0.100
718.700	-20.875	0.100
718.800	-27.267	0.100
718.900	-28.708	0.100
719.000	-28.937	0.100
719.100	-8.726	0.100
719.200	-23.784	0.100
719.300	-16.445	0.100
719.400	-22.554	0.100
719.500	-32.752	0.100
719.600	-42.417	0.100
719.700	-20.475	0.100
719.800	-16.926	0.100
719.900	-29.584	0.100
720.000	-25.912	0.100
720.100	-21.546	0.100
720.200	-20.734	0.100
720.300	-29.199	0.100
720.400	-34.432	0.100
720.500	-48.160	0.100
720.600	-22.000	0.100
720.700	-11.101	0.100
720.800	-35.633	0.100
720.900	-18.404	0.100
721.000	-40.930	0.100
721.100	-23.089	0.100
721.200	-20.542	0.100
721.300	-16.261	0.100
721.400	-24.637	0.100
721.500	-30.531	0.100
721.600	-26.919	0.100
721.700	-43.043	0.100
721.800	-14.923	0.100
721.900	-25.175	0.100
722.000	-27.048	0.100
722.100	-33.243	0.100
722.200	-36.076	0.100
722.300	-37.273	0.100
722.400	-33.275	0.100
722.500	-32.492	0.100
722.600	-25.941	0.100
722.700	-20.590	0.100
722.800	-31.837	0.100
722.900	-29.030	0.100
723.000	-19.796	0.100
723.100	-30.732	0.100
723.200	-39.260	0.100
723.300	-34.216	0.100
723.400	-34.858	0.100
723.500	-44.806	0.100
723.600	-19.399	0.100
723.700	-23.817	0.100
723.800	-28.808	0.100
723.900	-28.239	0.100
724.000	-32.182	0.100
724.100	-38.285	0.100
724.200	-27.073	0.100
724.300	-25.166	0.100
724.400	-25.770	0.100
724.500	-34.077	0.100
724.600	-23.363	0.100
724.700	-39.359	0.100
724.800	-36.230	0.100
724.900	-29.791	0.100
725.000	-33.445	0.100
725.100	-32.305	0.100
725.200	-38.784	0.100
725.300	-35.228	0.100
725.400	-29.993	0.100
725.500	-36.902	0.100
725.600	-38.522	0.100
725.700	-5.037	0.100
725.800	-34.820	0.100
725.900	-36.710	0.100
726.000	-23.686	0.100
726.100	-37.205	0.100
726.200	-44.324	0.100
726.300	-25.998	0.100
726.400	-21.554	0.100
726.500	-29.639	0.100
726.600	-30.365	0.100
726.700	-43.146	0.100
726.800	-22.342	0.100
726.900	-42.791	0.100
727.000	-24.667	0.100
727.100	-29.648	0.100
727.200	-27.939	0.100
727.300	-37.415	0.100
727.400	-23.903	0.100
727.500	-47.738	0.100
727.600	-26.607	0.100
727.700	-22.311	0.100
727.800	-30.799	0.100
727.900	-25.940	0.100
728.000	-53.626	0.100
728.100	-28.958	0.100
728.200	-21.802	0.100
728.300	-28.675	0.100
728.400	-26.358	0.100
728.500	-49.840	0.100
728.600	-23.085	0.100
728.700	-40.808	0.100
728.800	-33.983	0.100
728.900	-34.026	0.100
729.000	-27.972	0.100
729.100	-21.727	0.100
729.200	-35.196	0.100
729.300	-32.210	0.100
729.400	-36.934	0.100
729.500	-33.842	0.100
729.600	-34.181	0.100
729.700	-44.269	0.100
729.800	-40.475	0.100
729.900	-25.926	0.100
730.000	-19.523	0.100
730.100	-21.116	0.100
730.200	-24.812	0.100
730.300	-32.783	0.100
730.400	-37.271	0.100
730.500	-36.289	0.100
730.600	-34.279	0.100
730.700	-45.115	0.100
730.800	-50.531	0.100
730.900	-29.187	0.100
731.000	-36.114	0.100
731.100	-37.645	0.100
731.200	-25.569	0.100
731.300	-28.448	0.100
731.400	-45.273	0.100
731.500	-36.134	0.100
731.600	-40.598	0.100
731.700	-29.654	0.100
731.800	-24.163	0.100
731.900	-35.542	0.100
732.000	-37.831	0.100
732.100	-26.748	0.100
732.200	-36.004	0.100
732.300	-38.890	0.100
732.400	-24.241	0.100
732.500	-38.965	0.100
732.600	-27.192	0.100
732.700	-24.911	0.100
732.800	-21.588	0.100
732.900	-35.867	0.100
733.000	-32.795	0.100
733.100	-32.577	0.100
733.200	-49.420	0.100
733.300	-41.432	0.100
733.400	-34.935	0.100
733.500	-30.902	0.100
733.600	-31.834	0.100
733.700	-34.736	0.100
733.800	-17.309	0.100
733.900	-32.628	0.100
734.000	-36.099	0.100
734.100	-43.750	0.100
734.200	-32.878	0.100
734.300	-48.673	0.100
734.400	-29.890	0.100
734.500	-30.247	0.100
734.600	-43.109	0.100
734.700	-44.377	0.100
734.800	-37.523	0.100
734.900	-34.141	0.100
735.000	-44.029	0.100
735.100	-31.054	0.100
735.200	-21.163	0.100
735.300	-21.710	0.100
735.400	-39.325	0.100
735.500	-26.792	0.100
735.600	-18.779	0.100
735.700	-32.067	0.100
735.800	-53.990	0.100
735.900	-43.405	0.100
736.000	-39.839	0.100
736.100	-27.569	0.100
736.200	-35.108	0.100
736.300	-38.266	0.100
736.400	-38.767	0.100
736.500	-23.144	0.100
736.600	-48.427	0.100
736.700	-48.986	0.100
736.800	-43.700	0.100
736.900	-36.447	0.100
737.000	-23.999	0.100
737.100	-28.239	0.100
737.200	-35.542	0.100
737.300	-46.208	0.100
737.400	-39.270	0.100
737.500	-34.132	0.100
737.600	-37.492	0.100
737.700	-28.799	0.100
737.800	-35.817	0.100
737.900	-33.626	0.100
738.000	-34.328	0.100
738.100	-37.382	0.100
738.200	-43.497	0.100
738.300	-45.345	0.100
738.400	-41.058	0.100
738.500	-23.246	0.100
738.600	-38.228	0.100
738.700	-32.300	0.100
738.800	-35.400	0.100
738.900	-40.777	0.100
739.000	-33.787	0.100
739.100	-38.916	0.100
739.200	-50.919	0.100
739.300	-26.562	0.100
739.400	-42.888	0.100
739.500	-42.966	0.100
739.600	-27.767	0.100
739.700	-45.696	0.100
739.800	-40.616	0.100
739.900	-45.879	0.100
740.000	-29.789	0.100
740.100	-34.653	0.100
740.200	-52.483	0.100
740.300	-39.440	0.100
740.400	-35.708	0.100
740.500	-21.718	0.100
740.600	-33.552	0.100
740.700	-30.888	0.100
740.800	-42.091	0.100
740.900	-48.609	0.100
741.000	-47.165	0.100
741.100	-32.956	0.100
741.200	-25.839	0.100
741.300	-36.477	0.100
741.400	-50.683	0.100
741.500	-35.306	0.100
741.600	-36.252	0.100
741.700	-41.836	0.100
741.800	-38.723	0.100
741.900	-28.251	0.100
742.000	-30.014	0.100
742.100	-32.847	0.100
742.200	-24.036	0.100
742.300	-33.062	0.100
742.400	-27.341	0.100
742.500	-30.545	0.100
742.600	-40.395	0.100
742.700	-31.904	0.100
742.800	-37.514	0.100
742.900	-45.204	0.100
743.000	-33.735	0.100
743.100	-35.050	0.100
743.200	-42.955	0.100
743.300	-49.682	0.100
743.400	-43.089	0.100
743.500	-44.145	0.100
743.600	-48.368	0.100
743.700	-39.209	0.100
743.800	-42.434	0.100
743.900	-36.240	0.100
744.000	-41.795	0.100
744.100	-39.304	0.100
744.200	-37.241	0.100
744.300	-34.756	0.100
744.400	-31.463	0.100
744.500	-42.056	0.100
744.600	-37.363	0.100
744.700	-47.769	0.100
744.800	-37.759	0.100
744.900	-30.082	0.100
745.000	-43.420	0.100
745.100	-32.997	0.100
745.200	-48.496	0.099
745.300	-39.019	0.100
745.400	-40.858	0.100
745.500	-32.786	0.099
745.600	-38.413	0.100
745.700	-32.541	0.100
745.800	-36.750	0.100
745.900	-36.677	0.100
746.000	-36.267	0.099
746.100	-34.865	0.100
746.200	-48.764	0.100
746.300	-31.179	0.099
746.400	-38.105	0.100
746.500	-31.932	0.100
746.600	-32.846	0.099
746.700	-39.235	0.100
746.800	-39.451	0.100
746.900	-35.211	0.100
747.000	-48.715	0.100
747.100	-38.973	0.099
747.200	-39.102	0.099
747.300	-54.129	0.100
747.400	-28.924	0.100
747.500	-20.854	0.099
747.600	-36.804	0.100
747.700	-37.953	0.100
747.800	-40.857	0.100
747.900	-49.009	0.100
748.000	-34.799	0.100
748.100	-32.208	0.099
748.200	-35.924	0.099
748.300	-44.997	0.099
748.400	-47.988	0.099
748.500	-37.343	0.100
748.600	-31.262	0.099
748.700	-33.414	0.099
748.800	-39.071	0.099
748.900	-43.515	0.100
749.000	-49.193	0.099
749.100	-29.213	0.099
749.200	-36.864	0.100
749.300	-30.729	0.099
749.400	-28.889	0.099
749.500	-49.615	0.100
749.600	-45.026	0.100
749.700	-28.225	0.099
749.800	-47.330	0.099
749.900	-30.680	0.099
750.000	-45.629	0.099
750.100	-42.401	0.100
750.200	-29.325	0.099
750.300	-28.754	0.099
750.400	-38.545	0.099
750.500	-33.341	0.099
750.600	-47.055	0.099
750.700	-33.629	0.099
750.800	-33.962	0.099
750.900	-31.120	0.099
751.000	-24.220	0.100
751.100	-24.286	0.099
751.200	-24.306	0.099
751.300	-32.455	0.099
751.400	-46.288	0.099
751.500	-39.292	0.099
751.600	-33.227	0.099
751.700	-41.110	0.099
751.800	-31.497	0.099
751.900	-42.053	0.099
752.000	-51.095	0.099
752.100	-44.662	0.099
752.200	-39.649	0.099
752.300	-52.070	0.099
752.400	-27.620	0.099
752.500	-36.204	0.099
752.600	-27.413	0.099
752.700	-42.537	0.099
752.800	-38.728	0.099
752.900	-39.827	0.099
753.000	-43.746	0.099
753.100	-41.242	0.099
753.200	-60.019	0.099
753.300	-40.891	0.099
753.400	-28.742	0.099
753.500	-26.358	0.099
753.600	-37.359	0.099
753.700	-43.398	0.099
753.800	-44.029	0.099
753.900	-44.462	0.099
754.000	-28.863	0.099
754.100	-43.444	0.099
754.200	-37.705	0.099
754.300	-47.666	0.099
754.400	-52.518	0.099
754.500	-46.944	0.099
754.600	-26.378	0.099
754.700	-35.780	0.099
754.800	-22.396	0.099
754.900	-21.539	0.099
755.000	-31.693	0.099
755.100	-45.094	0.099
755.200	-39.447	0.099
755.300	-43.656	0.099
755.400	-40.257	0.099
755.500	-22.773	0.099
755.600	-30.551	0.099
755.700	-33.913	0.099
755.800	-36.145	0.099
755.900	-44.933	0.099
756.000	-43.113	0.099
756.100	-34.578	0.099
756.200	-32.754	0.099
756.300	-39.585	0.099
756.400	-42.512	0.099
756.500	-53.494	0.099
756.600	-37.451	0.099
756.700	-37.610	0.099
756.800	-30.290	0.099
756.900	-29.901	0.099
757.000	-43.017	0.099
757.100	-41.786	0.099
757.200	-42.813	0.099
757.300	-27.146	0.099
757.400	-27.106	0.099
757.500	-21.171	0.099
757.600	-30.939	0.099
757.700	-46.357	0.099
757.800	-45.292	0.099
757.900	-37.509	0.099
758.000	-34.419	0.099
758.100	-30.804	0.099
758.200	-31.285	0.099
758.300	-52.861	0.099
758.400	-27.949	0.099
758.500	-36.989	0.099
758.600	-45.782	0.099
758.700	-40.973	0.099
758.800	-36.827	0.099
758.900	-39.073	0.099
759.000	-25.140	0.099
759.100	-34.748	0.099
759.200	-46.139	0.099
759.300	-38.915	0.099
759.400	-37.990	0.099
759.500	-37.921	0.099
759.600	-21.543	0.099
759.700	-36.353	0.099
759.800	-23.578	0.099
759.900	-37.432	0.099
760.000	-43.211	0.099
760.100	-35.872	0.099
760.200	-35.475	0.099
760.300	-46.722	0.099
760.400	-36.700	0.099
760.500	-27.218	0.099
760.600	-37.845	0.099
760.700	-31.468	0.099
760.800	-35.737	0.099
760.900	-32.197	0.099
761.000	-47.694	0.099
761.100	-26.998	0.099
761.200	-17.636	0.099
761.300	-46.207	0.099
761.400	-23.797	0.099
761.500	-33.120	0.099
761.600	-40.307	0.099
761.700	-21.733	0.099
761.800	-24.572	0.099
761.900	-42.359	0.099
762.000	-43.362	0.099
762.100	-39.791	0.099
762.200	-25.961	0.099
762.300	-34.814	0.099
762.400	-14.394	0.099
762.500	-50.471	0.099
762.600	-38.783	0.099
762.700	-36.845	0.099
762.800	-32.597	0.099
762.900	-30.995	0.099
763.000	-23.798	0.099
763.100	-33.989	0.099
763.200	-58.014	0.099
763.300	-49.225	0.099
763.400	-26.331	0.099
763.500	-27.149	0.099
763.600	-36.388	0.099
763.700	-15.612	0.099
763.800	-36.410	0.099
763.900	-36.686	0.099
764.000	-52.386	0.099
764.100	-40.907	0.099
764.200	-21.905	0.099
764.300	-35.323	0.099
764.400	-26.441	0.099
764.500	-35.807	0.099
764.600	-50.442	0.099
764.700	-34.987	0.099
764.800	-30.766	0.099
764.900	-39.079	0.099
765.000	-18.991	0.099
765.100	-30.372	0.099
765.200	-36.056	0.099
765.300	-46.260	0.099
765.400	-41.245	0.099
765.500	-42.936	0.099
765.600	-22.705	0.099
765.700	-31.316	0.099
765.800	-29.545	0.099
765.900	-30.155	0.099
766.000	-22.940	0.099
766.100	-33.562	0.099
766.200	-17.617	0.099
766.300	-22.497	0.099
766.400	-30.534	0.099
766.500	-36.421	0.099
766.600	-38.208	0.099
766.700	-30.945	0.099
766.800	-36.557	0.099
766.900	-36.913	0.099
767.000	-22.428	0.099
767.100	-43.961	0.099
767.200	-41.498	0.099
767.300	-39.290	0.099
767.400	-22.187	0.099
767.500	-38.053	0.099
767.600	-42.566	0.099
767.700	-32.876	0.099
767.800	-19.155	0.099
767.900	-31.374	0.099
768.000	-36.016	0.099
768.100	-30.951	0.099
768.200	-35.803	0.099
768.300	-33.244	0.099
768.400	-28.547	0.099
768.500	-27.954	0.099
768.600	-37.598	0.099
768.700	-51.163	0.099
768.800	-32.469	0.099
768.900	-33.301	0.099
769.000	-27.358	0.099
769.100	-25.422	0.099
769.200	-40.064	0.099
769.300	-35.285	0.099
769.400	-23.915	0.099
769.500	-33.989	0.099
769.600	-34.457	0.099
769.700	-54.399	0.099
769.800	-28.144	0.099
769.900	-37.159	0.099
770.000	-26.479	0.099
770.100	-38.657	0.099
770.200	-42.223	0.099
770.300	-29.440	0.099
770.400	-42.896	0.099
770.500	-41.787	0.099
770.600	-41.959	0.099
770.700	-37.371	0.099
770.800	-32.065	0.099
770.900	-44.441	0.099
771.000	-39.171	0.099
771.100	-32.890	0.099
771.200	-33.436	0.099
771.300	-29.082	0.099
771.400	-36.325	0.099
771.500	-21.048	0.099
771.600	-13.066	0.099
771.700	-38.292	0.099
771.800	-41.682	0.099
771.900	-42.309	0.099
772.000	-32.383	0.099
772.100	-37.461	0.099
772.200	-47.442	0.099
772.300	-33.474	0.099
772.400	-42.394	0.099
772.500	-38.421	0.099
772.600	-23.259	0.099
772.700	-17.607	0.099
772.800	-32.720	0.099
772.900	-35.663	0.099
773.000	-31.046	0.099
773.100	-47.013	0.099
773.200	-32.962	0.099
773.300	-42.390	0.099
773.400	-30.686	0.099
773.500	-34.072	0.099
773.600	-34.461	0.099
773.700	-22.267	0.099
773.800	-37.980	0.099
773.900	-24.149	0.099
774.000	-45.154	0.099
774.100	-36.716	0.099
774.200	-31.670	0.099
774.300	-25.716	0.099
774.400	-41.262	0.099
774.500	-51.247	0.099
774.600	-30.304	0.099
774.700	-34.143	0.099
774.800	-18.303	0.099
774.900	-19.124	0.099
775.000	-31.213	0.099
775.100	-43.682	0.099
775.200	-34.641	0.099
775.300	-29.789	0.099
775.400	-39.445	0.099
775.500	-25.599	0.099
775.600	-33.746	0.099
775.700	-35.340	0.099
775.800	-37.084	0.099
775.900	-25.607	0.099
776.000	-39.417	0.099
776.100	-36.321	0.099
776.200	-43.147	0.099
776.300	-35.095	0.099
776.400	-45.482	0.099
776.500	-42.358	0.099
776.600	-7.676	0.099
776.700	-36.394	0.099
776.800	-36.534	0.099
776.900	-32.997	0.099
777.000	-42.416	0.099
777.100	-29.220	0.099
777.200	-41.501	0.099
777.300	-44.286	0.099
777.400	-36.537	0.099
777.500	-39.249	0.099
777.600	-24.303	0.099
777.700	-17.225	0.099
777.800	-52.561	0.099
777.900	-41.928	0.099
778.000	-32.069	0.099
778.100	-27.289	0.099
778.200	-30.821	0.099
778.300	-29.124	0.099
778.400	-34.625	0.099
778.500	-29.769	0.099
778.600	-19.596	0.099
778.700	-35.516	0.099
778.800	-35.723	0.099
778.900	-34.860	0.099
779.000	-27.697	0.099
779.100	-26.605	0.099
779.200	-36.177	0.099
779.300	-38.766	0.099
779.400	-37.219	0.099
779.500	-37.966	0.099
779.600	-47.623	0.099
779.700	-36.499	0.099
779.800	-26.401	0.099
779.900	-30.330	0.099
780.000	-35.222	0.099
780.100	-33.752	0.099
780.200	-34.981	0.099
780.300	-38.275	0.099
780.400	-34.837	0.099
780.500	-31.520	0.099
780.600	-32.547	0.099
780.700	-19.935	0.099
780.800	-21.372	0.099
780.900	-28.319	0.099
781.000	-41.996	0.099
781.100	-31.526	0.099
781.200	-26.683	0.099
781.300	-30.272	0.099
781.400	-27.146	0.099
781.500	-21.450	0.099
781.600	-25.029	0.099
781.700	-3.015	0.099
781.800	-14.841	0.099
781.900	-18.091	0.099
782.000	-21.019	0.099
782.100	-17.479	0.099
782.200	6.014	0.099
782.300	-5.601	0.099
782.400	-10.253	0.099
782.500	-3.120	0.099
782.600	-19.554	0.099
782.700	-7.851	0.099
782.800	12.811	0.099
782.900	-0.629	0.099
783.000	-4.917	0.099
783.100	-6.389	0.099
783.200	-18.126	0.099
783.300	-9.108	0.099
783.400	-10.978	0.099
783.500	11.835	0.099
783.600	3.388	0.099
783.700	7.328	0.099
783.800	-0.306	0.099
783.900	-0.200	0.100
784.000	5.070	0.099
784.100	7.262	0.100
784.200	0.865	0.100
784.300	-4.506	0.100
784.400	5.536	0.100
784.500	-28.895	0.100
784.600	9.480	0.100
784.700	6.349	0.100
784.800	1.385	0.100
784.900	-8.918	0.100
785.000	-12.677	0.100
785.100	18.460	0.100
785.200	5.285	0.100
785.300	-1.968	0.100
785.400	-4.797	0.100
785.500	0.128	0.100
785.600	-8.322	0.100
785.700	-3.254	0.100
785.800	12.914	0.100
785.900	-14.484	0.100
786.000	10.645	0.100
786.100	0.709	0.100
786.200	3.301	0.100
786.300	6.879	0.100
786.400	-8.319	0.100
786.500	-11.778	0.100
786.600	0.221	0.100
786.700	-5.041	0.100
786.800	-1.362	0.100
786.900	-4.961	0.100
787.000	3.447	0.100
787.100	14.151	0.100
787.200	3.954	0.100
787.300	12.463	0.100
787.400	2.889	0.100
787.500	14.774	0.100
787.600	9.166	0.100
787.700	7.927	0.100
787.800	1.356	0.100
787.900	9.036	0.100
788.000	10.676	0.100
788.100	-0.160	0.100
788.200	3.543	0.100
788.300	22.674	0.100
788.400	13.567	0.100
788.500	2.303	0.100
788.600	-2.982	0.100
788.700	3.281	0.100
788.800	23.652	0.100
788.900	6.542	0.100
789.000	1.593	0.100
789.100	8.554	0.100
789.200	12.393	0.100
789.300	-5.369	0.100
789.400	37.331	0.100
789.500	15.131	0.100
789.600	8.309	0.100
789.700	10.635	0.100
789.800	15.250	0.100
789.900	2.852	0.100
790.000	11.528	0.100
790.100	14.354	0.100
790.200	17.803	0.100
790.300	2.217	0.100
790.400	21.396	0.100
790.500	23.810	0.100
790.600	10.881	0.100
790.700	10.186	0.100
790.800	14.369	0.100
790.900	24.102	0.100
791.000	22.147	0.100
791.100	13.852	0.100
791.200	24.949	0.100
791.300	16.468	0.100
791.400	-6.856	0.100
791.500	18.057	0.100
791.600	33.653	0.100
791.700	12.269	0.100
791.800	28.851	0.100
791.900	-1.465	0.100
792.000	41.197	0.100
792.100	20.090	0.100
792.200	31.282	0.100
792.300	20.294	0.100
792.400	16.097	0.100
792.500	19.743	0.100
792.600	18.325	0.100
792.700	35.787	0.100
792.800	28.309	0.100
792.900	21.456	0.100
793.000	23.625	0.100
793.100	27.123	0.100
793.200	21.157	0.100
793.300	30.451	0.100
793.400	21.822	0.100
793.500	15.798	0.100
793.600	24.430	0.100
793.700	34.815	0.100
793.800	23.521	0.100
793.900	26.372	0.100
794.000	31.616	0.100
794.100	30.100	0.100
794.200	29.263	0.100
794.300	21.586	0.100
794.400	16.441	0.100
794.500	42.360	0.100
794.600	28.305	0.100
794.700	23.180	0.100
794.800	10.087	0.100
794.900	33.652	0.100
795.000	42.373	0.100
795.100	37.162	0.100
795.200	36.181	0.100
795.300	23.082	0.100
795.400	27.148	0.100
795.500	36.564	0.100
795.600	41.858	0.100
795.700	35.858	0.100
795.800	23.859	0.100
795.900	34.728	0.100
796.000	29.793	0.100
796.100	41.732	0.100
796.200	48.455	0.100
796.300	37.408	0.100
796.400	21.522	0.100
796.500	33.779	0.100
796.600	44.799	0.100
796.700	30.091	0.100
796.800	30.474	0.100
796.900	46.617	0.100
797.000	43.869	0.100
797.100	27.839	0.100
797.200	35.356	0.100
797.300	46.510	0.100
797.400	31.449	0.100
797.500	51.189	0.100
797.600	42.935	0.100
797.700	40.322	0.100
797.800	32.864	0.100
797.900	38.546	0.100
798.000	54.558	0.100
798.100	61.026	0.100
798.200	19.290	0.100
798.300	46.233	0.100
798.400	43.605	0.100
798.500	60.537	0.100
798.600	52.988	0.101
798.700	52.403	0.101
798.800	43.389	0.101
798.900	51.391	0.101
799.000	54.555	0.101
799.100	52.469	0.101
799.200	45.229	0.101
799.300	49.151	0.101
799.400	47.888	0.101
799.500	42.449	0.100
799.600	45.242	0.101
799.700	47.224	0.100
799.800	42.949	0.101
799.900	59.463	0.101
800.000	50.983	0.100
