time /s	I /nA	E /V
0.100	60.176	0.099
0.200	49.245	0.099
0.300	48.038	0.099
0.400	42.034	0.099
0.500	60.469	0.099
0.600	61.605	0.099
0.700	54.284	0.099
0.800	59.597	0.099
0.900	46.256	0.099
1.000	74.672	0.099
1.100	62.703	0.099
1.200	50.703	0.099
1.300	52.268	0.099
1.400	47.654	0.099
1.500	42.437	0.099
1.600	48.098	0.099
1.700	54.083	0.099
1.800	50.919	0.099
1.900	53.295	0.099
2.000	50.600	0.100
2.100	47.687	0.100
2.200	40.614	0.100
2.300	55.807	0.100
2.400	44.439	0.100
2.500	44.445	0.100
2.600	58.476	0.100
2.700	62.675	0.100
2.800	50.790	0.100
2.900	46.712	0.100
3.000	53.891	0.100
3.100	50.476	0.100
3.200	53.953	0.100
3.300	47.891	0.100
3.400	54.603	0.100
3.500	50.060	0.100
3.600	54.301	0.100
3.700	54.721	0.100
3.800	44.418	0.100
3.900	46.663	0.100
4.000	57.733	0.100
4.100	54.153	0.100
4.200	40.389	0.100
4.300	65.572	0.100
4.400	53.178	0.100
4.500	59.471	0.100
4.600	57.811	0.100
4.700	55.173	0.100
4.800	48.235	0.100
4.900	50.583	0.100
5.000	61.176	0.100
5.100	54.534	0.100
5.200	51.170	0.100
5.300	58.424	0.100
5.400	53.805	0.100
5.500	58.697	0.100
5.600	43.438	0.100
5.700	61.311	0.100
5.800	45.730	0.100
5.900	56.785	0.100
6.000	29.625	0.100
6.100	51.179	0.100
6.200	51.937	0.100
6.300	51.800	0.100
6.400	54.970	0.100
6.500	52.582	0.100
6.600	47.037	0.100
6.700	60.724	0.100
6.800	68.687	0.100
6.900	49.853	0.100
7.000	50.789	0.100
7.100	45.713	0.100
7.200	50.336	0.100
7.300	49.574	0.100
7.400	52.191	0.100
7.500	51.334	0.100
7.600	57.161	0.100
7.700	55.245	0.100
7.800	64.720	0.100
7.900	51.895	0.100
8.000	58.498	0.100
8.100	52.188	0.100
8.200	50.105	0.100
8.300	55.110	0.100
8.400	58.706	0.100
8.500	52.092	0.100
8.600	53.888	0.100
8.700	57.613	0.100
8.800	60.567	0.100
8.900	41.439	0.100
9.000	61.001	0.100
9.100	50.861	0.100
9.200	51.822	0.100
9.300	41.968	0.100
9.400	44.809	0.100
9.500	65.729	0.100
9.600	55.959	0.100
9.700	56.295	0.100
9.800	54.354	0.100
9.900	39.357	0.100
10.000	54.417	0.100
10.100	44.099	0.100
10.200	74.488	0.100
10.300	53.077	0.100
10.400	54.748	0.100
10.500	55.938	0.100
10.600	45.198	0.100
10.700	56.364	0.100
10.800	67.573	0.100
10.900	59.934	0.100
11.000	52.363	0.100
11.100	50.456	0.100
11.200	51.512	0.100
11.300	68.100	0.100
11.400	48.291	0.100
11.500	62.307	0.100
11.600	46.814	0.100
11.700	55.570	0.100
11.800	51.207	0.100
11.900	67.429	0.100
12.000	65.957	0.100
12.100	37.516	0.100
12.200	48.822	0.100
12.300	54.992	0.100
12.400	59.089	0.100
12.500	57.696	0.100
12.600	62.106	0.100
12.700	47.430	0.100
12.800	50.595	0.100
12.900	50.720	0.100
13.000	47.211	0.100
13.100	66.152	0.100
13.200	61.855	0.100
13.300	62.416	0.100
13.400	50.986	0.100
13.500	57.458	0.100
13.600	67.079	0.100
13.700	57.288	0.100
13.800	48.130	0.100
13.900	53.399	0.100
14.000	59.336	0.100
14.100	47.356	0.100
14.200	61.956	0.100
14.300	63.989	0.100
14.400	57.097	0.100
14.500	70.892	0.100
14.600	46.901	0.100
14.700	39.823	0.100
14.800	52.188	0.100
14.900	55.929	0.100
15.000	59.043	0.100
15.100	59.161	0.100
15.200	59.077	0.100
15.300	55.668	0.100
15.400	55.237	0.100
15.500	47.083	0.100
15.600	44.671	0.100
15.700	56.390	0.100
15.800	66.290	0.100
15.900	58.038	0.100
16.000	59.738	0.100
16.100	45.511	0.100
16.200	42.357	0.100
16.300	44.661	0.100
16.400	41.399	0.100
16.500	65.376	0.100
16.600	67.487	0.100
16.700	47.384	0.100
16.800	53.769	0.100
16.900	65.608	0.100
17.000	47.177	0.100
17.100	58.213	0.100
17.200	62.224	0.100
17.300	57.178	0.100
17.400	57.288	0.100
17.500	59.802	0.100
17.600	50.021	0.100
17.700	51.455	0.100
17.800	50.342	0.100
17.900	48.879	0.100
18.000	55.420	0.100
18.100	45.529	0.100
18.200	68.267	0.100
18.300	51.659	0.100
18.400	43.740	0.100
18.500	54.012	0.100
18.600	57.446	0.100
18.700	59.404	0.100
18.800	54.978	0.100
18.900	73.847	0.100
19.000	55.820	0.100
19.100	64.370	0.100
19.200	65.919	0.100
19.300	57.356	0.100
19.400	58.674	0.100
19.500	47.698	0.100
19.600	46.214	0.100
19.700	54.578	0.100
19.800	59.836	0.100
19.900	56.640	0.100
20.000	51.560	0.100
20.100	64.418	0.100
20.200	46.104	0.100
20.300	51.161	0.100
20.400	50.559	0.100
20.500	41.562	0.100
20.600	44.658	0.100
20.700	59.523	0.100
20.800	57.498	0.100
20.900	63.031	0.100
21.000	69.920	0.100
21.100	70.640	0.100
21.200	56.114	0.100
21.300	57.343	0.100
21.400	58.328	0.100
21.500	48.348	0.100
21.600	57.172	0.100
21.700	50.050	0.100
21.800	48.886	0.100
21.900	49.907	0.100
22.000	48.514	0.100
22.100	54.126	0.100
22.200	58.939	0.100
22.300	63.906	0.100
22.400	53.470	0.100
22.500	57.218	0.100
22.600	51.451	0.100
22.700	56.284	0.100
22.800	48.546	0.100
22.900	47.129	0.100
23.000	45.276	0.100
23.100	53.847	0.100
23.200	32.321	0.100
23.300	37.124	0.100
23.400	59.628	0.100
23.500	51.117	0.100
23.600	47.275	0.100
23.700	70.424	0.100
23.800	56.611	0.100
23.900	48.997	0.100
24.000	39.249	0.100
24.100	48.526	0.100
24.200	54.716	0.100
24.300	62.690	0.100
24.400	41.428	0.100
24.500	45.768	0.100
24.600	49.131	0.100
24.700	47.007	0.100
24.800	56.939	0.100
24.900	68.263	0.100
25.000	35.750	0.100
25.100	49.021	0.100
25.200	57.733	0.100
25.300	47.574	0.100
25.400	44.045	0.100
25.500	43.461	0.100
25.600	36.866	0.100
25.700	49.369	0.100
25.800	34.441	0.100
25.900	34.222	0.100
26.000	51.255	0.100
26.100	51.888	0.100
26.200	52.778	0.100
26.300	44.704	0.100
26.400	38.461	0.100
26.500	51.986	0.100
26.600	35.381	0.100
26.700	59.830	0.100
26.800	45.310	0.100
26.900	53.224	0.100
27.000	54.353	0.100
27.100	53.549	0.100
27.200	38.084	0.100
27.300	39.299	0.100
27.400	43.936	0.100
27.500	47.622	0.100
27.600	53.972	0.100
27.700	52.683	0.100
27.800	45.023	0.100
27.900	41.583	0.100
28.000	40.260	0.100
28.100	41.042	0.100
28.200	39.731	0.100
28.300	49.797	0.100
28.400	57.003	0.100
28.500	44.169	0.100
28.600	49.024	0.100
28.700	45.616	0.100
28.800	32.726	0.100
28.900	44.433	0.100
29.000	47.369	0.100
29.100	42.144	0.100
29.200	33.108	0.100
29.300	44.269	0.100
29.400	52.852	0.100
29.500	38.165	0.100
29.600	45.951	0.100
29.700	49.403	0.100
29.800	40.975	0.100
29.900	46.521	0.100
30.000	30.785	0.100
30.100	45.859	0.100
30.200	46.817	0.100
30.300	49.610	0.100
30.400	35.387	0.100
30.500	43.729	0.100
30.600	46.013	0.100
30.700	41.666	0.100
30.800	50.287	0.100
30.900	55.536	0.100
31.000	44.376	0.100
31.100	52.791	0.100
31.200	39.984	0.100
31.300	47.712	0.100
31.400	51.797	0.100
31.500	53.425	0.100
31.600	52.248	0.100
31.700	59.736	0.100
31.800	48.969	0.100
31.900	56.693	0.100
32.000	64.429	0.100
32.100	55.012	0.100
32.200	55.113	0.100
32.300	53.868	0.100
32.400	52.622	0.100
32.500	65.491	0.100
32.600	58.075	0.100
32.700	45.048	0.100
32.800	70.674	0.100
32.900	50.615	0.100
33.000	51.564	0.100
33.100	46.979	0.100
33.200	66.093	0.100
33.300	50.666	0.100
33.400	58.835	0.100
33.500	53.963	0.100
33.600	62.985	0.100
33.700	60.204	0.100
33.800	60.153	0.100
33.900	57.481	0.100
34.000	63.843	0.100
34.100	72.691	0.100
34.200	68.028	0.100
34.300	49.806	0.100
34.400	52.151	0.100
34.500	59.319	0.100
34.600	54.405	0.100
34.700	70.911	0.100
34.800	62.413	0.100
34.900	62.819	0.100
35.000	65.516	0.100
35.100	65.302	0.100
35.200	48.432	0.100
35.300	64.607	0.100
35.400	67.294	0.100
35.500	56.549	0.100
35.600	65.364	0.100
35.700	65.010	0.100
35.800	69.536	0.100
35.900	57.155	0.100
36.000	51.244	0.100
36.100	52.219	0.100
36.200	64.134	0.100
36.300	69.670	0.100
36.400	59.890	0.100
36.500	65.793	0.100
36.600	56.597	0.100
36.700	65.681	0.100
36.800	77.399	0.100
36.900	61.513	0.100
37.000	59.258	0.100
37.100	68.348	0.100
37.200	52.361	0.100
37.300	69.978	0.100
37.400	66.161	0.100
37.500	65.129	0.100
37.600	65.157	0.100
37.700	49.711	0.100
37.800	68.302	0.100
37.900	53.767	0.100
38.000	70.898	0.100
38.100	71.741	0.100
38.200	62.683	0.100
38.300	58.837	0.100
38.400	68.686	0.100
38.500	57.750	0.100
38.600	71.816	0.100
38.700	57.869	0.100
38.800	63.486	0.100
38.900	69.351	0.100
39.000	64.804	0.100
39.100	56.185	0.100
39.200	58.924	0.100
39.300	59.566	0.100
39.400	60.078	0.100
39.500	65.753	0.100
39.600	64.734	0.100
39.700	74.143	0.100
39.800	74.632	0.100
39.900	75.662	0.100
40.000	47.441	0.100
40.100	55.650	0.100
40.200	73.870	0.100
40.300	78.831	0.100
40.400	72.136	0.100
40.500	67.853	0.100
40.600	69.489	0.100
40.700	46.181	0.100
40.800	68.359	0.100
40.900	55.861	0.100
41.000	59.838	0.100
41.100	69.815	0.100
41.200	65.966	0.100
41.300	70.942	0.100
41.400	60.908	0.100
41.500	66.247	0.100
41.600	55.478	0.100
41.700	56.474	0.100
41.800	65.045	0.100
41.900	60.414	0.100
42.000	55.697	0.100
42.100	56.111	0.100
42.200	63.599	0.100
42.300	67.987	0.100
42.400	72.181	0.100
42.500	55.430	0.100
42.600	51.872	0.100
42.700	64.623	0.100
42.800	76.219	0.100
42.900	61.196	0.100
43.000	81.768	0.100
43.100	75.814	0.100
43.200	69.664	0.100
43.300	61.305	0.100
43.400	67.924	0.100
43.500	72.100	0.100
43.600	62.368	0.100
43.700	62.037	0.100
43.800	62.940	0.100
43.900	63.605	0.100
44.000	60.808	0.100
44.100	66.008	0.100
44.200	61.332	0.100
44.300	78.124	0.100
44.400	63.553	0.100
44.500	65.666	0.100
44.600	76.557	0.100
44.700	78.182	0.100
44.800	62.414	0.100
44.900	63.463	0.100
45.000	56.408	0.100
45.100	75.233	0.100
45.200	63.780	0.100
45.300	62.307	0.100
45.400	80.615	0.100
45.500	74.348	0.100
45.600	61.964	0.100
45.700	68.745	0.100
45.800	65.494	0.100
45.900	47.301	0.100
46.000	67.613	0.100
46.100	74.466	0.100
46.200	59.016	0.100
46.300	77.649	0.100
46.400	51.472	0.100
46.500	68.583	0.100
46.600	60.625	0.100
46.700	61.674	0.100
46.800	54.281	0.100
46.900	79.571	0.100
47.000	53.543	0.100
47.100	59.125	0.100
47.200	65.005	0.100
47.300	63.152	0.100
47.400	71.167	0.100
47.500	65.367	0.100
47.600	60.075	0.100
47.700	66.454	0.100
47.800	52.344	0.100
47.900	67.021	0.100
48.000	75.705	0.100
48.100	63.095	0.100
48.200	63.003	0.100
48.300	72.547	0.100
48.400	71.716	0.100
48.500	62.563	0.100
48.600	74.333	0.100
48.700	61.116	0.100
48.800	60.149	0.100
48.900	67.219	0.100
49.000	76.363	0.100
49.100	52.771	0.100
49.200	63.650	0.100
49.300	65.988	0.100
49.400	74.500	0.100
49.500	64.675	0.100
49.600	74.879	0.100
49.700	61.205	0.100
49.800	68.122	0.100
49.900	66.671	0.100
50.000	71.152	0.100
50.100	71.450	0.100
50.200	65.375	0.100
50.300	72.914	0.100
50.400	59.396	0.100
50.500	58.867	0.100
50.600	77.790	0.100
50.700	75.023	0.100
50.800	50.868	0.100
50.900	61.415	0.100
51.000	56.004	0.100
51.100	72.009	0.100
51.200	82.899	0.100
51.300	51.057	0.100
51.400	56.655	0.100
51.500	62.844	0.100
51.600	63.113	0.100
51.700	76.547	0.100
51.800	61.239	0.100
51.900	59.985	0.100
52.000	56.608	0.100
52.100	66.625	0.100
52.200	57.339	0.100
52.300	71.669	0.100
52.400	68.607	0.100
52.500	84.037	0.100
52.600	45.779	0.100
52.700	69.564	0.100
52.800	69.037	0.100
52.900	61.953	0.100
53.000	73.357	0.100
53.100	74.042	0.100
53.200	71.362	0.100
53.300	65.364	0.100
53.400	63.265	0.100
53.500	73.533	0.100
53.600	65.304	0.100
53.700	64.125	0.100
53.800	61.361	0.100
53.900	57.155	0.100
54.000	54.061	0.100
54.100	71.362	0.100
54.200	62.896	0.100
54.300	68.388	0.100
54.400	69.357	0.100
54.500	63.831	0.100
54.600	61.075	0.100
54.700	64.663	0.100
54.800	64.473	0.100
54.900	70.318	0.100
55.000	58.467	0.100
55.100	64.461	0.100
55.200	67.156	0.100
55.300	66.869	0.100
55.400	56.930	0.100
55.500	58.282	0.100
55.600	60.097	0.100
55.700	72.021	0.100
55.800	68.304	0.100
55.900	66.530	0.100
56.000	74.702	0.100
56.100	57.566	0.100
56.200	53.514	0.100
56.300	64.323	0.100
56.400	80.488	0.100
56.500	56.364	0.100
56.600	60.788	0.100
56.700	64.117	0.100
56.800	61.637	0.100
56.900	79.948	0.100
57.000	69.815	0.100
57.100	65.811	0.100
57.200	69.420	0.100
57.300	52.579	0.100
57.400	65.417	0.100
57.500	49.352	0.100
57.600	58.680	0.100
57.700	67.174	0.100
57.800	56.949	0.100
57.900	73.933	0.100
58.000	78.682	0.100
58.100	65.192	0.100
58.200	66.992	0.100
58.300	58.134	0.100
58.400	61.824	0.100
58.500	60.414	0.100
58.600	61.662	0.100
58.700	72.868	0.100
58.800	63.394	0.100
58.900	55.525	0.100
59.000	68.108	0.100
59.100	64.449	0.100
59.200	67.231	0.100
59.300	42.782	0.100
59.400	60.694	0.100
59.500	77.399	0.100
59.600	57.501	0.100
59.700	74.143	0.100
59.800	59.638	0.100
59.900	77.477	0.100
60.000	54.403	0.100
60.100	70.997	0.100
60.200	55.142	0.100
60.300	52.134	0.100
60.400	78.619	0.100
60.500	76.556	0.100
60.600	59.605	0.100
60.700	57.800	0.100
60.800	55.257	0.100
60.900	74.733	0.100
61.000	60.926	0.100
61.100	55.630	0.100
61.200	69.900	0.100
61.300	63.182	0.100
61.400	51.872	0.100
61.500	56.842	0.100
61.600	76.700	0.100
61.700	54.250	0.100
61.800	75.846	0.100
61.900	57.032	0.100
62.000	57.711	0.100
62.100	58.944	0.100
62.200	62.785	0.100
62.300	72.889	0.100
62.400	69.845	0.100
62.500	61.452	0.100
62.600	60.192	0.100
62.700	66.041	0.100
62.800	68.794	0.100
62.900	57.360	0.100
63.000	63.593	0.100
63.100	63.950	0.100
63.200	51.195	0.100
63.300	79.576	0.100
63.400	62.979	0.100
63.500	66.918	0.100
63.600	49.147	0.100
63.700	58.591	0.100
63.800	54.773	0.100
63.900	58.133	0.100
64.000	70.701	0.100
64.100	71.974	0.100
64.200	58.041	0.100
64.300	56.545	0.100
64.400	58.203	0.100
64.500	69.990	0.100
64.600	69.431	0.100
64.700	74.909	0.100
64.800	57.694	0.100
64.900	67.488	0.100
65.000	68.535	0.100
65.100	66.383	0.100
65.200	71.985	0.100
65.300	52.913	0.100
65.400	77.836	0.100
65.500	67.522	0.100
65.600	71.190	0.100
65.700	53.957	0.100
65.800	57.101	0.100
65.900	67.153	0.100
66.000	66.613	0.100
66.100	59.221	0.100
66.200	65.922	0.100
66.300	54.541	0.100
66.400	54.604	0.100
66.500	71.433	0.100
66.600	63.248	0.100
66.700	53.227	0.100
66.800	59.778	0.100
66.900	75.222	0.100
67.000	59.540	0.100
67.100	76.373	0.100
67.200	63.049	0.100
67.300	49.903	0.100
67.400	51.351	0.100
67.500	57.319	0.100
67.600	55.772	0.100
67.700	73.806	0.100
67.800	65.807	0.100
67.900	61.277	0.100
68.000	65.235	0.100
68.100	61.743	0.100
68.200	60.940	0.100
68.300	72.952	0.100
68.400	69.444	0.100
68.500	70.346	0.100
68.600	67.948	0.100
68.700	51.239	0.100
68.800	55.042	0.100
68.900	58.328	0.100
69.000	52.964	0.100
69.100	82.424	0.100
69.200	64.821	0.100
69.300	58.303	0.100
69.400	65.312	0.100
69.500	68.581	0.100
69.600	66.727	0.100
69.700	67.430	0.100
69.800	73.436	0.100
69.900	68.535	0.100
70.000	55.860	0.100
70.100	64.295	0.100
70.200	66.083	0.100
70.300	59.158	0.100
70.400	56.148	0.100
70.500	65.980	0.100
70.600	72.009	0.100
70.700	60.466	0.100
70.800	71.768	0.100
70.900	73.226	0.100
71.000	58.242	0.100
71.100	58.496	0.100
71.200	58.645	0.100
71.300	64.288	0.100
71.400	60.317	0.100
71.500	58.338	0.100
71.600	59.772	0.100
71.700	56.047	0.100
71.800	69.369	0.100
71.900	63.054	0.100
72.000	63.210	0.100
72.100	67.622	0.100
72.200	62.517	0.100
72.300	67.930	0.100
72.400	54.477	0.100
72.500	70.208	0.100
72.600	65.569	0.100
72.700	64.835	0.100
72.800	61.473	0.100
72.900	46.306	0.100
73.000	62.042	0.100
73.100	70.262	0.100
73.200	57.495	0.100
73.300	80.629	0.100
73.400	70.743	0.100
73.500	64.150	0.100
73.600	55.738	0.100
73.700	60.953	0.100
73.800	62.460	0.100
73.900	56.011	0.100
74.000	49.870	0.100
74.100	68.195	0.100
74.200	74.653	0.100
74.300	49.708	0.100
74.400	65.922	0.100
74.500	70.315	0.100
74.600	53.361	0.100
74.700	62.197	0.100
74.800	56.293	0.100
74.900	75.815	0.100
75.000	78.024	0.100
75.100	58.222	0.100
75.200	71.770	0.100
75.300	58.619	0.100
75.400	78.332	0.100
75.500	70.369	0.100
75.600	62.247	0.100
75.700	63.202	0.100
75.800	56.692	0.100
75.900	77.863	0.100
76.000	61.075	0.100
76.100	73.987	0.100
76.200	64.789	0.100
76.300	64.119	0.100
76.400	55.634	0.100
76.500	64.160	0.100
76.600	65.482	0.100
76.700	73.614	0.100
76.800	59.701	0.100
76.900	67.479	0.100
77.000	64.351	0.100
77.100	68.909	0.100
77.200	61.760	0.100
77.300	47.148	0.100
77.400	75.377	0.100
77.500	68.779	0.100
77.600	62.177	0.100
77.700	59.589	0.100
77.800	79.914	0.100
77.900	66.336	0.100
78.000	65.589	0.100
78.100	76.819	0.100
78.200	58.958	0.100
78.300	50.250	0.100
78.400	69.487	0.100
78.500	63.595	0.100
78.600	74.238	0.100
78.700	42.074	0.100
78.800	60.368	0.100
78.900	64.413	0.100
79.000	67.315	0.100
79.100	58.489	0.100
79.200	62.333	0.100
79.300	59.070	0.100
79.400	54.115	0.100
79.500	69.208	0.100
79.600	71.905	0.100
79.700	48.531	0.100
79.800	53.042	0.100
79.900	68.272	0.100
80.000	59.735	0.100
80.100	67.821	0.100
80.200	68.072	0.100
80.300	61.653	0.100
80.400	62.339	0.100
80.500	50.556	0.100
80.600	46.630	0.100
80.700	72.799	0.100
80.800	66.869	0.100
80.900	64.603	0.100
81.000	68.798	0.100
81.100	70.591	0.100
81.200	59.207	0.100
81.300	71.240	0.100
81.400	57.432	0.100
81.500	62.054	0.100
81.600	61.099	0.100
81.700	61.375	0.100
81.800	73.504	0.100
81.900	51.901	0.100
82.000	62.503	0.100
82.100	66.395	0.100
82.200	59.750	0.100
82.300	61.036	0.100
82.400	49.306	0.100
82.500	60.961	0.100
82.600	61.392	0.100
82.700	65.474	0.100
82.800	76.634	0.100
82.900	60.909	0.100
83.000	47.395	0.100
83.100	61.521	0.100
83.200	51.573	0.100
83.300	53.565	0.100
83.400	59.192	0.100
83.500	62.496	0.100
83.600	72.162	0.100
83.700	73.383	0.100
83.800	69.178	0.100
83.900	75.378	0.100
84.000	64.426	0.100
84.100	52.968	0.100
84.200	66.075	0.100
84.300	59.361	0.100
84.400	61.232	0.100
84.500	38.764	0.100
84.600	54.337	0.100
84.700	56.270	0.100
84.800	71.883	0.100
84.900	66.448	0.100
85.000	66.055	0.100
85.100	63.716	0.100
85.200	57.385	0.100
85.300	63.379	0.100
85.400	58.613	0.100
85.500	50.868	0.100
85.600	50.736	0.100
85.700	73.685	0.100
85.800	62.827	0.100
85.900	64.139	0.099
86.000	61.324	0.099
86.100	63.487	0.099
86.200	61.715	0.099
86.300	61.039	0.099
86.400	48.615	0.099
86.500	40.526	0.099
86.600	60.333	0.099
86.700	58.829	0.099
86.800	44.476	0.099
86.900	66.756	0.099
87.000	61.653	0.099
87.100	59.260	0.099
87.200	55.263	0.099
87.300	51.187	0.099
87.400	53.603	0.099
87.500	57.964	0.099
87.600	48.011	0.099
87.700	67.634	0.099
87.800	53.569	0.099
87.900	69.244	0.099
88.000	74.092	0.099
88.100	66.460	0.099
88.200	65.325	0.099
88.300	42.296	0.099
88.400	50.927	0.099
88.500	58.108	0.099
88.600	57.958	0.099
88.700	45.016	0.099
88.800	62.451	0.099
88.900	58.285	0.099
89.000	63.632	0.099
89.100	57.216	0.099
89.200	63.256	0.099
89.300	56.517	0.099
89.400	62.854	0.099
89.500	57.837	0.099
89.600	64.807	0.099
89.700	55.892	0.099
89.800	69.336	0.099
89.900	45.322	0.099
90.000	59.096	0.099
90.100	39.670	0.099
90.200	59.454	0.099
90.300	56.516	0.099
90.400	59.419	0.099
90.500	63.369	0.099
90.600	60.086	0.099
90.700	60.136	0.099
90.800	59.422	0.099
90.900	55.568	0.099
91.000	54.949	0.099
91.100	60.691	0.099
91.200	48.009	0.099
91.300	49.165	0.099
91.400	48.587	0.099
91.500	61.797	0.099
91.600	52.591	0.099
91.700	54.009	0.099
91.800	52.622	0.099
91.900	45.135	0.099
92.000	56.174	0.099
92.100	42.241	0.099
92.200	39.848	0.099
92.300	60.486	0.099
92.400	40.374	0.099
92.500	36.218	0.099
92.600	43.116	0.099
92.700	45.385	0.099
92.800	47.220	0.099
92.900	22.688	0.099
93.000	40.683	0.099
93.100	39.072	0.099
93.200	43.020	0.099
93.300	42.167	0.099
93.400	41.841	0.099
93.500	49.205	0.099
93.600	42.739	0.099
93.700	36.650	0.099
93.800	47.925	0.099
93.900	40.079	0.099
94.000	36.101	0.099
94.100	43.982	0.099
94.200	32.185	0.099
94.300	44.922	0.099
94.400	36.575	0.099
94.500	38.899	0.099
94.600	33.292	0.099
94.700	52.412	0.099
94.800	41.818	0.099
94.900	40.423	0.099
95.000	29.134	0.099
95.100	27.661	0.099
95.200	35.084	0.099
95.300	45.662	0.099
95.400	20.173	0.099
95.500	40.375	0.099
95.600	40.116	0.099
95.700	30.407	0.099
95.800	35.320	0.099
95.900	37.434	0.099
96.000	21.526	0.099
96.100	31.357	0.099
96.200	25.963	0.099
96.300	40.860	0.099
96.400	39.810	0.099
96.500	41.661	0.099
96.600	23.335	0.099
96.700	24.497	0.099
96.800	23.087	0.099
96.900	20.889	0.099
97.000	36.227	0.099
97.100	37.561	0.099
97.200	45.946	0.099
97.300	30.080	0.099
97.400	37.483	0.099
97.500	25.543	0.099
97.600	33.299	0.099
97.700	27.485	0.099
97.800	39.462	0.099
97.900	43.657	0.099
98.000	16.221	0.099
98.100	25.179	0.099
98.200	31.736	0.099
98.300	38.510	0.099
98.400	18.578	0.099
98.500	28.400	0.099
98.600	36.679	0.099
98.700	33.886	0.099
98.800	35.024	0.099
98.900	30.204	0.099
99.000	34.647	0.099
99.100	46.092	0.099
99.200	38.497	0.099
99.300	36.448	0.099
99.400	29.340	0.099
99.500	13.527	0.099
99.600	39.897	0.099
99.700	28.927	0.099
99.800	35.016	0.099
99.900	32.488	0.099
100.000	23.209	0.099
100.100	31.536	0.099
100.200	30.151	0.099
100.300	25.363	0.099
100.400	40.969	0.099
100.500	22.759	0.099
100.600	25.814	0.099
100.700	19.900	0.099
100.800	30.689	0.099
100.900	24.370	0.099
101.000	33.621	0.099
101.100	38.704	0.099
101.200	25.596	0.099
101.300	16.898	0.099
101.400	38.458	0.099
101.500	38.100	0.099
101.600	20.656	0.099
101.700	24.316	0.099
101.800	25.512	0.099
101.900	30.396	0.099
102.000	31.265	0.100
102.100	32.704	0.100
102.200	26.235	0.100
102.300	27.491	0.100
102.400	30.445	0.100
102.500	38.527	0.100
102.600	36.336	0.100
102.700	43.559	0.100
102.800	27.554	0.100
102.900	28.878	0.100
103.000	34.375	0.100
103.100	35.234	0.100
103.200	36.603	0.100
103.300	19.113	0.100
103.400	31.815	0.100
103.500	32.240	0.100
103.600	32.847	0.100
103.700	38.180	0.100
103.800	43.259	0.100
103.900	28.779	0.100
104.000	29.962	0.100
104.100	23.841	0.100
104.200	33.848	0.100
104.300	23.363	0.100
104.400	42.394	0.100
104.500	32.212	0.100
104.600	30.762	0.100
104.700	25.234	0.100
104.800	23.728	0.100
104.900	20.257	0.100
105.000	44.448	0.100
105.100	23.876	0.100
105.200	51.626	0.100
105.300	38.914	0.100
105.400	33.808	0.100
105.500	22.043	0.100
105.600	36.396	0.100
105.700	38.838	0.100
105.800	37.913	0.100
105.900	26.202	0.100
106.000	36.868	0.100
106.100	45.169	0.100
106.200	21.020	0.100
106.300	30.503	0.100
106.400	33.696	0.100
106.500	33.945	0.100
106.600	41.957	0.100
106.700	26.447	0.100
106.800	23.585	0.100
106.900	49.076	0.100
107.000	31.697	0.100
107.100	29.192	0.100
107.200	23.085	0.100
107.300	35.737	0.100
107.400	22.590	0.100
107.500	32.372	0.100
107.600	19.244	0.100
107.700	41.733	0.100
107.800	25.921	0.100
107.900	24.816	0.100
108.000	20.642	0.100
108.100	25.181	0.100
108.200	34.139	0.100
108.300	26.735	0.100
108.400	34.521	0.100
108.500	25.950	0.100
108.600	33.548	0.100
108.700	33.810	0.100
108.800	26.078	0.100
108.900	35.373	0.100
109.000	26.974	0.100
109.100	39.342	0.100
109.200	24.916	0.100
109.300	14.458	0.100
109.400	38.654	0.100
109.500	34.374	0.100
109.600	18.920	0.100
109.700	19.843	0.100
109.800	46.568	0.100
109.900	31.556	0.100
110.000	32.611	0.100
110.100	41.557	0.100
110.200	25.205	0.100
110.300	30.236	0.100
110.400	34.253	0.100
110.500	32.222	0.100
110.600	20.734	0.100
110.700	11.522	0.100
110.800	32.853	0.100
110.900	41.103	0.100
111.000	50.735	0.100
111.100	29.286	0.100
111.200	24.718	0.100
111.300	14.950	0.100
111.400	40.056	0.100
111.500	24.615	0.100
111.600	33.233	0.100
111.700	36.095	0.100
111.800	39.891	0.100
111.900	25.501	0.100
112.000	8.953	0.100
112.100	22.165	0.100
112.200	27.796	0.100
112.300	28.242	0.100
112.400	24.888	0.100
112.500	35.550	0.100
112.600	24.893	0.100
112.700	26.801	0.100
112.800	21.850	0.100
112.900	34.760	0.100
113.000	14.886	0.100
113.100	34.337	0.100
113.200	32.071	0.100
113.300	32.781	0.100
113.400	29.798	0.100
113.500	16.808	0.100
113.600	29.704	0.100
113.700	21.026	0.100
113.800	21.817	0.100
113.900	19.421	0.100
114.000	38.393	0.100
114.100	30.261	0.100
114.200	30.935	0.100
114.300	23.084	0.100
114.400	26.479	0.100
114.500	22.558	0.100
114.600	18.896	0.100
114.700	28.848	0.100
114.800	36.413	0.100
114.900	27.318	0.100
115.000	22.104	0.100
115.100	20.016	0.100
115.200	21.991	0.100
115.300	21.683	0.100
115.400	19.995	0.100
115.500	29.427	0.100
115.600	33.823	0.100
115.700	32.130	0.100
115.800	39.399	0.100
115.900	24.215	0.100
116.000	20.197	0.100
116.100	24.229	0.100
116.200	24.226	0.100
116.300	20.797	0.100
116.400	30.379	0.100
116.500	28.044	0.100
116.600	30.209	0.100
116.700	31.217	0.100
116.800	16.051	0.100
116.900	38.192	0.100
117.000	22.306	0.100
117.100	20.556	0.100
117.200	36.949	0.100
117.300	29.685	0.100
117.400	36.180	0.100
117.500	19.110	0.100
117.600	16.500	0.100
117.700	38.899	0.100
117.800	19.230	0.100
117.900	27.962	0.100
118.000	24.560	0.100
118.100	13.515	0.100
118.200	33.396	0.100
118.300	24.319	0.100
118.400	14.835	0.100
118.500	28.707	0.100
118.600	23.548	0.100
118.700	31.872	0.100
118.800	24.267	0.100
118.900	31.706	0.100
119.000	20.625	0.100
119.100	27.259	0.100
119.200	23.117	0.100
119.300	10.147	0.100
119.400	16.026	0.100
119.500	15.588	0.100
119.600	34.289	0.100
119.700	5.803	0.100
119.800	35.142	0.100
119.900	21.120	0.100
120.000	24.111	0.100
120.100	26.938	0.100
120.200	41.013	0.100
120.300	2.965	0.100
120.400	14.068	0.100
120.500	17.931	0.100
120.600	12.588	0.100
120.700	26.583	0.100
120.800	28.759	0.100
120.900	29.839	0.100
121.000	22.970	0.100
121.100	17.282	0.100
121.200	23.941	0.100
121.300	37.417	0.100
121.400	21.399	0.100
121.500	11.801	0.100
121.600	11.959	0.100
121.700	25.676	0.100
121.800	20.537	0.100
121.900	15.373	0.100
122.000	10.126	0.100
122.100	27.203	0.100
122.200	22.291	0.100
122.300	33.492	0.100
122.400	28.901	0.100
122.500	15.661	0.100
122.600	13.895	0.100
122.700	30.983	0.100
122.800	37.811	0.100
122.900	15.948	0.100
123.000	7.885	0.100
123.100	23.231	0.100
123.200	22.382	0.100
123.300	19.700	0.100
123.400	15.834	0.100
123.500	13.146	0.100
123.600	34.542	0.100
123.700	25.506	0.100
123.800	18.004	0.100
123.900	29.893	0.100
124.000	24.813	0.100
124.100	23.041	0.100
124.200	28.279	0.100
124.300	17.291	0.100
124.400	18.695	0.100
124.500	24.213	0.100
124.600	23.320	0.100
124.700	26.314	0.100
124.800	7.389	0.100
124.900	20.306	0.100
125.000	18.673	0.100
125.100	25.256	0.100
125.200	9.681	0.100
125.300	26.700	0.100
125.400	24.479	0.100
125.500	20.312	0.100
125.600	26.691	0.100
125.700	23.522	0.100
125.800	23.082	0.100
125.900	19.702	0.100
126.000	27.427	0.100
126.100	15.566	0.100
126.200	23.887	0.100
126.300	15.463	0.100
126.400	23.692	0.100
126.500	22.927	0.100
126.600	26.269	0.100
126.700	17.127	0.100
126.800	23.274	0.100
126.900	12.635	0.100
127.000	22.694	0.100
127.100	16.458	0.100
127.200	14.971	0.100
127.300	17.455	0.100
127.400	26.050	0.100
127.500	22.667	0.100
127.600	20.985	0.100
127.700	17.073	0.100
127.800	22.509	0.100
127.900	23.689	0.100
128.000	15.034	0.100
128.100	15.980	0.100
128.200	21.204	0.100
128.300	12.689	0.100
128.400	28.362	0.100
128.500	23.896	0.100
128.600	20.585	0.100
128.700	10.179	0.100
128.800	14.384	0.100
128.900	27.298	0.100
129.000	39.267	0.100
129.100	16.097	0.100
129.200	12.867	0.100
129.300	26.257	0.100
129.400	18.730	0.100
129.500	2.499	0.100
129.600	20.367	0.100
129.700	25.544	0.100
129.800	10.190	0.100
129.900	28.538	0.100
130.000	30.857	0.100
130.100	19.633	0.100
130.200	9.761	0.100
130.300	27.443	0.100
130.400	9.080	0.100
130.500	30.719	0.100
130.600	21.117	0.100
130.700	10.037	0.100
130.800	21.643	0.100
130.900	28.089	0.100
131.000	3.534	0.100
131.100	19.805	0.100
131.200	9.241	0.100
131.300	13.320	0.100
131.400	11.423	0.100
131.500	24.687	0.100
131.600	17.548	0.100
131.700	22.792	0.100
131.800	22.765	0.100
131.900	27.561	0.100
132.000	18.060	0.100
132.100	21.807	0.100
132.200	22.608	0.100
132.300	16.366	0.100
132.400	24.883	0.100
132.500	20.564	0.100
132.600	13.221	0.100
132.700	19.727	0.100
132.800	15.557	0.100
132.900	14.990	0.100
133.000	17.465	0.100
133.100	24.172	0.100
133.200	10.431	0.100
133.300	13.251	0.100
133.400	22.331	0.100
133.500	26.130	0.100
133.600	5.994	0.100
133.700	26.404	0.100
133.800	21.741	0.100
133.900	18.810	0.100
134.000	14.450	0.100
134.100	34.533	0.100
134.200	11.886	0.100
134.300	13.233	0.100
134.400	20.818	0.100
134.500	12.004	0.100
134.600	14.260	0.100
134.700	30.022	0.100
134.800	27.840	0.100
134.900	20.099	0.100
135.000	28.250	0.100
135.100	24.584	0.100
135.200	3.252	0.100
135.300	21.782	0.100
135.400	14.769	0.100
135.500	16.760	0.100
135.600	8.585	0.100
135.700	7.228	0.100
135.800	25.708	0.100
135.900	13.622	0.100
136.000	21.261	0.100
136.100	-7.387	0.100
136.200	19.748	0.100
136.300	27.649	0.100
136.400	30.365	0.100
136.500	16.610	0.100
136.600	31.622	0.100
136.700	27.128	0.100
136.800	11.997	0.100
136.900	11.141	0.100
137.000	11.395	0.100
137.100	0.736	0.100
137.200	20.789	0.100
137.300	15.986	0.100
137.400	18.428	0.100
137.500	15.634	0.100
137.600	12.488	0.100
137.700	21.929	0.100
137.800	11.623	0.100
137.900	15.299	0.100
138.000	19.092	0.100
138.100	10.092	0.100
138.200	20.741	0.100
138.300	8.252	0.100
138.400	8.003	0.100
138.500	19.647	0.100
138.600	18.670	0.100
138.700	20.795	0.100
138.800	12.264	0.100
138.900	26.939	0.100
139.000	17.927	0.100
139.100	24.148	0.100
139.200	22.687	0.100
139.300	17.616	0.100
139.400	4.622	0.100
139.500	24.123	0.100
139.600	14.781	0.100
139.700	10.779	0.100
139.800	3.275	0.100
139.900	12.592	0.100
140.000	32.553	0.100
140.100	15.808	0.100
140.200	3.353	0.100
140.300	21.483	0.100
140.400	18.330	0.100
140.500	7.432	0.100
140.600	15.637	0.100
140.700	20.323	0.100
140.800	17.151	0.100
140.900	24.287	0.100
141.000	13.346	0.100
141.100	11.521	0.100
141.200	10.797	0.100
141.300	13.806	0.100
141.400	17.702	0.100
141.500	10.251	0.100
141.600	8.478	0.100
141.700	19.097	0.099
141.800	21.249	0.099
141.900	6.790	0.099
142.000	10.254	0.099
142.100	-1.446	0.099
142.200	8.936	0.099
142.300	6.750	0.099
142.400	21.281	0.099
142.500	-0.832	0.099
142.600	8.594	0.099
142.700	13.339	0.099
142.800	11.418	0.099
142.900	11.393	0.099
143.000	-8.392	0.099
143.100	14.392	0.099
143.200	7.596	0.099
143.300	0.865	0.099
143.400	6.349	0.099
143.500	8.640	0.099
143.600	13.139	0.099
143.700	-0.639	0.099
143.800	9.140	0.099
143.900	17.493	0.099
144.000	10.728	0.099
144.100	2.122	0.099
144.200	12.710	0.099
144.300	15.456	0.099
144.400	24.068	0.099
144.500	11.121	0.099
144.600	3.134	0.099
144.700	-1.098	0.099
144.800	2.648	0.099
144.900	6.744	0.099
145.000	16.934	0.099
145.100	17.979	0.099
145.200	-3.160	0.099
145.300	3.600	0.099
145.400	7.212	0.099
145.500	4.938	0.099
145.600	7.123	0.099
145.700	6.884	0.099
145.800	15.181	0.099
145.900	4.150	0.099
146.000	-2.406	0.099
146.100	17.907	0.099
146.200	9.608	0.099
146.300	9.667	0.099
146.400	7.940	0.099
146.500	4.255	0.099
146.600	6.804	0.099
146.700	1.310	0.099
146.800	1.399	0.099
146.900	6.066	0.099
147.000	9.828	0.099
147.100	-0.961	0.099
147.200	17.344	0.099
147.300	-7.480	0.099
147.400	11.047	0.099
147.500	11.964	0.099
147.600	1.458	0.099
147.700	-1.351	0.099
147.800	4.403	0.099
147.900	0.336	0.099
148.000	4.566	0.099
148.100	1.817	0.099
148.200	-11.772	0.099
148.300	-7.224	0.099
148.400	12.752	0.099
148.500	9.830	0.099
148.600	-3.012	0.099
148.700	0.856	0.099
148.800	11.925	0.099
148.900	4.100	0.099
149.000	-7.334	0.099
149.100	-8.805	0.099
149.200	3.868	0.099
149.300	14.124	0.099
149.400	-4.689	0.099
149.500	5.006	0.099
149.600	-6.206	0.099
149.700	-5.172	0.099
149.800	-2.769	0.099
149.900	0.511	0.099
150.000	9.008	0.099
150.100	1.570	0.099
150.200	0.126	0.099
150.300	-2.516	0.099
150.400	-2.722	0.099
150.500	2.479	0.099
150.600	1.088	0.099
150.700	0.484	0.099
150.800	-2.452	0.099
150.900	12.588	0.099
151.000	4.250	0.099
151.100	-2.843	0.099
151.200	-3.041	0.099
151.300	-6.865	0.099
151.400	18.089	0.099
151.500	0.082	0.099
151.600	-13.334	0.099
151.700	4.665	0.099
151.800	-4.678	0.099
151.900	3.350	0.099
152.000	9.445	0.099
152.100	7.754	0.099
152.200	-5.923	0.099
152.300	-1.538	0.099
152.400	-0.150	0.099
152.500	5.092	0.099
152.600	-7.472	0.099
152.700	-13.029	0.099
152.800	-11.208	0.099
152.900	6.968	0.099
153.000	-0.839	0.099
153.100	3.211	0.099
153.200	-6.097	0.099
153.300	2.216	0.099
153.400	-3.455	0.099
153.500	-3.864	0.099
153.600	14.308	0.099
153.700	-6.566	0.099
153.800	1.567	0.099
153.900	-1.612	0.099
154.000	-4.687	0.099
154.100	0.419	0.099
154.200	12.148	0.099
154.300	-3.790	0.099
154.400	-9.413	0.099
154.500	13.716	0.099
154.600	0.931	0.099
154.700	-0.205	0.099
154.800	-9.137	0.099
154.900	-9.263	0.099
155.000	10.051	0.099
155.100	-9.329	0.099
155.200	3.851	0.099
155.300	14.913	0.099
155.400	-6.798	0.099
155.500	16.354	0.099
155.600	-1.072	0.099
155.700	2.504	0.099
155.800	-1.479	0.099
155.900	5.177	0.099
156.000	6.329	0.099
156.100	3.552	0.099
156.200	4.366	0.099
156.300	-0.117	0.099
156.400	3.766	0.099
156.500	3.988	0.099
156.600	1.400	0.099
156.700	2.276	0.099
156.800	1.874	0.099
156.900	8.818	0.099
157.000	-2.927	0.099
157.100	3.773	0.099
157.200	0.669	0.099
157.300	-8.737	0.099
157.400	7.129	0.099
157.500	2.893	0.099
157.600	9.565	0.099
157.700	-6.458	0.099
157.800	0.456	0.099
157.900	-1.758	0.099
158.000	14.438	0.099
158.100	1.032	0.099
158.200	-2.015	0.099
158.300	1.997	0.099
158.400	3.844	0.099
158.500	-2.694	0.099
158.600	1.340	0.100
158.700	15.825	0.100
158.800	13.376	0.100
158.900	-9.793	0.100
159.000	12.399	0.100
159.100	5.970	0.100
159.200	7.268	0.100
159.300	10.957	0.100
159.400	4.331	0.100
159.500	4.071	0.100
159.600	10.127	0.100
159.700	-2.437	0.100
159.800	-5.774	0.100
159.900	4.518	0.100
160.000	-2.400	0.100
160.100	17.974	0.100
160.200	8.291	0.100
160.300	-0.507	0.100
160.400	12.142	0.100
160.500	12.112	0.100
160.600	-1.830	0.100
160.700	1.721	0.100
160.800	3.013	0.100
160.900	11.939	0.100
161.000	6.258	0.100
161.100	-4.885	0.100
161.200	-6.939	0.100
161.300	10.012	0.100
161.400	9.162	0.100
161.500	3.549	0.100
161.600	4.855	0.100
161.700	16.616	0.100
161.800	16.578	0.100
161.900	21.074	0.100
162.000	6.192	0.100
162.100	4.253	0.100
162.200	-2.533	0.100
162.300	9.247	0.100
162.400	-2.440	0.100
162.500	8.153	0.100
162.600	11.633	0.100
162.700	5.424	0.100
162.800	-9.056	0.100
162.900	11.404	0.100
163.000	16.774	0.100
163.100	3.226	0.100
163.200	5.472	0.100
163.300	-2.446	0.100
163.400	4.034	0.100
163.500	4.031	0.100
163.600	-0.833	0.100
163.700	14.927	0.100
163.800	-8.878	0.100
163.900	11.312	0.100
164.000	7.051	0.100
164.100	23.732	0.100
164.200	8.870	0.100
164.300	6.229	0.100
164.400	5.915	0.100
164.500	8.476	0.100
164.600	-2.759	0.100
164.700	5.579	0.100
164.800	20.174	0.100
164.900	-1.825	0.100
165.000	1.641	0.100
165.100	-11.608	0.100
165.200	-1.816	0.100
165.300	22.506	0.100
165.400	6.194	0.100
165.500	7.031	0.100
165.600	6.571	0.100
165.700	-6.234	0.100
165.800	-1.574	0.100
165.900	4.599	0.100
166.000	20.395	0.100
166.100	5.599	0.100
166.200	7.882	0.100
166.300	3.208	0.100
166.400	-6.551	0.100
166.500	5.933	0.100
166.600	-3.162	0.100
166.700	2.498	0.100
166.800	9.054	0.100
166.900	2.456	0.100
167.000	1.803	0.100
167.100	7.003	0.100
167.200	15.790	0.100
167.300	3.669	0.100
167.400	5.504	0.100
167.500	12.916	0.100
167.600	-0.504	0.100
167.700	7.717	0.100
167.800	0.543	0.100
167.900	-3.993	0.100
168.000	0.822	0.100
168.100	-5.959	0.100
168.200	5.199	0.100
168.300	-4.128	0.100
168.400	18.926	0.100
168.500	13.386	0.100
168.600	25.231	0.100
168.700	8.383	0.100
168.800	14.789	0.100
168.900	-0.064	0.100
169.000	-2.372	0.100
169.100	5.654	0.100
169.200	5.050	0.100
169.300	-5.170	0.100
169.400	-6.519	0.100
169.500	2.006	0.100
169.600	1.829	0.100
169.700	6.385	0.100
169.800	11.918	0.100
169.900	1.593	0.100
170.000	8.485	0.100
170.100	9.899	0.100
170.200	5.794	0.100
170.300	-1.736	0.100
170.400	3.214	0.100
170.500	10.491	0.100
170.600	-4.474	0.100
170.700	1.445	0.100
170.800	-12.873	0.100
170.900	13.693	0.100
171.000	14.079	0.100
171.100	8.858	0.100
171.200	1.360	0.100
171.300	5.407	0.100
171.400	3.028	0.100
171.500	-2.299	0.100
171.600	6.290	0.100
171.700	18.523	0.100
171.800	4.219	0.100
171.900	1.754	0.100
172.000	-2.973	0.100
172.100	10.426	0.100
172.200	11.735	0.100
172.300	5.936	0.100
172.400	0.514	0.100
172.500	2.947	0.100
172.600	10.659	0.100
172.700	4.776	0.100
172.800	10.414	0.100
172.900	6.250	0.100
173.000	6.404	0.100
173.100	-3.616	0.100
173.200	7.552	0.100
173.300	3.195	0.100
173.400	-4.709	0.100
173.500	-5.253	0.100
173.600	4.279	0.100
173.700	4.831	0.100
173.800	-0.329	0.100
173.900	0.327	0.100
174.000	6.796	0.100
174.100	23.668	0.100
174.200	1.107	0.100
174.300	-0.885	0.100
174.400	5.162	0.100
174.500	9.476	0.100
174.600	13.840	0.100
174.700	19.078	0.100
174.800	4.664	0.100
174.900	5.623	0.100
175.000	3.660	0.100
175.100	-1.854	0.100
175.200	-2.959	0.100
175.300	5.213	0.100
175.400	7.294	0.100
175.500	7.564	0.100
175.600	-2.165	0.100
175.700	10.897	0.100
175.800	11.499	0.100
175.900	4.688	0.100
176.000	1.961	0.100
176.100	7.949	0.100
176.200	4.534	0.100
176.300	-8.343	0.100
176.400	6.204	0.100
176.500	5.346	0.100
176.600	9.569	0.100
176.700	1.294	0.100
176.800	4.653	0.100
176.900	3.326	0.100
177.000	-0.878	0.100
177.100	1.247	0.100
177.200	5.102	0.100
177.300	-1.335	0.100
177.400	2.996	0.100
177.500	-6.343	0.100
177.600	7.379	0.100
177.700	5.864	0.100
177.800	11.585	0.100
177.900	9.508	0.100
178.000	9.759	0.100
178.100	12.232	0.100
178.200	4.060	0.100
178.300	-0.540	0.100
178.400	11.000	0.100
178.500	0.430	0.100
178.600	5.714	0.100
178.700	3.785	0.100
178.800	14.311	0.100
178.900	-0.177	0.100
179.000	-13.577	0.100
179.100	-4.479	0.100
179.200	-1.673	0.100
179.300	-3.652	0.100
179.400	17.127	0.100
179.500	-7.149	0.100
179.600	1.978	0.100
179.700	7.276	0.100
179.800	12.857	0.100
179.900	-0.185	0.100
180.000	7.857	0.100
180.100	0.416	0.100
180.200	5.053	0.100
180.300	-0.754	0.100
180.400	16.981	0.100
180.500	10.535	0.100
180.600	-5.478	0.100
180.700	13.671	0.100
180.800	6.356	0.100
180.900	8.084	0.100
181.000	13.366	0.100
181.100	19.914	0.100
181.200	17.751	0.100
181.300	16.207	0.100
181.400	-4.126	0.100
181.500	6.710	0.100
181.600	12.692	0.100
181.700	11.890	0.100
181.800	13.175	0.100
181.900	9.303	0.100
182.000	15.670	0.100
182.100	16.376	0.100
182.200	15.453	0.100
182.300	1.495	0.100
182.400	3.487	0.100
182.500	9.191	0.100
182.600	12.782	0.100
182.700	14.640	0.100
182.800	12.335	0.100
182.900	15.897	0.100
183.000	7.023	0.100
183.100	16.728	0.100
183.200	17.746	0.100
183.300	3.025	0.100
183.400	18.040	0.100
183.500	17.679	0.100
183.600	14.164	0.100
183.700	10.353	0.100
183.800	17.292	0.100
183.900	7.570	0.100
184.000	13.397	0.100
184.100	13.894	0.100
184.200	15.431	0.100
184.300	28.178	0.100
184.400	14.715	0.100
184.500	16.402	0.100
184.600	0.960	0.100
184.700	13.648	0.100
184.800	32.373	0.100
184.900	14.171	0.100
185.000	16.533	0.100
185.100	16.644	0.100
185.200	2.562	0.100
185.300	23.398	0.100
185.400	16.918	0.100
185.500	6.010	0.100
185.600	21.710	0.100
185.700	10.422	0.100
185.800	25.259	0.100
185.900	7.992	0.100
186.000	15.877	0.100
186.100	22.236	0.100
186.200	10.336	0.100
186.300	23.019	0.100
186.400	15.916	0.100
186.500	30.715	0.100
186.600	28.193	0.100
186.700	17.271	0.100
186.800	16.172	0.100
186.900	16.582	0.100
187.000	20.341	0.100
187.100	14.680	0.100
187.200	14.420	0.100
187.300	27.195	0.100
187.400	19.808	0.100
187.500	13.983	0.100
187.600	23.821	0.100
187.700	17.629	0.100
187.800	20.642	0.100
187.900	18.022	0.100
188.000	13.481	0.100
188.100	27.033	0.100
188.200	23.016	0.100
188.300	11.062	0.100
188.400	11.985	0.100
188.500	23.547	0.100
188.600	19.271	0.100
188.700	25.492	0.100
188.800	18.031	0.100
188.900	16.960	0.100
189.000	17.783	0.100
189.100	19.535	0.100
189.200	27.341	0.100
189.300	23.944	0.100
189.400	11.935	0.100
189.500	18.106	0.100
189.600	20.441	0.100
189.700	33.288	0.100
189.800	25.260	0.100
189.900	18.739	0.100
190.000	14.603	0.100
190.100	15.690	0.100
190.200	22.616	0.100
190.300	23.850	0.100
190.400	26.695	0.100
190.500	27.453	0.100
190.600	12.076	0.100
190.700	11.538	0.100
190.800	33.160	0.100
190.900	21.387	0.100
191.000	23.120	0.100
191.100	17.625	0.100
191.200	20.478	0.100
191.300	26.376	0.100
191.400	28.017	0.100
191.500	32.634	0.100
191.600	21.155	0.100
191.700	27.916	0.100
191.800	15.102	0.100
191.900	16.967	0.100
192.000	19.426	0.100
192.100	25.746	0.100
192.200	22.779	0.100
192.300	26.019	0.100
192.400	15.700	0.100
192.500	39.546	0.100
192.600	19.906	0.100
192.700	40.754	0.100
192.800	22.438	0.100
192.900	27.701	0.100
193.000	12.664	0.100
193.100	12.295	0.100
193.200	18.373	0.100
193.300	13.340	0.100
193.400	34.112	0.100
193.500	21.358	0.100
193.600	28.691	0.100
193.700	37.596	0.100
193.800	34.011	0.100
193.900	33.198	0.100
194.000	24.863	0.100
194.100	23.415	0.100
194.200	13.494	0.100
194.300	21.034	0.100
194.400	37.270	0.100
194.500	26.585	0.100
194.600	25.582	0.100
194.700	19.379	0.100
194.800	12.074	0.100
194.900	35.346	0.100
195.000	25.334	0.100
195.100	21.908	0.100
195.200	30.413	0.100
195.300	36.980	0.100
195.400	32.281	0.100
195.500	27.468	0.100
195.600	25.921	0.100
195.700	28.794	0.100
195.800	39.560	0.100
195.900	22.216	0.100
196.000	31.821	0.100
196.100	14.576	0.100
196.200	38.366	0.100
196.300	29.750	0.100
196.400	25.891	0.100
196.500	37.614	0.100
196.600	22.397	0.100
196.700	26.888	0.100
196.800	37.924	0.100
196.900	27.713	0.100
197.000	30.870	0.100
197.100	27.316	0.100
197.200	18.796	0.100
197.300	19.078	0.100
197.400	30.255	0.100
197.500	33.935	0.100
197.600	29.324	0.100
197.700	36.049	0.100
197.800	46.645	0.100
197.900	35.583	0.100
198.000	20.859	0.100
198.100	25.665	0.100
198.200	26.208	0.100
198.300	39.029	0.100
198.400	35.870	0.100
198.500	26.620	0.100
198.600	29.179	0.100
198.700	23.947	0.100
198.800	28.303	0.100
198.900	32.876	0.100
199.000	29.996	0.100
199.100	29.675	0.100
199.200	44.347	0.100
199.300	25.477	0.100
199.400	33.558	0.100
199.500	48.932	0.100
199.600	39.862	0.100
199.700	31.380	0.100
199.800	33.448	0.100
199.900	39.534	0.100
200.000	29.093	0.100
200.100	29.801	0.100
200.200	29.145	0.100
200.300	36.987	0.100
200.400	31.072	0.100
200.500	39.992	0.100
200.600	26.078	0.100
200.700	35.812	0.100
200.800	38.502	0.100
200.900	38.084	0.100
201.000	18.808	0.100
201.100	26.398	0.100
201.200	55.082	0.100
201.300	42.877	0.100
201.400	43.260	0.100
201.500	37.401	0.100
201.600	33.646	0.100
201.700	38.977	0.100
201.800	34.789	0.100
201.900	38.258	0.100
202.000	34.803	0.100
202.100	33.265	0.100
202.200	27.388	0.100
202.300	43.285	0.100
202.400	41.715	0.100
202.500	44.129	0.100
202.600	33.880	0.100
202.700	36.235	0.100
202.800	31.952	0.100
202.900	33.610	0.100
203.000	33.785	0.100
203.100	36.587	0.100
203.200	30.965	0.100
203.300	43.012	0.100
203.400	38.550	0.100
203.500	39.298	0.100
203.600	32.697	0.100
203.700	42.218	0.100
203.800	37.671	0.100
203.900	33.140	0.100
204.000	39.843	0.100
204.100	50.065	0.100
204.200	38.240	0.100
204.300	35.643	0.100
204.400	45.652	0.100
204.500	40.374	0.100
204.600	29.151	0.100
204.700	41.879	0.100
204.800	43.921	0.100
204.900	39.547	0.100
205.000	36.198	0.100
205.100	42.742	0.100
205.200	55.978	0.100
205.300	41.421	0.100
205.400	40.924	0.100
205.500	50.666	0.100
205.600	49.501	0.100
205.700	28.089	0.100
205.800	41.928	0.100
205.900	37.381	0.100
206.000	46.778	0.100
206.100	36.269	0.100
206.200	40.535	0.100
206.300	41.678	0.100
206.400	39.227	0.100
206.500	36.604	0.100
206.600	45.380	0.100
206.700	42.678	0.100
206.800	44.484	0.100
206.900	28.949	0.100
207.000	43.395	0.100
207.100	51.423	0.100
207.200	31.509	0.100
207.300	40.003	0.100
207.400	35.707	0.100
207.500	42.797	0.100
207.600	34.378	0.100
207.700	49.380	0.100
207.800	47.982	0.100
207.900	41.806	0.100
208.000	42.049	0.100
208.100	38.845	0.100
208.200	43.262	0.100
208.300	40.788	0.100
208.400	42.411	0.100
208.500	35.478	0.100
208.600	49.430	0.100
208.700	44.661	0.100
208.800	45.564	0.100
208.900	48.296	0.100
209.000	36.408	0.100
209.100	39.600	0.100
209.200	34.107	0.100
209.300	59.925	0.100
209.400	49.141	0.100
209.500	53.410	0.100
209.600	48.138	0.100
209.700	45.823	0.100
209.800	42.250	0.100
209.900	39.477	0.100
210.000	48.580	0.100
210.100	53.433	0.100
210.200	48.270	0.100
210.300	40.964	0.100
210.400	44.404	0.100
210.500	36.508	0.100
210.600	37.785	0.100
210.700	40.181	0.100
210.800	50.951	0.100
210.900	52.535	0.100
211.000	46.539	0.100
211.100	41.850	0.100
211.200	51.705	0.100
211.300	46.593	0.100
211.400	50.623	0.100
211.500	59.149	0.100
211.600	50.927	0.100
211.700	52.780	0.100
211.800	44.772	0.100
211.900	46.170	0.100
212.000	28.834	0.100
212.100	37.377	0.100
212.200	61.157	0.100
212.300	47.499	0.100
212.400	38.343	0.100
212.500	45.644	0.100
212.600	39.170	0.100
212.700	52.642	0.100
212.800	38.850	0.100
212.900	50.939	0.100
213.000	43.329	0.100
213.100	42.153	0.100
213.200	46.930	0.100
213.300	51.023	0.100
213.400	37.677	0.100
213.500	38.594	0.100
213.600	45.035	0.100
213.700	52.578	0.100
213.800	51.641	0.100
213.900	45.969	0.100
214.000	44.646	0.100
214.100	48.678	0.100
214.200	50.116	0.100
214.300	47.591	0.100
214.400	50.648	0.100
214.500	49.551	0.100
214.600	52.912	0.100
214.700	34.061	0.100
214.800	44.338	0.100
214.900	44.490	0.100
215.000	49.020	0.100
215.100	38.666	0.100
215.200	59.276	0.100
215.300	62.494	0.100
215.400	40.880	0.100
215.500	54.581	0.100
215.600	45.023	0.100
215.700	47.606	0.100
215.800	43.128	0.100
215.900	45.918	0.100
216.000	62.545	0.100
216.100	48.857	0.100
216.200	48.491	0.100
216.300	44.041	0.100
216.400	44.476	0.100
216.500	53.756	0.100
216.600	56.522	0.100
216.700	47.940	0.100
216.800	43.259	0.100
216.900	42.779	0.100
217.000	39.744	0.100
217.100	44.802	0.100
217.200	55.587	0.100
217.300	52.420	0.100
217.400	47.269	0.100
217.500	53.936	0.100
217.600	56.522	0.100
217.700	55.469	0.100
217.800	36.600	0.100
217.900	55.915	0.100
218.000	50.818	0.100
218.100	50.480	0.100
218.200	48.826	0.100
218.300	48.121	0.100
218.400	46.564	0.100
218.500	40.843	0.100
218.600	63.537	0.100
218.700	51.722	0.100
218.800	45.489	0.100
218.900	64.019	0.100
219.000	61.749	0.100
219.100	46.860	0.100
219.200	50.965	0.100
219.300	43.006	0.100
219.400	41.444	0.100
219.500	56.635	0.100
219.600	44.615	0.100
219.700	38.367	0.100
219.800	54.636	0.100
219.900	50.700	0.100
220.000	44.646	0.100
220.100	52.614	0.100
220.200	47.284	0.100
220.300	55.699	0.100
220.400	50.287	0.100
220.500	43.257	0.100
220.600	51.564	0.100
220.700	54.744	0.100
220.800	44.606	0.100
220.900	46.956	0.100
221.000	56.218	0.100
221.100	57.757	0.100
221.200	58.826	0.100
221.300	50.942	0.100
221.400	42.718	0.100
221.500	47.828	0.100
221.600	39.387	0.100
221.700	42.816	0.100
221.800	49.202	0.100
221.900	41.968	0.100
222.000	52.522	0.100
222.100	55.866	0.100
222.200	42.842	0.100
222.300	53.994	0.100
222.400	43.633	0.100
222.500	50.612	0.100
222.600	47.070	0.100
222.700	36.219	0.100
222.800	65.919	0.100
222.900	45.379	0.100
223.000	49.007	0.100
223.100	42.888	0.100
223.200	48.344	0.100
223.300	48.233	0.100
223.400	67.140	0.100
223.500	64.771	0.100
223.600	52.803	0.100
223.700	51.117	0.100
223.800	44.464	0.100
223.900	45.951	0.100
224.000	41.412	0.100
224.100	52.459	0.100
224.200	45.736	0.100
224.300	53.812	0.100
224.400	56.254	0.100
224.500	49.380	0.100
224.600	59.102	0.100
224.700	55.918	0.100
224.800	64.147	0.100
224.900	46.245	0.100
225.000	41.996	0.100
225.100	49.685	0.100
225.200	54.385	0.100
225.300	58.539	0.100
225.400	47.030	0.100
225.500	53.427	0.100
225.600	41.583	0.100
225.700	60.297	0.100
225.800	50.329	0.100
225.900	53.103	0.100
226.000	61.147	0.100
226.100	44.341	0.100
226.200	48.734	0.100
226.300	48.741	0.100
226.400	42.190	0.100
226.500	50.787	0.100
226.600	53.465	0.100
226.700	56.986	0.100
226.800	56.850	0.100
226.900	46.812	0.100
227.000	53.772	0.100
227.100	60.866	0.100
227.200	35.950	0.100
227.300	41.798	0.100
227.400	51.370	0.100
227.500	44.073	0.100
227.600	56.752	0.100
227.700	40.884	0.100
227.800	64.850	0.100
227.900	63.113	0.100
228.000	35.835	0.100
228.100	54.031	0.100
228.200	58.249	0.100
228.300	51.819	0.100
228.400	53.939	0.100
228.500	45.695	0.100
228.600	56.071	0.100
228.700	41.491	0.100
228.800	47.482	0.100
228.900	68.470	0.100
229.000	49.289	0.100
229.100	57.078	0.100
229.200	56.897	0.100
229.300	46.440	0.100
229.400	47.185	0.100
229.500	52.942	0.100
229.600	57.181	0.100
229.700	44.005	0.100
229.800	50.370	0.100
229.900	40.205	0.100
230.000	62.844	0.100
230.100	58.982	0.100
230.200	52.602	0.100
230.300	53.074	0.100
230.400	44.617	0.100
230.500	41.605	0.100
230.600	57.026	0.100
230.700	57.989	0.100
230.800	52.893	0.100
230.900	40.522	0.100
231.000	53.926	0.100
231.100	54.345	0.100
231.200	51.682	0.100
231.300	63.461	0.100
231.400	59.324	0.100
231.500	51.141	0.100
231.600	34.191	0.100
231.700	42.969	0.100
231.800	61.518	0.100
231.900	54.451	0.100
232.000	62.085	0.100
232.100	54.760	0.100
232.200	37.826	0.100
232.300	51.779	0.100
232.400	37.633	0.100
232.500	57.028	0.100
232.600	63.751	0.100
232.700	47.752	0.100
232.800	47.189	0.100
232.900	57.210	0.100
233.000	63.118	0.100
233.100	50.364	0.100
233.200	47.545	0.100
233.300	54.457	0.100
233.400	56.529	0.100
233.500	36.150	0.100
233.600	54.127	0.100
233.700	37.693	0.100
233.800	63.003	0.100
233.900	33.580	0.100
234.000	65.618	0.100
234.100	58.623	0.100
234.200	38.540	0.100
234.300	39.853	0.100
234.400	62.184	0.100
234.500	60.829	0.100
234.600	45.120	0.100
234.700	53.218	0.100
234.800	53.168	0.100
234.900	63.011	0.100
235.000	50.120	0.100
235.100	50.381	0.100
235.200	52.559	0.100
235.300	60.687	0.100
235.400	62.260	0.100
235.500	54.854	0.100
235.600	61.438	0.100
235.700	46.309	0.100
235.800	59.661	0.100
235.900	58.890	0.100
236.000	37.998	0.100
236.100	43.970	0.100
236.200	62.845	0.100
236.300	50.378	0.100
236.400	48.454	0.100
236.500	40.633	0.100
236.600	49.194	0.100
236.700	53.819	0.100
236.800	64.188	0.100
236.900	57.158	0.100
237.000	49.994	0.100
237.100	58.182	0.100
237.200	35.226	0.100
237.300	55.588	0.100
237.400	57.258	0.100
237.500	55.374	0.100
237.600	53.278	0.100
237.700	43.708	0.100
237.800	44.205	0.100
237.900	48.449	0.100
238.000	64.876	0.100
238.100	43.685	0.100
238.200	63.307	0.100
238.300	40.397	0.100
238.400	51.839	0.100
238.500	48.621	0.100
238.600	56.891	0.100
238.700	69.831	0.100
238.800	48.379	0.100
238.900	45.603	0.100
239.000	58.593	0.100
239.100	53.381	0.100
239.200	52.758	0.100
239.300	54.325	0.100
239.400	42.967	0.100
239.500	44.508	0.100
239.600	55.656	0.100
239.700	54.759	0.100
239.800	57.829	0.100
239.900	45.822	0.100
240.000	50.873	0.100
240.100	60.786	0.100
240.200	72.779	0.100
240.300	60.937	0.100
240.400	57.150	0.100
240.500	48.845	0.100
240.600	31.368	0.100
240.700	49.961	0.100
240.800	58.113	0.100
240.900	44.278	0.100
241.000	55.440	0.100
241.100	42.673	0.100
241.200	54.443	0.100
241.300	42.054	0.100
241.400	46.148	0.100
241.500	54.442	0.100
241.600	43.878	0.100
241.700	53.994	0.100
241.800	39.382	0.100
241.900	41.317	0.100
242.000	41.628	0.100
242.100	36.040	0.100
242.200	44.717	0.100
242.300	37.083	0.100
242.400	45.180	0.100
242.500	41.004	0.100
242.600	58.420	0.100
242.700	54.655	0.100
242.800	48.324	0.100
242.900	47.510	0.100
243.000	42.301	0.100
243.100	34.282	0.100
243.200	48.627	0.100
243.300	41.010	0.100
243.400	14.493	0.100
243.500	51.943	0.100
243.600	43.798	0.100
243.700	41.632	0.100
243.800	37.060	0.100
243.900	36.814	0.100
244.000	36.699	0.100
244.100	34.953	0.100
244.200	29.291	0.100
244.300	32.232	0.100
244.400	27.954	0.100
244.500	45.284	0.100
244.600	43.319	0.100
244.700	37.795	0.100
244.800	31.731	0.100
244.900	41.175	0.100
245.000	19.400	0.100
245.100	18.030	0.100
245.200	25.411	0.100
245.300	40.201	0.100
245.400	38.102	0.100
245.500	23.586	0.100
245.600	23.541	0.100
245.700	37.332	0.100
245.800	44.277	0.100
245.900	24.299	0.100
246.000	32.703	0.100
246.100	30.111	0.100
246.200	27.217	0.100
246.300	34.127	0.100
246.400	21.765	0.100
246.500	41.108	0.100
246.600	22.777	0.100
246.700	30.653	0.100
246.800	24.644	0.100
246.900	21.376	0.100
247.000	25.356	0.100
247.100	27.906	0.100
247.200	23.387	0.100
247.300	25.794	0.100
247.400	22.582	0.100
247.500	18.108	0.100
247.600	23.007	0.100
247.700	27.305	0.100
247.800	27.118	0.100
247.900	32.248	0.100
248.000	14.997	0.100
248.100	32.496	0.100
248.200	38.143	0.100
248.300	19.425	0.100
248.400	27.600	0.100
248.500	30.957	0.100
248.600	33.581	0.100
248.700	22.866	0.100
248.800	21.994	0.100
248.900	13.904	0.100
249.000	30.368	0.100
249.100	44.822	0.100
249.200	11.824	0.100
249.300	29.065	0.100
249.400	20.324	0.100
249.500	31.420	0.100
249.600	27.603	0.100
249.700	27.748	0.100
249.800	25.989	0.100
249.900	27.827	0.100
250.000	21.796	0.100
250.100	20.758	0.100
250.200	25.323	0.100
250.300	37.549	0.100
250.400	19.359	0.100
250.500	33.439	0.100
250.600	21.039	0.100
250.700	25.734	0.100
250.800	22.664	0.100
250.900	33.134	0.100
251.000	20.047	0.100
251.100	21.853	0.100
251.200	24.650	0.100
251.300	27.267	0.100
251.400	31.734	0.100
251.500	21.833	0.100
251.600	13.181	0.100
251.700	21.220	0.100
251.800	12.419	0.100
251.900	27.561	0.100
252.000	31.541	0.100
252.100	30.606	0.100
252.200	20.571	0.100
252.300	21.186	0.100
252.400	16.173	0.100
252.500	12.897	0.100
252.600	20.340	0.100
252.700	24.653	0.100
252.800	20.968	0.100
252.900	23.568	0.100
253.000	25.386	0.100
253.100	25.792	0.100
253.200	22.475	0.100
253.300	32.433	0.100
253.400	28.081	0.100
253.500	12.652	0.100
253.600	32.284	0.100
253.700	8.240	0.100
253.800	14.216	0.100
253.900	18.071	0.100
254.000	18.175	0.100
254.100	12.220	0.100
254.200	24.031	0.100
254.300	21.545	0.100
254.400	27.712	0.100
254.500	18.410	0.100
254.600	18.804	0.100
254.700	32.648	0.100
254.800	21.407	0.100
254.900	20.984	0.100
255.000	8.455	0.100
255.100	26.611	0.100
255.200	13.630	0.100
255.300	14.001	0.100
255.400	24.002	0.100
255.500	16.239	0.100
255.600	17.308	0.100
255.700	13.685	0.100
255.800	19.805	0.100
255.900	26.987	0.100
256.000	36.083	0.100
256.100	19.127	0.100
256.200	8.226	0.100
256.300	11.144	0.100
256.400	32.425	0.100
256.500	20.954	0.100
256.600	23.315	0.100
256.700	22.351	0.100
256.800	8.709	0.100
256.900	10.567	0.100
257.000	22.323	0.100
257.100	18.483	0.100
257.200	11.013	0.100
257.300	22.320	0.100
257.400	24.992	0.100
257.500	23.620	0.100
257.600	16.843	0.100
257.700	4.340	0.100
257.800	27.143	0.100
257.900	16.719	0.100
258.000	13.765	0.100
258.100	16.494	0.100
258.200	18.699	0.100
258.300	12.977	0.100
258.400	11.539	0.100
258.500	8.804	0.100
258.600	24.394	0.100
258.700	16.730	0.100
258.800	15.272	0.100
258.900	4.207	0.100
259.000	17.971	0.100
259.100	14.300	0.100
259.200	8.740	0.100
259.300	14.697	0.100
259.400	6.456	0.100
259.500	11.939	0.100
259.600	27.595	0.100
259.700	21.074	0.100
259.800	5.944	0.100
259.900	3.365	0.100
260.000	26.663	0.100
260.100	9.471	0.100
260.200	10.282	0.100
260.300	7.494	0.100
260.400	19.029	0.100
260.500	9.660	0.100
260.600	8.291	0.100
260.700	18.109	0.100
260.800	2.999	0.100
260.900	9.290	0.100
261.000	20.119	0.100
261.100	22.478	0.100
261.200	21.686	0.100
261.300	0.014	0.100
261.400	15.209	0.100
261.500	6.375	0.100
261.600	20.208	0.100
261.700	18.384	0.100
261.800	20.156	0.100
261.900	8.358	0.100
262.000	9.569	0.100
262.100	10.051	0.100
262.200	27.212	0.100
262.300	15.157	0.100
262.400	15.379	0.100
262.500	10.029	0.100
262.600	12.393	0.100
262.700	6.385	0.100
262.800	18.802	0.100
262.900	18.540	0.100
263.000	9.264	0.100
263.100	16.242	0.100
263.200	14.401	0.100
263.300	18.264	0.100
263.400	1.984	0.100
263.500	8.496	0.100
263.600	7.518	0.100
263.700	18.351	0.100
263.800	7.520	0.100
263.900	3.226	0.100
264.000	5.535	0.100
264.100	1.787	0.100
264.200	9.704	0.100
264.300	16.605	0.100
264.400	-12.894	0.100
264.500	9.635	0.100
264.600	7.265	0.100
264.700	-8.400	0.100
264.800	15.255	0.100
264.900	19.037	0.100
265.000	4.130	0.100
265.100	13.279	0.100
265.200	7.123	0.100
265.300	11.994	0.100
265.400	5.446	0.100
265.500	8.568	0.100
265.600	7.429	0.100
265.700	21.693	0.100
265.800	9.608	0.100
265.900	-3.738	0.100
266.000	17.718	0.100
266.100	4.829	0.100
266.200	15.419	0.100
266.300	-8.933	0.100
266.400	15.158	0.100
266.500	13.043	0.100
266.600	6.316	0.100
266.700	2.860	0.100
266.800	6.172	0.100
266.900	12.051	0.100
267.000	22.631	0.100
267.100	-0.499	0.100
267.200	14.164	0.100
267.300	10.981	0.100
267.400	15.733	0.100
267.500	-1.810	0.100
267.600	12.309	0.100
267.700	9.437	0.100
267.800	12.638	0.100
267.900	-2.257	0.100
268.000	14.217	0.100
268.100	10.005	0.100
268.200	17.007	0.100
268.300	-1.889	0.100
268.400	-13.704	0.100
268.500	15.266	0.100
268.600	14.229	0.100
268.700	5.950	0.100
268.800	1.189	0.100
268.900	-1.243	0.100
269.000	4.343	0.100
269.100	15.819	0.100
269.200	4.834	0.100
269.300	8.752	0.100
269.400	-1.594	0.100
269.500	4.811	0.100
269.600	5.279	0.100
269.700	-1.543	0.100
269.800	-2.149	0.100
269.900	3.108	0.100
270.000	3.234	0.100
270.100	-3.658	0.100
270.200	-8.454	0.100
270.300	-5.858	0.100
270.400	5.596	0.100
270.500	12.240	0.100
270.600	-5.086	0.100
270.700	11.570	0.100
270.800	-2.277	0.100
270.900	-12.645	0.100
271.000	-13.429	0.100
271.100	3.784	0.100
271.200	25.306	0.100
271.300	-6.904	0.100
271.400	-12.330	0.100
271.500	9.998	0.100
271.600	12.638	0.100
271.700	0.943	0.100
271.800	6.168	0.100
271.900	11.899	0.100
272.000	-1.830	0.100
272.100	-8.349	0.100
272.200	-2.187	0.100
272.300	-2.290	0.100
272.400	9.057	0.100
272.500	7.555	0.100
272.600	-10.607	0.100
272.700	7.578	0.100
272.800	-2.081	0.100
272.900	6.077	0.100
273.000	13.739	0.100
273.100	11.249	0.100
273.200	-6.008	0.100
273.300	3.250	0.100
273.400	-0.979	0.100
273.500	0.510	0.100
273.600	9.108	0.100
273.700	-7.344	0.100
273.800	-6.255	0.100
273.900	-0.737	0.100
274.000	21.821	0.100
274.100	4.713	0.100
274.200	3.395	0.100
274.300	2.657	0.100
274.400	3.166	0.100
274.500	3.980	0.100
274.600	-6.174	0.100
274.700	10.883	0.100
274.800	4.371	0.100
274.900	-0.890	0.100
275.000	-6.303	0.100
275.100	7.943	0.100
275.200	10.023	0.100
275.300	-7.765	0.100
275.400	0.474	0.100
275.500	0.620	0.100
275.600	2.108	0.100
275.700	-10.011	0.100
275.800	-4.880	0.100
275.900	9.148	0.100
276.000	1.980	0.100
276.100	3.523	0.100
276.200	10.445	0.100
276.300	2.314	0.100
276.400	-6.639	0.100
276.500	-14.493	0.100
276.600	-4.005	0.100
276.700	0.628	0.100
276.800	5.637	0.100
276.900	-4.871	0.100
277.000	-3.971	0.100
277.100	5.127	0.100
277.200	0.971	0.100
277.300	-4.664	0.100
277.400	-11.512	0.100
277.500	4.785	0.100
277.600	10.239	0.100
277.700	0.024	0.100
277.800	-22.088	0.100
277.900	0.031	0.100
278.000	-4.695	0.100
278.100	-3.041	0.100
278.200	-13.221	0.100
278.300	-1.146	0.100
278.400	4.181	0.100
278.500	-0.073	0.100
278.600	5.676	0.100
278.700	-4.203	0.100
278.800	-3.950	0.100
278.900	0.496	0.100
279.000	-2.860	0.100
279.100	6.289	0.100
279.200	-2.349	0.100
279.300	-10.069	0.100
279.400	12.735	0.100
279.500	2.332	0.100
279.600	4.313	0.100
279.700	-3.353	0.100
279.800	-8.072	0.100
279.900	13.420	0.100
280.000	-6.721	0.100
280.100	1.661	0.100
280.200	-12.668	0.100
280.300	-7.264	0.100
280.400	-15.799	0.100
280.500	-8.847	0.100
280.600	-1.174	0.100
280.700	15.249	0.100
280.800	-2.109	0.100
280.900	-6.375	0.100
281.000	0.229	0.100
281.100	3.031	0.100
281.200	-7.296	0.100
281.300	-4.830	0.100
281.400	-0.009	0.100
281.500	-1.146	0.100
281.600	5.213	0.100
281.700	6.062	0.100
281.800	-12.248	0.100
281.900	-7.630	0.100
282.000	-3.838	0.100
282.100	-0.096	0.100
282.200	1.304	0.100
282.300	-2.375	0.100
282.400	8.708	0.100
282.500	-9.789	0.100
282.600	-7.210	0.100
282.700	-21.260	0.100
282.800	-6.281	0.100
282.900	0.874	0.100
283.000	6.086	0.100
283.100	-18.013	0.100
283.200	-7.304	0.100
283.300	0.074	0.100
283.400	-0.539	0.100
283.500	4.736	0.100
283.600	-1.497	0.100
283.700	-15.687	0.100
283.800	-6.053	0.100
283.900	-4.166	0.100
284.000	-16.426	0.100
284.100	-13.595	0.100
284.200	-5.729	0.100
284.300	-1.819	0.100
284.400	-9.865	0.100
284.500	-0.902	0.100
284.600	-14.098	0.100
284.700	0.263	0.100
284.800	-8.959	0.100
284.900	-0.429	0.100
285.000	-11.824	0.100
285.100	-12.229	0.100
285.200	-13.385	0.100
285.300	-6.580	0.100
285.400	-0.879	0.100
285.500	3.756	0.100
285.600	-11.906	0.100
285.700	-7.134	0.100
285.800	-3.004	0.100
285.900	-8.664	0.100
286.000	-2.769	0.100
286.100	-0.939	0.100
286.200	-8.590	0.100
286.300	-5.789	0.100
286.400	-9.226	0.100
286.500	4.353	0.100
286.600	3.067	0.100
286.700	-9.957	0.100
286.800	-12.502	0.100
286.900	-3.599	0.100
287.000	-15.718	0.100
287.100	-8.303	0.100
287.200	15.555	0.100
287.300	-7.071	0.100
287.400	-7.203	0.100
287.500	-8.754	0.100
287.600	-13.100	0.100
287.700	-16.138	0.100
287.800	-16.359	0.100
287.900	3.845	0.100
288.000	-1.606	0.100
288.100	-10.144	0.100
288.200	-8.737	0.100
288.300	-3.027	0.100
288.400	-13.002	0.100
288.500	-21.336	0.100
288.600	1.207	0.100
288.700	2.936	0.100
288.800	-6.473	0.100
288.900	2.930	0.100
289.000	1.560	0.100
289.100	-18.743	0.100
289.200	-13.629	0.100
289.300	-5.394	0.100
289.400	-12.997	0.100
289.500	-1.486	0.100
289.600	-9.073	0.100
289.700	-9.038	0.100
289.800	-6.537	0.100
289.900	-2.027	0.100
290.000	-7.085	0.100
290.100	-13.305	0.100
290.200	-5.473	0.100
290.300	2.041	0.100
290.400	7.008	0.100
290.500	-0.047	0.100
290.600	-10.269	0.100
290.700	-18.136	0.100
290.800	-10.687	0.100
290.900	-1.587	0.100
291.000	-7.709	0.100
291.100	-0.226	0.100
291.200	-16.567	0.100
291.300	-4.906	0.100
291.400	-12.024	0.100
291.500	0.657	0.100
291.600	0.862	0.100
291.700	-16.089	0.100
291.800	-2.124	0.100
291.900	-14.452	0.100
292.000	-13.888	0.100
292.100	-4.934	0.100
292.200	7.429	0.100
292.300	-14.676	0.100
292.400	-7.141	0.100
292.500	-25.714	0.100
292.600	-15.074	0.100
292.700	-1.963	0.100
292.800	9.730	0.100
292.900	3.597	0.100
293.000	-9.663	0.100
293.100	-11.858	0.100
293.200	-22.055	0.100
293.300	-4.066	0.100
293.400	-7.109	0.100
293.500	-5.418	0.100
293.600	-7.957	0.100
293.700	-0.458	0.100
293.800	-14.841	0.100
293.900	-2.753	0.100
294.000	-5.809	0.100
294.100	-8.964	0.100
294.200	-17.562	0.100
294.300	-6.937	0.100
294.400	-9.583	0.100
294.500	-2.604	0.100
294.600	-1.733	0.100
294.700	-12.865	0.100
294.800	-5.405	0.100
294.900	-4.031	0.100
295.000	-7.486	0.100
295.100	-5.821	0.100
295.200	-5.086	0.100
295.300	-6.905	0.100
295.400	-0.944	0.100
295.500	0.214	0.100
295.600	-1.865	0.100
295.700	-17.040	0.100
295.800	-13.546	0.100
295.900	-3.502	0.100
296.000	-10.827	0.100
296.100	-4.204	0.100
296.200	-2.086	0.100
296.300	-2.411	0.100
296.400	-12.312	0.100
296.500	-10.149	0.100
296.600	-11.725	0.100
296.700	-21.767	0.100
296.800	-16.471	0.100
296.900	-12.145	0.100
297.000	-11.084	0.100
297.100	-26.369	0.100
297.200	22.527	0.100
297.300	-4.609	0.100
297.400	-16.952	0.100
297.500	2.515	0.100
297.600	-16.284	0.100
297.700	2.682	0.100
297.800	-0.475	0.100
297.900	-18.982	0.100
298.000	-15.267	0.100
298.100	-13.991	0.100
298.200	-10.627	0.100
298.300	-11.946	0.100
298.400	-17.069	0.100
298.500	-8.501	0.100
298.600	-13.926	0.100
298.700	-9.111	0.100
298.800	-15.206	0.100
298.900	-25.015	0.100
299.000	-5.313	0.100
299.100	-7.632	0.100
299.200	-3.027	0.100
299.300	-23.242	0.100
299.400	-21.326	0.100
299.500	-9.419	0.100
299.600	-5.726	0.100
299.700	-12.579	0.100
299.800	-20.852	0.100
299.900	-9.994	0.100
300.000	-10.911	0.100
300.100	-10.762	0.100
300.200	-3.617	0.100
300.300	-8.987	0.100
300.400	-10.636	0.100
300.500	-9.375	0.100
300.600	-10.566	0.100
300.700	-6.447	0.100
300.800	-9.490	0.100
300.900	-10.364	0.100
301.000	-30.778	0.100
301.100	-6.665	0.100
301.200	4.928	0.100
301.300	-8.506	0.100
301.400	-11.069	0.100
301.500	-2.521	0.100
301.600	-15.223	0.100
301.700	-14.363	0.100
301.800	-7.278	0.100
301.900	-18.151	0.100
302.000	-7.842	0.100
302.100	-5.607	0.100
302.200	-1.166	0.100
302.300	-8.595	0.100
302.400	-6.916	0.100
302.500	-24.712	0.100
302.600	-5.503	0.100
302.700	-4.256	0.100
302.800	-12.082	0.100
302.900	-9.266	0.100
303.000	-17.907	0.100
303.100	-6.422	0.100
303.200	-11.863	0.100
303.300	-8.434	0.100
303.400	-5.907	0.100
303.500	-19.043	0.100
303.600	-12.309	0.100
303.700	-1.541	0.100
303.800	-6.787	0.100
303.900	-7.109	0.100
304.000	-0.487	0.100
304.100	-17.680	0.100
304.200	-19.483	0.100
304.300	-22.518	0.100
304.400	5.308	0.100
304.500	-4.359	0.100
304.600	-11.355	0.100
304.700	-14.288	0.100
304.800	-2.090	0.100
304.900	-4.469	0.100
305.000	-26.610	0.100
305.100	-2.122	0.100
305.200	-18.384	0.100
305.300	-23.279	0.100
305.400	-10.416	0.100
305.500	-2.748	0.100
305.600	-16.080	0.100
305.700	-8.555	0.100
305.800	-5.170	0.100
305.900	-16.391	0.100
306.000	-20.614	0.100
306.100	-13.316	0.100
306.200	-18.008	0.100
306.300	-18.940	0.100
306.400	-4.039	0.100
306.500	-7.995	0.100
306.600	-18.956	0.100
306.700	-7.138	0.100
306.800	-10.986	0.100
306.900	-0.234	0.100
307.000	-7.026	0.100
307.100	-24.940	0.100
307.200	4.446	0.100
307.300	-10.951	0.100
307.400	-8.867	0.100
307.500	-4.039	0.100
307.600	-18.352	0.100
307.700	-8.182	0.100
307.800	-19.213	0.100
307.900	-21.704	0.100
308.000	-9.813	0.100
308.100	-11.575	0.100
308.200	-16.587	0.100
308.300	-10.636	0.100
308.400	-12.185	0.100
308.500	-0.746	0.100
308.600	-0.505	0.100
308.700	-11.805	0.100
308.800	-9.787	0.100
308.900	-4.453	0.100
309.000	-10.620	0.100
309.100	-22.100	0.100
309.200	-5.263	0.100
309.300	-23.886	0.100
309.400	-9.119	0.100
309.500	-16.771	0.100
309.600	-10.681	0.100
309.700	-7.863	0.100
309.800	-11.257	0.100
309.900	-11.493	0.100
310.000	-15.983	0.100
310.100	-5.438	0.100
310.200	-20.364	0.100
310.300	-8.429	0.100
310.400	-12.494	0.100
310.500	-7.235	0.100
310.600	-14.587	0.100
310.700	-4.414	0.100
310.800	-15.485	0.100
310.900	-4.716	0.100
311.000	-7.223	0.100
311.100	-22.095	0.100
311.200	-10.272	0.100
311.300	-16.713	0.100
311.400	-0.504	0.100
311.500	-2.363	0.100
311.600	-8.037	0.100
311.700	-7.453	0.100
311.800	-14.938	0.100
311.900	-12.223	0.100
312.000	-20.774	0.100
312.100	-8.259	0.100
312.200	-9.962	0.100
312.300	-16.258	0.100
312.400	-13.158	0.100
312.500	-9.547	0.100
312.600	-9.844	0.100
312.700	-12.373	0.100
312.800	-15.294	0.100
312.900	-9.711	0.100
313.000	-2.776	0.100
313.100	-8.831	0.100
313.200	-7.926	0.100
313.300	-8.877	0.100
313.400	-8.814	0.100
313.500	-17.010	0.100
313.600	-12.534	0.100
313.700	-10.316	0.100
313.800	-24.022	0.100
313.900	-8.260	0.100
314.000	-15.664	0.100
314.100	-17.118	0.100
314.200	-22.029	0.100
314.300	-1.646	0.100
314.400	-16.229	0.100
314.500	-2.513	0.100
314.600	-22.570	0.100
314.700	-17.029	0.100
314.800	-16.793	0.100
314.900	-18.758	0.100
315.000	-2.484	0.100
315.100	-8.542	0.100
315.200	-0.959	0.100
315.300	-4.598	0.100
315.400	-15.917	0.100
315.500	-12.760	0.100
315.600	-13.178	0.100
315.700	-2.904	0.100
315.800	-32.508	0.100
315.900	-3.910	0.100
316.000	-16.638	0.100
316.100	-22.813	0.100
316.200	-11.483	0.100
316.300	-9.064	0.100
316.400	2.038	0.100
316.500	-10.733	0.100
316.600	-24.818	0.100
316.700	-14.239	0.100
316.800	-18.599	0.100
316.900	-8.360	0.100
317.000	-5.667	0.100
317.100	-15.982	0.100
317.200	-6.001	0.100
317.300	-14.082	0.100
317.400	-18.862	0.100
317.500	-12.432	0.100
317.600	-4.238	0.100
317.700	-7.558	0.100
317.800	-25.103	0.100
317.900	-10.448	0.100
318.000	-11.860	0.100
318.100	-4.316	0.100
318.200	-21.100	0.100
318.300	-25.100	0.100
318.400	-21.047	0.100
318.500	-8.000	0.100
318.600	-8.736	0.100
318.700	-18.896	0.100
318.800	-20.976	0.100
318.900	-6.960	0.100
319.000	-18.747	0.100
319.100	-12.231	0.100
319.200	-28.273	0.100
319.300	-16.618	0.100
319.400	-11.614	0.100
319.500	-0.873	0.100
319.600	-9.082	0.100
319.700	-5.104	0.100
319.800	-5.112	0.100
319.900	-9.605	0.100
320.000	-18.349	0.100
320.100	-10.468	0.100
320.200	-6.008	0.100
320.300	-12.813	0.100
320.400	-13.564	0.100
320.500	-23.208	0.100
320.600	-22.022	0.100
320.700	-5.156	0.100
320.800	-3.433	0.100
320.900	-15.732	0.100
321.000	-6.550	0.100
321.100	-8.768	0.100
321.200	-10.270	0.100
321.300	-18.162	0.100
321.400	-23.961	0.100
321.500	-4.938	0.100
321.600	-15.051	0.100
321.700	-12.056	0.100
321.800	-10.685	0.100
321.900	-6.746	0.100
322.000	-13.886	0.100
322.100	-24.060	0.100
322.200	-13.735	0.100
322.300	-23.820	0.100
322.400	-6.398	0.100
322.500	-15.459	0.100
322.600	-29.302	0.100
322.700	-3.358	0.100
322.800	-4.006	0.100
322.900	-8.490	0.100
323.000	-20.685	0.100
323.100	-13.129	0.100
323.200	-8.923	0.100
323.300	-16.681	0.100
323.400	-7.252	0.100
323.500	-15.504	0.100
323.600	-19.761	0.100
323.700	-23.044	0.100
323.800	-18.548	0.100
323.900	-16.603	0.100
324.000	8.263	0.100
324.100	-3.212	0.100
324.200	-16.517	0.100
324.300	-15.865	0.100
324.400	-12.784	0.100
324.500	-13.488	0.100
324.600	-2.927	0.100
324.700	-6.039	0.100
324.800	-26.774	0.100
324.900	-21.431	0.100
325.000	-15.836	0.100
325.100	-1.857	0.100
325.200	-9.570	0.100
325.300	-18.014	0.100
325.400	-16.351	0.100
325.500	-10.537	0.100
325.600	-16.707	0.100
325.700	-0.683	0.100
325.800	-12.235	0.100
325.900	-15.764	0.100
326.000	-24.143	0.100
326.100	-5.352	0.100
326.200	-12.553	0.100
326.300	-7.183	0.100
326.400	-8.906	0.100
326.500	-10.302	0.100
326.600	-24.707	0.100
326.700	-20.067	0.100
326.800	-16.273	0.100
326.900	-17.243	0.100
327.000	1.127	0.100
327.100	-7.407	0.100
327.200	-17.732	0.100
327.300	-13.025	0.100
327.400	-13.393	0.100
327.500	-16.865	0.100
327.600	-6.812	0.100
327.700	-10.943	0.100
327.800	-16.836	0.100
327.900	-10.169	0.100
328.000	-11.783	0.100
328.100	-7.210	0.100
328.200	-10.574	0.100
328.300	-15.226	0.100
328.400	-9.755	0.100
328.500	-9.465	0.100
328.600	-10.909	0.100
328.700	-23.532	0.100
328.800	-23.904	0.100
328.900	-21.644	0.100
329.000	-7.695	0.100
329.100	-12.465	0.100
329.200	-21.713	0.100
329.300	-10.324	0.100
329.400	-18.786	0.100
329.500	-9.199	0.100
329.600	-19.106	0.100
329.700	-7.796	0.100
329.800	-20.788	0.100
329.900	-4.974	0.100
330.000	-13.370	0.100
330.100	-23.432	0.100
330.200	-17.713	0.100
330.300	-25.698	0.100
330.400	-11.245	0.100
330.500	-24.720	0.100
330.600	-8.124	0.100
330.700	-8.849	0.100
330.800	-13.177	0.100
330.900	-11.637	0.100
331.000	-11.509	0.100
331.100	-8.999	0.100
331.200	3.272	0.100
331.300	-17.610	0.100
331.400	-17.406	0.100
331.500	-12.770	0.100
331.600	-0.927	0.100
331.700	-1.125	0.100
331.800	-4.141	0.100
331.900	-6.628	0.100
332.000	3.957	0.100
332.100	1.368	0.100
332.200	-1.506	0.100
332.300	7.340	0.100
332.400	-4.658	0.100
332.500	-14.247	0.100
332.600	7.763	0.100
332.700	0.295	0.100
332.800	-0.643	0.100
332.900	-10.715	0.100
333.000	3.260	0.100
333.100	7.454	0.100
333.200	-12.002	0.100
333.300	-4.391	0.100
333.400	-8.397	0.100
333.500	-1.630	0.100
333.600	0.027	0.100
333.700	-0.238	0.100
333.800	-2.543	0.100
333.900	-11.587	0.100
334.000	-2.452	0.100
334.100	1.540	0.100
334.200	-4.963	0.100
334.300	3.464	0.100
334.400	-8.524	0.100
334.500	5.553	0.100
334.600	2.915	0.100
334.700	0.021	0.100
334.800	-2.073	0.100
334.900	-10.531	0.100
335.000	-7.564	0.100
335.100	-10.357	0.100
335.200	1.480	0.100
335.300	12.391	0.100
335.400	3.123	0.100
335.500	7.512	0.100
335.600	-6.188	0.100
335.700	1.871	0.100
335.800	2.211	0.100
335.900	2.200	0.100
336.000	2.755	0.100
336.100	-2.766	0.100
336.200	3.151	0.100
336.300	9.618	0.100
336.400	2.953	0.100
336.500	-14.179	0.100
336.600	1.662	0.100
336.700	0.370	0.100
336.800	4.451	0.100
336.900	5.364	0.100
337.000	-1.013	0.100
337.100	-6.991	0.100
337.200	-11.874	0.100
337.300	-3.635	0.100
337.400	-3.836	0.100
337.500	1.857	0.100
337.600	4.258	0.100
337.700	-14.162	0.100
337.800	8.079	0.100
337.900	6.997	0.100
338.000	-7.966	0.100
338.100	7.557	0.100
338.200	10.182	0.100
338.300	6.741	0.100
338.400	-6.475	0.100
338.500	14.562	0.100
338.600	11.280	0.100
338.700	7.670	0.100
338.800	8.314	0.100
338.900	2.107	0.100
339.000	7.429	0.100
339.100	6.140	0.100
339.200	5.325	0.100
339.300	1.819	0.100
339.400	7.725	0.100
339.500	2.806	0.100
339.600	6.460	0.100
339.700	3.946	0.100
339.800	-1.020	0.100
339.900	6.460	0.100
340.000	10.423	0.100
340.100	12.526	0.100
340.200	14.427	0.100
340.300	-6.905	0.100
340.400	14.487	0.100
340.500	1.874	0.100
340.600	6.566	0.100
340.700	7.561	0.100
340.800	3.169	0.100
340.900	13.044	0.100
341.000	9.007	0.100
341.100	19.829	0.100
341.200	5.904	0.100
341.300	-3.051	0.100
341.400	5.484	0.100
341.500	8.453	0.100
341.600	16.694	0.100
341.700	6.793	0.100
341.800	1.104	0.100
341.900	19.021	0.100
342.000	15.609	0.100
342.100	20.902	0.100
342.200	18.095	0.100
342.300	9.016	0.100
342.400	-3.387	0.100
342.500	15.681	0.100
342.600	19.164	0.100
342.700	-2.181	0.100
342.800	23.278	0.100
342.900	18.627	0.100
343.000	6.106	0.100
343.100	3.850	0.100
343.200	10.621	0.100
343.300	9.661	0.100
343.400	-1.082	0.100
343.500	22.507	0.100
343.600	14.016	0.100
343.700	8.205	0.100
343.800	19.176	0.100
343.900	22.408	0.100
344.000	3.180	0.100
344.100	17.849	0.100
344.200	8.573	0.100
344.300	4.334	0.100
344.400	13.395	0.100
344.500	14.392	0.100
344.600	7.765	0.100
344.700	4.699	0.100
344.800	18.594	0.100
344.900	16.227	0.100
345.000	14.209	0.100
345.100	27.920	0.100
345.200	17.660	0.100
345.300	13.840	0.100
345.400	15.079	0.100
345.500	21.450	0.100
345.600	28.708	0.100
345.700	16.567	0.100
345.800	17.205	0.100
345.900	22.352	0.100
346.000	22.900	0.100
346.100	13.756	0.100
346.200	4.860	0.100
346.300	1.515	0.100
346.400	32.370	0.100
346.500	23.032	0.100
346.600	19.673	0.100
346.700	22.691	0.100
346.800	15.468	0.100
346.900	22.826	0.100
347.000	21.140	0.100
347.100	15.972	0.100
347.200	6.060	0.100
347.300	16.693	0.100
347.400	19.411	0.100
347.500	20.533	0.100
347.600	13.028	0.100
347.700	20.047	0.100
347.800	26.835	0.100
347.900	31.234	0.100
348.000	16.828	0.100
348.100	23.185	0.100
348.200	27.897	0.100
348.300	34.628	0.100
348.400	9.327	0.100
348.500	12.191	0.100
348.600	20.824	0.100
348.700	25.932	0.100
348.800	20.104	0.100
348.900	16.049	0.100
349.000	27.091	0.100
349.100	26.818	0.100
349.200	26.931	0.100
349.300	12.919	0.100
349.400	29.051	0.100
349.500	31.007	0.100
349.600	26.881	0.100
349.700	17.617	0.100
349.800	27.118	0.100
349.900	41.350	0.100
350.000	13.489	0.100
350.100	18.802	0.100
350.200	31.978	0.100
350.300	12.500	0.100
350.400	19.628	0.100
350.500	25.679	0.100
350.600	22.704	0.100
350.700	34.277	0.100
350.800	24.318	0.100
350.900	32.074	0.100
351.000	20.235	0.100
351.100	35.059	0.100
351.200	29.383	0.100
351.300	20.718	0.100
351.400	37.227	0.100
351.500	23.812	0.100
351.600	22.717	0.100
351.700	19.193	0.100
351.800	31.394	0.100
351.900	25.104	0.100
352.000	21.209	0.100
352.100	22.861	0.100
352.200	41.235	0.100
352.300	36.238	0.100
352.400	34.081	0.100
352.500	22.346	0.100
352.600	23.574	0.100
352.700	32.174	0.100
352.800	41.344	0.100
352.900	29.723	0.100
353.000	35.717	0.100
353.100	37.196	0.100
353.200	23.258	0.100
353.300	32.369	0.100
353.400	25.993	0.100
353.500	30.756	0.100
353.600	43.820	0.100
353.700	38.111	0.100
353.800	35.749	0.100
353.900	26.593	0.100
354.000	40.913	0.100
354.100	26.042	0.100
354.200	31.611	0.100
354.300	35.559	0.100
354.400	34.700	0.100
354.500	20.870	0.100
354.600	31.391	0.100
354.700	45.252	0.100
354.800	41.287	0.100
354.900	16.687	0.100
355.000	33.957	0.100
355.100	43.475	0.100
355.200	26.154	0.100
355.300	24.003	0.100
355.400	37.631	0.100
355.500	41.554	0.100
355.600	33.610	0.100
355.700	29.240	0.100
355.800	26.717	0.100
355.900	36.675	0.100
356.000	28.726	0.100
356.100	18.615	0.100
356.200	37.857	0.100
356.300	32.711	0.100
356.400	28.518	0.100
356.500	43.683	0.100
356.600	44.343	0.100
356.700	36.106	0.100
356.800	45.811	0.100
356.900	24.615	0.100
357.000	41.133	0.100
357.100	40.435	0.100
357.200	32.809	0.100
357.300	40.636	0.100
357.400	45.118	0.100
357.500	35.646	0.100
357.600	34.121	0.100
357.700	48.138	0.100
357.800	48.135	0.100
357.900	29.959	0.100
358.000	34.679	0.100
358.100	31.777	0.100
358.200	40.673	0.100
358.300	24.725	0.100
358.400	40.369	0.100
358.500	34.397	0.100
358.600	41.819	0.100
358.700	42.716	0.100
358.800	54.650	0.100
358.900	33.926	0.100
359.000	41.868	0.100
359.100	38.039	0.100
359.200	39.459	0.100
359.300	34.996	0.100
359.400	47.159	0.100
359.500	31.510	0.100
359.600	35.335	0.100
359.700	28.274	0.100
359.800	37.366	0.100
359.900	56.776	0.100
360.000	49.315	0.100
360.100	44.087	0.100
360.200	34.385	0.100
360.300	50.566	0.100
360.400	20.291	0.100
360.500	27.079	0.100
360.600	45.517	0.100
360.700	46.691	0.100
360.800	44.815	0.100
360.900	27.431	0.100
361.000	34.874	0.100
361.100	31.840	0.100
361.200	47.945	0.100
361.300	45.572	0.100
361.400	37.979	0.100
361.500	34.975	0.100
361.600	25.795	0.100
361.700	46.070	0.100
361.800	34.982	0.100
361.900	33.525	0.100
362.000	44.505	0.100
362.100	59.862	0.100
362.200	42.258	0.100
362.300	42.849	0.100
362.400	47.674	0.100
362.500	35.485	0.100
362.600	49.624	0.100
362.700	43.335	0.100
362.800	44.660	0.100
362.900	34.659	0.100
363.000	43.716	0.100
363.100	38.215	0.100
363.200	46.357	0.100
363.300	42.757	0.100
363.400	42.770	0.100
363.500	53.456	0.100
363.600	42.747	0.100
363.700	48.405	0.100
363.800	38.051	0.100
363.900	45.348	0.100
364.000	45.264	0.100
364.100	38.217	0.100
364.200	40.156	0.100
364.300	47.240	0.100
364.400	51.281	0.100
364.500	58.372	0.100
364.600	45.897	0.100
364.700	47.709	0.100
364.800	41.799	0.100
364.900	43.720	0.100
365.000	33.152	0.100
365.100	36.178	0.100
365.200	46.185	0.100
365.300	50.936	0.100
365.400	35.870	0.100
365.500	54.573	0.100
365.600	43.346	0.100
365.700	51.127	0.100
365.800	50.047	0.100
365.900	44.680	0.100
366.000	48.512	0.100
366.100	40.640	0.100
366.200	53.411	0.100
366.300	58.154	0.100
366.400	43.164	0.100
366.500	38.741	0.100
366.600	52.533	0.100
366.700	48.805	0.100
366.800	52.208	0.100
366.900	49.338	0.100
367.000	40.314	0.100
367.100	39.868	0.100
367.200	45.081	0.100
367.300	46.309	0.100
367.400	51.658	0.100
367.500	32.439	0.100
367.600	38.990	0.100
367.700	55.637	0.100
367.800	47.726	0.100
367.900	37.440	0.100
368.000	38.638	0.100
368.100	36.330	0.100
368.200	44.461	0.100
368.300	49.677	0.100
368.400	45.296	0.100
368.500	46.113	0.100
368.600	33.292	0.100
368.700	49.711	0.100
368.800	39.261	0.100
368.900	64.984	0.100
369.000	55.122	0.100
369.100	55.696	0.100
369.200	54.316	0.100
369.300	36.842	0.100
369.400	32.171	0.100
369.500	46.081	0.100
369.600	54.438	0.100
369.700	49.233	0.100
369.800	53.598	0.100
369.900	56.043	0.100
370.000	42.005	0.100
370.100	40.256	0.100
370.200	34.555	0.100
370.300	47.868	0.100
370.400	40.567	0.100
370.500	46.062	0.100
370.600	44.090	0.100
370.700	44.410	0.100
370.800	41.632	0.100
370.900	55.827	0.100
371.000	59.158	0.100
371.100	50.119	0.100
371.200	52.312	0.100
371.300	49.913	0.100
371.400	41.027	0.100
371.500	44.983	0.100
371.600	57.155	0.100
371.700	56.030	0.100
371.800	57.705	0.100
371.900	49.889	0.100
372.000	51.253	0.100
372.100	42.535	0.100
372.200	52.971	0.100
372.300	55.692	0.100
372.400	66.558	0.100
372.500	45.363	0.100
372.600	46.006	0.100
372.700	47.710	0.100
372.800	47.320	0.100
372.900	47.399	0.100
373.000	47.053	0.100
373.100	52.516	0.100
373.200	42.446	0.100
373.300	52.545	0.100
373.400	50.571	0.100
373.500	51.356	0.100
373.600	51.489	0.100
373.700	51.098	0.100
373.800	54.511	0.100
373.900	48.279	0.100
374.000	48.521	0.100
374.100	35.203	0.100
374.200	52.478	0.100
374.300	47.246	0.100
374.400	49.654	0.100
374.500	37.398	0.100
374.600	55.142	0.100
374.700	53.459	0.100
374.800	49.493	0.100
374.900	50.117	0.100
375.000	49.539	0.100
375.100	58.174	0.100
375.200	51.485	0.100
375.300	49.838	0.100
375.400	32.833	0.100
375.500	55.921	0.100
375.600	51.141	0.100
375.700	45.678	0.100
375.800	38.545	0.100
375.900	38.487	0.100
376.000	50.579	0.100
376.100	49.505	0.100
376.200	45.926	0.100
376.300	65.649	0.100
376.400	57.992	0.100
376.500	49.234	0.100
376.600	40.245	0.100
376.700	45.344	0.100
376.800	49.430	0.100
376.900	40.263	0.100
377.000	46.302	0.100
377.100	54.262	0.100
377.200	59.289	0.100
377.300	39.567	0.100
377.400	48.480	0.100
377.500	51.886	0.100
377.600	56.640	0.100
377.700	55.320	0.100
377.800	40.073	0.100
377.900	53.851	0.100
378.000	40.616	0.100
378.100	54.032	0.100
378.200	55.507	0.100
378.300	39.451	0.100
378.400	52.938	0.100
378.500	48.857	0.100
378.600	49.124	0.100
378.700	62.669	0.100
378.800	46.092	0.100
378.900	50.638	0.100
379.000	46.568	0.100
379.100	44.993	0.100
379.200	39.600	0.100
379.300	57.446	0.100
379.400	61.239	0.100
379.500	57.002	0.100
379.600	50.192	0.100
379.700	51.000	0.100
379.800	56.517	0.100
379.900	49.079	0.100
380.000	55.754	0.100
380.100	43.700	0.100
380.200	51.675	0.100
380.300	56.031	0.100
380.400	60.320	0.100
380.500	51.802	0.100
380.600	48.750	0.100
380.700	46.720	0.100
380.800	54.347	0.100
380.900	52.872	0.100
381.000	49.084	0.100
381.100	46.237	0.100
381.200	44.274	0.100
381.300	55.484	0.100
381.400	48.229	0.100
381.500	50.021	0.100
381.600	55.035	0.100
381.700	57.532	0.100
381.800	61.751	0.100
381.900	48.273	0.100
382.000	47.523	0.100
382.100	45.604	0.100
382.200	48.892	0.100
382.300	52.487	0.100
382.400	49.118	0.100
382.500	52.680	0.100
382.600	51.552	0.100
382.700	36.238	0.100
382.800	23.059	0.100
382.900	57.725	0.100
383.000	60.400	0.100
383.100	53.928	0.100
383.200	49.924	0.100
383.300	48.946	0.100
383.400	65.036	0.100
383.500	56.988	0.100
383.600	59.882	0.100
383.700	60.466	0.100
383.800	44.402	0.100
383.900	44.398	0.100
384.000	54.564	0.100
384.100	45.091	0.100
384.200	45.722	0.100
384.300	51.365	0.100
384.400	45.989	0.100
384.500	51.514	0.100
384.600	44.560	0.100
384.700	46.936	0.100
384.800	58.271	0.100
384.900	49.200	0.100
385.000	56.298	0.100
385.100	63.288	0.100
385.200	62.945	0.100
385.300	49.510	0.100
385.400	48.271	0.100
385.500	50.675	0.100
385.600	55.916	0.100
385.700	30.491	0.100
385.800	48.926	0.100
385.900	71.448	0.100
386.000	53.093	0.100
386.100	44.671	0.100
386.200	49.406	0.100
386.300	53.369	0.100
386.400	52.443	0.100
386.500	53.514	0.100
386.600	57.823	0.100
386.700	38.418	0.100
386.800	43.475	0.100
386.900	45.825	0.100
387.000	61.398	0.100
387.100	55.990	0.100
387.200	49.427	0.100
387.300	52.811	0.100
387.400	57.063	0.100
387.500	51.279	0.100
387.600	31.107	0.100
387.700	62.667	0.100
387.800	50.876	0.100
387.900	60.162	0.100
388.000	55.279	0.100
388.100	49.447	0.100
388.200	41.902	0.100
388.300	45.869	0.100
388.400	68.817	0.100
388.500	62.004	0.100
388.600	56.674	0.100
388.700	57.612	0.100
388.800	52.253	0.100
388.900	46.401	0.100
389.000	62.865	0.100
389.100	57.934	0.100
389.200	57.014	0.100
389.300	43.340	0.100
389.400	61.794	0.100
389.500	53.758	0.100
389.600	52.599	0.100
389.700	43.795	0.100
389.800	41.868	0.100
389.900	58.436	0.100
390.000	58.375	0.100
390.100	47.385	0.100
390.200	61.045	0.100
390.300	52.898	0.100
390.400	46.401	0.100
390.500	49.404	0.100
390.600	55.521	0.100
390.700	51.866	0.100
390.800	37.568	0.100
390.900	48.140	0.100
391.000	52.797	0.100
391.100	49.930	0.100
391.200	54.215	0.100
391.300	37.831	0.100
391.400	58.659	0.100
391.500	49.987	0.100
391.600	47.100	0.100
391.700	28.316	0.100
391.800	37.311	0.100
391.900	56.042	0.100
392.000	43.785	0.100
392.100	37.242	0.100
392.200	46.138	0.100
392.300	43.987	0.100
392.400	45.782	0.100
392.500	32.487	0.100
392.600	52.608	0.100
392.700	26.628	0.100
392.800	20.096	0.100
392.900	34.429	0.100
393.000	39.380	0.100
393.100	45.690	0.100
393.200	35.402	0.100
393.300	31.959	0.100
393.400	33.453	0.100
393.500	23.455	0.100
393.600	26.314	0.100
393.700	36.816	0.100
393.800	30.451	0.100
393.900	27.922	0.100
394.000	40.283	0.100
394.100	28.355	0.100
394.200	22.343	0.100
394.300	27.446	0.100
394.400	26.105	0.100
394.500	21.048	0.100
394.600	40.766	0.100
394.700	34.779	0.100
394.800	37.495	0.100
394.900	35.844	0.100
395.000	32.355	0.100
395.100	34.099	0.100
395.200	24.040	0.100
395.300	24.333	0.100
395.400	26.724	0.100
395.500	23.709	0.100
395.600	27.272	0.100
395.700	23.099	0.100
395.800	29.447	0.100
395.900	32.159	0.100
396.000	21.105	0.100
396.100	25.164	0.100
396.200	7.831	0.100
396.300	32.073	0.100
396.400	17.994	0.100
396.500	26.320	0.100
396.600	24.074	0.100
396.700	30.523	0.100
396.800	18.532	0.100
396.900	28.547	0.100
397.000	24.195	0.100
397.100	31.052	0.100
397.200	19.757	0.100
397.300	35.568	0.100
397.400	32.806	0.100
397.500	19.005	0.100
397.600	21.583	0.100
397.700	27.905	0.100
397.800	15.161	0.100
397.900	31.546	0.100
398.000	29.478	0.100
398.100	28.067	0.100
398.200	13.750	0.100
398.300	20.633	0.100
398.400	22.257	0.100
398.500	22.940	0.100
398.600	22.101	0.100
398.700	25.336	0.100
398.800	25.423	0.100
398.900	14.797	0.100
399.000	18.779	0.100
399.100	16.973	0.100
399.200	15.638	0.100
399.300	25.095	0.100
399.400	30.266	0.100
399.500	29.226	0.100
399.600	26.536	0.100
399.700	18.316	0.100
399.800	16.302	0.100
399.900	23.006	0.100
400.000	12.514	0.100
400.100	18.986	0.100
400.200	21.410	0.100
400.300	18.962	0.100
400.400	23.403	0.100
400.500	11.827	0.100
400.600	15.235	0.100
400.700	13.069	0.100
400.800	14.852	0.100
400.900	29.044	0.100
401.000	23.430	0.100
401.100	32.623	0.100
401.200	20.429	0.100
401.300	16.394	0.100
401.400	9.793	0.100
401.500	24.281	0.100
401.600	20.053	0.100
401.700	9.490	0.100
401.800	30.687	0.100
401.900	14.807	0.100
402.000	19.394	0.100
402.100	15.683	0.100
402.200	13.538	0.100
402.300	15.787	0.100
402.400	15.755	0.100
402.500	24.065	0.100
402.600	15.463	0.100
402.700	22.428	0.100
402.800	29.521	0.100
402.900	9.620	0.100
403.000	7.699	0.100
403.100	9.882	0.100
403.200	25.024	0.100
403.300	1.987	0.100
403.400	4.664	0.100
403.500	29.185	0.100
403.600	20.685	0.100
403.700	22.201	0.100
403.800	-2.357	0.100
403.900	22.707	0.100
404.000	13.642	0.100
404.100	3.290	0.100
404.200	3.953	0.100
404.300	16.446	0.100
404.400	21.903	0.100
404.500	15.692	0.100
404.600	20.111	0.100
404.700	7.882	0.100
404.800	20.933	0.100
404.900	13.296	0.100
405.000	14.674	0.100
405.100	15.060	0.100
405.200	11.643	0.100
405.300	3.353	0.100
405.400	35.680	0.100
405.500	15.217	0.100
405.600	13.573	0.100
405.700	16.227	0.100
405.800	16.530	0.100
405.900	14.409	0.100
406.000	12.704	0.100
406.100	6.706	0.100
406.200	12.301	0.100
406.300	4.978	0.100
406.400	6.186	0.100
406.500	11.850	0.100
406.600	-4.572	0.100
406.700	13.021	0.100
406.800	9.047	0.100
406.900	17.393	0.100
407.000	26.902	0.100
407.100	9.663	0.100
407.200	17.573	0.100
407.300	5.432	0.100
407.400	10.051	0.100
407.500	9.243	0.100
407.600	7.555	0.100
407.700	13.340	0.100
407.800	9.195	0.100
407.900	10.081	0.100
408.000	17.266	0.100
408.100	12.788	0.100
408.200	15.696	0.100
408.300	20.619	0.100
408.400	2.210	0.100
408.500	13.379	0.100
408.600	14.856	0.100
408.700	1.110	0.100
408.800	13.760	0.100
408.900	10.678	0.100
409.000	2.639	0.100
409.100	11.807	0.100
409.200	12.867	0.100
409.300	6.828	0.100
409.400	10.276	0.100
409.500	16.176	0.100
409.600	6.002	0.100
409.700	5.749	0.100
409.800	5.248	0.100
409.900	18.926	0.100
410.000	2.354	0.100
410.100	23.346	0.100
410.200	-2.210	0.100
410.300	5.489	0.100
410.400	4.759	0.100
410.500	-1.279	0.100
410.600	9.517	0.100
410.700	14.817	0.100
410.800	3.422	0.100
410.900	-4.434	0.100
411.000	14.022	0.100
411.100	13.356	0.100
411.200	11.286	0.100
411.300	21.109	0.100
411.400	-0.257	0.100
411.500	4.178	0.100
411.600	10.564	0.100
411.700	17.603	0.100
411.800	8.817	0.100
411.900	5.417	0.100
412.000	-2.319	0.100
412.100	15.086	0.100
412.200	16.958	0.100
412.300	9.444	0.100
412.400	-9.672	0.100
412.500	14.766	0.100
412.600	2.023	0.100
412.700	8.930	0.100
412.800	3.485	0.100
412.900	3.352	0.100
413.000	0.033	0.100
413.100	-7.253	0.100
413.200	14.582	0.100
413.300	-1.143	0.100
413.400	11.300	0.100
413.500	1.009	0.100
413.600	6.949	0.100
413.700	0.648	0.100
413.800	-0.987	0.100
413.900	12.373	0.100
414.000	12.138	0.100
414.100	-1.687	0.100
414.200	0.666	0.100
414.300	2.085	0.100
414.400	5.585	0.100
414.500	-1.946	0.100
414.600	9.139	0.100
414.700	14.219	0.100
414.800	4.051	0.100
414.900	12.621	0.100
415.000	9.011	0.100
415.100	-8.500	0.100
415.200	6.096	0.100
415.300	22.944	0.100
415.400	-3.093	0.100
415.500	-12.082	0.100
415.600	4.497	0.100
415.700	11.003	0.100
415.800	16.733	0.100
415.900	17.821	0.100
416.000	7.727	0.100
416.100	-7.212	0.100
416.200	-8.913	0.100
416.300	0.554	0.100
416.400	3.641	0.100
416.500	18.246	0.100
416.600	-7.466	0.100
416.700	-1.272	0.100
416.800	7.087	0.100
416.900	10.716	0.100
417.000	-3.800	0.100
417.100	-8.380	0.100
417.200	6.097	0.100
417.300	16.228	0.100
417.400	2.535	0.100
417.500	-8.069	0.100
417.600	-1.338	0.100
417.700	11.582	0.100
417.800	-3.329	0.100
417.900	-0.456	0.100
418.000	4.894	0.100
418.100	-3.093	0.100
418.200	1.179	0.100
418.300	2.752	0.100
418.400	-4.584	0.100
418.500	3.050	0.100
418.600	-13.200	0.100
418.700	-0.510	0.100
418.800	-5.334	0.100
418.900	-13.958	0.100
419.000	10.297	0.100
419.100	5.291	0.100
419.200	12.801	0.100
419.300	-5.027	0.100
419.400	0.982	0.100
419.500	-1.974	0.100
419.600	0.398	0.100
419.700	9.014	0.100
419.800	-9.065	0.100
419.900	-5.940	0.100
420.000	-13.540	0.100
420.100	5.719	0.100
420.200	8.554	0.100
420.300	-6.499	0.100
420.400	-5.857	0.100
420.500	-4.062	0.100
420.600	-8.067	0.100
420.700	-0.919	0.100
420.800	2.699	0.100
420.900	-7.112	0.100
421.000	-13.221	0.100
421.100	-18.812	0.100
421.200	2.092	0.100
421.300	3.881	0.100
421.400	3.197	0.100
421.500	2.276	0.100
421.600	13.926	0.100
421.700	1.842	0.100
421.800	-3.639	0.100
421.900	-7.146	0.100
422.000	6.424	0.100
422.100	4.337	0.100
422.200	-16.333	0.100
422.300	0.093	0.100
422.400	5.323	0.100
422.500	2.910	0.100
422.600	-2.680	0.100
422.700	-2.963	0.100
422.800	-4.813	0.100
422.900	-8.742	0.100
423.000	3.298	0.100
423.100	-0.741	0.100
423.200	-9.122	0.100
423.300	-1.341	0.100
423.400	-0.609	0.100
423.500	4.471	0.100
423.600	-13.793	0.100
423.700	-2.178	0.100
423.800	-4.312	0.100
423.900	-1.502	0.100
424.000	-4.946	0.100
424.100	-21.059	0.100
424.200	4.386	0.100
424.300	1.817	0.100
424.400	-5.224	0.100
424.500	-8.181	0.100
424.600	-4.253	0.100
424.700	0.595	0.100
424.800	-9.928	0.100
424.900	4.995	0.100
425.000	-5.256	0.100
425.100	-2.820	0.100
425.200	1.110	0.100
425.300	0.378	0.100
425.400	-8.024	0.100
425.500	-11.230	0.100
425.600	6.864	0.100
425.700	-22.048	0.100
425.800	-0.804	0.100
425.900	-3.491	0.100
426.000	-4.100	0.100
426.100	-7.174	0.100
426.200	-9.015	0.100
426.300	3.428	0.100
426.400	5.058	0.100
426.500	-5.696	0.100
426.600	-12.773	0.100
426.700	-4.453	0.100
426.800	-10.931	0.100
426.900	9.736	0.100
427.000	-7.123	0.100
427.100	-15.425	0.100
427.200	-0.910	0.100
427.300	-10.816	0.100
427.400	9.237	0.100
427.500	3.628	0.100
427.600	-3.470	0.100
427.700	-9.140	0.100
427.800	0.018	0.100
427.900	-10.364	0.100
428.000	-12.481	0.100
428.100	-5.090	0.100
428.200	-24.687	0.100
428.300	-10.080	0.100
428.400	-13.958	0.100
428.500	-4.732	0.100
428.600	5.059	0.100
428.700	-17.478	0.100
428.800	-11.728	0.100
428.900	-20.467	0.100
429.000	-3.904	0.100
429.100	-6.934	0.100
429.200	-1.897	0.100
429.300	-9.005	0.100
429.400	-4.909	0.100
429.500	2.807	0.100
429.600	-16.008	0.100
429.700	-19.790	0.100
429.800	-2.541	0.100
429.900	-8.734	0.100
430.000	-10.131	0.100
430.100	-13.517	0.100
430.200	-1.456	0.100
430.300	-10.606	0.100
430.400	-12.045	0.100
430.500	-14.693	0.100
430.600	3.229	0.100
430.700	-4.833	0.100
430.800	-9.447	0.100
430.900	-12.825	0.100
431.000	-9.617	0.100
431.100	-16.868	0.100
431.200	-7.900	0.100
431.300	-3.343	0.100
431.400	-4.949	0.100
431.500	-5.428	0.100
431.600	-18.165	0.100
431.700	-10.321	0.100
431.800	-8.533	0.100
431.900	-18.103	0.100
432.000	-5.182	0.100
432.100	-10.836	0.100
432.200	-13.307	0.100
432.300	-16.817	0.100
432.400	-9.525	0.100
432.500	-6.980	0.100
432.600	2.519	0.100
432.700	-13.803	0.100
432.800	-7.489	0.100
432.900	-8.851	0.100
433.000	-12.461	0.100
433.100	-10.451	0.100
433.200	-20.128	0.100
433.300	-10.915	0.100
433.400	-7.328	0.100
433.500	-13.676	0.100
433.600	-6.123	0.100
433.700	-15.504	0.100
433.800	-15.133	0.100
433.900	-7.017	0.100
434.000	-5.668	0.100
434.100	-4.712	0.100
434.200	-13.147	0.100
434.300	-8.886	0.100
434.400	-16.578	0.100
434.500	-3.770	0.100
434.600	-3.243	0.100
434.700	-13.304	0.100
434.800	-18.151	0.100
434.900	-4.705	0.100
435.000	-16.213	0.100
435.100	-8.541	0.100
435.200	-1.840	0.100
435.300	-23.372	0.100
435.400	-18.022	0.100
435.500	-14.337	0.100
435.600	-5.029	0.100
435.700	-3.567	0.100
435.800	-14.752	0.100
435.900	-7.434	0.100
436.000	-21.323	0.100
436.100	-17.495	0.100
436.200	-11.575	0.100
436.300	-1.787	0.100
436.400	-2.596	0.100
436.500	-8.685	0.100
436.600	-14.384	0.100
436.700	-9.499	0.100
436.800	-18.609	0.100
436.900	-8.777	0.100
437.000	-9.294	0.100
437.100	-8.303	0.100
437.200	-9.623	0.100
437.300	-7.016	0.100
437.400	-19.170	0.100
437.500	-11.254	0.100
437.600	-8.533	0.100
437.700	-13.057	0.100
437.800	-12.626	0.100
437.900	-17.913	0.100
438.000	-20.015	0.100
438.100	-18.067	0.100
438.200	-13.020	0.100
438.300	7.734	0.100
438.400	-15.271	0.100
438.500	-14.357	0.100
438.600	-15.666	0.100
438.700	-6.568	0.100
438.800	-12.177	0.100
438.900	-10.305	0.100
439.000	-21.467	0.100
439.100	-15.381	0.100
439.200	-30.992	0.100
439.300	-15.993	0.100
439.400	-8.539	0.100
439.500	-13.502	0.100
439.600	-13.636	0.100
439.700	-17.384	0.100
439.800	-10.451	0.100
439.900	-5.883	0.100
440.000	-25.466	0.100
440.100	-17.292	0.100
440.200	-18.198	0.100
440.300	-7.316	0.100
440.400	-13.313	0.100
440.500	-11.949	0.100
440.600	-1.909	0.100
440.700	-17.472	0.100
440.800	-15.341	0.100
440.900	-11.423	0.100
441.000	-10.043	0.100
441.100	-1.347	0.100
441.200	-14.122	0.100
441.300	-17.970	0.100
441.400	-21.588	0.100
441.500	-17.755	0.100
441.600	-6.712	0.100
441.700	-10.908	0.100
441.800	-10.213	0.100
441.900	-30.690	0.100
442.000	-4.336	0.100
442.100	-10.532	0.100
442.200	-13.643	0.100
442.300	-10.574	0.100
442.400	-28.670	0.100
442.500	-23.398	0.100
442.600	-5.973	0.100
442.700	-14.475	0.100
442.800	-8.279	0.100
442.900	-20.047	0.100
443.000	-6.718	0.100
443.100	-8.190	0.100
443.200	-12.681	0.100
443.300	-14.860	0.100
443.400	-18.422	0.100
443.500	-19.785	0.100
443.600	-16.305	0.100
443.700	-22.454	0.100
443.800	-11.368	0.100
443.900	-12.726	0.100
444.000	-14.529	0.100
444.100	-13.049	0.100
444.200	-10.742	0.100
444.300	-16.696	0.100
444.400	-18.033	0.100
444.500	-13.704	0.100
444.600	-16.633	0.100
444.700	-17.489	0.100
444.800	-20.786	0.100
444.900	-11.820	0.100
445.000	-16.385	0.100
445.100	-6.683	0.100
445.200	-13.403	0.100
445.300	-16.756	0.100
445.400	-13.851	0.100
445.500	-19.069	0.100
445.600	-25.333	0.100
445.700	-6.264	0.100
445.800	-30.545	0.100
445.900	-8.817	0.100
446.000	-12.412	0.100
446.100	-25.650	0.100
446.200	-13.218	0.100
446.300	-13.646	0.100
446.400	-18.002	0.100
446.500	-11.289	0.100
446.600	-16.307	0.100
446.700	-18.706	0.100
446.800	-21.249	0.100
446.900	-21.364	0.100
447.000	-15.163	0.100
447.100	-12.660	0.100
447.200	-29.668	0.100
447.300	-13.425	0.100
447.400	-7.909	0.100
447.500	-12.533	0.100
447.600	-12.214	0.100
447.700	-21.362	0.100
447.800	-12.818	0.100
447.900	-14.211	0.100
448.000	-14.030	0.100
448.100	-27.017	0.100
448.200	-16.108	0.100
448.300	-13.860	0.100
448.400	-20.847	0.100
448.500	-4.548	0.100
448.600	-15.537	0.100
448.700	-11.046	0.100
448.800	-16.610	0.100
448.900	-20.409	0.100
449.000	-12.769	0.100
449.100	-12.208	0.100
449.200	-15.347	0.100
449.300	-3.567	0.100
449.400	-10.820	0.100
449.500	-9.861	0.100
449.600	-24.763	0.100
449.700	-9.134	0.100
449.800	-22.986	0.100
449.900	-9.076	0.100
450.000	-12.211	0.100
450.100	-9.157	0.100
450.200	-13.727	0.100
450.300	-10.819	0.100
450.400	-27.505	0.100
450.500	-26.614	0.100
450.600	-7.693	0.100
450.700	-11.055	0.100
450.800	-24.911	0.100
450.900	-30.307	0.100
451.000	-17.237	0.100
451.100	-2.276	0.100
451.200	-11.202	0.100
451.300	-7.425	0.100
451.400	-24.402	0.100
451.500	-26.979	0.100
451.600	-12.416	0.100
451.700	-7.523	0.100
451.800	-18.985	0.100
451.900	-10.209	0.100
452.000	-13.613	0.100
452.100	-13.325	0.100
452.200	-19.302	0.100
452.300	-27.369	0.100
452.400	-10.511	0.100
452.500	-9.850	0.100
452.600	-11.889	0.100
452.700	-4.889	0.100
452.800	-9.974	0.100
452.900	-21.231	0.100
453.000	-24.263	0.100
453.100	-10.094	0.100
453.200	-25.232	0.100
453.300	-15.709	0.100
453.400	-13.403	0.100
453.500	-8.084	0.100
453.600	-14.015	0.100
453.700	-17.757	0.100
453.800	-7.175	0.100
453.900	-14.148	0.100
454.000	-10.325	0.100
454.100	-18.148	0.100
454.200	-20.509	0.100
454.300	-22.909	0.100
454.400	-21.994	0.100
454.500	-21.700	0.100
454.600	-24.824	0.100
454.700	0.496	0.100
454.800	-8.328	0.100
454.900	-23.460	0.100
455.000	-13.296	0.100
455.100	-17.148	0.100
455.200	-23.463	0.100
455.300	-30.690	0.100
455.400	-17.915	0.100
455.500	-9.068	0.100
455.600	-8.742	0.100
455.700	-15.574	0.100
455.800	-12.068	0.100
455.900	-17.099	0.100
456.000	-11.696	0.100
456.100	-21.338	0.100
456.200	-23.834	0.100
456.300	-21.125	0.100
456.400	-10.328	0.100
456.500	-17.487	0.100
456.600	-11.708	0.100
456.700	-14.437	0.100
456.800	-25.609	0.100
456.900	-13.307	0.100
457.000	-19.230	0.100
457.100	-17.757	0.100
457.200	-11.693	0.100
457.300	-24.329	0.100
457.400	-18.526	0.100
457.500	-23.913	0.100
457.600	-8.998	0.100
457.700	-19.120	0.100
457.800	-10.535	0.100
457.900	-13.794	0.100
458.000	-25.161	0.100
458.100	-21.516	0.100
458.200	-21.516	0.100
458.300	-20.762	0.100
458.400	-11.133	0.100
458.500	-27.847	0.100
458.600	-16.944	0.100
458.700	-6.200	0.100
458.800	-7.566	0.100
458.900	-18.804	0.100
459.000	-11.480	0.100
459.100	-19.728	0.100
459.200	-16.681	0.100
459.300	-22.814	0.100
459.400	-19.313	0.100
459.500	-13.348	0.100
459.600	-19.249	0.100
459.700	-26.320	0.100
459.800	-14.567	0.100
459.900	-35.571	0.100
460.000	-0.856	0.100
460.100	-14.736	0.100
460.200	-20.970	0.100
460.300	-13.615	0.100
460.400	-15.102	0.100
460.500	-30.718	0.100
460.600	-14.671	0.100
460.700	-21.088	0.100
460.800	-9.249	0.100
460.900	-21.835	0.100
461.000	-26.895	0.100
461.100	-21.738	0.100
461.200	-7.302	0.100
461.300	-13.796	0.100
461.400	-14.233	0.100
461.500	-23.973	0.100
461.600	-27.480	0.100
461.700	-10.641	0.100
461.800	-17.857	0.100
461.900	-6.789	0.100
462.000	-15.966	0.100
462.100	-21.005	0.100
462.200	-13.626	0.100
462.300	-21.669	0.100
462.400	-5.426	0.100
462.500	-7.620	0.100
462.600	-16.876	0.100
462.700	-16.190	0.100
462.800	-14.955	0.100
462.900	-16.592	0.100
463.000	-17.598	0.100
463.100	-11.458	0.100
463.200	-16.181	0.100
463.300	-17.857	0.100
463.400	-12.540	0.100
463.500	-7.613	0.100
463.600	-26.993	0.100
463.700	-19.288	0.100
463.800	-17.792	0.100
463.900	-23.861	0.100
464.000	-18.507	0.100
464.100	-19.060	0.100
464.200	-16.431	0.100
464.300	-15.829	0.100
464.400	-24.021	0.100
464.500	-13.627	0.100
464.600	-13.039	0.100
464.700	-23.400	0.100
464.800	-23.861	0.100
464.900	-16.377	0.100
465.000	-20.401	0.100
465.100	-8.843	0.100
465.200	-9.335	0.100
465.300	-21.609	0.100
465.400	-8.349	0.100
465.500	-18.323	0.100
465.600	-15.582	0.100
465.700	-27.670	0.100
465.800	-14.939	0.100
465.900	-22.744	0.100
466.000	-15.002	0.100
466.100	-28.494	0.100
466.200	-19.538	0.100
466.300	-25.543	0.100
466.400	-13.052	0.100
466.500	-17.434	0.100
466.600	-11.466	0.100
466.700	-19.531	0.100
466.800	-9.151	0.100
466.900	-17.670	0.100
467.000	-25.685	0.100
467.100	-20.538	0.100
467.200	-21.336	0.100
467.300	-7.955	0.100
467.400	-11.552	0.100
467.500	-20.682	0.100
467.600	-24.387	0.100
467.700	-15.021	0.100
467.800	-13.567	0.100
467.900	-14.831	0.100
468.000	-7.295	0.100
468.100	-17.869	0.100
468.200	-11.121	0.100
468.300	-13.532	0.100
468.400	-8.132	0.100
468.500	-17.716	0.100
468.600	-18.051	0.100
468.700	-31.489	0.100
468.800	-24.116	0.100
468.900	-11.302	0.100
469.000	-7.439	0.100
469.100	-19.075	0.100
469.200	-26.265	0.100
469.300	-10.923	0.100
469.400	-12.493	0.100
469.500	-9.738	0.100
469.600	-18.651	0.100
469.700	-17.941	0.100
469.800	-12.596	0.100
469.900	-21.516	0.100
470.000	-16.940	0.100
470.100	-14.316	0.100
470.200	-21.373	0.100
470.300	-28.530	0.100
470.400	-12.169	0.100
470.500	-17.043	0.100
470.600	-8.165	0.100
470.700	-28.947	0.100
470.800	-19.317	0.100
470.900	-24.206	0.100
471.000	-26.070	0.100
471.100	-27.690	0.100
471.200	-23.151	0.100
471.300	-22.443	0.100
471.400	-18.309	0.100
471.500	-10.850	0.100
471.600	-28.826	0.100
471.700	-13.612	0.100
471.800	-13.805	0.100
471.900	-20.044	0.100
472.000	-24.140	0.100
472.100	-9.033	0.100
472.200	-20.193	0.100
472.300	-28.675	0.100
472.400	-15.551	0.100
472.500	-14.224	0.100
472.600	-12.214	0.100
472.700	-19.406	0.100
472.800	-26.705	0.100
472.900	-11.400	0.100
473.000	-0.994	0.100
473.100	-10.839	0.100
473.200	-20.910	0.100
473.300	-19.051	0.100
473.400	-24.473	0.100
473.500	-8.952	0.100
473.600	-14.320	0.100
473.700	-19.239	0.100
473.800	-24.671	0.100
473.900	-17.320	0.100
474.000	-28.952	0.100
474.100	-24.353	0.100
474.200	-33.588	0.100
474.300	-19.109	0.100
474.400	-23.184	0.100
474.500	-8.368	0.100
474.600	-15.619	0.100
474.700	-3.691	0.100
474.800	-17.082	0.100
474.900	-8.587	0.100
475.000	-29.622	0.100
475.100	-17.846	0.100
475.200	-13.233	0.100
475.300	-12.841	0.100
475.400	-0.471	0.100
475.500	-24.933	0.100
475.600	-22.046	0.100
475.700	-24.146	0.100
475.800	-21.335	0.100
475.900	-14.101	0.100
476.000	-21.126	0.100
476.100	-10.618	0.100
476.200	-5.181	0.100
476.300	-17.933	0.100
476.400	-17.047	0.100
476.500	-17.371	0.100
476.600	-21.977	0.100
476.700	-23.547	0.100
476.800	-19.494	0.100
476.900	-12.436	0.100
477.000	-22.892	0.100
477.100	-34.932	0.100
477.200	-21.824	0.100
477.300	-18.721	0.100
477.400	-19.635	0.100
477.500	-12.399	0.100
477.600	-28.906	0.100
477.700	-26.197	0.100
477.800	-6.925	0.100
477.900	-16.577	0.100
478.000	-19.564	0.100
478.100	-15.067	0.100
478.200	-19.725	0.100
478.300	-11.469	0.100
478.400	-9.186	0.100
478.500	-13.658	0.100
478.600	-26.706	0.100
478.700	-20.299	0.100
478.800	-11.265	0.100
478.900	-25.647	0.100
479.000	-25.803	0.100
479.100	-12.574	0.100
479.200	-21.968	0.100
479.300	-0.711	0.100
479.400	-12.361	0.100
479.500	-7.552	0.100
479.600	-26.355	0.100
479.700	-27.902	0.100
479.800	-14.346	0.100
479.900	-22.799	0.100
480.000	-14.656	0.100
480.100	-17.906	0.100
480.200	-16.377	0.100
480.300	-10.554	0.100
480.400	-8.191	0.100
480.500	-19.889	0.100
480.600	-18.060	0.100
480.700	-9.899	0.100
480.800	-12.907	0.100
480.900	-8.164	0.100
481.000	-25.580	0.100
481.100	-9.723	0.100
481.200	-6.381	0.100
481.300	-27.094	0.100
481.400	-9.327	0.100
481.500	-20.576	0.100
481.600	-8.711	0.100
481.700	6.631	0.100
481.800	-9.494	0.100
481.900	-10.411	0.100
482.000	-4.722	0.100
482.100	-10.420	0.100
482.200	-10.020	0.100
482.300	-26.277	0.100
482.400	-1.581	0.100
482.500	-11.918	0.100
482.600	-15.491	0.100
482.700	-9.991	0.100
482.800	-12.309	0.100
482.900	-16.028	0.100
483.000	-5.615	0.100
483.100	16.371	0.100
483.200	-23.070	0.100
483.300	-21.163	0.100
483.400	-3.157	0.100
483.500	3.125	0.100
483.600	-12.551	0.100
483.700	-6.829	0.100
483.800	-3.887	0.100
483.900	-6.383	0.100
484.000	0.182	0.100
484.100	-9.971	0.100
484.200	-7.773	0.100
484.300	-10.736	0.100
484.400	6.769	0.100
484.500	-5.676	0.100
484.600	-15.387	0.100
484.700	0.954	0.100
484.800	-7.322	0.100
484.900	-4.422	0.100
485.000	-0.996	0.100
485.100	6.969	0.100
485.200	-0.746	0.100
485.300	1.635	0.100
485.400	-8.213	0.100
485.500	-0.053	0.100
485.600	-18.855	0.100
485.700	-6.418	0.100
485.800	-3.467	0.100
485.900	8.144	0.100
486.000	0.977	0.100
486.100	-3.806	0.100
486.200	-5.486	0.100
486.300	-5.109	0.100
486.400	-5.193	0.100
486.500	-1.105	0.100
486.600	-5.124	0.100
486.700	1.636	0.100
486.800	-1.587	0.100
486.900	-2.532	0.100
487.000	6.859	0.100
487.100	-7.465	0.100
487.200	-3.847	0.100
487.300	2.305	0.100
487.400	-13.810	0.100
487.500	0.027	0.100
487.600	1.261	0.100
487.700	2.245	0.100
487.800	5.962	0.100
487.900	1.238	0.100
488.000	2.876	0.100
488.100	-9.991	0.100
488.200	-9.044	0.100
488.300	-1.443	0.100
488.400	1.164	0.100
488.500	-4.445	0.100
488.600	13.803	0.100
488.700	-1.160	0.100
488.800	-1.302	0.100
488.900	3.336	0.100
489.000	1.393	0.100
489.100	6.347	0.100
489.200	-10.229	0.100
489.300	0.487	0.100
489.400	-8.210	0.100
489.500	-6.289	0.100
489.600	-5.498	0.100
489.700	13.780	0.100
489.800	-2.644	0.100
489.900	12.198	0.100
490.000	3.415	0.100
490.100	9.742	0.100
490.200	0.500	0.100
490.300	5.398	0.100
490.400	-19.575	0.100
490.500	11.818	0.100
490.600	3.330	0.100
490.700	4.616	0.100
490.800	5.803	0.100
490.900	-1.568	0.100
491.000	6.908	0.100
491.100	-0.407	0.100
491.200	6.044	0.100
491.300	-0.764	0.100
491.400	13.773	0.100
491.500	8.283	0.100
491.600	-1.451	0.100
491.700	12.736	0.100
491.800	13.481	0.100
491.900	-3.079	0.100
492.000	10.342	0.100
492.100	10.380	0.100
492.200	9.891	0.100
492.300	2.481	0.100
492.400	5.794	0.100
492.500	11.965	0.100
492.600	4.698	0.100
492.700	8.328	0.100
492.800	11.259	0.100
492.900	20.088	0.100
493.000	1.935	0.100
493.100	4.561	0.100
493.200	2.604	0.100
493.300	11.285	0.100
493.400	13.555	0.100
493.500	-1.253	0.100
493.600	-0.007	0.100
493.700	-2.927	0.100
493.800	13.435	0.100
493.900	21.384	0.100
494.000	2.062	0.100
494.100	15.787	0.100
494.200	13.757	0.100
494.300	8.138	0.100
494.400	6.529	0.100
494.500	9.582	0.100
494.600	11.321	0.100
494.700	18.137	0.100
494.800	11.541	0.100
494.900	10.955	0.100
495.000	11.703	0.100
495.100	14.781	0.100
495.200	-3.645	0.100
495.300	26.384	0.100
495.400	6.341	0.100
495.500	24.934	0.100
495.600	11.329	0.100
495.700	6.272	0.100
495.800	21.676	0.100
495.900	24.014	0.100
496.000	9.903	0.100
496.100	14.298	0.100
496.200	18.181	0.100
496.300	20.380	0.100
496.400	11.967	0.100
496.500	11.600	0.100
496.600	17.110	0.100
496.700	22.780	0.100
496.800	11.219	0.100
496.900	9.693	0.100
497.000	17.206	0.100
497.100	17.010	0.100
497.200	15.580	0.100
497.300	11.328	0.100
497.400	9.779	0.100
497.500	20.873	0.100
497.600	18.669	0.100
497.700	21.404	0.100
497.800	19.737	0.100
497.900	18.821	0.100
498.000	10.460	0.100
498.100	18.166	0.100
498.200	22.585	0.100
498.300	21.405	0.100
498.400	22.690	0.100
498.500	28.405	0.100
498.600	22.765	0.100
498.700	19.630	0.100
498.800	20.818	0.100
498.900	21.742	0.100
499.000	30.364	0.100
499.100	30.324	0.100
499.200	26.553	0.100
499.300	26.350	0.100
499.400	4.782	0.100
499.500	17.355	0.100
499.600	31.242	0.100
499.700	14.932	0.100
499.800	28.860	0.100
499.900	19.806	0.100
500.000	21.928	0.100
500.100	18.963	0.100
500.200	25.334	0.100
500.300	21.903	0.100
500.400	38.038	0.100
500.500	33.957	0.100
500.600	23.663	0.100
500.700	30.862	0.100
500.800	24.181	0.100
500.900	33.031	0.100
501.000	28.060	0.100
501.100	36.009	0.100
501.200	15.949	0.100
501.300	20.271	0.100
501.400	19.420	0.100
501.500	31.378	0.100
501.600	31.717	0.100
501.700	26.461	0.100
501.800	33.767	0.100
501.900	29.071	0.100
502.000	18.103	0.100
502.100	19.198	0.100
502.200	34.921	0.100
502.300	36.931	0.100
502.400	27.301	0.100
502.500	21.983	0.100
502.600	38.444	0.100
502.700	37.981	0.100
502.800	26.283	0.100
502.900	27.949	0.100
503.000	30.672	0.100
503.100	33.862	0.100
503.200	34.481	0.100
503.300	26.194	0.100
503.400	28.127	0.100
503.500	22.494	0.100
503.600	46.325	0.100
503.700	43.484	0.100
503.800	28.943	0.100
503.900	29.395	0.100
504.000	36.692	0.100
504.100	21.529	0.100
504.200	21.515	0.100
504.300	29.280	0.100
504.400	28.992	0.100
504.500	29.058	0.100
504.600	20.813	0.100
504.700	32.220	0.100
504.800	27.962	0.100
504.900	38.681	0.100
505.000	29.514	0.100
505.100	22.221	0.100
505.200	39.860	0.100
505.300	28.348	0.100
505.400	37.414	0.100
505.500	34.415	0.100
505.600	35.882	0.100
505.700	31.705	0.100
505.800	33.900	0.100
505.900	38.553	0.100
506.000	40.691	0.100
506.100	38.520	0.100
506.200	45.531	0.100
506.300	47.306	0.100
506.400	28.109	0.100
506.500	45.730	0.100
506.600	32.038	0.100
506.700	38.206	0.100
506.800	38.450	0.100
506.900	33.045	0.100
507.000	39.787	0.100
507.100	46.449	0.100
507.200	30.442	0.100
507.300	31.386	0.100
507.400	34.072	0.100
507.500	56.839	0.100
507.600	43.139	0.100
507.700	30.988	0.100
507.800	28.702	0.100
507.900	41.698	0.100
508.000	40.026	0.100
508.100	41.280	0.100
508.200	43.556	0.100
508.300	36.150	0.100
508.400	32.936	0.100
508.500	34.072	0.100
508.600	41.913	0.100
508.700	41.717	0.100
508.800	42.929	0.100
508.900	42.782	0.100
509.000	42.029	0.100
509.100	42.739	0.100
509.200	24.517	0.100
509.300	41.758	0.100
509.400	42.546	0.100
509.500	37.516	0.100
509.600	53.044	0.100
509.700	53.462	0.100
509.800	45.914	0.100
509.900	30.261	0.100
510.000	33.456	0.100
510.100	45.785	0.100
510.200	46.558	0.100
510.300	43.768	0.100
510.400	39.643	0.100
510.500	37.838	0.100
510.600	36.296	0.100
510.700	38.612	0.100
510.800	49.814	0.100
510.900	53.503	0.100
511.000	44.336	0.100
511.100	43.847	0.100
511.200	45.394	0.100
511.300	37.009	0.100
511.400	54.918	0.100
511.500	37.461	0.100
511.600	40.941	0.100
511.700	47.258	0.100
511.800	40.181	0.100
511.900	29.324	0.100
512.000	36.813	0.100
512.100	41.514	0.100
512.200	39.509	0.100
512.300	44.407	0.100
512.400	34.175	0.100
512.500	47.644	0.100
512.600	56.563	0.100
512.700	44.183	0.100
512.800	55.199	0.100
512.900	41.553	0.100
513.000	49.784	0.100
513.100	44.177	0.100
513.200	46.876	0.100
513.300	46.170	0.100
513.400	45.429	0.100
513.500	44.510	0.100
513.600	48.368	0.100
513.700	47.956	0.100
513.800	54.078	0.100
513.900	39.653	0.100
514.000	38.968	0.100
514.100	39.387	0.100
514.200	48.153	0.100
514.300	49.049	0.100
514.400	52.631	0.100
514.500	46.124	0.100
514.600	38.784	0.100
514.700	54.557	0.100
514.800	45.465	0.100
514.900	33.311	0.100
515.000	34.161	0.100
515.100	46.302	0.100
515.200	57.209	0.100
515.300	43.128	0.100
515.400	40.742	0.100
515.500	49.909	0.100
515.600	48.546	0.100
515.700	42.718	0.100
515.800	47.224	0.100
515.900	53.149	0.100
516.000	46.786	0.100
516.100	46.055	0.100
516.200	45.282	0.100
516.300	43.242	0.100
516.400	49.665	0.100
516.500	49.013	0.100
516.600	45.839	0.100
516.700	47.243	0.100
516.800	49.256	0.100
516.900	62.657	0.100
517.000	45.774	0.100
517.100	45.889	0.100
517.200	48.980	0.100
517.300	59.315	0.100
517.400	58.061	0.100
517.500	39.129	0.100
517.600	50.418	0.100
517.700	46.495	0.100
517.800	58.558	0.100
517.900	58.443	0.100
518.000	43.640	0.100
518.100	49.219	0.100
518.200	44.707	0.100
518.300	50.254	0.100
518.400	52.720	0.100
518.500	64.102	0.100
518.600	55.669	0.100
518.700	49.564	0.100
518.800	41.668	0.100
518.900	46.573	0.100
519.000	54.104	0.100
519.100	43.676	0.100
519.200	54.176	0.100
519.300	59.109	0.100
519.400	48.563	0.100
519.500	49.967	0.100
519.600	48.915	0.100
519.700	50.381	0.100
519.800	38.753	0.100
519.900	41.806	0.100
520.000	62.479	0.100
520.100	50.215	0.100
520.200	49.786	0.100
520.300	50.425	0.100
520.400	34.086	0.100
520.500	59.482	0.100
520.600	54.261	0.100
520.700	49.715	0.100
520.800	52.240	0.100
520.900	55.067	0.100
521.000	43.340	0.100
521.100	46.423	0.100
521.200	54.095	0.100
521.300	58.858	0.100
521.400	51.376	0.100
521.500	44.617	0.100
521.600	52.372	0.100
521.700	56.487	0.100
521.800	50.707	0.100
521.900	45.921	0.100
522.000	58.297	0.100
522.100	68.292	0.100
522.200	50.479	0.100
522.300	47.862	0.100
522.400	55.403	0.100
522.500	56.322	0.100
522.600	52.737	0.100
522.700	40.786	0.100
522.800	45.294	0.100
522.900	51.760	0.100
523.000	35.890	0.100
523.100	54.710	0.100
523.200	49.127	0.100
523.300	57.891	0.100
523.400	63.127	0.100
523.500	49.771	0.100
523.600	39.224	0.100
523.700	58.679	0.100
523.800	63.737	0.100
523.900	44.729	0.100
524.000	50.559	0.100
524.100	49.245	0.100
524.200	52.749	0.100
524.300	52.246	0.100
524.400	44.082	0.100
524.500	48.676	0.100
524.600	49.959	0.100
524.700	46.386	0.100
524.800	57.560	0.100
524.900	54.110	0.100
525.000	48.069	0.100
525.100	61.033	0.100
525.200	46.112	0.100
525.300	55.325	0.100
525.400	59.928	0.100
525.500	56.813	0.100
525.600	52.030	0.100
525.700	50.608	0.100
525.800	57.279	0.100
525.900	45.239	0.100
526.000	56.787	0.100
526.100	59.142	0.100
526.200	52.794	0.100
526.300	57.455	0.100
526.400	52.410	0.100
526.500	51.748	0.100
526.600	54.952	0.100
526.700	48.262	0.100
526.800	49.179	0.100
526.900	58.415	0.100
527.000	56.884	0.100
527.100	62.508	0.100
527.200	44.991	0.100
527.300	50.398	0.100
527.400	54.455	0.100
527.500	52.211	0.100
527.600	61.519	0.100
527.700	70.698	0.100
527.800	43.901	0.100
527.900	63.880	0.100
528.000	48.773	0.100
528.100	47.028	0.100
528.200	48.670	0.100
528.300	56.914	0.100
528.400	56.293	0.100
528.500	47.959	0.100
528.600	49.781	0.100
528.700	40.575	0.100
528.800	60.529	0.100
528.900	41.646	0.100
529.000	54.063	0.100
529.100	47.622	0.100
529.200	62.068	0.100
529.300	64.357	0.100
529.400	53.962	0.100
529.500	44.759	0.100
529.600	51.987	0.100
529.700	55.761	0.100
529.800	61.021	0.100
529.900	54.411	0.100
530.000	60.572	0.100
530.100	57.340	0.100
530.200	47.378	0.100
530.300	49.918	0.100
530.400	50.175	0.100
530.500	47.330	0.100
530.600	46.766	0.100
530.700	54.029	0.100
530.800	69.262	0.100
530.900	54.928	0.100
531.000	59.168	0.100
531.100	55.378	0.100
531.200	53.065	0.100
531.300	60.737	0.100
531.400	65.264	0.100
531.500	55.985	0.100
531.600	51.170	0.100
531.700	54.811	0.100
531.800	44.707	0.100
531.900	52.585	0.100
532.000	64.981	0.100
532.100	71.939	0.100
532.200	35.839	0.100
532.300	51.540	0.100
532.400	54.940	0.100
532.500	41.281	0.100
532.600	52.636	0.100
532.700	57.187	0.100
532.800	57.866	0.100
532.900	54.347	0.100
533.000	52.459	0.100
533.100	56.681	0.100
533.200	58.245	0.100
533.300	56.802	0.100
533.400	56.129	0.100
533.500	61.412	0.100
533.600	42.459	0.100
533.700	50.787	0.100
533.800	56.387	0.100
533.900	59.218	0.100
534.000	60.003	0.100
534.100	50.030	0.100
534.200	45.875	0.100
534.300	47.025	0.100
534.400	54.018	0.100
534.500	67.547	0.100
534.600	60.981	0.100
534.700	49.547	0.100
534.800	49.496	0.100
534.900	57.115	0.100
535.000	50.723	0.100
535.100	60.678	0.100
535.200	57.143	0.100
535.300	58.136	0.100
535.400	58.558	0.100
535.500	61.395	0.100
535.600	49.979	0.100
535.700	52.357	0.100
535.800	55.093	0.100
535.900	55.275	0.100
536.000	55.242	0.100
536.100	61.774	0.100
536.200	48.331	0.100
536.300	56.583	0.100
536.400	63.254	0.100
536.500	56.664	0.100
536.600	66.546	0.100
536.700	63.972	0.100
536.800	64.196	0.100
536.900	62.448	0.100
537.000	54.264	0.100
537.100	48.009	0.100
537.200	54.222	0.100
537.300	50.228	0.100
537.400	60.684	0.100
537.500	59.376	0.100
537.600	59.738	0.100
537.700	59.434	0.100
537.800	43.890	0.100
537.900	50.615	0.100
538.000	54.760	0.100
538.100	58.378	0.100
538.200	63.782	0.100
538.300	39.736	0.100
538.400	58.487	0.100
538.500	61.864	0.100
538.600	56.870	0.100
538.700	55.818	0.100
538.800	56.775	0.100
538.900	70.341	0.100
539.000	74.125	0.100
539.100	66.204	0.100
539.200	60.267	0.100
539.300	53.180	0.100
539.400	44.307	0.100
539.500	71.210	0.100
539.600	65.943	0.100
539.700	47.579	0.100
539.800	54.147	0.100
539.900	59.992	0.100
540.000	53.298	0.100
540.100	52.916	0.100
540.200	47.890	0.100
540.300	60.362	0.100
540.400	55.492	0.100
540.500	45.754	0.100
540.600	54.840	0.100
540.700	64.280	0.100
540.800	45.667	0.100
540.900	44.798	0.100
541.000	50.398	0.100
541.100	45.863	0.100
541.200	46.038	0.100
541.300	44.376	0.100
541.400	47.123	0.100
541.500	46.737	0.100
541.600	50.079	0.100
541.700	55.551	0.100
541.800	47.959	0.100
541.900	50.131	0.100
542.000	38.407	0.100
542.100	39.906	0.100
542.200	38.111	0.100
542.300	50.821	0.100
542.400	58.268	0.100
542.500	23.349	0.100
542.600	48.736	0.100
542.700	43.147	0.100
542.800	37.941	0.100
542.900	44.761	0.100
543.000	42.665	0.100
543.100	29.438	0.100
543.200	35.194	0.100
543.300	51.360	0.100
543.400	38.214	0.100
543.500	23.744	0.100
543.600	18.905	0.100
543.700	49.248	0.100
543.800	40.509	0.100
543.900	32.625	0.100
544.000	33.278	0.100
544.100	34.372	0.100
544.200	29.982	0.100
544.300	39.383	0.100
544.400	37.083	0.100
544.500	4.061	0.100
544.600	49.673	0.100
544.700	34.875	0.100
544.800	43.352	0.100
544.900	31.590	0.100
545.000	30.952	0.100
545.100	36.238	0.100
545.200	30.253	0.100
545.300	35.905	0.100
545.400	20.392	0.100
545.500	36.094	0.100
545.600	19.360	0.100
545.700	35.698	0.100
545.800	36.807	0.100
545.900	29.980	0.100
546.000	8.487	0.100
546.100	35.097	0.100
546.200	31.786	0.100
546.300	29.254	0.100
546.400	44.982	0.100
546.500	28.198	0.100
546.600	24.462	0.100
546.700	33.604	0.100
546.800	35.099	0.100
546.900	14.033	0.100
547.000	32.758	0.100
547.100	36.955	0.100
547.200	18.971	0.100
547.300	37.938	0.100
547.400	26.485	0.100
547.500	21.735	0.100
547.600	24.141	0.100
547.700	14.280	0.100
547.800	21.770	0.100
547.900	17.148	0.100
548.000	20.519	0.100
548.100	31.041	0.100
548.200	33.198	0.100
548.300	23.567	0.100
548.400	22.555	0.100
548.500	33.744	0.100
548.600	17.771	0.100
548.700	20.145	0.100
548.800	18.062	0.100
548.900	16.086	0.100
549.000	19.811	0.100
549.100	15.339	0.100
549.200	35.088	0.100
549.300	24.180	0.100
549.400	30.264	0.100
549.500	25.818	0.100
549.600	17.757	0.100
549.700	20.720	0.100
549.800	22.164	0.100
549.900	15.906	0.100
550.000	23.876	0.100
550.100	19.394	0.100
550.200	17.778	0.100
550.300	28.121	0.100
550.400	22.799	0.100
550.500	4.843	0.100
550.600	32.511	0.100
550.700	30.059	0.100
550.800	17.239	0.100
550.900	28.418	0.100
551.000	20.407	0.100
551.100	20.907	0.100
551.200	15.023	0.100
551.300	11.390	0.100
551.400	18.374	0.100
551.500	14.311	0.100
551.600	28.224	0.100
551.700	22.063	0.100
551.800	20.147	0.100
551.900	5.719	0.100
552.000	13.259	0.100
552.100	13.431	0.100
552.200	25.340	0.100
552.300	17.872	0.100
552.400	11.691	0.100
552.500	20.203	0.100
552.600	15.532	0.100
552.700	14.613	0.100
552.800	6.480	0.100
552.900	17.594	0.100
553.000	22.512	0.100
553.100	7.710	0.100
553.200	16.014	0.100
553.300	19.650	0.100
553.400	14.956	0.100
553.500	11.367	0.100
553.600	16.619	0.100
553.700	24.480	0.100
553.800	12.661	0.100
553.900	15.056	0.100
554.000	5.473	0.100
554.100	16.532	0.100
554.200	22.238	0.100
554.300	13.796	0.100
554.400	9.522	0.100
554.500	18.163	0.100
554.600	7.399	0.100
554.700	5.386	0.100
554.800	24.471	0.100
554.900	8.791	0.100
555.000	15.057	0.100
555.100	26.950	0.100
555.200	9.220	0.100
555.300	1.901	0.100
555.400	-1.344	0.100
555.500	13.894	0.100
555.600	4.598	0.100
555.700	15.744	0.100
555.800	8.671	0.100
555.900	18.715	0.100
556.000	16.044	0.100
556.100	9.848	0.100
556.200	22.512	0.100
556.300	13.454	0.100
556.400	5.038	0.100
556.500	1.158	0.100
556.600	10.293	0.100
556.700	21.031	0.100
556.800	10.330	0.100
556.900	6.693	0.100
557.000	0.152	0.100
557.100	19.923	0.100
557.200	8.801	0.100
557.300	15.762	0.100
557.400	-0.984	0.100
557.500	13.799	0.100
557.600	9.831	0.100
557.700	6.571	0.100
557.800	11.611	0.100
557.900	12.943	0.100
558.000	19.080	0.100
558.100	12.375	0.100
558.200	2.890	0.100
558.300	11.766	0.100
558.400	10.141	0.100
558.500	7.320	0.100
558.600	10.438	0.100
558.700	10.977	0.100
558.800	1.061	0.100
558.900	11.133	0.100
559.000	11.398	0.100
559.100	17.869	0.100
559.200	20.640	0.100
559.300	13.290	0.100
559.400	6.496	0.100
559.500	10.794	0.100
559.600	7.840	0.100
559.700	20.700	0.100
559.800	9.727	0.100
559.900	18.367	0.100
560.000	12.306	0.100
560.100	10.719	0.100
560.200	9.039	0.100
560.300	14.878	0.100
560.400	10.636	0.100
560.500	8.525	0.100
560.600	-5.355	0.100
560.700	10.862	0.100
560.800	0.858	0.100
560.900	-1.707	0.100
561.000	10.452	0.100
561.100	7.330	0.100
561.200	-10.327	0.100
561.300	1.645	0.100
561.400	3.623	0.100
561.500	11.090	0.100
561.600	19.369	0.100
561.700	18.819	0.100
561.800	10.690	0.100
561.900	7.232	0.100
562.000	14.813	0.100
562.100	6.457	0.100
562.200	-7.817	0.100
562.300	8.367	0.100
562.400	11.800	0.100
562.500	15.724	0.100
562.600	13.544	0.100
562.700	10.201	0.100
562.800	9.525	0.100
562.900	7.632	0.100
563.000	-2.126	0.100
563.100	10.072	0.100
563.200	3.923	0.100
563.300	8.821	0.100
563.400	12.266	0.100
563.500	2.363	0.100
563.600	-0.277	0.100
563.700	3.746	0.100
563.800	6.805	0.100
563.900	8.298	0.100
564.000	17.139	0.100
564.100	14.501	0.100
564.200	21.235	0.100
564.300	2.427	0.100
564.400	-16.092	0.100
564.500	0.755	0.100
564.600	5.761	0.100
564.700	-1.607	0.100
564.800	-6.271	0.100
564.900	-2.703	0.100
565.000	12.718	0.100
565.100	7.701	0.100
565.200	9.926	0.100
565.300	-10.546	0.100
565.400	6.850	0.100
565.500	4.166	0.100
565.600	-0.622	0.100
565.700	3.451	0.100
565.800	11.821	0.100
565.900	-0.585	0.100
566.000	7.730	0.100
566.100	1.998	0.100
566.200	9.595	0.100
566.300	0.484	0.100
566.400	1.879	0.100
566.500	-6.504	0.100
566.600	-9.286	0.100
566.700	12.552	0.100
566.800	-10.376	0.100
566.900	4.622	0.100
567.000	2.550	0.100
567.100	5.021	0.100
567.200	-2.818	0.100
567.300	4.638	0.100
567.400	-3.024	0.100
567.500	5.872	0.100
567.600	-2.063	0.100
567.700	5.182	0.100
567.800	0.623	0.100
567.900	-0.303	0.100
568.000	6.062	0.100
568.100	4.664	0.100
568.200	10.268	0.100
568.300	5.757	0.100
568.400	-7.154	0.100
568.500	-18.821	0.100
568.600	-0.478	0.100
568.700	6.810	0.100
568.800	-9.099	0.100
568.900	-8.877	0.100
569.000	11.761	0.100
569.100	7.630	0.100
569.200	-0.530	0.100
569.300	-6.934	0.100
569.400	-5.098	0.100
569.500	5.318	0.100
569.600	-9.830	0.100
569.700	-5.420	0.100
569.800	12.398	0.100
569.900	-0.012	0.100
570.000	0.209	0.100
570.100	-0.036	0.100
570.200	1.107	0.100
570.300	-11.460	0.100
570.400	15.980	0.100
570.500	-3.971	0.100
570.600	-5.460	0.100
570.700	13.644	0.100
570.800	0.088	0.100
570.900	-10.604	0.100
571.000	13.100	0.100
571.100	4.788	0.100
571.200	-1.975	0.100
571.300	-6.888	0.100
571.400	-16.635	0.100
571.500	-3.559	0.100
571.600	5.709	0.100
571.700	-0.130	0.100
571.800	-17.484	0.100
571.900	-5.927	0.100
572.000	4.184	0.100
572.100	-8.524	0.100
572.200	-7.227	0.100
572.300	-15.525	0.100
572.400	-3.855	0.100
572.500	21.000	0.100
572.600	6.175	0.100
572.700	-7.526	0.100
572.800	-23.788	0.100
572.900	11.121	0.100
573.000	-1.238	0.100
573.100	-19.693	0.100
573.200	2.228	0.100
573.300	-6.927	0.100
573.400	-3.137	0.100
573.500	-0.672	0.100
573.600	-3.643	0.100
573.700	-8.880	0.100
573.800	-4.298	0.100
573.900	-5.895	0.100
574.000	-14.493	0.100
574.100	-0.159	0.100
574.200	-20.121	0.100
574.300	-12.180	0.100
574.400	7.396	0.100
574.500	3.266	0.100
574.600	-2.861	0.100
574.700	-7.154	0.100
574.800	4.949	0.100
574.900	-9.982	0.100
575.000	-1.149	0.100
575.100	-13.285	0.100
575.200	-18.343	0.100
575.300	-8.682	0.100
575.400	-0.148	0.100
575.500	2.041	0.100
575.600	-21.717	0.100
575.700	4.722	0.100
575.800	-2.067	0.100
575.900	-1.778	0.100
576.000	-6.784	0.100
576.100	-12.717	0.100
576.200	-10.548	0.100
576.300	-11.521	0.100
576.400	-6.071	0.100
576.500	-6.908	0.100
576.600	7.780	0.100
576.700	-7.174	0.100
576.800	-13.667	0.100
576.900	-9.108	0.100
577.000	-14.440	0.100
577.100	-13.597	0.100
577.200	-8.838	0.100
577.300	-14.089	0.100
577.400	-12.536	0.100
577.500	-7.380	0.100
577.600	-7.206	0.100
577.700	-5.503	0.100
577.800	-6.982	0.100
577.900	-16.747	0.100
578.000	-4.782	0.100
578.100	16.963	0.100
578.200	-22.121	0.100
578.300	-15.597	0.100
578.400	-9.381	0.100
578.500	-1.638	0.100
578.600	-10.712	0.100
578.700	0.934	0.100
578.800	-10.270	0.100
578.900	-10.920	0.100
579.000	-4.042	0.100
579.100	-7.791	0.100
579.200	0.284	0.100
579.300	-3.038	0.100
579.400	-7.408	0.100
579.500	-20.729	0.100
579.600	-12.643	0.100
579.700	-7.991	0.100
579.800	-6.097	0.100
579.900	-7.745	0.100
580.000	-11.480	0.100
580.100	-16.117	0.100
580.200	-16.437	0.100
580.300	6.402	0.100
580.400	-7.262	0.100
580.500	-1.324	0.100
580.600	-5.653	0.100
580.700	-8.746	0.100
580.800	-19.880	0.100
580.900	0.189	0.100
581.000	-5.374	0.100
581.100	-14.101	0.100
581.200	-13.994	0.100
581.300	-19.719	0.100
581.400	-4.773	0.100
581.500	-8.369	0.100
581.600	-3.406	0.100
581.700	-2.377	0.100
581.800	-8.297	0.100
581.900	-11.342	0.100
582.000	-3.265	0.100
582.100	-10.236	0.100
582.200	-13.554	0.100
582.300	-21.916	0.100
582.400	-8.083	0.100
582.500	4.506	0.100
582.600	-4.682	0.100
582.700	-14.412	0.100
582.800	-9.550	0.100
582.900	-19.317	0.100
583.000	-18.500	0.100
583.100	-10.949	0.100
583.200	-10.103	0.100
583.300	-25.186	0.100
583.400	-9.945	0.100
583.500	-9.338	0.100
583.600	-9.983	0.100
583.700	-0.626	0.100
583.800	-16.402	0.100
583.900	-8.374	0.100
584.000	-14.611	0.100
584.100	-5.935	0.100
584.200	-22.434	0.100
584.300	-4.241	0.100
584.400	-14.173	0.100
584.500	-13.193	0.100
584.600	-9.712	0.100
584.700	-7.339	0.100
584.800	-9.651	0.100
584.900	-9.608	0.100
585.000	-4.762	0.100
585.100	-15.891	0.100
585.200	-10.528	0.100
585.300	-5.604	0.100
585.400	-17.059	0.100
585.500	-10.413	0.100
585.600	-12.818	0.100
585.700	-3.028	0.100
585.800	-13.123	0.100
585.900	-10.275	0.100
586.000	-2.375	0.100
586.100	-12.738	0.100
586.200	-20.504	0.100
586.300	-7.387	0.100
586.400	-11.381	0.100
586.500	-20.213	0.100
586.600	-14.010	0.100
586.700	-16.658	0.100
586.800	-10.446	0.100
586.900	-15.996	0.100
587.000	-22.137	0.100
587.100	-1.808	0.100
587.200	-5.768	0.100
587.300	3.177	0.100
587.400	-12.430	0.100
587.500	-27.373	0.100
587.600	-9.427	0.100
587.700	-6.458	0.100
587.800	0.264	0.100
587.900	-20.878	0.100
588.000	-25.333	0.100
588.100	-13.377	0.100
588.200	-20.734	0.100
588.300	-18.686	0.100
588.400	-14.017	0.100
588.500	-4.738	0.100
588.600	-11.875	0.100
588.700	-18.274	0.100
588.800	-28.324	0.100
588.900	-17.099	0.100
589.000	-13.196	0.100
589.100	-8.417	0.100
589.200	-10.767	0.100
589.300	-8.268	0.100
589.400	-15.514	0.100
589.500	-15.223	0.100
589.600	-12.318	0.100
589.700	-4.909	0.100
589.800	-7.823	0.100
589.900	-21.286	0.100
590.000	-18.645	0.100
590.100	-17.645	0.100
590.200	-7.983	0.100
590.300	-12.048	0.100
590.400	-21.747	0.100
590.500	-22.160	0.100
590.600	-24.381	0.100
590.700	-11.596	0.100
590.800	-0.991	0.100
590.900	-11.536	0.100
591.000	-8.820	0.100
591.100	-12.105	0.100
591.200	-14.844	0.100
591.300	-14.803	0.100
591.400	-14.630	0.100
591.500	-24.943	0.100
591.600	-24.479	0.100
591.700	-10.548	0.100
591.800	-18.093	0.100
591.900	-9.326	0.100
592.000	-8.219	0.100
592.100	-21.252	0.100
592.200	-8.092	0.100
592.300	-19.540	0.100
592.400	-17.032	0.100
592.500	-7.373	0.100
592.600	-28.362	0.100
592.700	-2.103	0.100
592.800	-10.754	0.100
592.900	-19.229	0.100
593.000	-16.756	0.100
593.100	-17.636	0.100
593.200	-10.802	0.100
593.300	-14.084	0.100
593.400	-11.513	0.100
593.500	-17.119	0.100
593.600	-13.279	0.100
593.700	-16.917	0.100
593.800	-28.630	0.100
593.900	-0.042	0.100
594.000	-13.109	0.100
594.100	-9.105	0.100
594.200	-22.149	0.100
594.300	-7.423	0.100
594.400	-12.222	0.100
594.500	-22.606	0.100
594.600	-5.754	0.100
594.700	-11.354	0.100
594.800	-20.627	0.100
594.900	-24.454	0.100
595.000	-17.846	0.100
595.100	-8.549	0.100
595.200	-20.762	0.100
595.300	-9.554	0.100
595.400	-9.813	0.100
595.500	-8.095	0.100
595.600	-23.018	0.100
595.700	-8.069	0.100
595.800	-21.996	0.100
595.900	-17.233	0.100
596.000	-10.011	0.100
596.100	-12.488	0.100
596.200	-17.777	0.100
596.300	-12.484	0.100
596.400	-23.955	0.100
596.500	-19.978	0.100
596.600	-17.059	0.100
596.700	-7.776	0.100
596.800	-7.448	0.100
596.900	-19.779	0.100
597.000	-28.135	0.100
597.100	-17.696	0.100
597.200	-3.375	0.100
597.300	-21.758	0.100
597.400	-1.676	0.100
597.500	-25.839	0.100
597.600	-15.091	0.100
597.700	-21.198	0.100
597.800	-1.213	0.100
597.900	-18.056	0.100
598.000	-15.902	0.100
598.100	-16.825	0.100
598.200	-23.128	0.100
598.300	-24.529	0.100
598.400	-16.796	0.100
598.500	-20.328	0.100
598.600	-9.136	0.100
598.700	-19.011	0.100
598.800	-16.183	0.100
598.900	-19.264	0.100
599.000	-13.152	0.100
599.100	-8.682	0.100
599.200	-26.018	0.100
599.300	-21.422	0.100
599.400	-32.180	0.100
599.500	-22.554	0.100
599.600	-18.591	0.100
599.700	-4.836	0.100
599.800	-23.743	0.100
599.900	-5.653	0.100
600.000	-29.351	0.100
600.100	-16.587	0.100
600.200	-15.833	0.100
600.300	-22.714	0.100
600.400	-7.834	0.100
600.500	-14.688	0.100
600.600	-23.147	0.100
600.700	-26.887	0.100
600.800	-10.114	0.100
600.900	-11.736	0.100
601.000	-27.552	0.100
601.100	-26.582	0.100
601.200	-17.032	0.100
601.300	-18.976	0.100
601.400	-21.945	0.100
601.500	-23.121	0.100
601.600	-16.544	0.100
601.700	-15.942	0.100
601.800	-16.429	0.100
601.900	-17.515	0.100
602.000	-14.800	0.100
602.100	-16.383	0.100
602.200	-17.133	0.100
602.300	-12.924	0.100
602.400	-30.054	0.100
602.500	-20.633	0.100
602.600	-19.020	0.100
602.700	-15.796	0.100
602.800	-21.763	0.100
602.900	-17.490	0.100
603.000	-11.674	0.100
603.100	-14.481	0.100
603.200	-21.074	0.100
603.300	-16.975	0.100
603.400	-26.490	0.100
603.500	-20.627	0.100
603.600	-13.025	0.100
603.700	-12.749	0.100
603.800	-17.690	0.100
603.900	-31.650	0.100
604.000	-25.334	0.100
604.100	-13.465	0.100
604.200	-18.940	0.100
604.300	-5.507	0.100
604.400	-14.355	0.100
604.500	-19.368	0.100
604.600	-26.145	0.100
604.700	-27.910	0.100
604.800	-15.427	0.100
604.900	-8.762	0.100
605.000	-9.997	0.100
605.100	-13.859	0.100
605.200	-24.249	0.100
605.300	-23.863	0.100
605.400	-21.241	0.100
605.500	-18.189	0.100
605.600	-21.595	0.100
605.700	-18.545	0.100
605.800	-19.701	0.100
605.900	-16.417	0.100
606.000	-14.495	0.100
606.100	-20.467	0.100
606.200	-18.108	0.100
606.300	-34.731	0.100
606.400	-17.932	0.100
606.500	-21.683	0.100
606.600	-13.285	0.100
606.700	-19.535	0.100
606.800	-23.786	0.100
606.900	-13.190	0.100
607.000	-27.773	0.100
607.100	-17.987	0.100
607.200	-11.095	0.100
607.300	-20.409	0.100
607.400	-30.605	0.100
607.500	-28.655	0.100
607.600	-18.859	0.100
607.700	-13.138	0.100
607.800	-20.383	0.100
607.900	-13.272	0.100
608.000	-12.182	0.100
608.100	-20.781	0.100
608.200	-20.607	0.100
608.300	-26.351	0.100
608.400	-21.602	0.100
608.500	-22.834	0.100
608.600	-11.990	0.100
608.700	-10.724	0.100
608.800	-17.038	0.100
608.900	-28.809	0.100
609.000	-25.414	0.100
609.100	-18.548	0.100
609.200	-18.316	0.100
609.300	-19.089	0.100
609.400	-8.043	0.100
609.500	-18.954	0.100
609.600	-15.542	0.100
609.700	-15.714	0.100
609.800	-30.151	0.100
609.900	-17.046	0.100
610.000	-20.056	0.100
610.100	-28.155	0.100
610.200	-21.011	0.100
610.300	-20.927	0.100
610.400	-25.207	0.100
610.500	-20.217	0.100
610.600	-13.768	0.100
610.700	-23.748	0.100
610.800	-11.388	0.100
610.900	-6.159	0.100
611.000	-20.262	0.100
611.100	-22.538	0.100
611.200	-23.440	0.100
611.300	-23.844	0.100
611.400	-22.121	0.100
611.500	-23.628	0.100
611.600	-18.928	0.100
611.700	-21.168	0.100
611.800	-24.260	0.100
611.900	-16.857	0.100
612.000	-4.230	0.100
612.100	-16.989	0.100
612.200	-20.624	0.100
612.300	-16.767	0.100
612.400	-16.307	0.100
612.500	-21.991	0.100
612.600	-26.020	0.100
612.700	-3.203	0.100
612.800	-25.319	0.100
612.900	-21.413	0.100
613.000	-22.543	0.100
613.100	-17.335	0.100
613.200	-13.472	0.100
613.300	-26.936	0.100
613.400	-17.231	0.100
613.500	-12.044	0.100
613.600	-21.039	0.100
613.700	-25.371	0.100
613.800	-14.153	0.100
613.900	-18.730	0.100
614.000	-11.450	0.100
614.100	-16.581	0.100
614.200	-16.885	0.100
614.300	-22.928	0.100
614.400	-27.516	0.100
614.500	-28.552	0.100
614.600	-12.156	0.100
614.700	-10.975	0.100
614.800	-26.193	0.100
614.900	-17.880	0.100
615.000	-15.822	0.100
615.100	-31.555	0.100
615.200	-17.674	0.100
615.300	-26.208	0.100
615.400	-18.071	0.100
615.500	-26.492	0.100
615.600	-22.897	0.100
615.700	-21.948	0.100
615.800	-27.204	0.100
615.900	-1.929	0.100
616.000	-25.531	0.100
616.100	-20.834	0.100
616.200	-17.599	0.100
616.300	-16.874	0.100
616.400	-25.754	0.100
616.500	-34.086	0.100
616.600	-9.349	0.100
616.700	-24.129	0.100
616.800	-26.636	0.100
616.900	-12.968	0.100
617.000	-17.763	0.100
617.100	-21.611	0.100
617.200	-18.549	0.100
617.300	-25.854	0.100
617.400	-28.728	0.100
617.500	-22.649	0.100
617.600	-21.586	0.100
617.700	-16.026	0.100
617.800	-8.509	0.100
617.900	-21.451	0.100
618.000	-12.154	0.100
618.100	-6.757	0.100
618.200	-19.061	0.100
618.300	-22.796	0.100
618.400	-10.595	0.100
618.500	-20.605	0.100
618.600	-26.001	0.100
618.700	-17.372	0.100
618.800	-15.723	0.100
618.900	-23.145	0.100
619.000	-27.298	0.100
619.100	-33.632	0.100
619.200	-28.224	0.100
619.300	-16.834	0.100
619.400	-24.034	0.100
619.500	-12.743	0.100
619.600	-32.872	0.100
619.700	-19.313	0.100
619.800	-15.733	0.100
619.900	-15.159	0.100
620.000	-20.571	0.100
620.100	-20.292	0.100
620.200	-14.302	0.100
620.300	-12.389	0.100
620.400	-30.697	0.100
620.500	-3.911	0.100
620.600	-19.002	0.100
620.700	-20.976	0.100
620.800	-26.757	0.100
620.900	-13.701	0.100
621.000	-32.380	0.100
621.100	-31.369	0.100
621.200	-10.768	0.100
621.300	-9.392	0.100
621.400	-19.360	0.100
621.500	-17.401	0.100
621.600	-17.351	0.100
621.700	-19.172	0.100
621.800	-11.943	0.100
621.900	-33.920	0.100
622.000	-21.713	0.100
622.100	-7.874	0.100
622.200	-15.251	0.100
622.300	-17.119	0.100
622.400	-20.818	0.100
622.500	-13.055	0.100
622.600	-29.039	0.100
622.700	-13.417	0.100
622.800	-26.820	0.100
622.900	-13.221	0.100
623.000	-30.844	0.100
623.100	-11.158	0.100
623.200	-31.862	0.100
623.300	-26.574	0.100
623.400	-16.175	0.100
623.500	-16.986	0.100
623.600	-12.960	0.100
623.700	-29.478	0.100
623.800	-20.315	0.100
623.900	-28.311	0.100
624.000	-44.890	0.100
624.100	-17.933	0.100
624.200	-16.166	0.100
624.300	-14.521	0.100
624.400	-32.873	0.100
624.500	-29.872	0.100
624.600	-4.017	0.100
624.700	-15.186	0.100
624.800	-19.692	0.100
624.900	-20.361	0.100
625.000	-17.913	0.100
625.100	-20.919	0.100
625.200	-19.380	0.100
625.300	-15.628	0.100
625.400	-21.116	0.100
625.500	-24.195	0.100
625.600	-25.301	0.100
625.700	-16.716	0.100
625.800	-16.561	0.100
625.900	-28.698	0.100
626.000	-17.993	0.100
626.100	-21.327	0.100
626.200	-5.748	0.100
626.300	-24.744	0.100
626.400	-25.912	0.100
626.500	-15.232	0.100
626.600	-24.205	0.100
626.700	-37.063	0.100
626.800	-16.149	0.100
626.900	-18.274	0.100
627.000	-10.149	0.100
627.100	-22.787	0.100
627.200	-23.173	0.100
627.300	-12.597	0.100
627.400	-17.726	0.100
627.500	-26.029	0.100
627.600	-24.629	0.100
627.700	-16.632	0.100
627.800	-23.138	0.100
627.900	-19.294	0.100
628.000	-30.094	0.100
628.100	-17.366	0.100
628.200	-13.997	0.100
628.300	-14.139	0.100
628.400	-26.064	0.100
628.500	-29.674	0.100
628.600	-32.812	0.100
628.700	-20.941	0.100
628.800	-17.300	0.100
628.900	-21.304	0.100
629.000	-25.015	0.100
629.100	-17.064	0.100
629.200	-17.253	0.100
629.300	-20.397	0.100
629.400	-21.887	0.100
629.500	-17.513	0.100
629.600	-20.729	0.100
629.700	-19.052	0.100
629.800	-24.510	0.100
629.900	-22.728	0.100
630.000	-22.882	0.100
630.100	-14.283	0.100
630.200	-17.906	0.100
630.300	-16.986	0.100
630.400	-34.774	0.100
630.500	-15.701	0.100
630.600	-15.626	0.100
630.700	-24.989	0.100
630.800	-6.038	0.100
630.900	-10.322	0.100
631.000	-21.715	0.100
631.100	-24.640	0.100
631.200	0.609	0.100
631.300	-14.030	0.100
631.400	-12.623	0.100
631.500	-14.087	0.100
631.600	-19.567	0.100
631.700	-6.479	0.100
631.800	-20.449	0.100
631.900	-10.750	0.100
632.000	-9.120	0.100
632.100	-20.613	0.100
632.200	-20.004	0.100
632.300	-0.829	0.100
632.400	-17.601	0.100
632.500	-9.694	0.100
632.600	1.091	0.100
632.700	1.656	0.100
632.800	-16.583	0.100
632.900	-0.283	0.100
633.000	-3.891	0.100
633.100	-13.143	0.100
633.200	-12.789	0.100
633.300	-12.752	0.100
633.400	-15.080	0.100
633.500	-5.257	0.100
633.600	-23.752	0.100
633.700	-14.151	0.100
633.800	-15.120	0.100
633.900	0.983	0.100
634.000	-11.260	0.100
634.100	5.501	0.100
634.200	6.201	0.100
634.300	13.526	0.100
634.400	-2.274	0.100
634.500	-7.716	0.100
634.600	-15.171	0.100
634.700	-4.351	0.100
634.800	-4.339	0.100
634.900	-13.624	0.100
635.000	-4.552	0.100
635.100	-0.496	0.100
635.200	-0.790	0.100
635.300	-17.703	0.100
635.400	-16.721	0.100
635.500	-4.195	0.100
635.600	-0.567	0.100
635.700	-4.177	0.100
635.800	-9.202	0.100
635.900	-1.986	0.100
636.000	-7.853	0.100
636.100	-3.459	0.100
636.200	-3.427	0.100
636.300	-10.384	0.100
636.400	-14.913	0.100
636.500	-5.915	0.100
636.600	2.745	0.100
636.700	-6.540	0.100
636.800	-17.153	0.100
636.900	3.954	0.100
637.000	1.822	0.100
637.100	-1.217	0.100
637.200	-9.318	0.100
637.300	3.874	0.100
637.400	3.597	0.100
637.500	-7.842	0.100
637.600	-12.914	0.100
637.700	4.915	0.100
637.800	-0.186	0.100
637.900	1.216	0.100
638.000	-6.881	0.100
638.100	-0.715	0.100
638.200	2.375	0.100
638.300	4.722	0.100
638.400	1.756	0.100
638.500	-14.391	0.100
638.600	-3.977	0.100
638.700	-8.535	0.100
638.800	-14.869	0.100
638.900	-3.326	0.100
639.000	3.053	0.100
639.100	-2.081	0.100
639.200	-14.832	0.100
639.300	-1.034	0.100
639.400	-0.096	0.100
639.500	11.479	0.100
639.600	-1.824	0.100
639.700	-4.673	0.100
639.800	-0.838	0.100
639.900	-13.934	0.100
640.000	4.992	0.100
640.100	-4.164	0.100
640.200	0.913	0.100
640.300	16.254	0.100
640.400	11.879	0.100
640.500	-4.364	0.100
640.600	0.510	0.100
640.700	-13.448	0.100
640.800	-5.000	0.100
640.900	10.880	0.100
641.000	-2.751	0.100
641.100	-5.825	0.100
641.200	7.023	0.100
641.300	4.204	0.100
641.400	12.024	0.100
641.500	2.436	0.100
641.600	9.171	0.100
641.700	-7.359	0.100
641.800	-1.578	0.100
641.900	11.548	0.100
642.000	6.805	0.100
642.100	-5.392	0.100
642.200	4.642	0.100
642.300	2.657	0.100
642.400	4.022	0.100
642.500	13.041	0.100
642.600	5.772	0.100
642.700	4.937	0.100
642.800	10.322	0.100
642.900	7.121	0.100
643.000	7.187	0.100
643.100	-1.328	0.100
643.200	3.956	0.100
643.300	14.574	0.100
643.400	5.346	0.100
643.500	1.183	0.100
643.600	16.501	0.100
643.700	8.326	0.100
643.800	13.696	0.100
643.900	15.687	0.100
644.000	-3.547	0.100
644.100	3.390	0.100
644.200	18.653	0.100
644.300	0.264	0.100
644.400	14.476	0.100
644.500	6.674	0.100
644.600	0.050	0.100
644.700	1.193	0.100
644.800	14.239	0.100
644.900	1.488	0.100
645.000	18.836	0.100
645.100	9.799	0.100
645.200	14.441	0.100
645.300	-10.126	0.100
645.400	6.618	0.100
645.500	11.079	0.100
645.600	15.755	0.100
645.700	18.359	0.100
645.800	16.244	0.100
645.900	17.472	0.100
646.000	12.431	0.100
646.100	15.851	0.100
646.200	11.933	0.100
646.300	16.491	0.100
646.400	18.598	0.100
646.500	17.767	0.100
646.600	11.424	0.100
646.700	13.877	0.100
646.800	18.641	0.100
646.900	4.281	0.100
647.000	12.940	0.100
647.100	29.360	0.100
647.200	24.701	0.100
647.300	17.268	0.100
647.400	14.764	0.100
647.500	9.290	0.100
647.600	21.203	0.100
647.700	12.184	0.100
647.800	25.339	0.100
647.900	18.729	0.100
648.000	23.292	0.100
648.100	24.103	0.100
648.200	17.294	0.100
648.300	11.064	0.100
648.400	21.479	0.100
648.500	24.118	0.100
648.600	22.342	0.100
648.700	14.484	0.100
648.800	15.997	0.100
648.900	12.359	0.100
649.000	22.299	0.100
649.100	21.638	0.100
649.200	18.099	0.100
649.300	24.974	0.100
649.400	26.976	0.100
649.500	29.100	0.100
649.600	18.266	0.100
649.700	22.970	0.100
649.800	31.145	0.100
649.900	20.761	0.100
650.000	21.496	0.100
650.100	16.100	0.100
650.200	13.025	0.100
650.300	26.948	0.100
650.400	19.188	0.100
650.500	23.531	0.100
650.600	25.745	0.100
650.700	24.732	0.100
650.800	23.542	0.100
650.900	23.896	0.100
651.000	23.268	0.100
651.100	33.601	0.100
651.200	29.452	0.100
651.300	23.232	0.100
651.400	28.848	0.100
651.500	28.296	0.100
651.600	35.658	0.100
651.700	33.899	0.100
651.800	20.654	0.100
651.900	29.815	0.100
652.000	26.468	0.100
652.100	27.899	0.100
652.200	31.806	0.100
652.300	17.257	0.100
652.400	28.657	0.100
652.500	20.381	0.100
652.600	27.609	0.100
652.700	28.938	0.100
652.800	31.668	0.100
652.900	31.194	0.100
653.000	24.195	0.100
653.100	26.718	0.100
653.200	27.891	0.100
653.300	27.017	0.100
653.400	28.869	0.100
653.500	39.945	0.100
653.600	45.938	0.100
653.700	30.463	0.100
653.800	28.204	0.100
653.900	26.384	0.100
654.000	24.759	0.100
654.100	26.266	0.100
654.200	39.190	0.100
654.300	31.720	0.100
654.400	36.115	0.100
654.500	19.106	0.100
654.600	24.679	0.100
654.700	32.238	0.100
654.800	31.236	0.100
654.900	44.410	0.100
655.000	37.187	0.100
655.100	35.298	0.100
655.200	37.576	0.100
655.300	33.371	0.100
655.400	35.902	0.100
655.500	35.303	0.100
655.600	32.344	0.100
655.700	25.880	0.100
655.800	38.775	0.100
655.900	29.625	0.100
656.000	33.177	0.100
656.100	46.004	0.100
656.200	39.115	0.100
656.300	50.427	0.100
656.400	35.718	0.100
656.500	33.105	0.100
656.600	32.494	0.100
656.700	29.537	0.100
656.800	32.543	0.100
656.900	42.327	0.100
657.000	39.612	0.100
657.100	43.789	0.100
657.200	39.846	0.100
657.300	40.711	0.100
657.400	32.813	0.100
657.500	42.597	0.100
657.600	39.518	0.100
657.700	39.114	0.100
657.800	27.551	0.100
657.900	35.953	0.100
658.000	35.893	0.100
658.100	43.650	0.100
658.200	34.515	0.100
658.300	38.816	0.100
658.400	31.150	0.100
658.500	51.728	0.100
658.600	41.427	0.100
658.700	44.051	0.100
658.800	29.192	0.100
658.900	35.481	0.100
659.000	32.027	0.100
659.100	35.566	0.100
659.200	42.426	0.100
659.300	43.013	0.100
659.400	45.195	0.100
659.500	45.078	0.100
659.600	39.612	0.100
659.700	40.426	0.100
659.800	46.197	0.100
659.900	34.567	0.100
660.000	48.961	0.100
660.100	42.287	0.100
660.200	43.276	0.100
660.300	34.999	0.100
660.400	43.148	0.100
660.500	40.988	0.100
660.600	50.405	0.100
660.700	46.410	0.100
660.800	39.656	0.100
660.900	32.068	0.100
661.000	37.903	0.100
661.100	37.703	0.100
661.200	36.475	0.100
661.300	39.420	0.100
661.400	50.341	0.100
661.500	48.915	0.100
661.600	38.505	0.100
661.700	34.982	0.100
661.800	54.380	0.100
661.900	52.191	0.100
662.000	31.749	0.100
662.100	42.643	0.100
662.200	34.168	0.100
662.300	44.622	0.100
662.400	55.968	0.100
662.500	41.499	0.100
662.600	62.112	0.100
662.700	37.708	0.100
662.800	47.819	0.100
662.900	44.114	0.100
663.000	34.792	0.100
663.100	45.363	0.100
663.200	51.406	0.100
663.300	41.015	0.100
663.400	37.656	0.100
663.500	46.481	0.100
663.600	42.385	0.100
663.700	40.904	0.100
663.800	49.432	0.100
663.900	56.644	0.100
664.000	48.682	0.100
664.100	50.948	0.100
664.200	39.529	0.100
664.300	39.692	0.100
664.400	58.206	0.100
664.500	52.003	0.100
664.600	51.931	0.100
664.700	41.939	0.100
664.800	40.069	0.100
664.900	37.786	0.100
665.000	52.726	0.100
665.100	47.119	0.100
665.200	51.002	0.100
665.300	53.715	0.100
665.400	50.499	0.100
665.500	45.302	0.100
665.600	45.523	0.100
665.700	42.566	0.100
665.800	44.039	0.100
665.900	46.173	0.100
666.000	50.165	0.100
666.100	50.067	0.100
666.200	49.038	0.099
666.300	48.086	0.100
666.400	54.363	0.100
666.500	54.032	0.099
666.600	47.595	0.100
666.700	57.164	0.099
666.800	43.032	0.100
666.900	57.644	0.100
667.000	31.423	0.099
667.100	51.040	0.100
667.200	45.224	0.100
667.300	56.887	0.100
667.400	62.483	0.100
667.500	50.159	0.100
667.600	51.443	0.099
667.700	47.148	0.100
667.800	32.237	0.100
667.900	42.406	0.100
668.000	58.087	0.099
668.100	49.202	0.100
668.200	52.147	0.100
668.300	50.326	0.100
668.400	46.634	0.100
668.500	54.377	0.099
668.600	49.154	0.099
668.700	42.856	0.099
668.800	47.336	0.099
668.900	58.412	0.099
669.000	42.439	0.099
669.100	48.483	0.099
669.200	50.249	0.099
669.300	56.916	0.099
669.400	45.604	0.099
669.500	50.865	0.100
669.600	38.114	0.099
669.700	56.086	0.099
669.800	46.601	0.099
669.900	46.829	0.100
670.000	56.480	0.099
670.100	51.843	0.099
670.200	41.393	0.099
670.300	70.749	0.099
670.400	43.866	0.100
670.500	65.218	0.099
670.600	57.753	0.099
670.700	57.169	0.099
670.800	54.940	0.099
670.900	52.987	0.099
671.000	47.954	0.099
671.100	51.238	0.100
671.200	46.302	0.099
671.300	47.070	0.099
671.400	45.670	0.099
671.500	48.889	0.099
671.600	41.172	0.099
671.700	54.699	0.099
671.800	70.062	0.099
671.900	66.691	0.100
672.000	47.989	0.099
672.100	47.021	0.099
672.200	41.608	0.099
672.300	60.356	0.099
672.400	44.881	0.099
672.500	46.585	0.099
672.600	55.482	0.099
672.700	53.419	0.099
672.800	59.638	0.099
672.900	56.131	0.099
673.000	57.155	0.099
673.100	35.191	0.099
673.200	56.263	0.099
673.300	61.289	0.099
673.400	60.610	0.099
673.500	47.753	0.099
673.600	49.519	0.099
673.700	52.860	0.099
673.800	47.945	0.099
673.900	63.819	0.099
674.000	49.394	0.099
674.100	54.918	0.099
674.200	52.159	0.099
674.300	48.313	0.099
674.400	42.250	0.099
674.500	60.934	0.099
674.600	51.480	0.099
674.700	52.207	0.099
674.800	46.616	0.099
674.900	51.937	0.099
675.000	59.727	0.099
675.100	53.318	0.099
675.200	40.059	0.099
675.300	48.227	0.099
675.400	57.067	0.099
675.500	51.799	0.099
675.600	59.753	0.099
675.700	46.723	0.099
675.800	49.509	0.099
675.900	58.962	0.099
676.000	52.180	0.099
676.100	55.067	0.099
676.200	51.258	0.099
676.300	55.619	0.099
676.400	55.134	0.099
676.500	56.733	0.099
676.600	59.483	0.099
676.700	42.621	0.099
676.800	48.909	0.099
676.900	45.495	0.099
677.000	42.757	0.099
677.100	58.967	0.099
677.200	46.801	0.099
677.300	58.242	0.099
677.400	62.471	0.099
677.500	49.754	0.099
677.600	59.122	0.099
677.700	49.637	0.099
677.800	54.744	0.099
677.900	56.350	0.099
678.000	49.246	0.099
678.100	59.094	0.099
678.200	51.790	0.099
678.300	40.659	0.099
678.400	40.435	0.099
678.500	57.796	0.099
678.600	50.781	0.099
678.700	57.757	0.099
678.800	59.612	0.099
678.900	45.550	0.099
679.000	52.593	0.099
679.100	61.476	0.099
679.200	44.166	0.099
679.300	56.897	0.099
679.400	49.761	0.099
679.500	59.940	0.099
679.600	50.730	0.099
679.700	46.248	0.099
679.800	50.750	0.099
679.900	55.660	0.099
680.000	50.959	0.099
680.100	66.624	0.099
680.200	58.375	0.099
680.300	52.958	0.099
680.400	55.286	0.099
680.500	54.159	0.099
680.600	54.639	0.099
680.700	61.622	0.099
680.800	47.166	0.099
680.900	48.466	0.099
681.000	55.219	0.099
681.100	52.009	0.099
681.200	52.801	0.099
681.300	59.220	0.099
681.400	66.359	0.099
681.500	44.890	0.099
681.600	51.696	0.099
681.700	56.024	0.099
681.800	57.895	0.099
681.900	51.718	0.099
682.000	41.234	0.099
682.100	55.484	0.099
682.200	63.155	0.099
682.300	64.548	0.099
682.400	48.875	0.099
682.500	65.739	0.099
682.600	57.236	0.099
682.700	43.789	0.099
682.800	52.023	0.099
682.900	51.993	0.099
683.000	63.021	0.099
683.100	64.338	0.099
683.200	54.215	0.099
683.300	40.728	0.099
683.400	41.422	0.099
683.500	53.214	0.099
683.600	57.442	0.099
683.700	49.677	0.099
683.800	64.064	0.099
683.900	57.691	0.099
684.000	52.010	0.099
684.100	50.629	0.099
684.200	50.350	0.099
684.300	60.589	0.099
684.400	48.365	0.099
684.500	45.784	0.099
684.600	53.204	0.099
684.700	54.204	0.099
684.800	57.806	0.099
684.900	51.201	0.099
685.000	72.141	0.099
685.100	48.452	0.099
685.200	53.410	0.099
685.300	45.203	0.099
685.400	58.530	0.099
685.500	55.631	0.099
685.600	49.637	0.099
685.700	51.955	0.099
685.800	50.805	0.099
685.900	57.058	0.099
686.000	45.649	0.099
686.100	48.629	0.099
686.200	52.812	0.099
686.300	53.208	0.099
686.400	63.198	0.099
686.500	57.753	0.099
686.600	60.578	0.099
686.700	29.539	0.099
686.800	40.918	0.099
686.900	69.296	0.099
687.000	62.934	0.099
687.100	57.811	0.099
687.200	55.263	0.099
687.300	53.457	0.099
687.400	56.891	0.099
687.500	45.750	0.099
687.600	67.588	0.099
687.700	38.914	0.099
687.800	47.434	0.099
687.900	55.818	0.099
688.000	53.329	0.099
688.100	55.254	0.099
688.200	51.532	0.099
688.300	51.762	0.099
688.400	53.899	0.099
688.500	55.777	0.099
688.600	52.582	0.099
688.700	63.219	0.099
688.800	42.146	0.099
688.900	60.788	0.099
689.000	50.979	0.099
689.100	45.354	0.099
689.200	66.961	0.099
689.300	51.803	0.099
689.400	52.804	0.099
689.500	50.723	0.099
689.600	50.808	0.099
689.700	63.618	0.099
689.800	59.968	0.099
689.900	53.008	0.099
690.000	44.247	0.099
690.100	59.859	0.099
690.200	53.252	0.099
690.300	53.988	0.099
690.400	51.497	0.099
690.500	46.173	0.099
690.600	61.676	0.099
690.700	46.939	0.099
690.800	46.999	0.099
690.900	51.325	0.099
691.000	46.637	0.099
691.100	45.555	0.099
691.200	42.459	0.099
691.300	44.766	0.099
691.400	51.196	0.099
691.500	60.678	0.099
691.600	52.676	0.099
691.700	46.455	0.099
691.800	48.569	0.099
691.900	49.394	0.099
692.000	51.172	0.099
692.100	50.902	0.099
692.200	43.706	0.099
692.300	45.193	0.099
692.400	47.969	0.099
692.500	42.708	0.099
692.600	37.955	0.099
692.700	42.364	0.099
692.800	27.062	0.099
692.900	34.190	0.099
693.000	52.259	0.099
693.100	37.179	0.099
693.200	40.020	0.099
693.300	31.466	0.099
693.400	48.023	0.099
693.500	48.440	0.099
693.600	30.926	0.099
693.700	44.997	0.099
693.800	44.481	0.099
693.900	34.538	0.099
694.000	32.625	0.099
694.100	43.579	0.099
694.200	46.115	0.099
694.300	37.302	0.099
694.400	33.620	0.099
694.500	21.220	0.099
694.600	26.919	0.099
694.700	40.058	0.099
694.800	26.370	0.099
694.900	33.465	0.099
695.000	28.627	0.099
695.100	22.840	0.099
695.200	33.065	0.099
695.300	30.719	0.099
695.400	35.418	0.099
695.500	38.804	0.099
695.600	51.071	0.099
695.700	33.468	0.099
695.800	20.901	0.099
695.900	39.322	0.099
696.000	29.807	0.099
696.100	36.244	0.099
696.200	19.504	0.099
696.300	27.425	0.099
696.400	29.898	0.099
696.500	25.253	0.099
696.600	26.819	0.099
696.700	38.070	0.099
696.800	18.749	0.099
696.900	28.539	0.099
697.000	18.558	0.099
697.100	20.803	0.099
697.200	35.729	0.099
697.300	24.453	0.099
697.400	17.423	0.099
697.500	23.465	0.099
697.600	17.757	0.099
697.700	30.393	0.099
697.800	15.171	0.099
697.900	29.266	0.099
698.000	15.552	0.099
698.100	20.769	0.099
698.200	21.962	0.099
698.300	25.383	0.099
698.400	9.922	0.099
698.500	17.081	0.099
698.600	30.928	0.099
698.700	21.632	0.099
698.800	20.723	0.099
698.900	11.772	0.099
699.000	27.977	0.099
699.100	17.905	0.099
699.200	25.429	0.099
699.300	22.803	0.099
699.400	23.956	0.099
699.500	5.768	0.099
699.600	31.251	0.099
699.700	16.279	0.099
699.800	38.024	0.099
699.900	16.720	0.099
700.000	24.384	0.099
700.100	7.960	0.099
700.200	19.996	0.099
700.300	20.375	0.099
700.400	29.818	0.099
700.500	13.432	0.099
700.600	11.354	0.099
700.700	11.027	0.099
700.800	20.602	0.099
700.900	17.918	0.099
701.000	11.573	0.099
701.100	11.734	0.099
701.200	20.278	0.099
701.300	30.891	0.099
701.400	18.985	0.099
701.500	17.219	0.099
701.600	22.969	0.099
701.700	20.461	0.099
701.800	16.383	0.099
701.900	9.764	0.099
702.000	18.485	0.099
702.100	20.153	0.099
702.200	13.181	0.099
702.300	22.581	0.099
702.400	12.647	0.099
702.500	18.276	0.099
702.600	8.749	0.099
702.700	14.502	0.099
702.800	18.833	0.099
702.900	18.039	0.099
703.000	9.796	0.099
703.100	13.523	0.099
703.200	12.085	0.099
703.300	12.742	0.099
703.400	7.091	0.099
703.500	16.175	0.099
703.600	18.238	0.099
703.700	0.148	0.099
703.800	7.704	0.099
703.900	29.013	0.099
704.000	11.789	0.099
704.100	12.739	0.099
704.200	19.011	0.099
704.300	14.843	0.099
704.400	6.540	0.099
704.500	9.781	0.099
704.600	10.242	0.099
704.700	20.225	0.099
704.800	10.337	0.099
704.900	15.787	0.099
705.000	5.579	0.099
705.100	21.384	0.099
705.200	15.673	0.099
705.300	2.248	0.099
705.400	7.172	0.099
705.500	20.610	0.099
705.600	10.031	0.099
705.700	3.867	0.099
705.800	8.478	0.099
705.900	5.875	0.099
706.000	2.653	0.099
706.100	13.204	0.099
706.200	1.279	0.099
706.300	6.027	0.099
706.400	21.302	0.099
706.500	23.131	0.099
706.600	12.661	0.099
706.700	6.450	0.099
706.800	13.291	0.099
706.900	8.654	0.099
707.000	7.199	0.099
707.100	-4.905	0.099
707.200	1.471	0.099
707.300	19.504	0.099
707.400	13.564	0.099
707.500	8.331	0.099
707.600	0.723	0.099
707.700	-7.613	0.099
707.800	15.690	0.099
707.900	9.083	0.099
708.000	6.117	0.099
708.100	3.713	0.099
708.200	-2.472	0.099
708.300	8.214	0.099
708.400	8.009	0.099
708.500	6.939	0.099
708.600	10.507	0.099
708.700	8.108	0.099
708.800	12.707	0.099
708.900	9.936	0.099
709.000	10.943	0.099
709.100	-2.411	0.099
709.200	0.828	0.099
709.300	5.374	0.099
709.400	7.089	0.099
709.500	-1.059	0.099
709.600	7.725	0.099
709.700	2.444	0.099
709.800	-7.755	0.099
709.900	4.120	0.099
710.000	5.128	0.099
710.100	8.196	0.099
710.200	12.738	0.099
710.300	3.506	0.100
710.400	-8.325	0.100
710.500	19.423	0.099
710.600	9.831	0.100
710.700	5.981	0.100
710.800	4.949	0.099
710.900	4.224	0.100
711.000	16.527	0.100
711.100	10.489	0.100
711.200	2.826	0.100
711.300	2.719	0.100
711.400	6.126	0.100
711.500	-2.446	0.100
711.600	-0.041	0.100
711.700	14.567	0.100
711.800	-1.302	0.100
711.900	-4.860	0.100
712.000	-3.895	0.100
712.100	4.928	0.100
712.200	8.901	0.100
712.300	-0.229	0.100
712.400	12.077	0.100
712.500	3.330	0.100
712.600	1.333	0.100
712.700	-4.935	0.100
712.800	4.492	0.100
712.900	3.730	0.100
713.000	4.546	0.100
713.100	-3.835	0.100
713.200	12.070	0.100
713.300	10.212	0.100
713.400	-11.501	0.100
713.500	-1.865	0.100
713.600	8.795	0.100
713.700	-4.013	0.100
713.800	0.415	0.100
713.900	4.865	0.100
714.000	-8.207	0.100
714.100	-3.197	0.100
714.200	9.318	0.100
714.300	5.620	0.100
714.400	12.805	0.100
714.500	9.204	0.100
714.600	-5.930	0.100
714.700	6.859	0.100
714.800	-8.004	0.100
714.900	-2.216	0.100
715.000	-7.636	0.100
715.100	9.019	0.100
715.200	10.486	0.100
715.300	17.019	0.100
715.400	-15.298	0.100
715.500	-0.705	0.100
715.600	3.341	0.100
715.700	1.003	0.100
715.800	6.151	0.100
715.900	3.654	0.100
716.000	-1.486	0.100
716.100	0.277	0.100
716.200	-1.186	0.100
716.300	8.041	0.100
716.400	-3.038	0.100
716.500	4.084	0.100
716.600	3.568	0.100
716.700	3.911	0.100
716.800	12.082	0.100
716.900	-2.809	0.100
717.000	-0.767	0.100
717.100	-10.009	0.100
717.200	-9.594	0.100
717.300	5.294	0.100
717.400	2.769	0.100
717.500	7.889	0.100
717.600	4.521	0.100
717.700	2.613	0.100
717.800	-1.633	0.100
717.900	-6.248	0.100
718.000	-6.350	0.100
718.100	6.005	0.100
718.200	0.370	0.100
718.300	-4.043	0.100
718.400	-6.379	0.100
718.500	-0.329	0.100
718.600	3.362	0.100
718.700	1.891	0.100
718.800	-4.226	0.100
718.900	4.820	0.100
719.000	4.799	0.100
719.100	12.362	0.100
719.200	-0.104	0.100
719.300	-9.796	0.100
719.400	-9.241	0.100
719.500	14.167	0.100
719.600	-15.474	0.100
719.700	-0.577	0.100
719.800	9.066	0.100
719.900	1.731	0.100
720.000	-5.809	0.100
720.100	5.095	0.100
720.200	6.902	0.100
720.300	9.654	0.100
720.400	4.176	0.100
720.500	1.354	0.100
720.600	1.129	0.100
720.700	3.614	0.100
720.800	-4.416	0.100
720.900	10.583	0.100
721.000	-10.488	0.100
721.100	-12.093	0.100
721.200	5.577	0.100
721.300	20.144	0.100
721.400	8.141	0.100
721.500	6.657	0.100
721.600	1.264	0.100
721.700	-2.233	0.100
721.800	3.940	0.100
721.900	-7.365	0.100
722.000	-1.629	0.100
722.100	-3.617	0.100
722.200	13.014	0.100
722.300	4.258	0.100
722.400	-6.051	0.100
722.500	-6.524	0.100
722.600	11.430	0.100
722.700	-4.088	0.100
722.800	16.477	0.100
722.900	-7.439	0.100
723.000	3.522	0.100
723.100	-6.231	0.100
723.200	13.287	0.100
723.300	4.167	0.100
723.400	4.813	0.100
723.500	3.580	0.100
723.600	4.311	0.100
723.700	8.006	0.100
723.800	1.363	0.100
723.900	6.565	0.100
724.000	-4.305	0.100
724.100	7.633	0.100
724.200	3.522	0.100
724.300	-0.922	0.100
724.400	2.096	0.100
724.500	-8.682	0.101
724.600	1.767	0.100
724.700	2.780	0.100
724.800	5.245	0.101
724.900	0.172	0.100
725.000	-1.304	0.100
725.100	-2.069	0.100
725.200	2.878	0.100
725.300	4.645	0.101
725.400	-3.435	0.101
725.500	2.052	0.100
725.600	-0.767	0.101
725.700	-6.752	0.100
725.800	-2.490	0.100
725.900	-5.227	0.100
726.000	9.781	0.100
726.100	6.232	0.101
726.200	1.518	0.100
726.300	-10.935	0.101
726.400	0.077	0.100
726.500	-5.654	0.100
726.600	7.463	0.101
726.700	-1.190	0.100
726.800	3.166	0.100
726.900	6.557	0.100
727.000	-0.205	0.100
727.100	0.568	0.100
727.200	-7.627	0.100
727.300	-2.710	0.100
727.400	2.251	0.100
727.500	2.352	0.100
727.600	-0.830	0.100
727.700	-3.019	0.100
727.800	5.656	0.100
727.900	2.119	0.100
728.000	-4.428	0.100
728.100	-15.546	0.100
728.200	-7.065	0.100
728.300	2.524	0.100
728.400	11.590	0.100
728.500	-20.023	0.100
728.600	1.135	0.100
728.700	5.300	0.100
728.800	-8.815	0.100
728.900	3.529	0.100
729.000	1.632	0.100
729.100	2.582	0.100
729.200	-3.732	0.100
729.300	-5.866	0.100
729.400	-5.213	0.100
729.500	-3.464	0.100
729.600	-6.001	0.100
729.700	4.098	0.100
729.800	2.909	0.100
729.900	-2.763	0.100
730.000	-2.316	0.100
730.100	-19.630	0.100
730.200	4.498	0.100
730.300	-3.953	0.100
730.400	1.365	0.100
730.500	-22.788	0.100
730.600	-6.416	0.100
730.700	-8.694	0.100
730.800	0.815	0.100
730.900	2.461	0.100
731.000	-15.577	0.100
731.100	-7.301	0.100
731.200	1.172	0.100
731.300	-2.956	0.100
731.400	-18.401	0.100
731.500	-7.934	0.100
731.600	-5.027	0.100
731.700	-7.431	0.100
731.800	-12.183	0.100
731.900	-8.400	0.100
732.000	-9.174	0.100
732.100	-20.058	0.100
732.200	-6.128	0.100
732.300	-3.042	0.100
732.400	-7.846	0.100
732.500	-21.724	0.100
732.600	-2.248	0.100
732.700	-17.809	0.100
732.800	-15.459	0.100
732.900	-4.278	0.100
733.000	-4.379	0.100
733.100	-9.628	0.100
733.200	-10.922	0.100
733.300	-19.563	0.100
733.400	-4.454	0.100
733.500	-12.254	0.100
733.600	-3.386	0.100
733.700	-18.865	0.100
733.800	-2.808	0.100
733.900	-18.212	0.100
734.000	-15.323	0.100
734.100	-7.820	0.100
734.200	-15.822	0.100
734.300	-7.709	0.100
734.400	-20.450	0.100
734.500	-12.313	0.100
734.600	-5.596	0.100
734.700	-33.425	0.100
734.800	-14.093	0.100
734.900	-11.102	0.100
735.000	-23.248	0.100
735.100	-1.069	0.100
735.200	-23.775	0.100
735.300	-17.354	0.100
735.400	-2.932	0.100
735.500	-17.752	0.100
735.600	-13.577	0.100
735.700	-3.038	0.100
735.800	-15.146	0.100
735.900	-31.311	0.100
736.000	-12.330	0.100
736.100	-12.240	0.100
736.200	-15.577	0.100
736.300	-15.281	0.100
736.400	-13.255	0.100
736.500	-20.447	0.100
736.600	-14.987	0.100
736.700	-13.587	0.100
736.800	-31.397	0.100
736.900	-8.802	0.100
737.000	-11.018	0.100
737.100	-12.349	0.100
737.200	-2.601	0.100
737.300	-12.375	0.100
737.400	-13.124	0.100
737.500	-13.368	0.100
737.600	-16.632	0.100
737.700	-23.029	0.100
737.800	-4.848	0.100
737.900	-10.273	0.100
738.000	-0.631	0.100
738.100	-7.874	0.100
738.200	-21.462	0.100
738.300	-17.927	0.100
738.400	-18.842	0.100
738.500	-15.453	0.100
738.600	-6.588	0.100
738.700	-19.630	0.100
738.800	-7.249	0.100
738.900	-2.772	0.100
739.000	-14.090	0.100
739.100	-8.944	0.100
739.200	-15.720	0.100
739.300	-19.298	0.100
739.400	-15.315	0.100
739.500	-24.491	0.100
739.600	-19.898	0.100
739.700	-20.516	0.100
739.800	-21.746	0.100
739.900	-17.941	0.100
740.000	-17.624	0.100
740.100	-6.990	0.100
740.200	-2.362	0.100
740.300	-13.385	0.100
740.400	-18.746	0.100
740.500	-39.796	0.100
740.600	-16.049	0.100
740.700	-9.494	0.100
740.800	-22.298	0.100
740.900	-19.399	0.100
741.000	-21.664	0.100
741.100	-28.963	0.100
741.200	-17.809	0.100
741.300	-18.603	0.100
741.400	-15.298	0.100
741.500	-11.791	0.100
741.600	-22.204	0.100
741.700	-16.572	0.100
741.800	-17.262	0.100
741.900	-20.663	0.100
742.000	-24.067	0.100
742.100	-29.226	0.100
742.200	-11.067	0.100
742.300	-12.752	0.100
742.400	-23.112	0.100
742.500	-11.115	0.100
742.600	-16.299	0.100
742.700	-15.396	0.100
742.800	-14.936	0.100
742.900	-13.922	0.100
743.000	-27.186	0.100
743.100	-16.698	0.100
743.200	-20.484	0.100
743.300	-24.053	0.100
743.400	-13.135	0.100
743.500	-11.073	0.100
743.600	-7.914	0.100
743.700	-13.523	0.100
743.800	-13.906	0.100
743.900	-15.025	0.100
744.000	-22.465	0.100
744.100	-11.227	0.100
744.200	-36.801	0.100
744.300	-17.450	0.100
744.400	-13.296	0.100
744.500	-14.472	0.100
744.600	-19.305	0.100
744.700	-18.822	0.100
744.800	-22.819	0.100
744.900	-23.984	0.100
745.000	-15.152	0.100
745.100	-22.014	0.100
745.200	-24.286	0.100
745.300	-25.365	0.100
745.400	-9.169	0.100
745.500	-16.282	0.100
745.600	-12.128	0.100
745.700	-11.601	0.100
745.800	-2.693	0.100
745.900	-14.542	0.100
746.000	-31.500	0.100
746.100	-12.914	0.100
746.200	-24.448	0.100
746.300	-10.333	0.100
746.400	-27.490	0.100
746.500	-17.809	0.100
746.600	-21.571	0.100
746.700	-17.069	0.100
746.800	-22.550	0.100
746.900	-18.729	0.100
747.000	-22.947	0.100
747.100	-19.109	0.100
747.200	-21.681	0.100
747.300	-26.879	0.100
747.400	-7.963	0.100
747.500	-16.365	0.100
747.600	-26.392	0.100
747.700	-29.246	0.100
747.800	-26.326	0.100
747.900	-8.224	0.100
748.000	-19.770	0.100
748.100	-26.777	0.100
748.200	-17.665	0.100
748.300	-28.461	0.100
748.400	-15.861	0.100
748.500	-16.397	0.100
748.600	-8.546	0.100
748.700	-25.173	0.100
748.800	-18.827	0.100
748.900	-22.252	0.100
749.000	-36.506	0.100
749.100	-19.738	0.100
749.200	-22.934	0.100
749.300	-6.412	0.100
749.400	-20.601	0.100
749.500	-17.395	0.100
749.600	-16.771	0.100
749.700	-21.018	0.100
749.800	-32.884	0.100
749.900	-18.577	0.100
750.000	-21.858	0.100
750.100	-13.877	0.100
750.200	-23.544	0.100
750.300	-14.686	0.100
750.400	-18.832	0.100
750.500	-19.388	0.100
750.600	-27.267	0.100
750.700	-13.547	0.100
750.800	-21.904	0.100
750.900	-33.117	0.100
751.000	-21.677	0.100
751.100	-17.182	0.100
751.200	-15.500	0.100
751.300	-15.810	0.100
751.400	-25.515	0.100
751.500	-10.272	0.100
751.600	-17.381	0.100
751.700	-20.579	0.100
751.800	-16.108	0.100
751.900	-16.100	0.100
752.000	-14.320	0.100
752.100	-30.157	0.100
752.200	-12.002	0.100
752.300	-24.675	0.100
752.400	-27.666	0.100
752.500	-25.028	0.100
752.600	-26.495	0.100
752.700	-31.534	0.100
752.800	-25.068	0.100
752.900	-22.367	0.100
753.000	-20.990	0.100
753.100	-31.435	0.100
753.200	-15.134	0.100
753.300	-22.446	0.100
753.400	-12.914	0.100
753.500	-16.098	0.100
753.600	-14.342	0.100
753.700	-15.988	0.100
753.800	-19.871	0.100
753.900	-29.297	0.100
754.000	-34.958	0.100
754.100	-20.903	0.100
754.200	-28.587	0.100
754.300	-18.194	0.100
754.400	-13.052	0.100
754.500	-20.216	0.100
754.600	-16.638	0.100
754.700	-19.727	0.100
754.800	-20.584	0.100
754.900	-22.561	0.100
755.000	-13.452	0.100
755.100	-26.059	0.100
755.200	-16.347	0.100
755.300	-30.874	0.100
755.400	-28.906	0.100
755.500	-24.111	0.100
755.600	-33.465	0.100
755.700	-29.743	0.100
755.800	-19.371	0.100
755.900	-24.419	0.100
756.000	-20.075	0.100
756.100	-17.544	0.100
756.200	-31.639	0.100
756.300	-25.348	0.100
756.400	-21.364	0.100
756.500	-28.158	0.100
756.600	-19.491	0.100
756.700	-40.092	0.100
756.800	-24.102	0.100
756.900	-31.495	0.100
757.000	-12.185	0.100
757.100	-18.839	0.100
757.200	-25.190	0.100
757.300	-21.068	0.100
757.400	-32.199	0.100
757.500	-21.044	0.100
757.600	-21.663	0.100
757.700	-25.192	0.100
757.800	-19.135	0.100
757.900	-27.698	0.100
758.000	-24.359	0.100
758.100	-21.609	0.100
758.200	-25.923	0.100
758.300	-11.943	0.100
758.400	-9.234	0.100
758.500	-17.036	0.100
758.600	-28.189	0.100
758.700	-36.117	0.100
758.800	-23.030	0.100
758.900	-14.788	0.100
759.000	-23.115	0.100
759.100	-21.324	0.100
759.200	-21.503	0.100
759.300	-27.670	0.100
759.400	-32.266	0.100
759.500	-22.124	0.100
759.600	-17.732	0.100
759.700	-15.726	0.100
759.800	-18.976	0.100
759.900	-25.488	0.100
760.000	-25.014	0.100
760.100	-26.628	0.100
760.200	-17.699	0.100
760.300	-6.810	0.100
760.400	-25.279	0.100
760.500	-22.848	0.100
760.600	-33.143	0.100
760.700	-18.177	0.100
760.800	-25.785	0.100
760.900	-27.244	0.100
761.000	-17.624	0.100
761.100	-26.420	0.100
761.200	-19.186	0.100
761.300	-36.181	0.100
761.400	-13.097	0.100
761.500	-18.592	0.100
761.600	-28.248	0.100
761.700	-30.749	0.100
761.800	-18.881	0.100
761.900	-20.510	0.100
762.000	-19.181	0.100
762.100	-26.220	0.100
762.200	-23.414	0.100
762.300	-13.781	0.100
762.400	-21.073	0.100
762.500	-24.690	0.100
762.600	-23.181	0.100
762.700	-24.661	0.100
762.800	-17.499	0.100
762.900	-31.950	0.100
763.000	-33.680	0.100
763.100	-29.134	0.100
763.200	-10.175	0.100
763.300	-27.658	0.100
763.400	-26.952	0.100
763.500	-19.016	0.100
763.600	-17.978	0.100
763.700	-21.973	0.100
763.800	-28.599	0.100
763.900	-26.725	0.100
764.000	-30.416	0.100
764.100	-22.708	0.100
764.200	-30.135	0.100
764.300	-31.215	0.100
764.400	-7.032	0.100
764.500	-28.828	0.100
764.600	-25.572	0.100
764.700	-39.692	0.100
764.800	-36.289	0.100
764.900	-26.153	0.100
765.000	-17.777	0.100
765.100	-21.960	0.100
765.200	-20.653	0.100
765.300	-25.160	0.100
765.400	-27.247	0.100
765.500	-13.860	0.100
765.600	-11.175	0.100
765.700	-36.321	0.100
765.800	-18.885	0.100
765.900	-26.052	0.100
766.000	-21.044	0.100
766.100	-26.364	0.100
766.200	-22.299	0.100
766.300	-21.370	0.100
766.400	-21.431	0.100
766.500	-30.418	0.100
766.600	-29.354	0.100
766.700	-14.726	0.100
766.800	-36.480	0.100
766.900	-13.859	0.100
767.000	-40.070	0.100
767.100	-19.521	0.100
767.200	-29.136	0.100
767.300	-31.701	0.100
767.400	-20.073	0.100
767.500	-27.047	0.100
767.600	-22.229	0.100
767.700	-9.784	0.100
767.800	-26.165	0.100
767.900	-24.850	0.100
768.000	-25.803	0.100
768.100	-26.389	0.100
768.200	-20.817	0.100
768.300	-27.114	0.100
768.400	-24.540	0.100
768.500	-28.549	0.100
768.600	-27.959	0.100
768.700	-24.451	0.100
768.800	-14.386	0.100
768.900	-18.905	0.100
769.000	-22.115	0.100
769.100	-32.918	0.100
769.200	-18.891	0.100
769.300	-23.050	0.100
769.400	-30.586	0.100
769.500	-35.893	0.100
769.600	-18.595	0.100
769.700	-9.462	0.100
769.800	-33.447	0.100
769.900	-13.028	0.100
770.000	-20.916	0.100
770.100	-9.827	0.100
770.200	-27.531	0.100
770.300	-24.290	0.100
770.400	-23.789	0.100
770.500	-21.129	0.100
770.600	-27.499	0.100
770.700	-34.702	0.100
770.800	-20.955	0.100
770.900	-24.310	0.100
771.000	-21.793	0.100
771.100	-18.608	0.100
771.200	-26.673	0.100
771.300	-27.664	0.100
771.400	-21.905	0.100
771.500	-23.013	0.100
771.600	-18.005	0.100
771.700	-17.196	0.100
771.800	-21.419	0.100
771.900	-25.713	0.100
772.000	-24.439	0.100
772.100	-13.813	0.100
772.200	-24.782	0.100
772.300	-19.180	0.100
772.400	-20.965	0.100
772.500	-35.726	0.100
772.600	-37.786	0.100
772.700	-18.033	0.100
772.800	-26.838	0.100
772.900	-22.221	0.100
773.000	-26.115	0.100
773.100	-29.369	0.100
773.200	-35.374	0.100
773.300	-19.210	0.100
773.400	-13.112	0.100
773.500	-18.169	0.100
773.600	-34.198	0.100
773.700	-17.578	0.100
773.800	-17.648	0.100
773.900	-29.746	0.100
774.000	-29.463	0.100
774.100	-20.959	0.100
774.200	-20.366	0.100
774.300	-24.025	0.100
774.400	-30.706	0.100
774.500	-24.563	0.100
774.600	-28.253	0.100
774.700	-21.136	0.100
774.800	-3.775	0.100
774.900	-28.337	0.100
775.000	-17.708	0.100
775.100	-26.677	0.100
775.200	-27.563	0.100
775.300	-21.237	0.100
775.400	-26.699	0.100
775.500	-20.771	0.100
775.600	-20.196	0.100
775.700	-35.430	0.100
775.800	-14.522	0.100
775.900	-24.045	0.100
776.000	-28.504	0.100
776.100	-34.031	0.100
776.200	-33.175	0.100
776.300	-27.487	0.100
776.400	-21.930	0.100
776.500	-17.187	0.100
776.600	-17.895	0.100
776.700	-19.302	0.100
776.800	-27.589	0.100
776.900	-39.166	0.100
777.000	-30.629	0.100
777.100	-10.549	0.100
777.200	-14.570	0.100
777.300	-18.735	0.100
777.400	-18.131	0.100
777.500	-22.152	0.100
777.600	-20.972	0.100
777.700	-23.789	0.100
777.800	-29.138	0.100
777.900	-30.097	0.100
778.000	-16.687	0.100
778.100	-26.597	0.100
778.200	-17.291	0.100
778.300	-35.180	0.100
778.400	-20.876	0.100
778.500	-12.275	0.100
778.600	-30.068	0.100
778.700	-16.842	0.100
778.800	-30.903	0.100
778.900	-28.512	0.100
779.000	-20.887	0.100
779.100	-18.867	0.100
779.200	-25.601	0.100
779.300	-27.508	0.100
779.400	-20.999	0.100
779.500	-16.164	0.100
779.600	-28.075	0.100
779.700	-16.526	0.100
779.800	-22.402	0.100
779.900	-19.541	0.100
780.000	-30.634	0.100
780.100	-29.556	0.100
780.200	-22.649	0.100
780.300	-32.282	0.100
780.400	-29.541	0.100
780.500	-16.929	0.100
780.600	-16.857	0.100
780.700	-17.880	0.100
780.800	-22.868	0.100
780.900	-19.776	0.100
781.000	-22.400	0.100
781.100	-21.434	0.100
781.200	-13.710	0.100
781.300	-19.084	0.100
781.400	-28.560	0.100
781.500	-13.551	0.100
781.600	-18.799	0.100
781.700	-17.668	0.100
781.800	-13.876	0.100
781.900	-17.395	0.100
782.000	-20.003	0.100
782.100	-21.671	0.100
782.200	-14.903	0.100
782.300	-21.747	0.100
782.400	-11.230	0.100
782.500	-12.500	0.100
782.600	-3.910	0.100
782.700	-13.434	0.100
782.800	-11.814	0.100
782.900	-8.058	0.100
783.000	-11.708	0.100
783.100	-15.865	0.100
783.200	-3.410	0.100
783.300	-25.080	0.100
783.400	-16.603	0.100
783.500	-9.249	0.100
783.600	-9.159	0.100
783.700	-22.037	0.100
783.800	0.324	0.100
783.900	-12.318	0.100
784.000	-7.577	0.100
784.100	-19.810	0.100
784.200	-16.434	0.100
784.300	-12.711	0.100
784.400	-12.577	0.100
784.500	-18.617	0.100
784.600	-23.919	0.100
784.700	-3.743	0.100
784.800	-10.017	0.100
784.900	-9.248	0.100
785.000	-8.049	0.100
785.100	-6.740	0.100
785.200	-9.977	0.100
785.300	-4.019	0.100
785.400	-15.922	0.100
785.500	-10.523	0.100
785.600	-23.346	0.100
785.700	4.678	0.100
785.800	-2.250	0.100
785.900	-14.526	0.100
786.000	-17.711	0.100
786.100	-1.978	0.100
786.200	-5.168	0.100
786.300	-5.447	0.100
786.400	-10.169	0.100
786.500	-6.980	0.100
786.600	-20.458	0.100
786.700	-2.794	0.100
786.800	-16.360	0.100
786.900	-11.155	0.100
787.000	-8.205	0.100
787.100	-14.892	0.100
787.200	-5.814	0.100
787.300	-7.189	0.100
787.400	-17.122	0.100
787.500	-6.021	0.100
787.600	2.348	0.100
787.700	-11.832	0.100
787.800	-16.184	0.100
787.900	-9.082	0.100
788.000	-2.227	0.100
788.100	-7.652	0.100
788.200	-13.552	0.100
788.300	-2.089	0.100
788.400	-17.043	0.100
788.500	-9.424	0.100
788.600	-5.434	0.100
788.700	-13.521	0.100
788.800	-1.673	0.100
788.900	1.736	0.100
789.000	-5.173	0.100
789.100	-20.164	0.100
789.200	-1.373	0.100
789.300	-4.362	0.100
789.400	-3.093	0.100
789.500	-13.307	0.100
789.600	-1.549	0.100
789.700	-9.666	0.100
789.800	-2.923	0.100
789.900	19.696	0.100
790.000	5.985	0.100
790.100	-3.510	0.100
790.200	-4.517	0.100
790.300	-5.165	0.100
790.400	-18.053	0.100
790.500	0.166	0.100
790.600	1.941	0.100
790.700	-11.394	0.100
790.800	8.453	0.100
790.900	-3.257	0.100
791.000	6.899	0.100
791.100	-8.527	0.100
791.200	6.500	0.100
791.300	-0.760	0.100
791.400	-9.091	0.100
791.500	-7.589	0.100
791.600	3.884	0.100
791.700	-9.524	0.100
791.800	-2.707	0.100
791.900	-4.091	0.100
792.000	8.384	0.100
792.100	3.723	0.100
792.200	5.896	0.100
792.300	6.974	0.100
792.400	0.946	0.100
792.500	-6.352	0.100
792.600	-1.681	0.100
792.700	10.733	0.100
792.800	-5.835	0.100
792.900	-3.407	0.100
793.000	8.964	0.100
793.100	5.300	0.100
793.200	4.081	0.100
793.300	2.286	0.100
793.400	6.076	0.100
793.500	7.632	0.100
793.600	3.315	0.100
793.700	1.613	0.100
793.800	11.398	0.100
793.900	6.352	0.100
794.000	-0.654	0.100
794.100	-6.711	0.100
794.200	12.588	0.100
794.300	11.939	0.100
794.400	4.126	0.100
794.500	0.821	0.100
794.600	5.875	0.100
794.700	14.167	0.100
794.800	3.753	0.100
794.900	10.514	0.100
795.000	10.147	0.100
795.100	3.252	0.100
795.200	17.170	0.100
795.300	12.434	0.100
795.400	6.891	0.100
795.500	14.153	0.100
795.600	10.955	0.100
795.700	1.822	0.100
795.800	8.751	0.100
795.900	9.396	0.100
796.000	10.028	0.100
796.100	13.031	0.100
796.200	12.142	0.100
796.300	20.502	0.100
796.400	12.322	0.100
796.500	17.967	0.100
796.600	12.303	0.100
796.700	8.725	0.100
796.800	19.605	0.100
796.900	6.759	0.100
797.000	5.548	0.100
797.100	8.395	0.100
797.200	13.533	0.100
797.300	-3.211	0.100
797.400	17.035	0.100
797.500	11.174	0.100
797.600	22.595	0.100
797.700	11.919	0.100
797.800	14.971	0.100
797.900	13.363	0.100
798.000	25.279	0.100
798.100	8.961	0.100
798.200	6.888	0.100
798.300	12.252	0.100
798.400	23.892	0.100
798.500	25.552	0.100
798.600	29.490	0.100
798.700	25.671	0.100
798.800	20.212	0.100
798.900	0.536	0.100
799.000	12.746	0.100
799.100	13.227	0.100
799.200	26.818	0.100
799.300	12.962	0.100
799.400	8.453	0.100
799.500	26.122	0.100
799.600	38.704	0.100
799.700	25.090	0.100
799.800	10.003	0.100
799.900	20.396	0.100
800.000	23.183	0.100
