time /s	I /nA	E /V
0.100	-10.485	0.100
0.200	4.691	0.100
0.300	-7.137	0.100
0.400	-9.764	0.100
0.500	-8.541	0.100
0.600	-7.551	0.100
0.700	19.926	0.100
0.800	0.482	0.100
0.900	-12.660	0.100
1.000	-11.220	0.100
1.100	2.981	0.100
1.200	0.933	0.100
1.300	-7.210	0.100
1.400	-18.706	0.100
1.500	-9.266	0.100
1.600	-8.007	0.100
1.700	1.434	0.100
1.800	-4.906	0.100
1.900	2.587	0.100
2.000	1.164	0.100
2.100	-14.280	0.100
2.200	-21.485	0.100
2.300	-13.814	0.100
2.400	3.329	0.100
2.500	13.104	0.100
2.600	6.678	0.100
2.700	-4.063	0.100
2.800	-9.226	0.100
2.900	-11.590	0.100
3.000	-12.786	0.100
3.100	-19.934	0.100
3.200	6.241	0.100
3.300	-18.885	0.100
3.400	1.526	0.100
3.500	-9.527	0.100
3.600	4.737	0.100
3.700	-1.785	0.100
3.800	-11.936	0.100
3.900	-3.974	0.100
4.000	-5.168	0.100
4.100	2.876	0.100
4.200	-8.904	0.100
4.300	-21.033	0.100
4.400	2.110	0.100
4.500	1.639	0.100
4.600	1.057	0.100
4.700	0.444	0.100
4.800	-11.840	0.100
4.900	-2.533	0.100
5.000	6.487	0.100
5.100	-9.957	0.100
5.200	-11.495	0.100
5.300	9.710	0.100
5.400	-5.851	0.100
5.500	16.694	0.100
5.600	-8.996	0.100
5.700	-14.470	0.100
5.800	0.816	0.100
5.900	0.528	0.100
6.000	-3.974	0.100
6.100	9.234	0.100
6.200	4.209	0.100
6.300	-6.902	0.100
6.400	-18.513	0.100
6.500	-15.960	0.100
6.600	4.011	0.100
6.700	-2.553	0.100
6.800	2.737	0.100
6.900	10.304	0.100
7.000	-19.633	0.100
7.100	-10.808	0.100
7.200	-9.467	0.100
7.300	4.399	0.100
7.400	4.144	0.100
7.500	-16.203	0.100
7.600	5.872	0.100
7.700	-25.298	0.100
7.800	4.137	0.100
7.900	-16.345	0.100
8.000	-0.907	0.100
8.100	-4.284	0.100
8.200	3.537	0.100
8.300	-2.952	0.100
8.400	5.291	0.100
8.500	9.368	0.100
8.600	-25.376	0.100
8.700	-1.666	0.100
8.800	3.997	0.100
8.900	0.073	0.100
9.000	-8.032	0.100
9.100	-7.957	0.100
9.200	1.193	0.100
9.300	-7.062	0.100
9.400	-10.380	0.100
9.500	6.545	0.100
9.600	-12.822	0.100
9.700	-10.135	0.100
9.800	-13.221	0.100
9.900	7.353	0.100
10.000	-1.939	0.100
10.100	-9.110	0.100
10.200	-20.978	0.100
10.300	-11.777	0.100
10.400	16.909	0.100
10.500	-2.622	0.100
10.600	-12.776	0.100
10.700	-4.008	0.100
10.800	2.228	0.100
10.900	-3.899	0.100
11.000	-14.739	0.100
11.100	-4.854	0.100
11.200	0.717	0.100
11.300	-6.996	0.100
11.400	2.055	0.100
11.500	5.541	0.100
11.600	-2.539	0.100
11.700	6.559	0.100
11.800	-9.028	0.100
11.900	2.440	0.100
12.000	-11.886	0.100
12.100	-5.581	0.100
12.200	-9.220	0.100
12.300	-18.087	0.100
12.400	-2.179	0.100
12.500	-6.878	0.100
12.600	-14.754	0.100
12.700	-27.450	0.100
12.800	-2.866	0.100
12.900	9.744	0.100
13.000	8.088	0.100
13.100	-7.675	0.100
13.200	-15.786	0.100
13.300	-2.109	0.100
13.400	-2.593	0.100
13.500	-3.744	0.100
13.600	-1.537	0.100
13.700	-7.846	0.100
13.800	-3.254	0.100
13.900	-18.320	0.100
14.000	-18.709	0.100
14.100	6.370	0.100
14.200	4.690	0.100
14.300	-12.119	0.100
14.400	1.422	0.100
14.500	3.735	0.100
14.600	-23.876	0.100
14.700	-16.515	0.100
14.800	10.008	0.100
14.900	10.481	0.100
15.000	6.822	0.100
15.100	-1.715	0.100
15.200	16.478	0.100
15.300	-14.949	0.100
15.400	-7.842	0.100
15.500	2.688	0.100
15.600	-5.003	0.100
15.700	-9.197	0.100
15.800	-11.012	0.100
15.900	5.737	0.100
16.000	10.872	0.100
16.100	0.174	0.100
16.200	14.607	0.100
16.300	4.098	0.100
16.400	-4.068	0.100
16.500	-6.617	0.100
16.600	-1.025	0.100
16.700	-3.159	0.100
16.800	-28.374	0.100
16.900	-4.598	0.100
17.000	5.410	0.100
17.100	5.219	0.100
17.200	-3.911	0.100
17.300	-5.109	0.100
17.400	-13.049	0.100
17.500	3.159	0.100
17.600	-9.635	0.100
17.700	-6.284	0.100
17.800	-14.544	0.100
17.900	-7.399	0.100
18.000	2.584	0.100
18.100	8.489	0.100
18.200	-13.928	0.100
18.300	-10.299	0.100
18.400	7.882	0.100
18.500	-8.256	0.100
18.600	8.371	0.100
18.700	-19.808	0.100
18.800	-1.138	0.100
18.900	-1.799	0.100
19.000	-5.848	0.100
19.100	-6.231	0.100
19.200	-1.920	0.100
19.300	11.538	0.100
19.400	-4.664	0.100
19.500	-19.347	0.100
19.600	-17.044	0.100
19.700	9.654	0.100
19.800	-7.856	0.100
19.900	3.460	0.100
20.000	-6.307	0.100
20.100	-4.236	0.100
20.200	9.433	0.100
20.300	-15.433	0.100
20.400	-28.794	0.100
20.500	-6.816	0.100
20.600	4.701	0.100
20.700	-6.350	0.100
20.800	-8.673	0.100
20.900	1.967	0.100
21.000	-4.721	0.100
21.100	5.507	0.100
21.200	1.210	0.100
21.300	-14.018	0.100
21.400	-8.432	0.100
21.500	3.528	0.100
21.600	-10.449	0.100
21.700	8.846	0.100
21.800	-2.634	0.100
21.900	-14.052	0.100
22.000	-2.910	0.100
22.100	6.398	0.100
22.200	-3.009	0.100
22.300	-11.446	0.100
22.400	2.082	0.100
22.500	-13.305	0.100
22.600	-7.170	0.100
22.700	-0.706	0.100
22.800	-0.599	0.100
22.900	-9.028	0.100
23.000	-15.129	0.100
23.100	-3.274	0.100
23.200	7.040	0.100
23.300	-2.533	0.100
23.400	-3.933	0.100
23.500	6.289	0.100
23.600	6.693	0.100
23.700	-8.406	0.100
23.800	4.465	0.100
23.900	-14.832	0.100
24.000	-17.159	0.100
24.100	1.293	0.100
24.200	0.631	0.100
24.300	-2.331	0.100
24.400	-6.554	0.100
24.500	-1.057	0.100
24.600	-13.236	0.100
24.700	-4.669	0.100
24.800	3.749	0.100
24.900	3.752	0.100
25.000	1.389	0.100
25.100	20.019	0.100
25.200	-16.577	0.100
25.300	-14.510	0.100
25.400	1.336	0.100
25.500	-25.002	0.100
25.600	2.886	0.100
25.700	0.447	0.100
25.800	1.500	0.100
25.900	2.486	0.100
26.000	-2.940	0.100
26.100	-1.762	0.100
26.200	-7.804	0.100
26.300	-4.934	0.100
26.400	1.846	0.100
26.500	-9.893	0.100
26.600	-14.553	0.100
26.700	-19.948	0.100
26.800	-3.927	0.100
26.900	8.673	0.100
27.000	12.094	0.100
27.100	-6.139	0.100
27.200	-4.244	0.100
27.300	7.859	0.100
27.400	-9.980	0.100
27.500	-7.468	0.100
27.600	-9.445	0.100
27.700	10.760	0.100
27.800	0.877	0.100
27.900	-8.141	0.100
28.000	-5.595	0.100
28.100	9.085	0.100
28.200	3.048	0.100
28.300	-1.006	0.100
28.400	-17.202	0.100
28.500	-10.209	0.100
28.600	-3.962	0.100
28.700	-7.267	0.100
28.800	2.958	0.100
28.900	3.525	0.100
29.000	-1.526	0.100
29.100	3.365	0.100
29.200	8.492	0.100
29.300	-2.832	0.100
29.400	-9.566	0.100
29.500	-5.599	0.100
29.600	-20.550	0.100
29.700	15.713	0.100
29.800	0.063	0.100
29.900	6.540	0.100
30.000	22.395	0.100
30.100	10.380	0.100
30.200	51.540	0.100
30.300	59.954	0.100
30.400	57.691	0.100
30.500	67.749	0.100
30.600	80.105	0.100
30.700	73.254	0.100
30.800	93.990	0.100
30.900	90.432	0.100
31.000	80.919	0.100
31.100	87.726	0.100
31.200	106.345	0.100
31.300	87.579	0.100
31.400	70.445	0.100
31.500	94.781	0.100
31.600	98.472	0.100
31.700	86.632	0.100
31.800	92.613	0.100
31.900	76.519	0.100
32.000	74.325	0.100
32.100	82.073	0.100
32.200	74.775	0.100
32.300	67.470	0.100
32.400	62.983	0.100
32.500	59.568	0.100
32.600	47.306	0.100
32.700	51.813	0.100
32.800	66.776	0.100
32.900	52.686	0.100
33.000	62.505	0.100
33.100	54.511	0.100
33.200	45.472	0.100
33.300	44.962	0.100
33.400	49.357	0.100
33.500	52.062	0.100
33.600	53.831	0.100
33.700	56.752	0.100
33.800	60.235	0.100
33.900	62.030	0.100
34.000	57.181	0.100
34.100	55.173	0.100
34.200	62.497	0.100
34.300	51.882	0.100
34.400	64.424	0.100
34.500	55.947	0.100
34.600	69.995	0.100
34.700	78.027	0.100
34.800	69.907	0.100
34.900	77.935	0.100
35.000	71.025	0.100
35.100	69.696	0.100
35.200	82.309	0.100
35.300	87.823	0.100
35.400	71.089	0.100
35.500	82.317	0.100
35.600	79.054	0.100
35.700	89.888	0.100
35.800	102.223	0.100
35.900	104.094	0.100
36.000	72.900	0.100
36.100	95.109	0.100
36.200	101.826	0.100
36.300	92.218	0.100
36.400	88.507	0.100
36.500	86.238	0.100
36.600	69.727	0.100
36.700	93.116	0.100
36.800	102.492	0.100
36.900	99.955	0.100
37.000	92.247	0.100
37.100	94.060	0.100
37.200	96.381	0.100
37.300	103.856	0.100
37.400	96.722	0.100
37.500	78.222	0.100
37.600	93.314	0.100
37.700	90.877	0.100
37.800	81.404	0.100
37.900	71.609	0.100
38.000	87.602	0.100
38.100	96.254	0.100
38.200	82.700	0.100
38.300	102.331	0.100
38.400	96.631	0.100
38.500	74.733	0.100
38.600	56.884	0.100
38.700	97.211	0.100
38.800	82.416	0.100
38.900	89.423	0.100
39.000	73.346	0.100
39.100	89.109	0.100
39.200	84.221	0.100
39.300	62.841	0.100
39.400	80.523	0.100
39.500	65.194	0.100
39.600	88.758	0.100
39.700	77.105	0.100
39.800	70.813	0.100
39.900	78.340	0.100
40.000	68.374	0.100
40.100	70.513	0.100
40.200	73.363	0.100
40.300	72.949	0.100
40.400	68.166	0.100
40.500	61.553	0.100
40.600	43.135	0.100
40.700	80.115	0.100
40.800	71.897	0.100
40.900	75.855	0.100
41.000	42.865	0.100
41.100	61.297	0.100
41.200	62.982	0.100
41.300	45.422	0.100
41.400	58.354	0.100
41.500	65.534	0.100
41.600	50.459	0.100
41.700	63.802	0.100
41.800	42.863	0.100
41.900	60.964	0.100
42.000	72.095	0.100
42.100	57.541	0.100
42.200	39.022	0.100
42.300	62.444	0.100
42.400	54.851	0.100
42.500	57.103	0.100
42.600	59.086	0.100
42.700	51.943	0.100
42.800	52.087	0.100
42.900	51.618	0.100
43.000	59.330	0.100
43.100	41.500	0.100
43.200	24.828	0.100
43.300	44.398	0.100
43.400	40.792	0.100
43.500	50.654	0.100
43.600	52.896	0.100
43.700	22.956	0.100
43.800	39.307	0.100
43.900	37.217	0.100
44.000	42.638	0.100
44.100	49.193	0.100
44.200	30.305	0.100
44.300	41.090	0.100
44.400	42.606	0.100
44.500	49.755	0.100
44.600	36.957	0.100
44.700	35.111	0.100
44.800	34.012	0.100
44.900	27.811	0.100
45.000	49.108	0.100
45.100	43.653	0.100
45.200	35.478	0.100
45.300	30.331	0.100
45.400	33.278	0.100
45.500	27.318	0.100
45.600	36.698	0.100
45.700	45.578	0.100
45.800	27.036	0.100
45.900	29.634	0.100
46.000	45.937	0.100
46.100	42.282	0.100
46.200	36.247	0.100
46.300	19.700	0.100
46.400	28.366	0.100
46.500	41.206	0.100
46.600	37.455	0.100
46.700	17.639	0.100
46.800	25.441	0.100
46.900	31.450	0.100
47.000	30.417	0.100
47.100	45.031	0.100
47.200	31.759	0.100
47.300	26.395	0.100
47.400	26.619	0.100
47.500	21.382	0.100
47.600	48.537	0.100
47.700	33.742	0.100
47.800	31.431	0.100
47.900	25.648	0.100
48.000	24.276	0.100
48.100	19.100	0.100
48.200	23.637	0.100
48.300	41.418	0.100
48.400	46.250	0.100
48.500	20.504	0.100
48.600	36.433	0.100
48.700	40.319	0.100
48.800	38.714	0.100
48.900	20.869	0.100
49.000	37.102	0.100
49.100	38.119	0.100
49.200	29.235	0.100
49.300	24.584	0.100
49.400	33.621	0.100
49.500	32.809	0.100
49.600	41.776	0.100
49.700	36.276	0.100
49.800	16.915	0.100
49.900	34.743	0.100
50.000	11.783	0.100
50.100	19.003	0.100
50.200	36.261	0.100
50.300	24.606	0.100
50.400	22.762	0.100
50.500	67.982	0.100
50.600	25.673	0.100
50.700	23.534	0.100
50.800	25.268	0.100
50.900	23.383	0.100
51.000	27.972	0.100
51.100	31.693	0.100
51.200	20.199	0.100
51.300	50.430	0.100
51.400	25.119	0.100
51.500	31.202	0.100
51.600	22.570	0.100
51.700	40.984	0.100
51.800	36.871	0.100
51.900	31.792	0.100
52.000	39.472	0.100
52.100	41.179	0.100
52.200	45.695	0.100
52.300	28.322	0.100
52.400	16.250	0.100
52.500	37.696	0.100
52.600	39.046	0.100
52.700	39.411	0.100
52.800	41.148	0.100
52.900	34.944	0.100
53.000	33.356	0.100
53.100	26.013	0.100
53.200	20.519	0.100
53.300	19.673	0.100
53.400	50.453	0.100
53.500	51.227	0.100
53.600	34.932	0.100
53.700	30.399	0.100
53.800	28.428	0.100
53.900	28.191	0.100
54.000	44.122	0.100
54.100	49.524	0.100
54.200	45.727	0.100
54.300	35.967	0.100
54.400	28.656	0.100
54.500	18.344	0.100
54.600	38.297	0.100
54.700	44.833	0.100
54.800	37.748	0.100
54.900	37.723	0.100
55.000	23.334	0.100
55.100	25.909	0.100
55.200	42.164	0.100
55.300	28.253	0.100
55.400	36.563	0.100
55.500	39.390	0.100
55.600	39.143	0.100
55.700	18.591	0.100
55.800	34.044	0.100
55.900	41.362	0.100
56.000	42.316	0.100
56.100	47.825	0.100
56.200	41.542	0.100
56.300	39.517	0.100
56.400	43.358	0.100
56.500	19.852	0.100
56.600	39.807	0.100
56.700	30.879	0.100
56.800	29.718	0.100
56.900	43.171	0.100
57.000	35.197	0.100
57.100	25.840	0.100
57.200	45.011	0.100
57.300	53.356	0.100
57.400	39.002	0.100
57.500	38.873	0.100
57.600	38.680	0.100
57.700	34.516	0.100
57.800	46.734	0.100
57.900	21.932	0.100
58.000	46.539	0.100
58.100	33.480	0.100
58.200	37.886	0.100
58.300	32.243	0.100
58.400	55.343	0.100
58.500	36.242	0.100
58.600	29.323	0.100
58.700	41.413	0.100
58.800	52.680	0.100
58.900	44.444	0.100
59.000	35.116	0.100
59.100	50.096	0.100
59.200	48.081	0.100
59.300	35.091	0.100
59.400	40.443	0.100
59.500	32.908	0.100
59.600	38.041	0.100
59.700	41.491	0.100
59.800	41.924	0.100
59.900	45.054	0.100
60.000	40.090	0.100
60.100	42.693	0.100
60.200	46.168	0.100
60.300	55.772	0.100
60.400	61.246	0.100
60.500	44.549	0.100
60.600	30.190	0.100
60.700	36.224	0.100
60.800	31.524	0.100
60.900	40.242	0.100
61.000	40.996	0.100
61.100	49.611	0.100
61.200	39.302	0.100
61.300	27.925	0.100
61.400	45.491	0.100
61.500	48.932	0.100
61.600	34.473	0.100
61.700	51.377	0.100
61.800	46.636	0.100
61.900	27.851	0.100
62.000	51.084	0.100
62.100	51.058	0.100
62.200	31.887	0.100
62.300	31.631	0.100
62.400	33.846	0.100
62.500	58.738	0.100
62.600	38.942	0.100
62.700	41.327	0.100
62.800	52.087	0.100
62.900	34.303	0.100
63.000	46.004	0.100
63.100	37.726	0.100
63.200	47.942	0.100
63.300	52.084	0.100
63.400	41.372	0.100
63.500	30.811	0.100
63.600	49.112	0.100
63.700	40.955	0.100
63.800	50.900	0.100
63.900	49.982	0.100
64.000	37.125	0.100
64.100	45.016	0.100
64.200	31.467	0.100
64.300	48.397	0.100
64.400	36.393	0.100
64.500	63.000	0.100
64.600	48.491	0.100
64.700	31.542	0.100
64.800	47.940	0.100
64.900	42.058	0.100
65.000	41.028	0.100
65.100	55.076	0.100
65.200	36.926	0.100
65.300	41.416	0.100
65.400	50.625	0.100
65.500	36.052	0.100
65.600	35.609	0.100
65.700	59.094	0.100
65.800	33.311	0.100
65.900	44.241	0.100
66.000	26.983	0.100
66.100	71.146	0.100
66.200	42.672	0.100
66.300	35.347	0.100
66.400	42.362	0.100
66.500	29.823	0.100
66.600	40.788	0.100
66.700	54.507	0.100
66.800	50.833	0.100
66.900	54.228	0.100
67.000	44.648	0.100
67.100	45.669	0.100
67.200	49.671	0.100
67.300	48.503	0.100
67.400	47.131	0.100
67.500	48.518	0.100
67.600	50.994	0.100
67.700	35.638	0.100
67.800	40.654	0.100
67.900	46.679	0.100
68.000	49.639	0.100
68.100	26.859	0.100
68.200	64.300	0.100
68.300	46.208	0.100
68.400	21.663	0.100
68.500	41.367	0.100
68.600	59.206	0.100
68.700	53.500	0.100
68.800	52.124	0.100
68.900	53.514	0.100
69.000	46.751	0.100
69.100	34.460	0.100
69.200	47.037	0.100
69.300	36.529	0.100
69.400	40.162	0.100
69.500	33.618	0.100
69.600	53.520	0.100
69.700	45.445	0.100
69.800	59.580	0.100
69.900	54.877	0.100
70.000	21.359	0.100
70.100	52.979	0.100
70.200	56.036	0.100
70.300	62.569	0.100
70.400	33.177	0.100
70.500	37.801	0.100
70.600	40.342	0.100
70.700	38.730	0.100
70.800	42.710	0.100
70.900	37.429	0.100
71.000	50.583	0.100
71.100	51.550	0.100
71.200	56.063	0.100
71.300	41.436	0.100
71.400	39.224	0.100
71.500	50.096	0.100
71.600	51.794	0.100
71.700	58.323	0.100
71.800	48.432	0.100
71.900	50.614	0.100
72.000	40.300	0.100
72.100	48.212	0.100
72.200	51.469	0.100
72.300	52.311	0.100
72.400	39.647	0.100
72.500	34.050	0.100
72.600	51.776	0.100
72.700	58.751	0.100
72.800	48.615	0.100
72.900	42.449	0.100
73.000	56.208	0.100
73.100	52.482	0.100
73.200	46.996	0.100
73.300	41.649	0.100
73.400	58.548	0.100
73.500	33.705	0.100
73.600	50.507	0.100
73.700	45.103	0.100
73.800	66.716	0.100
73.900	45.531	0.100
74.000	38.369	0.100
74.100	44.188	0.100
74.200	41.858	0.100
74.300	58.967	0.100
74.400	62.051	0.100
74.500	48.225	0.100
74.600	49.705	0.100
74.700	53.169	0.100
74.800	41.585	0.100
74.900	56.540	0.100
75.000	42.209	0.100
75.100	41.686	0.100
75.200	56.764	0.100
75.300	33.065	0.100
75.400	46.829	0.100
75.500	67.202	0.100
75.600	58.531	0.100
75.700	48.002	0.100
75.800	49.027	0.100
75.900	50.862	0.100
76.000	23.237	0.100
76.100	52.752	0.100
76.200	31.493	0.100
76.300	38.103	0.100
76.400	62.879	0.100
76.500	49.067	0.100
76.600	58.240	0.100
76.700	46.620	0.100
76.800	48.391	0.100
76.900	46.502	0.100
77.000	44.700	0.100
77.100	45.129	0.100
77.200	43.607	0.100
77.300	39.929	0.100
77.400	45.310	0.100
77.500	38.816	0.100
77.600	64.472	0.100
77.700	69.360	0.100
77.800	63.238	0.100
77.900	69.825	0.100
78.000	49.482	0.100
78.100	38.338	0.100
78.200	53.730	0.100
78.300	44.546	0.100
78.400	40.234	0.100
78.500	61.171	0.100
78.600	54.771	0.100
78.700	47.312	0.100
78.800	45.518	0.100
78.900	55.531	0.100
79.000	58.397	0.100
79.100	31.443	0.100
79.200	48.710	0.100
79.300	48.698	0.100
79.400	56.410	0.100
79.500	43.504	0.100
79.600	52.406	0.100
79.700	48.713	0.100
79.800	54.132	0.100
79.900	41.453	0.100
80.000	39.270	0.100
80.100	49.029	0.100
80.200	55.728	0.100
80.300	61.927	0.100
80.400	50.051	0.100
80.500	45.944	0.100
80.600	54.408	0.100
80.700	39.051	0.100
80.800	54.278	0.100
80.900	60.750	0.100
81.000	52.377	0.100
81.100	44.856	0.100
81.200	43.228	0.100
81.300	58.088	0.100
81.400	46.694	0.100
81.500	50.093	0.100
81.600	48.383	0.100
81.700	52.436	0.100
81.800	50.617	0.100
81.900	54.409	0.100
82.000	50.664	0.100
82.100	63.276	0.100
82.200	42.990	0.100
82.300	60.258	0.100
82.400	51.284	0.100
82.500	52.884	0.100
82.600	61.780	0.100
82.700	28.674	0.100
82.800	49.924	0.100
82.900	55.668	0.100
83.000	53.562	0.100
83.100	38.847	0.100
83.200	57.472	0.100
83.300	53.323	0.100
83.400	50.732	0.100
83.500	49.493	0.100
83.600	53.894	0.100
83.700	37.874	0.100
83.800	45.989	0.100
83.900	60.475	0.100
84.000	51.081	0.100
84.100	58.896	0.100
84.200	45.180	0.100
84.300	53.344	0.100
84.400	47.801	0.100
84.500	49.153	0.100
84.600	51.849	0.100
84.700	59.264	0.100
84.800	34.762	0.100
84.900	51.543	0.100
85.000	50.172	0.100
85.100	57.135	0.100
85.200	55.423	0.100
85.300	42.422	0.100
85.400	49.285	0.100
85.500	43.887	0.100
85.600	48.202	0.100
85.700	18.873	0.100
85.800	50.960	0.100
85.900	60.169	0.100
86.000	49.078	0.100
86.100	51.400	0.100
86.200	50.002	0.100
86.300	55.266	0.100
86.400	61.614	0.100
86.500	58.630	0.100
86.600	65.641	0.100
86.700	64.685	0.100
86.800	50.615	0.100
86.900	25.570	0.100
87.000	53.264	0.100
87.100	58.000	0.100
87.200	55.651	0.100
87.300	54.638	0.100
87.400	61.119	0.100
87.500	48.764	0.100
87.600	44.505	0.100
87.700	53.557	0.100
87.800	58.521	0.100
87.900	55.958	0.100
88.000	60.734	0.100
88.100	41.876	0.100
88.200	49.929	0.100
88.300	56.543	0.100
88.400	56.146	0.100
88.500	42.350	0.100
88.600	59.680	0.100
88.700	62.839	0.100
88.800	56.437	0.100
88.900	53.626	0.100
89.000	56.191	0.100
89.100	52.256	0.100
89.200	53.329	0.100
89.300	52.518	0.100
89.400	47.572	0.100
89.500	45.791	0.100
89.600	52.837	0.100
89.700	51.077	0.100
89.800	44.159	0.100
89.900	47.703	0.100
90.000	11.859	0.100
90.100	-9.369	0.100
90.200	-7.485	0.100
90.300	-14.915	0.100
90.400	12.690	0.100
90.500	-21.326	0.100
90.600	-7.342	0.100
90.700	-12.527	0.100
90.800	-30.585	0.100
90.900	-32.329	0.100
91.000	-14.726	0.100
91.100	-27.120	0.100
91.200	-23.942	0.100
91.300	-23.821	0.100
91.400	-22.583	0.100
91.500	-28.334	0.100
91.600	-33.951	0.100
91.700	-18.902	0.100
91.800	-25.087	0.100
91.900	-18.893	0.100
92.000	-10.912	0.100
92.100	-25.951	0.100
92.200	-7.984	0.100
92.300	-34.494	0.100
92.400	-40.774	0.100
92.500	-44.508	0.100
92.600	-22.434	0.100
92.700	-27.637	0.100
92.800	-33.979	0.100
92.900	-28.619	0.100
93.000	-30.145	0.100
93.100	-26.027	0.100
93.200	-40.949	0.100
93.300	-12.850	0.100
93.400	-25.992	0.100
93.500	-32.516	0.100
93.600	-36.920	0.100
93.700	-21.336	0.100
93.800	-26.913	0.100
93.900	-24.198	0.100
94.000	-35.315	0.100
94.100	-48.508	0.100
94.200	-29.818	0.100
94.300	-26.988	0.100
94.400	-32.754	0.100
94.500	-37.869	0.100
94.600	-34.216	0.100
94.700	-47.511	0.100
94.800	-26.981	0.100
94.900	-20.297	0.100
95.000	-37.834	0.100
95.100	-51.618	0.100
95.200	-31.704	0.100
95.300	-31.346	0.100
95.400	-28.110	0.100
95.500	-44.171	0.100
95.600	-44.682	0.100
95.700	-41.019	0.100
95.800	-31.532	0.100
95.900	-44.436	0.100
96.000	-31.793	0.100
96.100	-45.831	0.100
96.200	-24.896	0.100
96.300	-26.148	0.100
96.400	-34.716	0.100
96.500	-46.101	0.100
96.600	-49.846	0.100
96.700	-30.079	0.100
96.800	-34.261	0.100
96.900	-41.246	0.100
97.000	-36.096	0.100
97.100	-28.022	0.100
97.200	-25.011	0.100
97.300	-36.847	0.100
97.400	-30.453	0.100
97.500	-39.827	0.100
97.600	-26.602	0.100
97.700	-14.788	0.100
97.800	-31.664	0.100
97.900	-18.963	0.100
98.000	-29.174	0.100
98.100	-25.229	0.100
98.200	-25.940	0.100
98.300	-27.243	0.100
98.400	-22.042	0.100
98.500	-18.626	0.100
98.600	-35.191	0.100
98.700	-25.742	0.100
98.800	-34.552	0.100
98.900	-15.389	0.100
99.000	-16.109	0.100
99.100	-14.852	0.100
99.200	-16.166	0.100
99.300	-23.542	0.100
99.400	-34.556	0.100
99.500	-31.192	0.100
99.600	-6.396	0.100
99.700	-25.287	0.100
99.800	-27.617	0.100
99.900	-23.912	0.100
100.000	-15.097	0.100
100.100	-14.457	0.100
100.200	-13.132	0.100
100.300	-27.979	0.100
100.400	-22.374	0.100
100.500	-21.468	0.100
100.600	-22.294	0.100
100.700	-12.603	0.100
100.800	-21.809	0.100
100.900	-16.998	0.100
101.000	-31.284	0.100
101.100	-29.873	0.100
101.200	-26.821	0.100
101.300	-28.296	0.100
101.400	-29.115	0.100
101.500	4.981	0.100
101.600	-4.710	0.100
101.700	-14.153	0.100
101.800	-17.363	0.100
101.900	-10.799	0.100
102.000	-20.504	0.100
102.100	-29.211	0.100
102.200	-3.016	0.100
102.300	-27.427	0.100
102.400	-29.472	0.100
102.500	-12.303	0.100
102.600	-14.562	0.100
102.700	-16.446	0.100
102.800	-24.563	0.100
102.900	-30.726	0.100
103.000	-15.313	0.100
103.100	-3.668	0.100
103.200	-0.795	0.100
103.300	-17.490	0.100
103.400	-18.853	0.100
103.500	-21.312	0.100
103.600	-20.466	0.100
103.700	-16.883	0.100
103.800	-22.978	0.100
103.900	-7.623	0.100
104.000	-15.261	0.100
104.100	-24.891	0.100
104.200	-29.194	0.100
104.300	-12.648	0.100
104.400	-12.269	0.100
104.500	-18.585	0.100
104.600	-19.302	0.100
104.700	-17.142	0.100
104.800	-19.459	0.100
104.900	-15.431	0.100
105.000	-12.384	0.100
105.100	-27.401	0.100
105.200	-18.545	0.100
105.300	-16.078	0.100
105.400	-11.230	0.100
105.500	-14.775	0.100
105.600	-15.005	0.100
105.700	-27.569	0.100
105.800	-9.893	0.100
105.900	-5.993	0.100
106.000	-27.697	0.100
106.100	-12.412	0.100
106.200	4.061	0.100
106.300	-14.642	0.100
106.400	-13.537	0.100
106.500	-16.072	0.100
106.600	-14.605	0.100
106.700	-14.527	0.100
106.800	-14.870	0.100
106.900	-16.164	0.100
107.000	-19.157	0.100
107.100	-29.136	0.100
107.200	-20.475	0.100
107.300	-13.207	0.100
107.400	-17.450	0.100
107.500	-17.621	0.100
107.600	-12.444	0.100
107.700	-19.492	0.100
107.800	-19.951	0.100
107.900	-17.312	0.100
108.000	-13.348	0.100
108.100	-10.396	0.100
108.200	-7.316	0.100
108.300	-32.042	0.100
108.400	-29.884	0.100
108.500	-17.190	0.100
108.600	-7.253	0.100
108.700	-18.635	0.100
108.800	-29.078	0.100
108.900	-10.468	0.100
109.000	-24.557	0.100
109.100	-15.902	0.100
109.200	-24.819	0.100
109.300	-9.318	0.100
109.400	-15.594	0.100
109.500	-12.947	0.100
109.600	-6.591	0.100
109.700	-10.282	0.100
109.800	-18.321	0.100
109.900	-12.165	0.100
110.000	-22.431	0.100
110.100	-1.578	0.100
110.200	-21.097	0.100
110.300	-15.120	0.100
110.400	-25.603	0.100
110.500	-24.764	0.100
110.600	-8.782	0.100
110.700	-14.061	0.100
110.800	-11.168	0.100
110.900	-33.102	0.100
111.000	-15.346	0.100
111.100	-5.982	0.100
111.200	-24.513	0.100
111.300	-6.901	0.100
111.400	-19.140	0.100
111.500	-19.734	0.100
111.600	-27.460	0.100
111.700	-23.026	0.100
111.800	-16.978	0.100
111.900	-11.539	0.100
112.000	-3.194	0.100
112.100	-13.521	0.100
112.200	-18.129	0.100
112.300	-20.808	0.100
112.400	-23.872	0.100
112.500	-18.850	0.100
112.600	-30.028	0.100
112.700	-25.905	0.100
112.800	-16.771	0.100
112.900	-8.512	0.100
113.000	-16.379	0.100
113.100	-20.765	0.100
113.200	-18.103	0.100
113.300	-24.137	0.100
113.400	-15.804	0.100
113.500	-35.729	0.100
113.600	-25.730	0.100
113.700	-20.223	0.100
113.800	-11.834	0.100
113.900	-19.949	0.100
114.000	-20.165	0.100
114.100	-24.568	0.100
114.200	0.838	0.100
114.300	-6.654	0.100
114.400	-18.606	0.100
114.500	-26.717	0.100
114.600	5.196	0.100
114.700	-12.553	0.100
114.800	-27.381	0.100
114.900	-38.058	0.100
115.000	-19.662	0.100
115.100	-22.600	0.100
115.200	-25.883	0.100
115.300	-22.673	0.100
115.400	-11.783	0.100
115.500	-26.993	0.100
115.600	-25.529	0.100
115.700	-3.455	0.100
115.800	-9.249	0.100
115.900	-38.582	0.100
116.000	-19.661	0.100
116.100	-26.421	0.100
116.200	-16.986	0.100
116.300	-7.669	0.100
116.400	-25.698	0.100
116.500	-22.081	0.100
116.600	-8.400	0.100
116.700	-27.387	0.100
116.800	-12.428	0.100
116.900	-8.844	0.100
117.000	-11.522	0.100
117.100	-21.151	0.100
117.200	-12.669	0.100
117.300	-22.463	0.100
117.400	-10.905	0.100
117.500	-22.279	0.100
117.600	-21.500	0.100
117.700	-21.033	0.100
117.800	-13.534	0.100
117.900	-26.397	0.100
118.000	-28.517	0.100
118.100	-15.930	0.100
118.200	-14.197	0.100
118.300	-24.090	0.100
118.400	-45.942	0.100
118.500	-19.682	0.100
118.600	-8.343	0.100
118.700	-10.387	0.100
118.800	-12.657	0.100
118.900	-15.977	0.100
119.000	-9.513	0.100
119.100	-31.632	0.100
119.200	-22.845	0.100
119.300	-12.179	0.100
119.400	-26.072	0.100
119.500	-23.368	0.100
119.600	-27.591	0.100
119.700	-23.325	0.100
119.800	-14.331	0.100
119.900	-16.915	0.100
120.000	-14.967	0.100
120.100	-19.728	0.100
120.200	-24.763	0.100
120.300	-17.990	0.100
120.400	-19.871	0.100
120.500	-18.379	0.100
120.600	-14.593	0.100
120.700	-12.080	0.100
120.800	-23.605	0.100
120.900	-17.823	0.100
121.000	-20.581	0.100
121.100	-18.927	0.100
121.200	-0.913	0.100
121.300	-25.903	0.100
121.400	-45.049	0.100
121.500	-9.327	0.100
121.600	-21.946	0.100
121.700	-13.819	0.100
121.800	-7.929	0.100
121.900	-14.892	0.100
122.000	-23.004	0.100
122.100	-27.600	0.100
122.200	-21.163	0.100
122.300	-9.559	0.100
122.400	-19.834	0.100
122.500	-12.458	0.100
122.600	-17.250	0.100
122.700	-22.054	0.100
122.800	-20.795	0.100
122.900	-23.875	0.100
123.000	-26.918	0.100
123.100	-11.930	0.100
123.200	-19.278	0.100
123.300	-7.915	0.100
123.400	-18.284	0.100
123.500	-16.333	0.100
123.600	-11.587	0.100
123.700	-39.034	0.100
123.800	-29.157	0.100
123.900	2.207	0.100
124.000	-12.413	0.100
124.100	-24.752	0.100
124.200	-40.365	0.100
124.300	-4.632	0.100
124.400	-11.939	0.100
124.500	-25.538	0.100
124.600	-29.886	0.100
124.700	-8.754	0.100
124.800	-22.305	0.100
124.900	-26.055	0.100
125.000	-27.300	0.100
125.100	-21.102	0.100
125.200	-28.967	0.100
125.300	-13.281	0.100
125.400	-19.471	0.100
125.500	-17.452	0.100
125.600	-24.106	0.100
125.700	-20.096	0.100
125.800	-17.926	0.100
125.900	-21.415	0.100
126.000	-30.900	0.100
126.100	-20.547	0.100
126.200	-14.552	0.100
126.300	-20.245	0.100
126.400	-26.601	0.100
126.500	-24.413	0.100
126.600	-10.773	0.100
126.700	-29.348	0.100
126.800	-18.565	0.100
126.900	-10.846	0.100
127.000	-23.567	0.100
127.100	-22.672	0.100
127.200	-24.842	0.100
127.300	-15.829	0.100
127.400	-13.380	0.100
127.500	-36.025	0.100
127.600	-22.232	0.100
127.700	-38.042	0.100
127.800	-22.383	0.100
127.900	-7.963	0.100
128.000	-30.197	0.100
128.100	-10.670	0.100
128.200	-22.983	0.100
128.300	-37.685	0.100
128.400	-18.064	0.100
128.500	-3.502	0.100
128.600	-23.547	0.100
128.700	-19.135	0.100
128.800	-24.660	0.100
128.900	-26.341	0.100
129.000	-32.942	0.100
129.100	-28.645	0.100
129.200	-19.469	0.100
129.300	-29.447	0.100
129.400	3.040	0.100
129.500	-24.695	0.100
129.600	-28.541	0.100
129.700	-17.311	0.100
129.800	-25.040	0.100
129.900	-10.492	0.100
130.000	-20.038	0.100
130.100	-33.002	0.100
130.200	-34.046	0.100
130.300	-14.965	0.100
130.400	-11.418	0.100
130.500	-17.159	0.100
130.600	-30.913	0.100
130.700	-19.425	0.100
130.800	-18.281	0.100
130.900	-36.747	0.100
131.000	-26.308	0.100
131.100	-18.005	0.100
131.200	-15.660	0.100
131.300	-17.777	0.100
131.400	-19.577	0.100
131.500	-16.423	0.100
131.600	-18.600	0.100
131.700	-29.010	0.100
131.800	-26.236	0.100
131.900	-14.740	0.100
132.000	-20.167	0.100
132.100	-8.461	0.100
132.200	-22.423	0.100
132.300	-16.541	0.100
132.400	-33.312	0.100
132.500	-24.189	0.100
132.600	-12.592	0.100
132.700	-25.363	0.100
132.800	-23.335	0.100
132.900	-28.097	0.100
133.000	-20.841	0.100
133.100	-25.034	0.100
133.200	-14.900	0.100
133.300	-28.970	0.100
133.400	-25.863	0.100
133.500	-30.085	0.100
133.600	-11.064	0.100
133.700	-6.337	0.100
133.800	-27.513	0.100
133.900	-32.909	0.100
134.000	-12.801	0.100
134.100	-14.877	0.100
134.200	-29.177	0.100
134.300	-11.323	0.100
134.400	-13.817	0.100
134.500	-20.552	0.100
134.600	-28.767	0.100
134.700	-11.811	0.100
134.800	-18.543	0.100
134.900	-9.021	0.100
135.000	-15.295	0.100
135.100	-24.082	0.100
135.200	-16.416	0.100
135.300	-23.788	0.100
135.400	-10.845	0.100
135.500	-21.882	0.100
135.600	-13.163	0.100
135.700	-10.232	0.100
135.800	-16.570	0.100
135.900	-19.526	0.100
136.000	-18.278	0.100
136.100	-25.002	0.100
136.200	-42.859	0.100
136.300	-20.372	0.100
136.400	12.442	0.100
136.500	-15.396	0.100
136.600	-24.275	0.100
136.700	-23.867	0.100
136.800	-17.112	0.100
136.900	-18.776	0.100
137.000	-15.586	0.100
137.100	-17.102	0.100
137.200	-16.597	0.100
137.300	-6.084	0.100
137.400	-19.454	0.100
137.500	-19.897	0.100
137.600	-17.086	0.100
137.700	-20.208	0.100
137.800	-37.297	0.100
137.900	-3.983	0.100
138.000	-8.096	0.100
138.100	-17.061	0.100
138.200	-22.714	0.100
138.300	-20.656	0.100
138.400	-24.735	0.100
138.500	-40.587	0.100
138.600	-19.845	0.100
138.700	-8.846	0.100
138.800	-24.209	0.100
138.900	-12.244	0.100
139.000	-16.314	0.100
139.100	-14.748	0.100
139.200	-21.445	0.100
139.300	-9.174	0.100
139.400	-26.858	0.100
139.500	-17.835	0.100
139.600	-4.682	0.100
139.700	-20.047	0.100
139.800	-26.297	0.100
139.900	-2.539	0.100
140.000	-3.665	0.100
140.100	-17.527	0.100
140.200	-19.011	0.100
140.300	-20.628	0.100
140.400	-24.404	0.100
140.500	-16.629	0.100
140.600	-19.192	0.100
140.700	-16.757	0.100
140.800	-16.065	0.100
140.900	-18.522	0.100
141.000	-19.748	0.100
141.100	-16.006	0.100
141.200	-18.510	0.100
141.300	-33.341	0.100
141.400	-9.819	0.100
141.500	-24.152	0.100
141.600	1.966	0.100
141.700	-32.585	0.100
141.800	-17.958	0.100
141.900	-24.927	0.100
142.000	-9.986	0.100
142.100	-10.336	0.100
142.200	-21.802	0.100
142.300	-28.330	0.100
142.400	-17.820	0.100
142.500	-5.628	0.100
142.600	-33.086	0.100
142.700	-15.240	0.100
142.800	-4.223	0.100
142.900	-15.202	0.100
143.000	-14.010	0.100
143.100	-27.764	0.100
143.200	-17.243	0.100
143.300	-14.276	0.100
143.400	-17.820	0.100
143.500	-19.396	0.100
143.600	-27.105	0.100
143.700	-20.706	0.100
143.800	-15.858	0.100
143.900	-23.605	0.100
144.000	-15.533	0.100
144.100	-16.434	0.100
144.200	-11.575	0.100
144.300	-22.891	0.100
144.400	-18.408	0.100
144.500	-6.039	0.100
144.600	-25.054	0.100
144.700	-17.013	0.100
144.800	-18.347	0.100
144.900	-19.688	0.100
145.000	-31.005	0.100
145.100	-4.776	0.100
145.200	-25.898	0.100
145.300	-17.086	0.100
145.400	-6.566	0.100
145.500	-18.879	0.100
145.600	-5.409	0.100
145.700	-11.857	0.100
145.800	-11.696	0.100
145.900	0.287	0.100
146.000	-14.568	0.100
146.100	-12.832	0.100
146.200	-36.936	0.100
146.300	-25.760	0.100
146.400	-27.085	0.100
146.500	-11.883	0.100
146.600	-10.880	0.100
146.700	-9.868	0.100
146.800	-9.405	0.100
146.900	-11.956	0.100
147.000	-35.263	0.100
147.100	-15.079	0.100
147.200	-0.444	0.100
147.300	-7.396	0.100
147.400	-13.558	0.100
147.500	-20.935	0.100
147.600	-18.977	0.100
147.700	-28.094	0.100
147.800	-29.219	0.100
147.900	-24.779	0.100
148.000	0.280	0.100
148.100	5.133	0.100
148.200	-31.583	0.100
148.300	-25.900	0.100
148.400	-5.216	0.100
148.500	-20.844	0.100
148.600	0.082	0.100
148.700	-11.231	0.100
148.800	-21.694	0.100
148.900	-23.613	0.100
149.000	-14.237	0.100
149.100	-18.574	0.100
149.200	-8.601	0.100
149.300	-13.357	0.100
149.400	-12.464	0.100
149.500	-16.357	0.100
149.600	-24.401	0.100
149.700	-10.055	0.100
149.800	-15.637	0.100
149.900	1.288	0.100
150.000	-17.032	0.100
150.100	-21.953	0.100
150.200	-8.158	0.100
150.300	-19.428	0.100
150.400	-7.180	0.100
150.500	-21.957	0.100
150.600	-13.281	0.100
150.700	-17.473	0.100
150.800	-35.088	0.100
150.900	-31.514	0.100
151.000	1.299	0.100
151.100	-9.752	0.100
151.200	-14.797	0.100
151.300	-6.412	0.100
151.400	-12.347	0.100
151.500	1.767	0.100
151.600	-18.671	0.100
151.700	-13.198	0.100
151.800	-7.193	0.100
151.900	-16.187	0.100
152.000	-18.986	0.100
152.100	-2.906	0.100
152.200	-7.414	0.100
152.300	-10.816	0.100
152.400	-28.187	0.100
152.500	-10.269	0.100
152.600	-18.234	0.100
152.700	-25.210	0.100
152.800	-16.848	0.100
152.900	-5.898	0.100
153.000	-7.497	0.100
153.100	-10.814	0.100
153.200	-12.133	0.100
153.300	-30.370	0.100
153.400	-7.796	0.100
153.500	-8.823	0.100
153.600	-2.268	0.100
153.700	-7.331	0.100
153.800	-2.760	0.100
153.900	-20.300	0.100
154.000	-2.153	0.100
154.100	-0.215	0.100
154.200	-13.048	0.100
154.300	-10.632	0.100
154.400	-15.378	0.100
154.500	-14.596	0.100
154.600	-7.920	0.100
154.700	-24.727	0.100
154.800	-5.329	0.100
154.900	-21.839	0.100
155.000	-19.264	0.100
155.100	-6.458	0.100
155.200	-5.805	0.100
155.300	-20.795	0.100
155.400	-15.364	0.100
155.500	-7.172	0.100
155.600	-6.625	0.100
155.700	1.826	0.100
155.800	-17.499	0.100
155.900	-7.446	0.100
156.000	-15.156	0.100
156.100	-23.962	0.100
156.200	-6.122	0.100
156.300	-11.814	0.100
156.400	-6.166	0.100
156.500	-12.071	0.100
156.600	-3.783	0.100
156.700	-12.100	0.100
156.800	-20.000	0.100
156.900	-23.702	0.100
157.000	-17.090	0.100
157.100	-2.061	0.100
157.200	-6.278	0.100
157.300	-17.676	0.100
157.400	-5.627	0.100
157.500	-3.685	0.100
157.600	-21.680	0.100
157.700	-28.984	0.100
157.800	0.579	0.100
157.900	7.647	0.100
158.000	-16.091	0.100
158.100	-21.090	0.100
158.200	-3.669	0.100
158.300	-23.280	0.100
158.400	-18.976	0.100
158.500	-8.110	0.100
158.600	-8.279	0.100
158.700	-7.623	0.100
158.800	-14.171	0.100
158.900	-9.862	0.100
159.000	-9.314	0.100
159.100	-2.964	0.100
159.200	-10.059	0.100
159.300	-29.875	0.100
159.400	-1.523	0.100
159.500	1.362	0.100
159.600	-14.788	0.100
159.700	-16.377	0.100
159.800	-14.224	0.100
159.900	-19.762	0.100
160.000	-11.746	0.100
160.100	-8.141	0.100
160.200	-7.794	0.100
160.300	0.097	0.100
160.400	-13.825	0.100
160.500	-13.994	0.100
160.600	-18.254	0.100
160.700	-27.845	0.100
160.800	-20.555	0.100
160.900	-11.273	0.100
161.000	5.308	0.100
161.100	-1.922	0.100
161.200	-22.998	0.100
161.300	-5.507	0.100
161.400	-13.653	0.100
161.500	-2.216	0.100
161.600	-17.322	0.100
161.700	-9.226	0.100
161.800	-15.428	0.100
161.900	-8.923	0.100
162.000	-7.778	0.100
162.100	-7.151	0.100
162.200	-20.384	0.100
162.300	-15.666	0.100
162.400	-14.248	0.100
162.500	-3.619	0.100
162.600	-9.228	0.100
162.700	-5.492	0.100
162.800	-11.424	0.100
162.900	0.464	0.100
163.000	-7.810	0.100
163.100	-17.699	0.100
163.200	-14.524	0.100
163.300	-6.008	0.100
163.400	-13.152	0.100
163.500	-5.894	0.100
163.600	-12.801	0.100
163.700	0.928	0.100
163.800	11.062	0.100
163.900	-14.539	0.100
164.000	0.103	0.100
164.100	-22.727	0.100
164.200	-22.705	0.100
164.300	-13.026	0.100
164.400	-16.776	0.100
164.500	-13.816	0.100
164.600	-8.107	0.100
164.700	-1.515	0.100
164.800	-1.531	0.100
164.900	-8.381	0.100
165.000	-10.646	0.100
165.100	-0.655	0.100
165.200	-10.436	0.100
165.300	-11.769	0.100
165.400	-6.476	0.100
165.500	-18.732	0.100
165.600	-13.305	0.100
165.700	-16.537	0.100
165.800	12.703	0.100
165.900	-3.490	0.100
166.000	-11.196	0.100
166.100	-13.187	0.100
166.200	-4.072	0.100
166.300	-9.297	0.100
166.400	-16.572	0.100
166.500	-20.023	0.100
166.600	-4.238	0.100
166.700	-2.864	0.100
166.800	-8.345	0.100
166.900	-20.378	0.100
167.000	-18.934	0.100
167.100	-13.452	0.100
167.200	-3.928	0.100
167.300	1.549	0.100
167.400	-23.182	0.100
167.500	-18.692	0.100
167.600	16.159	0.100
167.700	-7.546	0.100
167.800	-14.544	0.100
167.900	-9.522	0.100
168.000	1.978	0.100
168.100	-9.628	0.100
168.200	7.104	0.100
168.300	-4.082	0.100
168.400	-16.475	0.100
168.500	-14.403	0.100
168.600	-10.172	0.100
168.700	0.671	0.100
168.800	8.041	0.100
168.900	3.201	0.100
169.000	-4.373	0.100
169.100	-5.929	0.100
169.200	-24.617	0.100
169.300	-11.339	0.100
169.400	-22.097	0.100
169.500	9.257	0.100
169.600	-4.957	0.100
169.700	0.119	0.100
169.800	-13.242	0.100
169.900	-23.714	0.100
170.000	-17.386	0.100
170.100	-8.995	0.100
170.200	-11.443	0.100
170.300	-1.538	0.100
170.400	-1.319	0.100
170.500	-13.857	0.100
170.600	-9.638	0.100
170.700	-17.309	0.100
170.800	-20.326	0.100
170.900	-15.225	0.100
171.000	4.126	0.100
171.100	12.017	0.100
171.200	2.438	0.100
171.300	-1.577	0.100
171.400	-8.113	0.100
171.500	-13.368	0.100
171.600	-19.903	0.100
171.700	-6.062	0.100
171.800	1.066	0.100
171.900	-0.777	0.100
172.000	-12.251	0.100
172.100	-6.033	0.100
172.200	-17.518	0.100
172.300	-6.263	0.100
172.400	3.572	0.100
172.500	-18.773	0.100
172.600	-8.363	0.100
172.700	-5.415	0.100
172.800	-6.985	0.100
172.900	-27.902	0.100
173.000	2.413	0.100
173.100	-3.045	0.100
173.200	-6.530	0.100
173.300	-19.989	0.100
173.400	-3.159	0.100
173.500	4.054	0.100
173.600	-3.726	0.100
173.700	-11.115	0.100
173.800	5.577	0.100
173.900	5.236	0.100
174.000	-1.840	0.100
174.100	-38.643	0.100
174.200	-22.837	0.100
174.300	-13.109	0.100
174.400	-6.320	0.100
174.500	-4.022	0.100
174.600	-3.698	0.100
174.700	-8.978	0.100
174.800	-11.175	0.100
174.900	-8.325	0.100
175.000	5.524	0.100
175.100	2.394	0.100
175.200	-6.890	0.100
175.300	-11.224	0.100
175.400	-15.315	0.100
175.500	-12.240	0.100
175.600	-8.457	0.100
175.700	10.336	0.100
175.800	-6.341	0.100
175.900	9.598	0.100
176.000	-2.871	0.100
176.100	-8.964	0.100
176.200	-11.299	0.100
176.300	-14.987	0.100
176.400	-14.383	0.100
176.500	-5.953	0.100
176.600	-11.947	0.100
176.700	-15.989	0.100
176.800	-13.459	0.100
176.900	-13.226	0.100
177.000	2.525	0.100
177.100	-2.135	0.100
177.200	-0.812	0.100
177.300	-3.137	0.100
177.400	-9.064	0.100
177.500	-18.320	0.100
177.600	-6.165	0.100
177.700	-7.929	0.100
177.800	-2.175	0.100
177.900	-8.205	0.100
178.000	0.293	0.100
178.100	4.831	0.100
178.200	-26.824	0.100
178.300	1.092	0.100
178.400	2.927	0.100
178.500	5.187	0.100
178.600	-3.352	0.100
178.700	-13.702	0.100
178.800	-14.768	0.100
178.900	-10.423	0.100
179.000	-10.943	0.100
179.100	-7.098	0.100
179.200	-8.328	0.100
179.300	-3.895	0.100
179.400	11.070	0.100
179.500	-14.217	0.100
179.600	-1.114	0.100
179.700	-11.639	0.100
179.800	4.176	0.100
179.900	3.453	0.100
180.000	27.224	0.100
180.100	46.800	0.100
180.200	67.053	0.100
180.300	77.716	0.100
180.400	86.571	0.100
180.500	112.670	0.100
180.600	122.423	0.100
180.700	116.342	0.100
180.800	136.034	0.100
180.900	135.786	0.100
181.000	118.813	0.100
181.100	134.532	0.100
181.200	136.854	0.100
181.300	121.633	0.100
181.400	121.531	0.100
181.500	117.885	0.100
181.600	113.492	0.100
181.700	112.410	0.100
181.800	87.582	0.100
181.900	101.509	0.100
182.000	78.791	0.100
182.100	91.729	0.100
182.200	63.061	0.100
182.300	67.890	0.100
182.400	95.009	0.100
182.500	84.774	0.100
182.600	73.524	0.100
182.700	69.443	0.100
182.800	73.280	0.100
182.900	60.687	0.100
183.000	63.353	0.100
183.100	50.617	0.100
183.200	54.569	0.100
183.300	67.565	0.100
183.400	58.231	0.100
183.500	62.905	0.100
183.600	60.273	0.100
183.700	46.893	0.100
183.800	46.303	0.100
183.900	67.990	0.100
184.000	49.401	0.100
184.100	58.242	0.100
184.200	43.210	0.100
184.300	44.982	0.100
184.400	52.208	0.100
184.500	58.531	0.100
184.600	65.641	0.100
184.700	50.922	0.100
184.800	67.856	0.100
184.900	58.467	0.100
185.000	54.213	0.100
185.100	42.747	0.100
185.200	63.799	0.100
185.300	55.599	0.100
185.400	70.815	0.100
185.500	48.699	0.100
185.600	70.369	0.100
185.700	65.758	0.100
185.800	50.129	0.100
185.900	59.290	0.100
186.000	59.145	0.100
186.100	71.115	0.100
186.200	64.202	0.100
186.300	64.246	0.100
186.400	70.944	0.100
186.500	62.001	0.100
186.600	70.297	0.100
186.700	70.809	0.100
186.800	72.262	0.100
186.900	67.804	0.100
187.000	84.766	0.100
187.100	98.874	0.100
187.200	81.962	0.100
187.300	74.974	0.100
187.400	91.677	0.100
187.500	86.822	0.100
187.600	82.691	0.100
187.700	96.263	0.100
187.800	87.510	0.100
187.900	92.146	0.100
188.000	111.600	0.100
188.100	111.419	0.100
188.200	94.600	0.100
188.300	91.979	0.100
188.400	117.697	0.100
188.500	121.076	0.100
188.600	107.573	0.100
188.700	102.752	0.100
188.800	119.653	0.100
188.900	104.926	0.100
189.000	99.703	0.100
189.100	117.597	0.100
189.200	108.311	0.100
189.300	102.102	0.100
189.400	117.824	0.100
189.500	106.715	0.100
189.600	102.639	0.100
189.700	110.596	0.100
189.800	98.803	0.100
189.900	110.198	0.100
190.000	102.449	0.100
190.100	103.336	0.100
190.200	111.810	0.100
190.300	116.572	0.100
190.400	110.458	0.100
190.500	97.123	0.100
190.600	97.724	0.100
190.700	95.397	0.100
190.800	89.764	0.100
190.900	90.046	0.100
191.000	95.095	0.100
191.100	106.281	0.100
191.200	108.912	0.100
191.300	101.977	0.100
191.400	101.989	0.100
191.500	92.508	0.100
191.600	97.876	0.100
191.700	109.710	0.100
191.800	97.132	0.100
191.900	90.518	0.100
192.000	95.252	0.100
192.100	100.776	0.100
192.200	97.421	0.100
192.300	83.860	0.100
192.400	79.967	0.100
192.500	92.227	0.100
192.600	105.899	0.100
192.700	98.782	0.100
192.800	107.120	0.100
192.900	88.422	0.100
193.000	78.866	0.100
193.100	100.638	0.100
193.200	103.698	0.100
193.300	85.997	0.100
193.400	89.526	0.100
193.500	87.366	0.100
193.600	89.866	0.100
193.700	83.456	0.100
193.800	116.047	0.100
193.900	111.156	0.100
194.000	91.827	0.100
194.100	90.446	0.100
194.200	86.494	0.100
194.300	89.413	0.100
194.400	93.458	0.100
194.500	86.498	0.100
194.600	92.672	0.100
194.700	89.540	0.100
194.800	95.607	0.100
194.900	73.729	0.100
195.000	91.048	0.100
195.100	95.704	0.100
195.200	78.794	0.100
195.300	93.081	0.100
195.400	77.456	0.100
195.500	97.136	0.100
195.600	82.944	0.100
195.700	85.502	0.100
195.800	91.566	0.100
195.900	77.701	0.100
196.000	66.354	0.100
196.100	77.958	0.100
196.200	94.507	0.100
196.300	92.199	0.100
196.400	100.476	0.100
196.500	91.913	0.100
196.600	88.991	0.100
196.700	70.499	0.100
196.800	75.325	0.100
196.900	80.897	0.100
197.000	87.043	0.100
197.100	87.874	0.100
197.200	89.978	0.100
197.300	78.176	0.100
197.400	71.592	0.100
197.500	85.114	0.100
197.600	83.630	0.100
197.700	73.183	0.100
197.800	86.802	0.100
197.900	88.661	0.100
198.000	92.344	0.100
198.100	81.878	0.100
198.200	82.793	0.100
198.300	76.369	0.100
198.400	75.673	0.100
198.500	91.228	0.100
198.600	71.240	0.100
198.700	79.813	0.100
198.800	86.036	0.100
198.900	80.495	0.100
199.000	74.138	0.100
199.100	83.883	0.100
199.200	74.400	0.100
199.300	68.798	0.100
199.400	89.486	0.100
199.500	65.741	0.100
199.600	56.295	0.100
199.700	87.075	0.100
199.800	69.819	0.100
199.900	75.815	0.100
200.000	76.723	0.100
200.100	91.424	0.100
200.200	80.793	0.100
200.300	78.542	0.100
200.400	85.758	0.100
200.500	87.656	0.100
200.600	73.775	0.100
200.700	63.057	0.100
200.800	77.043	0.100
200.900	84.417	0.100
201.000	66.681	0.100
201.100	81.017	0.100
201.200	54.097	0.100
201.300	75.244	0.100
201.400	77.331	0.100
201.500	73.398	0.100
201.600	79.281	0.100
201.700	64.958	0.100
201.800	82.390	0.100
201.900	70.186	0.100
202.000	75.234	0.100
202.100	79.111	0.100
202.200	82.707	0.100
202.300	72.006	0.100
202.400	76.441	0.100
202.500	88.145	0.100
202.600	67.018	0.100
202.700	64.248	0.100
202.800	86.739	0.100
202.900	77.212	0.100
203.000	60.650	0.100
203.100	79.062	0.100
203.200	68.309	0.100
203.300	79.487	0.100
203.400	70.156	0.100
203.500	75.898	0.100
203.600	77.428	0.100
203.700	73.847	0.100
203.800	64.735	0.100
203.900	86.175	0.100
204.000	71.236	0.100
204.100	63.218	0.100
204.200	73.312	0.100
204.300	85.309	0.100
204.400	91.217	0.100
204.500	83.951	0.100
204.600	61.510	0.100
204.700	69.918	0.100
204.800	68.683	0.100
204.900	72.838	0.100
205.000	73.600	0.100
205.100	52.927	0.100
205.200	65.272	0.100
205.300	69.501	0.100
205.400	70.303	0.100
205.500	77.281	0.100
205.600	77.912	0.100
205.700	84.119	0.100
205.800	85.749	0.100
205.900	67.082	0.100
206.000	83.557	0.100
206.100	60.515	0.100
206.200	66.475	0.100
206.300	70.160	0.100
206.400	82.976	0.100
206.500	78.523	0.100
206.600	54.035	0.100
206.700	74.456	0.100
206.800	77.223	0.100
206.900	73.931	0.100
207.000	66.089	0.100
207.100	73.565	0.100
207.200	61.118	0.100
207.300	71.509	0.100
207.400	71.871	0.100
207.500	72.667	0.100
207.600	72.570	0.100
207.700	63.072	0.100
207.800	73.424	0.100
207.900	79.209	0.100
208.000	64.815	0.100
208.100	64.547	0.100
208.200	79.818	0.100
208.300	62.928	0.100
208.400	78.547	0.100
208.500	92.636	0.100
208.600	78.064	0.100
208.700	61.971	0.100
208.800	77.614	0.100
208.900	60.218	0.100
209.000	74.036	0.100
209.100	60.472	0.100
209.200	70.744	0.100
209.300	77.535	0.100
209.400	66.840	0.100
209.500	83.863	0.100
209.600	66.238	0.100
209.700	71.545	0.100
209.800	69.940	0.100
209.900	70.723	0.100
210.000	46.846	0.100
210.100	80.273	0.100
210.200	65.532	0.100
210.300	70.354	0.100
210.400	61.472	0.100
210.500	78.578	0.100
210.600	62.161	0.100
210.700	61.424	0.100
210.800	61.375	0.100
210.900	82.720	0.100
211.000	68.998	0.100
211.100	79.369	0.100
211.200	67.878	0.100
211.300	79.534	0.100
211.400	86.316	0.100
211.500	43.303	0.100
211.600	69.894	0.100
211.700	59.496	0.100
211.800	72.345	0.100
211.900	77.482	0.100
212.000	75.377	0.100
212.100	57.662	0.100
212.200	75.477	0.100
212.300	54.101	0.100
212.400	67.476	0.100
212.500	67.890	0.100
212.600	55.702	0.100
212.700	72.135	0.100
212.800	73.683	0.100
212.900	73.754	0.100
213.000	75.277	0.100
213.100	47.983	0.100
213.200	67.154	0.100
213.300	80.114	0.100
213.400	61.464	0.100
213.500	57.648	0.100
213.600	70.931	0.100
213.700	79.752	0.100
213.800	74.981	0.100
213.900	70.692	0.100
214.000	84.346	0.100
214.100	67.884	0.100
214.200	53.874	0.100
214.300	59.042	0.100
214.400	68.601	0.100
214.500	58.827	0.100
214.600	70.803	0.100
214.700	70.165	0.100
214.800	65.557	0.100
214.900	61.245	0.100
215.000	74.733	0.100
215.100	75.797	0.100
215.200	65.793	0.100
215.300	64.134	0.100
215.400	70.608	0.100
215.500	44.332	0.100
215.600	51.764	0.100
215.700	75.400	0.100
215.800	75.144	0.100
215.900	66.665	0.100
216.000	53.831	0.100
216.100	80.155	0.100
216.200	71.019	0.100
216.300	60.334	0.100
216.400	74.019	0.100
216.500	71.011	0.100
216.600	69.932	0.100
216.700	61.936	0.100
216.800	73.665	0.100
216.900	60.788	0.100
217.000	53.074	0.100
217.100	75.866	0.100
217.200	51.972	0.100
217.300	77.322	0.100
217.400	76.260	0.100
217.500	64.789	0.100
217.600	62.166	0.100
217.700	60.624	0.100
217.800	65.690	0.100
217.900	66.451	0.100
218.000	52.299	0.100
218.100	70.456	0.100
218.200	71.813	0.100
218.300	75.451	0.100
218.400	53.365	0.100
218.500	56.841	0.100
218.600	79.421	0.100
218.700	74.046	0.100
218.800	74.131	0.100
218.900	50.838	0.100
219.000	48.730	0.100
219.100	71.302	0.100
219.200	71.328	0.100
219.300	78.867	0.100
219.400	55.026	0.100
219.500	64.884	0.100
219.600	70.950	0.100
219.700	65.851	0.100
219.800	71.575	0.100
219.900	76.412	0.100
220.000	60.857	0.100
220.100	54.837	0.100
220.200	79.028	0.100
220.300	63.622	0.100
220.400	68.873	0.100
220.500	78.217	0.100
220.600	74.824	0.100
220.700	60.756	0.100
220.800	55.712	0.100
220.900	64.580	0.100
221.000	62.726	0.100
221.100	56.465	0.100
221.200	59.772	0.100
221.300	64.107	0.100
221.400	68.859	0.100
221.500	54.569	0.100
221.600	67.182	0.100
221.700	61.810	0.100
221.800	58.512	0.100
221.900	77.733	0.100
222.000	47.513	0.100
222.100	55.519	0.100
222.200	62.752	0.100
222.300	56.301	0.100
222.400	78.595	0.100
222.500	65.891	0.100
222.600	60.894	0.100
222.700	66.875	0.100
222.800	61.602	0.100
222.900	65.724	0.100
223.000	56.678	0.100
223.100	67.815	0.100
223.200	61.191	0.100
223.300	75.841	0.100
223.400	68.486	0.100
223.500	71.681	0.100
223.600	62.039	0.100
223.700	42.304	0.100
223.800	53.735	0.100
223.900	63.848	0.100
224.000	56.117	0.100
224.100	73.534	0.100
224.200	71.381	0.100
224.300	62.422	0.100
224.400	50.678	0.100
224.500	61.945	0.100
224.600	58.573	0.100
224.700	77.141	0.100
224.800	71.471	0.100
224.900	72.339	0.100
225.000	69.841	0.100
225.100	67.882	0.100
225.200	66.854	0.100
225.300	61.323	0.100
225.400	72.569	0.100
225.500	59.183	0.100
225.600	52.216	0.100
225.700	80.065	0.100
225.800	45.463	0.100
225.900	63.714	0.100
226.000	75.116	0.100
226.100	69.018	0.100
226.200	68.588	0.100
226.300	63.984	0.100
226.400	65.558	0.100
226.500	64.275	0.100
226.600	55.317	0.100
226.700	68.111	0.100
226.800	61.450	0.100
226.900	81.587	0.100
227.000	63.120	0.100
227.100	63.969	0.100
227.200	62.355	0.100
227.300	89.534	0.100
227.400	64.790	0.100
227.500	71.492	0.100
227.600	53.047	0.100
227.700	53.874	0.100
227.800	51.305	0.100
227.900	63.837	0.100
228.000	64.715	0.100
228.100	52.734	0.100
228.200	55.938	0.100
228.300	61.130	0.100
228.400	63.748	0.100
228.500	73.867	0.100
228.600	68.141	0.100
228.700	69.057	0.100
228.800	67.659	0.100
228.900	72.723	0.100
229.000	71.804	0.100
229.100	58.872	0.100
229.200	54.931	0.100
229.300	69.527	0.100
229.400	72.146	0.100
229.500	59.322	0.100
229.600	59.848	0.100
229.700	49.432	0.100
229.800	61.916	0.100
229.900	70.476	0.100
230.000	56.675	0.100
230.100	60.641	0.100
230.200	61.974	0.100
230.300	61.654	0.100
230.400	55.369	0.100
230.500	60.032	0.100
230.600	63.468	0.100
230.700	68.850	0.100
230.800	51.305	0.100
230.900	38.244	0.100
231.000	70.105	0.100
231.100	60.986	0.100
231.200	61.019	0.100
231.300	55.867	0.100
231.400	65.240	0.100
231.500	90.257	0.100
231.600	60.478	0.100
231.700	53.663	0.100
231.800	53.965	0.100
231.900	56.871	0.100
232.000	71.775	0.100
232.100	66.236	0.100
232.200	57.813	0.100
232.300	60.276	0.100
232.400	57.054	0.100
232.500	71.770	0.100
232.600	55.377	0.100
232.700	45.658	0.100
232.800	71.903	0.100
232.900	64.757	0.100
233.000	54.544	0.100
233.100	57.419	0.100
233.200	56.169	0.100
233.300	66.425	0.100
233.400	71.000	0.100
233.500	65.391	0.100
233.600	45.667	0.100
233.700	54.126	0.100
233.800	63.043	0.100
233.900	57.901	0.100
234.000	76.421	0.100
234.100	52.758	0.100
234.200	67.912	0.100
234.300	70.081	0.100
234.400	50.185	0.100
234.500	76.933	0.100
234.600	74.690	0.100
234.700	62.692	0.100
234.800	67.482	0.100
234.900	66.192	0.100
235.000	57.452	0.100
235.100	68.332	0.100
235.200	60.932	0.100
235.300	58.482	0.100
235.400	65.025	0.100
235.500	55.194	0.100
235.600	59.367	0.100
235.700	64.219	0.100
235.800	66.757	0.100
235.900	48.213	0.100
236.000	67.366	0.100
236.100	74.840	0.100
236.200	60.351	0.100
236.300	70.792	0.100
236.400	75.438	0.100
236.500	52.666	0.100
236.600	50.346	0.100
236.700	50.974	0.100
236.800	55.564	0.100
236.900	62.272	0.100
237.000	55.125	0.100
237.100	73.522	0.100
237.200	55.271	0.100
237.300	60.216	0.100
237.400	61.274	0.100
237.500	75.130	0.100
237.600	52.052	0.100
237.700	56.937	0.100
237.800	67.922	0.100
237.900	58.574	0.100
238.000	72.667	0.100
238.100	66.276	0.100
238.200	67.151	0.100
238.300	59.580	0.100
238.400	65.710	0.100
238.500	53.333	0.100
238.600	54.857	0.100
238.700	59.911	0.100
238.800	61.289	0.100
238.900	64.259	0.100
239.000	59.951	0.100
239.100	57.472	0.100
239.200	53.126	0.100
239.300	66.889	0.100
239.400	44.373	0.100
239.500	55.334	0.100
239.600	55.932	0.100
239.700	62.683	0.100
239.800	60.156	0.100
239.900	50.088	0.100
240.000	27.502	0.100
240.100	29.265	0.100
240.200	14.656	0.100
240.300	2.056	0.100
240.400	12.255	0.100
240.500	3.520	0.100
240.600	-16.572	0.100
240.700	-18.773	0.100
240.800	-19.130	0.100
240.900	-12.737	0.100
241.000	-9.970	0.100
241.100	-19.731	0.100
241.200	-9.494	0.100
241.300	-13.963	0.100
241.400	-42.681	0.100
241.500	-31.947	0.100
241.600	8.499	0.100
241.700	-26.254	0.100
241.800	-27.666	0.100
241.900	-22.725	0.100
242.000	-10.681	0.100
242.100	-16.808	0.100
242.200	-14.257	0.100
242.300	-28.205	0.100
242.400	-31.630	0.100
242.500	-23.308	0.100
242.600	-34.140	0.100
242.700	-17.898	0.100
242.800	-30.436	0.100
242.900	-23.502	0.100
243.000	-17.981	0.100
243.100	-19.791	0.100
243.200	-29.784	0.100
243.300	-27.598	0.100
243.400	-35.866	0.100
243.500	-38.662	0.100
243.600	-34.711	0.100
243.700	-14.220	0.100
243.800	-22.885	0.100
243.900	-36.778	0.100
244.000	-39.790	0.100
244.100	-26.329	0.100
244.200	-35.467	0.100
244.300	-26.066	0.100
244.400	-29.591	0.100
244.500	-40.150	0.100
244.600	-38.795	0.100
244.700	-31.563	0.100
244.800	-25.486	0.100
244.900	-31.415	0.100
245.000	-25.652	0.100
245.100	-27.891	0.100
245.200	-28.368	0.100
245.300	-38.308	0.100
245.400	-38.950	0.100
245.500	-39.887	0.100
245.600	-13.765	0.100
245.700	-36.184	0.100
245.800	-28.869	0.100
245.900	-30.283	0.100
246.000	-38.616	0.100
246.100	-38.502	0.100
246.200	-31.014	0.100
246.300	-24.629	0.100
246.400	-50.832	0.100
246.500	-44.335	0.100
246.600	-17.599	0.100
246.700	-22.897	0.100
246.800	-39.666	0.100
246.900	-21.589	0.100
247.000	-17.018	0.100
247.100	-44.944	0.100
247.200	-31.011	0.100
247.300	-27.798	0.100
247.400	-30.152	0.100
247.500	-34.699	0.100
247.600	-35.735	0.100
247.700	-35.504	0.100
247.800	-25.336	0.100
247.900	-32.199	0.100
248.000	-21.644	0.100
248.100	-35.229	0.100
248.200	-44.033	0.100
248.300	-27.652	0.100
248.400	-18.430	0.100
248.500	-24.586	0.100
248.600	-24.611	0.100
248.700	-31.190	0.100
248.800	-28.179	0.100
248.900	-30.859	0.100
249.000	-22.244	0.100
249.100	-42.591	0.100
249.200	-39.053	0.100
249.300	-8.162	0.100
249.400	-24.508	0.100
249.500	-38.505	0.100
249.600	-28.163	0.100
249.700	-25.495	0.100
249.800	-27.237	0.100
249.900	-45.607	0.100
250.000	-28.432	0.100
250.100	-14.581	0.100
250.200	-25.114	0.100
250.300	-26.582	0.100
250.400	-42.476	0.100
250.500	-21.364	0.100
250.600	-17.976	0.100
250.700	-14.073	0.100
250.800	-28.259	0.100
250.900	-32.030	0.100
251.000	-27.891	0.100
251.100	-22.468	0.100
251.200	-32.573	0.100
251.300	-21.315	0.100
251.400	-18.714	0.100
251.500	-18.651	0.100
251.600	-31.442	0.100
251.700	-16.062	0.100
251.800	-36.532	0.100
251.900	-14.027	0.100
252.000	-39.635	0.100
252.100	-33.880	0.100
252.200	-32.741	0.100
252.300	-18.726	0.100
252.400	-20.748	0.100
252.500	-22.905	0.100
252.600	-27.080	0.100
252.700	-24.756	0.100
252.800	-11.780	0.100
252.900	-23.607	0.100
253.000	-29.427	0.100
253.100	-29.944	0.100
253.200	-30.241	0.100
253.300	-25.705	0.100
253.400	-29.294	0.100
253.500	-12.427	0.100
253.600	-19.811	0.100
253.700	-37.274	0.100
253.800	-29.326	0.100
253.900	-32.878	0.100
254.000	-13.203	0.100
254.100	-28.075	0.100
254.200	-30.068	0.100
254.300	-14.463	0.100
254.400	-12.481	0.100
254.500	-37.881	0.100
254.600	-20.391	0.100
254.700	-28.308	0.100
254.800	-37.495	0.100
254.900	-40.662	0.100
255.000	-13.925	0.100
255.100	-32.360	0.100
255.200	-12.944	0.100
255.300	-22.593	0.100
255.400	-36.195	0.100
255.500	-28.268	0.100
255.600	-40.996	0.100
255.700	-23.671	0.100
255.800	-27.487	0.100
255.900	-17.378	0.100
256.000	-33.283	0.100
256.100	-16.469	0.100
256.200	-27.349	0.100
256.300	-24.068	0.100
256.400	-18.864	0.100
256.500	-27.232	0.100
256.600	-31.963	0.100
256.700	-18.505	0.100
256.800	-23.013	0.100
256.900	-27.669	0.100
257.000	-15.215	0.100
257.100	-30.943	0.100
257.200	-35.436	0.100
257.300	-41.231	0.100
257.400	-18.936	0.100
257.500	-19.302	0.100
257.600	-16.840	0.100
257.700	-10.873	0.100
257.800	-18.169	0.100
257.900	-32.203	0.100
258.000	-26.328	0.100
258.100	-18.968	0.100
258.200	-40.129	0.100
258.300	-29.878	0.100
258.400	-38.163	0.100
258.500	-43.300	0.100
258.600	-18.775	0.100
258.700	-22.019	0.100
258.800	-26.130	0.100
258.900	-22.428	0.100
259.000	-25.448	0.100
259.100	-28.727	0.100
259.200	-33.120	0.100
259.300	-28.276	0.100
259.400	-17.259	0.100
259.500	-17.409	0.100
259.600	-43.754	0.100
259.700	-17.901	0.100
259.800	-22.489	0.100
259.900	-28.935	0.100
260.000	-34.799	0.100
260.100	-30.445	0.100
260.200	-30.960	0.100
260.300	-22.413	0.100
260.400	-28.990	0.100
260.500	-26.180	0.100
260.600	-26.334	0.100
260.700	-44.530	0.100
260.800	-31.327	0.100
260.900	-25.661	0.100
261.000	-13.022	0.100
261.100	-18.770	0.100
261.200	-30.896	0.100
261.300	-34.254	0.100
261.400	-37.520	0.100
261.500	-34.897	0.100
261.600	-19.558	0.100
261.700	-15.999	0.100
261.800	-36.224	0.100
261.900	-35.795	0.100
262.000	-19.232	0.100
262.100	-30.517	0.100
262.200	-26.216	0.100
262.300	-20.366	0.100
262.400	-22.009	0.100
262.500	-26.191	0.100
262.600	-21.036	0.100
262.700	-13.333	0.100
262.800	-32.466	0.100
262.900	-32.653	0.100
263.000	-35.542	0.100
263.100	-39.454	0.100
263.200	-24.563	0.100
263.300	-3.402	0.100
263.400	-31.069	0.100
263.500	-41.789	0.100
263.600	-29.357	0.100
263.700	-23.797	0.100
263.800	-27.890	0.100
263.900	-10.198	0.100
264.000	-34.590	0.100
264.100	-10.442	0.100
264.200	-26.941	0.100
264.300	-21.229	0.100
264.400	-30.381	0.100
264.500	-24.868	0.100
264.600	-29.527	0.100
264.700	-30.434	0.100
264.800	-12.671	0.100
264.900	-38.778	0.100
265.000	-32.283	0.100
265.100	-25.943	0.100
265.200	-25.667	0.100
265.300	-25.492	0.100
265.400	-18.451	0.100
265.500	-16.147	0.100
265.600	-32.234	0.100
265.700	-33.695	0.100
265.800	-20.237	0.100
265.900	-33.145	0.100
266.000	-19.967	0.100
266.100	-32.978	0.100
266.200	-34.717	0.100
266.300	-30.857	0.100
266.400	-18.202	0.100
266.500	-23.325	0.100
266.600	1.863	0.100
266.700	-38.407	0.100
266.800	-28.101	0.100
266.900	-44.292	0.100
267.000	-25.400	0.100
267.100	-7.403	0.100
267.200	-33.693	0.100
267.300	-41.657	0.100
267.400	-21.667	0.100
267.500	-22.601	0.100
267.600	-15.113	0.100
267.700	-31.696	0.100
267.800	-18.592	0.100
267.900	-26.930	0.100
268.000	-37.435	0.100
268.100	-28.164	0.100
268.200	-42.286	0.100
268.300	-39.073	0.100
268.400	-34.688	0.100
268.500	-6.120	0.100
268.600	-18.836	0.100
268.700	-32.683	0.100
268.800	-11.795	0.100
268.900	-26.521	0.100
269.000	-38.968	0.100
269.100	-15.260	0.100
269.200	-24.592	0.100
269.300	-29.994	0.100
269.400	-27.649	0.100
269.500	-27.579	0.100
269.600	-23.461	0.100
269.700	-19.958	0.100
269.800	-30.099	0.100
269.900	-20.700	0.100
270.000	-23.625	0.100
270.100	-41.976	0.100
270.200	-38.769	0.100
270.300	-27.887	0.100
270.400	-34.008	0.100
270.500	-26.130	0.100
270.600	-21.565	0.100
270.700	-24.649	0.100
270.800	-26.150	0.100
270.900	-20.597	0.100
271.000	-24.392	0.100
271.100	-40.231	0.100
271.200	-22.849	0.100
271.300	-20.613	0.100
271.400	-30.827	0.100
271.500	-12.373	0.100
271.600	-30.109	0.100
271.700	-46.989	0.100
271.800	-23.972	0.100
271.900	-27.939	0.100
272.000	-41.062	0.100
272.100	-16.094	0.100
272.200	-25.095	0.100
272.300	-28.842	0.100
272.400	-35.637	0.100
272.500	-41.967	0.100
272.600	-7.621	0.100
272.700	-27.303	0.100
272.800	-19.465	0.100
272.900	-46.878	0.100
273.000	-28.981	0.100
273.100	-32.222	0.100
273.200	-28.386	0.100
273.300	-17.398	0.100
273.400	-35.334	0.100
273.500	-24.188	0.100
273.600	-25.586	0.100
273.700	-25.066	0.100
273.800	-26.677	0.100
273.900	-30.718	0.100
274.000	-56.560	0.100
274.100	-16.111	0.100
274.200	-29.521	0.100
274.300	-29.199	0.100
274.400	-13.830	0.100
274.500	-31.357	0.100
274.600	-24.393	0.100
274.700	-29.610	0.100
274.800	-29.438	0.100
274.900	-34.776	0.100
275.000	-23.995	0.100
275.100	-26.196	0.100
275.200	-24.681	0.100
275.300	-33.546	0.100
275.400	-20.935	0.100
275.500	-19.845	0.100
275.600	-30.324	0.100
275.700	-36.808	0.100
275.800	-15.363	0.100
275.900	-26.505	0.100
276.000	-36.439	0.100
276.100	-36.394	0.100
276.200	-35.924	0.100
276.300	-29.945	0.100
276.400	-21.735	0.100
276.500	-15.226	0.100
276.600	-25.379	0.100
276.700	-30.601	0.100
276.800	-33.457	0.100
276.900	-28.754	0.100
277.000	-31.733	0.100
277.100	-30.822	0.100
277.200	-20.375	0.100
277.300	-40.446	0.100
277.400	-37.846	0.100
277.500	-34.969	0.100
277.600	-34.561	0.100
277.700	-27.090	0.100
277.800	-15.113	0.100
277.900	-24.801	0.100
278.000	-16.229	0.100
278.100	-42.060	0.100
278.200	-23.899	0.100
278.300	-26.895	0.100
278.400	-32.111	0.100
278.500	-21.948	0.100
278.600	-37.333	0.100
278.700	-32.518	0.100
278.800	-31.840	0.100
278.900	-34.483	0.100
279.000	-38.239	0.100
279.100	-26.663	0.100
279.200	-28.066	0.100
279.300	-19.644	0.100
279.400	-15.897	0.100
279.500	-44.461	0.100
279.600	-21.211	0.100
279.700	-40.616	0.100
279.800	-1.097	0.100
279.900	-29.665	0.100
280.000	-23.949	0.100
280.100	-20.743	0.100
280.200	-28.859	0.100
280.300	-16.477	0.100
280.400	-22.868	0.100
280.500	-31.717	0.100
280.600	-27.048	0.100
280.700	-30.174	0.100
280.800	-43.087	0.100
280.900	-27.160	0.100
281.000	-29.075	0.100
281.100	-12.422	0.100
281.200	-23.515	0.100
281.300	-39.529	0.100
281.400	-27.701	0.100
281.500	-23.148	0.100
281.600	-17.447	0.100
281.700	-22.475	0.100
281.800	-24.549	0.100
281.900	-37.866	0.100
282.000	-48.351	0.100
282.100	-22.446	0.100
282.200	-18.994	0.100
282.300	-20.552	0.100
282.400	-35.039	0.100
282.500	-27.388	0.100
282.600	-27.775	0.100
282.700	-16.914	0.100
282.800	-19.964	0.100
282.900	-17.041	0.100
283.000	-36.825	0.100
283.100	-31.656	0.100
283.200	-16.126	0.100
283.300	-18.424	0.100
283.400	-29.815	0.100
283.500	-36.077	0.100
283.600	-29.395	0.100
283.700	-32.147	0.100
283.800	-40.086	0.100
283.900	-34.521	0.100
284.000	-29.921	0.100
284.100	-24.534	0.100
284.200	-12.090	0.100
284.300	-7.446	0.100
284.400	-34.415	0.100
284.500	-18.753	0.100
284.600	-41.812	0.100
284.700	-25.478	0.100
284.800	-33.571	0.100
284.900	-29.558	0.100
285.000	-17.312	0.100
285.100	-25.940	0.100
285.200	-35.022	0.100
285.300	-31.288	0.100
285.400	-16.810	0.100
285.500	-25.596	0.100
285.600	-21.516	0.100
285.700	-23.663	0.100
285.800	-18.289	0.100
285.900	-21.802	0.100
286.000	-48.537	0.100
286.100	-28.552	0.100
286.200	-23.800	0.100
286.300	-24.014	0.100
286.400	-23.857	0.100
286.500	-28.448	0.100
286.600	-17.519	0.100
286.700	-24.491	0.100
286.800	-23.732	0.100
286.900	-41.490	0.100
287.000	-22.057	0.100
287.100	-37.779	0.100
287.200	-11.193	0.100
287.300	-18.339	0.100
287.400	-23.282	0.100
287.500	-20.113	0.100
287.600	-29.590	0.100
287.700	-16.402	0.100
287.800	-21.572	0.100
287.900	-28.235	0.100
288.000	-22.098	0.100
288.100	-36.574	0.100
288.200	-28.445	0.100
288.300	-13.860	0.100
288.400	-18.891	0.100
288.500	-27.526	0.100
288.600	-23.590	0.100
288.700	-35.044	0.100
288.800	-41.490	0.100
288.900	-19.409	0.100
289.000	-30.180	0.100
289.100	-19.747	0.100
289.200	-22.543	0.100
289.300	-11.409	0.100
289.400	-17.009	0.100
289.500	-27.617	0.100
289.600	-24.707	0.100
289.700	-39.503	0.100
289.800	-46.812	0.100
289.900	-11.567	0.100
290.000	-18.692	0.100
290.100	-18.908	0.100
290.200	-31.924	0.100
290.300	-20.656	0.100
290.400	-12.776	0.100
290.500	-9.547	0.100
290.600	-11.228	0.100
290.700	-20.246	0.100
290.800	-28.961	0.100
290.900	-28.767	0.100
291.000	-11.388	0.100
291.100	-27.913	0.100
291.200	-9.852	0.100
291.300	-31.195	0.100
291.400	-27.040	0.100
291.500	-21.736	0.100
291.600	-33.342	0.100
291.700	-26.996	0.100
291.800	-28.405	0.100
291.900	-17.532	0.100
292.000	-44.332	0.100
292.100	-9.324	0.100
292.200	-22.540	0.100
292.300	-11.613	0.100
292.400	-19.426	0.100
292.500	-26.427	0.100
292.600	-20.950	0.100
292.700	-1.146	0.100
292.800	-23.685	0.100
292.900	-31.425	0.100
293.000	-30.956	0.100
293.100	-7.354	0.100
293.200	-19.823	0.100
293.300	-20.866	0.100
293.400	-15.318	0.100
293.500	-18.215	0.100
293.600	-24.591	0.100
293.700	-7.667	0.100
293.800	-22.480	0.100
293.900	-30.319	0.100
294.000	-41.390	0.100
294.100	-21.316	0.100
294.200	-20.683	0.100
294.300	-17.893	0.100
294.400	-14.193	0.100
294.500	-3.199	0.100
294.600	-23.309	0.100
294.700	-20.085	0.100
294.800	-31.182	0.100
294.900	-27.730	0.100
295.000	-29.582	0.100
295.100	-16.193	0.100
295.200	-33.494	0.100
295.300	-12.907	0.100
295.400	-22.503	0.100
295.500	-14.058	0.100
295.600	-39.302	0.100
295.700	-13.206	0.100
295.800	-23.348	0.100
295.900	-11.683	0.100
296.000	-37.903	0.100
296.100	-16.290	0.100
296.200	-18.004	0.100
296.300	-26.145	0.100
296.400	-26.213	0.100
296.500	-7.310	0.100
296.600	-11.921	0.100
296.700	-16.699	0.100
296.800	-19.313	0.100
296.900	-23.507	0.100
297.000	-21.131	0.100
297.100	-14.473	0.100
297.200	-34.558	0.100
297.300	-15.551	0.100
297.400	-22.350	0.100
297.500	-7.101	0.100
297.600	-10.095	0.100
297.700	-16.716	0.100
297.800	-20.619	0.100
297.900	-24.979	0.100
298.000	-18.614	0.100
298.100	-15.191	0.100
298.200	-15.735	0.100
298.300	-40.981	0.100
298.400	-10.319	0.100
298.500	-18.057	0.100
298.600	-19.403	0.100
298.700	-10.915	0.100
298.800	-32.427	0.100
298.900	-25.649	0.100
299.000	-11.714	0.100
299.100	-14.337	0.100
299.200	-15.897	0.100
299.300	-27.289	0.100
299.400	-24.542	0.100
299.500	-31.184	0.100
299.600	-22.891	0.100
299.700	-12.349	0.100
299.800	-7.448	0.100
299.900	-34.544	0.100
300.000	-16.319	0.100
300.100	-21.822	0.100
300.200	-27.664	0.100
300.300	-20.017	0.100
300.400	-25.606	0.100
300.500	-1.220	0.100
300.600	-12.315	0.100
300.700	-10.621	0.100
300.800	-19.330	0.100
300.900	-20.476	0.100
301.000	-25.104	0.100
301.100	-28.569	0.100
301.200	-18.116	0.100
301.300	-18.433	0.100
301.400	-5.582	0.100
301.500	-7.923	0.100
301.600	-14.053	0.100
301.700	-12.712	0.100
301.800	-31.176	0.100
301.900	-22.972	0.100
302.000	-27.125	0.100
302.100	-9.908	0.100
302.200	-13.016	0.100
302.300	-28.964	0.100
302.400	-13.029	0.100
302.500	-25.688	0.100
302.600	-6.100	0.100
302.700	-5.417	0.100
302.800	-29.729	0.100
302.900	-14.119	0.100
303.000	-22.975	0.100
303.100	-10.384	0.100
303.200	-7.449	0.100
303.300	-14.018	0.100
303.400	-14.693	0.100
303.500	-2.710	0.100
303.600	-13.221	0.100
303.700	-7.502	0.100
303.800	-25.313	0.100
303.900	-22.974	0.100
304.000	-15.263	0.100
304.100	-17.889	0.100
304.200	-33.730	0.100
304.300	-31.376	0.100
304.400	-5.017	0.100
304.500	-8.351	0.100
304.600	-15.470	0.100
304.700	-26.501	0.100
304.800	-33.217	0.100
304.900	-1.200	0.100
305.000	-14.260	0.100
305.100	-0.439	0.100
305.200	-7.141	0.100
305.300	-14.343	0.100
305.400	-20.794	0.100
305.500	-12.103	0.100
305.600	-15.240	0.100
305.700	-11.427	0.100
305.800	-21.155	0.100
305.900	-17.973	0.100
306.000	-14.469	0.100
306.100	-21.553	0.100
306.200	-14.831	0.100
306.300	-10.865	0.100
306.400	-32.939	0.100
306.500	-12.868	0.100
306.600	-10.923	0.100
306.700	-9.559	0.100
306.800	-13.127	0.100
306.900	-18.603	0.100
307.000	-21.732	0.100
307.100	-26.397	0.100
307.200	-17.331	0.100
307.300	-16.655	0.100
307.400	-19.465	0.100
307.500	-16.000	0.100
307.600	-14.867	0.100
307.700	3.827	0.100
307.800	-6.593	0.100
307.900	-14.460	0.100
308.000	-14.489	0.100
308.100	-17.519	0.100
308.200	-26.455	0.100
308.300	-13.590	0.100
308.400	-18.485	0.100
308.500	-4.192	0.100
308.600	-19.008	0.100
308.700	-27.678	0.100
308.800	-4.025	0.100
308.900	-3.461	0.100
309.000	-30.654	0.100
309.100	-8.582	0.100
309.200	-8.656	0.100
309.300	-22.903	0.100
309.400	-7.065	0.100
309.500	-13.141	0.100
309.600	-20.223	0.100
309.700	-25.767	0.100
309.800	-31.018	0.100
309.900	-8.288	0.100
310.000	-18.430	0.100
310.100	-1.816	0.100
310.200	-13.296	0.100
310.300	-12.582	0.100
310.400	1.094	0.100
310.500	-5.970	0.100
310.600	-16.446	0.100
310.700	-16.252	0.100
310.800	-15.612	0.100
310.900	-15.349	0.100
311.000	-19.074	0.100
311.100	-23.542	0.100
311.200	3.617	0.100
311.300	-14.386	0.100
311.400	-10.077	0.100
311.500	0.999	0.100
311.600	-27.845	0.100
311.700	-23.686	0.100
311.800	-17.386	0.100
311.900	-10.436	0.100
312.000	-2.582	0.100
312.100	-9.464	0.100
312.200	-25.880	0.100
312.300	-9.016	0.100
312.400	4.928	0.100
312.500	-29.820	0.100
312.600	-12.924	0.100
312.700	-15.016	0.100
312.800	-19.186	0.100
312.900	-14.395	0.100
313.000	-12.821	0.100
313.100	-10.865	0.100
313.200	-11.389	0.100
313.300	-4.356	0.100
313.400	-6.970	0.100
313.500	-14.139	0.100
313.600	-16.328	0.100
313.700	-6.185	0.100
313.800	-9.079	0.100
313.900	-19.180	0.100
314.000	-17.867	0.100
314.100	-14.391	0.100
314.200	-27.954	0.100
314.300	0.717	0.100
314.400	5.154	0.100
314.500	-13.112	0.100
314.600	-11.847	0.100
314.700	1.120	0.100
314.800	-19.224	0.100
314.900	-16.980	0.100
315.000	-19.528	0.100
315.100	-18.626	0.100
315.200	-1.187	0.100
315.300	-35.324	0.100
315.400	-2.518	0.100
315.500	-18.914	0.100
315.600	8.104	0.100
315.700	-16.348	0.100
315.800	-2.415	0.100
315.900	-28.767	0.100
316.000	-9.119	0.100
316.100	-6.174	0.100
316.200	-9.211	0.100
316.300	-11.539	0.100
316.400	-26.412	0.100
316.500	-18.724	0.100
316.600	-14.953	0.100
316.700	-13.370	0.100
316.800	-25.929	0.100
316.900	-12.189	0.100
317.000	-8.084	0.100
317.100	3.465	0.100
317.200	-13.633	0.100
317.300	-1.347	0.100
317.400	-13.256	0.100
317.500	-3.701	0.100
317.600	-11.637	0.100
317.700	-11.832	0.100
317.800	-10.719	0.100
317.900	-10.068	0.100
318.000	-24.882	0.100
318.100	-9.206	0.100
318.200	-15.375	0.100
318.300	-4.937	0.100
318.400	-10.367	0.100
318.500	-0.804	0.100
318.600	-23.806	0.100
318.700	-25.225	0.100
318.800	-10.226	0.100
318.900	-19.799	0.100
319.000	-3.987	0.100
319.100	-6.617	0.100
319.200	-5.998	0.100
319.300	-5.084	0.100
319.400	-19.160	0.100
319.500	-12.263	0.100
319.600	-10.549	0.100
319.700	-13.416	0.100
319.800	-8.714	0.100
319.900	-6.245	0.100
320.000	-6.179	0.100
320.100	-8.201	0.100
320.200	-21.182	0.100
320.300	-16.478	0.100
320.400	-15.767	0.100
320.500	0.157	0.100
320.600	9.497	0.100
320.700	-10.241	0.100
320.800	-20.257	0.100
320.900	-3.013	0.100
321.000	-4.840	0.100
321.100	-13.428	0.100
321.200	-19.995	0.100
321.300	-2.003	0.100
321.400	0.376	0.100
321.500	-11.927	0.100
321.600	-13.192	0.100
321.700	-6.303	0.100
321.800	-22.222	0.100
321.900	-8.526	0.100
322.000	-5.293	0.100
322.100	-11.775	0.100
322.200	-19.879	0.100
322.300	-7.017	0.100
322.400	-17.490	0.100
322.500	-3.079	0.100
322.600	-22.546	0.100
322.700	-4.794	0.100
322.800	-7.016	0.100
322.900	-19.127	0.100
323.000	-3.666	0.100
323.100	0.965	0.100
323.200	-3.458	0.100
323.300	-2.604	0.100
323.400	-16.978	0.100
323.500	-9.937	0.100
323.600	-18.090	0.100
323.700	-14.174	0.100
323.800	-4.233	0.100
323.900	-9.180	0.100
324.000	-15.568	0.100
324.100	-5.170	0.100
324.200	-13.509	0.100
324.300	3.962	0.100
324.400	-17.835	0.100
324.500	-14.302	0.100
324.600	-17.823	0.100
324.700	-13.892	0.100
324.800	-1.408	0.100
324.900	3.985	0.100
325.000	0.160	0.100
325.100	-25.359	0.100
325.200	-0.295	0.100
325.300	-14.253	0.100
325.400	-12.123	0.100
325.500	-27.580	0.100
325.600	-22.302	0.100
325.700	-21.154	0.100
325.800	-4.384	0.100
325.900	-6.931	0.100
326.000	-1.264	0.100
326.100	-10.103	0.100
326.200	-21.140	0.100
326.300	1.347	0.100
326.400	-10.839	0.100
326.500	-2.447	0.100
326.600	-4.016	0.100
326.700	4.540	0.100
326.800	-9.240	0.100
326.900	-8.676	0.100
327.000	-12.867	0.100
327.100	-13.891	0.100
327.200	-18.090	0.100
327.300	-3.700	0.100
327.400	-10.405	0.100
327.500	-10.768	0.100
327.600	6.601	0.100
327.700	1.856	0.100
327.800	-15.041	0.100
327.900	-6.189	0.100
328.000	-13.451	0.100
328.100	2.728	0.100
328.200	-4.541	0.100
328.300	-27.425	0.100
328.400	-11.438	0.100
328.500	-10.871	0.100
328.600	0.410	0.100
328.700	-11.162	0.100
328.800	-1.775	0.100
328.900	-3.574	0.100
329.000	-13.074	0.100
329.100	-5.604	0.100
329.200	-2.898	0.100
329.300	-15.937	0.100
329.400	-11.670	0.100
329.500	13.144	0.100
329.600	-12.556	0.100
329.700	-9.947	0.100
329.800	-4.696	0.100
329.900	-11.962	0.100
330.000	1.187	0.100
330.100	49.979	0.100
330.200	66.786	0.100
330.300	75.365	0.100
330.400	85.948	0.100
330.500	112.442	0.100
330.600	131.106	0.100
330.700	116.910	0.100
330.800	135.407	0.100
330.900	134.798	0.100
331.000	128.398	0.100
331.100	146.355	0.100
331.200	136.106	0.100
331.300	126.470	0.100
331.400	124.137	0.100
331.500	124.138	0.100
331.600	111.076	0.100
331.700	106.503	0.100
331.800	104.779	0.100
331.900	108.469	0.100
332.000	92.236	0.100
332.100	96.158	0.100
332.200	91.821	0.100
332.300	109.856	0.100
332.400	92.135	0.100
332.500	102.153	0.100
332.600	103.505	0.100
332.700	90.639	0.100
332.800	81.354	0.100
332.900	74.020	0.100
333.000	83.433	0.100
333.100	84.697	0.100
333.200	70.525	0.100
333.300	63.302	0.100
333.400	67.692	0.100
333.500	69.308	0.100
333.600	64.611	0.100
333.700	68.586	0.100
333.800	75.598	0.100
333.900	70.153	0.100
334.000	67.711	0.100
334.100	72.539	0.100
334.200	74.675	0.100
334.300	90.452	0.100
334.400	58.889	0.100
334.500	71.203	0.100
334.600	71.672	0.100
334.700	55.556	0.100
334.800	64.119	0.100
334.900	82.315	0.100
335.000	62.807	0.100
335.100	64.741	0.100
335.200	71.236	0.100
335.300	68.227	0.100
335.400	71.391	0.100
335.500	70.915	0.100
335.600	70.700	0.100
335.700	66.083	0.100
335.800	62.844	0.100
335.900	70.841	0.100
336.000	55.722	0.100
336.100	82.864	0.100
336.200	59.154	0.100
336.300	62.580	0.100
336.400	67.767	0.100
336.500	63.636	0.100
336.600	83.523	0.100
336.700	74.302	0.100
336.800	78.224	0.100
336.900	68.502	0.100
337.000	80.417	0.100
337.100	75.822	0.100
337.200	78.725	0.100
337.300	81.581	0.100
337.400	93.991	0.100
337.500	95.111	0.100
337.600	94.241	0.100
337.700	89.716	0.100
337.800	100.775	0.100
337.900	87.973	0.100
338.000	118.577	0.100
338.100	122.276	0.100
338.200	91.464	0.100
338.300	103.701	0.100
338.400	112.155	0.100
338.500	101.757	0.100
338.600	115.184	0.100
338.700	118.877	0.100
338.800	114.104	0.100
338.900	114.587	0.100
339.000	110.535	0.100
339.100	110.452	0.100
339.200	115.183	0.100
339.300	94.203	0.100
339.400	115.247	0.100
339.500	98.052	0.100
339.600	109.913	0.100
339.700	117.254	0.100
339.800	129.008	0.100
339.900	111.478	0.100
340.000	109.129	0.100
340.100	116.943	0.100
340.200	113.737	0.100
340.300	119.610	0.100
340.400	102.291	0.100
340.500	104.058	0.100
340.600	105.556	0.100
340.700	105.605	0.100
340.800	117.400	0.100
340.900	115.936	0.100
341.000	115.281	0.100
341.100	110.843	0.100
341.200	117.826	0.100
341.300	108.211	0.100
341.400	102.378	0.100
341.500	106.071	0.100
341.600	110.118	0.100
341.700	124.362	0.100
341.800	106.370	0.100
341.900	107.560	0.100
342.000	104.288	0.100
342.100	115.399	0.100
342.200	116.699	0.100
342.300	116.546	0.100
342.400	96.479	0.100
342.500	113.923	0.100
342.600	98.931	0.100
342.700	114.357	0.100
342.800	113.716	0.100
342.900	116.635	0.100
343.000	105.663	0.100
343.100	106.471	0.100
343.200	96.197	0.100
343.300	101.771	0.100
343.400	104.163	0.100
343.500	101.811	0.100
343.600	110.176	0.100
343.700	104.904	0.100
343.800	104.330	0.100
343.900	103.467	0.100
344.000	110.612	0.100
344.100	85.519	0.100
344.200	100.045	0.100
344.300	114.574	0.100
344.400	112.226	0.100
344.500	108.118	0.100
344.600	90.594	0.100
344.700	103.370	0.100
344.800	103.220	0.100
344.900	102.078	0.100
345.000	107.238	0.100
345.100	88.372	0.100
345.200	88.133	0.100
345.300	85.856	0.100
345.400	117.728	0.100
345.500	100.365	0.100
345.600	106.600	0.100
345.700	102.542	0.100
345.800	96.029	0.100
345.900	94.304	0.100
346.000	101.860	0.100
346.100	92.782	0.100
346.200	110.399	0.100
346.300	94.287	0.100
346.400	98.626	0.100
346.500	91.441	0.100
346.600	101.228	0.100
346.700	100.669	0.100
346.800	92.587	0.100
346.900	97.172	0.100
347.000	93.564	0.100
347.100	107.343	0.100
347.200	89.641	0.100
347.300	87.381	0.100
347.400	88.258	0.100
347.500	89.187	0.100
347.600	96.947	0.100
347.700	98.302	0.100
347.800	94.266	0.100
347.900	99.136	0.100
348.000	106.804	0.100
348.100	103.043	0.100
348.200	92.784	0.100
348.300	83.215	0.100
348.400	106.830	0.100
348.500	101.043	0.100
348.600	87.909	0.100
348.700	95.052	0.100
348.800	75.777	0.100
348.900	73.980	0.100
349.000	89.049	0.100
349.100	98.474	0.100
349.200	104.389	0.100
349.300	90.950	0.100
349.400	106.453	0.100
349.500	82.428	0.100
349.600	100.908	0.100
349.700	89.731	0.100
349.800	83.833	0.100
349.900	96.136	0.100
350.000	112.364	0.100
350.100	81.480	0.100
350.200	90.705	0.100
350.300	91.346	0.100
350.400	107.756	0.100
350.500	93.947	0.100
350.600	76.545	0.100
350.700	101.020	0.100
350.800	94.557	0.100
350.900	78.777	0.100
351.000	102.101	0.100
351.100	88.571	0.100
351.200	90.584	0.100
351.300	76.485	0.100
351.400	78.651	0.100
351.500	101.319	0.100
351.600	99.112	0.100
351.700	83.250	0.100
351.800	78.394	0.100
351.900	97.185	0.100
352.000	72.742	0.100
352.100	106.307	0.100
352.200	99.332	0.100
352.300	87.556	0.100
352.400	71.736	0.100
352.500	90.151	0.100
352.600	83.883	0.100
352.700	94.516	0.100
352.800	90.679	0.100
352.900	92.146	0.100
353.000	90.141	0.100
353.100	74.827	0.100
353.200	84.708	0.100
353.300	80.917	0.100
353.400	84.768	0.100
353.500	86.304	0.100
353.600	85.015	0.100
353.700	83.948	0.100
353.800	81.592	0.100
353.900	84.049	0.100
354.000	79.576	0.100
354.100	86.897	0.100
354.200	82.795	0.100
354.300	84.254	0.100
354.400	79.826	0.100
354.500	79.784	0.100
354.600	91.361	0.100
354.700	75.657	0.100
354.800	96.257	0.100
354.900	103.212	0.100
355.000	91.257	0.100
355.100	78.473	0.100
355.200	98.196	0.100
355.300	89.288	0.100
355.400	80.440	0.100
355.500	85.154	0.100
355.600	91.546	0.100
355.700	81.757	0.100
355.800	83.695	0.100
355.900	93.343	0.100
356.000	70.614	0.100
356.100	82.038	0.100
356.200	73.153	0.100
356.300	75.731	0.100
356.400	77.802	0.100
356.500	79.605	0.100
356.600	76.568	0.100
356.700	89.563	0.100
356.800	86.219	0.100
356.900	71.322	0.100
357.000	71.511	0.100
357.100	83.437	0.100
357.200	97.557	0.100
357.300	80.580	0.100
357.400	79.982	0.100
357.500	69.897	0.100
357.600	90.165	0.100
357.700	85.707	0.100
357.800	84.469	0.100
357.900	92.767	0.100
358.000	84.538	0.100
358.100	94.530	0.100
358.200	89.259	0.100
358.300	88.097	0.100
358.400	96.467	0.100
358.500	73.508	0.100
358.600	85.378	0.100
358.700	67.576	0.100
358.800	66.092	0.100
358.900	90.058	0.100
359.000	83.827	0.100
359.100	93.466	0.100
359.200	72.647	0.100
359.300	76.916	0.100
359.400	83.526	0.100
359.500	86.080	0.100
359.600	87.533	0.100
359.700	88.783	0.100
359.800	90.665	0.100
359.900	84.955	0.100
360.000	70.746	0.100
360.100	69.113	0.100
360.200	85.064	0.100
360.300	81.057	0.100
360.400	76.947	0.100
360.500	97.247	0.100
360.600	88.740	0.100
360.700	81.181	0.100
360.800	79.937	0.100
360.900	74.215	0.100
361.000	71.565	0.100
361.100	73.976	0.100
361.200	91.361	0.100
361.300	78.432	0.100
361.400	60.932	0.100
361.500	85.418	0.100
361.600	97.442	0.100
361.700	79.094	0.100
361.800	63.507	0.100
361.900	79.225	0.100
362.000	84.032	0.100
362.100	77.275	0.100
362.200	86.632	0.100
362.300	69.297	0.100
362.400	78.317	0.100
362.500	82.931	0.100
362.600	81.147	0.100
362.700	76.864	0.100
362.800	95.127	0.100
362.900	84.394	0.100
363.000	86.394	0.100
363.100	68.194	0.100
363.200	75.308	0.100
363.300	80.649	0.100
363.400	78.093	0.100
363.500	83.177	0.100
363.600	79.568	0.100
363.700	96.909	0.100
363.800	78.674	0.100
363.900	58.318	0.100
364.000	79.729	0.100
364.100	83.011	0.100
364.200	75.084	0.100
364.300	87.326	0.100
364.400	78.276	0.100
364.500	83.482	0.100
364.600	68.707	0.100
364.700	83.361	0.100
364.800	79.494	0.100
364.900	64.695	0.100
365.000	77.661	0.100
365.100	78.469	0.100
365.200	80.373	0.100
365.300	89.230	0.100
365.400	83.032	0.100
365.500	82.022	0.100
365.600	73.154	0.100
365.700	81.613	0.100
365.800	93.665	0.100
365.900	83.758	0.100
366.000	94.203	0.100
366.100	72.437	0.100
366.200	68.145	0.100
366.300	50.551	0.100
366.400	84.205	0.100
366.500	84.910	0.100
366.600	84.889	0.100
366.700	81.110	0.100
366.800	54.262	0.100
366.900	94.828	0.100
367.000	93.932	0.100
367.100	76.965	0.100
367.200	77.983	0.100
367.300	67.150	0.100
367.400	72.156	0.100
367.500	80.670	0.100
367.600	86.733	0.100
367.700	78.242	0.100
367.800	77.888	0.100
367.900	76.591	0.100
368.000	89.469	0.100
368.100	75.509	0.100
368.200	85.674	0.100
368.300	82.392	0.100
368.400	88.848	0.100
368.500	50.758	0.100
368.600	66.333	0.100
368.700	70.150	0.100
368.800	79.764	0.100
368.900	72.190	0.100
369.000	73.470	0.100
369.100	80.382	0.100
369.200	87.150	0.100
369.300	77.463	0.100
369.400	86.980	0.100
369.500	75.953	0.100
369.600	84.694	0.100
369.700	66.540	0.100
369.800	79.278	0.100
369.900	67.642	0.100
370.000	78.648	0.100
370.100	79.864	0.100
370.200	73.767	0.100
370.300	80.991	0.100
370.400	71.597	0.100
370.500	78.673	0.100
370.600	55.518	0.100
370.700	86.810	0.100
370.800	72.562	0.100
370.900	70.594	0.100
371.000	77.399	0.100
371.100	58.249	0.100
371.200	73.697	0.100
371.300	84.907	0.100
371.400	91.453	0.100
371.500	79.562	0.100
371.600	72.470	0.100
371.700	84.064	0.100
371.800	75.906	0.100
371.900	72.507	0.100
372.000	74.827	0.100
372.100	61.068	0.100
372.200	83.204	0.100
372.300	100.428	0.100
372.400	72.717	0.100
372.500	74.741	0.100
372.600	76.189	0.100
372.700	68.603	0.100
372.800	60.581	0.100
372.900	60.285	0.100
373.000	74.226	0.100
373.100	77.912	0.100
373.200	93.502	0.100
373.300	63.161	0.100
373.400	75.779	0.100
373.500	73.760	0.100
373.600	77.595	0.100
373.700	65.324	0.099
373.800	69.490	0.099
373.900	75.185	0.099
374.000	78.840	0.099
374.100	79.795	0.099
374.200	77.414	0.099
374.300	65.005	0.099
374.400	70.642	0.099
374.500	76.979	0.099
374.600	66.655	0.099
374.700	69.291	0.099
374.800	61.582	0.099
374.900	73.028	0.099
375.000	75.564	0.099
375.100	83.429	0.099
375.200	77.361	0.099
375.300	79.271	0.099
375.400	69.038	0.099
375.500	54.719	0.099
375.600	83.305	0.099
375.700	70.300	0.099
375.800	78.011	0.099
375.900	76.123	0.099
376.000	80.006	0.099
376.100	69.671	0.099
376.200	74.992	0.099
376.300	58.645	0.099
376.400	68.946	0.099
376.500	75.621	0.099
376.600	73.583	0.099
376.700	64.055	0.099
376.800	84.736	0.099
376.900	70.519	0.099
377.000	67.231	0.099
377.100	66.268	0.099
377.200	72.434	0.099
377.300	84.256	0.099
377.400	72.725	0.099
377.500	86.876	0.099
377.600	57.287	0.099
377.700	65.526	0.099
377.800	71.030	0.099
377.900	76.220	0.099
378.000	76.367	0.099
378.100	74.154	0.099
378.200	67.813	0.099
378.300	70.265	0.099
378.400	47.505	0.099
378.500	72.044	0.099
378.600	60.783	0.099
378.700	88.358	0.099
378.800	49.421	0.099
378.900	82.806	0.099
379.000	73.384	0.099
379.100	68.752	0.099
379.200	69.702	0.099
379.300	60.110	0.099
379.400	78.196	0.099
379.500	73.582	0.099
379.600	70.628	0.099
379.700	64.372	0.099
379.800	64.383	0.099
379.900	58.837	0.099
380.000	64.852	0.099
380.100	58.987	0.099
380.200	74.174	0.099
380.300	65.877	0.099
380.400	80.436	0.099
380.500	89.626	0.099
380.600	63.126	0.099
380.700	61.829	0.099
380.800	72.638	0.099
380.900	60.434	0.099
381.000	63.747	0.099
381.100	65.644	0.099
381.200	78.300	0.099
381.300	56.036	0.099
381.400	61.133	0.099
381.500	74.765	0.099
381.600	76.300	0.099
381.700	45.104	0.099
381.800	80.776	0.099
381.900	62.434	0.099
382.000	75.096	0.099
382.100	55.151	0.099
382.200	64.918	0.099
382.300	74.807	0.099
382.400	71.080	0.099
382.500	73.809	0.099
382.600	83.011	0.099
382.700	66.630	0.099
382.800	63.748	0.099
382.900	47.957	0.099
383.000	72.020	0.099
383.100	87.254	0.099
383.200	72.682	0.099
383.300	47.189	0.099
383.400	56.039	0.099
383.500	66.636	0.099
383.600	79.801	0.099
383.700	69.887	0.099
383.800	69.722	0.099
383.900	60.377	0.099
384.000	55.479	0.099
384.100	63.512	0.099
384.200	62.775	0.099
384.300	43.089	0.099
384.400	68.822	0.099
384.500	72.241	0.099
384.600	73.680	0.099
384.700	59.054	0.099
384.800	52.564	0.099
384.900	73.277	0.099
385.000	72.389	0.099
385.100	75.921	0.099
385.200	62.868	0.099
385.300	61.130	0.099
385.400	55.906	0.099
385.500	80.138	0.099
385.600	76.563	0.099
385.700	50.326	0.099
385.800	55.173	0.099
385.900	69.103	0.099
386.000	53.965	0.099
386.100	75.694	0.099
386.200	70.473	0.099
386.300	67.248	0.099
386.400	75.877	0.099
386.500	67.352	0.099
386.600	63.069	0.099
386.700	61.939	0.099
386.800	54.852	0.099
386.900	61.663	0.099
387.000	78.769	0.099
387.100	88.778	0.099
387.200	57.095	0.099
387.300	54.115	0.099
387.400	68.362	0.099
387.500	72.529	0.099
387.600	68.302	0.099
387.700	52.680	0.099
387.800	52.108	0.099
387.900	76.214	0.099
388.000	65.488	0.099
388.100	51.451	0.099
388.200	76.662	0.099
388.300	57.569	0.099
388.400	82.760	0.099
388.500	68.512	0.099
388.600	61.217	0.099
388.700	81.884	0.099
388.800	60.670	0.099
388.900	59.281	0.099
389.000	69.043	0.099
389.100	76.326	0.099
389.200	58.349	0.099
389.300	54.687	0.099
389.400	53.577	0.099
389.500	67.190	0.099
389.600	68.607	0.099
389.700	62.218	0.099
389.800	64.554	0.099
389.900	60.754	0.099
390.000	54.675	0.099
390.100	44.655	0.099
390.200	30.641	0.099
390.300	29.148	0.099
390.400	7.763	0.099
390.500	1.532	0.099
390.600	15.247	0.100
390.700	-0.321	0.100
390.800	11.469	0.100
390.900	-19.794	0.100
391.000	-22.189	0.100
391.100	11.076	0.100
391.200	1.331	0.100
391.300	-36.581	0.100
391.400	0.989	0.100
391.500	-4.715	0.100
391.600	-9.565	0.100
391.700	-17.467	0.100
391.800	-8.365	0.100
391.900	-12.934	0.100
392.000	-7.060	0.100
392.100	-15.606	0.100
392.200	-19.811	0.100
392.300	-4.736	0.100
392.400	-19.498	0.100
392.500	-18.083	0.100
392.600	-15.398	0.100
392.700	-12.002	0.100
392.800	-25.702	0.100
392.900	-29.728	0.100
393.000	-9.329	0.100
393.100	-26.390	0.100
393.200	-0.796	0.100
393.300	-15.295	0.100
393.400	-6.599	0.100
393.500	-30.226	0.100
393.600	-15.077	0.100
393.700	-23.657	0.100
393.800	-25.475	0.100
393.900	-19.791	0.100
394.000	-10.546	0.100
394.100	-25.990	0.100
394.200	-11.478	0.100
394.300	-20.949	0.100
394.400	-6.665	0.100
394.500	-23.628	0.100
394.600	-31.929	0.100
394.700	-18.451	0.100
394.800	-33.283	0.100
394.900	-17.470	0.100
395.000	-30.189	0.100
395.100	-23.579	0.100
395.200	-32.375	0.100
395.300	-15.789	0.100
395.400	-27.891	0.100
395.500	-30.752	0.100
395.600	-33.008	0.100
395.700	-26.058	0.100
395.800	-30.628	0.100
395.900	-28.915	0.100
396.000	-23.789	0.100
396.100	-30.807	0.100
396.200	-36.404	0.100
396.300	-31.412	0.100
396.400	-27.416	0.100
396.500	-18.962	0.100
396.600	-26.870	0.100
396.700	-40.417	0.100
396.800	-40.742	0.100
396.900	-33.422	0.100
397.000	-30.738	0.100
397.100	-35.789	0.100
397.200	-34.475	0.100
397.300	-15.416	0.100
397.400	-31.685	0.100
397.500	-21.618	0.100
397.600	-16.226	0.100
397.700	-39.065	0.100
397.800	-11.033	0.100
397.900	-28.417	0.100
398.000	-33.899	0.100
398.100	-0.416	0.100
398.200	-18.488	0.100
398.300	-13.851	0.100
398.400	-32.646	0.100
398.500	-25.854	0.100
398.600	-8.708	0.100
398.700	-26.657	0.100
398.800	-34.860	0.100
398.900	-29.958	0.100
399.000	-28.026	0.100
399.100	-33.010	0.100
399.200	-26.404	0.100
399.300	-21.129	0.100
399.400	-28.468	0.100
399.500	-24.333	0.100
399.600	-14.473	0.100
399.700	-25.471	0.100
399.800	-22.773	0.100
399.900	-16.814	0.100
400.000	-19.235	0.100
400.100	-29.305	0.100
400.200	-9.790	0.100
400.300	-29.423	0.100
400.400	-33.903	0.100
400.500	-23.470	0.100
400.600	-24.755	0.100
400.700	-19.655	0.100
400.800	-28.940	0.100
400.900	-14.809	0.100
401.000	-38.721	0.100
401.100	-19.619	0.100
401.200	-26.742	0.100
401.300	-22.987	0.100
401.400	-22.462	0.100
401.500	-27.956	0.100
401.600	-8.349	0.100
401.700	-25.325	0.100
401.800	-27.948	0.100
401.900	-20.138	0.100
402.000	-29.676	0.100
402.100	-21.996	0.100
402.200	-11.941	0.100
402.300	-22.405	0.100
402.400	-20.067	0.100
402.500	-20.101	0.100
402.600	-25.618	0.100
402.700	-39.819	0.100
402.800	-19.019	0.100
402.900	1.140	0.100
403.000	-12.312	0.100
403.100	-28.803	0.100
403.200	-23.564	0.100
403.300	-26.780	0.100
403.400	-13.788	0.100
403.500	-27.672	0.100
403.600	-13.869	0.100
403.700	-26.180	0.100
403.800	-11.153	0.100
403.900	-22.457	0.100
404.000	-29.205	0.100
404.100	-17.466	0.100
404.200	-11.812	0.100
404.300	-12.200	0.100
404.400	-28.411	0.100
404.500	-10.031	0.100
404.600	-27.994	0.100
404.700	-24.063	0.100
404.800	-20.487	0.100
404.900	-18.283	0.100
405.000	-27.298	0.100
405.100	-19.937	0.100
405.200	-14.601	0.100
405.300	-15.671	0.100
405.400	-13.025	0.100
405.500	-19.049	0.100
405.600	-28.707	0.100
405.700	-24.203	0.100
405.800	-32.335	0.100
405.900	-32.226	0.100
406.000	-10.203	0.100
406.100	-23.056	0.100
406.200	-22.028	0.100
406.300	-10.351	0.100
406.400	-19.012	0.100
406.500	-22.452	0.100
406.600	-13.644	0.100
406.700	-23.607	0.100
406.800	-29.349	0.100
406.900	-32.889	0.100
407.000	-24.732	0.100
407.100	-17.095	0.100
407.200	-18.684	0.100
407.300	-24.879	0.100
407.400	-18.974	0.100
407.500	-21.073	0.100
407.600	-24.904	0.100
407.700	-16.103	0.100
407.800	-7.670	0.100
407.900	-39.859	0.100
408.000	-20.653	0.100
408.100	-16.353	0.100
408.200	-15.481	0.100
408.300	-13.426	0.100
408.400	-20.677	0.100
408.500	-29.285	0.100
408.600	-26.415	0.100
408.700	-6.686	0.100
408.800	-22.693	0.100
408.900	-19.636	0.100
409.000	-21.146	0.100
409.100	-18.450	0.100
409.200	-11.956	0.100
409.300	-23.823	0.100
409.400	-7.426	0.100
409.500	-18.036	0.100
409.600	-23.967	0.100
409.700	-20.018	0.100
409.800	-15.991	0.100
409.900	-20.269	0.100
410.000	-19.742	0.100
410.100	-26.489	0.100
410.200	-15.677	0.100
410.300	-11.285	0.100
410.400	-29.507	0.100
410.500	-27.986	0.100
410.600	-7.917	0.100
410.700	-17.133	0.100
410.800	-21.235	0.100
410.900	-31.725	0.100
411.000	-23.061	0.100
411.100	-21.511	0.100
411.200	-1.592	0.100
411.300	-10.419	0.100
411.400	-10.460	0.100
411.500	-31.417	0.100
411.600	-15.919	0.100
411.700	-39.033	0.100
411.800	-26.542	0.100
411.900	-17.979	0.100
412.000	-28.043	0.100
412.100	-19.826	0.100
412.200	-11.877	0.100
412.300	-13.810	0.100
412.400	-25.728	0.100
412.500	-24.232	0.100
412.600	-22.005	0.100
412.700	-24.991	0.100
412.800	-36.203	0.100
412.900	-16.083	0.100
413.000	-18.652	0.100
413.100	-26.024	0.100
413.200	-26.988	0.100
413.300	-25.008	0.100
413.400	-15.798	0.100
413.500	-17.069	0.100
413.600	-14.247	0.100
413.700	-24.281	0.100
413.800	-30.876	0.100
413.900	-10.854	0.100
414.000	6.560	0.100
414.100	-31.711	0.100
414.200	-25.589	0.100
414.300	-23.033	0.100
414.400	-26.492	0.100
414.500	-38.968	0.100
414.600	-9.329	0.100
414.700	-23.072	0.100
414.800	-27.428	0.100
414.900	-24.805	0.100
415.000	-21.448	0.100
415.100	-0.338	0.100
415.200	-23.283	0.100
415.300	-34.606	0.100
415.400	-28.569	0.100
415.500	-26.087	0.100
415.600	-23.460	0.100
415.700	-19.940	0.100
415.800	-29.774	0.100
415.900	-14.450	0.100
416.000	-8.274	0.100
416.100	-20.381	0.100
416.200	-42.955	0.100
416.300	-22.057	0.100
416.400	3.848	0.100
416.500	-19.344	0.100
416.600	-9.183	0.100
416.700	-19.983	0.100
416.800	-18.320	0.100
416.900	-47.476	0.100
417.000	-14.044	0.100
417.100	-16.604	0.100
417.200	-37.132	0.100
417.300	-28.382	0.100
417.400	-25.176	0.100
417.500	-20.234	0.100
417.600	-28.978	0.100
417.700	-9.570	0.100
417.800	-11.944	0.100
417.900	-25.552	0.100
418.000	-42.229	0.100
418.100	-31.809	0.100
418.200	-23.820	0.100
418.300	-24.044	0.100
418.400	-27.595	0.100
418.500	-23.349	0.100
418.600	-27.172	0.100
418.700	-10.388	0.100
418.800	-17.312	0.100
418.900	-25.409	0.100
419.000	-20.689	0.100
419.100	-29.973	0.100
419.200	-34.120	0.100
419.300	-30.246	0.100
419.400	-25.218	0.100
419.500	-21.957	0.100
419.600	-32.361	0.100
419.700	-17.064	0.100
419.800	-15.263	0.100
419.900	-23.515	0.100
420.000	-38.151	0.100
420.100	-20.808	0.100
420.200	-40.259	0.100
420.300	-28.829	0.100
420.400	-8.368	0.100
420.500	-23.151	0.100
420.600	-18.710	0.100
420.700	-24.562	0.100
420.800	-29.219	0.100
420.900	-22.932	0.100
421.000	-38.702	0.100
421.100	-24.652	0.100
421.200	-9.172	0.100
421.300	-10.431	0.100
421.400	-13.483	0.100
421.500	-32.815	0.100
421.600	-45.483	0.100
421.700	-30.361	0.100
421.800	-29.413	0.100
421.900	-11.863	0.100
422.000	-20.978	0.100
422.100	-25.992	0.100
422.200	-35.587	0.100
422.300	-23.440	0.100
422.400	-26.878	0.100
422.500	-16.196	0.100
422.600	-22.428	0.100
422.700	-31.757	0.100
422.800	-26.556	0.100
422.900	-32.521	0.100
423.000	-21.966	0.100
423.100	-36.036	0.100
423.200	-22.672	0.100
423.300	-35.829	0.100
423.400	-20.694	0.100
423.500	-15.462	0.100
423.600	-8.078	0.100
423.700	-33.654	0.100
423.800	-30.226	0.100
423.900	-18.163	0.100
424.000	-36.365	0.100
424.100	-9.366	0.100
424.200	-14.305	0.100
424.300	-15.603	0.100
424.400	-7.738	0.100
424.500	-18.100	0.100
424.600	-38.108	0.100
424.700	-26.671	0.100
424.800	-35.315	0.100
424.900	-39.945	0.100
425.000	-4.132	0.100
425.100	-31.345	0.100
425.200	-15.162	0.100
425.300	-22.931	0.100
425.400	-16.793	0.100
425.500	-16.342	0.100
425.600	-33.223	0.100
425.700	-25.837	0.100
425.800	-37.455	0.100
425.900	-21.149	0.100
426.000	-23.689	0.100
426.100	-33.117	0.100
426.200	-13.356	0.100
426.300	-29.743	0.100
426.400	-31.218	0.100
426.500	-27.899	0.100
426.600	-27.606	0.100
426.700	-11.927	0.100
426.800	-25.025	0.100
426.900	-41.137	0.100
427.000	-32.559	0.100
427.100	-29.298	0.100
427.200	-32.761	0.100
427.300	-16.267	0.100
427.400	-26.012	0.100
427.500	-28.993	0.100
427.600	-22.118	0.100
427.700	-21.856	0.100
427.800	-31.354	0.100
427.900	-27.165	0.100
428.000	-37.848	0.100
428.100	-16.738	0.100
428.200	-28.895	0.100
428.300	-13.345	0.100
428.400	-12.582	0.100
428.500	-19.569	0.100
428.600	-20.242	0.100
428.700	-20.364	0.100
428.800	-22.265	0.100
428.900	-28.972	0.100
429.000	-25.603	0.100
429.100	-19.431	0.100
429.200	-25.071	0.100
429.300	-22.819	0.100
429.400	-23.748	0.100
429.500	-15.942	0.100
429.600	-26.889	0.100
429.700	-24.628	0.100
429.800	-25.832	0.100
429.900	-15.156	0.100
430.000	-33.739	0.100
430.100	-23.611	0.100
430.200	-18.051	0.100
430.300	-14.262	0.100
430.400	-26.561	0.100
430.500	-20.723	0.100
430.600	-39.301	0.100
430.700	-14.663	0.100
430.800	-7.839	0.100
430.900	-15.171	0.100
431.000	-21.011	0.100
431.100	-33.514	0.100
431.200	-23.843	0.100
431.300	-34.806	0.100
431.400	-23.066	0.100
431.500	-17.585	0.100
431.600	-23.964	0.100
431.700	-16.035	0.100
431.800	-23.895	0.100
431.900	-29.115	0.100
432.000	-27.525	0.100
432.100	-2.886	0.100
432.200	-19.336	0.100
432.300	-24.566	0.100
432.400	-21.786	0.100
432.500	-34.650	0.100
432.600	-32.246	0.100
432.700	-31.222	0.100
432.800	-26.978	0.100
432.900	-12.206	0.100
433.000	-24.136	0.100
433.100	-25.064	0.100
433.200	-17.654	0.100
433.300	-14.682	0.100
433.400	-18.209	0.100
433.500	-29.968	0.100
433.600	-21.408	0.100
433.700	-15.573	0.100
433.800	-28.078	0.100
433.900	-23.766	0.100
434.000	-15.697	0.100
434.100	-18.513	0.100
434.200	-26.220	0.100
434.300	-28.998	0.100
434.400	-25.195	0.100
434.500	-29.571	0.100
434.600	-17.056	0.100
434.700	-26.463	0.100
434.800	-16.670	0.100
434.900	-17.634	0.100
435.000	-29.095	0.100
435.100	-0.392	0.100
435.200	-22.336	0.100
435.300	-17.541	0.100
435.400	-38.277	0.100
435.500	-17.020	0.100
435.600	-25.184	0.100
435.700	-33.509	0.100
435.800	-34.005	0.100
435.900	-37.927	0.100
436.000	-21.666	0.100
436.100	-19.557	0.100
436.200	-26.614	0.100
436.300	-28.029	0.100
436.400	-11.142	0.100
436.500	-13.727	0.100
436.600	-21.289	0.100
436.700	-16.186	0.100
436.800	-20.843	0.100
436.900	-20.397	0.100
437.000	-18.985	0.100
437.100	-21.073	0.100
437.200	-26.807	0.100
437.300	-29.879	0.100
437.400	-18.733	0.100
437.500	-23.251	0.100
437.600	-13.662	0.100
437.700	-20.107	0.100
437.800	-22.425	0.100
437.900	-34.742	0.100
438.000	-13.620	0.100
438.100	-36.353	0.100
438.200	-37.682	0.100
438.300	-14.850	0.100
438.400	-11.067	0.100
438.500	-17.811	0.100
438.600	-18.784	0.100
438.700	-22.167	0.100
438.800	-15.623	0.100
438.900	-36.592	0.100
439.000	-24.792	0.100
439.100	-22.750	0.100
439.200	-22.106	0.100
439.300	-19.776	0.100
439.400	-21.205	0.100
439.500	-27.911	0.100
439.600	-16.613	0.100
439.700	-9.999	0.100
439.800	-25.547	0.100
439.900	-27.482	0.100
440.000	-11.771	0.100
440.100	-20.167	0.100
440.200	-21.671	0.100
440.300	-32.144	0.100
440.400	-38.985	0.100
440.500	-21.939	0.100
440.600	-28.127	0.099
440.700	-21.136	0.099
440.800	-29.781	0.099
440.900	-20.872	0.099
441.000	-31.627	0.099
441.100	-16.112	0.099
441.200	-20.331	0.099
441.300	-13.505	0.099
441.400	-29.860	0.099
441.500	-32.640	0.099
441.600	-14.716	0.099
441.700	-33.063	0.099
441.800	-33.506	0.099
441.900	-16.652	0.099
442.000	-23.918	0.099
442.100	-26.748	0.099
442.200	-18.410	0.099
442.300	-11.155	0.099
442.400	-31.981	0.099
442.500	-35.111	0.099
442.600	-21.560	0.099
442.700	-17.636	0.099
442.800	-18.326	0.099
442.900	-24.922	0.099
443.000	-33.005	0.099
443.100	-17.820	0.099
443.200	-29.375	0.099
443.300	-10.200	0.099
443.400	-26.699	0.099
443.500	-21.444	0.099
443.600	-15.272	0.099
443.700	-18.117	0.099
443.800	-27.148	0.099
443.900	-34.086	0.099
444.000	-35.916	0.099
444.100	-21.536	0.099
444.200	-17.329	0.099
444.300	-12.436	0.099
444.400	-29.887	0.099
444.500	-22.567	0.099
444.600	-27.675	0.099
444.700	-25.989	0.099
444.800	-27.177	0.099
444.900	-22.992	0.099
445.000	-22.360	0.099
445.100	-39.709	0.099
445.200	-15.442	0.099
445.300	-29.332	0.099
445.400	-11.783	0.099
445.500	-21.229	0.099
445.600	-21.968	0.099
445.700	-26.726	0.099
445.800	-28.297	0.099
445.900	-49.659	0.099
446.000	-6.174	0.099
446.100	-19.356	0.099
446.200	-22.785	0.099
446.300	-14.729	0.099
446.400	-24.508	0.099
446.500	-25.790	0.099
446.600	-25.005	0.099
446.700	-24.177	0.099
446.800	-20.335	0.099
446.900	-25.012	0.099
447.000	-21.339	0.099
447.100	-16.577	0.099
447.200	-29.568	0.099
447.300	-19.665	0.099
447.400	-33.494	0.099
447.500	-8.542	0.099
447.600	-9.474	0.099
447.700	-20.628	0.099
447.800	-22.008	0.099
447.900	-28.020	0.099
448.000	-29.646	0.099
448.100	-31.934	0.099
448.200	-25.118	0.099
448.300	-22.753	0.099
448.400	-41.547	0.099
448.500	-29.616	0.099
448.600	-17.630	0.099
448.700	-13.788	0.099
448.800	-25.009	0.099
448.900	-21.528	0.099
449.000	-22.478	0.099
449.100	-28.192	0.099
449.200	-25.888	0.099
449.300	-10.305	0.099
449.400	-19.360	0.099
449.500	-36.338	0.099
449.600	-8.205	0.099
449.700	-13.563	0.099
449.800	-20.705	0.099
449.900	-20.222	0.099
450.000	-38.248	0.099
450.100	-21.270	0.099
450.200	-16.876	0.099
450.300	-27.326	0.099
450.400	-22.032	0.099
450.500	-19.575	0.099
450.600	-25.834	0.099
450.700	-22.698	0.099
450.800	-18.996	0.099
450.900	-20.529	0.099
451.000	-26.985	0.099
451.100	-27.048	0.099
451.200	-9.675	0.099
451.300	-23.693	0.099
451.400	-16.273	0.099
451.500	-27.798	0.099
451.600	-11.260	0.099
451.700	-32.556	0.099
451.800	-21.321	0.099
451.900	-46.575	0.099
452.000	-23.745	0.099
452.100	3.831	0.100
452.200	-14.900	0.100
452.300	-14.480	0.100
452.400	-16.408	0.100
452.500	-21.928	0.100
452.600	-14.598	0.100
452.700	-21.775	0.100
452.800	-8.234	0.100
452.900	-11.755	0.100
453.000	-35.315	0.100
453.100	-14.467	0.100
453.200	-12.859	0.100
453.300	-17.328	0.100
453.400	-15.228	0.100
453.500	-26.378	0.100
453.600	-7.540	0.100
453.700	-21.224	0.100
453.800	-23.771	0.100
453.900	-23.844	0.100
454.000	-1.629	0.100
454.100	-14.628	0.100
454.200	-11.959	0.100
454.300	-26.133	0.100
454.400	-20.374	0.100
454.500	-8.890	0.100
454.600	-6.284	0.100
454.700	-29.955	0.100
454.800	-7.471	0.100
454.900	-18.761	0.100
455.000	-27.815	0.100
455.100	-7.272	0.100
455.200	-5.794	0.100
455.300	-14.486	0.100
455.400	-6.140	0.100
455.500	-12.588	0.100
455.600	-7.178	0.100
455.700	-18.746	0.100
455.800	-1.238	0.100
455.900	-32.577	0.100
456.000	-13.410	0.100
456.100	-8.763	0.100
456.200	-8.280	0.100
456.300	-7.189	0.100
456.400	-16.765	0.100
456.500	1.819	0.100
456.600	-18.714	0.100
456.700	-10.315	0.100
456.800	-22.278	0.100
456.900	-9.839	0.100
457.000	-19.305	0.100
457.100	-21.911	0.100
457.200	-21.960	0.100
457.300	-10.629	0.100
457.400	-20.053	0.100
457.500	-15.640	0.100
457.600	-10.830	0.100
457.700	3.911	0.100
457.800	-4.926	0.100
457.900	-16.692	0.100
458.000	4.813	0.100
458.100	-4.486	0.100
458.200	-25.521	0.100
458.300	-15.033	0.100
458.400	-15.753	0.100
458.500	-6.156	0.100
458.600	-7.393	0.100
458.700	-1.128	0.100
458.800	-1.275	0.100
458.900	-16.819	0.100
459.000	-11.575	0.100
459.100	-5.489	0.100
459.200	-8.381	0.100
459.300	-6.332	0.100
459.400	-24.997	0.100
459.500	-4.483	0.100
459.600	-10.239	0.100
459.700	-12.087	0.100
459.800	-4.961	0.100
459.900	3.698	0.100
460.000	-20.509	0.100
460.100	-9.143	0.100
460.200	-6.783	0.100
460.300	-5.322	0.100
460.400	-18.916	0.100
460.500	-11.791	0.100
460.600	-21.381	0.100
460.700	-10.995	0.100
460.800	-31.854	0.100
460.900	-6.314	0.100
461.000	-6.875	0.100
461.100	-16.258	0.100
461.200	-6.133	0.100
461.300	-8.946	0.100
461.400	-24.508	0.100
461.500	-14.961	0.100
461.600	-15.761	0.100
461.700	-13.353	0.100
461.800	-24.536	0.100
461.900	-7.931	0.100
462.000	-1.801	0.100
462.100	-4.722	0.100
462.200	-4.183	0.100
462.300	-26.271	0.100
462.400	-20.912	0.100
462.500	-16.500	0.100
462.600	-9.873	0.100
462.700	-17.064	0.100
462.800	-0.381	0.100
462.900	-11.055	0.100
463.000	-16.153	0.100
463.100	-11.461	0.100
463.200	-4.767	0.100
463.300	-17.798	0.100
463.400	-11.125	0.100
463.500	-6.928	0.100
463.600	-13.964	0.100
463.700	3.508	0.100
463.800	-7.502	0.100
463.900	-18.382	0.100
464.000	-3.628	0.100
464.100	-20.084	0.100
464.200	-5.314	0.100
464.300	-16.876	0.100
464.400	-13.736	0.100
464.500	-19.244	0.100
464.600	-14.044	0.100
464.700	-17.475	0.100
464.800	-16.641	0.100
464.900	-20.001	0.100
465.000	-22.405	0.100
465.100	3.664	0.100
465.200	-27.940	0.100
465.300	-2.792	0.100
465.400	-18.465	0.100
465.500	-15.847	0.100
465.600	-4.601	0.100
465.700	-9.527	0.100
465.800	-2.506	0.100
465.900	-14.234	0.100
466.000	-5.969	0.100
466.100	-7.092	0.100
466.200	-13.526	0.100
466.300	-20.699	0.100
466.400	-9.393	0.100
466.500	-19.984	0.100
466.600	-5.754	0.100
466.700	-4.532	0.100
466.800	-18.385	0.100
466.900	-4.919	0.100
467.000	-6.677	0.100
467.100	-1.784	0.100
467.200	-14.201	0.100
467.300	-20.755	0.100
467.400	-13.042	0.100
467.500	-2.757	0.100
467.600	3.891	0.100
467.700	-8.029	0.100
467.800	-14.145	0.100
467.900	-5.259	0.100
468.000	-21.247	0.100
468.100	-4.220	0.100
468.200	-20.230	0.100
468.300	-20.024	0.100
468.400	-18.718	0.100
468.500	-10.486	0.100
468.600	-12.821	0.099
468.700	-16.063	0.100
468.800	-9.579	0.099
468.900	-11.412	0.099
469.000	-29.702	0.099
469.100	-17.392	0.099
469.200	-22.025	0.099
469.300	-11.357	0.099
469.400	-15.706	0.099
469.500	-16.666	0.099
469.600	-23.679	0.099
469.700	-11.863	0.099
469.800	-17.023	0.099
469.900	-19.135	0.099
470.000	-10.794	0.099
470.100	-29.340	0.099
470.200	-16.505	0.099
470.300	-15.275	0.099
470.400	-1.591	0.099
470.500	-14.453	0.099
470.600	-2.122	0.099
470.700	-16.687	0.099
470.800	-17.737	0.099
470.900	-9.750	0.099
471.000	-10.583	0.099
471.100	-9.591	0.099
471.200	-29.467	0.099
471.300	-19.293	0.099
471.400	-10.143	0.099
471.500	-18.599	0.099
471.600	-15.939	0.099
471.700	-10.459	0.099
471.800	-29.459	0.099
471.900	-8.388	0.099
472.000	-2.809	0.099
472.100	-29.489	0.099
472.200	-0.967	0.099
472.300	-23.159	0.099
472.400	-8.441	0.099
472.500	-16.621	0.099
472.600	-15.677	0.099
472.700	-25.051	0.099
472.800	-12.632	0.099
472.900	-12.698	0.099
473.000	-12.527	0.099
473.100	-22.547	0.099
473.200	-21.042	0.099
473.300	-9.355	0.099
473.400	-10.594	0.099
473.500	-19.701	0.099
473.600	-20.415	0.099
473.700	1.882	0.099
473.800	-21.833	0.099
473.900	-12.890	0.099
474.000	-28.693	0.099
474.100	-12.381	0.099
474.200	-4.474	0.099
474.300	-11.556	0.099
474.400	-23.573	0.099
474.500	-12.916	0.099
474.600	-24.165	0.099
474.700	-3.491	0.099
474.800	2.835	0.099
474.900	-14.337	0.099
475.000	-12.471	0.099
475.100	-14.383	0.099
475.200	8.654	0.099
475.300	-11.694	0.099
475.400	-16.094	0.099
475.500	-34.276	0.099
475.600	-16.002	0.099
475.700	-7.048	0.099
475.800	-14.288	0.099
475.900	-10.440	0.099
476.000	-6.294	0.099
476.100	-16.212	0.099
476.200	-9.959	0.099
476.300	-7.816	0.099
476.400	-14.072	0.099
476.500	-10.733	0.099
476.600	-0.896	0.099
476.700	-10.019	0.099
476.800	-29.450	0.099
476.900	-10.486	0.099
477.000	-35.712	0.099
477.100	-11.579	0.099
477.200	-15.278	0.099
477.300	-14.611	0.099
477.400	-20.625	0.099
477.500	-17.806	0.099
477.600	-1.676	0.099
477.700	-15.884	0.099
477.800	-1.043	0.099
477.900	-8.642	0.099
478.000	-11.490	0.099
478.100	-0.163	0.099
478.200	-17.697	0.099
478.300	-16.134	0.099
478.400	-13.154	0.099
478.500	-20.861	0.099
478.600	-16.247	0.099
478.700	-21.980	0.099
478.800	-5.274	0.099
478.900	-9.202	0.099
479.000	-16.823	0.099
479.100	-8.783	0.099
479.200	-0.856	0.099
479.300	-12.156	0.099
479.400	-18.160	0.099
479.500	-15.179	0.099
479.600	-17.199	0.099
479.700	-12.223	0.099
479.800	-17.706	0.099
479.900	-7.101	0.099
480.000	-10.429	0.099
480.100	22.625	0.100
480.200	42.169	0.100
480.300	61.125	0.100
480.400	90.115	0.100
480.500	98.210	0.100
480.600	91.362	0.100
480.700	108.147	0.100
480.800	138.816	0.100
480.900	108.035	0.100
481.000	115.745	0.100
481.100	136.620	0.100
481.200	142.273	0.100
481.300	134.821	0.100
481.400	127.442	0.100
481.500	122.650	0.100
481.600	118.459	0.100
481.700	116.412	0.100
481.800	103.511	0.100
481.900	97.595	0.100
482.000	103.209	0.100
482.100	118.703	0.100
482.200	103.839	0.100
482.300	88.908	0.100
482.400	99.956	0.100
482.500	98.814	0.100
482.600	103.505	0.100
482.700	94.180	0.100
482.800	81.086	0.100
482.900	82.524	0.100
483.000	96.233	0.100
483.100	88.599	0.100
483.200	72.539	0.100
483.300	77.080	0.100
483.400	74.663	0.100
483.500	91.507	0.100
483.600	76.649	0.100
483.700	74.992	0.100
483.800	78.382	0.100
483.900	77.319	0.100
484.000	80.989	0.100
484.100	83.498	0.100
484.200	67.967	0.100
484.300	77.721	0.100
484.400	70.116	0.100
484.500	58.636	0.100
484.600	71.028	0.100
484.700	63.054	0.100
484.800	81.046	0.100
484.900	78.828	0.100
485.000	76.605	0.100
485.100	71.460	0.100
485.200	60.455	0.100
485.300	68.008	0.100
485.400	61.239	0.100
485.500	65.491	0.100
485.600	75.124	0.100
485.700	68.273	0.100
485.800	78.032	0.100
485.900	67.231	0.100
486.000	68.086	0.100
486.100	69.567	0.100
486.200	68.373	0.100
486.300	64.686	0.100
486.400	77.486	0.100
486.500	56.911	0.100
486.600	66.043	0.100
486.700	79.297	0.100
486.800	88.298	0.100
486.900	83.647	0.100
487.000	70.928	0.100
487.100	75.524	0.100
487.200	76.997	0.100
487.300	85.795	0.100
487.400	80.059	0.100
487.500	81.585	0.100
487.600	75.447	0.100
487.700	80.583	0.100
487.800	91.263	0.100
487.900	88.960	0.100
488.000	92.679	0.100
488.100	86.512	0.100
488.200	80.886	0.100
488.300	95.180	0.100
488.400	100.447	0.100
488.500	89.173	0.100
488.600	98.722	0.100
488.700	106.132	0.100
488.800	105.070	0.100
488.900	99.082	0.100
489.000	116.975	0.100
489.100	100.468	0.100
489.200	98.037	0.100
489.300	97.740	0.100
489.400	104.639	0.100
489.500	85.835	0.100
489.600	109.336	0.100
489.700	110.222	0.100
489.800	92.943	0.100
489.900	88.835	0.100
490.000	113.616	0.100
490.100	109.290	0.100
490.200	115.358	0.100
490.300	103.143	0.100
490.400	97.799	0.100
490.500	101.258	0.100
490.600	112.177	0.100
490.700	100.925	0.100
490.800	116.132	0.100
490.900	108.875	0.100
491.000	110.506	0.100
491.100	113.658	0.100
491.200	91.807	0.100
491.300	99.587	0.099
491.400	112.428	0.099
491.500	98.626	0.099
491.600	109.384	0.099
491.700	97.862	0.099
491.800	118.916	0.099
491.900	107.954	0.099
492.000	104.495	0.099
492.100	102.113	0.099
492.200	114.781	0.099
492.300	104.593	0.099
492.400	95.554	0.099
492.500	104.898	0.099
492.600	96.863	0.099
492.700	103.896	0.099
492.800	108.312	0.099
492.900	88.770	0.099
493.000	95.362	0.099
493.100	103.361	0.099
493.200	100.209	0.099
493.300	107.256	0.099
493.400	97.185	0.099
493.500	101.396	0.099
493.600	105.669	0.099
493.700	104.066	0.099
493.800	97.851	0.099
493.900	93.630	0.099
494.000	100.698	0.099
494.100	97.033	0.099
494.200	106.145	0.099
494.300	99.084	0.099
494.400	90.634	0.099
494.500	106.959	0.099
494.600	98.480	0.099
494.700	98.718	0.099
494.800	105.505	0.099
494.900	88.297	0.099
495.000	100.638	0.099
495.100	85.059	0.099
495.200	107.527	0.099
495.300	104.182	0.099
495.400	85.484	0.099
495.500	86.699	0.099
495.600	91.088	0.099
495.700	98.307	0.099
495.800	94.799	0.099
495.900	97.571	0.099
496.000	91.421	0.099
496.100	89.803	0.099
496.200	110.858	0.099
496.300	85.287	0.099
496.400	90.409	0.099
496.500	92.587	0.099
496.600	94.827	0.099
496.700	97.585	0.099
496.800	89.742	0.099
496.900	86.170	0.099
497.000	98.843	0.099
497.100	91.560	0.099
497.200	99.303	0.099
497.300	91.845	0.099
497.400	57.161	0.099
497.500	98.169	0.099
497.600	85.372	0.099
497.700	83.520	0.099
497.800	107.412	0.099
497.900	104.523	0.099
498.000	81.234	0.099
498.100	82.973	0.099
498.200	79.301	0.099
498.300	99.311	0.099
498.400	87.549	0.099
498.500	97.293	0.099
498.600	80.972	0.099
498.700	82.441	0.099
498.800	91.838	0.099
498.900	67.197	0.099
499.000	97.720	0.099
499.100	89.908	0.099
499.200	95.388	0.099
499.300	90.630	0.099
499.400	90.409	0.099
499.500	89.235	0.099
499.600	83.758	0.099
499.700	79.626	0.099
499.800	79.987	0.099
499.900	92.235	0.099
500.000	82.888	0.099
500.100	93.426	0.099
500.200	84.417	0.099
500.300	93.200	0.099
500.400	100.457	0.099
500.500	89.466	0.099
500.600	87.725	0.099
500.700	86.281	0.099
500.800	93.369	0.099
500.900	92.440	0.099
501.000	84.898	0.099
501.100	85.407	0.099
501.200	80.705	0.099
501.300	87.421	0.099
501.400	87.595	0.099
501.500	85.245	0.099
501.600	67.573	0.099
501.700	80.146	0.099
501.800	86.203	0.099
501.900	58.582	0.099
502.000	92.173	0.099
502.100	90.962	0.099
502.200	83.108	0.099
502.300	81.204	0.099
502.400	93.766	0.099
502.500	84.245	0.099
502.600	87.745	0.099
502.700	86.889	0.099
502.800	86.431	0.099
502.900	71.207	0.099
503.000	79.028	0.099
503.100	84.211	0.099
503.200	93.545	0.099
503.300	80.863	0.099
503.400	87.498	0.099
503.500	87.424	0.099
503.600	72.032	0.099
503.700	96.703	0.099
503.800	90.319	0.099
503.900	56.280	0.099
504.000	88.113	0.099
504.100	87.407	0.099
504.200	76.680	0.099
504.300	71.581	0.099
504.400	77.203	0.099
504.500	90.846	0.099
504.600	87.522	0.099
504.700	79.465	0.099
504.800	83.339	0.099
504.900	88.778	0.099
505.000	75.932	0.099
505.100	83.342	0.099
505.200	79.376	0.099
505.300	81.728	0.099
505.400	65.796	0.099
505.500	78.489	0.099
505.600	89.478	0.099
505.700	74.681	0.099
505.800	80.034	0.100
505.900	75.618	0.100
506.000	76.225	0.100
506.100	74.894	0.100
506.200	70.015	0.100
506.300	98.978	0.100
506.400	81.018	0.100
506.500	65.733	0.100
506.600	92.540	0.100
506.700	81.665	0.100
506.800	71.920	0.100
506.900	84.710	0.100
507.000	71.388	0.100
507.100	81.811	0.100
507.200	110.219	0.100
507.300	88.829	0.100
507.400	73.300	0.100
507.500	85.723	0.100
507.600	82.757	0.100
507.700	81.526	0.100
507.800	73.225	0.100
507.900	63.717	0.100
508.000	69.647	0.100
508.100	80.972	0.100
508.200	70.839	0.100
508.300	71.028	0.100
508.400	83.715	0.100
508.500	76.053	0.100
508.600	85.640	0.100
508.700	79.461	0.100
508.800	79.510	0.100
508.900	72.423	0.100
509.000	78.966	0.100
509.100	76.407	0.100
509.200	78.757	0.100
509.300	67.067	0.100
509.400	88.801	0.100
509.500	88.369	0.100
509.600	69.553	0.100
509.700	74.109	0.100
509.800	76.715	0.100
509.900	77.854	0.100
510.000	88.648	0.100
510.100	79.039	0.100
510.200	80.445	0.100
510.300	78.136	0.100
510.400	71.378	0.100
510.500	68.020	0.100
510.600	91.799	0.100
510.700	90.936	0.100
510.800	72.480	0.100
510.900	76.565	0.100
511.000	72.138	0.100
511.100	70.892	0.100
511.200	70.654	0.100
511.300	83.175	0.100
511.400	93.758	0.100
511.500	80.583	0.100
511.600	79.277	0.100
511.700	76.927	0.100
511.800	78.852	0.100
511.900	73.134	0.100
512.000	90.783	0.100
512.100	81.106	0.100
512.200	72.549	0.100
512.300	85.832	0.100
512.400	62.554	0.100
512.500	91.205	0.100
512.600	73.070	0.100
512.700	84.907	0.100
512.800	67.879	0.100
512.900	97.240	0.100
513.000	82.194	0.100
513.100	81.452	0.100
513.200	78.702	0.100
513.300	80.063	0.100
513.400	83.128	0.100
513.500	80.919	0.100
513.600	88.927	0.100
513.700	76.004	0.100
513.800	87.377	0.100
513.900	68.316	0.100
514.000	73.027	0.100
514.100	76.892	0.100
514.200	73.444	0.100
514.300	73.472	0.100
514.400	81.729	0.100
514.500	87.194	0.100
514.600	62.137	0.100
514.700	84.507	0.100
514.800	87.400	0.100
514.900	83.200	0.100
515.000	69.100	0.100
515.100	70.355	0.100
515.200	77.756	0.100
515.300	87.121	0.100
515.400	74.075	0.100
515.500	76.113	0.100
515.600	82.508	0.100
515.700	87.021	0.100
515.800	61.226	0.100
515.900	76.960	0.100
516.000	86.566	0.100
516.100	67.695	0.100
516.200	62.755	0.100
516.300	85.257	0.100
516.400	75.500	0.100
516.500	79.041	0.100
516.600	84.855	0.100
516.700	77.960	0.100
516.800	81.616	0.100
516.900	67.459	0.100
517.000	101.803	0.100
517.100	112.324	0.100
517.200	91.307	0.100
517.300	79.142	0.100
517.400	87.657	0.100
517.500	89.295	0.100
517.600	65.437	0.100
517.700	72.877	0.100
517.800	82.776	0.100
517.900	82.413	0.100
518.000	77.825	0.100
518.100	71.013	0.100
518.200	76.220	0.100
518.300	80.140	0.100
518.400	85.260	0.100
518.500	82.407	0.100
518.600	73.997	0.100
518.700	70.430	0.100
518.800	70.479	0.100
518.900	67.797	0.100
519.000	81.674	0.100
519.100	88.856	0.100
519.200	69.084	0.100
519.300	76.528	0.100
519.400	68.238	0.100
519.500	92.498	0.100
519.600	82.441	0.100
519.700	88.651	0.100
519.800	66.681	0.100
519.900	74.632	0.100
520.000	86.571	0.100
520.100	102.150	0.100
520.200	76.128	0.100
520.300	85.303	0.100
520.400	86.468	0.100
520.500	75.027	0.100
520.600	69.184	0.100
520.700	76.934	0.100
520.800	73.156	0.100
520.900	95.160	0.100
521.000	92.626	0.100
521.100	86.937	0.100
521.200	76.199	0.100
521.300	82.579	0.100
521.400	70.962	0.100
521.500	56.847	0.100
521.600	87.532	0.100
521.700	63.909	0.100
521.800	78.270	0.100
521.900	83.129	0.100
522.000	75.196	0.100
522.100	85.031	0.100
522.200	72.874	0.100
522.300	87.591	0.100
522.400	83.167	0.100
522.500	79.401	0.100
522.600	65.753	0.100
522.700	91.963	0.100
522.800	63.058	0.100
522.900	74.678	0.100
523.000	85.876	0.100
523.100	81.389	0.100
523.200	70.272	0.100
523.300	86.175	0.100
523.400	87.901	0.100
523.500	75.129	0.100
523.600	65.834	0.100
523.700	79.054	0.100
523.800	66.452	0.100
523.900	72.972	0.100
524.000	80.451	0.100
524.100	96.702	0.100
524.200	60.947	0.100
524.300	105.887	0.100
524.400	77.017	0.100
524.500	70.815	0.100
524.600	74.273	0.100
524.700	80.719	0.100
524.800	69.996	0.100
524.900	72.458	0.100
525.000	82.893	0.100
525.100	66.166	0.100
525.200	72.023	0.100
525.300	80.975	0.100
525.400	82.033	0.100
525.500	72.188	0.100
525.600	59.037	0.100
525.700	97.936	0.100
525.800	91.428	0.100
525.900	78.803	0.100
526.000	58.935	0.100
526.100	55.059	0.100
526.200	94.073	0.100
526.300	75.552	0.100
526.400	78.017	0.100
526.500	79.228	0.100
526.600	77.710	0.100
526.700	84.395	0.100
526.800	87.901	0.100
526.900	84.752	0.100
527.000	80.105	0.100
527.100	60.938	0.100
527.200	63.130	0.100
527.300	73.243	0.100
527.400	72.733	0.100
527.500	59.424	0.100
527.600	73.841	0.100
527.700	76.942	0.100
527.800	64.607	0.100
527.900	72.178	0.100
528.000	75.929	0.100
528.100	61.826	0.100
528.200	69.379	0.100
528.300	74.229	0.100
528.400	52.715	0.100
528.500	71.155	0.100
528.600	67.002	0.100
528.700	52.634	0.100
528.800	64.625	0.100
528.900	88.399	0.100
529.000	69.165	0.100
529.100	70.442	0.100
529.200	47.825	0.100
529.300	79.623	0.100
529.400	71.978	0.100
529.500	85.781	0.100
529.600	70.357	0.100
529.700	75.717	0.100
529.800	55.913	0.100
529.900	76.499	0.100
530.000	67.918	0.100
530.100	63.023	0.100
530.200	71.952	0.100
530.300	69.628	0.100
530.400	74.371	0.100
530.500	78.607	0.100
530.600	62.344	0.100
530.700	78.492	0.100
530.800	73.703	0.100
530.900	73.531	0.100
531.000	61.338	0.100
531.100	60.880	0.100
531.200	57.031	0.100
531.300	64.766	0.100
531.400	74.791	0.100
531.500	61.358	0.100
531.600	67.859	0.100
531.700	76.176	0.100
531.800	75.099	0.100
531.900	63.817	0.100
532.000	76.219	0.100
532.100	56.327	0.100
532.200	65.730	0.100
532.300	59.949	0.100
532.400	71.190	0.100
532.500	65.295	0.100
532.600	76.442	0.100
532.700	69.800	0.100
532.800	71.374	0.100
532.900	54.388	0.100
533.000	63.146	0.100
533.100	74.226	0.100
533.200	62.814	0.100
533.300	84.147	0.100
533.400	69.596	0.100
533.500	81.558	0.100
533.600	72.310	0.100
533.700	73.142	0.100
533.800	52.230	0.100
533.900	52.835	0.100
534.000	55.554	0.100
534.100	68.560	0.100
534.200	73.186	0.100
534.300	67.211	0.100
534.400	68.307	0.100
534.500	64.577	0.100
534.600	67.125	0.100
534.700	78.719	0.100
534.800	45.459	0.100
534.900	57.779	0.100
535.000	65.092	0.100
535.100	71.091	0.100
535.200	66.110	0.100
535.300	73.294	0.100
535.400	57.301	0.100
535.500	64.763	0.100
535.600	71.591	0.100
535.700	65.295	0.100
535.800	78.144	0.100
535.900	64.869	0.100
536.000	61.067	0.100
536.100	51.414	0.100
536.200	73.139	0.100
536.300	71.192	0.100
536.400	64.159	0.100
536.500	67.521	0.100
536.600	62.517	0.100
536.700	68.286	0.100
536.800	62.827	0.100
536.900	68.551	0.100
537.000	63.449	0.100
537.100	78.687	0.100
537.200	54.005	0.100
537.300	59.926	0.100
537.400	78.248	0.100
537.500	66.780	0.100
537.600	56.203	0.100
537.700	75.673	0.100
537.800	65.388	0.100
537.900	61.309	0.100
538.000	74.598	0.100
538.100	71.140	0.100
538.200	64.085	0.100
538.300	60.147	0.100
538.400	65.204	0.100
538.500	58.337	0.100
538.600	72.098	0.100
538.700	65.529	0.100
538.800	49.067	0.100
538.900	68.794	0.100
539.000	65.005	0.100
539.100	83.086	0.100
539.200	64.939	0.100
539.300	65.483	0.100
539.400	58.174	0.100
539.500	68.201	0.100
539.600	73.369	0.100
539.700	58.801	0.100
539.800	71.250	0.100
539.900	68.923	0.100
540.000	52.400	0.100
540.100	48.662	0.100
540.200	48.854	0.100
540.300	32.708	0.100
540.400	22.271	0.100
540.500	8.309	0.100
540.600	19.826	0.100
540.700	20.314	0.100
540.800	7.610	0.100
540.900	-28.820	0.100
541.000	-25.075	0.100
541.100	-5.089	0.100
541.200	8.933	0.100
541.300	8.213	0.100
541.400	-4.193	0.100
541.500	-29.341	0.100
541.600	-6.073	0.100
541.700	3.428	0.100
541.800	-5.078	0.100
541.900	-22.046	0.100
542.000	-17.924	0.100
542.100	-15.447	0.100
542.200	-9.665	0.100
542.300	-27.346	0.100
542.400	-15.678	0.100
542.500	-12.481	0.100
542.600	-18.300	0.100
542.700	-27.598	0.100
542.800	-9.395	0.100
542.900	-1.607	0.100
543.000	-19.256	0.100
543.100	-7.376	0.100
543.200	-1.080	0.100
543.300	-7.630	0.100
543.400	-17.864	0.100
543.500	-29.070	0.100
543.600	-29.015	0.100
543.700	-8.504	0.100
543.800	-23.745	0.100
543.900	-14.277	0.100
544.000	-17.394	0.100
544.100	-28.175	0.100
544.200	-11.699	0.100
544.300	-25.252	0.100
544.400	-20.783	0.100
544.500	-14.294	0.100
544.600	-17.128	0.100
544.700	-14.447	0.100
544.800	-14.953	0.100
544.900	-23.266	0.100
545.000	-24.257	0.100
545.100	-17.234	0.100
545.200	-33.093	0.100
545.300	-25.196	0.100
545.400	-14.096	0.100
545.500	-16.574	0.100
545.600	-11.637	0.100
545.700	-33.946	0.100
545.800	-39.137	0.100
545.900	-38.030	0.100
546.000	-19.866	0.100
546.100	-23.876	0.100
546.200	-34.225	0.100
546.300	-27.713	0.100
546.400	-28.684	0.100
546.500	-24.260	0.100
546.600	-20.751	0.100
546.700	-27.407	0.100
546.800	-24.925	0.100
546.900	-27.086	0.100
547.000	-12.321	0.100
547.100	-29.881	0.100
547.200	-32.154	0.100
547.300	-30.240	0.100
547.400	-31.581	0.100
547.500	-18.459	0.100
547.600	-27.873	0.100
547.700	-39.079	0.100
547.800	-45.658	0.100
547.900	-31.819	0.100
548.000	-19.367	0.100
548.100	-26.299	0.100
548.200	-33.962	0.100
548.300	-27.191	0.100
548.400	-3.410	0.100
548.500	-24.149	0.100
548.600	-34.199	0.100
548.700	-34.980	0.100
548.800	-33.693	0.100
548.900	-29.274	0.100
549.000	-25.776	0.100
549.100	-13.834	0.100
549.200	-19.638	0.100
549.300	-18.966	0.100
549.400	-26.955	0.100
549.500	-33.742	0.100
549.600	-16.305	0.100
549.700	-37.000	0.100
549.800	-34.449	0.100
549.900	-28.117	0.100
550.000	-21.283	0.100
550.100	-40.024	0.100
550.200	-11.668	0.100
550.300	-27.039	0.100
550.400	-23.616	0.100
550.500	-16.644	0.100
550.600	-25.092	0.100
550.700	-21.554	0.100
550.800	-29.269	0.100
550.900	-41.065	0.100
551.000	-41.833	0.100
551.100	-16.757	0.100
551.200	-21.033	0.100
551.300	-29.110	0.100
551.400	-42.364	0.100
551.500	-33.266	0.100
551.600	-28.960	0.100
551.700	-14.814	0.100
551.800	-25.213	0.100
551.900	-23.136	0.100
552.000	-26.513	0.100
552.100	-24.891	0.100
552.200	-8.503	0.100
552.300	-23.354	0.100
552.400	-47.007	0.100
552.500	-37.984	0.100
552.600	-18.336	0.100
552.700	-37.691	0.100
552.800	-26.436	0.100
552.900	-29.781	0.100
553.000	-9.764	0.100
553.100	-23.364	0.100
553.200	-26.043	0.100
553.300	-26.375	0.100
553.400	-39.306	0.100
553.500	-27.548	0.100
553.600	-27.959	0.100
553.700	-27.313	0.100
553.800	-25.750	0.100
553.900	-19.141	0.100
554.000	-21.660	0.100
554.100	0.508	0.100
554.200	-30.243	0.100
554.300	-50.364	0.100
554.400	-21.045	0.100
554.500	-31.955	0.100
554.600	-31.888	0.100
554.700	-30.641	0.100
554.800	-41.366	0.100
554.900	-22.908	0.100
555.000	-36.076	0.100
555.100	-21.861	0.100
555.200	-16.475	0.100
555.300	-13.416	0.100
555.400	-26.075	0.100
555.500	-29.141	0.100
555.600	-18.139	0.100
555.700	-17.496	0.100
555.800	-40.193	0.100
555.900	-23.860	0.100
556.000	-24.674	0.100
556.100	-11.294	0.100
556.200	-29.021	0.100
556.300	-15.853	0.100
556.400	-32.248	0.100
556.500	-22.805	0.100
556.600	-27.828	0.100
556.700	-25.650	0.100
556.800	-35.642	0.100
556.900	-27.123	0.100
557.000	-17.349	0.100
557.100	-34.874	0.100
557.200	-14.798	0.100
557.300	-33.821	0.100
557.400	-31.302	0.100
557.500	-27.493	0.100
557.600	-26.970	0.100
557.700	-28.342	0.100
557.800	-22.098	0.100
557.900	-29.636	0.100
558.000	-30.445	0.100
558.100	-27.588	0.100
558.200	-28.912	0.100
558.300	-16.811	0.100
558.400	-29.783	0.100
558.500	-14.055	0.100
558.600	-34.845	0.100
558.700	-15.891	0.100
558.800	-22.777	0.100
558.900	-24.913	0.100
559.000	-22.894	0.100
559.100	-24.528	0.100
559.200	-26.407	0.100
559.300	-36.571	0.100
559.400	-39.729	0.100
559.500	-31.196	0.100
559.600	-30.200	0.100
559.700	-22.909	0.100
559.800	-14.811	0.100
559.900	-22.831	0.100
560.000	-20.300	0.100
560.100	-37.035	0.100
560.200	-25.175	0.100
560.300	-25.181	0.100
560.400	-24.913	0.100
560.500	-10.810	0.100
560.600	-17.509	0.100
560.700	-34.277	0.100
560.800	-28.609	0.100
560.900	-19.419	0.100
561.000	-25.416	0.100
561.100	-23.325	0.100
561.200	-28.672	0.100
561.300	-29.889	0.100
561.400	-27.313	0.100
561.500	-16.699	0.100
561.600	-14.942	0.100
561.700	-9.760	0.100
561.800	-15.367	0.100
561.900	-25.103	0.100
562.000	-29.453	0.100
562.100	-23.682	0.100
562.200	-35.841	0.100
562.300	-28.767	0.100
562.400	-42.548	0.100
562.500	-27.227	0.100
562.600	-23.720	0.100
562.700	-15.015	0.100
562.800	-23.838	0.100
562.900	-26.852	0.100
563.000	-17.729	0.100
563.100	-29.401	0.100
563.200	-39.641	0.100
563.300	-24.847	0.100
563.400	-17.512	0.100
563.500	-34.900	0.100
563.600	-31.604	0.100
563.700	-20.604	0.100
563.800	-22.466	0.100
563.900	-13.738	0.100
564.000	-34.540	0.100
564.100	-29.423	0.100
564.200	-32.406	0.100
564.300	-20.063	0.100
564.400	-28.118	0.100
564.500	-24.453	0.100
564.600	-27.778	0.100
564.700	-34.515	0.100
564.800	-23.489	0.100
564.900	-30.683	0.100
565.000	-19.874	0.100
565.100	-27.583	0.100
565.200	-18.165	0.100
565.300	-27.031	0.100
565.400	-29.061	0.100
565.500	-30.460	0.100
565.600	-39.122	0.100
565.700	-26.464	0.100
565.800	-18.479	0.100
565.900	-23.505	0.100
566.000	-22.327	0.100
566.100	-23.587	0.100
566.200	-21.686	0.100
566.300	-26.148	0.100
566.400	-24.545	0.100
566.500	-30.845	0.100
566.600	-24.172	0.100
566.700	-47.427	0.100
566.800	-33.929	0.100
566.900	-18.476	0.100
567.000	-18.870	0.100
567.100	-22.714	0.100
567.200	-23.778	0.100
567.300	-19.249	0.100
567.400	-42.614	0.100
567.500	-16.314	0.100
567.600	-27.772	0.100
567.700	-17.644	0.100
567.800	-28.356	0.100
567.900	-29.142	0.100
568.000	-21.304	0.100
568.100	-19.596	0.100
568.200	-25.140	0.100
568.300	-35.024	0.100
568.400	-21.839	0.100
568.500	-25.949	0.100
568.600	-28.509	0.100
568.700	-28.765	0.100
568.800	-21.477	0.100
568.900	-31.245	0.100
569.000	-37.665	0.100
569.100	-33.353	0.100
569.200	-27.680	0.100
569.300	-20.740	0.100
569.400	-17.999	0.100
569.500	-30.093	0.100
569.600	-20.450	0.100
569.700	-34.008	0.100
569.800	-28.087	0.100
569.900	-17.496	0.100
570.000	-23.861	0.100
570.100	-26.717	0.100
570.200	-31.376	0.100
570.300	-20.981	0.100
570.400	-25.003	0.100
570.500	-25.757	0.100
570.600	-44.025	0.100
570.700	-33.667	0.100
570.800	-29.056	0.100
570.900	-26.087	0.100
571.000	-32.403	0.100
571.100	-34.553	0.100
571.200	-20.168	0.100
571.300	-34.517	0.100
571.400	-36.069	0.100
571.500	-35.443	0.100
571.600	-15.890	0.100
571.700	-18.718	0.100
571.800	-30.260	0.100
571.900	-39.807	0.100
572.000	-25.061	0.100
572.100	-23.645	0.100
572.200	-28.675	0.100
572.300	-46.288	0.100
572.400	-27.157	0.100
572.500	-33.284	0.100
572.600	-14.736	0.100
572.700	-37.564	0.100
572.800	-15.585	0.100
572.900	-18.269	0.100
573.000	-15.405	0.100
573.100	-38.461	0.100
573.200	-42.511	0.100
573.300	-25.836	0.100
573.400	-33.759	0.100
573.500	-21.344	0.100
573.600	-39.252	0.100
573.700	-18.198	0.100
573.800	-29.262	0.100
573.900	-27.789	0.100
574.000	-24.494	0.100
574.100	-27.675	0.100
574.200	-25.394	0.100
574.300	-28.210	0.100
574.400	-35.239	0.100
574.500	-25.248	0.100
574.600	-19.193	0.100
574.700	-34.845	0.100
574.800	-26.119	0.100
574.900	-28.492	0.100
575.000	-20.984	0.100
575.100	-22.825	0.100
575.200	-23.325	0.100
575.300	-40.576	0.100
575.400	-25.578	0.100
575.500	-23.243	0.100
575.600	-29.374	0.100
575.700	-20.878	0.100
575.800	-27.096	0.100
575.900	-31.411	0.100
576.000	-25.524	0.100
576.100	-33.618	0.100
576.200	-33.762	0.100
576.300	-26.153	0.100
576.400	-30.234	0.100
576.500	-20.956	0.100
576.600	-28.406	0.100
576.700	-37.446	0.100
576.800	-24.356	0.100
576.900	-15.680	0.100
577.000	-29.599	0.100
577.100	-26.176	0.100
577.200	-22.061	0.100
577.300	-23.944	0.100
577.400	-27.070	0.100
577.500	-37.472	0.100
577.600	-21.251	0.100
577.700	-28.941	0.100
577.800	-21.278	0.100
577.900	-26.444	0.100
578.000	-29.105	0.100
578.100	-27.183	0.100
578.200	-36.669	0.100
578.300	-29.812	0.100
578.400	-34.014	0.100
578.500	-33.207	0.100
578.600	-20.317	0.100
578.700	-18.809	0.100
578.800	-28.017	0.100
578.900	-29.978	0.100
579.000	-26.398	0.100
579.100	-13.495	0.100
579.200	-22.613	0.100
579.300	-23.141	0.100
579.400	-29.979	0.100
579.500	-44.599	0.100
579.600	-38.702	0.100
579.700	-10.718	0.100
579.800	-7.540	0.100
579.900	-26.113	0.100
580.000	-31.489	0.100
580.100	-27.805	0.100
580.200	-38.436	0.100
580.300	-39.865	0.100
580.400	-32.582	0.100
580.500	-21.885	0.100
580.600	-28.905	0.100
580.700	-20.245	0.100
580.800	-26.047	0.100
580.900	-26.861	0.100
581.000	-43.624	0.100
581.100	-28.342	0.100
581.200	-21.729	0.100
581.300	-27.145	0.100
581.400	-25.940	0.100
581.500	-14.236	0.100
581.600	-11.024	0.100
581.700	-52.492	0.100
581.800	-35.994	0.100
581.900	-17.176	0.100
582.000	-29.346	0.100
582.100	-45.206	0.100
582.200	-23.671	0.100
582.300	-27.258	0.100
582.400	-39.125	0.100
582.500	-34.756	0.100
582.600	-30.332	0.100
582.700	-28.909	0.100
582.800	-33.747	0.100
582.900	-35.538	0.100
583.000	-11.703	0.100
583.100	-15.097	0.100
583.200	-15.832	0.100
583.300	-32.469	0.100
583.400	-31.268	0.100
583.500	-12.640	0.100
583.600	-29.228	0.100
583.700	-41.076	0.100
583.800	-20.515	0.100
583.900	-28.347	0.100
584.000	-24.756	0.100
584.100	-26.496	0.100
584.200	-16.688	0.100
584.300	-24.451	0.100
584.400	-29.777	0.100
584.500	-31.098	0.100
584.600	-37.927	0.100
584.700	-23.271	0.100
584.800	-29.162	0.100
584.900	-32.573	0.100
585.000	-27.531	0.100
585.100	-21.861	0.100
585.200	-29.415	0.100
585.300	-24.965	0.100
585.400	-27.598	0.100
585.500	-26.536	0.100
585.600	-30.618	0.100
585.700	-33.319	0.100
585.800	-31.307	0.100
585.900	-20.107	0.100
586.000	-22.532	0.100
586.100	-23.406	0.100
586.200	-27.897	0.100
586.300	-14.536	0.100
586.400	-23.363	0.100
586.500	-30.272	0.100
586.600	-24.388	0.100
586.700	-26.458	0.100
586.800	-36.293	0.100
586.900	-36.181	0.100
587.000	-35.766	0.100
587.100	-35.669	0.100
587.200	-20.211	0.100
587.300	-11.437	0.100
587.400	-23.378	0.100
587.500	-20.357	0.100
587.600	-31.871	0.100
587.700	-18.114	0.100
587.800	-24.663	0.100
587.900	-16.178	0.100
588.000	-22.100	0.100
588.100	-26.012	0.100
588.200	-41.401	0.100
588.300	-30.890	0.100
588.400	-25.768	0.100
588.500	-22.819	0.100
588.600	-30.877	0.100
588.700	-39.882	0.100
588.800	-14.706	0.100
588.900	-27.470	0.100
589.000	-28.742	0.100
589.100	-39.261	0.100
589.200	-20.213	0.100
589.300	-35.640	0.100
589.400	-25.837	0.100
589.500	-22.393	0.100
589.600	-38.521	0.100
589.700	-38.073	0.099
589.800	-24.013	0.099
589.900	-27.739	0.099
590.000	-19.158	0.099
590.100	-43.405	0.099
590.200	-31.996	0.099
590.300	-43.426	0.099
590.400	-15.940	0.099
590.500	-22.799	0.099
590.600	-33.910	0.099
590.700	-28.550	0.099
590.800	-35.927	0.099
590.900	-32.157	0.099
591.000	-34.639	0.099
591.100	-19.669	0.099
591.200	-36.117	0.099
591.300	-33.278	0.099
591.400	-24.151	0.099
591.500	-18.137	0.099
591.600	-28.472	0.099
591.700	-21.169	0.099
591.800	-26.157	0.099
591.900	-24.261	0.099
592.000	-21.960	0.099
592.100	-12.519	0.099
592.200	-30.574	0.099
592.300	-31.613	0.099
592.400	-18.951	0.099
592.500	-33.128	0.099
592.600	-25.560	0.099
592.700	-35.003	0.099
592.800	-30.738	0.099
592.900	-19.416	0.099
593.000	-23.021	0.099
593.100	-20.568	0.099
593.200	-28.109	0.099
593.300	-36.013	0.099
593.400	-33.116	0.099
593.500	-27.847	0.099
593.600	-36.603	0.099
593.700	-26.191	0.099
593.800	-19.753	0.099
593.900	-25.009	0.099
594.000	-30.108	0.099
594.100	-43.501	0.099
594.200	-29.364	0.099
594.300	-24.090	0.099
594.400	-31.440	0.099
594.500	-21.260	0.099
594.600	-29.151	0.099
594.700	-24.269	0.099
594.800	-25.094	0.099
594.900	-23.895	0.099
595.000	-41.260	0.099
595.100	-11.155	0.099
595.200	-21.813	0.099
595.300	-20.999	0.099
595.400	-45.302	0.099
595.500	-50.754	0.099
595.600	-25.351	0.099
595.700	-29.400	0.099
595.800	-18.786	0.099
595.900	-25.748	0.099
596.000	-26.906	0.099
596.100	-52.913	0.099
596.200	-28.986	0.099
596.300	-15.166	0.099
596.400	-19.972	0.099
596.500	-32.625	0.099
596.600	-32.348	0.099
596.700	-24.644	0.099
596.800	-27.605	0.099
596.900	-25.750	0.099
597.000	-20.913	0.099
597.100	-26.981	0.099
597.200	-33.867	0.099
597.300	-25.978	0.099
597.400	-33.712	0.099
597.500	-36.532	0.099
597.600	-26.317	0.099
597.700	-18.729	0.099
597.800	-20.959	0.099
597.900	-43.101	0.099
598.000	-34.564	0.099
598.100	-31.092	0.099
598.200	-19.363	0.099
598.300	-21.019	0.099
598.400	-24.801	0.099
598.500	-35.134	0.099
598.600	-49.746	0.099
598.700	-17.268	0.099
598.800	-17.063	0.099
598.900	-24.603	0.099
599.000	-33.119	0.099
599.100	-29.622	0.099
599.200	-30.250	0.099
599.300	-29.150	0.099
599.400	-30.162	0.099
599.500	-26.315	0.099
599.600	-28.258	0.099
599.700	-23.982	0.099
599.800	-26.783	0.099
599.900	-28.149	0.099
600.000	-32.574	0.099
600.100	-37.684	0.099
600.200	-30.980	0.099
600.300	-18.856	0.099
600.400	-23.204	0.099
600.500	-30.329	0.099
600.600	-36.287	0.099
600.700	-33.244	0.099
600.800	-35.769	0.099
600.900	-21.554	0.099
601.000	-32.387	0.099
601.100	-24.085	0.099
601.200	-27.643	0.099
601.300	-14.568	0.099
601.400	-19.408	0.099
601.500	-20.801	0.099
601.600	-2.147	0.099
601.700	-22.895	0.099
601.800	-27.077	0.099
601.900	-39.565	0.099
602.000	-26.636	0.099
602.100	-27.972	0.099
602.200	-7.836	0.099
602.300	-8.553	0.099
602.400	-19.595	0.099
602.500	-26.187	0.099
602.600	-29.947	0.099
602.700	-15.887	0.099
602.800	-18.792	0.099
602.900	-14.394	0.099
603.000	-21.965	0.099
603.100	-24.871	0.099
603.200	-24.680	0.099
603.300	-45.279	0.099
603.400	-24.900	0.099
603.500	-19.609	0.099
603.600	-33.640	0.099
603.700	-21.214	0.099
603.800	-31.340	0.100
603.900	-38.499	0.100
604.000	-36.750	0.100
604.100	-8.884	0.100
604.200	-22.132	0.100
604.300	-29.944	0.100
604.400	-41.582	0.100
604.500	-17.502	0.100
604.600	-14.483	0.100
604.700	-30.762	0.100
604.800	-17.919	0.100
604.900	-28.929	0.100
605.000	-29.711	0.100
605.100	-15.030	0.100
605.200	-7.837	0.100
605.300	-40.334	0.100
605.400	-18.842	0.100
605.500	-17.507	0.100
605.600	-20.395	0.100
605.700	-15.108	0.100
605.800	-17.125	0.100
605.900	-21.407	0.100
606.000	-33.088	0.100
606.100	-24.726	0.100
606.200	-30.965	0.100
606.300	-17.476	0.100
606.400	-20.067	0.100
606.500	-12.514	0.100
606.600	-14.411	0.100
606.700	3.858	0.100
606.800	-18.528	0.100
606.900	-26.295	0.100
607.000	-31.819	0.100
607.100	-16.408	0.100
607.200	-20.089	0.100
607.300	-18.073	0.100
607.400	-12.470	0.100
607.500	-10.495	0.100
607.600	-8.420	0.100
607.700	-35.167	0.100
607.800	-21.129	0.100
607.900	-26.240	0.100
608.000	-18.214	0.100
608.100	-28.058	0.100
608.200	-31.785	0.100
608.300	-4.155	0.100
608.400	-6.395	0.100
608.500	-13.649	0.100
608.600	-5.046	0.100
608.700	-11.650	0.100
608.800	-16.828	0.100
608.900	-38.817	0.100
609.000	-23.317	0.100
609.100	-10.354	0.100
609.200	-8.314	0.100
609.300	-12.458	0.100
609.400	-29.298	0.100
609.500	-24.017	0.100
609.600	-22.679	0.100
609.700	-26.338	0.100
609.800	-19.406	0.100
609.900	-12.424	0.100
610.000	-1.607	0.100
610.100	-7.143	0.100
610.200	-19.380	0.100
610.300	-26.823	0.100
610.400	-17.096	0.100
610.500	-24.583	0.100
610.600	-13.836	0.100
610.700	-18.816	0.100
610.800	-15.586	0.100
610.900	-17.783	0.100
611.000	-29.639	0.100
611.100	-6.367	0.100
611.200	-16.616	0.100
611.300	-24.916	0.100
611.400	-10.926	0.100
611.500	-28.359	0.100
611.600	-25.284	0.100
611.700	-31.865	0.100
611.800	-15.724	0.100
611.900	-14.875	0.100
612.000	-15.474	0.100
612.100	-21.327	0.100
612.200	-29.731	0.100
612.300	2.200	0.100
612.400	-17.749	0.100
612.500	-13.255	0.100
612.600	-3.355	0.100
612.700	-10.088	0.100
612.800	-20.394	0.100
612.900	-15.559	0.100
613.000	-24.424	0.100
613.100	-10.097	0.100
613.200	-29.524	0.100
613.300	-17.092	0.100
613.400	-22.098	0.100
613.500	-8.431	0.100
613.600	-13.495	0.100
613.700	-25.632	0.100
613.800	-11.007	0.100
613.900	-10.540	0.100
614.000	-20.364	0.100
614.100	-16.925	0.100
614.200	-6.165	0.100
614.300	-10.817	0.100
614.400	-14.794	0.100
614.500	-16.388	0.100
614.600	-22.800	0.100
614.700	-3.116	0.100
614.800	-19.799	0.100
614.900	-22.960	0.100
615.000	-12.036	0.100
615.100	-14.092	0.100
615.200	-4.840	0.100
615.300	-13.311	0.100
615.400	-21.382	0.100
615.500	-17.302	0.100
615.600	-9.451	0.100
615.700	-14.058	0.100
615.800	-25.535	0.100
615.900	-18.827	0.100
616.000	-26.072	0.100
616.100	-15.721	0.100
616.200	-24.169	0.100
616.300	1.641	0.100
616.400	-13.204	0.100
616.500	-12.853	0.100
616.600	-22.718	0.100
616.700	-16.515	0.100
616.800	-16.854	0.100
616.900	-12.237	0.100
617.000	-18.977	0.100
617.100	-12.844	0.100
617.200	-12.672	0.100
617.300	-19.774	0.100
617.400	-12.770	0.100
617.500	-11.584	0.100
617.600	-2.487	0.100
617.700	-11.869	0.100
617.800	-15.099	0.100
617.900	-24.488	0.100
618.000	-18.416	0.100
618.100	-17.981	0.100
618.200	-27.169	0.100
618.300	-19.673	0.100
618.400	-11.346	0.100
618.500	-7.005	0.100
618.600	-15.592	0.100
618.700	-25.869	0.100
618.800	-10.725	0.100
618.900	-10.328	0.100
619.000	-8.066	0.100
619.100	-22.951	0.100
619.200	-15.114	0.100
619.300	-14.539	0.100
619.400	-23.105	0.100
619.500	-7.598	0.100
619.600	-30.085	0.100
619.700	-27.882	0.100
619.800	-8.702	0.100
619.900	-24.439	0.100
620.000	-9.171	0.100
620.100	-20.806	0.100
620.200	-23.887	0.100
620.300	-7.063	0.100
620.400	-12.473	0.100
620.500	-27.163	0.100
620.600	2.325	0.100
620.700	-27.365	0.100
620.800	-16.014	0.100
620.900	-19.869	0.100
621.000	-12.451	0.100
621.100	-11.619	0.100
621.200	-8.751	0.100
621.300	-13.192	0.100
621.400	-11.955	0.100
621.500	-23.568	0.100
621.600	-28.026	0.100
621.700	-20.099	0.100
621.800	-20.335	0.100
621.900	-6.856	0.100
622.000	-3.004	0.100
622.100	-19.046	0.100
622.200	-21.526	0.100
622.300	-7.698	0.100
622.400	-7.233	0.100
622.500	-21.540	0.100
622.600	-12.809	0.100
622.700	-24.916	0.100
622.800	-19.570	0.100
622.900	-4.189	0.100
623.000	-14.461	0.100
623.100	-9.703	0.100
623.200	-16.209	0.100
623.300	-7.439	0.100
623.400	-21.951	0.100
623.500	-30.108	0.100
623.600	-19.230	0.100
623.700	4.981	0.100
623.800	-15.911	0.100
623.900	-13.203	0.100
624.000	-14.673	0.100
624.100	-21.206	0.100
624.200	-24.145	0.100
624.300	-5.639	0.100
624.400	-17.760	0.100
624.500	-14.427	0.100
624.600	-5.582	0.100
624.700	-7.221	0.100
624.800	-31.851	0.100
624.900	-13.866	0.100
625.000	-6.243	0.100
625.100	-22.192	0.100
625.200	-18.096	0.100
625.300	-3.386	0.100
625.400	-10.307	0.100
625.500	-24.916	0.100
625.600	-13.383	0.100
625.700	-17.429	0.100
625.800	-17.568	0.100
625.900	-19.782	0.100
626.000	-11.501	0.100
626.100	-14.046	0.100
626.200	-4.121	0.100
626.300	-23.616	0.100
626.400	-4.405	0.100
626.500	-9.028	0.100
626.600	-9.038	0.100
626.700	-20.156	0.100
626.800	-12.448	0.100
626.900	-8.766	0.100
627.000	-10.528	0.100
627.100	-7.128	0.100
627.200	-22.495	0.100
627.300	-23.484	0.100
627.400	-15.182	0.100
627.500	-11.322	0.100
627.600	4.903	0.100
627.700	-17.877	0.100
627.800	-19.472	0.100
627.900	-18.963	0.100
628.000	-18.332	0.100
628.100	0.674	0.100
628.200	-18.381	0.100
628.300	-7.529	0.100
628.400	-31.438	0.100
628.500	-19.524	0.100
628.600	-16.692	0.100
628.700	-16.086	0.100
628.800	-20.392	0.100
628.900	0.559	0.100
629.000	-19.183	0.100
629.100	-11.955	0.100
629.200	-14.325	0.100
629.300	-35.101	0.100
629.400	-12.087	0.100
629.500	-31.118	0.100
629.600	-6.922	0.100
629.700	-14.460	0.100
629.800	-12.799	0.100
629.900	-12.879	0.100
630.000	-20.791	0.100
630.100	12.931	0.100
630.200	31.581	0.100
630.300	56.215	0.100
630.400	60.963	0.100
630.500	83.949	0.100
630.600	98.138	0.100
630.700	109.818	0.100
630.800	119.946	0.100
630.900	112.051	0.100
631.000	115.523	0.100
631.100	107.270	0.100
631.200	123.548	0.100
631.300	128.194	0.100
631.400	118.305	0.100
631.500	118.709	0.100
631.600	111.075	0.100
631.700	119.630	0.100
631.800	103.926	0.100
631.900	114.875	0.100
632.000	108.067	0.100
632.100	113.737	0.100
632.200	81.559	0.100
632.300	93.487	0.100
632.400	91.721	0.100
632.500	97.930	0.100
632.600	90.996	0.100
632.700	95.371	0.100
632.800	82.885	0.100
632.900	82.752	0.100
633.000	86.284	0.100
633.100	83.370	0.100
633.200	66.273	0.100
633.300	80.730	0.100
633.400	84.237	0.100
633.500	80.676	0.100
633.600	72.037	0.100
633.700	66.599	0.100
633.800	67.249	0.100
633.900	67.173	0.100
634.000	76.101	0.100
634.100	87.663	0.100
634.200	86.066	0.100
634.300	59.807	0.100
634.400	70.491	0.100
634.500	70.956	0.100
634.600	73.478	0.100
634.700	50.516	0.100
634.800	73.035	0.100
634.900	77.633	0.100
635.000	61.692	0.100
635.100	84.102	0.100
635.200	70.666	0.100
635.300	70.189	0.100
635.400	55.412	0.100
635.500	76.703	0.100
635.600	74.597	0.100
635.700	62.776	0.100
635.800	76.496	0.100
635.900	60.222	0.100
636.000	58.280	0.100
636.100	73.557	0.100
636.200	81.785	0.100
636.300	71.611	0.100
636.400	82.157	0.100
636.500	53.649	0.100
636.600	64.288	0.100
636.700	69.106	0.100
636.800	99.461	0.100
636.900	89.394	0.100
637.000	78.352	0.100
637.100	61.680	0.100
637.200	67.265	0.100
637.300	66.029	0.100
637.400	83.564	0.100
637.500	64.732	0.100
637.600	86.273	0.100
637.700	95.034	0.100
637.800	82.441	0.100
637.900	94.200	0.100
638.000	78.907	0.100
638.100	82.476	0.100
638.200	83.911	0.100
638.300	73.407	0.100
638.400	78.624	0.100
638.500	92.244	0.100
638.600	88.988	0.100
638.700	104.990	0.100
638.800	90.437	0.100
638.900	101.796	0.100
639.000	92.414	0.100
639.100	90.673	0.100
639.200	114.807	0.100
639.300	85.773	0.100
639.400	102.925	0.100
639.500	100.388	0.100
639.600	89.350	0.100
639.700	100.246	0.100
639.800	94.913	0.100
639.900	97.900	0.100
640.000	98.298	0.100
640.100	105.630	0.100
640.200	82.504	0.100
640.300	102.582	0.100
640.400	106.005	0.100
640.500	94.473	0.100
640.600	102.556	0.100
640.700	113.446	0.100
640.800	91.471	0.100
640.900	93.153	0.100
641.000	93.933	0.100
641.100	98.508	0.100
641.200	104.647	0.100
641.300	105.194	0.100
641.400	88.727	0.100
641.500	110.515	0.100
641.600	112.773	0.100
641.700	101.400	0.100
641.800	100.215	0.100
641.900	106.099	0.100
642.000	101.756	0.100
642.100	104.011	0.100
642.200	101.143	0.100
642.300	81.679	0.100
642.400	96.021	0.100
642.500	99.950	0.100
642.600	97.796	0.100
642.700	98.656	0.100
642.800	103.375	0.100
642.900	99.090	0.100
643.000	98.757	0.100
643.100	87.921	0.100
643.200	114.032	0.100
643.300	103.945	0.100
643.400	110.362	0.100
643.500	92.833	0.100
643.600	108.648	0.100
643.700	97.001	0.100
643.800	99.099	0.100
643.900	91.076	0.100
644.000	99.151	0.100
644.100	105.168	0.100
644.200	80.109	0.100
644.300	76.801	0.100
644.400	92.894	0.100
644.500	104.202	0.100
644.600	91.707	0.100
644.700	90.601	0.100
644.800	91.375	0.100
644.900	108.056	0.100
645.000	95.063	0.100
645.100	93.475	0.100
645.200	82.272	0.100
645.300	88.366	0.099
645.400	90.205	0.099
645.500	93.867	0.099
645.600	87.061	0.099
645.700	92.590	0.099
645.800	82.924	0.099
645.900	97.416	0.099
646.000	81.964	0.099
646.100	84.477	0.099
646.200	87.969	0.099
646.300	85.947	0.099
646.400	97.441	0.099
646.500	90.987	0.099
646.600	85.629	0.099
646.700	59.632	0.099
646.800	108.015	0.099
646.900	98.612	0.099
647.000	88.168	0.099
647.100	78.587	0.099
647.200	85.809	0.099
647.300	78.860	0.099
647.400	82.560	0.099
647.500	80.238	0.099
647.600	81.222	0.099
647.700	79.531	0.099
647.800	85.829	0.099
647.900	93.582	0.099
648.000	88.793	0.099
648.100	109.887	0.099
648.200	71.048	0.099
648.300	83.981	0.099
648.400	83.480	0.099
648.500	74.767	0.099
648.600	75.538	0.099
648.700	72.182	0.099
648.800	78.889	0.099
648.900	78.377	0.099
649.000	88.902	0.099
649.100	90.742	0.099
649.200	83.336	0.099
649.300	77.451	0.099
649.400	76.973	0.099
649.500	62.364	0.099
649.600	87.657	0.099
649.700	62.638	0.099
649.800	87.775	0.099
649.900	84.959	0.099
650.000	74.400	0.099
650.100	71.473	0.099
650.200	69.665	0.099
650.300	103.011	0.099
650.400	90.547	0.099
650.500	80.155	0.099
650.600	82.856	0.099
650.700	78.759	0.099
650.800	78.020	0.099
650.900	82.522	0.099
651.000	94.077	0.099
651.100	67.892	0.099
651.200	79.810	0.099
651.300	71.457	0.099
651.400	81.596	0.099
651.500	83.748	0.099
651.600	78.070	0.099
651.700	74.043	0.099
651.800	59.391	0.099
651.900	72.702	0.099
652.000	64.528	0.099
652.100	77.036	0.099
652.200	66.017	0.099
652.300	69.064	0.099
652.400	80.661	0.099
652.500	72.264	0.099
652.600	68.653	0.099
652.700	68.966	0.099
652.800	75.067	0.099
652.900	65.453	0.099
653.000	68.572	0.099
653.100	67.429	0.099
653.200	82.508	0.099
653.300	66.975	0.099
653.400	83.454	0.099
653.500	75.595	0.099
653.600	56.295	0.099
653.700	65.977	0.099
653.800	64.237	0.099
653.900	68.062	0.099
654.000	81.772	0.099
654.100	67.510	0.099
654.200	69.395	0.099
654.300	71.445	0.099
654.400	61.338	0.099
654.500	72.369	0.099
654.600	73.815	0.099
654.700	76.312	0.099
654.800	64.418	0.099
654.900	71.301	0.099
655.000	65.065	0.099
655.100	67.410	0.099
655.200	68.273	0.099
655.300	65.574	0.099
655.400	72.515	0.099
655.500	63.803	0.099
655.600	74.506	0.099
655.700	80.638	0.099
655.800	73.885	0.099
655.900	84.535	0.099
656.000	77.299	0.099
656.100	57.383	0.099
656.200	51.993	0.099
656.300	57.760	0.099
656.400	58.623	0.099
656.500	64.977	0.099
656.600	69.028	0.099
656.700	57.323	0.099
656.800	79.303	0.099
656.900	70.761	0.099
657.000	67.541	0.099
657.100	73.229	0.099
657.200	64.490	0.099
657.300	48.586	0.099
657.400	53.382	0.099
657.500	62.896	0.099
657.600	73.421	0.099
657.700	70.781	0.099
657.800	63.512	0.099
657.900	64.470	0.099
658.000	65.841	0.099
658.100	64.850	0.099
658.200	75.774	0.099
658.300	63.946	0.099
658.400	62.022	0.099
658.500	80.420	0.099
658.600	63.051	0.099
658.700	80.922	0.099
658.800	69.788	0.099
658.900	58.200	0.099
659.000	55.996	0.099
659.100	64.413	0.099
659.200	63.576	0.099
659.300	64.720	0.099
659.400	62.080	0.099
659.500	69.003	0.099
659.600	62.937	0.099
659.700	66.993	0.099
659.800	69.412	0.099
659.900	67.383	0.099
660.000	65.960	0.099
660.100	67.833	0.099
660.200	67.715	0.099
660.300	66.449	0.099
660.400	71.954	0.099
660.500	41.413	0.099
660.600	69.903	0.099
660.700	76.028	0.099
660.800	65.097	0.099
660.900	68.601	0.099
661.000	70.996	0.099
661.100	71.043	0.099
661.200	65.617	0.099
661.300	52.998	0.099
661.400	50.070	0.099
661.500	67.027	0.099
661.600	70.855	0.099
661.700	60.609	0.099
661.800	65.112	0.099
661.900	64.019	0.099
662.000	62.583	0.099
662.100	58.222	0.099
662.200	51.995	0.099
662.300	65.378	0.099
662.400	77.322	0.100
662.500	85.470	0.100
662.600	69.452	0.100
662.700	55.289	0.100
662.800	73.859	0.100
662.900	56.899	0.100
663.000	77.010	0.100
663.100	68.470	0.100
663.200	68.936	0.100
663.300	53.502	0.100
663.400	72.158	0.100
663.500	72.886	0.100
663.600	58.643	0.100
663.700	71.330	0.100
663.800	68.591	0.100
663.900	57.270	0.100
664.000	67.213	0.100
664.100	75.492	0.100
664.200	59.278	0.100
664.300	70.298	0.100
664.400	73.948	0.100
664.500	78.886	0.100
664.600	66.185	0.100
664.700	74.810	0.100
664.800	71.189	0.100
664.900	60.711	0.100
665.000	53.925	0.100
665.100	65.939	0.100
665.200	58.107	0.100
665.300	83.629	0.100
665.400	67.965	0.100
665.500	75.231	0.100
665.600	62.693	0.100
665.700	77.958	0.100
665.800	66.846	0.100
665.900	64.679	0.100
666.000	66.188	0.100
666.100	66.395	0.100
666.200	58.001	0.100
666.300	67.970	0.100
666.400	58.565	0.100
666.500	75.857	0.100
666.600	82.905	0.100
666.700	75.782	0.100
666.800	50.818	0.100
666.900	61.187	0.100
667.000	64.337	0.100
667.100	68.949	0.100
667.200	90.004	0.100
667.300	70.002	0.100
667.400	58.216	0.100
667.500	49.815	0.100
667.600	76.812	0.100
667.700	50.269	0.100
667.800	63.563	0.100
667.900	67.944	0.100
668.000	65.160	0.100
668.100	74.991	0.100
668.200	71.502	0.100
668.300	60.475	0.100
668.400	71.111	0.100
668.500	74.820	0.100
668.600	69.449	0.100
668.700	66.167	0.100
668.800	64.928	0.100
668.900	71.816	0.100
669.000	68.719	0.100
669.100	73.387	0.100
669.200	64.315	0.100
669.300	74.102	0.100
669.400	64.231	0.100
669.500	44.689	0.100
669.600	51.437	0.100
669.700	76.585	0.100
669.800	65.134	0.100
669.900	74.190	0.100
670.000	69.884	0.100
670.100	59.877	0.100
670.200	89.333	0.100
670.300	46.869	0.100
670.400	81.090	0.100
670.500	44.669	0.100
670.600	66.146	0.100
670.700	78.009	0.100
670.800	61.921	0.100
670.900	57.937	0.100
671.000	60.676	0.100
671.100	70.519	0.100
671.200	56.028	0.100
671.300	70.306	0.100
671.400	51.970	0.100
671.500	53.056	0.100
671.600	96.472	0.100
671.700	74.853	0.100
671.800	62.825	0.100
671.900	51.878	0.100
672.000	64.846	0.100
672.100	68.163	0.100
672.200	70.774	0.100
672.300	73.632	0.100
672.400	52.935	0.100
672.500	51.724	0.100
672.600	68.295	0.100
672.700	60.025	0.100
672.800	74.798	0.100
672.900	63.544	0.100
673.000	55.524	0.100
673.100	50.434	0.100
673.200	72.958	0.100
673.300	67.400	0.100
673.400	59.933	0.100
673.500	69.239	0.100
673.600	64.117	0.100
673.700	71.316	0.100
673.800	62.023	0.100
673.900	55.539	0.100
674.000	61.600	0.100
674.100	58.141	0.100
674.200	48.475	0.100
674.300	69.829	0.100
674.400	59.301	0.100
674.500	71.454	0.100
674.600	58.577	0.100
674.700	73.131	0.100
674.800	77.885	0.100
674.900	70.744	0.100
675.000	76.953	0.100
675.100	61.872	0.100
675.200	56.270	0.100
675.300	52.755	0.100
675.400	66.877	0.100
675.500	56.513	0.100
675.600	57.601	0.100
675.700	72.891	0.100
675.800	67.774	0.100
675.900	66.636	0.100
676.000	58.318	0.100
676.100	59.503	0.100
676.200	59.416	0.100
676.300	60.383	0.100
676.400	72.860	0.100
676.500	49.197	0.100
676.600	57.675	0.100
676.700	64.850	0.100
676.800	59.482	0.100
676.900	59.353	0.100
677.000	36.098	0.100
677.100	71.840	0.100
677.200	57.255	0.100
677.300	61.594	0.100
677.400	60.613	0.100
677.500	53.125	0.100
677.600	45.554	0.100
677.700	67.157	0.100
677.800	52.639	0.100
677.900	50.763	0.100
678.000	71.500	0.100
678.100	66.086	0.100
678.200	51.745	0.100
678.300	65.903	0.100
678.400	57.875	0.100
678.500	56.192	0.100
678.600	66.707	0.100
678.700	62.143	0.100
678.800	68.638	0.100
678.900	50.900	0.100
679.000	67.096	0.100
679.100	61.944	0.100
679.200	62.413	0.100
679.300	61.574	0.100
679.400	61.950	0.100
679.500	60.809	0.100
679.600	86.439	0.100
679.700	56.276	0.100
679.800	65.952	0.100
679.900	71.534	0.100
680.000	60.880	0.100
680.100	45.917	0.100
680.200	58.607	0.100
680.300	60.351	0.100
680.400	65.569	0.100
680.500	56.264	0.100
680.600	59.902	0.100
680.700	51.233	0.100
680.800	72.639	0.100
680.900	58.211	0.100
681.000	66.740	0.100
681.100	61.312	0.100
681.200	45.986	0.100
681.300	64.889	0.100
681.400	67.786	0.100
681.500	71.477	0.100
681.600	57.371	0.100
681.700	53.494	0.100
681.800	62.847	0.100
681.900	68.706	0.100
682.000	62.364	0.100
682.100	63.871	0.100
682.200	48.647	0.100
682.300	51.595	0.100
682.400	62.158	0.100
682.500	64.731	0.100
682.600	77.811	0.100
682.700	57.756	0.100
682.800	55.694	0.100
682.900	52.798	0.100
683.000	42.983	0.100
683.100	67.656	0.100
683.200	70.404	0.100
683.300	65.073	0.100
683.400	57.894	0.100
683.500	73.770	0.100
683.600	58.935	0.100
683.700	72.402	0.100
683.800	54.484	0.100
683.900	42.537	0.100
684.000	51.043	0.100
684.100	66.106	0.100
684.200	57.557	0.100
684.300	57.722	0.100
684.400	62.831	0.100
684.500	58.932	0.100
684.600	64.723	0.100
684.700	61.125	0.100
684.800	65.669	0.100
684.900	42.921	0.100
685.000	46.059	0.100
685.100	67.249	0.100
685.200	59.910	0.100
685.300	70.846	0.100
685.400	49.338	0.100
685.500	64.470	0.100
685.600	62.945	0.100
685.700	58.792	0.100
685.800	60.570	0.100
685.900	57.547	0.100
686.000	46.689	0.100
686.100	51.874	0.100
686.200	67.619	0.100
686.300	49.236	0.100
686.400	62.207	0.100
686.500	57.071	0.100
686.600	63.360	0.100
686.700	57.619	0.100
686.800	51.601	0.100
686.900	60.940	0.100
687.000	63.388	0.100
687.100	74.617	0.100
687.200	56.890	0.100
687.300	49.395	0.100
687.400	51.385	0.100
687.500	56.689	0.100
687.600	55.295	0.100
687.700	52.783	0.100
687.800	39.500	0.100
687.900	49.256	0.100
688.000	47.661	0.100
688.100	53.664	0.100
688.200	50.681	0.100
688.300	45.524	0.100
688.400	58.751	0.100
688.500	61.400	0.100
688.600	58.889	0.100
688.700	57.186	0.100
688.800	46.898	0.100
688.900	46.996	0.100
689.000	65.270	0.100
689.100	48.780	0.100
689.200	54.094	0.100
689.300	52.987	0.100
689.400	68.591	0.100
689.500	68.284	0.100
689.600	61.534	0.100
689.700	57.126	0.100
689.800	41.252	0.100
689.900	60.147	0.100
690.000	37.932	0.100
690.100	40.530	0.100
690.200	51.774	0.100
690.300	41.723	0.100
690.400	25.464	0.100
690.500	8.746	0.100
690.600	23.990	0.100
690.700	-3.642	0.100
690.800	12.447	0.100
690.900	2.525	0.100
691.000	-7.195	0.100
691.100	3.241	0.100
691.200	-18.490	0.100
691.300	-7.715	0.100
691.400	-11.351	0.100
691.500	-15.183	0.100
691.600	-16.477	0.100
691.700	-13.963	0.100
691.800	-20.345	0.100
691.900	-14.985	0.100
692.000	-18.257	0.100
692.100	-0.481	0.100
692.200	-14.044	0.100
692.300	-30.992	0.100
692.400	-23.830	0.100
692.500	-17.674	0.100
692.600	-13.459	0.100
692.700	-14.900	0.100
692.800	-18.809	0.100
692.900	-12.810	0.100
693.000	-27.746	0.100
693.100	-33.897	0.100
693.200	-20.490	0.100
693.300	-22.848	0.100
693.400	-20.722	0.100
693.500	-26.601	0.100
693.600	-22.954	0.100
693.700	-20.421	0.100
693.800	-19.676	0.100
693.900	-17.846	0.100
694.000	-17.941	0.100
694.100	-31.644	0.100
694.200	-24.698	0.100
694.300	-23.922	0.100
694.400	-12.954	0.100
694.500	-16.124	0.100
694.600	-23.007	0.100
694.700	-10.863	0.100
694.800	-29.809	0.100
694.900	-31.314	0.100
695.000	-29.735	0.100
695.100	-13.123	0.100
695.200	-25.957	0.100
695.300	-22.354	0.100
695.400	-48.103	0.100
695.500	-40.983	0.100
695.600	-36.030	0.100
695.700	-24.531	0.100
695.800	-29.323	0.100
695.900	-40.995	0.100
696.000	-44.355	0.100
696.100	-42.528	0.100
696.200	-36.618	0.100
696.300	-55.754	0.100
696.400	-42.221	0.100
696.500	-26.397	0.100
696.600	-28.592	0.100
696.700	-37.406	0.100
696.800	-44.634	0.100
696.900	-43.339	0.100
697.000	-39.591	0.100
697.100	-26.279	0.100
697.200	-34.615	0.100
697.300	-46.704	0.100
697.400	-54.289	0.100
697.500	-34.866	0.100
697.600	-32.616	0.100
697.700	-36.724	0.100
697.800	-41.953	0.100
697.900	-40.274	0.100
698.000	-41.380	0.100
698.100	-32.343	0.100
698.200	-30.951	0.100
698.300	-28.118	0.100
698.400	-44.941	0.100
698.500	-37.920	0.100
698.600	-39.732	0.100
698.700	-39.913	0.100
698.800	-35.892	0.100
698.900	-33.011	0.100
699.000	-42.332	0.100
699.100	-38.246	0.100
699.200	-24.529	0.100
699.300	-28.429	0.100
699.400	-46.402	0.100
699.500	-25.687	0.100
699.600	-41.213	0.100
699.700	-52.400	0.100
699.800	-21.436	0.100
699.900	-36.782	0.100
700.000	-46.696	0.100
700.100	-35.197	0.100
700.200	-30.142	0.100
700.300	-33.612	0.100
700.400	-35.375	0.100
700.500	-47.735	0.100
700.600	-44.110	0.100
700.700	-39.085	0.100
700.800	-21.994	0.100
700.900	-22.842	0.100
701.000	-48.505	0.100
701.100	-15.936	0.100
701.200	-34.244	0.100
701.300	-40.051	0.100
701.400	-29.548	0.100
701.500	-30.391	0.100
701.600	-23.886	0.100
701.700	-33.384	0.100
701.800	-49.124	0.100
701.900	-32.962	0.100
702.000	-41.774	0.100
702.100	-21.008	0.100
702.200	-24.450	0.100
702.300	-25.052	0.100
702.400	-51.388	0.100
702.500	-43.667	0.100
702.600	-17.542	0.100
702.700	-27.370	0.100
702.800	-33.272	0.100
702.900	-30.160	0.100
703.000	-23.907	0.100
703.100	-29.311	0.100
703.200	-35.022	0.100
703.300	-54.653	0.100
703.400	-36.706	0.100
703.500	-47.973	0.100
703.600	-30.888	0.100
703.700	-33.333	0.100
703.800	-25.146	0.100
703.900	-45.259	0.100
704.000	-38.469	0.100
704.100	-27.395	0.100
704.200	-26.907	0.100
704.300	-30.480	0.100
704.400	-36.188	0.100
704.500	-32.968	0.100
704.600	-40.313	0.100
704.700	-39.034	0.100
704.800	-31.981	0.100
704.900	-21.816	0.100
705.000	-31.359	0.100
705.100	-34.475	0.100
705.200	-35.554	0.100
705.300	-31.405	0.100
705.400	-43.411	0.100
705.500	-37.705	0.100
705.600	-39.362	0.100
705.700	-41.711	0.100
705.800	-18.779	0.100
705.900	-25.463	0.100
706.000	-49.342	0.100
706.100	-34.843	0.100
706.200	-35.305	0.100
706.300	-30.903	0.100
706.400	-26.170	0.100
706.500	-39.699	0.100
706.600	-38.884	0.100
706.700	-35.406	0.100
706.800	-39.379	0.100
706.900	-40.681	0.100
707.000	-35.783	0.100
707.100	-27.422	0.100
707.200	-23.082	0.100
707.300	-26.364	0.100
707.400	-36.756	0.100
707.500	-50.078	0.100
707.600	-44.427	0.100
707.700	-24.787	0.100
707.800	-36.201	0.100
707.900	-26.038	0.100
708.000	-33.201	0.100
708.100	-29.852	0.100
708.200	-35.758	0.100
708.300	-48.233	0.100
708.400	-35.587	0.100
708.500	-34.606	0.100
708.600	-34.788	0.100
708.700	-20.850	0.100
708.800	-47.001	0.100
708.900	-32.524	0.100
709.000	-30.220	0.100
709.100	-30.042	0.100
709.200	-35.205	0.100
709.300	-44.717	0.100
709.400	-37.147	0.100
709.500	-35.588	0.100
709.600	-42.004	0.100
709.700	-36.663	0.100
709.800	-32.792	0.100
709.900	-22.037	0.100
710.000	-42.733	0.100
710.100	-24.082	0.100
710.200	-21.398	0.100
710.300	-31.989	0.100
710.400	-35.735	0.100
710.500	-34.590	0.100
710.600	-41.965	0.100
710.700	-39.250	0.100
710.800	-32.945	0.100
710.900	-29.574	0.100
711.000	-43.544	0.100
711.100	-22.964	0.100
711.200	-31.006	0.100
711.300	-29.329	0.100
711.400	-32.715	0.100
711.500	-24.362	0.100
711.600	-29.119	0.100
711.700	-41.436	0.100
711.800	-37.835	0.100
711.900	-47.898	0.100
712.000	-37.816	0.100
712.100	-18.447	0.100
712.200	-33.808	0.100
712.300	-34.704	0.100
712.400	-34.632	0.100
712.500	-33.919	0.100
712.600	-30.788	0.100
712.700	-26.254	0.100
712.800	-27.382	0.100
712.900	-36.451	0.100
713.000	-37.198	0.100
713.100	-32.899	0.100
713.200	-35.332	0.100
713.300	-41.281	0.100
713.400	-39.598	0.100
713.500	-57.670	0.100
713.600	-15.050	0.100
713.700	-37.307	0.100
713.800	-35.705	0.100
713.900	-38.829	0.100
714.000	-38.289	0.100
714.100	-31.000	0.100
714.200	-38.213	0.100
714.300	-31.219	0.100
714.400	-37.569	0.100
714.500	-51.146	0.100
714.600	-12.103	0.100
714.700	-41.337	0.100
714.800	-35.226	0.100
714.900	-28.343	0.100
715.000	-39.054	0.100
715.100	-30.272	0.100
715.200	-35.764	0.100
715.300	-51.417	0.100
715.400	-35.951	0.100
715.500	-28.768	0.100
715.600	-44.659	0.100
715.700	-18.821	0.100
715.800	-41.150	0.100
715.900	-25.538	0.100
716.000	-33.109	0.100
716.100	-29.246	0.100
716.200	-23.256	0.100
716.300	-40.357	0.100
716.400	-45.313	0.100
716.500	-46.636	0.100
716.600	-36.502	0.100
716.700	-26.967	0.100
716.800	-31.633	0.100
716.900	-39.485	0.100
717.000	-26.916	0.100
717.100	-48.221	0.100
717.200	-14.709	0.100
717.300	-31.481	0.100
717.400	-33.929	0.100
717.500	-27.448	0.100
717.600	-34.101	0.100
717.700	-32.665	0.100
717.800	-28.555	0.100
717.900	-50.602	0.100
718.000	-27.925	0.100
718.100	-42.427	0.100
718.200	-25.110	0.100
718.300	-26.459	0.100
718.400	-31.664	0.100
718.500	-42.134	0.100
718.600	-34.210	0.100
718.700	-40.408	0.100
718.800	-48.712	0.100
718.900	-38.282	0.100
719.000	-14.426	0.100
719.100	-33.283	0.100
719.200	-36.390	0.100
719.300	-22.385	0.100
719.400	-34.377	0.100
719.500	-35.699	0.100
719.600	-42.828	0.100
719.700	-36.683	0.100
719.800	-35.591	0.100
719.900	-41.140	0.100
720.000	-31.166	0.100
720.100	-44.970	0.100
720.200	-20.354	0.100
720.300	-29.053	0.100
720.400	-42.158	0.100
720.500	-39.407	0.100
720.600	-24.775	0.100
720.700	-45.011	0.100
720.800	-42.154	0.100
720.900	-24.698	0.100
721.000	-44.280	0.100
721.100	-42.818	0.100
721.200	-34.497	0.100
721.300	-36.177	0.100
721.400	-38.249	0.100
721.500	-33.922	0.100
721.600	-41.407	0.100
721.700	-42.281	0.100
721.800	-23.010	0.100
721.900	-29.329	0.100
722.000	-33.552	0.100
722.100	-40.452	0.100
722.200	-44.979	0.100
722.300	-37.697	0.100
722.400	-24.289	0.100
722.500	-37.731	0.100
722.600	-33.482	0.100
722.700	-32.073	0.100
722.800	-34.245	0.100
722.900	-28.166	0.100
723.000	-37.906	0.100
723.100	-33.442	0.100
723.200	-34.196	0.100
723.300	-20.502	0.100
723.400	-24.738	0.100
723.500	-48.331	0.100
723.600	-37.514	0.100
723.700	-36.257	0.100
723.800	-26.530	0.100
723.900	-39.796	0.100
724.000	-41.522	0.100
724.100	-35.174	0.100
724.200	-34.173	0.100
724.300	-34.166	0.100
724.400	-31.481	0.100
724.500	-49.734	0.100
724.600	-40.311	0.100
724.700	-24.378	0.100
724.800	-31.302	0.100
724.900	-42.845	0.100
725.000	-47.412	0.100
725.100	-30.365	0.100
725.200	-24.792	0.100
725.300	-38.922	0.100
725.400	-33.747	0.100
725.500	-43.405	0.100
725.600	-36.853	0.100
725.700	-38.024	0.100
725.800	-39.581	0.100
725.900	-25.946	0.100
726.000	-33.994	0.100
726.100	-34.051	0.100
726.200	-37.448	0.100
726.300	-30.220	0.100
726.400	-31.130	0.100
726.500	-33.143	0.100
726.600	-39.637	0.100
726.700	-32.470	0.100
726.800	-47.168	0.100
726.900	-33.057	0.100
727.000	-45.770	0.100
727.100	-42.166	0.100
727.200	-24.870	0.100
727.300	-40.907	0.100
727.400	-32.144	0.100
727.500	-36.486	0.100
727.600	-40.242	0.100
727.700	-26.697	0.100
727.800	-30.623	0.100
727.900	-47.623	0.100
728.000	-44.214	0.100
728.100	-47.887	0.100
728.200	-31.035	0.100
728.300	-34.998	0.100
728.400	-28.684	0.100
728.500	-37.762	0.100
728.600	-24.831	0.100
728.700	-30.241	0.100
728.800	-32.029	0.100
728.900	-32.004	0.100
729.000	-46.241	0.100
729.100	-49.656	0.100
729.200	-38.534	0.100
729.300	-47.872	0.100
729.400	-55.648	0.100
729.500	-27.543	0.100
729.600	-22.503	0.100
729.700	-38.072	0.100
729.800	-46.368	0.100
729.900	-26.749	0.100
730.000	-16.701	0.100
730.100	-34.498	0.100
730.200	-31.481	0.100
730.300	-33.776	0.100
730.400	-61.378	0.100
730.500	-46.845	0.100
730.600	-29.896	0.100
730.700	-46.783	0.100
730.800	-32.430	0.100
730.900	-27.425	0.100
731.000	-23.579	0.100
731.100	-47.346	0.100
731.200	-39.782	0.100
731.300	-35.536	0.100
731.400	-34.072	0.100
731.500	-31.901	0.100
731.600	-29.394	0.100
731.700	-25.517	0.100
731.800	-50.916	0.100
731.900	-34.509	0.100
732.000	-35.459	0.100
732.100	-32.059	0.100
732.200	-22.183	0.100
732.300	-35.729	0.100
732.400	-48.422	0.100
732.500	-33.158	0.100
732.600	-43.909	0.100
732.700	-39.028	0.100
732.800	-36.749	0.100
732.900	-37.000	0.100
733.000	-43.377	0.100
733.100	-32.665	0.100
733.200	-40.448	0.100
733.300	-33.339	0.100
733.400	-34.648	0.100
733.500	-23.208	0.100
733.600	-23.421	0.100
733.700	-28.662	0.100
733.800	-41.419	0.100
733.900	-41.959	0.100
734.000	-50.734	0.100
734.100	-34.710	0.100
734.200	-38.271	0.100
734.300	-28.655	0.100
734.400	-37.216	0.100
734.500	-30.321	0.100
734.600	-30.201	0.100
734.700	-38.300	0.100
734.800	-39.821	0.100
734.900	-27.327	0.100
735.000	-50.441	0.100
735.100	-26.352	0.100
735.200	-13.434	0.100
735.300	-23.115	0.100
735.400	-33.890	0.100
735.500	-35.295	0.100
735.600	-30.937	0.100
735.700	-37.935	0.100
735.800	-32.938	0.100
735.900	-28.960	0.100
736.000	-31.668	0.100
736.100	-39.681	0.100
736.200	-33.129	0.100
736.300	-44.157	0.100
736.400	-41.622	0.100
736.500	-44.846	0.100
736.600	-40.737	0.100
736.700	-37.464	0.100
736.800	-34.297	0.100
736.900	-24.986	0.100
737.000	-42.997	0.100
737.100	-41.795	0.100
737.200	-42.818	0.100
737.300	-20.585	0.100
737.400	-42.013	0.100
737.500	-30.542	0.100
737.600	-33.318	0.100
737.700	-40.518	0.100
737.800	-29.260	0.100
737.900	-39.227	0.100
738.000	-30.258	0.100
738.100	-46.354	0.100
738.200	-30.254	0.100
738.300	-34.598	0.100
738.400	-31.627	0.100
738.500	-34.702	0.100
738.600	-45.089	0.100
738.700	-16.564	0.100
738.800	-25.633	0.100
738.900	-35.600	0.100
739.000	-39.450	0.100
739.100	-35.090	0.100
739.200	-35.426	0.100
739.300	-29.093	0.100
739.400	-18.198	0.100
739.500	-42.425	0.100
739.600	-30.821	0.100
739.700	-52.119	0.100
739.800	-32.335	0.100
739.900	-28.098	0.100
740.000	-34.138	0.100
740.100	-52.283	0.100
740.200	-37.725	0.100
740.300	-33.549	0.100
740.400	-36.322	0.100
740.500	-29.349	0.100
740.600	-40.645	0.100
740.700	-28.511	0.100
740.800	-24.557	0.100
740.900	-22.747	0.100
741.000	-33.605	0.100
741.100	-37.100	0.100
741.200	-30.122	0.100
741.300	-27.430	0.100
741.400	-37.081	0.100
741.500	-26.110	0.100
741.600	-30.126	0.100
741.700	-27.813	0.100
741.800	-37.938	0.100
741.900	-30.575	0.100
742.000	-39.891	0.100
742.100	-34.943	0.100
742.200	-29.800	0.100
742.300	-32.093	0.100
742.400	-26.978	0.100
742.500	-26.481	0.100
742.600	-26.663	0.100
742.700	-44.070	0.100
742.800	-44.934	0.100
742.900	-34.437	0.100
743.000	-25.793	0.100
743.100	-17.529	0.100
743.200	-32.553	0.100
743.300	-41.361	0.100
743.400	-33.149	0.100
743.500	-30.585	0.100
743.600	-32.732	0.100
743.700	-30.054	0.100
743.800	-36.513	0.100
743.900	-26.743	0.100
744.000	-26.082	0.100
744.100	-45.161	0.100
744.200	-34.742	0.100
744.300	-32.476	0.100
744.400	-25.606	0.100
744.500	-42.931	0.100
744.600	-42.611	0.100
744.700	-55.472	0.100
744.800	-36.951	0.100
744.900	-26.401	0.100
745.000	-21.617	0.100
745.100	-39.834	0.100
745.200	-38.413	0.100
745.300	-30.345	0.100
745.400	-29.433	0.100
745.500	-44.665	0.100
745.600	-38.524	0.100
745.700	-23.368	0.100
745.800	-25.550	0.100
745.900	-41.464	0.100
746.000	-42.880	0.100
746.100	-35.255	0.100
746.200	-14.863	0.100
746.300	-15.128	0.100
746.400	-17.550	0.100
746.500	-26.148	0.100
746.600	-34.866	0.100
746.700	-32.754	0.100
746.800	-36.785	0.100
746.900	-41.281	0.100
747.000	-41.478	0.100
747.100	-22.143	0.100
747.200	-25.675	0.100
747.300	-24.344	0.100
747.400	-23.927	0.100
747.500	-36.407	0.100
747.600	-29.996	0.100
747.700	-34.015	0.100
747.800	-32.800	0.100
747.900	-35.508	0.100
748.000	-35.955	0.100
748.100	-21.939	0.100
748.200	-28.018	0.100
748.300	-29.197	0.100
748.400	-26.544	0.100
748.500	-24.617	0.100
748.600	-36.206	0.100
748.700	-27.508	0.100
748.800	-25.320	0.100
748.900	-35.084	0.100
749.000	-30.370	0.100
749.100	-23.844	0.100
749.200	-34.343	0.100
749.300	-23.131	0.100
749.400	-38.634	0.100
749.500	-24.683	0.100
749.600	-37.717	0.100
749.700	-26.663	0.100
749.800	-40.110	0.100
749.900	-26.000	0.100
750.000	-29.406	0.100
750.100	-18.205	0.100
750.200	-35.757	0.100
750.300	-27.309	0.100
750.400	-34.245	0.100
750.500	-34.599	0.100
750.600	-25.734	0.100
750.700	-24.687	0.100
750.800	-36.562	0.100
750.900	-34.750	0.100
751.000	-27.316	0.100
751.100	-16.822	0.100
751.200	-23.288	0.100
751.300	-26.498	0.100
751.400	-31.855	0.100
751.500	-31.668	0.100
751.600	-28.653	0.100
751.700	-32.458	0.100
751.800	-22.978	0.100
751.900	-28.431	0.100
752.000	-31.909	0.100
752.100	-33.188	0.100
752.200	-27.884	0.100
752.300	-27.270	0.100
752.400	-33.497	0.100
752.500	-23.026	0.100
752.600	-36.868	0.100
752.700	-27.411	0.100
752.800	-48.374	0.100
752.900	-10.005	0.100
753.000	-24.505	0.100
753.100	-37.857	0.100
753.200	-26.674	0.100
753.300	-25.616	0.100
753.400	-17.289	0.100
753.500	-31.563	0.100
753.600	-26.863	0.100
753.700	-35.280	0.100
753.800	-33.871	0.100
753.900	-27.548	0.100
754.000	-32.604	0.100
754.100	-29.588	0.100
754.200	-11.952	0.100
754.300	-24.109	0.100
754.400	-25.253	0.100
754.500	-29.337	0.100
754.600	-20.263	0.100
754.700	-29.096	0.100
754.800	-36.039	0.100
754.900	-29.731	0.100
755.000	-46.550	0.100
755.100	-26.285	0.100
755.200	-27.632	0.100
755.300	-10.161	0.100
755.400	-10.515	0.100
755.500	-23.814	0.100
755.600	-34.943	0.100
755.700	-29.663	0.100
755.800	-15.447	0.100
755.900	-23.968	0.100
756.000	-32.870	0.100
756.100	-19.943	0.100
756.200	-15.577	0.100
756.300	-27.614	0.100
756.400	-36.019	0.100
756.500	-25.008	0.100
756.600	-35.944	0.100
756.700	-39.335	0.100
756.800	-16.831	0.100
756.900	-15.876	0.100
757.000	-22.915	0.100
757.100	-43.762	0.100
757.200	-29.055	0.100
757.300	-12.885	0.100
757.400	-34.799	0.100
757.500	-33.211	0.100
757.600	-30.770	0.100
757.700	-30.148	0.100
757.800	-30.448	0.100
757.900	-35.752	0.100
758.000	-22.567	0.100
758.100	-30.255	0.100
758.200	-12.810	0.100
758.300	-34.724	0.100
758.400	-29.036	0.100
758.500	-22.877	0.100
758.600	-18.471	0.100
758.700	-31.181	0.100
758.800	-23.889	0.100
758.900	-15.634	0.100
759.000	-34.149	0.100
759.100	-30.457	0.100
759.200	-24.864	0.100
759.300	-29.314	0.100
759.400	-33.761	0.100
759.500	-22.613	0.100
759.600	-14.841	0.100
759.700	-26.452	0.100
759.800	-21.146	0.100
759.900	-21.591	0.100
760.000	-23.282	0.100
760.100	-21.825	0.100
760.200	-30.968	0.100
760.300	-30.873	0.100
760.400	-13.393	0.100
760.500	-31.115	0.100
760.600	-48.450	0.100
760.700	-28.015	0.100
760.800	-20.066	0.100
760.900	-22.967	0.100
761.000	-14.409	0.100
761.100	-13.511	0.100
761.200	-33.598	0.100
761.300	-24.853	0.100
761.400	-31.745	0.100
761.500	-37.277	0.100
761.600	-27.323	0.100
761.700	-12.856	0.100
761.800	-22.445	0.100
761.900	-27.143	0.100
762.000	-25.917	0.100
762.100	-23.394	0.100
762.200	-30.847	0.100
762.300	-27.890	0.100
762.400	-25.423	0.100
762.500	-32.821	0.100
762.600	-34.656	0.100
762.700	-16.739	0.100
762.800	-26.814	0.100
762.900	-22.043	0.100
763.000	-24.779	0.100
763.100	-13.183	0.100
763.200	-21.744	0.100
763.300	-26.234	0.100
763.400	-34.816	0.100
763.500	-23.699	0.100
763.600	-13.078	0.100
763.700	-28.661	0.100
763.800	-20.777	0.100
763.900	-31.164	0.100
764.000	-36.358	0.100
764.100	-27.951	0.100
764.200	-14.084	0.100
764.300	-28.167	0.100
764.400	-12.999	0.100
764.500	-25.802	0.100
764.600	-8.731	0.100
764.700	-26.193	0.100
764.800	-26.711	0.100
764.900	-28.501	0.100
765.000	-19.750	0.100
765.100	-22.990	0.100
765.200	-15.300	0.100
765.300	-34.005	0.100
765.400	-21.316	0.100
765.500	-10.572	0.100
765.600	-20.188	0.100
765.700	-25.495	0.100
765.800	-31.319	0.100
765.900	-21.384	0.100
766.000	-23.892	0.100
766.100	-8.742	0.100
766.200	-30.926	0.100
766.300	-19.123	0.100
766.400	-20.732	0.100
766.500	-6.306	0.100
766.600	-22.633	0.100
766.700	-16.144	0.100
766.800	-37.120	0.100
766.900	-12.954	0.100
767.000	-14.740	0.100
767.100	-30.112	0.100
767.200	-30.658	0.100
767.300	-13.528	0.100
767.400	-19.711	0.100
767.500	-16.719	0.100
767.600	-33.296	0.100
767.700	-15.646	0.100
767.800	-25.135	0.100
767.900	-21.648	0.100
768.000	-30.467	0.100
768.100	-24.160	0.100
768.200	-23.279	0.100
768.300	-15.220	0.100
768.400	-20.181	0.100
768.500	-31.607	0.100
768.600	-1.779	0.100
768.700	-20.228	0.100
768.800	-39.367	0.100
768.900	-32.200	0.100
769.000	-11.835	0.100
769.100	-17.132	0.100
769.200	-17.521	0.100
769.300	-23.691	0.100
769.400	-14.869	0.100
769.500	-36.207	0.100
769.600	-20.489	0.100
769.700	-23.449	0.100
769.800	-23.053	0.100
769.900	-23.490	0.100
770.000	-18.264	0.100
770.100	-25.748	0.100
770.200	-18.513	0.100
770.300	-21.215	0.100
770.400	-23.216	0.100
770.500	-24.067	0.100
770.600	-18.531	0.100
770.700	-19.448	0.100
770.800	-16.803	0.100
770.900	-8.688	0.100
771.000	-21.553	0.100
771.100	-34.365	0.100
771.200	-18.822	0.100
771.300	-34.244	0.100
771.400	-28.244	0.100
771.500	-24.626	0.100
771.600	-12.156	0.100
771.700	-13.454	0.100
771.800	-15.105	0.100
771.900	-27.178	0.100
772.000	-6.528	0.100
772.100	-12.422	0.100
772.200	-22.088	0.100
772.300	-25.471	0.100
772.400	-16.063	0.100
772.500	-25.176	0.100
772.600	-26.553	0.100
772.700	-19.086	0.100
772.800	-31.523	0.100
772.900	-17.223	0.100
773.000	-33.574	0.100
773.100	-16.512	0.100
773.200	-31.785	0.100
773.300	-18.473	0.100
773.400	-9.729	0.100
773.500	-24.897	0.100
773.600	-30.514	0.100
773.700	-17.124	0.100
773.800	-26.236	0.100
773.900	-23.377	0.100
774.000	-20.668	0.100
774.100	-17.004	0.100
774.200	-23.671	0.100
774.300	-31.848	0.100
774.400	-18.180	0.100
774.500	-23.962	0.100
774.600	-16.869	0.100
774.700	-23.591	0.100
774.800	-15.513	0.100
774.900	-10.721	0.100
775.000	-13.840	0.100
775.100	-19.526	0.100
775.200	-28.629	0.100
775.300	-31.526	0.100
775.400	-11.484	0.100
775.500	-29.291	0.100
775.600	-34.868	0.100
775.700	-8.119	0.100
775.800	-8.904	0.100
775.900	-22.865	0.100
776.000	-8.538	0.100
776.100	-16.534	0.100
776.200	-34.012	0.100
776.300	-27.114	0.100
776.400	-26.180	0.100
776.500	-41.429	0.100
776.600	-15.850	0.100
776.700	-16.210	0.100
776.800	-24.261	0.100
776.900	-26.447	0.100
777.000	-11.377	0.100
777.100	-16.249	0.100
777.200	-24.793	0.100
777.300	-23.689	0.100
777.400	-11.190	0.100
777.500	-14.473	0.100
777.600	-29.344	0.100
777.700	-25.826	0.100
777.800	-27.332	0.100
777.900	-24.175	0.100
778.000	-14.358	0.100
778.100	-14.803	0.100
778.200	-27.698	0.100
778.300	-39.011	0.100
778.400	-26.199	0.100
778.500	-24.733	0.100
778.600	-17.335	0.100
778.700	-20.486	0.100
778.800	-12.806	0.100
778.900	-13.150	0.100
779.000	0.085	0.100
779.100	-14.892	0.100
779.200	-17.832	0.100
779.300	-11.148	0.100
779.400	-20.447	0.100
779.500	-20.604	0.100
779.600	-29.585	0.100
779.700	-19.353	0.100
779.800	-8.897	0.100
779.900	-24.927	0.100
780.000	-15.862	0.100
780.100	-10.259	0.100
780.200	-8.021	0.100
780.300	22.949	0.100
780.400	47.545	0.100
780.500	68.103	0.100
780.600	83.495	0.100
780.700	81.614	0.100
780.800	76.524	0.100
780.900	117.174	0.100
781.000	118.411	0.100
781.100	118.151	0.100
781.200	118.549	0.100
781.300	107.563	0.100
781.400	109.741	0.100
781.500	113.158	0.100
781.600	100.934	0.100
781.700	99.610	0.100
781.800	109.083	0.100
781.900	96.489	0.100
782.000	96.256	0.100
782.100	98.825	0.100
782.200	101.653	0.100
782.300	108.775	0.100
782.400	73.651	0.100
782.500	79.985	0.100
782.600	85.605	0.100
782.700	71.402	0.100
782.800	71.319	0.100
782.900	89.397	0.100
783.000	72.918	0.100
783.100	75.587	0.100
783.200	77.362	0.100
783.300	75.740	0.100
783.400	78.162	0.100
783.500	65.033	0.100
783.600	77.722	0.100
783.700	67.159	0.100
783.800	63.334	0.100
783.900	59.618	0.100
784.000	68.023	0.100
784.100	63.768	0.100
784.200	67.075	0.100
784.300	60.441	0.100
784.400	58.852	0.100
784.500	64.784	0.100
784.600	74.641	0.100
784.700	62.549	0.100
784.800	40.786	0.100
784.900	42.158	0.100
785.000	58.162	0.100
785.100	67.216	0.100
785.200	65.730	0.100
785.300	57.383	0.100
785.400	68.598	0.100
785.500	70.288	0.100
785.600	61.556	0.100
785.700	60.204	0.100
785.800	55.746	0.100
785.900	60.038	0.100
786.000	76.219	0.100
786.100	57.302	0.100
786.200	65.706	0.100
786.300	49.784	0.100
786.400	58.489	0.100
786.500	75.371	0.100
786.600	69.681	0.100
786.700	60.701	0.100
786.800	70.459	0.100
786.900	73.760	0.100
787.000	52.703	0.100
787.100	66.311	0.100
787.200	58.717	0.100
787.300	67.631	0.100
787.400	64.300	0.100
787.500	77.077	0.100
787.600	66.198	0.100
787.700	57.615	0.100
787.800	72.635	0.100
787.900	70.416	0.100
788.000	77.348	0.100
788.100	64.412	0.100
788.200	63.520	0.100
788.300	86.445	0.100
788.400	62.135	0.100
788.500	68.775	0.100
788.600	94.505	0.100
788.700	91.113	0.100
788.800	85.321	0.100
788.900	97.540	0.100
789.000	83.505	0.100
789.100	96.548	0.100
789.200	83.420	0.100
789.300	76.567	0.100
789.400	69.644	0.100
789.500	73.013	0.100
789.600	81.286	0.100
789.700	95.664	0.100
789.800	106.528	0.100
789.900	96.207	0.100
790.000	84.877	0.100
790.100	84.993	0.100
790.200	95.935	0.100
790.300	84.752	0.100
790.400	95.304	0.100
790.500	100.966	0.100
790.600	102.921	0.100
790.700	105.551	0.100
790.800	90.478	0.100
790.900	76.105	0.100
791.000	93.950	0.100
791.100	106.151	0.100
791.200	90.299	0.100
791.300	98.992	0.100
791.400	88.626	0.100
791.500	100.263	0.100
791.600	89.471	0.100
791.700	103.605	0.100
791.800	80.656	0.100
791.900	83.567	0.100
792.000	103.612	0.100
792.100	86.741	0.100
792.200	108.108	0.100
792.300	100.851	0.100
792.400	83.822	0.100
792.500	85.845	0.100
792.600	78.605	0.100
792.700	91.045	0.100
792.800	114.025	0.100
792.900	92.782	0.100
793.000	97.027	0.100
793.100	85.674	0.100
793.200	83.635	0.100
793.300	103.995	0.100
793.400	86.748	0.100
793.500	90.432	0.100
793.600	99.242	0.100
793.700	97.257	0.100
793.800	88.082	0.100
793.900	75.254	0.100
794.000	81.855	0.100
794.100	94.074	0.100
794.200	98.741	0.100
794.300	93.613	0.100
794.400	102.513	0.100
794.500	65.672	0.100
794.600	86.518	0.100
794.700	79.885	0.100
794.800	87.133	0.100
794.900	89.658	0.100
795.000	90.854	0.100
795.100	92.368	0.100
795.200	87.476	0.100
795.300	98.198	0.100
795.400	82.918	0.100
795.500	87.484	0.100
795.600	73.349	0.100
795.700	90.231	0.100
795.800	98.802	0.100
795.900	90.734	0.100
796.000	62.762	0.100
796.100	79.323	0.100
796.200	98.279	0.100
796.300	88.341	0.100
796.400	92.267	0.100
796.500	75.466	0.100
796.600	91.700	0.100
796.700	83.160	0.100
796.800	108.475	0.100
796.900	79.059	0.100
797.000	83.836	0.100
797.100	74.765	0.100
797.200	96.231	0.100
797.300	88.683	0.100
797.400	82.292	0.100
797.500	71.137	0.100
797.600	86.903	0.100
797.700	90.437	0.100
797.800	79.663	0.100
797.900	83.912	0.100
798.000	66.474	0.100
798.100	84.647	0.100
798.200	82.965	0.100
798.300	71.673	0.100
798.400	82.701	0.100
798.500	97.536	0.100
798.600	87.052	0.100
798.700	85.140	0.100
798.800	88.254	0.100
798.900	90.274	0.100
799.000	61.683	0.100
799.100	93.651	0.100
799.200	70.243	0.100
799.300	83.552	0.100
799.400	76.846	0.100
799.500	89.147	0.100
799.600	77.230	0.100
799.700	76.375	0.100
799.800	75.615	0.100
799.900	84.289	0.100
800.000	64.075	0.100
