time /s	I /nA	E /V
0.100	1.610	0.100
0.200	-3.428	0.100
0.300	3.265	0.100
0.400	-2.144	0.100
0.500	4.160	0.100
0.600	12.540	0.100
0.700	-2.562	0.100
0.800	-9.853	0.100
0.900	-13.433	0.100
1.000	4.590	0.100
1.100	-1.719	0.100
1.200	11.431	0.100
1.300	1.030	0.100
1.400	1.678	0.100
1.500	1.542	0.100
1.600	-0.110	0.100
1.700	-14.197	0.100
1.800	3.637	0.100
1.900	-5.535	0.100
2.000	0.709	0.100
2.100	0.899	0.100
2.200	11.414	0.100
2.300	-7.436	0.100
2.400	-0.899	0.100
2.500	-5.558	0.100
2.600	-7.547	0.100
2.700	-9.160	0.100
2.800	-1.966	0.100
2.900	12.734	0.100
3.000	6.103	0.100
3.100	7.521	0.100
3.200	5.135	0.100
3.300	-24.039	0.100
3.400	-5.667	0.100
3.500	14.887	0.100
3.600	1.172	0.100
3.700	1.681	0.100
3.800	-7.901	0.100
3.900	-7.428	0.100
4.000	-17.924	0.100
4.100	8.996	0.100
4.200	5.778	0.100
4.300	1.497	0.100
4.400	-4.018	0.100
4.500	4.346	0.100
4.600	-6.367	0.100
4.700	2.330	0.100
4.800	8.724	0.100
4.900	0.460	0.100
5.000	-9.921	0.100
5.100	-8.020	0.100
5.200	13.210	0.100
5.300	5.280	0.100
5.400	-5.623	0.100
5.500	6.229	0.100
5.600	11.706	0.100
5.700	-10.787	0.100
5.800	-8.439	0.100
5.900	0.432	0.100
6.000	-0.261	0.100
6.100	6.488	0.100
6.200	4.456	0.100
6.300	-25.670	0.100
6.400	-18.497	0.100
6.500	-9.593	0.100
6.600	17.678	0.100
6.700	22.505	0.100
6.800	5.076	0.100
6.900	2.085	0.100
7.000	6.703	0.100
7.100	-0.786	0.100
7.200	-0.427	0.100
7.300	-2.242	0.100
7.400	-4.108	0.100
7.500	-0.355	0.100
7.600	-4.786	0.100
7.700	3.771	0.100
7.800	1.623	0.100
7.900	1.768	0.100
8.000	4.459	0.100
8.100	9.426	0.100
8.200	4.691	0.100
8.300	-6.958	0.100
8.400	9.225	0.100
8.500	-0.067	0.100
8.600	-9.016	0.100
8.700	-2.391	0.100
8.800	4.379	0.100
8.900	-0.212	0.100
9.000	-4.060	0.100
9.100	2.338	0.100
9.200	0.039	0.100
9.300	7.994	0.100
9.400	-0.125	0.100
9.500	-7.709	0.100
9.600	-10.291	0.100
9.700	4.485	0.100
9.800	-0.907	0.100
9.900	0.877	0.100
10.000	3.344	0.100
10.100	-2.978	0.100
10.200	-10.183	0.100
10.300	-0.984	0.100
10.400	-4.505	0.100
10.500	-4.039	0.100
10.600	-14.258	0.100
10.700	-8.378	0.100
10.800	-10.119	0.100
10.900	0.904	0.100
11.000	11.643	0.100
11.100	10.368	0.100
11.200	7.793	0.100
11.300	6.095	0.100
11.400	-5.010	0.100
11.500	-8.558	0.100
11.600	-10.228	0.100
11.700	3.210	0.100
11.800	-5.269	0.100
11.900	4.616	0.100
12.000	-1.009	0.100
12.100	2.915	0.100
12.200	7.189	0.100
12.300	-16.857	0.100
12.400	10.501	0.100
12.500	-4.823	0.100
12.600	3.031	0.100
12.700	-6.240	0.100
12.800	1.593	0.100
12.900	1.219	0.100
13.000	11.926	0.100
13.100	-0.695	0.100
13.200	6.036	0.100
13.300	-0.047	0.100
13.400	-8.502	0.100
13.500	-9.256	0.100
13.600	-9.532	0.100
13.700	-10.332	0.100
13.800	-9.581	0.100
13.900	-3.846	0.100
14.000	13.170	0.100
14.100	-0.058	0.100
14.200	1.403	0.100
14.300	1.168	0.100
14.400	1.762	0.100
14.500	2.703	0.100
14.600	-8.144	0.100
14.700	0.328	0.100
14.800	11.435	0.100
14.900	-7.707	0.100
15.000	0.745	0.100
15.100	3.763	0.100
15.200	-12.651	0.100
15.300	-9.336	0.100
15.400	-2.348	0.100
15.500	-1.381	0.100
15.600	9.855	0.100
15.700	-1.007	0.100
15.800	-10.703	0.100
15.900	-13.345	0.100
16.000	-12.512	0.100
16.100	9.629	0.100
16.200	-2.368	0.100
16.300	-1.343	0.100
16.400	1.475	0.100
16.500	-3.690	0.100
16.600	5.751	0.100
16.700	2.197	0.100
16.800	13.459	0.100
16.900	0.684	0.100
17.000	-1.161	0.100
17.100	-18.617	0.100
17.200	2.634	0.100
17.300	10.630	0.100
17.400	-0.785	0.100
17.500	1.984	0.100
17.600	12.718	0.100
17.700	1.277	0.100
17.800	9.647	0.100
17.900	-4.702	0.100
18.000	-4.887	0.100
18.100	-6.115	0.100
18.200	1.579	0.100
18.300	-2.650	0.100
18.400	18.993	0.100
18.500	-5.849	0.100
18.600	-7.219	0.100
18.700	-5.601	0.100
18.800	8.089	0.100
18.900	-1.992	0.100
19.000	1.443	0.100
19.100	-7.334	0.100
19.200	-0.445	0.100
19.300	3.144	0.100
19.400	-8.188	0.100
19.500	5.969	0.100
19.600	5.667	0.100
19.700	-12.556	0.100
19.800	-5.115	0.100
19.900	-6.002	0.100
20.000	3.415	0.100
20.100	-1.008	0.100
20.200	-6.180	0.100
20.300	-1.216	0.100
20.400	4.162	0.100
20.500	-6.178	0.100
20.600	-0.129	0.100
20.700	-14.906	0.100
20.800	-12.877	0.100
20.900	16.468	0.100
21.000	10.860	0.100
21.100	6.776	0.100
21.200	-16.335	0.100
21.300	-20.833	0.100
21.400	-1.745	0.100
21.500	3.391	0.100
21.600	-4.714	0.100
21.700	-5.467	0.100
21.800	3.283	0.100
21.900	-6.264	0.100
22.000	3.032	0.100
22.100	2.405	0.100
22.200	0.318	0.100
22.300	-0.560	0.100
22.400	-1.168	0.100
22.500	-14.167	0.100
22.600	-4.356	0.100
22.700	-7.048	0.100
22.800	13.114	0.100
22.900	19.220	0.100
23.000	-5.661	0.100
23.100	-0.037	0.100
23.200	0.738	0.100
23.300	6.207	0.100
23.400	1.858	0.100
23.500	0.462	0.100
23.600	5.163	0.100
23.700	-6.540	0.100
23.800	-4.183	0.100
23.900	-3.964	0.100
24.000	-3.132	0.100
24.100	-5.531	0.100
24.200	9.513	0.100
24.300	4.026	0.100
24.400	-10.169	0.100
24.500	-0.939	0.100
24.600	-7.476	0.100
24.700	-7.473	0.100
24.800	-8.639	0.100
24.900	6.652	0.100
25.000	-8.572	0.100
25.100	7.525	0.100
25.200	6.166	0.100
25.300	-1.018	0.100
25.400	-7.946	0.100
25.500	-6.344	0.100
25.600	0.454	0.100
25.700	5.689	0.100
25.800	12.390	0.100
25.900	-1.462	0.100
26.000	6.023	0.100
26.100	-3.032	0.100
26.200	0.939	0.100
26.300	1.286	0.100
26.400	-5.872	0.100
26.500	2.261	0.100
26.600	5.338	0.100
26.700	-6.331	0.100
26.800	2.072	0.100
26.900	-8.547	0.100
27.000	-6.945	0.100
27.100	3.983	0.100
27.200	0.358	0.100
27.300	-8.406	0.100
27.400	12.031	0.100
27.500	-0.450	0.100
27.600	6.584	0.100
27.700	-2.220	0.100
27.800	-16.358	0.100
27.900	-2.983	0.100
28.000	3.423	0.100
28.100	6.553	0.100
28.200	5.087	0.100
28.300	-9.070	0.100
28.400	-11.068	0.100
28.500	-12.890	0.100
28.600	-6.674	0.100
28.700	-5.339	0.100
28.800	3.066	0.100
28.900	3.307	0.100
29.000	5.200	0.100
29.100	4.004	0.100
29.200	5.428	0.100
29.300	1.393	0.100
29.400	-4.823	0.100
29.500	-8.418	0.100
29.600	0.419	0.100
29.700	-5.500	0.100
29.800	-15.279	0.100
29.900	4.116	0.100
30.000	10.801	0.100
30.100	2.460	0.100
30.200	12.554	0.100
30.300	10.942	0.100
30.400	36.023	0.100
30.500	38.992	0.100
30.600	55.279	0.100
30.700	61.112	0.100
30.800	46.851	0.100
30.900	51.106	0.100
31.000	53.917	0.100
31.100	59.940	0.100
31.200	67.259	0.100
31.300	61.800	0.100
31.400	66.698	0.100
31.500	58.587	0.100
31.600	66.293	0.100
31.700	72.313	0.100
31.800	58.071	0.100
31.900	61.911	0.100
32.000	66.819	0.100
32.100	57.829	0.100
32.200	43.007	0.100
32.300	43.600	0.100
32.400	46.972	0.100
32.500	60.796	0.100
32.600	47.950	0.100
32.700	43.043	0.100
32.800	32.632	0.100
32.900	58.155	0.100
33.000	47.964	0.100
33.100	53.751	0.100
33.200	45.626	0.100
33.300	43.292	0.100
33.400	33.114	0.100
33.500	39.559	0.100
33.600	42.422	0.100
33.700	38.110	0.100
33.800	36.034	0.100
33.900	37.527	0.100
34.000	45.532	0.100
34.100	43.289	0.100
34.200	47.640	0.100
34.300	28.854	0.100
34.400	38.958	0.100
34.500	50.489	0.100
34.600	57.542	0.100
34.700	49.805	0.100
34.800	53.339	0.100
34.900	59.794	0.100
35.000	53.274	0.100
35.100	56.690	0.100
35.200	47.513	0.100
35.300	53.312	0.100
35.400	56.774	0.100
35.500	53.119	0.100
35.600	60.242	0.100
35.700	67.292	0.100
35.800	66.320	0.100
35.900	78.080	0.100
36.000	70.582	0.100
36.100	72.577	0.100
36.200	72.696	0.100
36.300	61.625	0.100
36.400	78.114	0.100
36.500	69.543	0.100
36.600	66.182	0.100
36.700	74.053	0.100
36.800	71.809	0.100
36.900	69.539	0.100
37.000	74.586	0.100
37.100	81.077	0.100
37.200	80.724	0.100
37.300	75.299	0.100
37.400	66.332	0.100
37.500	68.446	0.100
37.600	75.741	0.100
37.700	71.321	0.100
37.800	75.951	0.100
37.900	68.298	0.100
38.000	68.277	0.100
38.100	66.173	0.100
38.200	67.678	0.100
38.300	72.468	0.100
38.400	72.703	0.100
38.500	64.117	0.100
38.600	73.154	0.100
38.700	71.529	0.100
38.800	60.859	0.100
38.900	64.647	0.100
39.000	63.243	0.100
39.100	71.668	0.100
39.200	67.024	0.100
39.300	62.185	0.100
39.400	56.714	0.100
39.500	65.568	0.100
39.600	56.727	0.100
39.700	64.772	0.100
39.800	67.020	0.100
39.900	64.584	0.100
40.000	53.206	0.100
40.100	41.511	0.100
40.200	66.704	0.100
40.300	59.167	0.100
40.400	56.148	0.100
40.500	40.577	0.100
40.600	71.030	0.100
40.700	58.609	0.100
40.800	51.895	0.100
40.900	57.207	0.100
41.000	55.896	0.100
41.100	48.444	0.100
41.200	50.818	0.100
41.300	52.626	0.100
41.400	54.576	0.100
41.500	36.739	0.100
41.600	47.315	0.100
41.700	46.592	0.100
41.800	51.137	0.100
41.900	57.659	0.100
42.000	54.642	0.100
42.100	40.600	0.100
42.200	49.742	0.100
42.300	48.634	0.100
42.400	41.278	0.100
42.500	40.693	0.100
42.600	45.915	0.100
42.700	26.729	0.100
42.800	48.395	0.100
42.900	52.416	0.100
43.000	48.269	0.100
43.100	45.268	0.100
43.200	33.248	0.100
43.300	34.564	0.100
43.400	39.726	0.100
43.500	39.352	0.100
43.600	47.134	0.100
43.700	30.692	0.100
43.800	35.855	0.100
43.900	28.887	0.100
44.000	49.561	0.100
44.100	38.329	0.100
44.200	37.878	0.100
44.300	32.924	0.100
44.400	35.855	0.100
44.500	50.357	0.100
44.600	23.880	0.100
44.700	34.880	0.100
44.800	38.865	0.100
44.900	39.147	0.100
45.000	36.568	0.100
45.100	35.244	0.100
45.200	26.063	0.100
45.300	41.648	0.100
45.400	36.512	0.100
45.500	29.818	0.100
45.600	29.297	0.100
45.700	36.701	0.100
45.800	30.319	0.100
45.900	27.767	0.100
46.000	33.567	0.100
46.100	33.049	0.100
46.200	41.342	0.100
46.300	25.071	0.100
46.400	31.625	0.100
46.500	24.695	0.100
46.600	22.910	0.100
46.700	23.573	0.100
46.800	31.547	0.100
46.900	38.871	0.100
47.000	24.845	0.100
47.100	23.781	0.100
47.200	17.955	0.100
47.300	27.760	0.100
47.400	27.821	0.100
47.500	31.134	0.100
47.600	33.674	0.100
47.700	24.168	0.100
47.800	14.800	0.100
47.900	20.900	0.100
48.000	20.902	0.100
48.100	31.423	0.100
48.200	32.284	0.100
48.300	24.521	0.100
48.400	32.030	0.100
48.500	28.510	0.100
48.600	19.332	0.100
48.700	25.718	0.100
48.800	24.539	0.100
48.900	17.148	0.100
49.000	25.373	0.100
49.100	20.519	0.100
49.200	27.838	0.100
49.300	24.901	0.100
49.400	36.863	0.100
49.500	22.681	0.100
49.600	23.749	0.100
49.700	20.028	0.100
49.800	24.251	0.100
49.900	24.281	0.100
50.000	19.711	0.100
50.100	24.605	0.100
50.200	35.026	0.100
50.300	29.935	0.100
50.400	11.345	0.100
50.500	22.210	0.100
50.600	12.441	0.100
50.700	20.103	0.100
50.800	12.534	0.100
50.900	20.475	0.100
51.000	30.407	0.100
51.100	17.654	0.100
51.200	28.267	0.100
51.300	20.150	0.100
51.400	26.821	0.100
51.500	15.556	0.100
51.600	21.057	0.100
51.700	6.740	0.100
51.800	27.632	0.100
51.900	37.900	0.100
52.000	21.381	0.100
52.100	18.963	0.100
52.200	28.920	0.100
52.300	20.429	0.100
52.400	27.843	0.100
52.500	26.551	0.100
52.600	28.138	0.100
52.700	19.990	0.100
52.800	18.399	0.100
52.900	25.490	0.100
53.000	24.819	0.100
53.100	18.302	0.100
53.200	23.326	0.100
53.300	25.058	0.100
53.400	12.444	0.100
53.500	15.719	0.100
53.600	23.494	0.100
53.700	23.229	0.100
53.800	26.716	0.100
53.900	29.284	0.100
54.000	36.967	0.100
54.100	26.490	0.100
54.200	27.428	0.100
54.300	24.552	0.100
54.400	24.083	0.100
54.500	19.559	0.100
54.600	27.844	0.100
54.700	23.276	0.100
54.800	24.190	0.100
54.900	23.453	0.100
55.000	25.845	0.100
55.100	28.318	0.100
55.200	29.397	0.100
55.300	17.851	0.100
55.400	33.666	0.100
55.500	25.260	0.100
55.600	17.897	0.100
55.700	32.830	0.100
55.800	34.032	0.100
55.900	22.814	0.100
56.000	18.801	0.100
56.100	26.067	0.100
56.200	29.155	0.100
56.300	33.245	0.100
56.400	24.679	0.100
56.500	21.520	0.100
56.600	24.519	0.100
56.700	14.950	0.100
56.800	15.576	0.100
56.900	37.878	0.100
57.000	34.355	0.100
57.100	33.260	0.100
57.200	28.757	0.100
57.300	36.355	0.100
57.400	31.396	0.100
57.500	33.379	0.100
57.600	21.750	0.100
57.700	13.801	0.100
57.800	30.560	0.100
57.900	30.479	0.100
58.000	29.619	0.100
58.100	25.123	0.100
58.200	30.243	0.100
58.300	28.062	0.100
58.400	32.233	0.100
58.500	32.366	0.100
58.600	41.824	0.100
58.700	26.897	0.100
58.800	34.250	0.100
58.900	31.254	0.100
59.000	19.019	0.100
59.100	46.096	0.100
59.200	27.416	0.100
59.300	24.129	0.100
59.400	15.977	0.100
59.500	31.489	0.100
59.600	27.745	0.100
59.700	21.596	0.100
59.800	29.832	0.100
59.900	44.373	0.100
60.000	43.687	0.100
60.100	25.520	0.100
60.200	31.889	0.100
60.300	22.071	0.100
60.400	23.542	0.100
60.500	23.551	0.100
60.600	36.540	0.100
60.700	42.073	0.100
60.800	25.345	0.100
60.900	23.364	0.100
61.000	37.958	0.100
61.100	33.490	0.100
61.200	41.537	0.100
61.300	30.934	0.100
61.400	26.063	0.100
61.500	30.725	0.100
61.600	24.953	0.100
61.700	21.416	0.100
61.800	36.087	0.100
61.900	32.949	0.100
62.000	31.484	0.100
62.100	36.434	0.100
62.200	35.578	0.100
62.300	23.138	0.100
62.400	28.381	0.100
62.500	12.642	0.100
62.600	21.149	0.100
62.700	38.595	0.100
62.800	33.676	0.100
62.900	34.510	0.100
63.000	24.119	0.100
63.100	28.058	0.100
63.200	29.246	0.100
63.300	27.120	0.100
63.400	26.350	0.100
63.500	49.754	0.100
63.600	39.848	0.100
63.700	28.166	0.100
63.800	33.662	0.100
63.900	30.511	0.100
64.000	34.586	0.100
64.100	29.074	0.100
64.200	36.792	0.100
64.300	36.260	0.100
64.400	29.773	0.100
64.500	29.175	0.100
64.600	40.846	0.100
64.700	26.559	0.100
64.800	31.412	0.100
64.900	30.130	0.100
65.000	38.199	0.100
65.100	33.598	0.100
65.200	23.801	0.100
65.300	34.719	0.100
65.400	34.387	0.100
65.500	24.882	0.100
65.600	35.801	0.100
65.700	15.195	0.100
65.800	41.388	0.100
65.900	49.259	0.100
66.000	41.903	0.100
66.100	37.069	0.100
66.200	37.085	0.100
66.300	37.057	0.100
66.400	38.402	0.100
66.500	33.513	0.100
66.600	29.921	0.100
66.700	30.812	0.100
66.800	41.754	0.100
66.900	36.972	0.100
67.000	36.512	0.100
67.100	38.206	0.100
67.200	27.686	0.100
67.300	26.821	0.100
67.400	31.502	0.100
67.500	32.707	0.100
67.600	36.622	0.100
67.700	31.319	0.100
67.800	33.157	0.100
67.900	41.399	0.100
68.000	33.289	0.100
68.100	42.391	0.100
68.200	34.898	0.100
68.300	42.451	0.100
68.400	35.435	0.100
68.500	31.517	0.100
68.600	35.635	0.100
68.700	16.803	0.100
68.800	42.389	0.100
68.900	44.548	0.100
69.000	42.648	0.100
69.100	21.648	0.100
69.200	43.543	0.100
69.300	41.113	0.100
69.400	38.666	0.100
69.500	27.968	0.100
69.600	32.584	0.100
69.700	41.778	0.100
69.800	37.583	0.100
69.900	38.345	0.100
70.000	32.217	0.100
70.100	33.906	0.100
70.200	49.353	0.100
70.300	31.559	0.100
70.400	34.773	0.100
70.500	37.745	0.100
70.600	35.403	0.100
70.700	45.688	0.100
70.800	25.206	0.100
70.900	34.201	0.100
71.000	36.336	0.100
71.100	31.807	0.100
71.200	32.643	0.100
71.300	31.360	0.100
71.400	37.114	0.100
71.500	34.537	0.100
71.600	31.641	0.100
71.700	29.578	0.100
71.800	46.071	0.100
71.900	33.347	0.100
72.000	40.604	0.100
72.100	46.567	0.100
72.200	39.030	0.100
72.300	37.349	0.100
72.400	35.235	0.100
72.500	40.832	0.100
72.600	32.488	0.100
72.700	26.246	0.100
72.800	44.522	0.100
72.900	36.837	0.100
73.000	37.046	0.100
73.100	44.803	0.100
73.200	36.014	0.100
73.300	43.196	0.100
73.400	38.741	0.100
73.500	36.504	0.100
73.600	30.491	0.100
73.700	28.454	0.100
73.800	29.703	0.100
73.900	46.325	0.100
74.000	36.133	0.100
74.100	39.288	0.100
74.200	38.648	0.100
74.300	32.739	0.100
74.400	32.082	0.100
74.500	49.954	0.100
74.600	41.989	0.100
74.700	40.708	0.100
74.800	46.752	0.100
74.900	30.776	0.100
75.000	37.382	0.100
75.100	28.911	0.100
75.200	44.096	0.100
75.300	39.549	0.100
75.400	36.519	0.100
75.500	46.263	0.100
75.600	40.864	0.100
75.700	46.173	0.100
75.800	39.854	0.100
75.900	40.725	0.100
76.000	43.315	0.100
76.100	38.236	0.100
76.200	33.182	0.100
76.300	46.078	0.100
76.400	28.950	0.100
76.500	33.803	0.100
76.600	30.815	0.100
76.700	36.118	0.100
76.800	35.287	0.100
76.900	31.914	0.100
77.000	38.172	0.100
77.100	38.139	0.100
77.200	39.739	0.100
77.300	49.586	0.100
77.400	40.404	0.100
77.500	38.129	0.100
77.600	44.320	0.100
77.700	42.787	0.100
77.800	36.491	0.100
77.900	28.825	0.100
78.000	39.559	0.100
78.100	39.904	0.100
78.200	49.668	0.100
78.300	43.134	0.100
78.400	34.340	0.100
78.500	29.821	0.100
78.600	44.758	0.100
78.700	22.690	0.100
78.800	32.568	0.100
78.900	34.469	0.100
79.000	49.321	0.100
79.100	32.478	0.100
79.200	42.194	0.100
79.300	40.427	0.100
79.400	35.023	0.100
79.500	58.869	0.100
79.600	36.445	0.100
79.700	39.511	0.100
79.800	46.193	0.100
79.900	39.015	0.100
80.000	37.464	0.100
80.100	19.705	0.100
80.200	25.002	0.100
80.300	49.820	0.100
80.400	36.143	0.100
80.500	32.560	0.100
80.600	42.241	0.100
80.700	28.976	0.100
80.800	50.850	0.100
80.900	47.413	0.100
81.000	41.721	0.100
81.100	39.756	0.100
81.200	29.928	0.100
81.300	45.083	0.100
81.400	43.703	0.100
81.500	39.771	0.100
81.600	38.713	0.100
81.700	39.635	0.100
81.800	48.557	0.100
81.900	43.950	0.100
82.000	41.708	0.100
82.100	33.992	0.100
82.200	38.868	0.100
82.300	34.756	0.100
82.400	35.695	0.100
82.500	41.001	0.100
82.600	35.845	0.100
82.700	40.738	0.100
82.800	34.856	0.100
82.900	39.436	0.100
83.000	42.726	0.100
83.100	30.658	0.100
83.200	43.705	0.100
83.300	45.367	0.100
83.400	41.396	0.100
83.500	34.938	0.100
83.600	40.696	0.100
83.700	30.149	0.100
83.800	29.602	0.100
83.900	37.900	0.100
84.000	35.949	0.100
84.100	45.469	0.100
84.200	41.059	0.100
84.300	41.970	0.100
84.400	43.834	0.100
84.500	41.220	0.100
84.600	45.165	0.100
84.700	40.169	0.100
84.800	44.331	0.100
84.900	39.215	0.100
85.000	25.498	0.100
85.100	49.618	0.100
85.200	56.049	0.100
85.300	44.834	0.100
85.400	43.778	0.100
85.500	36.092	0.100
85.600	43.209	0.100
85.700	49.449	0.100
85.800	48.995	0.100
85.900	36.911	0.100
86.000	41.548	0.100
86.100	45.119	0.100
86.200	26.577	0.100
86.300	35.654	0.100
86.400	42.780	0.100
86.500	33.863	0.100
86.600	42.793	0.100
86.700	43.840	0.100
86.800	34.794	0.100
86.900	45.350	0.100
87.000	49.112	0.100
87.100	43.396	0.100
87.200	41.741	0.100
87.300	46.255	0.100
87.400	35.186	0.100
87.500	44.653	0.100
87.600	31.791	0.100
87.700	31.882	0.100
87.800	39.086	0.100
87.900	43.103	0.100
88.000	41.646	0.100
88.100	39.527	0.100
88.200	49.705	0.100
88.300	40.292	0.100
88.400	28.307	0.100
88.500	42.184	0.100
88.600	57.627	0.100
88.700	49.719	0.100
88.800	39.974	0.100
88.900	43.621	0.100
89.000	41.388	0.100
89.100	42.547	0.100
89.200	48.545	0.100
89.300	45.989	0.100
89.400	49.273	0.100
89.500	32.813	0.100
89.600	32.695	0.100
89.700	43.314	0.100
89.800	39.411	0.100
89.900	29.418	0.100
90.000	22.816	0.100
90.100	17.817	0.100
90.200	2.933	0.100
90.300	20.985	0.100
90.400	-7.219	0.100
90.500	-19.470	0.100
90.600	-12.042	0.100
90.700	-24.333	0.100
90.800	-18.776	0.100
90.900	-16.879	0.100
91.000	-12.244	0.100
91.100	-12.745	0.100
91.200	-23.751	0.100
91.300	-33.217	0.100
91.400	-26.728	0.100
91.500	-21.625	0.100
91.600	-16.172	0.100
91.700	-31.914	0.100
91.800	-32.982	0.100
91.900	-31.232	0.100
92.000	-24.580	0.100
92.100	-34.160	0.100
92.200	-20.329	0.100
92.300	-12.391	0.100
92.400	-29.125	0.100
92.500	-22.740	0.100
92.600	-19.344	0.100
92.700	-27.886	0.100
92.800	-28.748	0.100
92.900	-23.734	0.100
93.000	-31.624	0.100
93.100	-26.710	0.100
93.200	-24.672	0.100
93.300	-38.721	0.100
93.400	-23.866	0.100
93.500	-29.839	0.100
93.600	-30.856	0.100
93.700	-30.902	0.100
93.800	-19.318	0.100
93.900	-38.948	0.100
94.000	-36.979	0.100
94.100	-16.515	0.100
94.200	-21.350	0.100
94.300	-15.837	0.100
94.400	-31.498	0.100
94.500	-27.367	0.100
94.600	-36.891	0.100
94.700	-16.828	0.100
94.800	-27.577	0.100
94.900	-35.439	0.100
95.000	-35.232	0.100
95.100	-19.047	0.100
95.200	-29.742	0.100
95.300	-21.555	0.100
95.400	-35.017	0.100
95.500	-18.655	0.100
95.600	-34.957	0.100
95.700	-27.240	0.100
95.800	-25.094	0.100
95.900	-12.190	0.100
96.000	-21.370	0.100
96.100	-24.021	0.100
96.200	-13.390	0.100
96.300	-16.937	0.100
96.400	-17.550	0.100
96.500	-25.503	0.100
96.600	-23.562	0.100
96.700	-28.459	0.100
96.800	-37.295	0.100
96.900	-24.864	0.100
97.000	-21.759	0.100
97.100	-17.903	0.100
97.200	-21.128	0.100
97.300	-22.766	0.100
97.400	-21.156	0.100
97.500	-41.262	0.100
97.600	-34.731	0.100
97.700	-12.430	0.100
97.800	-9.305	0.100
97.900	-10.575	0.100
98.000	-19.839	0.100
98.100	-16.117	0.100
98.200	-15.044	0.100
98.300	-7.553	0.100
98.400	-0.493	0.100
98.500	-8.596	0.100
98.600	-11.749	0.100
98.700	-24.030	0.100
98.800	-19.791	0.100
98.900	-6.867	0.100
99.000	-13.391	0.100
99.100	-18.504	0.100
99.200	-12.686	0.100
99.300	-24.071	0.100
99.400	-10.580	0.100
99.500	-17.492	0.100
99.600	-21.620	0.100
99.700	-13.689	0.100
99.800	-14.522	0.100
99.900	-14.562	0.100
100.000	2.144	0.100
100.100	-0.228	0.100
100.200	-12.356	0.100
100.300	-1.229	0.100
100.400	-10.161	0.100
100.500	-17.375	0.100
100.600	-31.954	0.100
100.700	-18.795	0.100
100.800	-6.236	0.100
100.900	-10.820	0.100
101.000	-10.008	0.100
101.100	-10.850	0.100
101.200	-6.858	0.100
101.300	-11.831	0.100
101.400	-13.210	0.100
101.500	-11.663	0.100
101.600	-23.899	0.100
101.700	-12.780	0.100
101.800	-8.464	0.100
101.900	-4.711	0.100
102.000	-5.560	0.100
102.100	-2.847	0.100
102.200	-10.384	0.100
102.300	-5.562	0.100
102.400	-20.309	0.100
102.500	-9.286	0.100
102.600	2.828	0.100
102.700	-2.826	0.100
102.800	-8.412	0.100
102.900	-29.014	0.100
103.000	-23.729	0.100
103.100	-3.410	0.100
103.200	-9.276	0.100
103.300	-11.940	0.100
103.400	-20.116	0.100
103.500	-14.828	0.100
103.600	-5.467	0.100
103.700	-4.148	0.100
103.800	-8.508	0.100
103.900	-19.525	0.100
104.000	-19.906	0.100
104.100	-15.039	0.100
104.200	-13.421	0.100
104.300	-11.918	0.100
104.400	-9.382	0.100
104.500	-8.409	0.100
104.600	-9.980	0.100
104.700	-16.087	0.100
104.800	-6.467	0.100
104.900	-28.095	0.100
105.000	-5.314	0.100
105.100	-3.964	0.100
105.200	1.801	0.100
105.300	-9.924	0.100
105.400	-18.549	0.100
105.500	-10.720	0.100
105.600	-4.442	0.100
105.700	2.275	0.100
105.800	-10.349	0.100
105.900	-11.578	0.100
106.000	-5.004	0.100
106.100	-6.518	0.100
106.200	-20.749	0.100
106.300	-22.362	0.100
106.400	-14.173	0.100
106.500	-5.769	0.100
106.600	-5.376	0.100
106.700	-31.043	0.100
106.800	0.618	0.100
106.900	-12.523	0.100
107.000	-20.271	0.100
107.100	-14.522	0.100
107.200	-14.794	0.100
107.300	-9.009	0.100
107.400	-13.687	0.100
107.500	-15.385	0.100
107.600	-12.793	0.100
107.700	-6.256	0.100
107.800	-3.106	0.100
107.900	-8.566	0.100
108.000	-10.125	0.100
108.100	-19.509	0.100
108.200	-3.800	0.100
108.300	-2.580	0.100
108.400	-22.005	0.100
108.500	-7.841	0.100
108.600	-9.255	0.100
108.700	-12.872	0.100
108.800	-19.852	0.100
108.900	-1.609	0.100
109.000	-12.278	0.100
109.100	4.263	0.100
109.200	-8.140	0.100
109.300	-6.584	0.100
109.400	-9.238	0.100
109.500	-15.832	0.100
109.600	-8.625	0.100
109.700	-19.709	0.100
109.800	-23.388	0.100
109.900	-6.834	0.100
110.000	-4.826	0.100
110.100	-18.284	0.100
110.200	2.341	0.100
110.300	-19.417	0.100
110.400	-35.724	0.100
110.500	-24.568	0.100
110.600	-14.050	0.100
110.700	-5.730	0.100
110.800	-11.490	0.100
110.900	-9.240	0.100
111.000	-7.908	0.100
111.100	-2.661	0.100
111.200	-13.111	0.100
111.300	-8.978	0.100
111.400	-14.663	0.100
111.500	-0.876	0.100
111.600	-19.356	0.100
111.700	-22.697	0.100
111.800	-12.821	0.100
111.900	-16.273	0.100
112.000	-12.472	0.100
112.100	-0.627	0.100
112.200	-26.461	0.100
112.300	-11.651	0.100
112.400	-5.850	0.100
112.500	-7.880	0.100
112.600	-10.098	0.100
112.700	-13.804	0.100
112.800	-23.536	0.100
112.900	-11.143	0.100
113.000	-18.092	0.100
113.100	-11.116	0.100
113.200	-2.327	0.100
113.300	-26.488	0.100
113.400	-15.310	0.100
113.500	-5.454	0.100
113.600	-6.438	0.100
113.700	-8.435	0.100
113.800	-12.405	0.100
113.900	-23.269	0.100
114.000	-19.645	0.100
114.100	-10.362	0.100
114.200	-17.242	0.100
114.300	-13.216	0.099
114.400	-13.544	0.099
114.500	-7.701	0.099
114.600	-14.687	0.099
114.700	-7.807	0.099
114.800	-7.992	0.099
114.900	-19.285	0.099
115.000	-10.603	0.099
115.100	-12.644	0.099
115.200	-11.640	0.099
115.300	-2.058	0.099
115.400	-12.726	0.099
115.500	-20.578	0.099
115.600	-9.631	0.099
115.700	-19.153	0.099
115.800	-7.913	0.099
115.900	-27.906	0.099
116.000	-11.078	0.099
116.100	-6.253	0.099
116.200	-0.791	0.099
116.300	-11.663	0.099
116.400	-16.535	0.099
116.500	-7.127	0.099
116.600	-16.701	0.099
116.700	-15.348	0.099
116.800	-4.487	0.099
116.900	-23.193	0.099
117.000	-19.293	0.099
117.100	-13.325	0.099
117.200	-9.022	0.099
117.300	-27.739	0.099
117.400	-15.019	0.099
117.500	-24.929	0.099
117.600	-15.876	0.099
117.700	-14.681	0.099
117.800	1.457	0.099
117.900	-9.824	0.099
118.000	-9.103	0.099
118.100	-16.901	0.099
118.200	-18.073	0.099
118.300	-14.533	0.099
118.400	-7.850	0.099
118.500	-14.020	0.099
118.600	-5.927	0.099
118.700	-9.582	0.099
118.800	-16.025	0.099
118.900	-10.968	0.099
119.000	-27.972	0.099
119.100	-16.401	0.099
119.200	-18.679	0.099
119.300	-11.473	0.099
119.400	-11.361	0.099
119.500	-12.672	0.099
119.600	-22.869	0.099
119.700	-15.523	0.099
119.800	-17.502	0.099
119.900	-11.575	0.099
120.000	-8.649	0.099
120.100	1.403	0.099
120.200	-2.030	0.099
120.300	-13.519	0.099
120.400	-0.320	0.099
120.500	-11.471	0.099
120.600	-11.464	0.099
120.700	-21.711	0.099
120.800	-23.449	0.099
120.900	-9.558	0.099
121.000	-15.806	0.099
121.100	-7.753	0.099
121.200	-14.218	0.099
121.300	-1.398	0.099
121.400	-3.226	0.099
121.500	-26.106	0.099
121.600	-26.498	0.099
121.700	-9.451	0.099
121.800	-9.626	0.099
121.900	-17.463	0.099
122.000	-20.925	0.099
122.100	-18.670	0.099
122.200	-16.114	0.099
122.300	-14.844	0.099
122.400	-10.238	0.099
122.500	-7.811	0.099
122.600	-0.743	0.099
122.700	-10.139	0.099
122.800	-15.079	0.099
122.900	-19.150	0.099
123.000	-12.797	0.099
123.100	-20.853	0.099
123.200	-9.723	0.099
123.300	-10.343	0.099
123.400	-5.109	0.099
123.500	-29.922	0.099
123.600	-11.145	0.099
123.700	-9.516	0.099
123.800	-8.594	0.099
123.900	-8.125	0.099
124.000	-14.220	0.099
124.100	-19.353	0.099
124.200	-18.349	0.099
124.300	-20.757	0.099
124.400	-12.359	0.099
124.500	-24.001	0.099
124.600	-14.352	0.099
124.700	-16.611	0.099
124.800	-13.356	0.099
124.900	-20.145	0.099
125.000	-13.000	0.099
125.100	-8.183	0.099
125.200	-14.030	0.099
125.300	-11.158	0.099
125.400	-7.006	0.099
125.500	-6.793	0.099
125.600	-20.182	0.099
125.700	-20.625	0.099
125.800	-11.620	0.099
125.900	-8.570	0.099
126.000	-17.282	0.099
126.100	-24.090	0.099
126.200	-26.491	0.099
126.300	-21.262	0.099
126.400	-20.509	0.099
126.500	-8.767	0.099
126.600	-10.043	0.099
126.700	-12.664	0.099
126.800	-20.061	0.099
126.900	-14.041	0.099
127.000	-8.389	0.099
127.100	-1.067	0.099
127.200	-12.520	0.099
127.300	-18.523	0.099
127.400	-15.985	0.099
127.500	-5.674	0.099
127.600	-19.839	0.099
127.700	-7.232	0.099
127.800	-14.876	0.099
127.900	-14.548	0.099
128.000	-16.479	0.099
128.100	-6.680	0.099
128.200	-14.365	0.099
128.300	-19.336	0.099
128.400	-15.671	0.099
128.500	-9.650	0.099
128.600	-17.118	0.099
128.700	-22.152	0.099
128.800	-16.914	0.099
128.900	-15.169	0.099
129.000	-23.485	0.099
129.100	-11.606	0.099
129.200	-10.293	0.099
129.300	-16.083	0.099
129.400	-8.576	0.099
129.500	-4.724	0.099
129.600	-13.387	0.099
129.700	-17.849	0.099
129.800	-24.106	0.099
129.900	-18.682	0.099
130.000	-18.008	0.099
130.100	-17.614	0.099
130.200	-17.986	0.099
130.300	-15.737	0.099
130.400	-17.590	0.099
130.500	-11.129	0.099
130.600	-6.249	0.099
130.700	-9.988	0.099
130.800	-5.162	0.099
130.900	-18.731	0.099
131.000	-27.165	0.099
131.100	-5.776	0.099
131.200	-9.547	0.099
131.300	-15.196	0.099
131.400	-16.623	0.100
131.500	-7.505	0.100
131.600	-16.625	0.100
131.700	-5.905	0.100
131.800	-29.135	0.100
131.900	-12.237	0.100
132.000	-7.832	0.100
132.100	-7.454	0.100
132.200	-9.618	0.100
132.300	-14.110	0.100
132.400	-16.638	0.100
132.500	-15.740	0.100
132.600	-8.387	0.100
132.700	-9.932	0.100
132.800	-7.014	0.100
132.900	-13.200	0.100
133.000	-23.292	0.100
133.100	-3.187	0.100
133.200	-18.552	0.100
133.300	-2.087	0.100
133.400	-24.347	0.100
133.500	-22.687	0.100
133.600	-5.680	0.100
133.700	-6.315	0.100
133.800	-20.339	0.100
133.900	-16.331	0.100
134.000	-13.659	0.100
134.100	-19.760	0.100
134.200	-27.754	0.100
134.300	-18.980	0.100
134.400	-18.402	0.100
134.500	-11.034	0.100
134.600	-9.690	0.100
134.700	-11.121	0.100
134.800	-6.507	0.100
134.900	-8.660	0.100
135.000	-10.753	0.100
135.100	-17.905	0.100
135.200	0.872	0.100
135.300	-11.695	0.100
135.400	-12.804	0.100
135.500	-11.946	0.100
135.600	-15.742	0.100
135.700	-5.157	0.100
135.800	-19.053	0.100
135.900	-13.308	0.100
136.000	-4.944	0.100
136.100	3.282	0.100
136.200	-15.074	0.100
136.300	-12.511	0.100
136.400	-11.629	0.100
136.500	-24.163	0.100
136.600	-18.105	0.100
136.700	-9.166	0.100
136.800	-2.781	0.100
136.900	-18.865	0.100
137.000	-10.665	0.100
137.100	-22.949	0.100
137.200	-10.046	0.100
137.300	-7.835	0.100
137.400	-19.021	0.100
137.500	-15.468	0.100
137.600	-12.820	0.100
137.700	-22.465	0.100
137.800	-4.845	0.100
137.900	-7.830	0.100
138.000	-21.046	0.100
138.100	-14.063	0.100
138.200	-9.272	0.100
138.300	-7.344	0.100
138.400	-11.653	0.100
138.500	-15.624	0.100
138.600	-17.764	0.100
138.700	-10.067	0.100
138.800	-14.290	0.100
138.900	-16.027	0.100
139.000	-18.457	0.100
139.100	-10.153	0.100
139.200	-12.039	0.100
139.300	-1.985	0.100
139.400	-6.629	0.100
139.500	-22.987	0.100
139.600	-15.537	0.100
139.700	-19.293	0.100
139.800	-0.785	0.100
139.900	-15.431	0.100
140.000	-7.935	0.100
140.100	-11.464	0.100
140.200	-17.536	0.100
140.300	1.299	0.100
140.400	5.955	0.100
140.500	-1.019	0.100
140.600	-18.297	0.100
140.700	-15.607	0.100
140.800	-15.091	0.100
140.900	-21.949	0.100
141.000	-24.666	0.100
141.100	-5.679	0.100
141.200	2.084	0.100
141.300	-10.506	0.100
141.400	-14.308	0.100
141.500	-21.225	0.100
141.600	-13.115	0.100
141.700	-12.614	0.100
141.800	-9.026	0.100
141.900	-11.603	0.100
142.000	-7.343	0.100
142.100	-19.294	0.100
142.200	-6.540	0.100
142.300	-13.687	0.100
142.400	-10.245	0.100
142.500	-28.358	0.100
142.600	-16.820	0.100
142.700	-10.565	0.100
142.800	-1.608	0.100
142.900	-8.572	0.100
143.000	-6.585	0.100
143.100	-11.530	0.100
143.200	-9.918	0.100
143.300	-6.721	0.100
143.400	-10.568	0.100
143.500	-0.423	0.100
143.600	-22.041	0.100
143.700	-4.730	0.100
143.800	-7.110	0.100
143.900	-10.443	0.100
144.000	-8.029	0.100
144.100	-13.128	0.100
144.200	-14.291	0.100
144.300	-4.002	0.100
144.400	-13.724	0.100
144.500	-16.800	0.100
144.600	-10.084	0.100
144.700	-6.511	0.100
144.800	3.314	0.100
144.900	-0.337	0.100
145.000	-3.388	0.100
145.100	-5.715	0.100
145.200	-6.578	0.100
145.300	-21.893	0.100
145.400	-7.414	0.100
145.500	-15.199	0.100
145.600	-20.396	0.100
145.700	-17.976	0.100
145.800	-17.623	0.100
145.900	-0.833	0.100
146.000	-7.559	0.100
146.100	-12.217	0.100
146.200	-19.674	0.100
146.300	-17.274	0.100
146.400	-4.867	0.100
146.500	-4.230	0.100
146.600	-10.907	0.100
146.700	-6.618	0.100
146.800	-5.448	0.100
146.900	-2.752	0.100
147.000	-14.814	0.100
147.100	-17.291	0.100
147.200	-7.162	0.100
147.300	-6.434	0.100
147.400	-8.725	0.100
147.500	-6.728	0.100
147.600	-9.111	0.100
147.700	-11.934	0.100
147.800	-9.358	0.100
147.900	-9.274	0.100
148.000	2.476	0.100
148.100	2.993	0.100
148.200	-5.103	0.100
148.300	-16.196	0.100
148.400	-13.427	0.100
148.500	-4.387	0.100
148.600	-13.663	0.100
148.700	-18.326	0.100
148.800	-5.903	0.100
148.900	-19.888	0.100
149.000	-19.643	0.100
149.100	-9.466	0.100
149.200	-11.917	0.100
149.300	3.901	0.100
149.400	-10.150	0.100
149.500	-8.909	0.100
149.600	-15.884	0.100
149.700	-7.587	0.100
149.800	-22.732	0.100
149.900	-18.182	0.100
150.000	-7.955	0.100
150.100	-9.305	0.100
150.200	-3.223	0.100
150.300	-7.207	0.100
150.400	-9.718	0.100
150.500	-6.957	0.100
150.600	-12.885	0.100
150.700	-3.282	0.100
150.800	-11.182	0.100
150.900	-17.562	0.100
151.000	-0.942	0.100
151.100	-8.531	0.100
151.200	-3.671	0.100
151.300	-2.305	0.100
151.400	-4.864	0.100
151.500	-2.356	0.100
151.600	-5.357	0.100
151.700	-10.142	0.100
151.800	-18.135	0.100
151.900	-11.958	0.100
152.000	-11.442	0.100
152.100	-8.869	0.100
152.200	-5.397	0.100
152.300	-13.918	0.100
152.400	-18.962	0.100
152.500	-21.886	0.100
152.600	4.807	0.100
152.700	-10.048	0.100
152.800	-12.830	0.100
152.900	-0.424	0.100
153.000	-8.858	0.100
153.100	-11.337	0.100
153.200	-2.961	0.100
153.300	-3.127	0.100
153.400	-13.258	0.100
153.500	-8.452	0.100
153.600	-14.723	0.100
153.700	-8.969	0.100
153.800	-0.163	0.100
153.900	-3.347	0.100
154.000	-1.997	0.100
154.100	-5.542	0.100
154.200	-2.986	0.100
154.300	2.046	0.100
154.400	-6.249	0.100
154.500	-8.227	0.100
154.600	-1.710	0.100
154.700	-16.532	0.100
154.800	-14.244	0.100
154.900	-11.934	0.100
155.000	-9.260	0.100
155.100	-15.586	0.100
155.200	-11.682	0.100
155.300	3.783	0.100
155.400	-3.938	0.100
155.500	-1.497	0.100
155.600	-4.197	0.100
155.700	-15.507	0.100
155.800	3.224	0.100
155.900	-10.903	0.100
156.000	-13.934	0.100
156.100	0.439	0.100
156.200	-2.575	0.100
156.300	-5.278	0.100
156.400	-24.270	0.100
156.500	-5.377	0.100
156.600	-9.437	0.100
156.700	-2.810	0.100
156.800	-10.529	0.100
156.900	-10.758	0.100
157.000	-10.588	0.100
157.100	5.611	0.100
157.200	1.632	0.100
157.300	-15.124	0.100
157.400	3.493	0.100
157.500	-17.692	0.100
157.600	-4.698	0.100
157.700	-5.970	0.100
157.800	2.793	0.100
157.900	-6.077	0.100
158.000	-5.976	0.100
158.100	-3.098	0.100
158.200	-10.792	0.100
158.300	-7.997	0.100
158.400	-5.958	0.100
158.500	-10.202	0.100
158.600	-13.598	0.100
158.700	-9.319	0.100
158.800	3.328	0.100
158.900	-11.747	0.100
159.000	-0.966	0.100
159.100	-11.687	0.100
159.200	-9.943	0.100
159.300	0.430	0.100
159.400	-1.922	0.100
159.500	-11.217	0.100
159.600	-9.410	0.100
159.700	-5.735	0.100
159.800	-4.550	0.100
159.900	-13.479	0.100
160.000	-14.422	0.100
160.100	-0.547	0.100
160.200	1.845	0.100
160.300	-6.925	0.100
160.400	-10.399	0.100
160.500	-10.071	0.100
160.600	-7.206	0.100
160.700	-25.989	0.100
160.800	-9.643	0.100
160.900	0.820	0.100
161.000	-4.792	0.100
161.100	-0.806	0.100
161.200	-1.403	0.100
161.300	-3.286	0.100
161.400	-12.879	0.100
161.500	-4.474	0.100
161.600	-2.872	0.100
161.700	-10.331	0.100
161.800	1.171	0.100
161.900	-10.348	0.100
162.000	-3.352	0.100
162.100	8.462	0.100
162.200	-1.938	0.100
162.300	-3.317	0.100
162.400	-2.600	0.100
162.500	-26.618	0.100
162.600	-4.996	0.100
162.700	-1.902	0.100
162.800	-9.388	0.100
162.900	-0.581	0.100
163.000	2.636	0.100
163.100	4.590	0.100
163.200	-11.349	0.100
163.300	-18.592	0.100
163.400	-10.626	0.100
163.500	1.260	0.100
163.600	1.219	0.100
163.700	-2.072	0.100
163.800	-5.274	0.100
163.900	-13.612	0.100
164.000	-0.764	0.100
164.100	-18.910	0.100
164.200	1.181	0.100
164.300	0.374	0.100
164.400	-23.218	0.100
164.500	4.394	0.100
164.600	-8.046	0.100
164.700	-5.487	0.100
164.800	-8.894	0.100
164.900	-3.650	0.100
165.000	-2.923	0.100
165.100	1.903	0.100
165.200	-18.600	0.100
165.300	3.066	0.100
165.400	-7.966	0.100
165.500	-3.878	0.100
165.600	2.925	0.100
165.700	0.843	0.100
165.800	0.625	0.100
165.900	-10.092	0.100
166.000	-5.937	0.100
166.100	-9.944	0.100
166.200	-0.820	0.100
166.300	4.457	0.100
166.400	-9.011	0.100
166.500	-5.974	0.100
166.600	-2.793	0.100
166.700	-9.207	0.100
166.800	-5.967	0.100
166.900	1.470	0.100
167.000	-8.712	0.100
167.100	-4.467	0.100
167.200	0.026	0.100
167.300	4.649	0.100
167.400	9.271	0.100
167.500	-4.270	0.100
167.600	-4.178	0.100
167.700	-19.156	0.100
167.800	-11.920	0.100
167.900	-7.787	0.100
168.000	-6.903	0.100
168.100	0.441	0.100
168.200	-0.630	0.100
168.300	-15.122	0.100
168.400	-0.784	0.100
168.500	-2.822	0.100
168.600	6.351	0.100
168.700	-5.277	0.100
168.800	2.462	0.100
168.900	-6.840	0.100
169.000	-10.989	0.100
169.100	-1.971	0.100
169.200	-8.053	0.100
169.300	-5.152	0.100
169.400	-3.941	0.100
169.500	-5.789	0.100
169.600	2.318	0.100
169.700	-6.204	0.100
169.800	-13.102	0.100
169.900	-2.696	0.100
170.000	-16.439	0.100
170.100	-5.856	0.100
170.200	-1.793	0.100
170.300	-0.794	0.100
170.400	-9.869	0.100
170.500	-11.742	0.100
170.600	-4.572	0.100
170.700	-2.989	0.100
170.800	0.722	0.100
170.900	-2.345	0.100
171.000	-7.792	0.100
171.100	2.065	0.100
171.200	-8.380	0.100
171.300	-7.841	0.100
171.400	-7.749	0.100
171.500	-1.109	0.100
171.600	-9.741	0.100
171.700	-11.826	0.100
171.800	-6.851	0.100
171.900	5.817	0.100
172.000	3.899	0.100
172.100	-2.954	0.100
172.200	-6.999	0.100
172.300	-11.019	0.100
172.400	-7.447	0.100
172.500	-5.482	0.100
172.600	10.892	0.100
172.700	5.131	0.100
172.800	1.041	0.100
172.900	-5.627	0.100
173.000	-11.346	0.100
173.100	-7.375	0.100
173.200	-14.801	0.100
173.300	-9.962	0.100
173.400	-5.488	0.100
173.500	-4.702	0.100
173.600	2.337	0.100
173.700	10.224	0.100
173.800	-0.770	0.100
173.900	3.272	0.100
174.000	-4.587	0.100
174.100	-7.093	0.100
174.200	-2.851	0.100
174.300	-5.021	0.100
174.400	-12.266	0.100
174.500	-7.154	0.100
174.600	-1.698	0.100
174.700	8.475	0.100
174.800	8.509	0.100
174.900	2.224	0.100
175.000	-1.589	0.100
175.100	-8.145	0.100
175.200	-13.312	0.100
175.300	-12.067	0.100
175.400	-16.649	0.100
175.500	-20.644	0.100
175.600	-8.099	0.100
175.700	-3.152	0.100
175.800	-5.258	0.100
175.900	-11.279	0.100
176.000	8.193	0.100
176.100	-8.257	0.100
176.200	-17.995	0.100
176.300	-10.005	0.100
176.400	-3.009	0.100
176.500	-6.344	0.100
176.600	-9.537	0.100
176.700	-2.039	0.100
176.800	-0.446	0.100
176.900	-2.083	0.100
177.000	-3.210	0.100
177.100	0.339	0.100
177.200	-4.382	0.100
177.300	15.501	0.100
177.400	-12.720	0.100
177.500	-3.189	0.100
177.600	-2.473	0.100
177.700	-7.194	0.100
177.800	-10.229	0.100
177.900	-8.892	0.100
178.000	-4.801	0.100
178.100	3.116	0.100
178.200	10.480	0.100
178.300	-0.764	0.100
178.400	1.867	0.100
178.500	-8.268	0.100
178.600	-8.014	0.100
178.700	-4.751	0.100
178.800	-0.675	0.100
178.900	-7.761	0.100
179.000	0.135	0.100
179.100	1.153	0.100
179.200	-4.057	0.100
179.300	-21.948	0.100
179.400	-10.931	0.100
179.500	1.861	0.100
179.600	-7.386	0.100
179.700	-10.962	0.100
179.800	14.627	0.100
179.900	-3.179	0.100
180.000	-2.829	0.100
180.100	-1.701	0.100
180.200	14.792	0.100
180.300	42.486	0.100
180.400	60.941	0.100
180.500	78.864	0.100
180.600	81.539	0.100
180.700	85.891	0.100
180.800	87.406	0.100
180.900	109.881	0.100
181.000	109.566	0.100
181.100	113.696	0.100
181.200	110.505	0.100
181.300	91.585	0.100
181.400	108.097	0.100
181.500	118.305	0.100
181.600	102.269	0.100
181.700	95.622	0.100
181.800	83.877	0.100
181.900	86.454	0.100
182.000	82.451	0.100
182.100	73.647	0.100
182.200	73.402	0.100
182.300	72.453	0.100
182.400	64.825	0.100
182.500	60.308	0.100
182.600	66.385	0.100
182.700	63.279	0.100
182.800	51.398	0.100
182.900	56.531	0.100
183.000	55.758	0.100
183.100	49.878	0.100
183.200	62.484	0.100
183.300	63.522	0.100
183.400	45.201	0.100
183.500	53.583	0.100
183.600	43.453	0.100
183.700	44.554	0.100
183.800	48.462	0.100
183.900	31.723	0.100
184.000	33.133	0.100
184.100	29.169	0.100
184.200	50.111	0.100
184.300	56.173	0.100
184.400	28.488	0.100
184.500	42.047	0.100
184.600	42.106	0.100
184.700	38.145	0.100
184.800	46.871	0.100
184.900	41.269	0.100
185.000	32.809	0.100
185.100	38.880	0.100
185.200	39.018	0.100
185.300	45.395	0.100
185.400	32.880	0.100
185.500	34.693	0.100
185.600	39.491	0.100
185.700	42.630	0.100
185.800	40.084	0.100
185.900	45.831	0.100
186.000	46.399	0.100
186.100	33.721	0.100
186.200	35.273	0.100
186.300	39.085	0.100
186.400	46.789	0.100
186.500	48.041	0.100
186.600	44.813	0.100
186.700	56.659	0.100
186.800	43.889	0.100
186.900	61.642	0.100
187.000	53.548	0.100
187.100	48.626	0.100
187.200	55.774	0.100
187.300	48.891	0.100
187.400	58.854	0.100
187.500	67.008	0.100
187.600	67.105	0.100
187.700	59.829	0.100
187.800	72.872	0.100
187.900	60.851	0.100
188.000	66.763	0.100
188.100	75.778	0.100
188.200	60.338	0.100
188.300	62.339	0.100
188.400	48.603	0.100
188.500	85.905	0.100
188.600	80.039	0.100
188.700	59.809	0.100
188.800	79.039	0.100
188.900	77.703	0.100
189.000	76.983	0.100
189.100	75.946	0.100
189.200	63.210	0.100
189.300	69.611	0.100
189.400	98.068	0.100
189.500	73.394	0.100
189.600	72.576	0.100
189.700	71.581	0.100
189.800	63.437	0.100
189.900	69.024	0.100
190.000	79.254	0.100
190.100	65.079	0.100
190.200	71.842	0.100
190.300	81.074	0.100
190.400	91.370	0.100
190.500	62.991	0.100
190.600	85.434	0.100
190.700	73.905	0.100
190.800	71.903	0.100
190.900	85.567	0.100
191.000	80.058	0.100
191.100	76.568	0.100
191.200	66.847	0.100
191.300	67.087	0.100
191.400	73.698	0.100
191.500	64.404	0.100
191.600	79.939	0.100
191.700	69.207	0.100
191.800	61.772	0.100
191.900	76.450	0.100
192.000	71.172	0.100
192.100	86.223	0.100
192.200	68.396	0.100
192.300	80.161	0.100
192.400	78.349	0.100
192.500	71.138	0.100
192.600	66.821	0.100
192.700	80.488	0.100
192.800	65.002	0.100
192.900	73.280	0.100
193.000	83.568	0.100
193.100	74.447	0.100
193.200	79.108	0.100
193.300	62.774	0.100
193.400	62.423	0.100
193.500	54.849	0.100
193.600	71.005	0.100
193.700	74.957	0.100
193.800	70.048	0.100
193.900	65.841	0.100
194.000	58.328	0.100
194.100	83.661	0.100
194.200	74.603	0.100
194.300	60.879	0.100
194.400	71.939	0.100
194.500	78.043	0.100
194.600	71.979	0.100
194.700	62.226	0.100
194.800	65.906	0.100
194.900	61.403	0.100
195.000	73.027	0.100
195.100	59.394	0.100
195.200	59.670	0.100
195.300	71.591	0.100
195.400	72.542	0.100
195.500	65.950	0.100
195.600	53.904	0.100
195.700	51.720	0.100
195.800	71.643	0.100
195.900	73.125	0.100
196.000	66.554	0.100
196.100	73.766	0.100
196.200	66.849	0.100
196.300	60.616	0.100
196.400	59.661	0.100
196.500	77.319	0.100
196.600	63.522	0.100
196.700	59.163	0.100
196.800	57.599	0.100
196.900	68.181	0.100
197.000	62.696	0.100
197.100	60.846	0.100
197.200	63.009	0.100
197.300	65.358	0.100
197.400	63.275	0.100
197.500	56.429	0.100
197.600	58.944	0.100
197.700	73.331	0.100
197.800	56.511	0.100
197.900	62.052	0.100
198.000	63.793	0.100
198.100	46.669	0.100
198.200	53.855	0.100
198.300	69.584	0.100
198.400	40.699	0.100
198.500	69.553	0.100
198.600	57.079	0.100
198.700	50.628	0.100
198.800	61.605	0.100
198.900	59.870	0.100
199.000	54.759	0.100
199.100	65.173	0.100
199.200	72.862	0.100
199.300	58.034	0.100
199.400	44.323	0.100
199.500	54.050	0.100
199.600	62.708	0.100
199.700	50.121	0.100
199.800	59.879	0.100
199.900	55.753	0.100
200.000	60.165	0.100
200.100	54.499	0.100
200.200	47.590	0.100
200.300	54.316	0.100
200.400	56.058	0.100
200.500	65.902	0.100
200.600	58.515	0.100
200.700	54.963	0.100
200.800	53.642	0.100
200.900	57.676	0.100
201.000	56.291	0.100
201.100	47.387	0.100
201.200	45.628	0.100
201.300	51.577	0.100
201.400	66.083	0.100
201.500	50.897	0.100
201.600	51.670	0.100
201.700	49.092	0.100
201.800	65.266	0.100
201.900	50.222	0.100
202.000	48.811	0.100
202.100	72.629	0.100
202.200	57.041	0.100
202.300	67.595	0.100
202.400	61.350	0.100
202.500	51.418	0.100
202.600	52.013	0.100
202.700	53.999	0.100
202.800	51.970	0.100
202.900	49.707	0.100
203.000	58.178	0.100
203.100	63.250	0.100
203.200	62.575	0.100
203.300	47.744	0.100
203.400	41.936	0.100
203.500	54.909	0.100
203.600	55.703	0.100
203.700	49.771	0.100
203.800	60.567	0.100
203.900	42.114	0.100
204.000	59.096	0.100
204.100	57.614	0.100
204.200	57.922	0.100
204.300	56.593	0.100
204.400	55.333	0.100
204.500	57.552	0.100
204.600	56.975	0.100
204.700	45.061	0.100
204.800	49.656	0.100
204.900	55.931	0.100
205.000	44.466	0.100
205.100	57.556	0.100
205.200	59.317	0.100
205.300	45.533	0.100
205.400	43.207	0.100
205.500	58.369	0.100
205.600	42.308	0.100
205.700	48.026	0.100
205.800	60.507	0.100
205.900	53.744	0.100
206.000	55.466	0.100
206.100	63.739	0.100
206.200	55.956	0.100
206.300	55.829	0.100
206.400	65.995	0.100
206.500	50.214	0.100
206.600	47.867	0.100
206.700	55.171	0.100
206.800	59.221	0.100
206.900	45.125	0.100
207.000	48.902	0.100
207.100	54.616	0.100
207.200	60.891	0.100
207.300	57.963	0.100
207.400	50.272	0.100
207.500	50.197	0.100
207.600	49.743	0.100
207.700	38.614	0.100
207.800	37.148	0.100
207.900	56.903	0.100
208.000	49.655	0.100
208.100	57.468	0.100
208.200	56.298	0.100
208.300	47.517	0.100
208.400	53.672	0.100
208.500	57.130	0.100
208.600	52.398	0.100
208.700	43.172	0.100
208.800	47.735	0.100
208.900	60.490	0.100
209.000	53.203	0.100
209.100	66.318	0.100
209.200	48.723	0.100
209.300	52.498	0.100
209.400	38.443	0.100
209.500	45.519	0.100
209.600	51.816	0.100
209.700	52.771	0.100
209.800	53.767	0.100
209.900	49.604	0.100
210.000	53.966	0.100
210.100	59.000	0.100
210.200	48.797	0.100
210.300	52.666	0.100
210.400	57.427	0.100
210.500	46.956	0.100
210.600	51.237	0.100
210.700	54.170	0.100
210.800	52.321	0.100
210.900	58.221	0.100
211.000	59.793	0.100
211.100	49.451	0.100
211.200	55.088	0.100
211.300	50.425	0.100
211.400	36.805	0.100
211.500	48.507	0.100
211.600	58.260	0.100
211.700	52.940	0.100
211.800	40.824	0.100
211.900	53.744	0.100
212.000	53.489	0.100
212.100	57.344	0.100
212.200	46.343	0.100
212.300	39.475	0.100
212.400	39.002	0.100
212.500	59.041	0.100
212.600	51.390	0.100
212.700	54.382	0.100
212.800	50.788	0.100
212.900	49.689	0.100
213.000	51.951	0.100
213.100	41.004	0.100
213.200	59.028	0.100
213.300	68.067	0.100
213.400	54.236	0.100
213.500	55.298	0.100
213.600	53.966	0.100
213.700	47.810	0.100
213.800	53.803	0.100
213.900	54.901	0.100
214.000	39.349	0.100
214.100	55.553	0.100
214.200	49.840	0.100
214.300	49.897	0.100
214.400	52.946	0.100
214.500	45.602	0.100
214.600	53.140	0.100
214.700	45.482	0.100
214.800	45.926	0.100
214.900	43.665	0.100
215.000	48.473	0.100
215.100	51.331	0.100
215.200	60.573	0.100
215.300	47.602	0.100
215.400	56.208	0.100
215.500	51.597	0.100
215.600	44.710	0.100
215.700	53.931	0.100
215.800	66.473	0.100
215.900	48.631	0.100
216.000	50.390	0.100
216.100	43.925	0.100
216.200	42.845	0.100
216.300	49.704	0.100
216.400	45.851	0.100
216.500	44.619	0.100
216.600	57.181	0.100
216.700	55.324	0.100
216.800	56.399	0.100
216.900	48.169	0.100
217.000	47.686	0.100
217.100	48.752	0.100
217.200	54.041	0.100
217.300	58.338	0.100
217.400	46.827	0.100
217.500	46.760	0.100
217.600	49.105	0.100
217.700	54.035	0.100
217.800	61.716	0.100
217.900	51.790	0.100
218.000	57.359	0.100
218.100	38.194	0.100
218.200	44.475	0.100
218.300	39.005	0.100
218.400	54.405	0.100
218.500	61.522	0.100
218.600	53.318	0.100
218.700	47.329	0.100
218.800	39.732	0.100
218.900	58.626	0.100
219.000	45.593	0.100
219.100	65.643	0.100
219.200	53.784	0.100
219.300	42.358	0.100
219.400	48.803	0.100
219.500	51.165	0.100
219.600	43.431	0.100
219.700	48.636	0.100
219.800	45.023	0.100
219.900	47.107	0.100
220.000	60.268	0.100
220.100	57.757	0.100
220.200	46.668	0.100
220.300	36.390	0.100
220.400	60.060	0.100
220.500	50.994	0.100
220.600	37.879	0.100
220.700	27.589	0.100
220.800	54.544	0.100
220.900	47.418	0.100
221.000	50.134	0.100
221.100	46.735	0.100
221.200	48.774	0.100
221.300	47.583	0.100
221.400	54.745	0.100
221.500	56.490	0.100
221.600	50.012	0.100
221.700	48.575	0.100
221.800	44.010	0.100
221.900	45.536	0.100
222.000	45.983	0.100
222.100	51.646	0.100
222.200	46.859	0.100
222.300	43.533	0.100
222.400	67.124	0.100
222.500	55.998	0.100
222.600	50.600	0.100
222.700	46.690	0.100
222.800	48.281	0.100
222.900	59.037	0.100
223.000	46.973	0.100
223.100	52.147	0.100
223.200	48.316	0.100
223.300	52.503	0.100
223.400	48.275	0.100
223.500	54.502	0.100
223.600	50.135	0.100
223.700	42.083	0.100
223.800	39.812	0.100
223.900	43.376	0.100
224.000	46.043	0.100
224.100	49.738	0.100
224.200	67.849	0.100
224.300	48.696	0.100
224.400	51.999	0.100
224.500	44.456	0.100
224.600	52.772	0.100
224.700	61.103	0.100
224.800	52.659	0.100
224.900	46.694	0.100
225.000	39.002	0.100
225.100	49.895	0.100
225.200	50.755	0.100
225.300	49.487	0.100
225.400	42.370	0.100
225.500	62.740	0.100
225.600	58.029	0.100
225.700	41.637	0.100
225.800	53.288	0.100
225.900	52.813	0.100
226.000	45.638	0.100
226.100	41.128	0.100
226.200	46.521	0.100
226.300	44.956	0.100
226.400	42.686	0.100
226.500	50.828	0.100
226.600	55.962	0.100
226.700	43.403	0.100
226.800	49.871	0.100
226.900	44.768	0.100
227.000	52.035	0.100
227.100	45.338	0.100
227.200	46.534	0.100
227.300	44.418	0.100
227.400	34.679	0.100
227.500	52.611	0.100
227.600	51.490	0.100
227.700	47.033	0.100
227.800	53.958	0.100
227.900	56.764	0.100
228.000	44.455	0.100
228.100	49.431	0.100
228.200	55.785	0.100
228.300	54.384	0.100
228.400	53.029	0.100
228.500	47.032	0.100
228.600	51.637	0.100
228.700	44.958	0.100
228.800	54.723	0.100
228.900	55.958	0.100
229.000	46.749	0.100
229.100	48.463	0.100
229.200	50.043	0.100
229.300	55.272	0.100
229.400	46.868	0.100
229.500	42.492	0.100
229.600	54.622	0.100
229.700	40.122	0.100
229.800	43.700	0.100
229.900	66.138	0.100
230.000	39.340	0.100
230.100	35.671	0.100
230.200	42.404	0.100
230.300	41.771	0.100
230.400	56.426	0.100
230.500	44.560	0.100
230.600	39.547	0.100
230.700	52.596	0.100
230.800	62.190	0.100
230.900	55.909	0.100
231.000	51.536	0.100
231.100	50.295	0.100
231.200	35.814	0.100
231.300	49.701	0.100
231.400	56.300	0.100
231.500	50.926	0.100
231.600	35.819	0.100
231.700	44.219	0.100
231.800	49.563	0.100
231.900	52.594	0.100
232.000	52.465	0.100
232.100	53.746	0.100
232.200	50.719	0.100
232.300	50.504	0.100
232.400	37.400	0.100
232.500	36.385	0.100
232.600	50.881	0.100
232.700	42.085	0.100
232.800	45.578	0.100
232.900	41.754	0.100
233.000	43.988	0.100
233.100	29.174	0.100
233.200	47.558	0.100
233.300	41.235	0.100
233.400	51.510	0.100
233.500	44.357	0.100
233.600	47.575	0.100
233.700	51.380	0.100
233.800	52.941	0.100
233.900	46.493	0.100
234.000	49.949	0.100
234.100	53.601	0.100
234.200	53.149	0.100
234.300	41.672	0.100
234.400	47.650	0.100
234.500	42.717	0.100
234.600	50.212	0.100
234.700	53.783	0.100
234.800	36.630	0.100
234.900	40.498	0.100
235.000	54.565	0.100
235.100	36.616	0.100
235.200	46.008	0.100
235.300	51.437	0.100
235.400	50.166	0.100
235.500	51.844	0.100
235.600	46.086	0.100
235.700	43.966	0.100
235.800	49.042	0.100
235.900	47.699	0.100
236.000	52.880	0.100
236.100	56.943	0.100
236.200	48.732	0.100
236.300	38.755	0.100
236.400	52.012	0.100
236.500	52.777	0.100
236.600	50.197	0.100
236.700	51.190	0.100
236.800	44.609	0.100
236.900	48.297	0.100
237.000	54.684	0.100
237.100	47.342	0.100
237.200	37.237	0.100
237.300	51.169	0.100
237.400	46.822	0.100
237.500	32.131	0.100
237.600	41.825	0.100
237.700	46.602	0.100
237.800	65.549	0.100
237.900	55.903	0.100
238.000	52.225	0.100
238.100	47.768	0.100
238.200	43.640	0.100
238.300	44.770	0.100
238.400	45.301	0.100
238.500	47.595	0.100
238.600	44.124	0.100
238.700	52.047	0.100
238.800	42.048	0.100
238.900	40.743	0.100
239.000	47.714	0.100
239.100	41.848	0.100
239.200	53.434	0.100
239.300	42.664	0.100
239.400	36.770	0.100
239.500	54.205	0.100
239.600	49.539	0.100
239.700	33.036	0.100
239.800	35.749	0.100
239.900	50.767	0.100
240.000	41.060	0.100
240.100	37.020	0.100
240.200	20.062	0.100
240.300	21.559	0.100
240.400	14.417	0.100
240.500	2.391	0.100
240.600	-3.086	0.100
240.700	-4.697	0.100
240.800	-8.718	0.100
240.900	-22.102	0.100
241.000	-12.578	0.100
241.100	-17.834	0.100
241.200	-15.452	0.100
241.300	-25.053	0.100
241.400	-33.374	0.100
241.500	-27.245	0.100
241.600	-20.323	0.100
241.700	-33.278	0.100
241.800	-17.322	0.100
241.900	-13.648	0.100
242.000	-21.975	0.100
242.100	-26.506	0.100
242.200	-43.131	0.100
242.300	-32.931	0.100
242.400	-24.979	0.100
242.500	-30.139	0.100
242.600	-27.274	0.100
242.700	-33.334	0.100
242.800	-31.870	0.100
242.900	-29.979	0.100
243.000	-25.625	0.100
243.100	-36.776	0.100
243.200	-27.144	0.100
243.300	-27.286	0.100
243.400	-22.715	0.100
243.500	-25.328	0.100
243.600	-16.116	0.100
243.700	-28.825	0.100
243.800	-26.065	0.100
243.900	-41.771	0.100
244.000	-34.110	0.100
244.100	-29.350	0.100
244.200	-39.756	0.100
244.300	-33.823	0.100
244.400	-15.470	0.100
244.500	-20.538	0.100
244.600	-22.246	0.100
244.700	-19.661	0.100
244.800	-37.908	0.100
244.900	-36.839	0.100
245.000	-23.751	0.100
245.100	-28.654	0.100
245.200	-31.590	0.100
245.300	-27.367	0.100
245.400	-32.458	0.100
245.500	-20.147	0.100
245.600	-40.278	0.100
245.700	-26.699	0.100
245.800	-30.389	0.100
245.900	-28.708	0.100
246.000	-32.262	0.100
246.100	-17.833	0.100
246.200	-22.100	0.100
246.300	-19.197	0.100
246.400	-36.990	0.100
246.500	-19.810	0.100
246.600	-15.419	0.100
246.700	-22.226	0.100
246.800	-20.846	0.100
246.900	-26.471	0.100
247.000	-31.915	0.100
247.100	-28.352	0.100
247.200	-18.338	0.100
247.300	-27.007	0.100
247.400	-24.031	0.100
247.500	-38.196	0.100
247.600	-14.021	0.100
247.700	-25.719	0.100
247.800	-35.660	0.100
247.900	-18.298	0.100
248.000	-29.468	0.100
248.100	-27.455	0.100
248.200	-16.857	0.100
248.300	-24.627	0.100
248.400	-24.041	0.100
248.500	-23.464	0.100
248.600	-25.464	0.100
248.700	-24.165	0.100
248.800	-30.603	0.100
248.900	-14.351	0.100
249.000	-11.239	0.100
249.100	-38.619	0.100
249.200	-15.623	0.100
249.300	-15.471	0.100
249.400	-15.453	0.100
249.500	-12.617	0.100
249.600	-21.595	0.100
249.700	-32.490	0.100
249.800	-20.265	0.100
249.900	-18.991	0.100
250.000	-28.577	0.100
250.100	-18.728	0.100
250.200	-17.060	0.100
250.300	-22.719	0.100
250.400	-36.385	0.100
250.500	-18.096	0.100
250.600	-23.512	0.100
250.700	-25.340	0.100
250.800	-31.751	0.100
250.900	-30.915	0.100
251.000	-16.607	0.100
251.100	-15.986	0.100
251.200	-23.180	0.100
251.300	-21.126	0.100
251.400	-18.234	0.100
251.500	-18.940	0.100
251.600	-20.604	0.100
251.700	-25.533	0.100
251.800	-27.780	0.100
251.900	-23.553	0.100
252.000	-15.477	0.100
252.100	-18.718	0.100
252.200	-21.433	0.100
252.300	-12.195	0.100
252.400	-11.728	0.100
252.500	-26.429	0.100
252.600	-29.236	0.100
252.700	-10.295	0.100
252.800	-23.190	0.100
252.900	-22.882	0.100
253.000	-17.251	0.100
253.100	-27.897	0.100
253.200	-13.276	0.100
253.300	-24.646	0.100
253.400	-27.497	0.100
253.500	-19.349	0.100
253.600	-22.985	0.100
253.700	-18.631	0.100
253.800	-32.948	0.100
253.900	-10.429	0.100
254.000	-25.790	0.100
254.100	-22.061	0.100
254.200	-22.984	0.100
254.300	-19.549	0.100
254.400	-14.032	0.100
254.500	-24.724	0.100
254.600	-23.130	0.100
254.700	-17.974	0.100
254.800	-27.816	0.100
254.900	-34.258	0.100
255.000	-23.661	0.100
255.100	-19.959	0.100
255.200	-12.722	0.100
255.300	-23.493	0.100
255.400	-10.956	0.100
255.500	-24.504	0.100
255.600	-23.299	0.100
255.700	-26.383	0.100
255.800	-13.546	0.100
255.900	-22.429	0.100
256.000	-24.225	0.100
256.100	-17.281	0.100
256.200	-21.633	0.100
256.300	-17.591	0.100
256.400	-23.321	0.100
256.500	-34.311	0.100
256.600	-14.082	0.100
256.700	-23.348	0.100
256.800	-21.977	0.100
256.900	-13.807	0.100
257.000	-22.699	0.100
257.100	-20.229	0.100
257.200	-27.851	0.100
257.300	-19.614	0.100
257.400	-30.859	0.100
257.500	-15.012	0.100
257.600	-23.062	0.100
257.700	-28.754	0.100
257.800	-14.949	0.100
257.900	-11.519	0.100
258.000	-24.035	0.100
258.100	-21.860	0.100
258.200	-34.753	0.100
258.300	-23.538	0.100
258.400	-30.269	0.100
258.500	-13.288	0.100
258.600	-35.400	0.100
258.700	-17.712	0.100
258.800	-10.420	0.100
258.900	-19.241	0.100
259.000	-24.985	0.100
259.100	-15.607	0.100
259.200	-17.496	0.100
259.300	-29.879	0.100
259.400	-7.035	0.100
259.500	-27.252	0.100
259.600	-32.319	0.100
259.700	-22.993	0.100
259.800	-18.590	0.100
259.900	-14.757	0.100
260.000	-20.406	0.100
260.100	-21.050	0.100
260.200	-14.662	0.100
260.300	-31.956	0.100
260.400	-23.698	0.100
260.500	-24.049	0.100
260.600	-18.031	0.100
260.700	-24.982	0.100
260.800	-20.770	0.100
260.900	-14.869	0.100
261.000	-20.146	0.100
261.100	-34.328	0.100
261.200	-17.119	0.100
261.300	-12.655	0.100
261.400	-23.130	0.100
261.500	-22.928	0.100
261.600	-29.326	0.100
261.700	-24.239	0.100
261.800	-23.163	0.100
261.900	-16.010	0.100
262.000	-18.473	0.100
262.100	-30.611	0.100
262.200	-24.999	0.100
262.300	-32.126	0.100
262.400	-19.020	0.100
262.500	-17.016	0.100
262.600	-24.273	0.100
262.700	-23.042	0.100
262.800	-23.857	0.100
262.900	-35.622	0.100
263.000	-11.087	0.100
263.100	-18.964	0.100
263.200	-18.630	0.100
263.300	-12.388	0.100
263.400	-21.917	0.100
263.500	-21.115	0.100
263.600	-25.682	0.100
263.700	-21.190	0.100
263.800	-24.085	0.100
263.900	-27.892	0.100
264.000	-28.250	0.100
264.100	-18.230	0.100
264.200	-15.492	0.100
264.300	-16.166	0.100
264.400	-27.731	0.100
264.500	-24.143	0.100
264.600	-10.760	0.100
264.700	-28.829	0.100
264.800	-32.030	0.100
264.900	-39.958	0.100
265.000	-32.631	0.100
265.100	-33.524	0.100
265.200	-30.605	0.100
265.300	-13.009	0.100
265.400	-13.284	0.100
265.500	-16.469	0.100
265.600	-22.504	0.100
265.700	-27.746	0.100
265.800	-19.958	0.100
265.900	-25.573	0.100
266.000	-23.033	0.100
266.100	-12.108	0.100
266.200	-27.931	0.100
266.300	-26.855	0.100
266.400	-20.932	0.100
266.500	-18.897	0.100
266.600	-47.386	0.100
266.700	-27.618	0.100
266.800	-19.211	0.100
266.900	-24.993	0.100
267.000	-26.991	0.100
267.100	-35.099	0.100
267.200	-15.738	0.100
267.300	-24.683	0.100
267.400	-28.593	0.100
267.500	-22.627	0.100
267.600	-15.876	0.100
267.700	-17.903	0.100
267.800	-29.120	0.100
267.900	-24.814	0.100
268.000	-24.945	0.100
268.100	-14.323	0.100
268.200	-20.673	0.100
268.300	-20.963	0.100
268.400	-20.490	0.100
268.500	-27.541	0.100
268.600	-29.975	0.100
268.700	-20.871	0.100
268.800	-20.261	0.100
268.900	-15.531	0.100
269.000	-26.996	0.100
269.100	-23.841	0.100
269.200	-23.144	0.100
269.300	-20.869	0.100
269.400	-23.535	0.100
269.500	-25.147	0.100
269.600	-33.486	0.100
269.700	-29.019	0.100
269.800	-23.738	0.100
269.900	-18.852	0.100
270.000	-23.250	0.100
270.100	-32.982	0.100
270.200	-32.584	0.100
270.300	-19.907	0.100
270.400	-21.687	0.100
270.500	-28.422	0.100
270.600	-37.176	0.100
270.700	-27.751	0.100
270.800	-11.812	0.100
270.900	-26.798	0.100
271.000	-23.043	0.100
271.100	-14.220	0.100
271.200	-19.336	0.100
271.300	-29.162	0.100
271.400	-27.599	0.100
271.500	-20.846	0.100
271.600	-26.682	0.100
271.700	-20.714	0.100
271.800	-25.888	0.100
271.900	-28.198	0.100
272.000	-26.173	0.100
272.100	-15.028	0.100
272.200	-24.366	0.100
272.300	-18.681	0.100
272.400	-19.740	0.100
272.500	-21.728	0.100
272.600	-10.521	0.100
272.700	-29.229	0.100
272.800	-22.516	0.100
272.900	-20.218	0.100
273.000	-27.763	0.100
273.100	-29.305	0.100
273.200	-23.615	0.100
273.300	-28.115	0.100
273.400	-10.647	0.100
273.500	-21.889	0.100
273.600	-25.163	0.100
273.700	-26.919	0.100
273.800	-32.034	0.100
273.900	-34.760	0.100
274.000	-32.132	0.100
274.100	-14.115	0.100
274.200	-16.275	0.100
274.300	-27.195	0.100
274.400	-28.048	0.100
274.500	-26.639	0.100
274.600	-30.831	0.100
274.700	-20.239	0.100
274.800	-27.241	0.100
274.900	-24.299	0.100
275.000	-11.455	0.100
275.100	-30.106	0.100
275.200	-23.135	0.100
275.300	-30.278	0.100
275.400	-22.257	0.100
275.500	-7.059	0.100
275.600	-20.592	0.100
275.700	-23.257	0.100
275.800	-24.513	0.100
275.900	-26.540	0.100
276.000	-23.315	0.100
276.100	-32.113	0.100
276.200	-23.305	0.100
276.300	-23.217	0.100
276.400	-20.288	0.100
276.500	-28.552	0.100
276.600	-24.848	0.100
276.700	-19.354	0.100
276.800	-23.363	0.100
276.900	-19.170	0.100
277.000	-30.560	0.100
277.100	-17.465	0.100
277.200	-25.690	0.100
277.300	-22.434	0.100
277.400	-30.256	0.100
277.500	-12.539	0.100
277.600	-13.331	0.100
277.700	-24.547	0.100
277.800	-35.336	0.100
277.900	-26.833	0.100
278.000	-9.994	0.100
278.100	-18.429	0.100
278.200	-36.646	0.100
278.300	-33.779	0.100
278.400	-31.307	0.100
278.500	-17.457	0.100
278.600	-16.011	0.100
278.700	-29.413	0.100
278.800	-25.199	0.100
278.900	-30.347	0.100
279.000	-22.728	0.100
279.100	-28.156	0.100
279.200	-20.796	0.100
279.300	-21.823	0.100
279.400	-19.850	0.100
279.500	-15.215	0.100
279.600	-20.302	0.100
279.700	-25.544	0.100
279.800	-24.155	0.100
279.900	-19.042	0.100
280.000	-12.737	0.100
280.100	-15.122	0.100
280.200	-26.352	0.100
280.300	-17.675	0.100
280.400	-23.827	0.100
280.500	-20.641	0.100
280.600	-29.937	0.100
280.700	-10.698	0.100
280.800	-24.328	0.100
280.900	-28.083	0.100
281.000	-15.975	0.100
281.100	-18.762	0.100
281.200	-12.941	0.100
281.300	-37.998	0.100
281.400	-28.324	0.100
281.500	-17.489	0.100
281.600	-18.734	0.100
281.700	-26.295	0.100
281.800	-18.776	0.100
281.900	-23.895	0.100
282.000	-25.150	0.100
282.100	-11.629	0.100
282.200	-22.430	0.100
282.300	-34.319	0.100
282.400	-23.614	0.100
282.500	-21.175	0.100
282.600	-28.621	0.100
282.700	-20.757	0.100
282.800	-31.903	0.100
282.900	-15.448	0.100
283.000	-21.279	0.100
283.100	-11.063	0.100
283.200	-26.101	0.100
283.300	-24.242	0.100
283.400	-26.840	0.100
283.500	-21.914	0.100
283.600	-14.708	0.100
283.700	-30.200	0.100
283.800	-25.795	0.100
283.900	-2.447	0.100
284.000	-6.260	0.100
284.100	-23.530	0.100
284.200	-28.236	0.100
284.300	-11.685	0.100
284.400	-21.940	0.100
284.500	-21.335	0.100
284.600	-20.345	0.100
284.700	-32.574	0.100
284.800	-32.464	0.100
284.900	-14.570	0.100
285.000	-24.361	0.100
285.100	-9.756	0.100
285.200	-15.776	0.100
285.300	-15.041	0.100
285.400	-15.769	0.100
285.500	-34.432	0.100
285.600	-35.261	0.100
285.700	-23.390	0.100
285.800	-18.717	0.100
285.900	-8.505	0.100
286.000	-18.815	0.100
286.100	-22.050	0.100
286.200	-17.450	0.100
286.300	-19.240	0.100
286.400	-17.937	0.100
286.500	-27.506	0.100
286.600	-17.473	0.100
286.700	-11.642	0.100
286.800	-20.371	0.100
286.900	-19.774	0.100
287.000	-22.675	0.100
287.100	-16.062	0.100
287.200	-26.899	0.100
287.300	-12.205	0.100
287.400	-14.739	0.100
287.500	-23.115	0.100
287.600	-26.967	0.100
287.700	-16.442	0.100
287.800	-16.347	0.100
287.900	-21.747	0.100
288.000	-25.446	0.100
288.100	-11.870	0.100
288.200	-15.940	0.100
288.300	-26.213	0.100
288.400	-9.608	0.100
288.500	-11.004	0.100
288.600	-24.431	0.100
288.700	-33.007	0.100
288.800	-18.611	0.100
288.900	-20.302	0.100
289.000	-12.795	0.100
289.100	-8.269	0.100
289.200	-15.472	0.100
289.300	-15.741	0.100
289.400	-21.457	0.100
289.500	-14.274	0.100
289.600	-24.959	0.100
289.700	-12.678	0.100
289.800	-26.397	0.100
289.900	-9.743	0.100
290.000	-6.193	0.100
290.100	-32.456	0.100
290.200	-16.586	0.100
290.300	-13.781	0.100
290.400	-13.126	0.100
290.500	-30.426	0.100
290.600	-30.401	0.100
290.700	-30.555	0.100
290.800	-8.487	0.100
290.900	-33.910	0.100
291.000	-18.162	0.100
291.100	-13.338	0.100
291.200	-14.535	0.100
291.300	-24.759	0.100
291.400	-20.275	0.100
291.500	-28.424	0.100
291.600	-20.506	0.100
291.700	-13.837	0.100
291.800	-16.413	0.100
291.900	-19.196	0.100
292.000	-16.753	0.100
292.100	-25.684	0.100
292.200	-23.847	0.100
292.300	-14.415	0.100
292.400	-12.734	0.100
292.500	-16.154	0.100
292.600	-23.492	0.100
292.700	-18.213	0.100
292.800	-22.616	0.100
292.900	-26.350	0.100
293.000	-1.687	0.100
293.100	-14.725	0.100
293.200	-18.690	0.100
293.300	-27.204	0.100
293.400	-18.853	0.100
293.500	-16.528	0.100
293.600	-10.155	0.100
293.700	-22.924	0.100
293.800	-20.095	0.100
293.900	-16.592	0.100
294.000	-15.787	0.100
294.100	-20.727	0.100
294.200	-22.423	0.100
294.300	-10.631	0.100
294.400	-20.569	0.100
294.500	-21.238	0.100
294.600	-16.012	0.100
294.700	-22.576	0.100
294.800	-11.794	0.100
294.900	-10.531	0.100
295.000	-16.308	0.100
295.100	-30.084	0.100
295.200	-10.688	0.100
295.300	-9.702	0.100
295.400	-10.706	0.100
295.500	-11.512	0.100
295.600	-15.255	0.100
295.700	-21.926	0.100
295.800	-18.401	0.100
295.900	-28.602	0.100
296.000	-15.299	0.100
296.100	-10.978	0.100
296.200	-6.455	0.100
296.300	-24.839	0.100
296.400	-28.443	0.100
296.500	-20.400	0.100
296.600	-14.202	0.100
296.700	-21.917	0.100
296.800	-11.441	0.100
296.900	2.822	0.100
297.000	-12.337	0.100
297.100	-11.959	0.100
297.200	-17.913	0.100
297.300	-27.066	0.100
297.400	-20.333	0.100
297.500	-23.842	0.100
297.600	-17.159	0.100
297.700	-25.942	0.100
297.800	-11.958	0.100
297.900	-2.332	0.100
298.000	-0.040	0.100
298.100	-23.676	0.100
298.200	-28.397	0.100
298.300	-16.503	0.100
298.400	-8.945	0.100
298.500	-13.487	0.100
298.600	-20.480	0.100
298.700	-20.861	0.100
298.800	-29.365	0.100
298.900	-21.135	0.100
299.000	-2.730	0.100
299.100	-16.722	0.100
299.200	-14.799	0.100
299.300	-15.445	0.100
299.400	-15.990	0.100
299.500	-19.122	0.100
299.600	-10.763	0.100
299.700	-22.967	0.100
299.800	-13.644	0.100
299.900	-6.245	0.100
300.000	-15.522	0.100
300.100	-11.478	0.100
300.200	-18.077	0.100
300.300	-11.855	0.100
300.400	-21.659	0.100
300.500	-16.544	0.100
300.600	-12.304	0.100
300.700	-20.874	0.100
300.800	-24.710	0.100
300.900	-15.696	0.100
301.000	-11.047	0.100
301.100	-12.011	0.100
301.200	-5.614	0.100
301.300	-4.922	0.100
301.400	-13.949	0.100
301.500	-13.430	0.100
301.600	-11.986	0.100
301.700	-15.870	0.100
301.800	-14.306	0.100
301.900	-20.194	0.100
302.000	-25.286	0.100
302.100	-17.805	0.100
302.200	-16.272	0.100
302.300	-1.215	0.100
302.400	-6.558	0.100
302.500	-17.663	0.100
302.600	-13.269	0.100
302.700	-24.569	0.100
302.800	-19.393	0.100
302.900	-11.562	0.100
303.000	-8.310	0.100
303.100	-21.219	0.100
303.200	-15.261	0.100
303.300	-17.531	0.100
303.400	-12.911	0.100
303.500	-16.002	0.100
303.600	-18.021	0.100
303.700	-16.212	0.100
303.800	-18.012	0.100
303.900	-27.735	0.100
304.000	-18.890	0.100
304.100	-21.320	0.100
304.200	-13.828	0.100
304.300	-1.436	0.100
304.400	-18.499	0.100
304.500	-7.116	0.100
304.600	-8.030	0.100
304.700	-11.771	0.100
304.800	-18.145	0.100
304.900	-20.843	0.100
305.000	-27.350	0.100
305.100	-6.576	0.100
305.200	-5.973	0.100
305.300	-25.547	0.100
305.400	-14.298	0.100
305.500	-1.261	0.100
305.600	-4.738	0.100
305.700	-12.104	0.100
305.800	-14.607	0.100
305.900	-17.507	0.100
306.000	-30.817	0.100
306.100	-17.617	0.100
306.200	-8.310	0.100
306.300	-16.809	0.100
306.400	-9.690	0.100
306.500	-5.969	0.100
306.600	-10.269	0.100
306.700	-23.938	0.100
306.800	-23.131	0.100
306.900	-16.899	0.100
307.000	-17.921	0.100
307.100	-19.471	0.100
307.200	-6.252	0.100
307.300	-14.923	0.100
307.400	-12.644	0.100
307.500	-17.438	0.100
307.600	4.184	0.100
307.700	-23.486	0.100
307.800	-16.432	0.100
307.900	-15.469	0.100
308.000	-12.432	0.100
308.100	-14.374	0.100
308.200	-10.408	0.100
308.300	-10.685	0.100
308.400	-10.055	0.100
308.500	-21.339	0.100
308.600	-6.165	0.100
308.700	-19.169	0.100
308.800	-12.593	0.100
308.900	-15.030	0.100
309.000	-17.302	0.100
309.100	-7.967	0.100
309.200	-10.842	0.100
309.300	-12.738	0.100
309.400	-0.270	0.100
309.500	-6.443	0.100
309.600	-16.935	0.100
309.700	-6.682	0.100
309.800	-8.936	0.100
309.900	-25.611	0.100
310.000	-32.440	0.100
310.100	-11.375	0.100
310.200	-12.453	0.100
310.300	-4.699	0.100
310.400	-1.659	0.100
310.500	-6.572	0.100
310.600	-18.781	0.100
310.700	-10.785	0.100
310.800	-21.979	0.100
310.900	-7.874	0.100
311.000	-5.491	0.100
311.100	-14.826	0.100
311.200	-18.006	0.100
311.300	-20.087	0.100
311.400	-1.909	0.100
311.500	-11.272	0.100
311.600	-18.025	0.100
311.700	-14.287	0.100
311.800	-4.846	0.100
311.900	-12.431	0.100
312.000	-21.328	0.100
312.100	-24.057	0.100
312.200	-11.739	0.100
312.300	-11.947	0.100
312.400	-7.920	0.100
312.500	-7.998	0.100
312.600	-23.101	0.100
312.700	-7.628	0.100
312.800	-22.612	0.100
312.900	-15.270	0.100
313.000	-18.376	0.100
313.100	-8.847	0.100
313.200	-13.103	0.100
313.300	-8.240	0.100
313.400	-11.069	0.100
313.500	-12.733	0.100
313.600	-21.309	0.100
313.700	-4.839	0.100
313.800	-20.616	0.100
313.900	-1.999	0.100
314.000	-13.584	0.100
314.100	1.483	0.100
314.200	-13.252	0.100
314.300	-17.933	0.100
314.400	-16.288	0.100
314.500	-4.001	0.100
314.600	-14.534	0.100
314.700	-5.045	0.100
314.800	-12.332	0.100
314.900	-21.035	0.100
315.000	-19.201	0.100
315.100	-6.262	0.100
315.200	-2.746	0.100
315.300	-18.494	0.100
315.400	-14.468	0.100
315.500	-13.574	0.100
315.600	-24.395	0.100
315.700	-18.694	0.100
315.800	-17.598	0.100
315.900	-6.387	0.100
316.000	-6.650	0.100
316.100	-13.493	0.100
316.200	-16.004	0.100
316.300	-16.412	0.100
316.400	-12.528	0.100
316.500	-12.629	0.100
316.600	2.907	0.100
316.700	-11.547	0.100
316.800	-19.657	0.100
316.900	-14.063	0.100
317.000	-8.236	0.100
317.100	-6.464	0.100
317.200	-12.563	0.100
317.300	4.722	0.100
317.400	-11.847	0.100
317.500	-12.390	0.100
317.600	-12.414	0.100
317.700	-1.314	0.100
317.800	-9.782	0.100
317.900	-10.312	0.100
318.000	-13.024	0.100
318.100	-12.064	0.100
318.200	-9.867	0.100
318.300	1.814	0.100
318.400	-8.781	0.100
318.500	-22.363	0.100
318.600	-11.820	0.100
318.700	-11.258	0.100
318.800	-2.351	0.100
318.900	3.579	0.100
319.000	-19.534	0.100
319.100	-12.852	0.100
319.200	-14.579	0.100
319.300	-10.237	0.100
319.400	-11.707	0.100
319.500	-14.204	0.100
319.600	-10.749	0.100
319.700	-10.350	0.100
319.800	-9.509	0.100
319.900	-12.337	0.100
320.000	1.596	0.100
320.100	-13.818	0.100
320.200	-16.190	0.100
320.300	-24.991	0.100
320.400	-2.744	0.100
320.500	-8.549	0.100
320.600	-19.572	0.100
320.700	-13.924	0.100
320.800	-0.290	0.100
320.900	-19.395	0.100
321.000	-11.749	0.100
321.100	-9.194	0.100
321.200	-16.434	0.100
321.300	-6.292	0.100
321.400	-6.564	0.100
321.500	2.979	0.100
321.600	-10.045	0.100
321.700	-15.089	0.100
321.800	-15.941	0.100
321.900	-11.135	0.100
322.000	-9.847	0.100
322.100	-17.937	0.100
322.200	-8.614	0.100
322.300	-12.716	0.100
322.400	-12.533	0.100
322.500	-26.959	0.100
322.600	-8.542	0.100
322.700	-8.200	0.100
322.800	-12.967	0.100
322.900	-8.851	0.100
323.000	-4.429	0.100
323.100	-8.171	0.100
323.200	-15.838	0.100
323.300	-0.237	0.100
323.400	-8.488	0.100
323.500	-8.041	0.100
323.600	-14.945	0.100
323.700	-14.013	0.100
323.800	-7.086	0.100
323.900	-10.182	0.100
324.000	-4.816	0.100
324.100	-13.745	0.100
324.200	-10.031	0.100
324.300	-26.099	0.100
324.400	-7.799	0.100
324.500	-24.993	0.100
324.600	-7.691	0.100
324.700	-13.168	0.100
324.800	-8.118	0.100
324.900	-6.122	0.100
325.000	-6.251	0.100
325.100	-5.330	0.100
325.200	-12.706	0.100
325.300	-9.130	0.100
325.400	1.137	0.100
325.500	-10.408	0.100
325.600	-8.682	0.100
325.700	-6.468	0.100
325.800	-19.192	0.100
325.900	-14.284	0.100
326.000	-23.814	0.100
326.100	-20.547	0.100
326.200	-11.727	0.100
326.300	-10.095	0.100
326.400	-7.314	0.100
326.500	-4.865	0.100
326.600	-14.373	0.100
326.700	-19.566	0.100
326.800	-12.548	0.100
326.900	-3.909	0.100
327.000	2.086	0.100
327.100	-29.252	0.100
327.200	-7.199	0.100
327.300	-2.500	0.100
327.400	-10.144	0.100
327.500	-12.285	0.100
327.600	3.643	0.100
327.700	-17.800	0.100
327.800	-12.531	0.100
327.900	-5.793	0.100
328.000	-17.182	0.100
328.100	-5.977	0.100
328.200	-7.686	0.100
328.300	-13.557	0.100
328.400	-15.077	0.100
328.500	-7.934	0.100
328.600	0.503	0.100
328.700	-11.044	0.100
328.800	-20.627	0.100
328.900	-11.636	0.100
329.000	-13.432	0.100
329.100	-14.664	0.100
329.200	-10.997	0.100
329.300	-5.180	0.100
329.400	-12.134	0.100
329.500	-14.089	0.100
329.600	-9.847	0.100
329.700	-5.216	0.100
329.800	-10.140	0.100
329.900	-8.466	0.100
330.000	-8.557	0.100
330.100	-10.016	0.100
330.200	3.054	0.100
330.300	18.459	0.100
330.400	47.421	0.100
330.500	75.404	0.100
330.600	83.810	0.100
330.700	89.321	0.100
330.800	102.553	0.100
330.900	97.305	0.100
331.000	102.304	0.100
331.100	104.350	0.100
331.200	95.142	0.100
331.300	102.643	0.100
331.400	102.189	0.100
331.500	97.292	0.100
331.600	81.955	0.100
331.700	94.281	0.100
331.800	90.917	0.100
331.900	89.220	0.100
332.000	74.212	0.100
332.100	88.682	0.100
332.200	82.998	0.100
332.300	75.485	0.100
332.400	63.746	0.100
332.500	69.985	0.100
332.600	61.183	0.100
332.700	71.361	0.100
332.800	62.837	0.100
332.900	52.245	0.100
333.000	58.394	0.100
333.100	69.178	0.100
333.200	69.848	0.100
333.300	65.912	0.100
333.400	55.504	0.100
333.500	56.188	0.100
333.600	49.758	0.100
333.700	57.164	0.100
333.800	38.507	0.100
333.900	53.839	0.100
334.000	45.037	0.100
334.100	49.850	0.100
334.200	61.490	0.100
334.300	45.156	0.100
334.400	43.403	0.100
334.500	43.461	0.100
334.600	33.776	0.100
334.700	50.010	0.100
334.800	42.998	0.100
334.900	40.081	0.100
335.000	42.648	0.100
335.100	45.953	0.100
335.200	36.819	0.100
335.300	44.874	0.100
335.400	45.006	0.100
335.500	47.396	0.100
335.600	54.557	0.100
335.700	45.711	0.100
335.800	42.071	0.100
335.900	41.900	0.100
336.000	47.564	0.100
336.100	42.426	0.100
336.200	34.149	0.100
336.300	34.545	0.100
336.400	38.274	0.100
336.500	38.117	0.100
336.600	44.393	0.100
336.700	55.490	0.100
336.800	43.553	0.100
336.900	43.794	0.100
337.000	49.678	0.100
337.100	58.257	0.100
337.200	48.254	0.100
337.300	42.049	0.100
337.400	54.468	0.100
337.500	65.196	0.100
337.600	58.471	0.100
337.700	73.440	0.100
337.800	66.209	0.100
337.900	59.301	0.100
338.000	64.879	0.100
338.100	67.575	0.100
338.200	69.276	0.100
338.300	75.784	0.100
338.400	65.456	0.100
338.500	66.309	0.100
338.600	57.562	0.100
338.700	71.873	0.100
338.800	68.767	0.100
338.900	70.382	0.100
339.000	71.361	0.100
339.100	74.147	0.100
339.200	78.876	0.100
339.300	71.072	0.100
339.400	76.791	0.100
339.500	61.799	0.100
339.600	75.400	0.100
339.700	76.676	0.100
339.800	77.638	0.100
339.900	84.430	0.100
340.000	79.911	0.100
340.100	76.088	0.100
340.200	83.878	0.100
340.300	77.400	0.100
340.400	83.469	0.100
340.500	71.887	0.100
340.600	74.672	0.100
340.700	82.853	0.100
340.800	67.227	0.100
340.900	57.877	0.100
341.000	63.944	0.100
341.100	69.766	0.100
341.200	78.819	0.100
341.300	74.162	0.100
341.400	90.753	0.100
341.500	76.373	0.100
341.600	85.917	0.100
341.700	66.097	0.100
341.800	70.446	0.100
341.900	76.687	0.100
342.000	75.591	0.100
342.100	63.253	0.100
342.200	83.766	0.100
342.300	76.838	0.100
342.400	74.113	0.100
342.500	69.178	0.100
342.600	85.355	0.100
342.700	80.030	0.100
342.800	67.167	0.100
342.900	87.887	0.100
343.000	70.813	0.100
343.100	80.481	0.100
343.200	74.721	0.100
343.300	78.442	0.100
343.400	63.594	0.100
343.500	67.343	0.100
343.600	78.557	0.100
343.700	65.384	0.100
343.800	75.045	0.100
343.900	74.754	0.100
344.000	75.067	0.100
344.100	74.945	0.100
344.200	68.846	0.100
344.300	71.647	0.100
344.400	75.747	0.100
344.500	76.374	0.100
344.600	68.129	0.100
344.700	76.151	0.100
344.800	71.211	0.100
344.900	56.268	0.100
345.000	64.554	0.100
345.100	81.463	0.100
345.200	67.107	0.100
345.300	74.333	0.100
345.400	59.644	0.100
345.500	67.586	0.100
345.600	71.382	0.100
345.700	67.735	0.100
345.800	65.131	0.100
345.900	65.060	0.100
346.000	69.884	0.100
346.100	70.858	0.100
346.200	69.071	0.100
346.300	63.185	0.100
346.400	63.472	0.100
346.500	67.981	0.100
346.600	60.676	0.100
346.700	67.635	0.100
346.800	77.546	0.100
346.900	70.173	0.100
347.000	58.094	0.100
347.100	67.916	0.100
347.200	73.616	0.100
347.300	68.793	0.100
347.400	71.698	0.100
347.500	69.374	0.100
347.600	66.521	0.100
347.700	64.470	0.100
347.800	58.887	0.100
347.900	58.996	0.100
348.000	56.192	0.100
348.100	60.019	0.100
348.200	62.279	0.100
348.300	67.609	0.100
348.400	65.474	0.100
348.500	70.418	0.100
348.600	72.525	0.100
348.700	72.833	0.100
348.800	55.601	0.100
348.900	58.597	0.100
349.000	63.439	0.100
349.100	68.160	0.100
349.200	74.715	0.100
349.300	58.479	0.100
349.400	68.281	0.100
349.500	66.359	0.100
349.600	59.003	0.100
349.700	57.681	0.100
349.800	67.733	0.100
349.900	65.117	0.100
350.000	56.607	0.100
350.100	53.555	0.100
350.200	58.029	0.100
350.300	52.157	0.100
350.400	50.447	0.100
350.500	67.074	0.100
350.600	76.224	0.100
350.700	60.135	0.100
350.800	57.710	0.100
350.900	68.653	0.100
351.000	55.829	0.100
351.100	62.277	0.100
351.200	44.610	0.100
351.300	52.166	0.100
351.400	72.958	0.100
351.500	62.647	0.100
351.600	71.403	0.100
351.700	68.266	0.100
351.800	67.424	0.100
351.900	59.433	0.100
352.000	56.843	0.100
352.100	61.743	0.100
352.200	47.365	0.100
352.300	48.946	0.100
352.400	54.171	0.100
352.500	64.184	0.100
352.600	72.487	0.100
352.700	65.849	0.100
352.800	50.897	0.100
352.900	60.673	0.100
353.000	53.185	0.100
353.100	56.874	0.100
353.200	53.692	0.100
353.300	48.970	0.100
353.400	54.618	0.100
353.500	48.746	0.100
353.600	57.624	0.100
353.700	47.687	0.100
353.800	43.721	0.100
353.900	49.442	0.100
354.000	50.886	0.100
354.100	58.515	0.100
354.200	60.398	0.100
354.300	65.433	0.100
354.400	62.455	0.100
354.500	65.011	0.100
354.600	68.502	0.100
354.700	42.693	0.100
354.800	58.967	0.100
354.900	56.249	0.100
355.000	59.144	0.100
355.100	59.028	0.100
355.200	56.498	0.100
355.300	64.869	0.100
355.400	53.412	0.100
355.500	62.497	0.100
355.600	52.089	0.100
355.700	42.195	0.100
355.800	55.365	0.100
355.900	45.540	0.100
356.000	48.106	0.100
356.100	66.932	0.100
356.200	53.957	0.100
356.300	70.303	0.100
356.400	60.850	0.100
356.500	59.550	0.100
356.600	49.798	0.100
356.700	48.790	0.100
356.800	57.546	0.100
356.900	58.134	0.100
357.000	58.110	0.100
357.100	51.382	0.100
357.200	57.425	0.100
357.300	55.417	0.100
357.400	55.023	0.100
357.500	56.888	0.100
357.600	69.405	0.100
357.700	49.031	0.100
357.800	39.095	0.100
357.900	52.516	0.100
358.000	50.222	0.100
358.100	55.931	0.100
358.200	54.018	0.100
358.300	56.623	0.100
358.400	46.690	0.100
358.500	60.173	0.100
358.600	57.653	0.100
358.700	66.437	0.100
358.800	54.449	0.100
358.900	56.891	0.100
359.000	58.435	0.100
359.100	54.725	0.100
359.200	67.656	0.100
359.300	55.501	0.100
359.400	57.027	0.100
359.500	51.180	0.100
359.600	48.801	0.100
359.700	49.853	0.100
359.800	53.948	0.100
359.900	61.552	0.100
360.000	53.779	0.100
360.100	54.966	0.100
360.200	54.303	0.100
360.300	51.370	0.100
360.400	58.027	0.100
360.500	46.934	0.100
360.600	45.170	0.100
360.700	59.763	0.100
360.800	61.870	0.100
360.900	48.154	0.100
361.000	51.153	0.100
361.100	46.646	0.100
361.200	51.504	0.100
361.300	70.086	0.100
361.400	58.718	0.100
361.500	54.453	0.100
361.600	61.784	0.100
361.700	43.855	0.100
361.800	51.064	0.100
361.900	55.053	0.100
362.000	50.071	0.100
362.100	58.346	0.100
362.200	60.119	0.100
362.300	55.126	0.100
362.400	59.230	0.100
362.500	49.202	0.100
362.600	52.563	0.100
362.700	49.480	0.100
362.800	48.532	0.100
362.900	49.450	0.100
363.000	41.650	0.100
363.100	57.148	0.100
363.200	53.482	0.100
363.300	42.516	0.100
363.400	49.821	0.100
363.500	50.226	0.100
363.600	45.802	0.100
363.700	52.140	0.100
363.800	55.300	0.100
363.900	67.295	0.100
364.000	62.440	0.100
364.100	57.481	0.100
364.200	45.706	0.100
364.300	47.468	0.100
364.400	45.162	0.100
364.500	41.068	0.100
364.600	51.550	0.100
364.700	59.565	0.100
364.800	54.997	0.100
364.900	50.087	0.100
365.000	33.579	0.100
365.100	64.833	0.100
365.200	67.244	0.100
365.300	59.608	0.100
365.400	49.037	0.100
365.500	41.414	0.100
365.600	45.424	0.100
365.700	64.605	0.100
365.800	53.585	0.100
365.900	62.510	0.100
366.000	55.847	0.100
366.100	50.473	0.100
366.200	62.394	0.100
366.300	39.182	0.100
366.400	43.696	0.100
366.500	51.981	0.100
366.600	62.707	0.100
366.700	59.176	0.100
366.800	46.890	0.100
366.900	50.384	0.100
367.000	55.162	0.100
367.100	52.714	0.100
367.200	48.027	0.100
367.300	38.934	0.100
367.400	52.598	0.100
367.500	43.123	0.100
367.600	58.778	0.100
367.700	57.190	0.100
367.800	63.229	0.100
367.900	52.070	0.100
368.000	48.357	0.100
368.100	55.545	0.100
368.200	54.123	0.100
368.300	52.070	0.100
368.400	54.190	0.100
368.500	52.387	0.100
368.600	49.173	0.100
368.700	64.111	0.100
368.800	53.894	0.100
368.900	46.097	0.100
369.000	43.865	0.100
369.100	50.576	0.100
369.200	45.581	0.100
369.300	50.950	0.100
369.400	53.885	0.100
369.500	53.212	0.100
369.600	45.859	0.100
369.700	51.893	0.100
369.800	43.440	0.100
369.900	46.376	0.100
370.000	61.588	0.100
370.100	50.368	0.100
370.200	60.191	0.100
370.300	55.086	0.100
370.400	52.607	0.100
370.500	52.036	0.100
370.600	45.778	0.100
370.700	42.607	0.100
370.800	48.997	0.100
370.900	56.375	0.100
371.000	51.777	0.100
371.100	48.664	0.100
371.200	48.102	0.100
371.300	44.031	0.100
371.400	53.411	0.100
371.500	51.998	0.100
371.600	49.120	0.100
371.700	54.681	0.100
371.800	48.904	0.100
371.900	52.007	0.100
372.000	48.954	0.100
372.100	48.167	0.100
372.200	52.688	0.100
372.300	48.230	0.100
372.400	56.089	0.100
372.500	47.756	0.100
372.600	46.691	0.100
372.700	49.162	0.100
372.800	36.009	0.100
372.900	51.795	0.100
373.000	50.642	0.100
373.100	43.291	0.100
373.200	51.743	0.100
373.300	46.017	0.100
373.400	51.947	0.100
373.500	52.389	0.100
373.600	40.832	0.100
373.700	40.038	0.100
373.800	49.886	0.100
373.900	53.551	0.100
374.000	50.969	0.100
374.100	47.891	0.100
374.200	58.436	0.100
374.300	61.047	0.100
374.400	46.068	0.100
374.500	48.408	0.100
374.600	40.434	0.100
374.700	45.362	0.100
374.800	56.641	0.100
374.900	53.592	0.100
375.000	46.018	0.100
375.100	53.905	0.100
375.200	50.707	0.100
375.300	56.953	0.100
375.400	50.482	0.100
375.500	49.670	0.100
375.600	56.764	0.100
375.700	49.953	0.100
375.800	46.065	0.100
375.900	42.538	0.100
376.000	49.846	0.100
376.100	49.217	0.100
376.200	42.629	0.100
376.300	43.616	0.100
376.400	42.793	0.100
376.500	51.188	0.100
376.600	48.837	0.100
376.700	46.535	0.100
376.800	55.433	0.100
376.900	34.396	0.100
377.000	46.883	0.100
377.100	61.224	0.100
377.200	49.323	0.100
377.300	42.957	0.100
377.400	52.778	0.100
377.500	67.633	0.100
377.600	43.905	0.100
377.700	58.109	0.100
377.800	53.999	0.100
377.900	50.748	0.100
378.000	46.344	0.100
378.100	49.027	0.100
378.200	56.667	0.100
378.300	56.081	0.100
378.400	54.855	0.100
378.500	49.481	0.100
378.600	41.471	0.100
378.700	46.576	0.100
378.800	47.880	0.100
378.900	29.214	0.100
379.000	51.231	0.100
379.100	49.474	0.100
379.200	52.318	0.100
379.300	44.720	0.100
379.400	49.157	0.100
379.500	52.852	0.100
379.600	45.676	0.100
379.700	42.284	0.100
379.800	63.624	0.100
379.900	56.271	0.100
380.000	42.677	0.100
380.100	54.979	0.100
380.200	46.888	0.100
380.300	58.336	0.100
380.400	48.396	0.100
380.500	58.893	0.100
380.600	54.197	0.100
380.700	44.881	0.100
380.800	40.829	0.100
380.900	47.341	0.100
381.000	38.408	0.100
381.100	34.616	0.100
381.200	45.275	0.100
381.300	53.280	0.100
381.400	44.080	0.100
381.500	54.548	0.100
381.600	48.294	0.100
381.700	47.087	0.100
381.800	50.149	0.100
381.900	46.339	0.100
382.000	42.922	0.100
382.100	49.189	0.100
382.200	54.052	0.100
382.300	52.926	0.100
382.400	39.665	0.100
382.500	36.697	0.100
382.600	40.652	0.100
382.700	31.495	0.100
382.800	45.284	0.100
382.900	33.295	0.100
383.000	43.675	0.100
383.100	46.753	0.100
383.200	49.327	0.100
383.300	48.178	0.100
383.400	44.502	0.100
383.500	53.752	0.100
383.600	55.173	0.100
383.700	45.715	0.100
383.800	51.931	0.100
383.900	41.604	0.100
384.000	42.514	0.100
384.100	50.725	0.100
384.200	46.993	0.100
384.300	49.388	0.100
384.400	54.595	0.100
384.500	51.177	0.100
384.600	45.700	0.100
384.700	44.112	0.100
384.800	43.851	0.100
384.900	43.314	0.100
385.000	39.261	0.100
385.100	59.111	0.100
385.200	51.828	0.100
385.300	46.626	0.100
385.400	48.061	0.100
385.500	46.847	0.100
385.600	37.290	0.100
385.700	48.789	0.100
385.800	45.736	0.100
385.900	54.583	0.100
386.000	46.739	0.100
386.100	40.758	0.100
386.200	53.684	0.100
386.300	41.204	0.100
386.400	66.099	0.100
386.500	50.826	0.100
386.600	42.792	0.100
386.700	45.255	0.100
386.800	30.210	0.100
386.900	40.346	0.100
387.000	54.903	0.100
387.100	48.417	0.100
387.200	46.605	0.100
387.300	51.099	0.100
387.400	42.465	0.100
387.500	40.276	0.100
387.600	48.561	0.100
387.700	49.053	0.100
387.800	39.697	0.100
387.900	47.091	0.100
388.000	39.599	0.100
388.100	41.300	0.100
388.200	40.784	0.100
388.300	43.806	0.100
388.400	53.819	0.100
388.500	40.171	0.100
388.600	48.916	0.100
388.700	55.405	0.100
388.800	62.605	0.100
388.900	37.396	0.100
389.000	48.941	0.100
389.100	47.469	0.100
389.200	34.541	0.100
389.300	58.884	0.100
389.400	31.107	0.100
389.500	42.027	0.100
389.600	53.732	0.100
389.700	52.292	0.100
389.800	55.310	0.100
389.900	45.013	0.100
390.000	46.743	0.100
390.100	49.636	0.100
390.200	23.544	0.100
390.300	15.941	0.100
390.400	19.278	0.100
390.500	12.879	0.100
390.600	8.707	0.100
390.700	-6.806	0.100
390.800	6.434	0.100
390.900	1.647	0.100
391.000	-7.770	0.100
391.100	-11.536	0.100
391.200	-13.523	0.100
391.300	-25.727	0.100
391.400	-25.649	0.100
391.500	-24.625	0.100
391.600	-15.931	0.100
391.700	-26.170	0.100
391.800	-24.279	0.100
391.900	-28.601	0.100
392.000	-26.063	0.100
392.100	-37.010	0.100
392.200	-34.252	0.100
392.300	-27.376	0.100
392.400	-28.180	0.100
392.500	-25.094	0.100
392.600	-42.074	0.100
392.700	-27.789	0.100
392.800	-35.450	0.100
392.900	-37.425	0.100
393.000	-25.360	0.100
393.100	-27.708	0.100
393.200	-27.262	0.100
393.300	-29.022	0.100
393.400	-47.181	0.100
393.500	-29.132	0.100
393.600	-40.227	0.100
393.700	-47.531	0.100
393.800	-37.399	0.100
393.900	-31.290	0.100
394.000	-27.668	0.100
394.100	-33.885	0.100
394.200	-33.174	0.100
394.300	-34.266	0.100
394.400	-27.912	0.100
394.500	-40.826	0.100
394.600	-30.697	0.100
394.700	-48.952	0.100
394.800	-41.888	0.100
394.900	-23.073	0.100
395.000	-31.122	0.100
395.100	-30.043	0.100
395.200	-34.460	0.100
395.300	-36.679	0.100
395.400	-36.671	0.100
395.500	-37.453	0.100
395.600	-25.819	0.100
395.700	-31.263	0.100
395.800	-34.386	0.100
395.900	-27.984	0.100
396.000	-30.673	0.100
396.100	-32.292	0.100
396.200	-30.593	0.100
396.300	-24.762	0.100
396.400	-36.657	0.100
396.500	-35.724	0.100
396.600	-41.418	0.100
396.700	-34.027	0.100
396.800	-27.282	0.100
396.900	-33.124	0.100
397.000	-45.594	0.100
397.100	-25.711	0.100
397.200	-32.241	0.100
397.300	-24.773	0.100
397.400	-32.023	0.100
397.500	-33.057	0.100
397.600	-30.739	0.100
397.700	-35.285	0.100
397.800	-40.620	0.100
397.900	-25.689	0.100
398.000	-20.759	0.100
398.100	-23.736	0.100
398.200	-30.934	0.100
398.300	-27.066	0.100
398.400	-27.827	0.100
398.500	-16.875	0.100
398.600	-27.475	0.100
398.700	-25.429	0.100
398.800	-34.487	0.100
398.900	-18.297	0.100
399.000	-28.950	0.100
399.100	-33.216	0.100
399.200	-25.107	0.100
399.300	-27.748	0.100
399.400	-37.341	0.100
399.500	-24.801	0.100
399.600	-36.753	0.100
399.700	-22.041	0.100
399.800	-26.999	0.100
399.900	-25.928	0.100
400.000	-27.763	0.100
400.100	-33.501	0.100
400.200	-20.675	0.100
400.300	-31.358	0.100
400.400	-31.370	0.100
400.500	-26.733	0.100
400.600	-25.898	0.100
400.700	-20.251	0.100
400.800	-37.251	0.100
400.900	-24.489	0.100
401.000	-19.420	0.100
401.100	-35.813	0.100
401.200	-31.110	0.100
401.300	-17.233	0.100
401.400	-23.763	0.100
401.500	-40.245	0.100
401.600	-36.890	0.100
401.700	-16.080	0.100
401.800	-24.807	0.100
401.900	-45.832	0.100
402.000	-27.289	0.100
402.100	-9.342	0.100
402.200	-14.470	0.100
402.300	-35.076	0.100
402.400	-33.140	0.100
402.500	-33.806	0.100
402.600	-9.062	0.100
402.700	-24.564	0.100
402.800	-27.369	0.100
402.900	-26.497	0.100
403.000	-29.092	0.100
403.100	-29.258	0.100
403.200	-16.263	0.100
403.300	-33.940	0.100
403.400	-22.276	0.100
403.500	-41.372	0.100
403.600	-27.685	0.100
403.700	-39.072	0.100
403.800	-32.882	0.100
403.900	-30.471	0.100
404.000	-28.074	0.100
404.100	-12.317	0.100
404.200	-29.095	0.100
404.300	-23.451	0.100
404.400	-36.179	0.100
404.500	-27.291	0.100
404.600	-31.626	0.100
404.700	-23.486	0.100
404.800	-27.577	0.100
404.900	-20.608	0.100
405.000	-24.773	0.100
405.100	-25.898	0.100
405.200	-24.317	0.100
405.300	-42.452	0.100
405.400	-22.255	0.100
405.500	-30.742	0.100
405.600	-28.354	0.100
405.700	-22.702	0.100
405.800	-23.012	0.100
405.900	-36.790	0.100
406.000	-21.845	0.100
406.100	-25.849	0.100
406.200	-31.522	0.100
406.300	-26.028	0.100
406.400	-18.285	0.100
406.500	-25.987	0.100
406.600	-21.612	0.100
406.700	-32.023	0.100
406.800	-28.911	0.100
406.900	-26.776	0.100
407.000	-18.206	0.100
407.100	-24.762	0.100
407.200	-31.074	0.100
407.300	-30.931	0.100
407.400	-28.211	0.100
407.500	-28.086	0.100
407.600	-30.989	0.100
407.700	-14.057	0.100
407.800	-35.710	0.100
407.900	-31.838	0.100
408.000	-36.837	0.100
408.100	-36.023	0.100
408.200	-33.461	0.100
408.300	-29.492	0.100
408.400	-25.310	0.100
408.500	-23.499	0.100
408.600	-24.357	0.100
408.700	-19.269	0.100
408.800	-16.746	0.100
408.900	-32.154	0.100
409.000	-25.709	0.100
409.100	-28.984	0.100
409.200	-27.709	0.100
409.300	-24.309	0.100
409.400	-22.084	0.100
409.500	-43.034	0.100
409.600	-34.005	0.100
409.700	-19.733	0.100
409.800	-18.659	0.100
409.900	-27.924	0.100
410.000	-20.927	0.100
410.100	-28.581	0.100
410.200	-28.976	0.100
410.300	-25.242	0.100
410.400	-26.177	0.100
410.500	-44.049	0.100
410.600	-21.100	0.100
410.700	-31.987	0.100
410.800	-17.443	0.100
410.900	-31.319	0.100
411.000	-35.781	0.100
411.100	-21.680	0.100
411.200	-23.497	0.100
411.300	-33.495	0.100
411.400	-31.161	0.100
411.500	-22.400	0.100
411.600	-23.594	0.100
411.700	-23.240	0.100
411.800	-31.515	0.100
411.900	-22.457	0.100
412.000	-23.220	0.100
412.100	-24.169	0.100
412.200	-23.418	0.100
412.300	-33.462	0.100
412.400	-34.353	0.100
412.500	-37.248	0.100
412.600	-17.211	0.100
412.700	-23.245	0.100
412.800	-21.901	0.100
412.900	-19.711	0.100
413.000	-27.908	0.100
413.100	-20.231	0.100
413.200	-33.091	0.100
413.300	-24.195	0.100
413.400	-27.588	0.100
413.500	-24.210	0.100
413.600	-30.445	0.100
413.700	-28.195	0.100
413.800	-30.162	0.100
413.900	-24.422	0.100
414.000	-28.287	0.100
414.100	-24.239	0.100
414.200	-34.143	0.100
414.300	-26.470	0.100
414.400	-15.103	0.100
414.500	-21.508	0.100
414.600	-20.404	0.100
414.700	-41.632	0.100
414.800	-25.929	0.100
414.900	-22.317	0.100
415.000	-29.216	0.100
415.100	-18.742	0.100
415.200	-25.451	0.100
415.300	-36.817	0.100
415.400	-36.741	0.100
415.500	-20.960	0.100
415.600	-31.537	0.100
415.700	-40.075	0.100
415.800	-29.050	0.100
415.900	-21.976	0.100
416.000	-13.556	0.100
416.100	-25.471	0.100
416.200	-28.510	0.100
416.300	-28.551	0.100
416.400	-30.822	0.100
416.500	-39.804	0.100
416.600	-33.618	0.100
416.700	-22.206	0.100
416.800	-35.260	0.100
416.900	-42.790	0.100
417.000	-38.391	0.100
417.100	-21.598	0.100
417.200	-28.061	0.100
417.300	-28.509	0.100
417.400	-23.544	0.100
417.500	-28.028	0.100
417.600	-31.237	0.100
417.700	-27.170	0.100
417.800	-29.757	0.100
417.900	-25.360	0.100
418.000	-32.268	0.100
418.100	-30.919	0.100
418.200	-23.223	0.100
418.300	-27.848	0.100
418.400	-29.802	0.100
418.500	-29.984	0.100
418.600	-12.195	0.100
418.700	-17.562	0.100
418.800	-17.835	0.100
418.900	-38.907	0.100
419.000	-20.665	0.100
419.100	-34.837	0.100
419.200	-29.578	0.100
419.300	-29.483	0.100
419.400	-38.825	0.100
419.500	-38.217	0.100
419.600	-27.962	0.100
419.700	-19.928	0.100
419.800	-35.302	0.100
419.900	-31.454	0.100
420.000	-12.934	0.100
420.100	-27.685	0.100
420.200	-19.884	0.100
420.300	-17.936	0.100
420.400	-23.173	0.100
420.500	-34.862	0.100
420.600	-39.196	0.100
420.700	-24.500	0.100
420.800	-41.785	0.100
420.900	-26.981	0.100
421.000	-31.078	0.100
421.100	-32.881	0.100
421.200	-36.205	0.100
421.300	-32.557	0.100
421.400	-21.067	0.100
421.500	-26.657	0.100
421.600	-34.016	0.100
421.700	-34.706	0.100
421.800	-38.612	0.100
421.900	-27.327	0.100
422.000	-26.459	0.100
422.100	-31.057	0.100
422.200	-34.042	0.100
422.300	-18.103	0.100
422.400	-31.985	0.100
422.500	-30.387	0.100
422.600	-23.795	0.100
422.700	-28.984	0.100
422.800	-30.369	0.100
422.900	-35.704	0.100
423.000	-31.932	0.100
423.100	-29.112	0.100
423.200	-38.553	0.100
423.300	-45.801	0.100
423.400	-23.528	0.100
423.500	-27.909	0.100
423.600	-36.982	0.100
423.700	-17.413	0.100
423.800	-25.923	0.100
423.900	-28.545	0.100
424.000	-23.570	0.100
424.100	-24.540	0.100
424.200	-24.612	0.100
424.300	-22.869	0.100
424.400	-29.913	0.100
424.500	-30.097	0.100
424.600	-38.705	0.100
424.700	-30.024	0.100
424.800	-31.702	0.100
424.900	-27.497	0.100
425.000	-37.621	0.100
425.100	-39.379	0.100
425.200	-40.304	0.100
425.300	-38.885	0.100
425.400	-22.280	0.100
425.500	-9.767	0.100
425.600	-28.307	0.100
425.700	-27.294	0.100
425.800	-25.961	0.100
425.900	-38.451	0.100
426.000	-23.656	0.100
426.100	-21.925	0.100
426.200	-32.722	0.100
426.300	-35.106	0.100
426.400	-32.644	0.100
426.500	-26.669	0.100
426.600	-16.939	0.100
426.700	-35.374	0.100
426.800	-34.953	0.100
426.900	-22.267	0.100
427.000	-46.073	0.100
427.100	-30.696	0.100
427.200	-26.688	0.100
427.300	-16.138	0.100
427.400	-35.726	0.100
427.500	-31.555	0.100
427.600	-27.647	0.100
427.700	-28.643	0.100
427.800	-29.527	0.100
427.900	-30.626	0.100
428.000	-22.205	0.100
428.100	-29.636	0.100
428.200	-34.087	0.100
428.300	-34.996	0.100
428.400	-31.205	0.100
428.500	-31.393	0.100
428.600	-33.248	0.100
428.700	-32.917	0.100
428.800	-28.135	0.100
428.900	-13.832	0.100
429.000	-21.453	0.100
429.100	-38.290	0.100
429.200	-33.622	0.100
429.300	-36.427	0.100
429.400	-35.637	0.100
429.500	-30.423	0.100
429.600	-27.805	0.100
429.700	-18.473	0.100
429.800	-17.908	0.100
429.900	-40.706	0.100
430.000	-23.772	0.100
430.100	-17.870	0.100
430.200	-12.472	0.100
430.300	-34.709	0.100
430.400	-28.801	0.100
430.500	-21.629	0.100
430.600	-28.364	0.100
430.700	-25.076	0.100
430.800	-46.068	0.100
430.900	-29.721	0.100
431.000	-24.766	0.100
431.100	-9.779	0.100
431.200	-17.831	0.100
431.300	-34.058	0.100
431.400	-38.417	0.100
431.500	-40.130	0.100
431.600	-30.500	0.100
431.700	-27.449	0.100
431.800	-31.790	0.100
431.900	-32.933	0.100
432.000	-21.117	0.100
432.100	-13.763	0.100
432.200	-15.157	0.100
432.300	-14.298	0.100
432.400	-22.738	0.100
432.500	-23.810	0.100
432.600	-27.728	0.100
432.700	-38.897	0.100
432.800	-12.293	0.100
432.900	-21.824	0.100
433.000	-39.318	0.100
433.100	-30.944	0.100
433.200	-22.882	0.100
433.300	-29.902	0.100
433.400	-39.890	0.100
433.500	-24.841	0.100
433.600	-27.104	0.100
433.700	-32.870	0.100
433.800	-13.466	0.100
433.900	-33.855	0.100
434.000	-27.001	0.100
434.100	-17.475	0.100
434.200	-24.493	0.100
434.300	-32.140	0.100
434.400	-27.623	0.100
434.500	-25.087	0.100
434.600	-37.408	0.100
434.700	-27.127	0.100
434.800	-29.308	0.100
434.900	-25.787	0.100
435.000	-11.093	0.100
435.100	-25.722	0.100
435.200	-29.539	0.100
435.300	-34.215	0.100
435.400	-23.356	0.100
435.500	-29.347	0.100
435.600	-29.667	0.100
435.700	-38.918	0.100
435.800	-25.653	0.100
435.900	-35.327	0.100
436.000	-20.926	0.100
436.100	-22.633	0.100
436.200	-30.029	0.100
436.300	-27.567	0.100
436.400	-25.768	0.100
436.500	-19.419	0.100
436.600	-23.187	0.100
436.700	-36.259	0.100
436.800	-23.762	0.100
436.900	-22.582	0.100
437.000	-25.293	0.100
437.100	-34.729	0.100
437.200	-17.210	0.100
437.300	-26.076	0.100
437.400	-23.063	0.100
437.500	-34.203	0.100
437.600	-20.430	0.100
437.700	-40.591	0.100
437.800	-23.031	0.100
437.900	-22.833	0.100
438.000	-25.290	0.100
438.100	-23.425	0.100
438.200	-31.412	0.100
438.300	-29.446	0.100
438.400	-17.525	0.100
438.500	-20.376	0.100
438.600	-20.901	0.100
438.700	-16.658	0.100
438.800	-24.464	0.100
438.900	-28.756	0.100
439.000	-21.100	0.100
439.100	-13.889	0.100
439.200	-31.136	0.100
439.300	-22.679	0.100
439.400	-21.513	0.100
439.500	-23.088	0.100
439.600	-35.031	0.100
439.700	-28.093	0.100
439.800	-22.729	0.100
439.900	-27.982	0.100
440.000	-23.966	0.100
440.100	-23.211	0.100
440.200	-11.500	0.100
440.300	-29.641	0.100
440.400	-19.490	0.100
440.500	-25.143	0.100
440.600	-37.006	0.100
440.700	-7.468	0.100
440.800	-31.900	0.100
440.900	-24.339	0.100
441.000	-16.467	0.100
441.100	-21.290	0.100
441.200	-33.144	0.100
441.300	-32.202	0.100
441.400	-24.503	0.100
441.500	-13.108	0.100
441.600	-21.366	0.100
441.700	-18.569	0.100
441.800	-31.129	0.100
441.900	-32.070	0.100
442.000	-20.763	0.100
442.100	-18.064	0.100
442.200	-25.364	0.100
442.300	-19.610	0.100
442.400	-17.795	0.100
442.500	-19.806	0.100
442.600	-17.507	0.100
442.700	-31.661	0.100
442.800	-23.453	0.100
442.900	-29.589	0.100
443.000	-21.411	0.100
443.100	-25.937	0.100
443.200	-18.624	0.100
443.300	-18.309	0.100
443.400	-19.861	0.100
443.500	-24.866	0.100
443.600	-23.859	0.100
443.700	-28.740	0.100
443.800	-16.834	0.100
443.900	-28.361	0.100
444.000	-27.774	0.100
444.100	-26.740	0.100
444.200	-29.127	0.100
444.300	-15.575	0.100
444.400	-18.421	0.100
444.500	-24.770	0.100
444.600	-24.402	0.100
444.700	-33.656	0.100
444.800	-23.251	0.100
444.900	-11.974	0.100
445.000	-21.052	0.100
445.100	-18.036	0.100
445.200	-19.539	0.100
445.300	-19.174	0.100
445.400	-26.865	0.100
445.500	-17.741	0.100
445.600	-26.367	0.100
445.700	-23.230	0.100
445.800	-18.611	0.100
445.900	-10.408	0.100
446.000	-22.854	0.100
446.100	-17.060	0.100
446.200	-11.848	0.100
446.300	-19.750	0.100
446.400	-24.799	0.100
446.500	-24.745	0.100
446.600	-12.588	0.100
446.700	-30.252	0.100
446.800	-27.263	0.100
446.900	-15.660	0.100
447.000	-12.011	0.100
447.100	-12.448	0.100
447.200	-18.060	0.100
447.300	-21.384	0.100
447.400	-18.803	0.100
447.500	-24.075	0.100
447.600	-18.116	0.100
447.700	-11.278	0.100
447.800	-26.217	0.100
447.900	-22.020	0.100
448.000	-18.551	0.100
448.100	-15.687	0.100
448.200	-31.452	0.100
448.300	-26.883	0.100
448.400	-26.678	0.100
448.500	-4.425	0.100
448.600	-21.591	0.100
448.700	-22.518	0.100
448.800	-16.636	0.100
448.900	-20.059	0.100
449.000	-14.264	0.100
449.100	-20.651	0.100
449.200	-17.375	0.100
449.300	-17.883	0.100
449.400	-15.001	0.100
449.500	-12.611	0.100
449.600	-14.092	0.100
449.700	-22.707	0.100
449.800	-18.607	0.100
449.900	-18.285	0.100
450.000	-26.940	0.100
450.100	-9.949	0.100
450.200	-20.954	0.100
450.300	-20.417	0.100
450.400	-21.685	0.100
450.500	-26.352	0.100
450.600	-14.360	0.100
450.700	-6.928	0.100
450.800	-16.336	0.100
450.900	-20.126	0.100
451.000	-27.293	0.100
451.100	-21.120	0.100
451.200	-30.380	0.100
451.300	-18.616	0.100
451.400	-19.454	0.100
451.500	-21.554	0.100
451.600	-12.344	0.100
451.700	-9.307	0.100
451.800	-20.618	0.100
451.900	-27.112	0.100
452.000	-15.830	0.100
452.100	-24.369	0.100
452.200	-27.135	0.100
452.300	-27.367	0.100
452.400	-19.338	0.100
452.500	-22.021	0.100
452.600	-17.110	0.100
452.700	-22.487	0.100
452.800	-16.957	0.100
452.900	-25.073	0.100
453.000	-3.159	0.100
453.100	-27.000	0.100
453.200	-11.814	0.100
453.300	-18.207	0.100
453.400	-11.509	0.100
453.500	-16.113	0.100
453.600	-22.050	0.100
453.700	-22.281	0.100
453.800	-8.676	0.100
453.900	-18.698	0.100
454.000	-15.652	0.100
454.100	-13.757	0.100
454.200	-19.608	0.100
454.300	-22.101	0.100
454.400	-20.338	0.100
454.500	-1.746	0.100
454.600	-11.087	0.100
454.700	-23.920	0.100
454.800	-21.504	0.100
454.900	-18.799	0.100
455.000	-28.000	0.100
455.100	-18.161	0.100
455.200	-21.800	0.100
455.300	-32.169	0.100
455.400	-24.416	0.100
455.500	-15.270	0.100
455.600	-16.983	0.100
455.700	-18.233	0.100
455.800	-16.350	0.100
455.900	-23.236	0.100
456.000	-18.055	0.100
456.100	-10.623	0.100
456.200	-16.826	0.100
456.300	-16.093	0.100
456.400	-17.787	0.100
456.500	-11.297	0.100
456.600	-9.478	0.100
456.700	-28.275	0.100
456.800	-12.029	0.100
456.900	-12.140	0.100
457.000	-10.762	0.100
457.100	-16.577	0.100
457.200	-15.714	0.100
457.300	-1.140	0.100
457.400	-24.982	0.100
457.500	-10.927	0.100
457.600	-9.048	0.100
457.700	-25.339	0.100
457.800	-15.968	0.100
457.900	-20.304	0.100
458.000	-31.035	0.100
458.100	-11.253	0.100
458.200	-10.305	0.100
458.300	-29.559	0.100
458.400	-29.417	0.100
458.500	-13.651	0.100
458.600	-14.728	0.100
458.700	-17.136	0.100
458.800	-17.700	0.100
458.900	-22.031	0.100
459.000	-23.200	0.100
459.100	-14.542	0.100
459.200	-18.523	0.100
459.300	-17.974	0.100
459.400	-15.901	0.100
459.500	-22.893	0.100
459.600	-6.627	0.100
459.700	-25.193	0.100
459.800	-27.262	0.100
459.900	-14.435	0.100
460.000	-20.230	0.100
460.100	-13.769	0.100
460.200	-13.764	0.100
460.300	-28.959	0.100
460.400	-18.072	0.100
460.500	-14.845	0.100
460.600	-13.786	0.100
460.700	-25.492	0.100
460.800	-9.102	0.100
460.900	-18.714	0.100
461.000	-18.316	0.100
461.100	-15.442	0.100
461.200	-16.387	0.100
461.300	-15.288	0.100
461.400	-8.275	0.100
461.500	-19.319	0.100
461.600	-18.889	0.100
461.700	-5.724	0.100
461.800	-10.955	0.100
461.900	-14.016	0.100
462.000	-1.292	0.100
462.100	-21.100	0.100
462.200	-31.460	0.100
462.300	-31.332	0.100
462.400	-17.181	0.100
462.500	-14.371	0.100
462.600	-22.550	0.100
462.700	-18.336	0.100
462.800	-13.910	0.100
462.900	-19.993	0.100
463.000	-14.031	0.100
463.100	-17.194	0.100
463.200	-22.088	0.100
463.300	-9.114	0.100
463.400	-23.608	0.100
463.500	-15.900	0.100
463.600	-32.196	0.100
463.700	-6.369	0.100
463.800	-12.723	0.100
463.900	-31.681	0.100
464.000	-19.335	0.100
464.100	-1.144	0.100
464.200	-7.171	0.100
464.300	-17.333	0.100
464.400	-22.445	0.100
464.500	-23.835	0.100
464.600	-25.580	0.100
464.700	-12.533	0.100
464.800	0.035	0.100
464.900	-12.379	0.100
465.000	-13.384	0.100
465.100	-2.870	0.100
465.200	-12.139	0.100
465.300	-21.899	0.100
465.400	-41.001	0.100
465.500	-17.738	0.100
465.600	-6.957	0.100
465.700	-20.542	0.100
465.800	-17.169	0.100
465.900	-23.474	0.100
466.000	-12.203	0.100
466.100	-11.867	0.100
466.200	-5.648	0.100
466.300	-16.706	0.100
466.400	-17.416	0.100
466.500	-20.808	0.100
466.600	-8.859	0.100
466.700	-5.519	0.100
466.800	-19.062	0.100
466.900	-27.900	0.100
467.000	-11.557	0.100
467.100	-20.401	0.100
467.200	-28.660	0.100
467.300	-14.707	0.100
467.400	-11.920	0.100
467.500	-11.714	0.100
467.600	-15.892	0.100
467.700	-16.885	0.100
467.800	-19.482	0.100
467.900	-10.581	0.100
468.000	-13.797	0.100
468.100	-5.871	0.100
468.200	-9.906	0.100
468.300	1.555	0.100
468.400	-11.950	0.100
468.500	-22.262	0.100
468.600	-9.693	0.100
468.700	-11.064	0.100
468.800	-27.512	0.100
468.900	-13.020	0.100
469.000	-8.072	0.100
469.100	-8.909	0.100
469.200	-15.797	0.100
469.300	-17.322	0.100
469.400	-21.912	0.100
469.500	-20.831	0.100
469.600	-17.335	0.100
469.700	-21.444	0.100
469.800	-4.730	0.100
469.900	-14.880	0.100
470.000	-24.317	0.100
470.100	-12.971	0.100
470.200	-8.874	0.100
470.300	-10.152	0.100
470.400	-11.404	0.100
470.500	-22.579	0.100
470.600	-20.293	0.100
470.700	-13.647	0.100
470.800	-23.809	0.100
470.900	-29.665	0.100
471.000	1.047	0.100
471.100	-12.255	0.100
471.200	-12.787	0.100
471.300	-11.640	0.100
471.400	-4.485	0.100
471.500	-18.291	0.100
471.600	-8.081	0.100
471.700	-17.820	0.100
471.800	-13.690	0.100
471.900	-21.100	0.100
472.000	-29.467	0.100
472.100	-7.377	0.100
472.200	-14.497	0.100
472.300	-16.468	0.100
472.400	-12.819	0.100
472.500	-15.748	0.100
472.600	-8.779	0.100
472.700	-12.724	0.100
472.800	-20.392	0.100
472.900	-6.195	0.100
473.000	-15.280	0.100
473.100	-22.558	0.100
473.200	-24.507	0.100
473.300	-6.777	0.100
473.400	-29.862	0.100
473.500	-19.540	0.100
473.600	-14.255	0.100
473.700	-11.126	0.100
473.800	-19.779	0.100
473.900	-12.626	0.100
474.000	-12.971	0.100
474.100	-13.323	0.100
474.200	-13.652	0.100
474.300	-22.150	0.100
474.400	-13.451	0.100
474.500	-19.686	0.100
474.600	-22.393	0.100
474.700	-5.103	0.100
474.800	-6.808	0.100
474.900	-20.851	0.100
475.000	-23.574	0.100
475.100	-14.731	0.100
475.200	-10.249	0.100
475.300	-19.528	0.100
475.400	-3.506	0.100
475.500	-6.066	0.100
475.600	-7.555	0.100
475.700	-16.982	0.100
475.800	-20.284	0.100
475.900	-16.471	0.100
476.000	-10.238	0.100
476.100	-16.731	0.100
476.200	-0.238	0.100
476.300	-19.199	0.100
476.400	-11.059	0.100
476.500	-18.082	0.100
476.600	-16.771	0.100
476.700	-12.433	0.100
476.800	-16.439	0.100
476.900	-20.445	0.100
477.000	-14.402	0.100
477.100	-15.088	0.100
477.200	-8.829	0.100
477.300	-13.664	0.100
477.400	-10.616	0.100
477.500	-21.474	0.100
477.600	-15.247	0.100
477.700	0.482	0.100
477.800	-15.333	0.100
477.900	-17.979	0.100
478.000	-18.127	0.100
478.100	-19.782	0.100
478.200	-9.677	0.100
478.300	-12.583	0.100
478.400	-22.466	0.100
478.500	-7.935	0.100
478.600	-21.255	0.100
478.700	2.377	0.100
478.800	-7.381	0.100
478.900	-6.351	0.100
479.000	-18.508	0.100
479.100	-16.910	0.100
479.200	-23.520	0.100
479.300	-19.975	0.100
479.400	-11.045	0.100
479.500	-11.327	0.100
479.600	-15.057	0.100
479.700	-23.602	0.100
479.800	-13.107	0.100
479.900	-15.898	0.100
480.000	-6.947	0.100
480.100	-8.580	0.100
480.200	7.798	0.100
480.300	11.905	0.100
480.400	42.542	0.100
480.500	53.560	0.100
480.600	50.136	0.100
480.700	68.758	0.100
480.800	103.161	0.100
480.900	98.929	0.100
481.000	89.348	0.100
481.100	101.900	0.100
481.200	92.209	0.100
481.300	93.202	0.100
481.400	95.335	0.100
481.500	91.417	0.100
481.600	89.024	0.100
481.700	94.973	0.100
481.800	69.985	0.100
481.900	91.568	0.100
482.000	72.348	0.100
482.100	70.377	0.100
482.200	78.036	0.100
482.300	90.739	0.100
482.400	77.666	0.100
482.500	84.532	0.100
482.600	74.020	0.100
482.700	64.016	0.100
482.800	51.444	0.100
482.900	59.528	0.100
483.000	66.123	0.100
483.100	60.494	0.100
483.200	56.816	0.100
483.300	43.435	0.100
483.400	63.897	0.100
483.500	55.064	0.100
483.600	55.011	0.100
483.700	48.036	0.100
483.800	59.528	0.100
483.900	51.172	0.100
484.000	49.369	0.100
484.100	52.202	0.100
484.200	61.069	0.100
484.300	50.298	0.100
484.400	49.887	0.100
484.500	50.457	0.100
484.600	41.530	0.100
484.700	27.501	0.100
484.800	38.504	0.100
484.900	52.444	0.100
485.000	53.019	0.100
485.100	48.859	0.100
485.200	44.052	0.100
485.300	38.973	0.100
485.400	44.040	0.100
485.500	35.101	0.100
485.600	39.762	0.100
485.700	52.423	0.100
485.800	51.327	0.100
485.900	46.488	0.100
486.000	52.126	0.100
486.100	43.363	0.100
486.200	40.319	0.100
486.300	26.519	0.100
486.400	31.465	0.100
486.500	34.714	0.100
486.600	41.161	0.100
486.700	41.056	0.100
486.800	33.694	0.100
486.900	51.193	0.100
487.000	55.386	0.100
487.100	53.885	0.100
487.200	61.785	0.100
487.300	49.468	0.100
487.400	59.517	0.100
487.500	46.750	0.100
487.600	54.483	0.100
487.700	44.932	0.100
487.800	53.301	0.100
487.900	62.699	0.100
488.000	73.326	0.100
488.100	60.885	0.100
488.200	63.760	0.100
488.300	65.791	0.100
488.400	58.199	0.100
488.500	66.934	0.100
488.600	59.538	0.100
488.700	66.106	0.100
488.800	58.017	0.100
488.900	68.646	0.100
489.000	66.412	0.100
489.100	60.527	0.100
489.200	59.002	0.100
489.300	71.504	0.100
489.400	96.237	0.100
489.500	78.887	0.100
489.600	70.235	0.100
489.700	82.941	0.100
489.800	67.316	0.100
489.900	65.107	0.100
490.000	63.449	0.100
490.100	65.468	0.100
490.200	81.409	0.100
490.300	71.064	0.100
490.400	70.409	0.100
490.500	64.578	0.100
490.600	49.202	0.100
490.700	72.937	0.100
490.800	75.943	0.100
490.900	68.938	0.100
491.000	73.528	0.100
491.100	75.671	0.100
491.200	76.479	0.100
491.300	67.142	0.100
491.400	71.411	0.100
491.500	60.101	0.100
491.600	65.570	0.100
491.700	67.936	0.100
491.800	77.972	0.100
491.900	85.512	0.100
492.000	70.599	0.100
492.100	76.766	0.100
492.200	80.812	0.100
492.300	79.253	0.100
492.400	58.421	0.100
492.500	68.904	0.100
492.600	72.974	0.100
492.700	79.145	0.100
492.800	67.282	0.100
492.900	81.274	0.100
493.000	79.308	0.100
493.100	81.322	0.100
493.200	69.765	0.100
493.300	82.969	0.100
493.400	70.988	0.100
493.500	67.034	0.100
493.600	64.921	0.100
493.700	69.250	0.100
493.800	76.954	0.100
493.900	60.422	0.100
494.000	77.623	0.100
494.100	75.950	0.100
494.200	70.712	0.100
494.300	76.912	0.100
494.400	76.200	0.100
494.500	76.402	0.100
494.600	60.201	0.100
494.700	74.517	0.100
494.800	93.569	0.100
494.900	75.424	0.100
495.000	74.454	0.100
495.100	68.919	0.100
495.200	67.836	0.100
495.300	63.451	0.100
495.400	72.353	0.100
495.500	77.326	0.100
495.600	68.786	0.100
495.700	65.412	0.100
495.800	70.110	0.100
495.900	62.248	0.100
496.000	71.591	0.100
496.100	66.342	0.100
496.200	64.514	0.100
496.300	59.693	0.100
496.400	76.742	0.100
496.500	73.385	0.100
496.600	71.819	0.100
496.700	67.731	0.100
496.800	60.729	0.100
496.900	65.443	0.100
497.000	68.529	0.100
497.100	64.547	0.100
497.200	61.014	0.100
497.300	54.908	0.100
497.400	67.483	0.100
497.500	72.470	0.100
497.600	72.313	0.100
497.700	70.326	0.100
497.800	66.176	0.100
497.900	65.671	0.100
498.000	58.696	0.100
498.100	57.167	0.100
498.200	67.125	0.100
498.300	57.329	0.100
498.400	69.213	0.100
498.500	76.258	0.100
498.600	60.745	0.100
498.700	65.996	0.100
498.800	63.413	0.100
498.900	56.088	0.100
499.000	56.366	0.100
499.100	75.887	0.100
499.200	72.693	0.100
499.300	64.480	0.100
499.400	49.126	0.100
499.500	63.467	0.100
499.600	71.482	0.100
499.700	63.265	0.100
499.800	60.366	0.100
499.900	48.592	0.100
500.000	44.053	0.100
500.100	47.724	0.100
500.200	58.313	0.100
500.300	68.384	0.100
500.400	66.180	0.100
500.500	64.587	0.100
500.600	70.582	0.100
500.700	53.758	0.100
500.800	53.682	0.100
500.900	66.813	0.100
501.000	63.343	0.100
501.100	57.280	0.100
501.200	58.696	0.100
501.300	62.107	0.100
501.400	54.695	0.100
501.500	61.709	0.100
501.600	70.153	0.100
501.700	65.828	0.100
501.800	65.635	0.100
501.900	62.485	0.100
502.000	70.806	0.100
502.100	54.577	0.100
502.200	60.694	0.100
502.300	48.718	0.100
502.400	60.915	0.100
502.500	50.108	0.100
502.600	58.754	0.100
502.700	63.775	0.100
502.800	65.574	0.100
502.900	62.614	0.100
503.000	58.328	0.100
503.100	51.154	0.100
503.200	56.639	0.100
503.300	61.987	0.100
503.400	62.793	0.100
503.500	68.985	0.100
503.600	59.169	0.100
503.700	68.524	0.100
503.800	63.368	0.100
503.900	62.913	0.100
504.000	63.277	0.100
504.100	51.548	0.100
504.200	57.799	0.100
504.300	53.110	0.100
504.400	52.366	0.100
504.500	51.680	0.100
504.600	56.280	0.100
504.700	54.394	0.100
504.800	66.044	0.100
504.900	64.714	0.100
505.000	56.680	0.100
505.100	47.778	0.100
505.200	60.210	0.100
505.300	50.017	0.100
505.400	62.325	0.100
505.500	51.213	0.100
505.600	53.521	0.100
505.700	46.566	0.100
505.800	64.290	0.100
505.900	59.243	0.100
506.000	55.909	0.100
506.100	54.396	0.100
506.200	62.195	0.100
506.300	56.856	0.100
506.400	55.285	0.100
506.500	56.701	0.100
506.600	57.281	0.100
506.700	71.368	0.100
506.800	68.911	0.100
506.900	59.880	0.100
507.000	55.378	0.100
507.100	55.300	0.100
507.200	61.718	0.100
507.300	54.355	0.100
507.400	52.709	0.100
507.500	65.080	0.100
507.600	53.446	0.100
507.700	38.933	0.100
507.800	42.808	0.100
507.900	63.058	0.100
508.000	57.298	0.100
508.100	51.338	0.100
508.200	54.681	0.100
508.300	62.104	0.100
508.400	56.390	0.100
508.500	67.255	0.100
508.600	55.871	0.100
508.700	33.804	0.100
508.800	39.247	0.100
508.900	52.134	0.100
509.000	43.060	0.100
509.100	44.648	0.100
509.200	50.396	0.100
509.300	52.942	0.100
509.400	64.284	0.100
509.500	65.489	0.100
509.600	56.044	0.100
509.700	44.822	0.100
509.800	48.527	0.100
509.900	55.861	0.100
510.000	60.702	0.100
510.100	53.592	0.100
510.200	69.032	0.100
510.300	57.876	0.100
510.400	52.263	0.100
510.500	50.887	0.100
510.600	56.445	0.100
510.700	60.413	0.100
510.800	55.199	0.100
510.900	49.293	0.100
511.000	62.735	0.100
511.100	56.613	0.100
511.200	44.583	0.100
511.300	58.081	0.100
511.400	62.921	0.100
511.500	56.782	0.100
511.600	52.873	0.100
511.700	51.623	0.100
511.800	46.599	0.100
511.900	48.540	0.100
512.000	79.293	0.100
512.100	59.062	0.100
512.200	57.490	0.100
512.300	57.639	0.100
512.400	51.593	0.100
512.500	50.259	0.100
512.600	45.678	0.100
512.700	57.491	0.100
512.800	47.772	0.100
512.900	53.288	0.100
513.000	46.680	0.100
513.100	58.506	0.100
513.200	58.686	0.100
513.300	49.519	0.100
513.400	61.838	0.100
513.500	44.241	0.100
513.600	43.744	0.100
513.700	55.637	0.100
513.800	50.919	0.100
513.900	53.907	0.100
514.000	58.909	0.100
514.100	49.544	0.100
514.200	50.969	0.100
514.300	41.904	0.100
514.400	59.887	0.100
514.500	64.519	0.100
514.600	55.283	0.100
514.700	52.301	0.100
514.800	44.775	0.100
514.900	53.949	0.100
515.000	52.925	0.100
515.100	48.426	0.100
515.200	57.506	0.100
515.300	51.608	0.100
515.400	53.392	0.100
515.500	59.834	0.100
515.600	46.524	0.100
515.700	44.250	0.100
515.800	40.903	0.100
515.900	59.756	0.100
516.000	58.354	0.100
516.100	56.343	0.100
516.200	47.451	0.100
516.300	58.313	0.100
516.400	56.050	0.100
516.500	55.937	0.100
516.600	59.616	0.100
516.700	52.202	0.100
516.800	52.947	0.100
516.900	44.614	0.100
517.000	48.000	0.100
517.100	48.023	0.100
517.200	49.437	0.100
517.300	56.403	0.100
517.400	59.860	0.100
517.500	46.054	0.100
517.600	42.891	0.100
517.700	38.786	0.100
517.800	35.140	0.100
517.900	53.476	0.100
518.000	58.650	0.100
518.100	56.045	0.100
518.200	54.829	0.100
518.300	58.107	0.100
518.400	56.251	0.100
518.500	52.815	0.100
518.600	50.167	0.100
518.700	45.279	0.100
518.800	45.180	0.100
518.900	47.092	0.100
519.000	72.825	0.100
519.100	46.610	0.100
519.200	47.775	0.100
519.300	36.093	0.100
519.400	50.335	0.100
519.500	44.290	0.100
519.600	49.708	0.100
519.700	55.903	0.100
519.800	49.168	0.100
519.900	42.424	0.100
520.000	41.107	0.100
520.100	66.978	0.100
520.200	44.814	0.100
520.300	60.893	0.100
520.400	42.863	0.100
520.500	48.343	0.100
520.600	60.110	0.100
520.700	49.919	0.100
520.800	51.686	0.100
520.900	51.880	0.100
521.000	49.667	0.100
521.100	59.820	0.100
521.200	52.210	0.100
521.300	42.187	0.100
521.400	43.565	0.100
521.500	49.659	0.100
521.600	47.030	0.100
521.700	51.600	0.100
521.800	46.853	0.100
521.900	57.635	0.100
522.000	46.254	0.100
522.100	51.345	0.100
522.200	54.981	0.100
522.300	62.148	0.100
522.400	46.121	0.100
522.500	37.912	0.100
522.600	48.823	0.100
522.700	49.212	0.100
522.800	45.729	0.100
522.900	42.061	0.100
523.000	52.144	0.100
523.100	41.818	0.100
523.200	59.378	0.100
523.300	49.670	0.100
523.400	53.544	0.100
523.500	52.599	0.100
523.600	47.191	0.100
523.700	54.936	0.100
523.800	44.233	0.100
523.900	47.927	0.100
524.000	33.758	0.100
524.100	51.462	0.100
524.200	40.525	0.100
524.300	46.507	0.100
524.400	57.538	0.100
524.500	46.195	0.100
524.600	52.730	0.100
524.700	53.416	0.100
524.800	71.299	0.100
524.900	52.877	0.100
525.000	35.395	0.100
525.100	39.677	0.100
525.200	49.544	0.100
525.300	49.539	0.100
525.400	53.726	0.100
525.500	46.049	0.100
525.600	53.865	0.100
525.700	56.173	0.100
525.800	37.528	0.100
525.900	39.491	0.100
526.000	51.128	0.100
526.100	52.561	0.100
526.200	48.263	0.100
526.300	44.863	0.100
526.400	64.582	0.100
526.500	46.288	0.100
526.600	42.552	0.100
526.700	39.574	0.100
526.800	41.337	0.100
526.900	37.470	0.100
527.000	47.217	0.100
527.100	53.060	0.100
527.200	53.753	0.100
527.300	42.896	0.100
527.400	51.758	0.100
527.500	49.162	0.100
527.600	54.471	0.100
527.700	44.002	0.100
527.800	55.408	0.100
527.900	56.164	0.100
528.000	44.766	0.100
528.100	41.661	0.100
528.200	53.224	0.100
528.300	34.416	0.100
528.400	45.637	0.100
528.500	52.467	0.100
528.600	50.748	0.100
528.700	49.012	0.100
528.800	34.681	0.100
528.900	50.481	0.100
529.000	47.165	0.100
529.100	38.092	0.100
529.200	57.087	0.100
529.300	54.821	0.100
529.400	46.449	0.100
529.500	56.097	0.100
529.600	47.285	0.100
529.700	50.654	0.100
529.800	50.461	0.100
529.900	41.716	0.100
530.000	40.471	0.100
530.100	49.412	0.100
530.200	48.643	0.100
530.300	52.667	0.100
530.400	58.030	0.100
530.500	47.869	0.100
530.600	47.397	0.100
530.700	33.982	0.100
530.800	50.896	0.100
530.900	43.876	0.100
531.000	38.967	0.100
531.100	50.958	0.100
531.200	53.675	0.100
531.300	38.866	0.100
531.400	43.943	0.100
531.500	42.903	0.100
531.600	45.675	0.100
531.700	39.805	0.100
531.800	55.585	0.100
531.900	46.256	0.100
532.000	39.890	0.100
532.100	47.200	0.100
532.200	48.453	0.100
532.300	39.997	0.100
532.400	54.411	0.100
532.500	49.045	0.100
532.600	45.879	0.100
532.700	48.102	0.100
532.800	44.781	0.100
532.900	52.489	0.100
533.000	36.046	0.100
533.100	52.697	0.100
533.200	46.659	0.100
533.300	37.681	0.100
533.400	41.712	0.100
533.500	51.586	0.100
533.600	47.145	0.100
533.700	61.573	0.100
533.800	40.605	0.100
533.900	36.518	0.100
534.000	62.359	0.100
534.100	45.994	0.100
534.200	44.129	0.100
534.300	44.025	0.100
534.400	35.372	0.100
534.500	55.864	0.100
534.600	43.588	0.100
534.700	45.973	0.100
534.800	49.327	0.100
534.900	44.844	0.100
535.000	34.940	0.100
535.100	39.375	0.100
535.200	37.264	0.100
535.300	41.535	0.100
535.400	41.107	0.100
535.500	40.401	0.100
535.600	39.812	0.100
535.700	53.599	0.100
535.800	59.276	0.100
535.900	43.737	0.100
536.000	59.178	0.100
536.100	39.200	0.100
536.200	34.346	0.100
536.300	44.013	0.100
536.400	58.647	0.100
536.500	50.896	0.100
536.600	41.028	0.100
536.700	56.405	0.100
536.800	40.993	0.100
536.900	53.234	0.100
537.000	52.235	0.100
537.100	36.709	0.100
537.200	33.277	0.100
537.300	43.010	0.100
537.400	55.884	0.100
537.500	44.296	0.100
537.600	55.113	0.100
537.700	35.381	0.100
537.800	41.941	0.100
537.900	47.897	0.100
538.000	45.246	0.100
538.100	46.626	0.100
538.200	45.923	0.100
538.300	55.381	0.100
538.400	53.745	0.100
538.500	42.880	0.100
538.600	45.142	0.100
538.700	37.590	0.100
538.800	35.910	0.100
538.900	36.674	0.100
539.000	52.395	0.100
539.100	28.368	0.100
539.200	55.633	0.100
539.300	46.261	0.100
539.400	48.535	0.100
539.500	47.175	0.100
539.600	46.376	0.100
539.700	51.974	0.100
539.800	49.523	0.100
539.900	39.818	0.100
540.000	22.062	0.100
540.100	44.491	0.100
540.200	39.429	0.100
540.300	32.286	0.100
540.400	10.496	0.100
540.500	17.373	0.100
540.600	11.902	0.100
540.700	2.702	0.100
540.800	3.068	0.100
540.900	-12.616	0.100
541.000	-12.824	0.100
541.100	-17.906	0.100
541.200	-11.302	0.100
541.300	-7.655	0.100
541.400	-2.613	0.100
541.500	-14.558	0.100
541.600	-19.148	0.100
541.700	-13.483	0.100
541.800	-33.260	0.100
541.900	-14.598	0.100
542.000	-15.468	0.100
542.100	-43.209	0.100
542.200	-24.136	0.100
542.300	-28.975	0.100
542.400	-29.868	0.100
542.500	-31.991	0.100
542.600	-23.242	0.100
542.700	-40.618	0.100
542.800	-36.301	0.100
542.900	-39.229	0.100
543.000	-42.761	0.100
543.100	-31.554	0.100
543.200	-18.241	0.100
543.300	-30.332	0.100
543.400	-34.167	0.100
543.500	-43.741	0.100
543.600	-40.471	0.100
543.700	-32.675	0.100
543.800	-35.441	0.100
543.900	-37.856	0.100
544.000	-35.323	0.100
544.100	-36.657	0.100
544.200	-40.521	0.100
544.300	-32.189	0.100
544.400	-28.914	0.100
544.500	-37.460	0.100
544.600	-34.394	0.100
544.700	-45.391	0.100
544.800	-33.722	0.100
544.900	-43.655	0.100
545.000	-33.455	0.100
545.100	-29.901	0.100
545.200	-27.250	0.100
545.300	-31.237	0.100
545.400	-38.983	0.100
545.500	-31.027	0.100
545.600	-29.582	0.100
545.700	-40.936	0.100
545.800	-45.782	0.100
545.900	-27.007	0.100
546.000	-35.928	0.100
546.100	-25.367	0.100
546.200	-31.922	0.100
546.300	-29.199	0.100
546.400	-35.617	0.100
546.500	-27.284	0.100
546.600	-28.924	0.100
546.700	-29.280	0.100
546.800	-35.238	0.100
546.900	-45.524	0.100
547.000	-24.976	0.100
547.100	-35.814	0.100
547.200	-33.695	0.100
547.300	-41.316	0.100
547.400	-38.913	0.100
547.500	-30.353	0.100
547.600	-31.126	0.100
547.700	-30.513	0.100
547.800	-31.227	0.100
547.900	-33.078	0.100
548.000	-21.797	0.100
548.100	-41.048	0.100
548.200	-28.880	0.100
548.300	-18.287	0.100
548.400	-30.619	0.100
548.500	-24.511	0.100
548.600	-28.274	0.100
548.700	-38.976	0.100
548.800	-25.521	0.100
548.900	-30.665	0.100
549.000	-37.510	0.100
549.100	-33.513	0.100
549.200	-32.316	0.100
549.300	-30.181	0.100
549.400	-17.164	0.100
549.500	-40.643	0.100
549.600	-37.211	0.100
549.700	-34.049	0.100
549.800	-36.152	0.100
549.900	-21.764	0.100
550.000	-23.738	0.100
550.100	-24.639	0.100
550.200	-33.536	0.100
550.300	-21.105	0.100
550.400	-36.233	0.100
550.500	-31.588	0.100
550.600	-34.192	0.100
550.700	-31.104	0.100
550.800	-45.434	0.100
550.900	-25.621	0.100
551.000	-20.503	0.100
551.100	-45.301	0.100
551.200	-34.434	0.100
551.300	-30.452	0.100
551.400	-28.996	0.100
551.500	-23.002	0.100
551.600	-28.998	0.100
551.700	-28.666	0.100
551.800	-26.144	0.100
551.900	-39.102	0.100
552.000	-31.775	0.100
552.100	-36.903	0.100
552.200	-23.461	0.100
552.300	-30.461	0.100
552.400	-20.203	0.100
552.500	-27.695	0.100
552.600	-24.553	0.100
552.700	-36.823	0.100
552.800	-24.191	0.100
552.900	-37.546	0.100
553.000	-36.309	0.100
553.100	-30.117	0.100
553.200	-32.486	0.100
553.300	-29.338	0.100
553.400	-19.522	0.100
553.500	-36.734	0.100
553.600	-38.955	0.100
553.700	-27.130	0.100
553.800	-36.695	0.100
553.900	-46.292	0.100
554.000	-25.594	0.100
554.100	-28.968	0.100
554.200	-25.707	0.100
554.300	-24.593	0.100
554.400	-41.426	0.100
554.500	-25.360	0.100
554.600	-35.230	0.100
554.700	-31.730	0.100
554.800	-44.287	0.100
554.900	-38.712	0.100
555.000	-37.743	0.100
555.100	-30.664	0.100
555.200	-33.732	0.100
555.300	-14.654	0.100
555.400	-31.258	0.100
555.500	-34.241	0.100
555.600	-34.385	0.100
555.700	-20.046	0.100
555.800	-30.232	0.100
555.900	-19.508	0.100
556.000	-28.509	0.100
556.100	-34.226	0.100
556.200	-41.763	0.100
556.300	-27.960	0.100
556.400	-9.588	0.100
556.500	-17.213	0.100
556.600	-34.759	0.100
556.700	-43.164	0.100
556.800	-40.504	0.100
556.900	-27.526	0.100
557.000	-22.677	0.100
557.100	-39.144	0.100
557.200	-38.949	0.100
557.300	-31.883	0.100
557.400	-35.705	0.100
557.500	-33.538	0.100
557.600	-33.002	0.100
557.700	-26.267	0.100
557.800	-30.057	0.100
557.900	-26.546	0.100
558.000	-35.107	0.100
558.100	-27.110	0.100
558.200	-36.522	0.100
558.300	-34.020	0.100
558.400	-29.587	0.100
558.500	-16.594	0.100
558.600	-32.775	0.100
558.700	-38.972	0.100
558.800	-32.708	0.100
558.900	-38.692	0.100
559.000	-21.312	0.100
559.100	-25.180	0.100
559.200	-33.060	0.100
559.300	-22.205	0.100
559.400	-31.302	0.100
559.500	-26.575	0.100
559.600	-29.418	0.100
559.700	-37.721	0.100
559.800	-23.002	0.100
559.900	-29.406	0.100
560.000	-23.932	0.100
560.100	-31.760	0.100
560.200	-25.960	0.100
560.300	-32.817	0.100
560.400	-31.954	0.100
560.500	-36.133	0.100
560.600	-26.448	0.100
560.700	-24.560	0.100
560.800	-20.570	0.100
560.900	-31.432	0.100
561.000	-30.087	0.100
561.100	-31.739	0.100
561.200	-28.582	0.100
561.300	-31.843	0.100
561.400	-31.418	0.100
561.500	-33.161	0.100
561.600	-31.199	0.100
561.700	-22.658	0.100
561.800	-32.976	0.100
561.900	-34.735	0.100
562.000	-36.364	0.100
562.100	-27.394	0.100
562.200	-29.197	0.100
562.300	-32.992	0.100
562.400	-29.376	0.100
562.500	-30.981	0.100
562.600	-26.856	0.100
562.700	-29.092	0.100
562.800	-21.238	0.100
562.900	-26.453	0.100
563.000	-32.622	0.100
563.100	-40.156	0.100
563.200	-39.015	0.100
563.300	-30.739	0.100
563.400	-33.416	0.100
563.500	-28.413	0.100
563.600	-21.419	0.100
563.700	-27.009	0.100
563.800	-34.773	0.100
563.900	-22.257	0.100
564.000	-35.090	0.100
564.100	-41.699	0.100
564.200	-37.992	0.100
564.300	-28.532	0.100
564.400	-24.662	0.100
564.500	-34.842	0.100
564.600	-34.438	0.100
564.700	-31.219	0.100
564.800	-42.122	0.100
564.900	-33.606	0.100
565.000	-32.395	0.100
565.100	-30.797	0.100
565.200	-35.341	0.100
565.300	-39.786	0.100
565.400	-24.743	0.100
565.500	-23.248	0.100
565.600	-29.534	0.100
565.700	-33.613	0.100
565.800	-39.574	0.100
565.900	-36.580	0.100
566.000	-34.049	0.100
566.100	-33.372	0.100
566.200	-8.224	0.100
566.300	-18.677	0.100
566.400	-30.332	0.100
566.500	-31.135	0.100
566.600	-39.219	0.100
566.700	-18.241	0.100
566.800	-25.172	0.100
566.900	-24.931	0.100
567.000	-29.773	0.100
567.100	-31.795	0.100
567.200	-26.651	0.100
567.300	-41.961	0.100
567.400	-44.949	0.100
567.500	-31.625	0.100
567.600	-35.672	0.100
567.700	-18.622	0.100
567.800	-25.227	0.100
567.900	-23.601	0.100
568.000	-27.087	0.100
568.100	-26.937	0.100
568.200	-30.508	0.100
568.300	-39.837	0.100
568.400	-28.243	0.100
568.500	-27.509	0.100
568.600	-30.612	0.100
568.700	-39.968	0.100
568.800	-34.291	0.100
568.900	-27.010	0.100
569.000	-28.112	0.100
569.100	-42.969	0.100
569.200	-34.872	0.100
569.300	-45.730	0.100
569.400	-31.934	0.100
569.500	-26.662	0.100
569.600	-26.755	0.100
569.700	-29.758	0.100
569.800	-30.797	0.100
569.900	-28.725	0.100
570.000	-35.560	0.100
570.100	-34.726	0.100
570.200	-25.730	0.100
570.300	-29.003	0.100
570.400	-37.348	0.100
570.500	-25.188	0.100
570.600	-30.297	0.100
570.700	-27.767	0.100
570.800	-35.631	0.100
570.900	-31.686	0.100
571.000	-31.845	0.100
571.100	-29.376	0.100
571.200	-36.419	0.100
571.300	-34.210	0.100
571.400	-30.910	0.100
571.500	-39.615	0.100
571.600	-31.002	0.100
571.700	-21.714	0.100
571.800	-39.542	0.100
571.900	-47.281	0.100
572.000	-27.925	0.100
572.100	-35.608	0.100
572.200	-23.600	0.100
572.300	-35.257	0.100
572.400	-33.216	0.100
572.500	-29.743	0.100
572.600	-35.472	0.100
572.700	-35.641	0.100
572.800	-28.224	0.100
572.900	-29.259	0.100
573.000	-24.584	0.100
573.100	-18.770	0.100
573.200	-29.585	0.100
573.300	-37.849	0.100
573.400	-34.653	0.100
573.500	-39.564	0.100
573.600	-35.535	0.100
573.700	-40.229	0.100
573.800	-29.427	0.100
573.900	-20.602	0.100
574.000	-19.974	0.100
574.100	-37.126	0.100
574.200	-44.450	0.100
574.300	-30.188	0.100
574.400	-32.863	0.100
574.500	-33.449	0.100
574.600	-34.375	0.100
574.700	-24.172	0.100
574.800	-41.567	0.100
574.900	-18.982	0.100
575.000	-32.713	0.100
575.100	-24.406	0.100
575.200	-25.395	0.100
575.300	-36.616	0.100
575.400	-33.818	0.100
575.500	-38.377	0.100
575.600	-31.216	0.100
575.700	-30.896	0.100
575.800	-24.831	0.100
575.900	-28.542	0.100
576.000	-40.939	0.100
576.100	-35.802	0.100
576.200	-32.737	0.100
576.300	-28.911	0.100
576.400	-40.584	0.100
576.500	-24.569	0.100
576.600	-44.887	0.100
576.700	-34.893	0.100
576.800	-24.583	0.100
576.900	-30.364	0.100
577.000	-30.702	0.100
577.100	-35.629	0.100
577.200	-33.834	0.100
577.300	-32.109	0.100
577.400	-30.301	0.100
577.500	-31.702	0.100
577.600	-22.077	0.100
577.700	-28.172	0.100
577.800	-35.219	0.100
577.900	-31.591	0.100
578.000	-25.251	0.100
578.100	-35.747	0.100
578.200	-37.247	0.100
578.300	-35.908	0.100
578.400	-39.581	0.100
578.500	-25.398	0.100
578.600	-38.102	0.100
578.700	-32.358	0.100
578.800	-43.300	0.100
578.900	-26.877	0.100
579.000	-30.861	0.100
579.100	-39.512	0.100
579.200	-19.612	0.100
579.300	-21.155	0.100
579.400	-37.608	0.100
579.500	-29.514	0.100
579.600	-29.985	0.100
579.700	-44.906	0.100
579.800	-24.285	0.100
579.900	-38.162	0.100
580.000	-38.710	0.100
580.100	-29.154	0.100
580.200	-39.414	0.100
580.300	-26.332	0.100
580.400	-34.033	0.100
580.500	-33.379	0.100
580.600	-21.924	0.100
580.700	-38.939	0.100
580.800	-31.922	0.100
580.900	-32.050	0.100
581.000	-29.380	0.100
581.100	-20.963	0.100
581.200	-26.745	0.100
581.300	-39.633	0.100
581.400	-28.411	0.100
581.500	-17.563	0.100
581.600	-27.936	0.100
581.700	-37.274	0.100
581.800	-38.659	0.100
581.900	-30.797	0.100
582.000	-27.287	0.100
582.100	-20.525	0.100
582.200	-23.976	0.100
582.300	-37.039	0.100
582.400	-37.816	0.100
582.500	-33.587	0.100
582.600	-19.146	0.100
582.700	-28.033	0.100
582.800	-30.610	0.100
582.900	-32.721	0.100
583.000	-47.486	0.100
583.100	-26.936	0.100
583.200	-33.852	0.100
583.300	-28.064	0.100
583.400	-38.008	0.100
583.500	-34.836	0.100
583.600	-25.999	0.100
583.700	-20.756	0.100
583.800	-22.176	0.100
583.900	-25.013	0.100
584.000	-12.645	0.100
584.100	-29.869	0.100
584.200	-22.923	0.100
584.300	-30.457	0.100
584.400	-33.290	0.100
584.500	-25.180	0.100
584.600	-25.539	0.100
584.700	-29.296	0.100
584.800	-36.228	0.100
584.900	-35.526	0.100
585.000	-19.061	0.100
585.100	-22.887	0.100
585.200	-31.180	0.100
585.300	-38.443	0.100
585.400	-28.725	0.100
585.500	-26.880	0.100
585.600	-25.469	0.100
585.700	-35.218	0.100
585.800	-37.457	0.100
585.900	-28.626	0.100
586.000	-23.182	0.100
586.100	-17.843	0.100
586.200	-30.326	0.100
586.300	-33.137	0.100
586.400	-33.218	0.100
586.500	-27.615	0.100
586.600	-42.407	0.100
586.700	-31.429	0.100
586.800	-43.769	0.100
586.900	-15.717	0.100
587.000	-23.529	0.100
587.100	-39.931	0.100
587.200	-31.828	0.100
587.300	-26.042	0.100
587.400	-28.532	0.100
587.500	-32.678	0.100
587.600	-25.950	0.100
587.700	-28.340	0.100
587.800	-27.777	0.100
587.900	-20.677	0.100
588.000	-20.287	0.100
588.100	-29.458	0.100
588.200	-23.134	0.100
588.300	-34.529	0.100
588.400	-29.705	0.100
588.500	-34.453	0.100
588.600	-28.198	0.100
588.700	-22.610	0.100
588.800	-28.257	0.100
588.900	-38.745	0.100
589.000	-28.290	0.100
589.100	-12.694	0.100
589.200	-37.885	0.100
589.300	-32.674	0.100
589.400	-21.413	0.100
589.500	-15.856	0.100
589.600	-35.837	0.100
589.700	-37.288	0.100
589.800	-29.021	0.100
589.900	-21.078	0.100
590.000	-23.934	0.100
590.100	-18.398	0.100
590.200	-29.306	0.100
590.300	-31.070	0.100
590.400	-40.590	0.100
590.500	-32.546	0.100
590.600	-14.993	0.100
590.700	-24.310	0.100
590.800	-23.306	0.100
590.900	-24.369	0.100
591.000	-31.635	0.100
591.100	-26.446	0.100
591.200	-34.811	0.100
591.300	-22.103	0.100
591.400	-34.159	0.100
591.500	-33.757	0.100
591.600	-34.085	0.100
591.700	-15.982	0.100
591.800	-27.620	0.100
591.900	-35.044	0.100
592.000	-28.750	0.100
592.100	-24.965	0.100
592.200	-31.050	0.100
592.300	-36.079	0.100
592.400	-7.823	0.100
592.500	-27.181	0.100
592.600	-21.741	0.100
592.700	-34.212	0.100
592.800	-30.914	0.100
592.900	-19.984	0.100
593.000	-19.892	0.100
593.100	-37.070	0.100
593.200	-27.716	0.100
593.300	-26.187	0.100
593.400	-13.554	0.100
593.500	-23.552	0.100
593.600	-31.822	0.100
593.700	-28.994	0.100
593.800	-39.381	0.100
593.900	-31.265	0.100
594.000	-15.279	0.100
594.100	-28.430	0.100
594.200	-17.963	0.100
594.300	-29.129	0.100
594.400	-26.082	0.100
594.500	-21.274	0.100
594.600	-24.939	0.100
594.700	-18.728	0.100
594.800	-19.815	0.100
594.900	-16.556	0.100
595.000	-20.911	0.100
595.100	-22.738	0.100
595.200	-33.174	0.100
595.300	-27.667	0.100
595.400	-21.812	0.100
595.500	-45.140	0.100
595.600	-19.062	0.100
595.700	-25.053	0.100
595.800	-22.372	0.100
595.900	-14.548	0.100
596.000	-14.112	0.100
596.100	-26.200	0.100
596.200	-34.783	0.100
596.300	-29.857	0.100
596.400	-8.838	0.100
596.500	-11.397	0.100
596.600	-30.662	0.100
596.700	-44.543	0.100
596.800	-35.465	0.100
596.900	-31.706	0.100
597.000	-19.536	0.100
597.100	-31.745	0.100
597.200	-28.237	0.100
597.300	-20.161	0.100
597.400	-16.269	0.100
597.500	-26.682	0.100
597.600	-34.033	0.100
597.700	-19.276	0.100
597.800	-28.954	0.100
597.900	-26.155	0.100
598.000	-24.665	0.100
598.100	-35.825	0.100
598.200	-28.673	0.100
598.300	-23.091	0.100
598.400	-18.610	0.100
598.500	-18.697	0.100
598.600	-16.879	0.100
598.700	-20.999	0.100
598.800	-24.364	0.100
598.900	-15.247	0.100
599.000	-27.924	0.100
599.100	-22.281	0.100
599.200	-19.855	0.100
599.300	-27.381	0.100
599.400	-25.312	0.100
599.500	-18.523	0.100
599.600	-31.646	0.100
599.700	-24.727	0.100
599.800	-21.918	0.100
599.900	-16.882	0.100
600.000	-17.309	0.100
600.100	-28.502	0.100
600.200	-34.823	0.100
600.300	-23.325	0.100
600.400	-9.273	0.100
600.500	-28.695	0.100
600.600	-19.199	0.100
600.700	-28.443	0.100
600.800	-24.323	0.100
600.900	-16.121	0.100
601.000	-21.982	0.100
601.100	-26.537	0.100
601.200	-20.445	0.100
601.300	-12.157	0.100
601.400	-18.163	0.100
601.500	-38.480	0.100
601.600	-27.627	0.100
601.700	-17.972	0.100
601.800	-26.517	0.100
601.900	-15.442	0.100
602.000	-24.156	0.100
602.100	-25.571	0.100
602.200	-20.494	0.100
602.300	-15.854	0.100
602.400	-39.130	0.100
602.500	-14.316	0.100
602.600	-26.058	0.100
602.700	-39.780	0.100
602.800	-35.773	0.100
602.900	-18.595	0.100
603.000	-19.903	0.100
603.100	-25.792	0.100
603.200	-27.115	0.100
603.300	-17.673	0.100
603.400	-18.593	0.100
603.500	-16.859	0.100
603.600	-14.522	0.100
603.700	-20.822	0.100
603.800	-18.592	0.100
603.900	-27.219	0.100
604.000	-30.738	0.100
604.100	-27.505	0.100
604.200	-14.960	0.100
604.300	-16.277	0.100
604.400	-19.937	0.100
604.500	-26.165	0.100
604.600	-0.128	0.100
604.700	-15.417	0.100
604.800	-20.131	0.100
604.900	-23.192	0.100
605.000	-19.486	0.100
605.100	-24.258	0.100
605.200	-25.392	0.100
605.300	-18.099	0.100
605.400	-30.832	0.100
605.500	-22.359	0.100
605.600	-22.481	0.100
605.700	-29.708	0.100
605.800	-25.541	0.100
605.900	-22.902	0.100
606.000	-17.993	0.100
606.100	-19.915	0.100
606.200	-15.353	0.100
606.300	-21.234	0.100
606.400	-22.177	0.100
606.500	-15.964	0.100
606.600	-25.210	0.100
606.700	-16.255	0.100
606.800	-21.666	0.100
606.900	-14.166	0.100
607.000	-17.604	0.100
607.100	-26.608	0.100
607.200	-12.183	0.100
607.300	-16.638	0.100
607.400	-22.607	0.100
607.500	-20.075	0.100
607.600	-11.529	0.100
607.700	-16.051	0.100
607.800	-16.942	0.100
607.900	-23.414	0.100
608.000	-20.727	0.100
608.100	-17.554	0.100
608.200	-22.520	0.100
608.300	-34.915	0.100
608.400	-25.084	0.100
608.500	-15.836	0.100
608.600	-21.065	0.100
608.700	-23.970	0.100
608.800	-27.303	0.100
608.900	-18.150	0.100
609.000	-23.522	0.100
609.100	-20.939	0.100
609.200	-25.247	0.100
609.300	-16.327	0.100
609.400	-20.142	0.100
609.500	-13.808	0.100
609.600	-20.634	0.100
609.700	-2.759	0.100
609.800	-22.868	0.100
609.900	-22.637	0.100
610.000	-14.273	0.100
610.100	-13.272	0.100
610.200	-17.446	0.100
610.300	-24.426	0.100
610.400	-20.997	0.100
610.500	-20.612	0.100
610.600	-17.579	0.100
610.700	-22.108	0.100
610.800	-21.797	0.100
610.900	-25.368	0.100
611.000	-28.998	0.100
611.100	-21.400	0.100
611.200	-10.672	0.100
611.300	-21.932	0.100
611.400	-15.618	0.100
611.500	-24.337	0.100
611.600	-17.369	0.100
611.700	-16.821	0.100
611.800	-12.880	0.100
611.900	-18.796	0.100
612.000	-24.462	0.100
612.100	-21.946	0.100
612.200	-6.633	0.100
612.300	-10.825	0.100
612.400	-13.402	0.100
612.500	-17.943	0.100
612.600	-19.572	0.100
612.700	-30.566	0.100
612.800	-21.516	0.100
612.900	-22.481	0.100
613.000	-19.695	0.100
613.100	-26.866	0.100
613.200	-27.277	0.100
613.300	-23.839	0.100
613.400	-17.585	0.100
613.500	-31.328	0.100
613.600	-5.310	0.100
613.700	-12.860	0.100
613.800	-19.016	0.100
613.900	-31.368	0.100
614.000	-8.471	0.100
614.100	-18.226	0.100
614.200	-7.698	0.100
614.300	-22.591	0.100
614.400	-24.121	0.100
614.500	-25.239	0.100
614.600	-20.607	0.100
614.700	-2.251	0.100
614.800	-18.268	0.100
614.900	-18.810	0.100
615.000	-10.934	0.100
615.100	-26.567	0.100
615.200	-16.183	0.100
615.300	-25.870	0.100
615.400	-25.009	0.100
615.500	-21.147	0.100
615.600	-18.041	0.100
615.700	-22.811	0.100
615.800	-23.697	0.100
615.900	-16.534	0.100
616.000	-13.534	0.100
616.100	-23.515	0.100
616.200	-11.747	0.100
616.300	-11.906	0.100
616.400	-15.546	0.100
616.500	-19.776	0.100
616.600	-19.892	0.100
616.700	-23.939	0.100
616.800	-16.896	0.100
616.900	-21.646	0.100
617.000	-28.782	0.100
617.100	-9.128	0.100
617.200	-14.893	0.100
617.300	-12.644	0.100
617.400	-13.899	0.100
617.500	-17.163	0.100
617.600	-30.897	0.100
617.700	-24.504	0.100
617.800	-18.410	0.100
617.900	-16.338	0.100
618.000	2.581	0.100
618.100	-18.169	0.100
618.200	-21.055	0.100
618.300	-20.287	0.100
618.400	-10.465	0.100
618.500	-9.914	0.100
618.600	-16.306	0.100
618.700	-12.618	0.100
618.800	-20.944	0.100
618.900	-27.464	0.100
619.000	-16.424	0.100
619.100	-15.699	0.100
619.200	-14.148	0.100
619.300	-23.187	0.100
619.400	-22.898	0.100
619.500	-15.602	0.100
619.600	-6.038	0.100
619.700	-22.481	0.100
619.800	-18.809	0.100
619.900	-30.394	0.100
620.000	-18.663	0.100
620.100	-21.868	0.100
620.200	-9.279	0.100
620.300	-8.804	0.100
620.400	-17.996	0.100
620.500	-18.084	0.100
620.600	-14.347	0.100
620.700	-23.362	0.100
620.800	-16.552	0.100
620.900	-22.035	0.100
621.000	-3.516	0.100
621.100	-16.435	0.100
621.200	-34.494	0.100
621.300	-23.536	0.100
621.400	-15.730	0.100
621.500	-3.377	0.100
621.600	-13.763	0.100
621.700	-31.806	0.100
621.800	-33.312	0.100
621.900	-10.099	0.100
622.000	-11.319	0.100
622.100	-11.713	0.100
622.200	-6.839	0.100
622.300	-3.810	0.100
622.400	-13.626	0.100
622.500	-28.167	0.100
622.600	-12.558	0.100
622.700	-15.954	0.100
622.800	-18.182	0.100
622.900	-10.583	0.100
623.000	-12.321	0.100
623.100	-10.001	0.100
623.200	-25.720	0.100
623.300	-8.944	0.100
623.400	-4.706	0.100
623.500	-3.134	0.100
623.600	-18.919	0.100
623.700	-16.370	0.100
623.800	-39.192	0.100
623.900	-19.209	0.100
624.000	-15.541	0.100
624.100	-11.317	0.100
624.200	-14.256	0.100
624.300	-30.083	0.100
624.400	-28.126	0.100
624.500	0.472	0.100
624.600	-17.340	0.100
624.700	-31.725	0.100
624.800	-14.279	0.100
624.900	-10.735	0.100
625.000	-8.726	0.100
625.100	-15.196	0.100
625.200	-14.493	0.100
625.300	-30.615	0.100
625.400	-15.477	0.100
625.500	-10.239	0.100
625.600	-20.804	0.100
625.700	-21.136	0.100
625.800	-10.122	0.100
625.900	-23.781	0.100
626.000	-32.536	0.100
626.100	-5.633	0.100
626.200	-31.405	0.100
626.300	-23.652	0.100
626.400	-20.941	0.100
626.500	-8.553	0.100
626.600	-5.271	0.100
626.700	-11.529	0.100
626.800	-14.230	0.100
626.900	-8.941	0.100
627.000	-17.198	0.100
627.100	-18.810	0.100
627.200	-19.102	0.100
627.300	-18.364	0.100
627.400	-16.948	0.100
627.500	-6.887	0.100
627.600	-17.747	0.100
627.700	-21.913	0.100
627.800	-17.559	0.100
627.900	-14.275	0.100
628.000	-30.509	0.100
628.100	-23.233	0.100
628.200	-21.118	0.100
628.300	-16.052	0.100
628.400	-18.373	0.100
628.500	-12.720	0.100
628.600	-25.999	0.100
628.700	-17.861	0.100
628.800	-10.624	0.100
628.900	-24.089	0.100
629.000	-10.972	0.100
629.100	-29.271	0.100
629.200	-12.095	0.100
629.300	-6.369	0.100
629.400	-14.217	0.100
629.500	-6.613	0.100
629.600	-9.885	0.100
629.700	-15.774	0.100
629.800	-14.013	0.100
629.900	-10.058	0.100
630.000	-18.548	0.100
630.100	-13.746	0.100
630.200	-20.897	0.100
630.300	-0.369	0.099
630.400	17.376	0.100
630.500	50.438	0.100
630.600	43.600	0.100
630.700	56.801	0.099
630.800	89.842	0.100
630.900	85.723	0.100
631.000	89.898	0.099
631.100	83.005	0.099
631.200	87.404	0.100
631.300	92.899	0.099
631.400	93.621	0.100
631.500	92.318	0.100
631.600	90.064	0.099
631.700	80.840	0.100
631.800	87.969	0.099
631.900	75.084	0.100
632.000	79.129	0.099
632.100	77.064	0.100
632.200	87.511	0.100
632.300	82.541	0.100
632.400	60.085	0.099
632.500	70.252	0.100
632.600	65.784	0.099
632.700	66.653	0.099
632.800	70.941	0.100
632.900	61.508	0.099
633.000	66.114	0.099
633.100	68.322	0.099
633.200	68.623	0.099
633.300	60.974	0.099
633.400	62.539	0.099
633.500	60.480	0.099
633.600	39.768	0.099
633.700	39.810	0.099
633.800	59.299	0.099
633.900	58.673	0.099
634.000	48.493	0.099
634.100	40.612	0.099
634.200	43.435	0.099
634.300	56.719	0.099
634.400	37.856	0.099
634.500	56.782	0.100
634.600	48.357	0.099
634.700	45.522	0.099
634.800	44.236	0.100
634.900	40.667	0.099
635.000	41.410	0.099
635.100	49.245	0.099
635.200	48.606	0.099
635.300	43.177	0.099
635.400	53.066	0.099
635.500	43.354	0.099
635.600	51.590	0.099
635.700	29.512	0.099
635.800	26.781	0.099
635.900	49.086	0.099
636.000	42.401	0.099
636.100	35.866	0.099
636.200	48.357	0.099
636.300	43.374	0.099
636.400	50.475	0.099
636.500	28.481	0.099
636.600	35.471	0.099
636.700	48.348	0.099
636.800	40.944	0.099
636.900	44.922	0.099
637.000	49.451	0.099
637.100	50.153	0.099
637.200	42.886	0.099
637.300	42.228	0.099
637.400	52.789	0.099
637.500	44.438	0.099
637.600	60.736	0.099
637.700	60.236	0.099
637.800	45.137	0.099
637.900	45.342	0.099
638.000	55.016	0.099
638.100	61.716	0.099
638.200	47.693	0.099
638.300	62.679	0.099
638.400	64.181	0.099
638.500	53.561	0.099
638.600	54.461	0.099
638.700	61.693	0.099
638.800	71.156	0.099
638.900	58.410	0.099
639.000	69.301	0.099
639.100	72.855	0.099
639.200	64.862	0.099
639.300	60.979	0.099
639.400	58.922	0.099
639.500	66.349	0.099
639.600	69.054	0.099
639.700	56.857	0.099
639.800	75.421	0.099
639.900	64.356	0.099
640.000	72.093	0.099
640.100	57.875	0.099
640.200	73.438	0.099
640.300	58.330	0.099
640.400	75.156	0.099
640.500	73.939	0.099
640.600	77.540	0.099
640.700	62.393	0.099
640.800	65.533	0.099
640.900	64.872	0.099
641.000	67.118	0.099
641.100	70.938	0.099
641.200	54.217	0.099
641.300	66.327	0.099
641.400	72.187	0.099
641.500	73.613	0.099
641.600	72.699	0.099
641.700	66.205	0.099
641.800	67.628	0.099
641.900	69.112	0.099
642.000	68.067	0.099
642.100	63.076	0.099
642.200	65.773	0.099
642.300	62.610	0.099
642.400	76.682	0.099
642.500	72.917	0.099
642.600	73.681	0.099
642.700	75.288	0.099
642.800	88.189	0.099
642.900	65.864	0.099
643.000	76.667	0.099
643.100	87.148	0.099
643.200	80.688	0.099
643.300	74.305	0.099
643.400	74.737	0.099
643.500	79.134	0.099
643.600	73.150	0.099
643.700	72.578	0.099
643.800	72.740	0.099
643.900	80.044	0.099
644.000	65.675	0.099
644.100	69.047	0.099
644.200	71.061	0.099
644.300	68.436	0.099
644.400	70.382	0.099
644.500	69.645	0.099
644.600	72.091	0.099
644.700	65.558	0.099
644.800	76.897	0.099
644.900	64.423	0.099
645.000	80.958	0.099
645.100	64.048	0.099
645.200	59.771	0.099
645.300	75.168	0.099
645.400	70.234	0.099
645.500	73.750	0.099
645.600	63.263	0.099
645.700	66.442	0.099
645.800	66.575	0.099
645.900	72.957	0.099
646.000	65.898	0.099
646.100	63.717	0.099
646.200	73.504	0.099
646.300	67.398	0.099
646.400	74.605	0.099
646.500	62.482	0.099
646.600	67.287	0.099
646.700	70.981	0.099
646.800	70.300	0.099
646.900	53.248	0.099
647.000	53.664	0.099
647.100	71.144	0.099
647.200	65.366	0.099
647.300	63.484	0.099
647.400	66.664	0.099
647.500	46.125	0.099
647.600	58.835	0.099
647.700	62.412	0.099
647.800	68.057	0.099
647.900	73.680	0.099
648.000	65.080	0.099
648.100	62.747	0.099
648.200	65.610	0.099
648.300	67.209	0.099
648.400	60.232	0.099
648.500	47.743	0.099
648.600	73.834	0.099
648.700	51.057	0.099
648.800	61.627	0.099
648.900	75.007	0.099
649.000	56.542	0.099
649.100	71.972	0.099
649.200	64.343	0.099
649.300	74.046	0.099
649.400	60.450	0.099
649.500	63.430	0.099
649.600	60.377	0.099
649.700	62.469	0.099
649.800	53.980	0.099
649.900	60.065	0.099
650.000	62.899	0.099
650.100	69.548	0.099
650.200	63.277	0.099
650.300	73.992	0.099
650.400	66.065	0.099
650.500	65.252	0.099
650.600	61.340	0.099
650.700	53.448	0.099
650.800	58.033	0.099
650.900	70.596	0.099
651.000	55.491	0.099
651.100	53.373	0.099
651.200	59.413	0.099
651.300	47.360	0.099
651.400	57.160	0.099
651.500	60.672	0.099
651.600	68.190	0.099
651.700	52.679	0.099
651.800	57.945	0.099
651.900	62.177	0.099
652.000	74.444	0.099
652.100	66.003	0.099
652.200	64.778	0.099
652.300	43.241	0.099
652.400	55.492	0.099
652.500	58.954	0.099
652.600	63.505	0.099
652.700	60.112	0.099
652.800	65.640	0.099
652.900	55.019	0.099
653.000	62.996	0.099
653.100	53.851	0.099
653.200	71.401	0.099
653.300	64.946	0.099
653.400	58.080	0.099
653.500	60.621	0.099
653.600	53.682	0.099
653.700	52.151	0.099
653.800	56.998	0.099
653.900	54.082	0.099
654.000	61.730	0.099
654.100	62.943	0.099
654.200	61.607	0.099
654.300	52.443	0.099
654.400	62.823	0.099
654.500	55.210	0.099
654.600	47.705	0.099
654.700	65.383	0.099
654.800	61.634	0.099
654.900	67.172	0.099
655.000	59.848	0.099
655.100	50.553	0.099
655.200	53.912	0.099
655.300	68.051	0.099
655.400	60.435	0.099
655.500	55.534	0.099
655.600	59.360	0.099
655.700	46.123	0.099
655.800	49.690	0.099
655.900	65.623	0.099
656.000	62.027	0.099
656.100	62.817	0.099
656.200	66.675	0.099
656.300	51.853	0.099
656.400	56.219	0.099
656.500	51.117	0.099
656.600	42.863	0.099
656.700	57.998	0.099
656.800	58.251	0.099
656.900	56.286	0.099
657.000	51.775	0.099
657.100	54.632	0.099
657.200	57.421	0.099
657.300	59.139	0.099
657.400	53.066	0.099
657.500	49.141	0.099
657.600	64.288	0.099
657.700	47.005	0.099
657.800	52.080	0.099
657.900	61.230	0.099
658.000	58.924	0.099
658.100	58.550	0.099
658.200	54.002	0.099
658.300	52.047	0.099
658.400	51.007	0.099
658.500	61.004	0.099
658.600	57.831	0.099
658.700	49.011	0.099
658.800	56.287	0.099
658.900	49.183	0.099
659.000	53.304	0.099
659.100	55.089	0.099
659.200	62.955	0.099
659.300	59.227	0.099
659.400	57.405	0.099
659.500	53.511	0.099
659.600	46.163	0.099
659.700	49.321	0.099
659.800	51.103	0.099
659.900	46.798	0.099
660.000	47.147	0.099
660.100	58.884	0.099
660.200	54.725	0.099
660.300	44.550	0.099
660.400	59.299	0.099
660.500	63.566	0.099
660.600	62.505	0.099
660.700	65.965	0.099
660.800	57.188	0.099
660.900	46.511	0.099
661.000	52.142	0.099
661.100	42.345	0.099
661.200	44.468	0.099
661.300	51.447	0.099
661.400	60.337	0.099
661.500	54.057	0.099
661.600	54.414	0.099
661.700	59.015	0.099
661.800	55.218	0.099
661.900	53.279	0.099
662.000	52.177	0.099
662.100	50.538	0.099
662.200	51.822	0.099
662.300	50.233	0.099
662.400	44.085	0.099
662.500	49.291	0.099
662.600	49.244	0.099
662.700	59.000	0.099
662.800	59.941	0.099
662.900	55.691	0.099
663.000	40.389	0.099
663.100	60.204	0.099
663.200	52.963	0.099
663.300	43.425	0.099
663.400	59.557	0.099
663.500	54.283	0.099
663.600	58.229	0.099
663.700	50.240	0.099
663.800	48.729	0.099
663.900	55.486	0.099
664.000	48.155	0.099
664.100	47.293	0.099
664.200	46.713	0.099
664.300	50.206	0.099
664.400	49.102	0.099
664.500	52.553	0.099
664.600	52.802	0.099
664.700	42.712	0.099
664.800	53.336	0.099
664.900	44.966	0.099
665.000	54.568	0.099
665.100	52.869	0.099
665.200	36.675	0.099
665.300	46.490	0.099
665.400	57.066	0.099
665.500	59.608	0.099
665.600	53.929	0.099
665.700	51.800	0.099
665.800	51.313	0.099
665.900	50.626	0.099
666.000	58.097	0.099
666.100	55.178	0.099
666.200	51.695	0.099
666.300	50.262	0.099
666.400	51.344	0.099
666.500	56.185	0.099
666.600	45.003	0.099
666.700	44.922	0.099
666.800	47.191	0.099
666.900	63.411	0.099
667.000	54.988	0.099
667.100	42.432	0.099
667.200	45.082	0.099
667.300	48.903	0.099
667.400	60.241	0.099
667.500	40.980	0.099
667.600	48.715	0.099
667.700	62.390	0.099
667.800	51.239	0.099
667.900	43.601	0.099
668.000	36.793	0.099
668.100	39.757	0.099
668.200	43.455	0.099
668.300	67.946	0.099
668.400	53.982	0.099
668.500	51.609	0.099
668.600	45.583	0.099
668.700	59.486	0.099
668.800	61.062	0.099
668.900	47.304	0.099
669.000	44.009	0.099
669.100	28.274	0.099
669.200	47.944	0.099
669.300	25.334	0.099
669.400	52.292	0.099
669.500	59.516	0.099
669.600	51.777	0.099
669.700	55.383	0.099
669.800	55.176	0.099
669.900	37.909	0.099
670.000	32.472	0.099
670.100	44.974	0.099
670.200	54.065	0.099
670.300	47.375	0.099
670.400	40.114	0.099
670.500	46.219	0.099
670.600	51.657	0.099
670.700	54.382	0.099
670.800	51.199	0.099
670.900	51.269	0.099
671.000	54.682	0.099
671.100	44.359	0.099
671.200	56.405	0.099
671.300	44.325	0.099
671.400	40.032	0.099
671.500	52.100	0.099
671.600	51.543	0.099
671.700	41.424	0.099
671.800	49.601	0.099
671.900	51.846	0.099
672.000	58.154	0.099
672.100	50.959	0.099
672.200	48.561	0.099
672.300	49.060	0.099
672.400	37.563	0.099
672.500	62.447	0.099
672.600	59.919	0.099
672.700	57.477	0.099
672.800	31.989	0.099
672.900	55.846	0.099
673.000	52.387	0.099
673.100	52.018	0.099
673.200	48.155	0.099
673.300	46.720	0.099
673.400	47.584	0.099
673.500	43.083	0.099
673.600	58.560	0.099
673.700	54.019	0.099
673.800	49.855	0.099
673.900	49.176	0.099
674.000	50.769	0.099
674.100	45.046	0.099
674.200	45.781	0.099
674.300	46.998	0.099
674.400	42.189	0.099
674.500	45.526	0.099
674.600	56.515	0.099
674.700	55.976	0.099
674.800	39.403	0.099
674.900	39.115	0.099
675.000	49.289	0.099
675.100	34.932	0.099
675.200	41.081	0.099
675.300	60.475	0.099
675.400	50.519	0.099
675.500	47.638	0.099
675.600	48.650	0.099
675.700	48.150	0.099
675.800	55.974	0.099
675.900	51.886	0.099
676.000	43.329	0.099
676.100	50.233	0.099
676.200	52.672	0.099
676.300	58.072	0.099
676.400	49.985	0.099
676.500	53.023	0.099
676.600	45.551	0.099
676.700	49.436	0.099
676.800	50.427	0.099
676.900	52.387	0.099
677.000	54.806	0.099
677.100	48.467	0.099
677.200	47.879	0.099
677.300	47.605	0.099
677.400	44.568	0.099
677.500	57.530	0.099
677.600	40.807	0.099
677.700	39.104	0.099
677.800	49.041	0.099
677.900	45.981	0.099
678.000	49.417	0.099
678.100	42.406	0.099
678.200	35.193	0.099
678.300	52.331	0.099
678.400	44.242	0.099
678.500	52.061	0.099
678.600	52.371	0.099
678.700	46.116	0.099
678.800	61.080	0.099
678.900	51.361	0.099
679.000	38.317	0.099
679.100	47.850	0.099
679.200	45.041	0.099
679.300	52.501	0.099
679.400	46.405	0.099
679.500	44.559	0.099
679.600	52.406	0.099
679.700	43.780	0.099
679.800	34.573	0.099
679.900	49.822	0.099
680.000	52.130	0.099
680.100	55.147	0.099
680.200	45.541	0.099
680.300	44.889	0.099
680.400	44.592	0.099
680.500	38.695	0.099
680.600	47.361	0.099
680.700	53.052	0.099
680.800	46.549	0.099
680.900	55.244	0.099
681.000	47.996	0.099
681.100	50.354	0.099
681.200	36.170	0.099
681.300	33.939	0.099
681.400	49.556	0.099
681.500	27.624	0.099
681.600	51.231	0.099
681.700	48.852	0.099
681.800	49.145	0.099
681.900	44.782	0.099
682.000	47.930	0.099
682.100	42.856	0.099
682.200	48.781	0.099
682.300	53.262	0.099
682.400	52.669	0.099
682.500	44.046	0.099
682.600	40.992	0.099
682.700	39.905	0.099
682.800	46.732	0.099
682.900	44.629	0.099
683.000	44.082	0.099
683.100	41.850	0.099
683.200	46.615	0.099
683.300	48.705	0.099
683.400	53.282	0.099
683.500	27.611	0.099
683.600	50.473	0.099
683.700	47.725	0.099
683.800	44.502	0.099
683.900	54.204	0.099
684.000	47.427	0.099
684.100	52.979	0.099
684.200	31.622	0.099
684.300	48.351	0.099
684.400	47.235	0.099
684.500	49.284	0.099
684.600	37.286	0.099
684.700	34.592	0.099
684.800	47.969	0.099
684.900	45.220	0.099
685.000	52.624	0.099
685.100	49.961	0.099
685.200	42.684	0.099
685.300	33.995	0.099
685.400	52.694	0.099
685.500	49.039	0.099
685.600	49.251	0.099
685.700	32.663	0.099
685.800	51.088	0.099
685.900	52.450	0.099
686.000	40.982	0.099
686.100	44.970	0.100
686.200	42.731	0.100
686.300	42.530	0.100
686.400	47.219	0.100
686.500	42.634	0.100
686.600	41.757	0.100
686.700	56.490	0.100
686.800	57.688	0.100
686.900	45.039	0.100
687.000	43.771	0.100
687.100	47.822	0.100
687.200	45.821	0.100
687.300	36.146	0.100
687.400	49.414	0.100
687.500	52.393	0.100
687.600	54.268	0.100
687.700	46.203	0.100
687.800	41.235	0.100
687.900	43.703	0.100
688.000	43.299	0.100
688.100	41.151	0.100
688.200	21.943	0.100
688.300	39.601	0.100
688.400	51.288	0.100
688.500	62.746	0.100
688.600	43.062	0.100
688.700	37.681	0.100
688.800	39.066	0.100
688.900	44.047	0.100
689.000	48.746	0.100
689.100	46.614	0.100
689.200	48.246	0.100
689.300	38.202	0.100
689.400	38.182	0.100
689.500	48.126	0.100
689.600	37.198	0.100
689.700	51.748	0.100
689.800	42.657	0.100
689.900	39.881	0.100
690.000	41.004	0.100
690.100	46.938	0.100
690.200	43.228	0.100
690.300	31.567	0.100
690.400	32.319	0.100
690.500	31.205	0.100
690.600	21.393	0.100
690.700	12.221	0.100
690.800	10.584	0.100
690.900	-6.438	0.100
691.000	0.085	0.100
691.100	2.406	0.100
691.200	-8.080	0.100
691.300	-9.692	0.100
691.400	-3.118	0.100
691.500	-16.560	0.100
691.600	-13.999	0.100
691.700	-12.333	0.100
691.800	-16.524	0.100
691.900	-14.671	0.100
692.000	-23.506	0.100
692.100	-23.259	0.100
692.200	-25.655	0.100
692.300	-24.649	0.100
692.400	-20.801	0.100
692.500	-29.221	0.100
692.600	-27.571	0.100
692.700	-35.491	0.100
692.800	-32.998	0.100
692.900	-34.443	0.100
693.000	-22.426	0.100
693.100	-29.890	0.100
693.200	-19.904	0.100
693.300	-31.556	0.100
693.400	-33.650	0.100
693.500	-34.584	0.100
693.600	-32.948	0.100
693.700	-34.483	0.100
693.800	-33.055	0.100
693.900	-29.093	0.100
694.000	-28.665	0.100
694.100	-47.977	0.100
694.200	-41.656	0.100
694.300	-35.277	0.100
694.400	-56.008	0.100
694.500	-29.218	0.100
694.600	-35.858	0.100
694.700	-36.636	0.100
694.800	-36.809	0.100
694.900	-29.391	0.100
695.000	-37.639	0.100
695.100	-33.062	0.100
695.200	-35.957	0.100
695.300	-27.811	0.100
695.400	-34.512	0.100
695.500	-35.361	0.100
695.600	-37.032	0.100
695.700	-34.398	0.100
695.800	-47.040	0.100
695.900	-37.018	0.100
696.000	-32.112	0.100
696.100	-38.168	0.100
696.200	-36.721	0.100
696.300	-27.530	0.100
696.400	-27.209	0.100
696.500	-41.755	0.100
696.600	-23.835	0.100
696.700	-44.036	0.100
696.800	-43.610	0.100
696.900	-23.740	0.100
697.000	-19.928	0.100
697.100	-34.332	0.100
697.200	-25.226	0.100
697.300	-29.872	0.100
697.400	-33.207	0.100
697.500	-33.111	0.100
697.600	-32.781	0.100
697.700	-40.257	0.100
697.800	-26.394	0.100
697.900	-33.850	0.100
698.000	-41.076	0.100
698.100	-23.956	0.100
698.200	-34.117	0.100
698.300	-31.595	0.100
698.400	-38.044	0.100
698.500	-27.779	0.100
698.600	-34.690	0.100
698.700	-40.167	0.100
698.800	-32.096	0.100
698.900	-28.745	0.100
699.000	-31.156	0.100
699.100	-36.712	0.100
699.200	-29.221	0.100
699.300	-31.411	0.100
699.400	-38.360	0.100
699.500	-40.703	0.100
699.600	-14.211	0.100
699.700	-23.295	0.100
699.800	-29.963	0.100
699.900	-31.864	0.100
700.000	-30.744	0.100
700.100	-29.557	0.100
700.200	-28.530	0.100
700.300	-43.683	0.100
700.400	-36.195	0.100
700.500	-23.603	0.100
700.600	-28.599	0.100
700.700	-35.042	0.100
700.800	-41.125	0.100
700.900	-48.016	0.100
701.000	-21.517	0.100
701.100	-29.101	0.100
701.200	-34.680	0.100
701.300	-38.113	0.100
701.400	-16.860	0.100
701.500	-28.161	0.100
701.600	-16.649	0.100
701.700	-18.833	0.100
701.800	-33.981	0.100
701.900	-27.465	0.100
702.000	-24.986	0.100
702.100	-26.395	0.100
702.200	-38.464	0.100
702.300	-18.441	0.100
702.400	-32.648	0.100
702.500	-38.706	0.100
702.600	-27.758	0.100
702.700	-37.782	0.100
702.800	-32.504	0.100
702.900	-31.957	0.100
703.000	-35.342	0.100
703.100	-25.748	0.100
703.200	-12.531	0.100
703.300	-39.081	0.100
703.400	-24.972	0.100
703.500	-34.273	0.100
703.600	-25.235	0.100
703.700	-23.890	0.100
703.800	-33.364	0.100
703.900	-30.821	0.100
704.000	-36.952	0.100
704.100	-35.912	0.100
704.200	-24.046	0.100
704.300	-31.151	0.100
704.400	-33.541	0.100
704.500	-35.342	0.100
704.600	-28.949	0.100
704.700	-32.490	0.100
704.800	-37.797	0.100
704.900	-34.847	0.100
705.000	-32.100	0.100
705.100	-30.997	0.100
705.200	-30.086	0.100
705.300	-30.811	0.100
705.400	-29.842	0.100
705.500	-28.647	0.100
705.600	-33.367	0.100
705.700	-21.757	0.100
705.800	-23.822	0.100
705.900	-46.556	0.100
706.000	-33.950	0.100
706.100	-31.984	0.100
706.200	-28.352	0.100
706.300	-38.372	0.100
706.400	-35.562	0.100
706.500	-17.975	0.100
706.600	-29.205	0.100
706.700	-46.194	0.100
706.800	-38.578	0.100
706.900	-36.712	0.100
707.000	-27.635	0.100
707.100	-38.173	0.100
707.200	-35.608	0.100
707.300	-36.955	0.100
707.400	-20.290	0.100
707.500	-11.816	0.100
707.600	-30.053	0.100
707.700	-26.574	0.100
707.800	-28.428	0.100
707.900	-37.307	0.100
708.000	-34.002	0.100
708.100	-21.662	0.100
708.200	-35.143	0.100
708.300	-33.566	0.100
708.400	-30.399	0.100
708.500	-28.446	0.100
708.600	-18.409	0.100
708.700	-23.245	0.100
708.800	-33.820	0.100
708.900	-39.707	0.100
709.000	-41.809	0.100
709.100	-33.344	0.100
709.200	-28.727	0.100
709.300	-17.581	0.100
709.400	-28.286	0.100
709.500	-31.896	0.100
709.600	-33.397	0.100
709.700	-37.859	0.100
709.800	-25.648	0.100
709.900	-31.846	0.100
710.000	-43.516	0.100
710.100	-31.735	0.100
710.200	-34.778	0.100
710.300	-25.322	0.100
710.400	-31.939	0.100
710.500	-26.871	0.100
710.600	-31.695	0.100
710.700	-26.434	0.100
710.800	-31.845	0.100
710.900	-29.028	0.100
711.000	-30.874	0.100
711.100	-26.044	0.100
711.200	-38.794	0.100
711.300	-36.687	0.100
711.400	-33.541	0.100
711.500	-30.718	0.100
711.600	-28.748	0.100
711.700	-25.665	0.100
711.800	-39.015	0.100
711.900	-27.705	0.100
712.000	-29.338	0.100
712.100	-31.758	0.100
712.200	-32.576	0.100
712.300	-28.592	0.100
712.400	-19.156	0.100
712.500	-26.760	0.100
712.600	-43.240	0.100
712.700	-37.629	0.100
712.800	-29.398	0.100
712.900	-40.663	0.100
713.000	-24.067	0.100
713.100	-35.234	0.100
713.200	-36.089	0.100
713.300	-28.605	0.100
713.400	-23.970	0.100
713.500	-25.384	0.100
713.600	-31.778	0.100
713.700	-23.895	0.100
713.800	-25.977	0.100
713.900	-28.446	0.100
714.000	-34.921	0.100
714.100	-35.916	0.100
714.200	-45.567	0.100
714.300	-39.191	0.100
714.400	-24.385	0.100
714.500	-35.360	0.100
714.600	-27.199	0.100
714.700	-23.485	0.100
714.800	-35.094	0.100
714.900	-36.986	0.100
715.000	-40.857	0.100
715.100	-33.163	0.100
715.200	-36.457	0.100
715.300	-19.354	0.100
715.400	-22.060	0.100
715.500	-35.852	0.100
715.600	-30.313	0.100
715.700	-32.459	0.100
715.800	-27.770	0.100
715.900	-35.861	0.100
716.000	-37.230	0.100
716.100	-33.104	0.100
716.200	-30.511	0.100
716.300	-41.895	0.100
716.400	-30.730	0.100
716.500	-36.162	0.100
716.600	-29.278	0.100
716.700	-31.466	0.100
716.800	-34.947	0.100
716.900	-27.135	0.100
717.000	-30.733	0.100
717.100	-33.415	0.100
717.200	-24.597	0.100
717.300	-20.954	0.100
717.400	-32.822	0.100
717.500	-46.329	0.100
717.600	-36.767	0.100
717.700	-31.962	0.100
717.800	-45.896	0.100
717.900	-29.268	0.100
718.000	-32.797	0.100
718.100	-27.105	0.100
718.200	-36.010	0.100
718.300	-35.546	0.100
718.400	-31.343	0.100
718.500	-40.898	0.100
718.600	-28.106	0.100
718.700	-29.313	0.100
718.800	-32.201	0.100
718.900	-38.455	0.100
719.000	-29.374	0.100
719.100	-28.051	0.100
719.200	-33.290	0.100
719.300	-49.788	0.100
719.400	-32.982	0.100
719.500	-29.777	0.100
719.600	-40.329	0.100
719.700	-25.839	0.100
719.800	-27.995	0.100
719.900	-36.535	0.100
720.000	-25.826	0.100
720.100	-41.819	0.100
720.200	-40.280	0.100
720.300	-25.864	0.100
720.400	-35.343	0.100
720.500	-44.053	0.100
720.600	-31.755	0.100
720.700	-25.697	0.100
720.800	-35.957	0.100
720.900	-29.041	0.100
721.000	-33.323	0.100
721.100	-26.765	0.100
721.200	-38.456	0.100
721.300	-28.098	0.100
721.400	-40.093	0.100
721.500	-36.685	0.100
721.600	-31.098	0.100
721.700	-26.402	0.100
721.800	-37.196	0.100
721.900	-50.039	0.100
722.000	-32.261	0.100
722.100	-29.807	0.100
722.200	-22.116	0.100
722.300	-34.297	0.100
722.400	-34.799	0.100
722.500	-38.950	0.100
722.600	-35.313	0.100
722.700	-38.847	0.100
722.800	-31.841	0.100
722.900	-33.333	0.100
723.000	-41.568	0.100
723.100	-25.663	0.100
723.200	-42.275	0.100
723.300	-23.161	0.100
723.400	-32.812	0.100
723.500	-42.333	0.100
723.600	-36.545	0.100
723.700	-33.207	0.100
723.800	-38.571	0.100
723.900	-27.893	0.100
724.000	-40.862	0.100
724.100	-32.107	0.100
724.200	-42.784	0.100
724.300	-37.088	0.100
724.400	-41.559	0.100
724.500	-17.371	0.100
724.600	-31.791	0.100
724.700	-33.004	0.100
724.800	-30.546	0.100
724.900	-38.265	0.100
725.000	-32.287	0.100
725.100	-29.727	0.100
725.200	-40.559	0.100
725.300	-28.911	0.100
725.400	-28.098	0.100
725.500	-27.750	0.100
725.600	-42.546	0.100
725.700	-32.860	0.100
725.800	-33.388	0.100
725.900	-42.216	0.100
726.000	-34.562	0.100
726.100	-35.698	0.100
726.200	-34.348	0.100
726.300	-22.945	0.100
726.400	-32.723	0.100
726.500	-40.185	0.100
726.600	-35.259	0.100
726.700	-36.564	0.100
726.800	-32.699	0.100
726.900	-23.937	0.100
727.000	-18.134	0.100
727.100	-30.835	0.100
727.200	-35.362	0.100
727.300	-34.095	0.100
727.400	-35.286	0.100
727.500	-36.131	0.100
727.600	-37.352	0.100
727.700	-32.674	0.100
727.800	-28.481	0.100
727.900	-33.325	0.100
728.000	-39.842	0.100
728.100	-26.464	0.100
728.200	-37.049	0.100
728.300	-41.886	0.100
728.400	-28.314	0.100
728.500	-36.468	0.100
728.600	-27.523	0.100
728.700	-33.329	0.100
728.800	-35.785	0.100
728.900	-45.922	0.100
729.000	-28.497	0.100
729.100	-24.687	0.100
729.200	-33.331	0.100
729.300	-37.358	0.100
729.400	-32.349	0.100
729.500	-31.125	0.100
729.600	-40.555	0.100
729.700	-34.298	0.100
729.800	-26.187	0.100
729.900	-22.605	0.100
730.000	-32.159	0.100
730.100	-39.766	0.100
730.200	-36.538	0.100
730.300	-30.632	0.100
730.400	-38.826	0.100
730.500	-42.474	0.100
730.600	-34.426	0.100
730.700	-31.393	0.100
730.800	-38.103	0.100
730.900	-34.340	0.100
731.000	-22.299	0.100
731.100	-30.672	0.100
731.200	-27.079	0.100
731.300	-19.973	0.100
731.400	-35.787	0.100
731.500	-29.926	0.100
731.600	-34.969	0.100
731.700	-39.073	0.100
731.800	-37.298	0.100
731.900	-30.322	0.100
732.000	-32.668	0.100
732.100	-36.277	0.100
732.200	-27.954	0.100
732.300	-44.634	0.100
732.400	-22.783	0.100
732.500	-38.666	0.100
732.600	-29.483	0.100
732.700	-30.958	0.100
732.800	-38.710	0.100
732.900	-26.490	0.100
733.000	-30.767	0.100
733.100	-10.858	0.100
733.200	-36.173	0.100
733.300	-33.143	0.100
733.400	-26.092	0.100
733.500	-40.663	0.100
733.600	-23.023	0.100
733.700	-24.301	0.100
733.800	-42.198	0.100
733.900	-27.551	0.100
734.000	-32.124	0.100
734.100	-31.107	0.100
734.200	-34.777	0.100
734.300	-28.924	0.100
734.400	-27.066	0.100
734.500	-41.729	0.100
734.600	-21.310	0.100
734.700	-23.407	0.100
734.800	-34.159	0.100
734.900	-38.134	0.100
735.000	-29.817	0.100
735.100	-30.526	0.100
735.200	-29.339	0.100
735.300	-34.599	0.100
735.400	-27.404	0.100
735.500	-29.592	0.100
735.600	-37.101	0.100
735.700	-30.519	0.100
735.800	-39.513	0.100
735.900	-44.006	0.100
736.000	-29.612	0.100
736.100	-30.516	0.100
736.200	-31.484	0.100
736.300	-27.481	0.100
736.400	-37.489	0.100
736.500	-35.994	0.100
736.600	-32.376	0.100
736.700	-37.470	0.100
736.800	-32.661	0.100
736.900	-27.464	0.100
737.000	-30.829	0.100
737.100	-25.027	0.100
737.200	-28.265	0.100
737.300	-20.448	0.100
737.400	-27.030	0.100
737.500	-30.967	0.100
737.600	-35.970	0.100
737.700	-34.906	0.100
737.800	-30.254	0.100
737.900	-26.940	0.100
738.000	-27.150	0.100
738.100	-30.223	0.100
738.200	-26.905	0.100
738.300	-26.647	0.100
738.400	-25.713	0.100
738.500	-33.885	0.100
738.600	-48.394	0.100
738.700	-33.122	0.100
738.800	-18.820	0.100
738.900	-26.537	0.100
739.000	-27.916	0.100
739.100	-36.271	0.100
739.200	-33.599	0.100
739.300	-33.194	0.100
739.400	-19.560	0.100
739.500	-22.348	0.100
739.600	-20.640	0.100
739.700	-31.437	0.100
739.800	-26.973	0.100
739.900	-34.691	0.100
740.000	-26.535	0.100
740.100	-28.949	0.100
740.200	-29.226	0.100
740.300	-25.981	0.100
740.400	-57.406	0.100
740.500	-33.347	0.100
740.600	-21.065	0.100
740.700	-36.535	0.100
740.800	-31.353	0.100
740.900	-25.281	0.100
741.000	-30.403	0.100
741.100	-33.120	0.100
741.200	-16.210	0.100
741.300	-30.786	0.100
741.400	-34.682	0.100
741.500	-29.749	0.100
741.600	-17.281	0.100
741.700	-23.618	0.100
741.800	-29.422	0.100
741.900	-40.719	0.100
742.000	-21.054	0.100
742.100	-27.002	0.100
742.200	-35.931	0.100
742.300	-20.208	0.100
742.400	-32.973	0.100
742.500	-38.290	0.100
742.600	-32.316	0.100
742.700	-28.403	0.100
742.800	-23.741	0.100
742.900	-27.542	0.100
743.000	-30.417	0.100
743.100	-21.370	0.100
743.200	-24.527	0.100
743.300	-24.932	0.100
743.400	-21.333	0.100
743.500	-32.838	0.100
743.600	-28.888	0.100
743.700	-29.785	0.100
743.800	-33.137	0.100
743.900	-31.414	0.100
744.000	-27.237	0.100
744.100	-27.445	0.100
744.200	-28.445	0.100
744.300	-32.262	0.100
744.400	-25.615	0.100
744.500	-16.570	0.100
744.600	-21.049	0.100
744.700	-28.472	0.100
744.800	-26.597	0.100
744.900	-23.648	0.100
745.000	-38.620	0.100
745.100	-30.629	0.100
745.200	-28.726	0.100
745.300	-23.775	0.100
745.400	-21.210	0.100
745.500	-28.012	0.100
745.600	-34.763	0.100
745.700	-14.835	0.100
745.800	-36.975	0.100
745.900	-39.119	0.100
746.000	-29.383	0.100
746.100	-28.725	0.100
746.200	-24.062	0.100
746.300	-27.435	0.100
746.400	-26.239	0.100
746.500	-21.462	0.100
746.600	-20.509	0.100
746.700	-15.314	0.100
746.800	-26.756	0.100
746.900	-16.340	0.100
747.000	-36.931	0.100
747.100	-43.144	0.100
747.200	-28.856	0.100
747.300	-32.573	0.100
747.400	-13.352	0.100
747.500	-28.062	0.100
747.600	-27.704	0.100
747.700	-32.975	0.100
747.800	-28.414	0.100
747.900	-25.893	0.100
748.000	-22.385	0.100
748.100	-33.073	0.100
748.200	-27.528	0.100
748.300	-15.607	0.100
748.400	-21.677	0.100
748.500	-39.409	0.100
748.600	-23.593	0.100
748.700	-16.276	0.100
748.800	-33.516	0.100
748.900	-11.616	0.100
749.000	-30.160	0.100
749.100	-31.573	0.100
749.200	-32.770	0.100
749.300	-11.187	0.100
749.400	-15.551	0.100
749.500	-33.488	0.100
749.600	-21.586	0.100
749.700	-32.295	0.100
749.800	-27.246	0.100
749.900	-18.382	0.100
750.000	-27.863	0.100
750.100	-22.365	0.100
750.200	-33.468	0.100
750.300	-33.095	0.100
750.400	-32.196	0.100
750.500	-25.030	0.100
750.600	-23.190	0.100
750.700	-27.058	0.100
750.800	-20.900	0.100
750.900	-23.660	0.100
751.000	-21.815	0.100
751.100	-30.617	0.100
751.200	-31.282	0.100
751.300	-24.336	0.100
751.400	-24.115	0.100
751.500	-11.901	0.100
751.600	-20.108	0.100
751.700	-29.446	0.100
751.800	-28.081	0.100
751.900	-25.901	0.100
752.000	-26.878	0.100
752.100	-8.940	0.100
752.200	-18.751	0.100
752.300	-25.475	0.100
752.400	-37.923	0.100
752.500	-18.140	0.100
752.600	-35.288	0.100
752.700	-32.490	0.100
752.800	-20.948	0.100
752.900	-9.954	0.100
753.000	-26.797	0.100
753.100	-44.733	0.100
753.200	-21.333	0.100
753.300	-18.394	0.100
753.400	-17.516	0.100
753.500	-23.358	0.100
753.600	-22.242	0.100
753.700	-26.967	0.100
753.800	-23.303	0.100
753.900	-19.714	0.100
754.000	-31.700	0.100
754.100	-17.707	0.100
754.200	-17.278	0.100
754.300	-20.441	0.100
754.400	-23.831	0.100
754.500	-22.747	0.100
754.600	-20.852	0.100
754.700	-33.532	0.100
754.800	-26.447	0.100
754.900	-26.687	0.100
755.000	-14.662	0.100
755.100	-28.673	0.100
755.200	-23.489	0.100
755.300	-18.218	0.100
755.400	-16.794	0.100
755.500	-18.066	0.100
755.600	-14.141	0.100
755.700	-16.175	0.100
755.800	-23.610	0.100
755.900	-20.814	0.100
756.000	-28.779	0.100
756.100	-23.662	0.100
756.200	-13.116	0.100
756.300	-27.814	0.100
756.400	-27.903	0.100
756.500	-28.386	0.100
756.600	-22.177	0.100
756.700	-26.063	0.100
756.800	-14.006	0.100
756.900	-12.838	0.100
757.000	-12.413	0.100
757.100	-30.827	0.100
757.200	-28.827	0.100
757.300	-39.487	0.100
757.400	-26.618	0.100
757.500	-21.965	0.100
757.600	-19.240	0.100
757.700	-19.031	0.100
757.800	-8.132	0.100
757.900	-12.573	0.100
758.000	-26.366	0.100
758.100	-29.715	0.100
758.200	-21.638	0.100
758.300	-26.845	0.100
758.400	-24.600	0.100
758.500	-27.436	0.100
758.600	-25.992	0.100
758.700	-23.685	0.100
758.800	-14.461	0.100
758.900	-25.398	0.100
759.000	-26.528	0.100
759.100	-13.733	0.100
759.200	-17.820	0.100
759.300	-23.472	0.100
759.400	-25.912	0.100
759.500	-24.550	0.100
759.600	-26.606	0.100
759.700	-32.502	0.100
759.800	-13.019	0.100
759.900	-14.643	0.100
760.000	-15.471	0.100
760.100	-32.468	0.100
760.200	-17.959	0.100
760.300	-3.881	0.100
760.400	-23.014	0.100
760.500	-32.470	0.100
760.600	-21.080	0.100
760.700	-18.608	0.100
760.800	-16.283	0.100
760.900	-27.171	0.100
761.000	-18.940	0.100
761.100	-31.636	0.100
761.200	-14.082	0.100
761.300	-32.146	0.100
761.400	-23.525	0.100
761.500	-29.647	0.100
761.600	-16.759	0.100
761.700	-19.040	0.100
761.800	-20.526	0.100
761.900	-18.448	0.100
762.000	-22.396	0.100
762.100	-14.637	0.100
762.200	-19.206	0.100
762.300	-33.082	0.100
762.400	-23.072	0.100
762.500	-17.272	0.100
762.600	-24.421	0.100
762.700	-8.073	0.100
762.800	-16.305	0.100
762.900	-28.101	0.100
763.000	-30.238	0.100
763.100	-35.826	0.100
763.200	-15.811	0.100
763.300	-24.682	0.100
763.400	-17.418	0.100
763.500	-6.370	0.100
763.600	-20.616	0.100
763.700	-35.150	0.100
763.800	-17.936	0.100
763.900	-16.600	0.100
764.000	-15.056	0.100
764.100	-19.168	0.100
764.200	-14.350	0.100
764.300	-10.746	0.100
764.400	-25.031	0.100
764.500	-17.371	0.100
764.600	-24.508	0.100
764.700	-22.811	0.100
764.800	-20.869	0.100
764.900	-30.854	0.100
765.000	-26.327	0.100
765.100	-24.783	0.100
765.200	-24.638	0.100
765.300	-19.722	0.100
765.400	-18.083	0.100
765.500	-20.784	0.100
765.600	-18.953	0.100
765.700	-19.594	0.100
765.800	-11.674	0.100
765.900	-10.728	0.100
766.000	-29.710	0.100
766.100	-38.947	0.100
766.200	-10.036	0.100
766.300	-15.869	0.100
766.400	-11.657	0.100
766.500	-12.030	0.100
766.600	-21.194	0.100
766.700	-23.825	0.100
766.800	-19.085	0.100
766.900	-23.229	0.100
767.000	-29.388	0.100
767.100	-12.920	0.100
767.200	-14.924	0.100
767.300	-17.835	0.100
767.400	-26.788	0.100
767.500	-18.490	0.100
767.600	-17.281	0.100
767.700	-15.545	0.100
767.800	-26.310	0.100
767.900	-22.168	0.100
768.000	-23.669	0.100
768.100	-15.371	0.100
768.200	-27.412	0.100
768.300	-12.031	0.100
768.400	-24.158	0.100
768.500	-30.340	0.100
768.600	-22.429	0.100
768.700	-23.583	0.100
768.800	-1.292	0.100
768.900	-21.403	0.100
769.000	-11.172	0.100
769.100	-21.197	0.100
769.200	-25.430	0.100
769.300	-25.617	0.100
769.400	-17.041	0.100
769.500	-25.685	0.100
769.600	-15.326	0.100
769.700	-2.583	0.100
769.800	-13.477	0.100
769.900	-22.191	0.100
770.000	-28.298	0.100
770.100	-28.232	0.100
770.200	-15.952	0.100
770.300	-3.620	0.100
770.400	-22.192	0.100
770.500	-21.566	0.100
770.600	-20.051	0.100
770.700	-9.260	0.100
770.800	-16.468	0.100
770.900	-15.704	0.100
771.000	-24.530	0.100
771.100	-16.578	0.100
771.200	-7.015	0.100
771.300	-20.477	0.100
771.400	-32.063	0.100
771.500	-32.818	0.100
771.600	-32.679	0.100
771.700	-10.016	0.100
771.800	-12.178	0.100
771.900	-23.855	0.100
772.000	-25.456	0.100
772.100	-26.045	0.100
772.200	-12.315	0.100
772.300	-8.979	0.100
772.400	-8.263	0.100
772.500	-9.685	0.100
772.600	-9.010	0.100
772.700	-15.369	0.100
772.800	-20.721	0.100
772.900	-28.614	0.100
773.000	-25.086	0.100
773.100	-15.995	0.100
773.200	-14.446	0.100
773.300	-20.739	0.100
773.400	-19.624	0.100
773.500	-33.539	0.100
773.600	-15.897	0.100
773.700	-10.660	0.100
773.800	-29.489	0.100
773.900	-8.822	0.100
774.000	-14.204	0.100
774.100	-13.961	0.100
774.200	-9.992	0.100
774.300	-21.176	0.100
774.400	-18.165	0.100
774.500	-18.514	0.100
774.600	-21.154	0.100
774.700	-8.805	0.100
774.800	-20.757	0.100
774.900	-18.369	0.100
775.000	-17.950	0.100
775.100	-19.236	0.100
775.200	-19.944	0.100
775.300	-19.574	0.100
775.400	-21.043	0.100
775.500	-22.804	0.100
775.600	-20.708	0.100
775.700	-15.074	0.100
775.800	-11.405	0.100
775.900	-18.930	0.100
776.000	-21.796	0.100
776.100	-6.462	0.100
776.200	-27.151	0.100
776.300	-27.653	0.100
776.400	-10.950	0.100
776.500	-14.081	0.100
776.600	-23.346	0.100
776.700	-20.098	0.100
776.800	-20.043	0.100
776.900	-16.843	0.100
777.000	-16.761	0.100
777.100	-16.670	0.100
777.200	-19.111	0.100
777.300	-15.296	0.100
777.400	-15.802	0.100
777.500	-23.406	0.100
777.600	-16.887	0.100
777.700	-19.414	0.100
777.800	-21.942	0.100
777.900	-14.394	0.100
778.000	-22.150	0.100
778.100	-7.307	0.100
778.200	-12.040	0.100
778.300	-27.238	0.100
778.400	-31.769	0.100
778.500	-7.865	0.100
778.600	-13.678	0.100
778.700	-14.313	0.100
778.800	-15.369	0.100
778.900	-17.981	0.100
779.000	-16.270	0.100
779.100	-18.549	0.100
779.200	-12.149	0.100
779.300	-16.691	0.100
779.400	-32.315	0.100
779.500	-27.830	0.100
779.600	-7.801	0.100
779.700	-9.376	0.100
779.800	-9.757	0.100
779.900	-10.554	0.100
780.000	-25.645	0.100
780.100	-19.219	0.100
780.200	-17.792	0.100
780.300	-13.582	0.100
780.400	8.831	0.100
780.500	26.674	0.100
780.600	50.867	0.100
780.700	66.255	0.100
780.800	66.482	0.100
780.900	64.835	0.100
781.000	75.577	0.100
781.100	83.815	0.100
781.200	95.500	0.100
781.300	96.885	0.100
781.400	89.613	0.100
781.500	86.509	0.100
781.600	95.495	0.100
781.700	87.228	0.100
781.800	77.262	0.100
781.900	79.550	0.100
782.000	80.015	0.100
782.100	83.882	0.100
782.200	77.440	0.100
782.300	76.004	0.100
782.400	72.946	0.100
782.500	72.510	0.100
782.600	64.765	0.100
782.700	65.160	0.100
782.800	58.093	0.100
782.900	64.357	0.100
783.000	63.927	0.100
783.100	59.948	0.100
783.200	61.915	0.100
783.300	58.575	0.100
783.400	66.463	0.100
783.500	62.991	0.100
783.600	54.099	0.100
783.700	39.768	0.100
783.800	51.981	0.100
783.900	62.892	0.100
784.000	47.378	0.100
784.100	52.262	0.100
784.200	54.747	0.100
784.300	48.264	0.100
784.400	53.478	0.100
784.500	48.387	0.100
784.600	51.993	0.100
784.700	35.880	0.100
784.800	29.064	0.100
784.900	39.102	0.100
785.000	65.161	0.100
785.100	51.204	0.100
785.200	46.884	0.100
785.300	42.267	0.100
785.400	40.480	0.100
785.500	44.451	0.100
785.600	43.711	0.100
785.700	37.261	0.100
785.800	49.734	0.100
785.900	58.697	0.100
786.000	39.831	0.100
786.100	50.114	0.100
786.200	22.801	0.100
786.300	32.074	0.100
786.400	43.425	0.100
786.500	52.697	0.100
786.600	38.080	0.100
786.700	48.116	0.100
786.800	39.453	0.100
786.900	42.910	0.100
787.000	46.699	0.100
787.100	47.494	0.100
787.200	56.179	0.100
787.300	51.851	0.100
787.400	41.818	0.100
787.500	30.201	0.100
787.600	53.395	0.100
787.700	55.108	0.100
787.800	54.882	0.100
787.900	47.830	0.100
788.000	48.217	0.100
788.100	45.264	0.100
788.200	54.743	0.100
788.300	58.997	0.100
788.400	63.293	0.100
788.500	50.990	0.100
788.600	55.510	0.100
788.700	65.482	0.100
788.800	61.490	0.100
788.900	57.551	0.100
789.000	50.119	0.100
789.100	55.614	0.100
789.200	73.366	0.100
789.300	66.383	0.100
789.400	66.811	0.100
789.500	65.046	0.100
789.600	56.524	0.100
789.700	64.184	0.100
789.800	61.825	0.100
789.900	68.736	0.100
790.000	66.374	0.100
790.100	67.264	0.100
790.200	54.940	0.100
790.300	73.111	0.100
790.400	80.136	0.100
790.500	63.564	0.100
790.600	64.090	0.100
790.700	58.157	0.100
790.800	50.076	0.100
790.900	68.480	0.100
791.000	56.952	0.100
791.100	77.009	0.100
791.200	73.080	0.100
791.300	67.106	0.100
791.400	69.499	0.100
791.500	70.343	0.100
791.600	68.758	0.100
791.700	79.297	0.100
791.800	68.378	0.100
791.900	73.616	0.100
792.000	70.900	0.100
792.100	67.984	0.100
792.200	80.228	0.100
792.300	68.640	0.100
792.400	63.151	0.100
792.500	68.877	0.100
792.600	59.496	0.100
792.700	79.794	0.100
792.800	80.118	0.100
792.900	67.926	0.100
793.000	62.002	0.100
793.100	64.606	0.100
793.200	67.704	0.100
793.300	84.288	0.100
793.400	67.396	0.100
793.500	79.368	0.100
793.600	68.900	0.100
793.700	57.658	0.100
793.800	84.129	0.100
793.900	66.362	0.100
794.000	59.532	0.100
794.100	61.830	0.100
794.200	67.281	0.100
794.300	73.215	0.100
794.400	84.380	0.100
794.500	66.003	0.100
794.600	66.357	0.100
794.700	72.571	0.100
794.800	53.149	0.100
794.900	58.380	0.100
795.000	69.790	0.100
795.100	73.841	0.100
795.200	66.185	0.100
795.300	67.641	0.100
795.400	70.004	0.100
795.500	68.143	0.100
795.600	69.971	0.100
795.700	80.538	0.100
795.800	59.261	0.100
795.900	58.939	0.100
796.000	68.278	0.100
796.100	70.645	0.100
796.200	78.391	0.100
796.300	74.705	0.100
796.400	59.750	0.100
796.500	64.654	0.100
796.600	70.375	0.100
796.700	78.861	0.100
796.800	77.812	0.100
796.900	72.690	0.100
797.000	65.726	0.100
797.100	74.577	0.100
797.200	75.182	0.100
797.300	73.338	0.100
797.400	64.466	0.100
797.500	66.874	0.100
797.600	69.884	0.100
797.700	67.347	0.100
797.800	61.617	0.100
797.900	63.441	0.100
798.000	63.490	0.100
798.100	57.169	0.100
798.200	59.713	0.100
798.300	70.787	0.100
798.400	64.573	0.100
798.500	58.115	0.100
798.600	71.875	0.100
798.700	70.877	0.100
798.800	68.034	0.100
798.900	62.388	0.100
799.000	58.850	0.100
799.100	57.728	0.100
799.200	71.710	0.100
799.300	60.753	0.100
799.400	67.712	0.100
799.500	60.116	0.100
799.600	69.210	0.100
799.700	66.113	0.100
799.800	68.934	0.100
799.900	65.495	0.100
800.000	64.558	0.100
