time /s	I /nA	E /V
0.100	-2.178	0.100
0.200	5.104	0.100
0.300	-4.927	0.100
0.400	-0.061	0.100
0.500	-4.226	0.100
0.600	-5.473	0.100
0.700	-9.241	0.100
0.800	-13.493	0.100
0.900	-9.507	0.100
1.000	-14.247	0.100
1.100	-9.083	0.100
1.200	9.489	0.100
1.300	-3.948	0.100
1.400	-6.411	0.100
1.500	-9.396	0.100
1.600	4.004	0.100
1.700	-7.598	0.100
1.800	-2.677	0.100
1.900	-2.929	0.100
2.000	-13.384	0.100
2.100	-2.796	0.100
2.200	-7.006	0.100
2.300	-9.753	0.100
2.400	-12.136	0.100
2.500	-4.978	0.100
2.600	-20.637	0.100
2.700	0.475	0.100
2.800	-3.260	0.100
2.900	-7.590	0.100
3.000	-10.678	0.100
3.100	-0.871	0.100
3.200	-8.199	0.100
3.300	-6.923	0.100
3.400	-12.502	0.100
3.500	4.956	0.100
3.600	0.518	0.100
3.700	3.339	0.100
3.800	-10.308	0.100
3.900	-10.192	0.100
4.000	-13.431	0.100
4.100	-1.083	0.100
4.200	4.634	0.100
4.300	-0.279	0.100
4.400	-1.918	0.100
4.500	-8.206	0.100
4.600	-14.574	0.100
4.700	0.113	0.100
4.800	-7.032	0.100
4.900	-5.869	0.100
5.000	-19.860	0.100
5.100	-11.270	0.100
5.200	-14.405	0.100
5.300	-7.825	0.100
5.400	-10.715	0.100
5.500	-3.418	0.100
5.600	3.427	0.100
5.700	-13.170	0.100
5.800	-1.639	0.100
5.900	-1.376	0.100
6.000	-9.417	0.100
6.100	4.226	0.100
6.200	-9.360	0.100
6.300	-6.781	0.100
6.400	5.769	0.100
6.500	-0.575	0.100
6.600	3.831	0.100
6.700	-7.672	0.100
6.800	-11.258	0.100
6.900	-16.738	0.100
7.000	-10.205	0.100
7.100	-12.141	0.100
7.200	0.898	0.100
7.300	-5.237	0.100
7.400	7.973	0.100
7.500	-9.705	0.100
7.600	-10.810	0.100
7.700	1.240	0.100
7.800	-6.158	0.100
7.900	-5.270	0.100
8.000	-8.964	0.100
8.100	-2.552	0.100
8.200	-10.238	0.100
8.300	-8.266	0.100
8.400	-16.728	0.100
8.500	3.366	0.100
8.600	0.378	0.100
8.700	-10.175	0.100
8.800	4.315	0.100
8.900	-2.274	0.100
9.000	-5.655	0.100
9.100	-14.157	0.100
9.200	-16.003	0.100
9.300	-12.572	0.100
9.400	-13.810	0.100
9.500	-10.870	0.100
9.600	-10.580	0.100
9.700	3.163	0.100
9.800	0.243	0.100
9.900	-2.681	0.100
10.000	1.262	0.100
10.100	-4.797	0.100
10.200	-4.359	0.100
10.300	-13.067	0.100
10.400	4.743	0.100
10.500	2.551	0.100
10.600	-14.275	0.100
10.700	-6.591	0.100
10.800	-0.504	0.100
10.900	-9.609	0.100
11.000	-4.332	0.100
11.100	-12.974	0.100
11.200	1.903	0.100
11.300	-8.338	0.100
11.400	0.516	0.100
11.500	-2.484	0.100
11.600	-7.618	0.100
11.700	-8.324	0.100
11.800	-3.029	0.100
11.900	-4.344	0.100
12.000	1.323	0.100
12.100	-1.883	0.100
12.200	-5.813	0.100
12.300	-0.212	0.100
12.400	-3.939	0.100
12.500	-9.654	0.100
12.600	-18.901	0.100
12.700	-10.101	0.100
12.800	-1.368	0.100
12.900	2.886	0.100
13.000	-1.678	0.100
13.100	-8.426	0.100
13.200	-9.859	0.100
13.300	-17.024	0.100
13.400	-2.956	0.100
13.500	0.049	0.100
13.600	-9.670	0.100
13.700	-7.065	0.100
13.800	-11.700	0.100
13.900	-4.524	0.100
14.000	-8.917	0.100
14.100	5.861	0.100
14.200	3.600	0.100
14.300	-22.693	0.100
14.400	-2.673	0.100
14.500	-9.948	0.100
14.600	4.572	0.100
14.700	-3.454	0.100
14.800	-4.603	0.100
14.900	-2.488	0.100
15.000	0.090	0.100
15.100	-10.206	0.100
15.200	-10.487	0.100
15.300	9.308	0.100
15.400	-2.021	0.100
15.500	6.523	0.100
15.600	-2.980	0.100
15.700	-13.374	0.100
15.800	-16.400	0.100
15.900	-5.082	0.100
16.000	-13.614	0.100
16.100	-11.291	0.100
16.200	-11.929	0.100
16.300	-7.235	0.100
16.400	-13.433	0.100
16.500	-11.777	0.100
16.600	4.646	0.100
16.700	3.559	0.100
16.800	-9.082	0.100
16.900	0.375	0.100
17.000	-2.677	0.100
17.100	5.823	0.100
17.200	-5.296	0.100
17.300	-8.967	0.100
17.400	-15.010	0.100
17.500	-7.773	0.100
17.600	1.689	0.100
17.700	-3.633	0.100
17.800	9.001	0.100
17.900	5.711	0.100
18.000	-5.368	0.100
18.100	-6.471	0.100
18.200	-6.900	0.100
18.300	-4.137	0.100
18.400	-10.694	0.100
18.500	-9.597	0.100
18.600	-2.360	0.100
18.700	-5.590	0.100
18.800	-2.580	0.100
18.900	-11.663	0.100
19.000	3.129	0.100
19.100	-3.233	0.100
19.200	1.433	0.100
19.300	-3.891	0.100
19.400	-9.396	0.100
19.500	-12.614	0.100
19.600	-7.329	0.100
19.700	0.505	0.100
19.800	-10.437	0.100
19.900	-9.422	0.100
20.000	-6.315	0.100
20.100	-6.066	0.100
20.200	-7.577	0.100
20.300	-12.365	0.100
20.400	-4.841	0.100
20.500	-0.640	0.100
20.600	-3.787	0.100
20.700	-21.498	0.100
20.800	6.877	0.100
20.900	6.511	0.100
21.000	-0.597	0.100
21.100	-11.897	0.100
21.200	-3.787	0.100
21.300	-8.618	0.100
21.400	-5.227	0.100
21.500	-7.292	0.100
21.600	0.130	0.100
21.700	-2.941	0.100
21.800	-9.214	0.100
21.900	-3.508	0.100
22.000	-10.251	0.100
22.100	-10.479	0.100
22.200	-7.042	0.100
22.300	0.385	0.100
22.400	0.758	0.100
22.500	-16.072	0.100
22.600	-11.004	0.100
22.700	3.550	0.100
22.800	-10.410	0.100
22.900	-5.466	0.100
23.000	-15.981	0.100
23.100	2.932	0.100
23.200	1.780	0.100
23.300	-9.516	0.100
23.400	-5.914	0.100
23.500	-0.773	0.100
23.600	-9.820	0.100
23.700	-0.369	0.100
23.800	-10.881	0.100
23.900	-2.979	0.100
24.000	-13.309	0.100
24.100	0.510	0.100
24.200	3.636	0.100
24.300	-17.181	0.100
24.400	-9.267	0.100
24.500	-9.781	0.100
24.600	-2.168	0.100
24.700	-5.891	0.100
24.800	-11.335	0.100
24.900	-2.912	0.100
25.000	2.109	0.100
25.100	-12.716	0.100
25.200	2.121	0.100
25.300	-0.566	0.100
25.400	-4.993	0.100
25.500	-11.422	0.100
25.600	4.607	0.100
25.700	-26.225	0.100
25.800	-19.248	0.100
25.900	-10.744	0.100
26.000	-0.683	0.100
26.100	2.368	0.100
26.200	-5.466	0.100
26.300	-4.180	0.100
26.400	-8.628	0.100
26.500	-2.868	0.100
26.600	4.791	0.100
26.700	-10.294	0.100
26.800	-11.225	0.100
26.900	3.489	0.100
27.000	-6.701	0.100
27.100	-11.607	0.100
27.200	-10.197	0.100
27.300	-7.420	0.100
27.400	-7.750	0.100
27.500	-2.099	0.100
27.600	3.771	0.100
27.700	-0.130	0.100
27.800	-5.981	0.100
27.900	-4.240	0.100
28.000	-1.141	0.100
28.100	-3.133	0.100
28.200	-22.558	0.100
28.300	-13.371	0.100
28.400	8.162	0.100
28.500	-4.947	0.100
28.600	-0.743	0.100
28.700	-8.772	0.100
28.800	-12.923	0.100
28.900	-3.155	0.100
29.000	-0.985	0.100
29.100	-4.956	0.100
29.200	-11.357	0.100
29.300	-0.645	0.100
29.400	-3.615	0.100
29.500	-7.175	0.100
29.600	-16.032	0.100
29.700	-10.770	0.100
29.800	-3.810	0.100
29.900	-6.675	0.100
30.000	-6.523	0.100
30.100	13.213	0.100
30.200	0.305	0.100
30.300	-11.207	0.100
30.400	10.893	0.100
30.500	-5.689	0.100
30.600	5.990	0.100
30.700	20.638	0.100
30.800	-1.946	0.100
30.900	11.733	0.100
31.000	15.804	0.100
31.100	16.564	0.100
31.200	14.648	0.100
31.300	14.469	0.100
31.400	28.037	0.100
31.500	8.712	0.100
31.600	22.087	0.100
31.700	22.883	0.100
31.800	18.480	0.100
31.900	26.493	0.100
32.000	16.287	0.100
32.100	23.307	0.100
32.200	17.143	0.100
32.300	11.929	0.100
32.400	22.269	0.100
32.500	28.084	0.100
32.600	19.259	0.100
32.700	33.154	0.100
32.800	19.107	0.100
32.900	32.126	0.100
33.000	26.465	0.100
33.100	15.838	0.100
33.200	28.162	0.100
33.300	19.362	0.100
33.400	22.970	0.100
33.500	21.555	0.100
33.600	23.630	0.100
33.700	13.811	0.100
33.800	27.957	0.100
33.900	24.526	0.100
34.000	17.849	0.100
34.100	37.672	0.100
34.200	17.024	0.100
34.300	28.291	0.100
34.400	32.086	0.100
34.500	26.288	0.100
34.600	26.208	0.100
34.700	17.000	0.100
34.800	18.171	0.100
34.900	13.269	0.100
35.000	25.483	0.100
35.100	24.522	0.100
35.200	26.973	0.100
35.300	24.951	0.100
35.400	28.275	0.100
35.500	32.916	0.100
35.600	29.258	0.100
35.700	22.584	0.100
35.800	26.328	0.100
35.900	25.527	0.100
36.000	20.586	0.100
36.100	32.384	0.100
36.200	28.853	0.100
36.300	14.970	0.100
36.400	34.999	0.100
36.500	36.609	0.100
36.600	28.712	0.100
36.700	32.178	0.100
36.800	38.108	0.100
36.900	29.446	0.100
37.000	31.837	0.100
37.100	24.531	0.100
37.200	43.985	0.100
37.300	19.575	0.100
37.400	35.624	0.100
37.500	41.990	0.100
37.600	36.970	0.100
37.700	46.689	0.100
37.800	36.706	0.100
37.900	42.531	0.100
38.000	41.212	0.100
38.100	42.491	0.100
38.200	33.889	0.100
38.300	24.424	0.100
38.400	46.718	0.100
38.500	40.829	0.100
38.600	44.179	0.100
38.700	35.916	0.100
38.800	41.102	0.100
38.900	44.716	0.100
39.000	34.601	0.100
39.100	47.570	0.100
39.200	47.234	0.100
39.300	24.649	0.100
39.400	36.951	0.100
39.500	50.828	0.100
39.600	42.501	0.100
39.700	35.350	0.100
39.800	38.980	0.100
39.900	57.151	0.100
40.000	41.404	0.100
40.100	37.024	0.100
40.200	20.922	0.100
40.300	55.138	0.100
40.400	53.831	0.100
40.500	35.352	0.100
40.600	38.935	0.100
40.700	42.709	0.100
40.800	33.247	0.100
40.900	35.531	0.100
41.000	47.739	0.100
41.100	46.806	0.100
41.200	49.926	0.100
41.300	46.918	0.100
41.400	45.991	0.100
41.500	37.187	0.100
41.600	42.692	0.100
41.700	42.108	0.100
41.800	31.841	0.100
41.900	54.017	0.100
42.000	40.520	0.100
42.100	21.804	0.100
42.200	38.074	0.100
42.300	48.424	0.100
42.400	50.154	0.100
42.500	47.322	0.100
42.600	56.483	0.100
42.700	50.660	0.100
42.800	46.459	0.100
42.900	29.072	0.100
43.000	50.024	0.100
43.100	44.883	0.100
43.200	43.172	0.100
43.300	41.258	0.100
43.400	45.929	0.100
43.500	52.620	0.100
43.600	32.920	0.100
43.700	55.100	0.100
43.800	54.429	0.100
43.900	35.567	0.100
44.000	51.682	0.100
44.100	45.303	0.100
44.200	46.419	0.100
44.300	42.862	0.100
44.400	52.847	0.100
44.500	43.899	0.100
44.600	42.693	0.100
44.700	39.381	0.100
44.800	40.057	0.100
44.900	42.275	0.100
45.000	48.928	0.100
45.100	41.315	0.100
45.200	44.834	0.100
45.300	41.454	0.100
45.400	37.381	0.100
45.500	29.134	0.100
45.600	52.215	0.100
45.700	37.973	0.100
45.800	33.063	0.100
45.900	43.766	0.100
46.000	37.868	0.100
46.100	21.560	0.100
46.200	45.207	0.100
46.300	55.487	0.100
46.400	44.335	0.100
46.500	36.665	0.100
46.600	42.421	0.100
46.700	52.050	0.100
46.800	40.543	0.100
46.900	36.458	0.100
47.000	21.368	0.100
47.100	39.766	0.100
47.200	44.518	0.100
47.300	42.140	0.100
47.400	39.093	0.100
47.500	48.407	0.100
47.600	44.994	0.100
47.700	41.491	0.100
47.800	26.567	0.100
47.900	31.384	0.100
48.000	33.515	0.100
48.100	28.058	0.100
48.200	38.850	0.100
48.300	40.898	0.100
48.400	32.850	0.100
48.500	35.478	0.100
48.600	53.433	0.100
48.700	49.378	0.100
48.800	35.672	0.100
48.900	24.295	0.100
49.000	31.058	0.100
49.100	22.538	0.100
49.200	36.851	0.100
49.300	35.594	0.100
49.400	36.260	0.100
49.500	31.534	0.100
49.600	39.526	0.100
49.700	35.757	0.100
49.800	30.200	0.100
49.900	42.018	0.100
50.000	36.301	0.100
50.100	31.905	0.100
50.200	27.102	0.100
50.300	28.149	0.100
50.400	28.884	0.100
50.500	35.928	0.100
50.600	42.710	0.100
50.700	34.058	0.100
50.800	41.632	0.100
50.900	44.791	0.100
51.000	25.548	0.100
51.100	31.438	0.100
51.200	30.049	0.100
51.300	29.301	0.100
51.400	45.281	0.100
51.500	45.478	0.100
51.600	17.024	0.100
51.700	36.769	0.100
51.800	33.579	0.100
51.900	44.192	0.100
52.000	29.767	0.100
52.100	27.972	0.100
52.200	32.972	0.100
52.300	36.736	0.100
52.400	28.485	0.100
52.500	29.768	0.100
52.600	29.973	0.100
52.700	28.392	0.100
52.800	44.980	0.100
52.900	37.505	0.100
53.000	36.043	0.100
53.100	37.773	0.100
53.200	36.008	0.100
53.300	42.704	0.100
53.400	33.366	0.100
53.500	24.544	0.100
53.600	41.147	0.100
53.700	32.638	0.100
53.800	33.462	0.100
53.900	30.721	0.100
54.000	26.003	0.100
54.100	17.322	0.100
54.200	30.605	0.100
54.300	31.634	0.100
54.400	33.490	0.100
54.500	41.605	0.100
54.600	34.725	0.100
54.700	28.196	0.100
54.800	30.268	0.100
54.900	24.075	0.100
55.000	27.290	0.100
55.100	35.439	0.100
55.200	39.663	0.100
55.300	33.639	0.100
55.400	33.017	0.100
55.500	34.902	0.100
55.600	28.339	0.100
55.700	29.194	0.100
55.800	22.595	0.100
55.900	26.867	0.100
56.000	33.148	0.100
56.100	47.314	0.100
56.200	32.300	0.100
56.300	33.686	0.100
56.400	36.979	0.100
56.500	25.480	0.100
56.600	33.988	0.100
56.700	33.570	0.100
56.800	27.566	0.100
56.900	39.153	0.100
57.000	32.694	0.100
57.100	23.648	0.100
57.200	39.416	0.100
57.300	29.624	0.100
57.400	34.173	0.100
57.500	33.624	0.100
57.600	22.489	0.100
57.700	43.316	0.100
57.800	19.453	0.100
57.900	46.840	0.100
58.000	26.723	0.100
58.100	32.392	0.100
58.200	34.114	0.100
58.300	36.129	0.100
58.400	33.147	0.100
58.500	17.213	0.100
58.600	27.041	0.100
58.700	40.337	0.100
58.800	37.700	0.100
58.900	17.603	0.100
59.000	22.640	0.100
59.100	31.590	0.100
59.200	36.415	0.100
59.300	36.827	0.100
59.400	40.960	0.100
59.500	28.513	0.100
59.600	22.122	0.100
59.700	34.177	0.100
59.800	27.611	0.100
59.900	41.504	0.100
60.000	31.336	0.100
60.100	33.398	0.100
60.200	32.172	0.100
60.300	25.330	0.100
60.400	27.476	0.100
60.500	21.012	0.100
60.600	23.759	0.100
60.700	28.114	0.100
60.800	30.845	0.100
60.900	24.178	0.100
61.000	42.850	0.100
61.100	36.418	0.100
61.200	30.230	0.100
61.300	37.717	0.100
61.400	22.592	0.100
61.500	30.313	0.100
61.600	36.125	0.100
61.700	27.575	0.100
61.800	16.584	0.100
61.900	22.166	0.100
62.000	33.553	0.100
62.100	34.774	0.100
62.200	46.948	0.100
62.300	36.737	0.100
62.400	39.102	0.100
62.500	35.339	0.100
62.600	26.095	0.100
62.700	24.355	0.100
62.800	29.396	0.100
62.900	33.106	0.100
63.000	37.082	0.100
63.100	37.448	0.100
63.200	27.994	0.100
63.300	31.024	0.100
63.400	34.741	0.100
63.500	28.612	0.100
63.600	33.161	0.100
63.700	29.273	0.100
63.800	20.567	0.100
63.900	32.685	0.100
64.000	21.347	0.100
64.100	28.127	0.100
64.200	42.853	0.100
64.300	42.217	0.100
64.400	46.173	0.100
64.500	17.441	0.100
64.600	36.203	0.100
64.700	39.576	0.100
64.800	41.945	0.100
64.900	34.844	0.100
65.000	33.687	0.100
65.100	23.389	0.100
65.200	27.311	0.100
65.300	26.188	0.100
65.400	22.364	0.100
65.500	40.628	0.100
65.600	34.433	0.100
65.700	32.839	0.100
65.800	40.083	0.100
65.900	30.972	0.100
66.000	18.839	0.100
66.100	19.026	0.100
66.200	24.877	0.100
66.300	37.313	0.100
66.400	44.398	0.100
66.500	39.654	0.100
66.600	38.607	0.100
66.700	29.501	0.100
66.800	27.818	0.100
66.900	38.444	0.100
67.000	27.095	0.100
67.100	21.576	0.100
67.200	39.233	0.100
67.300	21.911	0.100
67.400	30.650	0.100
67.500	41.461	0.100
67.600	39.149	0.100
67.700	36.682	0.100
67.800	17.988	0.100
67.900	37.429	0.100
68.000	34.272	0.100
68.100	41.181	0.100
68.200	36.452	0.100
68.300	30.165	0.100
68.400	27.909	0.100
68.500	31.169	0.100
68.600	26.327	0.100
68.700	54.587	0.100
68.800	40.216	0.100
68.900	35.730	0.100
69.000	35.144	0.100
69.100	19.214	0.100
69.200	39.839	0.100
69.300	40.495	0.100
69.400	48.798	0.100
69.500	35.249	0.100
69.600	29.472	0.100
69.700	30.911	0.100
69.800	31.202	0.100
69.900	29.731	0.100
70.000	18.730	0.100
70.100	44.953	0.100
70.200	38.394	0.100
70.300	20.665	0.100
70.400	18.369	0.100
70.500	33.474	0.100
70.600	38.549	0.100
70.700	30.768	0.100
70.800	18.144	0.100
70.900	23.241	0.100
71.000	26.952	0.100
71.100	28.377	0.100
71.200	29.298	0.100
71.300	40.371	0.100
71.400	41.236	0.100
71.500	41.695	0.100
71.600	33.066	0.100
71.700	28.548	0.100
71.800	41.520	0.100
71.900	38.105	0.100
72.000	25.404	0.100
72.100	34.195	0.100
72.200	28.216	0.100
72.300	33.601	0.100
72.400	42.123	0.100
72.500	37.379	0.100
72.600	33.140	0.100
72.700	38.102	0.100
72.800	34.683	0.100
72.900	43.974	0.100
73.000	35.595	0.100
73.100	46.065	0.100
73.200	39.304	0.100
73.300	34.443	0.100
73.400	36.749	0.100
73.500	45.072	0.100
73.600	35.439	0.100
73.700	15.049	0.100
73.800	31.966	0.100
73.900	21.770	0.100
74.000	41.516	0.100
74.100	46.027	0.100
74.200	33.644	0.100
74.300	35.196	0.100
74.400	30.866	0.100
74.500	30.641	0.100
74.600	36.607	0.100
74.700	41.990	0.100
74.800	33.854	0.100
74.900	34.258	0.100
75.000	35.583	0.100
75.100	44.943	0.100
75.200	35.724	0.100
75.300	46.960	0.100
75.400	24.401	0.100
75.500	27.522	0.100
75.600	38.806	0.100
75.700	30.950	0.100
75.800	43.717	0.100
75.900	38.588	0.100
76.000	41.795	0.100
76.100	37.865	0.100
76.200	26.743	0.100
76.300	30.846	0.100
76.400	38.137	0.100
76.500	38.702	0.100
76.600	29.380	0.100
76.700	32.427	0.100
76.800	39.946	0.100
76.900	29.788	0.100
77.000	34.199	0.100
77.100	34.751	0.100
77.200	39.838	0.100
77.300	24.678	0.100
77.400	27.208	0.100
77.500	31.492	0.100
77.600	40.706	0.100
77.700	32.840	0.100
77.800	33.895	0.100
77.900	30.479	0.100
78.000	55.047	0.100
78.100	42.761	0.100
78.200	42.085	0.100
78.300	45.226	0.100
78.400	47.111	0.100
78.500	34.037	0.100
78.600	39.406	0.100
78.700	42.391	0.100
78.800	49.152	0.100
78.900	33.809	0.100
79.000	28.712	0.100
79.100	39.072	0.100
79.200	38.798	0.100
79.300	27.438	0.100
79.400	25.064	0.100
79.500	29.690	0.100
79.600	27.007	0.100
79.700	31.388	0.100
79.800	37.962	0.100
79.900	32.410	0.100
80.000	36.067	0.100
80.100	37.940	0.100
80.200	34.715	0.100
80.300	45.880	0.100
80.400	37.284	0.100
80.500	43.591	0.100
80.600	42.663	0.100
80.700	33.873	0.100
80.800	28.975	0.100
80.900	29.487	0.100
81.000	45.152	0.100
81.100	48.243	0.100
81.200	42.782	0.100
81.300	45.994	0.100
81.400	41.545	0.100
81.500	41.618	0.100
81.600	41.492	0.100
81.700	30.309	0.100
81.800	30.531	0.100
81.900	18.415	0.100
82.000	39.887	0.100
82.100	31.329	0.100
82.200	52.294	0.100
82.300	41.362	0.100
82.400	47.156	0.100
82.500	40.544	0.100
82.600	29.239	0.100
82.700	28.348	0.100
82.800	35.600	0.100
82.900	21.981	0.100
83.000	43.005	0.100
83.100	42.050	0.100
83.200	42.225	0.100
83.300	38.155	0.100
83.400	43.471	0.100
83.500	45.293	0.100
83.600	28.024	0.100
83.700	37.276	0.100
83.800	44.822	0.100
83.900	51.132	0.100
84.000	30.585	0.100
84.100	33.256	0.100
84.200	29.820	0.100
84.300	30.002	0.100
84.400	35.194	0.100
84.500	41.234	0.100
84.600	39.912	0.100
84.700	37.518	0.100
84.800	39.043	0.100
84.900	41.314	0.100
85.000	27.449	0.100
85.100	31.297	0.100
85.200	30.464	0.100
85.300	34.121	0.100
85.400	36.818	0.100
85.500	19.960	0.100
85.600	39.493	0.100
85.700	42.027	0.100
85.800	22.382	0.100
85.900	39.763	0.100
86.000	40.646	0.100
86.100	50.777	0.100
86.200	50.777	0.100
86.300	28.324	0.100
86.400	28.924	0.100
86.500	48.202	0.100
86.600	31.377	0.100
86.700	35.656	0.100
86.800	43.295	0.100
86.900	37.427	0.100
87.000	34.671	0.100
87.100	42.612	0.100
87.200	49.852	0.100
87.300	34.992	0.100
87.400	43.334	0.100
87.500	34.624	0.100
87.600	34.917	0.100
87.700	30.273	0.100
87.800	30.235	0.100
87.900	47.193	0.100
88.000	31.679	0.100
88.100	47.177	0.100
88.200	35.878	0.100
88.300	44.984	0.100
88.400	41.868	0.100
88.500	48.825	0.100
88.600	25.122	0.100
88.700	47.996	0.100
88.800	42.615	0.100
88.900	39.098	0.100
89.000	40.796	0.100
89.100	27.774	0.100
89.200	42.483	0.100
89.300	37.005	0.100
89.400	42.534	0.100
89.500	15.449	0.100
89.600	38.037	0.100
89.700	54.750	0.100
89.800	46.017	0.100
89.900	39.152	0.100
90.000	37.545	0.100
90.100	30.511	0.100
90.200	10.853	0.100
90.300	13.799	0.100
90.400	31.921	0.100
90.500	33.828	0.100
90.600	27.146	0.100
90.700	3.561	0.100
90.800	12.432	0.100
90.900	22.891	0.100
91.000	18.851	0.100
91.100	26.221	0.100
91.200	20.100	0.100
91.300	4.917	0.100
91.400	18.030	0.100
91.500	19.000	0.100
91.600	7.201	0.100
91.700	-5.100	0.100
91.800	7.389	0.100
91.900	2.982	0.100
92.000	0.629	0.100
92.100	10.471	0.100
92.200	-1.933	0.100
92.300	-5.630	0.100
92.400	-5.809	0.100
92.500	1.121	0.100
92.600	-21.050	0.100
92.700	-8.158	0.100
92.800	-8.887	0.100
92.900	-2.400	0.100
93.000	-19.237	0.100
93.100	-17.275	0.100
93.200	-15.056	0.100
93.300	-2.265	0.100
93.400	-6.389	0.100
93.500	-11.384	0.100
93.600	-19.396	0.100
93.700	-10.643	0.100
93.800	-6.724	0.100
93.900	-9.333	0.100
94.000	-19.768	0.100
94.100	-22.050	0.100
94.200	-18.997	0.100
94.300	-5.619	0.100
94.400	-31.132	0.100
94.500	-23.220	0.100
94.600	-12.182	0.100
94.700	-26.473	0.100
94.800	-21.808	0.100
94.900	-20.920	0.100
95.000	-18.843	0.100
95.100	-11.689	0.100
95.200	-21.790	0.100
95.300	-17.253	0.100
95.400	-20.168	0.100
95.500	-15.493	0.100
95.600	-32.389	0.100
95.700	-13.538	0.100
95.800	-21.217	0.100
95.900	-22.058	0.100
96.000	-23.305	0.100
96.100	-16.081	0.100
96.200	-8.485	0.100
96.300	-22.735	0.100
96.400	-22.640	0.100
96.500	-25.346	0.100
96.600	-21.784	0.100
96.700	-22.768	0.100
96.800	-20.896	0.100
96.900	-23.897	0.100
97.000	-13.406	0.100
97.100	-21.262	0.100
97.200	-26.270	0.100
97.300	-28.242	0.100
97.400	-15.986	0.100
97.500	-34.734	0.100
97.600	-20.943	0.100
97.700	-25.059	0.100
97.800	-14.181	0.100
97.900	-10.445	0.100
98.000	-11.808	0.100
98.100	-33.926	0.100
98.200	-27.877	0.100
98.300	-19.802	0.100
98.400	-21.461	0.100
98.500	-7.424	0.100
98.600	-12.100	0.100
98.700	-16.860	0.100
98.800	-26.211	0.100
98.900	-20.798	0.100
99.000	-17.231	0.100
99.100	-14.026	0.100
99.200	-18.889	0.100
99.300	-19.905	0.100
99.400	-8.911	0.100
99.500	-8.853	0.100
99.600	-5.184	0.100
99.700	-24.941	0.100
99.800	-17.205	0.100
99.900	-13.277	0.100
100.000	-9.426	0.100
100.100	-15.146	0.100
100.200	-9.647	0.100
100.300	-19.598	0.100
100.400	-12.433	0.100
100.500	-18.165	0.100
100.600	-9.714	0.100
100.700	-3.627	0.100
100.800	-23.096	0.100
100.900	-13.919	0.100
101.000	-20.001	0.100
101.100	-12.603	0.100
101.200	-7.548	0.100
101.300	-4.689	0.100
101.400	-15.124	0.100
101.500	-17.682	0.100
101.600	-11.052	0.100
101.700	-25.312	0.100
101.800	-11.103	0.100
101.900	-7.634	0.100
102.000	-0.219	0.100
102.100	-24.619	0.100
102.200	-33.264	0.100
102.300	-12.196	0.100
102.400	-11.624	0.100
102.500	-12.041	0.100
102.600	-12.013	0.100
102.700	-3.987	0.100
102.800	-7.789	0.100
102.900	-9.284	0.100
103.000	-11.529	0.100
103.100	-16.484	0.100
103.200	-21.904	0.100
103.300	-17.207	0.100
103.400	-9.816	0.100
103.500	4.011	0.100
103.600	-7.713	0.100
103.700	-11.661	0.100
103.800	-17.449	0.100
103.900	-6.430	0.100
104.000	-15.738	0.100
104.100	-8.214	0.100
104.200	-23.529	0.100
104.300	-14.551	0.100
104.400	-10.245	0.100
104.500	-9.503	0.100
104.600	-16.869	0.100
104.700	-10.341	0.100
104.800	-4.578	0.100
104.900	-17.420	0.100
105.000	-19.106	0.100
105.100	-9.520	0.100
105.200	-4.213	0.100
105.300	-16.297	0.100
105.400	-12.333	0.100
105.500	-6.655	0.100
105.600	-8.523	0.100
105.700	-18.218	0.100
105.800	-20.738	0.100
105.900	-22.589	0.100
106.000	-14.725	0.100
106.100	-8.541	0.100
106.200	-6.858	0.100
106.300	-21.068	0.100
106.400	-6.623	0.100
106.500	-13.658	0.100
106.600	-10.858	0.100
106.700	-11.184	0.100
106.800	-14.908	0.100
106.900	-11.600	0.100
107.000	-9.541	0.100
107.100	-3.217	0.100
107.200	-19.655	0.100
107.300	-14.453	0.100
107.400	-2.701	0.100
107.500	-23.105	0.100
107.600	-17.456	0.100
107.700	-2.797	0.100
107.800	-12.742	0.100
107.900	-16.178	0.100
108.000	-11.848	0.100
108.100	-8.135	0.100
108.200	-4.149	0.100
108.300	-8.478	0.100
108.400	6.645	0.100
108.500	-9.819	0.100
108.600	-32.384	0.100
108.700	-23.317	0.100
108.800	-8.374	0.100
108.900	1.024	0.100
109.000	-21.711	0.100
109.100	-5.881	0.100
109.200	-8.048	0.100
109.300	-10.187	0.100
109.400	-8.677	0.100
109.500	-7.132	0.100
109.600	-7.729	0.100
109.700	-15.614	0.100
109.800	-14.230	0.100
109.900	-23.087	0.100
110.000	-15.971	0.100
110.100	-11.055	0.100
110.200	-16.449	0.100
110.300	-17.694	0.100
110.400	-16.038	0.100
110.500	-4.658	0.100
110.600	-8.985	0.100
110.700	-12.077	0.100
110.800	-9.068	0.100
110.900	-10.361	0.100
111.000	-22.936	0.100
111.100	-11.487	0.100
111.200	-15.480	0.100
111.300	-15.389	0.100
111.400	-18.572	0.100
111.500	-16.288	0.100
111.600	-20.114	0.100
111.700	5.757	0.100
111.800	-15.670	0.100
111.900	-18.474	0.100
112.000	-12.821	0.100
112.100	3.642	0.100
112.200	-14.354	0.100
112.300	-17.095	0.100
112.400	-14.080	0.100
112.500	-12.885	0.100
112.600	-23.709	0.100
112.700	-7.399	0.100
112.800	-37.535	0.100
112.900	-9.738	0.100
113.000	-35.048	0.100
113.100	-15.037	0.100
113.200	-21.433	0.100
113.300	-13.658	0.100
113.400	-19.161	0.100
113.500	-15.191	0.100
113.600	-0.751	0.100
113.700	-9.978	0.100
113.800	-7.027	0.100
113.900	-2.716	0.100
114.000	-21.005	0.100
114.100	-9.995	0.100
114.200	-9.649	0.100
114.300	-8.671	0.100
114.400	-16.619	0.100
114.500	-13.391	0.100
114.600	-14.991	0.100
114.700	3.485	0.100
114.800	-13.777	0.100
114.900	-7.563	0.100
115.000	-15.621	0.100
115.100	-12.570	0.100
115.200	-15.195	0.100
115.300	-16.757	0.100
115.400	-29.214	0.100
115.500	-17.623	0.100
115.600	-7.733	0.100
115.700	-5.370	0.100
115.800	-15.471	0.100
115.900	-13.493	0.100
116.000	-15.247	0.100
116.100	-12.315	0.100
116.200	-11.709	0.100
116.300	-22.697	0.100
116.400	-15.987	0.100
116.500	-15.455	0.100
116.600	-12.337	0.100
116.700	-15.434	0.100
116.800	-20.583	0.100
116.900	-18.019	0.100
117.000	-11.450	0.100
117.100	-17.923	0.100
117.200	-20.368	0.100
117.300	-16.940	0.100
117.400	-22.021	0.100
117.500	-17.068	0.100
117.600	-27.839	0.100
117.700	-25.077	0.100
117.800	-24.710	0.100
117.900	-4.575	0.100
118.000	-6.366	0.100
118.100	-10.162	0.100
118.200	-18.938	0.100
118.300	-18.463	0.100
118.400	-26.468	0.100
118.500	-20.597	0.100
118.600	-13.365	0.100
118.700	-2.824	0.100
118.800	-17.369	0.100
118.900	-18.794	0.100
119.000	-22.217	0.100
119.100	-25.646	0.100
119.200	-26.628	0.100
119.300	-11.524	0.100
119.400	-18.241	0.100
119.500	-7.107	0.100
119.600	-8.619	0.100
119.700	-11.033	0.100
119.800	-29.713	0.100
119.900	-18.493	0.100
120.000	-7.209	0.100
120.100	-35.469	0.100
120.200	-11.685	0.100
120.300	-16.080	0.100
120.400	-19.147	0.100
120.500	-8.380	0.100
120.600	-21.514	0.100
120.700	-15.712	0.100
120.800	-5.358	0.100
120.900	-8.290	0.100
121.000	-11.463	0.100
121.100	-13.288	0.100
121.200	-36.279	0.100
121.300	-23.766	0.100
121.400	-20.313	0.100
121.500	-16.159	0.100
121.600	-7.174	0.100
121.700	-16.449	0.100
121.800	-15.594	0.100
121.900	-8.353	0.100
122.000	-27.750	0.100
122.100	-24.501	0.100
122.200	-8.748	0.100
122.300	-12.719	0.100
122.400	-13.982	0.100
122.500	-17.370	0.100
122.600	-14.062	0.100
122.700	-21.046	0.100
122.800	-15.926	0.100
122.900	-21.864	0.100
123.000	-30.672	0.100
123.100	-24.882	0.100
123.200	-11.492	0.100
123.300	-15.744	0.100
123.400	-16.708	0.100
123.500	-18.357	0.100
123.600	0.009	0.100
123.700	-11.426	0.100
123.800	-16.170	0.100
123.900	-16.652	0.100
124.000	-23.315	0.100
124.100	-11.254	0.100
124.200	-21.763	0.100
124.300	-30.752	0.100
124.400	-11.910	0.100
124.500	-18.798	0.100
124.600	-27.057	0.100
124.700	-24.171	0.100
124.800	-16.394	0.100
124.900	-2.250	0.100
125.000	-7.151	0.100
125.100	-33.896	0.100
125.200	-2.642	0.100
125.300	-32.150	0.100
125.400	-36.680	0.100
125.500	-7.369	0.100
125.600	-16.505	0.100
125.700	-19.340	0.100
125.800	-17.452	0.100
125.900	-21.945	0.100
126.000	-15.621	0.100
126.100	-9.247	0.100
126.200	-13.323	0.100
126.300	-19.331	0.100
126.400	-8.523	0.100
126.500	-21.140	0.100
126.600	-17.674	0.100
126.700	-24.745	0.100
126.800	-21.699	0.100
126.900	-32.125	0.100
127.000	-6.702	0.100
127.100	-16.070	0.100
127.200	-7.781	0.100
127.300	-13.819	0.100
127.400	-18.697	0.100
127.500	-21.198	0.100
127.600	-23.875	0.100
127.700	-11.420	0.100
127.800	-17.904	0.100
127.900	-21.049	0.100
128.000	-16.431	0.100
128.100	-27.238	0.100
128.200	-18.523	0.100
128.300	-13.595	0.100
128.400	-15.107	0.100
128.500	-21.239	0.100
128.600	-11.218	0.100
128.700	-8.863	0.100
128.800	-16.762	0.100
128.900	-22.944	0.100
129.000	-33.155	0.100
129.100	-21.694	0.100
129.200	-5.978	0.100
129.300	-21.943	0.100
129.400	-16.907	0.100
129.500	-21.728	0.100
129.600	-19.211	0.100
129.700	-17.948	0.100
129.800	-18.509	0.100
129.900	-20.707	0.100
130.000	-14.907	0.100
130.100	-21.982	0.100
130.200	-19.425	0.100
130.300	-14.359	0.100
130.400	-9.183	0.100
130.500	-32.372	0.100
130.600	-16.276	0.100
130.700	-21.047	0.100
130.800	-10.061	0.100
130.900	-17.328	0.100
131.000	-9.638	0.100
131.100	-15.454	0.100
131.200	-17.592	0.100
131.300	-23.726	0.100
131.400	-13.022	0.100
131.500	-14.111	0.100
131.600	-11.232	0.100
131.700	-16.186	0.100
131.800	-11.560	0.100
131.900	-13.784	0.100
132.000	-16.616	0.100
132.100	-14.628	0.100
132.200	-19.575	0.100
132.300	-14.400	0.100
132.400	-21.078	0.100
132.500	-19.819	0.100
132.600	-23.183	0.100
132.700	-10.325	0.100
132.800	-3.020	0.100
132.900	-13.654	0.100
133.000	-14.955	0.100
133.100	-13.796	0.100
133.200	-18.214	0.100
133.300	-17.114	0.100
133.400	-23.805	0.100
133.500	-22.609	0.100
133.600	-23.048	0.100
133.700	-22.055	0.100
133.800	-24.928	0.100
133.900	-13.439	0.100
134.000	-15.934	0.100
134.100	-12.793	0.100
134.200	-22.728	0.100
134.300	-25.710	0.100
134.400	-24.324	0.100
134.500	-0.164	0.100
134.600	-12.532	0.100
134.700	-21.783	0.100
134.800	-27.212	0.100
134.900	-18.013	0.100
135.000	-15.394	0.100
135.100	-13.365	0.100
135.200	-5.507	0.100
135.300	-23.594	0.100
135.400	-6.132	0.100
135.500	-21.403	0.100
135.600	-24.945	0.100
135.700	-20.519	0.100
135.800	-17.476	0.100
135.900	-13.898	0.100
136.000	-17.470	0.100
136.100	-14.794	0.100
136.200	-23.003	0.100
136.300	-21.424	0.100
136.400	-20.469	0.100
136.500	-14.337	0.100
136.600	-17.076	0.100
136.700	-14.570	0.100
136.800	-19.665	0.100
136.900	-17.745	0.100
137.000	-19.477	0.100
137.100	-6.053	0.100
137.200	-13.073	0.100
137.300	-19.932	0.100
137.400	-19.685	0.100
137.500	-7.587	0.100
137.600	-12.160	0.100
137.700	-14.775	0.100
137.800	-20.353	0.100
137.900	-20.624	0.100
138.000	-19.233	0.100
138.100	-20.752	0.100
138.200	-26.244	0.100
138.300	-13.382	0.100
138.400	-17.085	0.100
138.500	-22.727	0.100
138.600	-21.185	0.100
138.700	-14.083	0.100
138.800	-18.231	0.100
138.900	-23.012	0.100
139.000	-11.965	0.100
139.100	-11.087	0.100
139.200	-17.656	0.100
139.300	-14.089	0.100
139.400	-22.426	0.100
139.500	-19.445	0.100
139.600	-8.068	0.100
139.700	-10.459	0.100
139.800	-18.278	0.100
139.900	-28.155	0.100
140.000	-22.756	0.100
140.100	-12.453	0.100
140.200	-17.870	0.100
140.300	-9.254	0.100
140.400	-36.083	0.100
140.500	-17.096	0.100
140.600	-15.812	0.100
140.700	-11.967	0.100
140.800	-28.370	0.100
140.900	-14.401	0.100
141.000	-19.435	0.100
141.100	-16.190	0.100
141.200	-14.137	0.100
141.300	-19.564	0.100
141.400	-17.452	0.100
141.500	-7.680	0.100
141.600	-26.283	0.100
141.700	-25.627	0.100
141.800	-15.104	0.100
141.900	-8.516	0.100
142.000	-16.897	0.100
142.100	-14.379	0.100
142.200	-13.361	0.100
142.300	-16.104	0.100
142.400	-13.585	0.100
142.500	-11.704	0.100
142.600	-8.306	0.100
142.700	-5.442	0.100
142.800	-15.605	0.100
142.900	-21.984	0.100
143.000	-25.077	0.100
143.100	-18.664	0.100
143.200	-15.958	0.100
143.300	-23.534	0.100
143.400	-22.395	0.100
143.500	-28.765	0.100
143.600	-23.651	0.100
143.700	-19.331	0.100
143.800	-17.209	0.100
143.900	-14.560	0.100
144.000	-5.794	0.100
144.100	-16.310	0.100
144.200	-13.519	0.100
144.300	-12.242	0.100
144.400	-12.645	0.100
144.500	-1.009	0.100
144.600	-28.669	0.100
144.700	-14.626	0.100
144.800	-12.581	0.100
144.900	-12.854	0.100
145.000	-8.643	0.100
145.100	-20.393	0.100
145.200	-6.270	0.100
145.300	-14.118	0.100
145.400	-23.802	0.100
145.500	-26.705	0.100
145.600	-25.946	0.100
145.700	-11.279	0.100
145.800	-12.731	0.100
145.900	-19.823	0.100
146.000	-7.231	0.100
146.100	-11.442	0.100
146.200	-24.458	0.100
146.300	-20.915	0.100
146.400	-27.469	0.100
146.500	-31.138	0.100
146.600	-13.198	0.100
146.700	-17.091	0.100
146.800	-16.319	0.100
146.900	-12.096	0.100
147.000	-10.372	0.100
147.100	-8.953	0.100
147.200	-17.908	0.100
147.300	-39.713	0.100
147.400	-11.442	0.100
147.500	-19.101	0.100
147.600	-18.090	0.100
147.700	-23.285	0.100
147.800	-16.344	0.100
147.900	-17.009	0.100
148.000	-24.704	0.100
148.100	-14.729	0.100
148.200	-12.156	0.100
148.300	-19.887	0.100
148.400	-8.242	0.100
148.500	-13.159	0.100
148.600	-11.616	0.100
148.700	-13.858	0.100
148.800	-6.237	0.100
148.900	-31.164	0.100
149.000	-24.188	0.100
149.100	-4.113	0.100
149.200	-4.564	0.100
149.300	-12.172	0.100
149.400	-17.031	0.100
149.500	-18.722	0.100
149.600	-16.110	0.100
149.700	-17.014	0.100
149.800	-26.103	0.100
149.900	-21.265	0.100
150.000	-20.655	0.100
150.100	-12.155	0.100
150.200	-12.407	0.100
150.300	-20.040	0.100
150.400	-18.503	0.100
150.500	-10.088	0.100
150.600	-20.572	0.100
150.700	-7.492	0.100
150.800	-23.941	0.100
150.900	-33.051	0.100
151.000	-14.653	0.100
151.100	-26.256	0.100
151.200	-12.888	0.100
151.300	-7.769	0.100
151.400	-27.077	0.100
151.500	-11.978	0.100
151.600	-3.117	0.100
151.700	-18.660	0.100
151.800	-23.048	0.100
151.900	-5.345	0.100
152.000	-19.485	0.100
152.100	-20.743	0.100
152.200	-10.035	0.100
152.300	-20.804	0.100
152.400	-10.799	0.100
152.500	-14.102	0.100
152.600	-12.161	0.100
152.700	-15.104	0.100
152.800	-1.196	0.100
152.900	-23.318	0.100
153.000	-11.766	0.100
153.100	-12.184	0.100
153.200	-19.138	0.100
153.300	-31.420	0.100
153.400	-13.610	0.100
153.500	-14.758	0.100
153.600	-11.719	0.100
153.700	-9.069	0.100
153.800	-13.394	0.100
153.900	-12.767	0.100
154.000	-26.912	0.100
154.100	-22.925	0.100
154.200	-4.302	0.100
154.300	-10.672	0.100
154.400	-13.005	0.100
154.500	-13.952	0.100
154.600	-21.744	0.100
154.700	-15.196	0.100
154.800	-27.881	0.100
154.900	-6.694	0.100
155.000	-17.057	0.100
155.100	-12.120	0.100
155.200	-7.184	0.100
155.300	-12.274	0.100
155.400	-22.164	0.100
155.500	-4.143	0.100
155.600	-1.672	0.100
155.700	-11.015	0.100
155.800	-10.354	0.100
155.900	-19.605	0.100
156.000	-17.600	0.100
156.100	-21.737	0.100
156.200	-10.743	0.100
156.300	-11.038	0.100
156.400	-21.244	0.100
156.500	-17.293	0.100
156.600	-12.143	0.100
156.700	-18.935	0.100
156.800	-8.807	0.100
156.900	-8.058	0.100
157.000	-21.332	0.100
157.100	-7.399	0.100
157.200	-23.511	0.100
157.300	-8.857	0.100
157.400	-17.298	0.100
157.500	-13.598	0.100
157.600	-33.555	0.100
157.700	-24.854	0.100
157.800	-16.189	0.100
157.900	-15.027	0.100
158.000	-12.415	0.100
158.100	-8.346	0.100
158.200	-13.729	0.100
158.300	-15.410	0.100
158.400	-13.431	0.100
158.500	-10.017	0.100
158.600	-14.093	0.100
158.700	-17.623	0.100
158.800	-15.139	0.100
158.900	2.574	0.100
159.000	-20.173	0.100
159.100	-22.171	0.100
159.200	-13.957	0.100
159.300	-19.918	0.100
159.400	0.722	0.100
159.500	-21.289	0.100
159.600	-11.446	0.100
159.700	-18.571	0.100
159.800	-22.671	0.100
159.900	-14.981	0.100
160.000	-12.787	0.100
160.100	-10.509	0.100
160.200	-20.682	0.100
160.300	-12.737	0.100
160.400	-7.700	0.100
160.500	-23.035	0.100
160.600	-3.327	0.100
160.700	-16.862	0.100
160.800	-25.310	0.100
160.900	-19.376	0.100
161.000	-17.726	0.100
161.100	-9.230	0.100
161.200	-22.909	0.100
161.300	-14.659	0.100
161.400	-16.178	0.100
161.500	-13.626	0.100
161.600	-17.867	0.100
161.700	-23.344	0.100
161.800	-24.788	0.100
161.900	-8.439	0.100
162.000	-17.541	0.100
162.100	3.515	0.100
162.200	-13.115	0.100
162.300	-8.929	0.100
162.400	-21.602	0.100
162.500	-15.261	0.100
162.600	-26.494	0.100
162.700	-12.678	0.100
162.800	-4.051	0.100
162.900	-21.491	0.100
163.000	-11.817	0.100
163.100	-15.171	0.100
163.200	-5.375	0.100
163.300	-11.518	0.100
163.400	-11.558	0.100
163.500	-21.674	0.100
163.600	-7.802	0.100
163.700	-9.224	0.100
163.800	-25.286	0.100
163.900	-15.224	0.100
164.000	-5.305	0.100
164.100	-21.629	0.100
164.200	-20.920	0.100
164.300	-11.985	0.100
164.400	-19.993	0.100
164.500	-13.784	0.100
164.600	-24.337	0.100
164.700	-8.424	0.100
164.800	-9.459	0.100
164.900	-26.598	0.100
165.000	-14.147	0.100
165.100	-3.342	0.100
165.200	-16.601	0.100
165.300	-14.815	0.100
165.400	-9.363	0.100
165.500	-18.155	0.100
165.600	-18.184	0.100
165.700	-14.361	0.100
165.800	-14.772	0.100
165.900	-5.258	0.100
166.000	-1.124	0.100
166.100	-10.165	0.100
166.200	-14.116	0.100
166.300	-15.707	0.100
166.400	-22.093	0.100
166.500	-12.583	0.100
166.600	-29.245	0.100
166.700	-5.698	0.100
166.800	-23.788	0.100
166.900	-11.694	0.100
167.000	-14.657	0.100
167.100	-0.720	0.100
167.200	-15.684	0.100
167.300	-28.802	0.100
167.400	-15.050	0.100
167.500	3.517	0.100
167.600	-7.628	0.100
167.700	-5.011	0.100
167.800	-4.712	0.100
167.900	-33.071	0.100
168.000	-18.740	0.100
168.100	-6.173	0.100
168.200	-18.172	0.100
168.300	-6.226	0.100
168.400	-16.548	0.100
168.500	-11.104	0.100
168.600	-26.803	0.100
168.700	-8.442	0.100
168.800	-11.715	0.100
168.900	-21.024	0.100
169.000	-13.763	0.100
169.100	-15.682	0.100
169.200	-13.836	0.100
169.300	-13.378	0.100
169.400	-9.854	0.100
169.500	-26.821	0.100
169.600	-7.219	0.100
169.700	-15.162	0.100
169.800	-21.827	0.100
169.900	-12.260	0.100
170.000	-20.277	0.100
170.100	-5.674	0.100
170.200	-11.268	0.100
170.300	-19.349	0.100
170.400	-19.780	0.100
170.500	-3.458	0.100
170.600	-14.148	0.100
170.700	-1.251	0.100
170.800	-19.296	0.100
170.900	1.029	0.100
171.000	-10.123	0.100
171.100	-21.243	0.100
171.200	-1.479	0.100
171.300	-18.272	0.100
171.400	-28.226	0.100
171.500	-18.689	0.100
171.600	-8.573	0.100
171.700	-22.750	0.100
171.800	-13.296	0.100
171.900	-6.123	0.100
172.000	-0.256	0.100
172.100	-18.287	0.100
172.200	-16.592	0.100
172.300	-11.771	0.100
172.400	2.774	0.100
172.500	-9.810	0.100
172.600	-2.880	0.100
172.700	-2.042	0.100
172.800	-17.574	0.100
172.900	-25.168	0.100
173.000	-12.044	0.100
173.100	-9.407	0.100
173.200	-23.815	0.100
173.300	-14.861	0.100
173.400	-7.503	0.100
173.500	-13.228	0.100
173.600	-4.072	0.100
173.700	-9.750	0.100
173.800	-11.747	0.100
173.900	-11.208	0.100
174.000	0.455	0.100
174.100	-17.840	0.100
174.200	-6.565	0.100
174.300	-9.151	0.100
174.400	-10.698	0.100
174.500	-13.452	0.100
174.600	-7.686	0.100
174.700	-15.634	0.100
174.800	-16.693	0.100
174.900	-1.995	0.100
175.000	-18.219	0.100
175.100	-18.268	0.100
175.200	-9.765	0.100
175.300	-9.820	0.100
175.400	-1.297	0.100
175.500	-8.016	0.100
175.600	-10.284	0.100
175.700	-34.869	0.100
175.800	-19.075	0.100
175.900	-22.516	0.100
176.000	-10.965	0.100
176.100	-5.613	0.100
176.200	1.295	0.100
176.300	-10.456	0.100
176.400	-13.758	0.100
176.500	-22.686	0.100
176.600	-11.825	0.100
176.700	-20.628	0.100
176.800	-17.053	0.100
176.900	-15.610	0.100
177.000	-9.346	0.100
177.100	-19.781	0.100
177.200	-13.756	0.100
177.300	-18.491	0.100
177.400	1.017	0.100
177.500	-23.993	0.100
177.600	-14.491	0.100
177.700	-18.290	0.100
177.800	-0.934	0.100
177.900	5.451	0.100
178.000	-16.251	0.100
178.100	-13.203	0.100
178.200	-18.931	0.100
178.300	-4.956	0.100
178.400	4.725	0.100
178.500	-14.388	0.100
178.600	-16.821	0.100
178.700	-13.726	0.100
178.800	-17.181	0.100
178.900	-8.950	0.100
179.000	-25.594	0.100
179.100	-21.695	0.100
179.200	-16.445	0.100
179.300	1.393	0.100
179.400	-6.038	0.100
179.500	-3.459	0.100
179.600	6.137	0.100
179.700	-17.324	0.100
179.800	-3.106	0.100
179.900	-16.073	0.100
180.000	-10.477	0.100
180.100	-11.006	0.100
180.200	-6.994	0.100
180.300	-15.107	0.100
180.400	-5.662	0.100
180.500	6.486	0.100
180.600	12.972	0.100
180.700	23.591	0.100
180.800	11.329	0.100
180.900	26.627	0.100
181.000	23.977	0.100
181.100	21.637	0.100
181.200	29.357	0.100
181.300	17.462	0.100
181.400	24.931	0.100
181.500	21.774	0.100
181.600	40.275	0.100
181.700	43.176	0.100
181.800	25.080	0.100
181.900	32.948	0.100
182.000	34.861	0.100
182.100	38.779	0.100
182.200	43.277	0.100
182.300	38.933	0.100
182.400	42.379	0.100
182.500	35.338	0.100
182.600	42.251	0.100
182.700	37.836	0.100
182.800	38.023	0.100
182.900	39.701	0.100
183.000	45.976	0.100
183.100	44.541	0.100
183.200	38.827	0.100
183.300	44.656	0.100
183.400	36.152	0.100
183.500	35.054	0.100
183.600	41.161	0.100
183.700	35.276	0.100
183.800	24.672	0.100
183.900	44.183	0.100
184.000	35.457	0.100
184.100	39.582	0.100
184.200	32.954	0.100
184.300	39.123	0.100
184.400	34.041	0.100
184.500	34.834	0.100
184.600	17.538	0.100
184.700	31.578	0.100
184.800	28.100	0.100
184.900	39.977	0.100
185.000	33.889	0.100
185.100	39.537	0.100
185.200	30.995	0.100
185.300	17.195	0.100
185.400	40.852	0.100
185.500	26.687	0.100
185.600	19.544	0.100
185.700	19.529	0.100
185.800	38.511	0.100
185.900	37.105	0.100
186.000	30.841	0.100
186.100	22.974	0.100
186.200	28.065	0.100
186.300	25.736	0.100
186.400	27.297	0.100
186.500	28.978	0.100
186.600	22.172	0.100
186.700	27.799	0.100
186.800	29.399	0.100
186.900	32.806	0.100
187.000	25.537	0.100
187.100	38.815	0.100
187.200	36.116	0.100
187.300	32.330	0.100
187.400	21.600	0.100
187.500	32.452	0.100
187.600	33.884	0.100
187.700	24.899	0.100
187.800	40.640	0.100
187.900	27.040	0.100
188.000	23.278	0.100
188.100	26.887	0.100
188.200	24.279	0.100
188.300	28.756	0.100
188.400	35.954	0.100
188.500	27.005	0.100
188.600	32.804	0.100
188.700	16.367	0.100
188.800	32.114	0.100
188.900	37.562	0.100
189.000	30.689	0.100
189.100	39.523	0.100
189.200	35.204	0.100
189.300	20.700	0.100
189.400	36.408	0.100
189.500	31.850	0.100
189.600	43.244	0.100
189.700	34.545	0.100
189.800	23.546	0.100
189.900	26.308	0.100
190.000	25.745	0.100
190.100	39.554	0.100
190.200	29.810	0.100
190.300	28.050	0.100
190.400	36.603	0.100
190.500	35.904	0.100
190.600	33.037	0.100
190.700	42.876	0.100
190.800	44.899	0.100
190.900	46.345	0.100
191.000	44.598	0.100
191.100	40.976	0.100
191.200	48.389	0.100
191.300	28.585	0.100
191.400	25.639	0.100
191.500	33.606	0.100
191.600	32.546	0.100
191.700	43.459	0.100
191.800	50.650	0.100
191.900	40.748	0.100
192.000	32.594	0.100
192.100	50.475	0.100
192.200	45.168	0.100
192.300	49.474	0.100
192.400	65.146	0.100
192.500	39.343	0.100
192.600	33.938	0.100
192.700	37.377	0.100
192.800	37.410	0.100
192.900	35.429	0.100
193.000	51.615	0.100
193.100	41.880	0.100
193.200	43.895	0.100
193.300	49.089	0.100
193.400	32.260	0.100
193.500	41.348	0.100
193.600	47.894	0.100
193.700	42.166	0.100
193.800	40.959	0.100
193.900	47.865	0.100
194.000	50.346	0.100
194.100	56.376	0.100
194.200	49.339	0.100
194.300	43.286	0.100
194.400	58.130	0.100
194.500	47.102	0.100
194.600	43.473	0.100
194.700	39.298	0.100
194.800	48.855	0.100
194.900	45.584	0.100
195.000	45.146	0.100
195.100	55.654	0.100
195.200	47.921	0.100
195.300	50.219	0.100
195.400	47.503	0.100
195.500	48.860	0.100
195.600	43.547	0.100
195.700	52.122	0.100
195.800	52.925	0.100
195.900	45.297	0.100
196.000	39.349	0.100
196.100	60.321	0.100
196.200	59.268	0.100
196.300	63.589	0.100
196.400	41.644	0.100
196.500	47.289	0.100
196.600	51.717	0.100
196.700	61.911	0.100
196.800	41.953	0.100
196.900	65.608	0.100
197.000	61.306	0.100
197.100	48.472	0.100
197.200	50.684	0.100
197.300	46.527	0.100
197.400	54.059	0.100
197.500	49.084	0.100
197.600	54.195	0.100
197.700	55.901	0.100
197.800	57.188	0.100
197.900	59.036	0.100
198.000	51.984	0.100
198.100	51.004	0.100
198.200	49.353	0.100
198.300	60.291	0.100
198.400	59.426	0.100
198.500	59.107	0.100
198.600	55.624	0.100
198.700	48.903	0.100
198.800	41.435	0.100
198.900	44.835	0.100
199.000	61.088	0.100
199.100	49.026	0.100
199.200	61.858	0.100
199.300	65.750	0.100
199.400	53.682	0.100
199.500	55.389	0.100
199.600	75.082	0.100
199.700	48.778	0.100
199.800	49.928	0.100
199.900	41.540	0.100
200.000	56.826	0.100
200.100	41.133	0.100
200.200	47.740	0.100
200.300	52.526	0.100
200.400	58.701	0.100
200.500	53.011	0.100
200.600	55.545	0.100
200.700	48.873	0.100
200.800	45.012	0.100
200.900	57.757	0.100
201.000	48.555	0.100
201.100	62.468	0.100
201.200	54.537	0.100
201.300	51.900	0.100
201.400	53.139	0.100
201.500	57.852	0.100
201.600	58.288	0.100
201.700	44.420	0.100
201.800	43.468	0.100
201.900	33.818	0.100
202.000	53.507	0.100
202.100	59.166	0.100
202.200	55.444	0.100
202.300	51.083	0.100
202.400	53.415	0.100
202.500	59.039	0.100
202.600	59.972	0.100
202.700	44.244	0.100
202.800	44.264	0.100
202.900	61.547	0.100
203.000	46.397	0.100
203.100	57.924	0.100
203.200	45.521	0.100
203.300	56.756	0.100
203.400	53.585	0.100
203.500	59.811	0.100
203.600	61.978	0.100
203.700	44.867	0.100
203.800	52.498	0.100
203.900	45.048	0.100
204.000	65.291	0.100
204.100	44.955	0.100
204.200	67.144	0.100
204.300	59.755	0.100
204.400	61.643	0.100
204.500	60.841	0.100
204.600	44.056	0.100
204.700	54.209	0.100
204.800	55.549	0.100
204.900	56.044	0.100
205.000	50.979	0.100
205.100	56.909	0.100
205.200	48.949	0.100
205.300	47.255	0.100
205.400	54.866	0.100
205.500	44.231	0.100
205.600	63.716	0.100
205.700	55.142	0.100
205.800	48.967	0.100
205.900	46.802	0.100
206.000	52.743	0.100
206.100	42.114	0.100
206.200	52.238	0.100
206.300	52.695	0.100
206.400	38.390	0.100
206.500	45.519	0.100
206.600	48.841	0.100
206.700	57.825	0.100
206.800	52.811	0.100
206.900	55.714	0.100
207.000	49.575	0.100
207.100	42.654	0.100
207.200	53.388	0.100
207.300	47.996	0.100
207.400	51.693	0.100
207.500	58.213	0.100
207.600	63.376	0.100
207.700	43.768	0.100
207.800	49.218	0.100
207.900	48.097	0.100
208.000	59.982	0.100
208.100	53.519	0.100
208.200	40.745	0.100
208.300	47.796	0.100
208.400	37.557	0.100
208.500	47.314	0.100
208.600	54.780	0.100
208.700	54.606	0.100
208.800	39.047	0.100
208.900	57.710	0.100
209.000	55.869	0.100
209.100	52.704	0.100
209.200	41.335	0.100
209.300	39.942	0.100
209.400	54.561	0.100
209.500	42.233	0.100
209.600	41.824	0.100
209.700	54.050	0.100
209.800	52.659	0.100
209.900	49.686	0.100
210.000	59.228	0.100
210.100	43.139	0.100
210.200	41.507	0.100
210.300	54.355	0.100
210.400	45.916	0.100
210.500	43.452	0.100
210.600	46.318	0.100
210.700	38.020	0.100
210.800	50.714	0.100
210.900	54.685	0.100
211.000	54.194	0.100
211.100	62.572	0.100
211.200	36.501	0.100
211.300	38.338	0.100
211.400	42.832	0.100
211.500	51.556	0.100
211.600	47.998	0.100
211.700	53.827	0.100
211.800	47.505	0.100
211.900	39.767	0.100
212.000	46.841	0.100
212.100	43.945	0.100
212.200	45.667	0.100
212.300	53.459	0.100
212.400	46.932	0.100
212.500	41.413	0.100
212.600	55.606	0.100
212.700	60.632	0.100
212.800	46.178	0.100
212.900	48.521	0.100
213.000	45.904	0.100
213.100	33.394	0.100
213.200	37.167	0.100
213.300	45.878	0.100
213.400	50.596	0.100
213.500	52.079	0.100
213.600	42.422	0.100
213.700	49.518	0.100
213.800	34.513	0.100
213.900	40.444	0.100
214.000	47.148	0.100
214.100	50.335	0.100
214.200	47.121	0.100
214.300	44.966	0.100
214.400	50.777	0.100
214.500	54.160	0.100
214.600	51.276	0.100
214.700	51.703	0.100
214.800	51.340	0.100
214.900	36.575	0.100
215.000	50.118	0.100
215.100	42.405	0.100
215.200	38.086	0.100
215.300	45.974	0.100
215.400	49.001	0.100
215.500	48.425	0.100
215.600	44.721	0.100
215.700	55.077	0.100
215.800	50.838	0.100
215.900	48.796	0.100
216.000	38.493	0.100
216.100	27.089	0.100
216.200	52.323	0.100
216.300	73.027	0.100
216.400	56.774	0.100
216.500	52.092	0.100
216.600	40.254	0.100
216.700	48.834	0.100
216.800	46.227	0.100
216.900	42.788	0.100
217.000	52.639	0.100
217.100	50.602	0.100
217.200	43.589	0.100
217.300	37.082	0.100
217.400	34.819	0.100
217.500	46.535	0.100
217.600	53.680	0.100
217.700	51.830	0.100
217.800	36.298	0.100
217.900	49.578	0.100
218.000	47.953	0.100
218.100	55.353	0.100
218.200	47.179	0.100
218.300	47.287	0.100
218.400	46.898	0.100
218.500	44.500	0.100
218.600	52.688	0.100
218.700	47.925	0.100
218.800	44.270	0.100
218.900	51.545	0.100
219.000	55.766	0.100
219.100	41.303	0.100
219.200	46.639	0.100
219.300	51.757	0.100
219.400	30.653	0.100
219.500	27.192	0.100
219.600	36.098	0.100
219.700	48.143	0.100
219.800	44.889	0.100
219.900	47.451	0.100
220.000	43.866	0.100
220.100	46.083	0.100
220.200	44.821	0.100
220.300	45.982	0.100
220.400	36.715	0.100
220.500	31.061	0.100
220.600	44.391	0.100
220.700	25.529	0.100
220.800	49.008	0.100
220.900	49.787	0.100
221.000	46.720	0.100
221.100	47.092	0.100
221.200	39.482	0.100
221.300	57.080	0.100
221.400	49.821	0.100
221.500	38.295	0.100
221.600	38.037	0.100
221.700	46.140	0.100
221.800	46.821	0.100
221.900	40.528	0.100
222.000	46.611	0.100
222.100	46.429	0.100
222.200	44.053	0.100
222.300	41.835	0.100
222.400	39.053	0.100
222.500	40.019	0.100
222.600	34.056	0.100
222.700	57.075	0.100
222.800	51.829	0.100
222.900	44.428	0.100
223.000	29.496	0.100
223.100	35.183	0.100
223.200	54.049	0.100
223.300	50.197	0.100
223.400	24.365	0.100
223.500	41.921	0.100
223.600	42.668	0.100
223.700	36.257	0.100
223.800	40.502	0.100
223.900	48.218	0.100
224.000	45.024	0.100
224.100	47.360	0.100
224.200	53.961	0.100
224.300	54.932	0.100
224.400	45.023	0.100
224.500	33.591	0.100
224.600	45.125	0.100
224.700	34.625	0.100
224.800	24.534	0.100
224.900	37.530	0.100
225.000	47.425	0.100
225.100	46.912	0.100
225.200	45.379	0.100
225.300	45.870	0.100
225.400	51.192	0.100
225.500	46.013	0.100
225.600	41.863	0.100
225.700	36.569	0.100
225.800	46.591	0.100
225.900	50.166	0.100
226.000	42.683	0.100
226.100	53.873	0.100
226.200	40.146	0.100
226.300	47.104	0.100
226.400	54.983	0.100
226.500	35.214	0.100
226.600	35.935	0.100
226.700	37.523	0.100
226.800	39.358	0.100
226.900	38.925	0.100
227.000	33.753	0.100
227.100	47.245	0.100
227.200	43.326	0.100
227.300	37.081	0.100
227.400	33.120	0.100
227.500	43.147	0.100
227.600	40.737	0.100
227.700	34.818	0.100
227.800	44.746	0.100
227.900	51.556	0.100
228.000	47.367	0.100
228.100	53.504	0.100
228.200	43.169	0.100
228.300	33.733	0.100
228.400	29.769	0.100
228.500	34.965	0.100
228.600	46.377	0.100
228.700	39.171	0.100
228.800	37.988	0.100
228.900	41.593	0.100
229.000	45.039	0.100
229.100	49.110	0.100
229.200	26.002	0.100
229.300	37.010	0.100
229.400	45.940	0.100
229.500	53.850	0.100
229.600	38.662	0.100
229.700	55.131	0.100
229.800	49.824	0.100
229.900	39.705	0.100
230.000	39.966	0.100
230.100	26.710	0.100
230.200	41.814	0.100
230.300	47.213	0.100
230.400	46.821	0.100
230.500	43.198	0.100
230.600	49.722	0.100
230.700	41.711	0.100
230.800	41.532	0.100
230.900	39.133	0.100
231.000	27.031	0.100
231.100	49.388	0.100
231.200	35.911	0.100
231.300	45.030	0.100
231.400	37.561	0.100
231.500	37.271	0.100
231.600	30.269	0.100
231.700	50.285	0.100
231.800	48.393	0.100
231.900	42.459	0.100
232.000	39.861	0.100
232.100	55.651	0.100
232.200	43.564	0.100
232.300	39.224	0.100
232.400	34.424	0.100
232.500	46.233	0.100
232.600	46.455	0.100
232.700	38.211	0.100
232.800	43.895	0.100
232.900	43.459	0.100
233.000	41.304	0.100
233.100	32.948	0.100
233.200	40.984	0.100
233.300	37.065	0.100
233.400	38.360	0.100
233.500	48.122	0.100
233.600	53.945	0.100
233.700	59.882	0.100
233.800	35.217	0.100
233.900	36.437	0.100
234.000	54.242	0.100
234.100	44.736	0.100
234.200	39.385	0.100
234.300	40.443	0.100
234.400	38.490	0.100
234.500	50.830	0.100
234.600	38.728	0.100
234.700	31.024	0.100
234.800	30.948	0.100
234.900	42.483	0.100
235.000	31.896	0.100
235.100	41.006	0.100
235.200	43.058	0.100
235.300	42.012	0.100
235.400	37.155	0.100
235.500	51.764	0.100
235.600	38.029	0.100
235.700	30.579	0.100
235.800	59.913	0.100
235.900	47.243	0.100
236.000	29.239	0.100
236.100	34.555	0.100
236.200	40.069	0.100
236.300	38.429	0.100
236.400	36.985	0.100
236.500	41.774	0.100
236.600	42.187	0.100
236.700	40.842	0.100
236.800	39.271	0.100
236.900	37.534	0.100
237.000	48.509	0.100
237.100	42.083	0.100
237.200	44.312	0.100
237.300	38.309	0.100
237.400	40.763	0.100
237.500	29.929	0.100
237.600	36.849	0.100
237.700	45.837	0.100
237.800	41.330	0.100
237.900	43.925	0.100
238.000	35.008	0.100
238.100	39.877	0.100
238.200	46.740	0.100
238.300	34.781	0.100
238.400	34.085	0.100
238.500	39.662	0.100
238.600	32.651	0.100
238.700	43.740	0.100
238.800	39.802	0.100
238.900	24.650	0.100
239.000	39.805	0.100
239.100	51.679	0.100
239.200	40.045	0.100
239.300	42.870	0.100
239.400	32.007	0.100
239.500	44.869	0.100
239.600	31.660	0.100
239.700	40.949	0.100
239.800	29.156	0.100
239.900	36.790	0.100
240.000	36.037	0.100
240.100	30.044	0.100
240.200	35.971	0.100
240.300	37.171	0.100
240.400	28.450	0.100
240.500	9.602	0.100
240.600	15.594	0.100
240.700	34.465	0.100
240.800	18.808	0.100
240.900	12.463	0.100
241.000	10.986	0.100
241.100	9.247	0.100
241.200	23.565	0.100
241.300	9.230	0.100
241.400	5.337	0.100
241.500	13.243	0.100
241.600	9.560	0.100
241.700	9.835	0.100
241.800	2.824	0.100
241.900	2.693	0.100
242.000	-7.094	0.100
242.100	-13.843	0.100
242.200	-1.034	0.100
242.300	-14.863	0.100
242.400	-15.024	0.100
242.500	-9.954	0.100
242.600	-8.439	0.100
242.700	-19.858	0.100
242.800	-14.760	0.100
242.900	-26.222	0.100
243.000	-25.459	0.100
243.100	-9.571	0.100
243.200	-7.958	0.100
243.300	-20.919	0.100
243.400	-29.845	0.100
243.500	-26.861	0.100
243.600	-27.121	0.100
243.700	-20.618	0.100
243.800	-31.737	0.100
243.900	-23.842	0.100
244.000	-22.265	0.100
244.100	-27.797	0.100
244.200	-40.760	0.100
244.300	-25.122	0.100
244.400	-24.477	0.100
244.500	-15.636	0.100
244.600	-44.264	0.100
244.700	-48.317	0.100
244.800	-21.071	0.100
244.900	-20.604	0.100
245.000	-24.877	0.100
245.100	-44.300	0.100
245.200	-27.963	0.100
245.300	-30.276	0.100
245.400	-38.744	0.100
245.500	-23.771	0.100
245.600	-38.175	0.100
245.700	-25.203	0.100
245.800	-28.159	0.100
245.900	-28.382	0.100
246.000	-29.531	0.100
246.100	-35.191	0.100
246.200	-30.412	0.100
246.300	-18.127	0.100
246.400	-41.570	0.100
246.500	-37.378	0.100
246.600	-37.784	0.100
246.700	-31.053	0.100
246.800	-17.989	0.100
246.900	-26.396	0.100
247.000	-21.370	0.100
247.100	-29.036	0.100
247.200	-37.151	0.100
247.300	-45.050	0.100
247.400	-23.821	0.100
247.500	-32.216	0.100
247.600	-25.964	0.100
247.700	-27.027	0.100
247.800	-20.933	0.100
247.900	-32.541	0.100
248.000	-21.677	0.100
248.100	-28.433	0.100
248.200	-40.577	0.100
248.300	-17.772	0.100
248.400	-19.181	0.100
248.500	-27.550	0.100
248.600	-21.234	0.100
248.700	-42.719	0.100
248.800	-31.979	0.100
248.900	-15.254	0.100
249.000	-26.852	0.100
249.100	-40.362	0.100
249.200	-40.806	0.100
249.300	-25.398	0.100
249.400	-41.964	0.100
249.500	-13.926	0.100
249.600	-18.067	0.100
249.700	-17.305	0.100
249.800	-20.139	0.100
249.900	-19.770	0.100
250.000	-19.918	0.100
250.100	-6.675	0.100
250.200	-12.283	0.100
250.300	-24.999	0.100
250.400	-17.917	0.100
250.500	-25.201	0.100
250.600	-24.976	0.100
250.700	-20.830	0.100
250.800	-29.043	0.100
250.900	-39.446	0.100
251.000	-15.268	0.100
251.100	-18.044	0.100
251.200	-26.525	0.100
251.300	-14.913	0.100
251.400	-21.950	0.100
251.500	-20.647	0.100
251.600	-31.564	0.100
251.700	-14.235	0.100
251.800	-28.808	0.100
251.900	-24.301	0.100
252.000	-26.225	0.100
252.100	-16.990	0.100
252.200	-23.526	0.100
252.300	-20.762	0.100
252.400	-34.786	0.100
252.500	-15.494	0.100
252.600	-11.114	0.100
252.700	-28.076	0.100
252.800	-15.106	0.100
252.900	-22.659	0.100
253.000	-17.176	0.100
253.100	-25.152	0.100
253.200	-21.758	0.100
253.300	-2.480	0.100
253.400	-26.978	0.100
253.500	-7.132	0.100
253.600	-12.749	0.100
253.700	-37.404	0.100
253.800	-16.863	0.100
253.900	-14.422	0.100
254.000	-23.300	0.100
254.100	-30.655	0.100
254.200	-25.593	0.100
254.300	-21.596	0.100
254.400	-9.901	0.100
254.500	-15.477	0.100
254.600	-24.704	0.100
254.700	-18.870	0.100
254.800	-14.073	0.100
254.900	-23.843	0.100
255.000	-19.560	0.100
255.100	-21.163	0.100
255.200	-19.840	0.100
255.300	-10.625	0.100
255.400	-37.916	0.100
255.500	-32.567	0.100
255.600	-16.142	0.100
255.700	-17.354	0.100
255.800	-14.215	0.100
255.900	-8.912	0.100
256.000	-29.574	0.100
256.100	-17.347	0.100
256.200	-21.267	0.100
256.300	-20.281	0.100
256.400	-25.859	0.100
256.500	-16.790	0.100
256.600	-27.838	0.100
256.700	-26.961	0.100
256.800	-7.521	0.100
256.900	-21.943	0.100
257.000	-40.953	0.100
257.100	-20.805	0.100
257.200	-4.703	0.100
257.300	-3.620	0.100
257.400	-29.863	0.100
257.500	0.949	0.100
257.600	-22.129	0.100
257.700	-22.828	0.100
257.800	-16.982	0.100
257.900	-10.143	0.100
258.000	-10.549	0.100
258.100	-37.310	0.100
258.200	-24.690	0.100
258.300	-10.858	0.100
258.400	-17.460	0.100
258.500	-15.531	0.100
258.600	-17.076	0.100
258.700	-22.110	0.100
258.800	-19.733	0.100
258.900	-18.238	0.100
259.000	-26.653	0.100
259.100	-9.358	0.100
259.200	-21.177	0.100
259.300	-10.875	0.100
259.400	-19.463	0.100
259.500	-16.572	0.100
259.600	-27.459	0.100
259.700	-29.864	0.100
259.800	-12.808	0.100
259.900	-31.340	0.100
260.000	-19.582	0.100
260.100	-22.940	0.100
260.200	-20.422	0.100
260.300	-13.279	0.100
260.400	-25.869	0.100
260.500	-13.667	0.100
260.600	-20.269	0.100
260.700	-22.811	0.100
260.800	-10.864	0.100
260.900	-21.199	0.100
261.000	-26.017	0.100
261.100	-22.308	0.100
261.200	-21.655	0.100
261.300	-20.497	0.100
261.400	-21.068	0.100
261.500	-14.417	0.100
261.600	-18.066	0.100
261.700	-19.334	0.100
261.800	-18.058	0.100
261.900	-16.791	0.100
262.000	-11.789	0.100
262.100	-14.990	0.100
262.200	-9.794	0.100
262.300	-31.654	0.100
262.400	-33.819	0.100
262.500	-28.121	0.100
262.600	-20.886	0.100
262.700	-37.414	0.100
262.800	-28.690	0.100
262.900	-28.655	0.100
263.000	-13.449	0.100
263.100	-24.533	0.100
263.200	-10.134	0.100
263.300	-29.619	0.100
263.400	-35.422	0.100
263.500	-11.134	0.100
263.600	-26.041	0.100
263.700	-15.133	0.100
263.800	-17.684	0.100
263.900	-16.548	0.100
264.000	-18.689	0.100
264.100	-19.120	0.100
264.200	-28.608	0.100
264.300	-12.338	0.100
264.400	-19.210	0.100
264.500	-30.415	0.100
264.600	-17.141	0.100
264.700	-23.195	0.100
264.800	-24.945	0.100
264.900	-15.780	0.100
265.000	-14.498	0.100
265.100	-21.976	0.100
265.200	-14.751	0.100
265.300	-25.141	0.100
265.400	-17.352	0.100
265.500	-24.205	0.100
265.600	-23.466	0.100
265.700	-29.679	0.100
265.800	-21.253	0.100
265.900	-26.847	0.100
266.000	-34.688	0.100
266.100	-13.052	0.100
266.200	-15.273	0.100
266.300	-13.745	0.100
266.400	-22.869	0.100
266.500	-22.218	0.100
266.600	-26.770	0.100
266.700	-13.107	0.100
266.800	-28.639	0.100
266.900	-28.930	0.100
267.000	-17.680	0.100
267.100	-18.169	0.100
267.200	-16.314	0.100
267.300	-13.993	0.100
267.400	-17.444	0.100
267.500	-37.181	0.100
267.600	-37.008	0.100
267.700	-15.088	0.100
267.800	-24.620	0.100
267.900	-25.256	0.100
268.000	-28.597	0.100
268.100	-27.302	0.100
268.200	-16.959	0.100
268.300	-22.472	0.100
268.400	-22.129	0.100
268.500	-18.775	0.100
268.600	-32.436	0.100
268.700	-20.561	0.100
268.800	-29.584	0.100
268.900	-22.272	0.100
269.000	-17.983	0.100
269.100	-22.388	0.100
269.200	-40.322	0.100
269.300	-20.873	0.100
269.400	-23.084	0.100
269.500	-29.837	0.100
269.600	-31.758	0.100
269.700	-18.506	0.100
269.800	-19.609	0.100
269.900	-24.991	0.100
270.000	-28.387	0.100
270.100	-27.657	0.100
270.200	-17.325	0.100
270.300	-14.504	0.100
270.400	-27.865	0.100
270.500	-17.559	0.100
270.600	-18.269	0.100
270.700	-28.881	0.100
270.800	-22.359	0.100
270.900	-30.538	0.100
271.000	-24.140	0.100
271.100	-27.014	0.100
271.200	-11.643	0.100
271.300	-13.852	0.100
271.400	-16.702	0.100
271.500	-19.555	0.100
271.600	-35.296	0.100
271.700	-19.109	0.100
271.800	-27.848	0.100
271.900	-27.481	0.100
272.000	-20.055	0.100
272.100	-16.572	0.100
272.200	-15.104	0.100
272.300	-32.518	0.100
272.400	-24.181	0.100
272.500	-18.567	0.100
272.600	-25.379	0.100
272.700	-31.072	0.100
272.800	-27.077	0.100
272.900	-16.973	0.100
273.000	-30.852	0.100
273.100	-14.233	0.100
273.200	-28.681	0.100
273.300	-30.224	0.100
273.400	-34.564	0.100
273.500	-29.424	0.100
273.600	-41.739	0.100
273.700	-33.175	0.100
273.800	-23.129	0.100
273.900	-17.403	0.100
274.000	-17.533	0.100
274.100	-22.056	0.100
274.200	-21.685	0.100
274.300	-15.571	0.100
274.400	-31.041	0.100
274.500	-36.909	0.100
274.600	-21.966	0.100
274.700	-29.651	0.100
274.800	-14.339	0.100
274.900	-30.753	0.100
275.000	-31.164	0.100
275.100	-17.467	0.100
275.200	-27.248	0.100
275.300	-14.032	0.100
275.400	-16.952	0.100
275.500	-29.448	0.100
275.600	-22.823	0.100
275.700	-13.340	0.100
275.800	-17.927	0.100
275.900	-33.271	0.100
276.000	-15.716	0.100
276.100	-31.294	0.100
276.200	-18.413	0.100
276.300	-0.421	0.100
276.400	-18.831	0.100
276.500	-33.339	0.100
276.600	-36.356	0.100
276.700	-39.672	0.100
276.800	-12.664	0.100
276.900	-19.241	0.100
277.000	-22.814	0.100
277.100	-33.395	0.100
277.200	-24.682	0.100
277.300	-22.881	0.100
277.400	-22.687	0.100
277.500	-21.471	0.100
277.600	-28.203	0.100
277.700	-25.090	0.100
277.800	-29.844	0.100
277.900	-33.440	0.100
278.000	-37.700	0.100
278.100	-31.466	0.100
278.200	-15.017	0.100
278.300	-23.803	0.100
278.400	-28.424	0.100
278.500	-29.454	0.100
278.600	-23.474	0.100
278.700	-26.261	0.100
278.800	-28.877	0.100
278.900	-28.567	0.100
279.000	-20.115	0.100
279.100	-21.543	0.100
279.200	-25.498	0.100
279.300	-29.830	0.100
279.400	-18.522	0.100
279.500	-14.157	0.100
279.600	-17.108	0.100
279.700	-25.858	0.100
279.800	-23.690	0.100
279.900	-28.805	0.100
280.000	-31.866	0.100
280.100	-23.291	0.100
280.200	-29.791	0.100
280.300	-27.525	0.100
280.400	-16.378	0.100
280.500	-26.766	0.100
280.600	-26.752	0.100
280.700	-27.067	0.100
280.800	-26.546	0.100
280.900	-21.718	0.100
281.000	-12.868	0.100
281.100	-29.893	0.100
281.200	-29.186	0.100
281.300	-25.083	0.100
281.400	-15.646	0.100
281.500	-22.657	0.100
281.600	-23.805	0.100
281.700	-25.349	0.100
281.800	-32.874	0.100
281.900	-30.789	0.100
282.000	-25.384	0.100
282.100	-30.086	0.100
282.200	-20.695	0.100
282.300	-27.128	0.100
282.400	-16.342	0.100
282.500	-26.793	0.100
282.600	-18.253	0.100
282.700	-30.091	0.100
282.800	-26.159	0.100
282.900	-29.318	0.100
283.000	-16.867	0.100
283.100	-19.090	0.100
283.200	-20.237	0.100
283.300	-20.485	0.100
283.400	-29.627	0.100
283.500	-24.494	0.100
283.600	-29.072	0.100
283.700	-15.170	0.100
283.800	-37.227	0.100
283.900	-13.715	0.100
284.000	-33.711	0.100
284.100	-22.428	0.100
284.200	-21.845	0.100
284.300	-25.961	0.100
284.400	-29.738	0.100
284.500	-19.556	0.100
284.600	-28.423	0.100
284.700	-23.277	0.100
284.800	-25.460	0.100
284.900	-36.574	0.100
285.000	-21.976	0.100
285.100	-15.061	0.100
285.200	-29.484	0.100
285.300	-29.861	0.100
285.400	-30.293	0.100
285.500	-23.388	0.100
285.600	-24.406	0.100
285.700	-25.939	0.100
285.800	-25.292	0.100
285.900	-24.952	0.100
286.000	-21.534	0.100
286.100	-22.419	0.100
286.200	-25.211	0.100
286.300	-21.082	0.100
286.400	-31.406	0.100
286.500	-26.867	0.100
286.600	-42.352	0.100
286.700	-33.785	0.100
286.800	-20.802	0.100
286.900	-19.000	0.100
287.000	-26.235	0.100
287.100	-16.579	0.100
287.200	-22.519	0.100
287.300	-22.482	0.100
287.400	-14.796	0.100
287.500	-26.089	0.100
287.600	-25.307	0.100
287.700	-27.269	0.100
287.800	-28.812	0.100
287.900	-15.274	0.100
288.000	-11.508	0.100
288.100	-26.631	0.100
288.200	-39.151	0.100
288.300	-23.833	0.100
288.400	-25.262	0.100
288.500	-27.421	0.100
288.600	-14.379	0.100
288.700	-24.241	0.100
288.800	-25.416	0.100
288.900	-33.244	0.100
289.000	-27.310	0.100
289.100	-19.101	0.100
289.200	-19.257	0.100
289.300	-24.411	0.100
289.400	-25.762	0.100
289.500	-15.587	0.100
289.600	-29.981	0.100
289.700	-31.809	0.100
289.800	-22.468	0.100
289.900	-43.051	0.100
290.000	-14.519	0.100
290.100	-40.416	0.100
290.200	-18.527	0.100
290.300	-10.939	0.100
290.400	-20.843	0.100
290.500	-18.722	0.100
290.600	-9.462	0.100
290.700	-21.072	0.100
290.800	-31.215	0.100
290.900	-31.335	0.100
291.000	-24.992	0.100
291.100	-24.182	0.100
291.200	-23.349	0.100
291.300	-31.070	0.100
291.400	-25.942	0.100
291.500	-23.781	0.100
291.600	-15.683	0.100
291.700	-9.780	0.100
291.800	-10.856	0.100
291.900	-19.839	0.100
292.000	-17.041	0.100
292.100	-31.927	0.100
292.200	-13.488	0.100
292.300	-37.030	0.100
292.400	-31.611	0.100
292.500	-37.044	0.100
292.600	-4.245	0.100
292.700	-19.182	0.100
292.800	-19.289	0.100
292.900	-10.216	0.100
293.000	-36.125	0.100
293.100	-1.738	0.100
293.200	-12.597	0.100
293.300	-35.616	0.100
293.400	-24.024	0.100
293.500	-26.795	0.100
293.600	-37.470	0.100
293.700	-36.335	0.100
293.800	-39.045	0.100
293.900	-24.710	0.100
294.000	-18.267	0.100
294.100	-23.200	0.100
294.200	-21.185	0.100
294.300	-11.964	0.100
294.400	-34.495	0.100
294.500	-37.732	0.100
294.600	-16.681	0.100
294.700	-14.088	0.100
294.800	-15.390	0.100
294.900	-19.936	0.100
295.000	-21.866	0.100
295.100	-27.795	0.100
295.200	-27.571	0.100
295.300	-29.528	0.100
295.400	-17.219	0.100
295.500	-47.086	0.100
295.600	-37.878	0.100
295.700	-16.106	0.100
295.800	-16.026	0.100
295.900	-13.453	0.100
296.000	-17.538	0.100
296.100	-28.657	0.100
296.200	-19.466	0.100
296.300	-26.241	0.100
296.400	-13.995	0.100
296.500	-23.200	0.100
296.600	-19.112	0.100
296.700	-14.782	0.100
296.800	-27.660	0.100
296.900	-16.487	0.100
297.000	-25.469	0.100
297.100	-28.821	0.100
297.200	-25.099	0.100
297.300	-3.600	0.100
297.400	3.755	0.100
297.500	-23.934	0.100
297.600	-24.794	0.100
297.700	-7.110	0.100
297.800	-18.779	0.100
297.900	-26.567	0.100
298.000	-23.291	0.100
298.100	-26.379	0.100
298.200	-26.652	0.100
298.300	-26.611	0.100
298.400	-26.508	0.100
298.500	-15.854	0.100
298.600	-24.163	0.100
298.700	-10.555	0.100
298.800	-27.414	0.100
298.900	-20.390	0.100
299.000	-32.073	0.100
299.100	-10.814	0.100
299.200	-17.600	0.100
299.300	-21.174	0.100
299.400	-24.412	0.100
299.500	-16.130	0.100
299.600	-26.635	0.100
299.700	-29.575	0.100
299.800	-23.773	0.100
299.900	-18.272	0.100
300.000	-14.352	0.100
300.100	-23.775	0.100
300.200	-8.287	0.100
300.300	-7.404	0.100
300.400	-13.953	0.100
300.500	-34.631	0.100
300.600	-24.713	0.100
300.700	-28.454	0.100
300.800	-10.957	0.100
300.900	-17.420	0.100
301.000	-3.972	0.100
301.100	-15.216	0.100
301.200	-23.652	0.100
301.300	-17.615	0.100
301.400	-12.105	0.100
301.500	-17.295	0.100
301.600	-13.837	0.100
301.700	-17.414	0.100
301.800	-12.633	0.100
301.900	-24.586	0.100
302.000	-14.720	0.100
302.100	-22.860	0.100
302.200	-32.566	0.100
302.300	-21.015	0.100
302.400	-21.228	0.100
302.500	-30.426	0.100
302.600	-12.054	0.100
302.700	-16.416	0.100
302.800	-22.287	0.100
302.900	-10.629	0.100
303.000	-20.921	0.100
303.100	-11.555	0.100
303.200	-22.967	0.100
303.300	-27.700	0.100
303.400	-23.965	0.100
303.500	-16.087	0.100
303.600	-16.557	0.100
303.700	-24.521	0.100
303.800	-27.415	0.100
303.900	-17.733	0.100
304.000	-35.013	0.100
304.100	-12.270	0.100
304.200	-15.650	0.100
304.300	-17.958	0.100
304.400	-15.516	0.100
304.500	-18.552	0.100
304.600	-25.805	0.100
304.700	-29.278	0.100
304.800	-15.146	0.100
304.900	-14.246	0.100
305.000	-25.492	0.100
305.100	-25.478	0.100
305.200	-6.602	0.100
305.300	-21.578	0.100
305.400	-27.085	0.100
305.500	-36.919	0.100
305.600	-22.589	0.100
305.700	-18.497	0.100
305.800	-17.801	0.100
305.900	-28.682	0.100
306.000	-33.163	0.100
306.100	-8.882	0.100
306.200	-33.368	0.100
306.300	-27.357	0.100
306.400	-8.539	0.100
306.500	-22.577	0.100
306.600	-23.313	0.100
306.700	-17.317	0.100
306.800	-22.590	0.100
306.900	-14.821	0.100
307.000	-17.678	0.100
307.100	-17.251	0.100
307.200	-19.416	0.100
307.300	-16.732	0.100
307.400	-24.439	0.100
307.500	-14.580	0.100
307.600	-13.754	0.100
307.700	-28.938	0.100
307.800	-9.658	0.100
307.900	-23.320	0.100
308.000	-30.489	0.100
308.100	-21.795	0.100
308.200	-27.191	0.100
308.300	-4.806	0.100
308.400	-15.686	0.100
308.500	-18.878	0.100
308.600	-29.813	0.100
308.700	-18.531	0.100
308.800	-20.001	0.100
308.900	-14.021	0.100
309.000	-14.224	0.100
309.100	-30.307	0.100
309.200	-16.646	0.100
309.300	-6.838	0.100
309.400	-9.557	0.100
309.500	-21.129	0.100
309.600	-28.127	0.100
309.700	-28.747	0.100
309.800	-13.793	0.100
309.900	-20.449	0.100
310.000	-17.910	0.100
310.100	-23.647	0.100
310.200	-19.562	0.100
310.300	-24.393	0.100
310.400	-23.184	0.100
310.500	-23.062	0.100
310.600	-9.872	0.100
310.700	-8.974	0.100
310.800	-18.129	0.100
310.900	-20.515	0.100
311.000	-31.039	0.100
311.100	-24.206	0.100
311.200	-6.815	0.100
311.300	-26.236	0.100
311.400	-18.627	0.100
311.500	-23.935	0.100
311.600	-8.309	0.100
311.700	-14.553	0.100
311.800	-34.718	0.100
311.900	-32.850	0.100
312.000	-11.150	0.100
312.100	-19.725	0.100
312.200	-23.525	0.100
312.300	-21.261	0.100
312.400	-13.176	0.100
312.500	-18.573	0.100
312.600	-9.529	0.100
312.700	-11.412	0.100
312.800	-18.849	0.100
312.900	-19.936	0.100
313.000	-31.052	0.100
313.100	-14.221	0.100
313.200	-22.389	0.100
313.300	-29.593	0.100
313.400	-19.426	0.100
313.500	-17.482	0.100
313.600	-22.194	0.100
313.700	-30.230	0.100
313.800	-26.713	0.100
313.900	-19.925	0.100
314.000	-17.761	0.100
314.100	-12.035	0.100
314.200	-2.519	0.100
314.300	-16.973	0.100
314.400	-25.232	0.100
314.500	-23.364	0.100
314.600	-22.241	0.100
314.700	-21.020	0.100
314.800	-25.883	0.100
314.900	-14.585	0.100
315.000	-17.465	0.100
315.100	-13.791	0.100
315.200	-13.171	0.100
315.300	-13.524	0.100
315.400	-6.369	0.100
315.500	-16.684	0.100
315.600	-23.661	0.100
315.700	-25.680	0.100
315.800	-21.479	0.100
315.900	-20.478	0.100
316.000	-14.981	0.100
316.100	-15.739	0.100
316.200	-22.181	0.100
316.300	0.465	0.100
316.400	-9.932	0.100
316.500	-36.991	0.100
316.600	-16.343	0.100
316.700	-21.474	0.100
316.800	-9.724	0.100
316.900	-18.645	0.100
317.000	-21.377	0.100
317.100	-12.559	0.100
317.200	-15.184	0.100
317.300	-25.611	0.100
317.400	-25.494	0.100
317.500	-19.042	0.100
317.600	-26.471	0.100
317.700	-13.797	0.100
317.800	-14.304	0.100
317.900	-16.526	0.100
318.000	-22.454	0.100
318.100	-14.632	0.100
318.200	-27.345	0.100
318.300	-27.028	0.100
318.400	-17.388	0.100
318.500	-8.172	0.100
318.600	-9.200	0.100
318.700	-13.707	0.100
318.800	-18.340	0.100
318.900	-20.590	0.100
319.000	-16.992	0.100
319.100	-24.726	0.100
319.200	-14.059	0.100
319.300	-18.340	0.100
319.400	-13.288	0.100
319.500	-23.684	0.100
319.600	-19.979	0.100
319.700	-17.941	0.100
319.800	-13.647	0.100
319.900	-18.837	0.100
320.000	-22.377	0.100
320.100	-19.864	0.100
320.200	-19.962	0.100
320.300	-15.482	0.100
320.400	-10.234	0.100
320.500	-22.439	0.100
320.600	-15.976	0.100
320.700	-5.157	0.100
320.800	-16.272	0.100
320.900	-16.160	0.100
321.000	-21.721	0.100
321.100	-11.682	0.100
321.200	-23.426	0.100
321.300	-24.413	0.100
321.400	-22.895	0.100
321.500	-12.625	0.100
321.600	-12.914	0.100
321.700	-8.455	0.100
321.800	-19.743	0.100
321.900	-11.162	0.100
322.000	-6.138	0.100
322.100	-14.715	0.100
322.200	-13.540	0.100
322.300	-28.342	0.100
322.400	-20.274	0.100
322.500	-14.211	0.100
322.600	-17.415	0.100
322.700	-18.746	0.100
322.800	-28.809	0.100
322.900	-9.546	0.100
323.000	-22.189	0.100
323.100	-15.974	0.100
323.200	-15.499	0.100
323.300	-12.584	0.100
323.400	-16.723	0.100
323.500	-18.506	0.100
323.600	-24.704	0.100
323.700	-20.832	0.100
323.800	-21.472	0.100
323.900	-26.707	0.100
324.000	-12.908	0.100
324.100	-12.731	0.100
324.200	-6.232	0.100
324.300	-10.860	0.100
324.400	-19.801	0.100
324.500	-20.026	0.100
324.600	-27.448	0.100
324.700	-17.981	0.100
324.800	-9.445	0.100
324.900	-12.117	0.100
325.000	-13.418	0.100
325.100	-28.169	0.100
325.200	-34.302	0.100
325.300	-8.842	0.100
325.400	-10.610	0.100
325.500	-20.673	0.100
325.600	-19.396	0.100
325.700	-8.976	0.100
325.800	-21.119	0.100
325.900	-17.144	0.100
326.000	-19.908	0.100
326.100	-18.012	0.100
326.200	-9.443	0.100
326.300	-7.914	0.100
326.400	-22.674	0.100
326.500	-23.742	0.100
326.600	-29.366	0.100
326.700	-28.574	0.100
326.800	-6.877	0.100
326.900	-21.660	0.100
327.000	-7.043	0.100
327.100	-11.433	0.100
327.200	-10.299	0.100
327.300	-7.785	0.100
327.400	-14.136	0.100
327.500	-11.864	0.100
327.600	-5.888	0.100
327.700	-20.746	0.100
327.800	-16.121	0.100
327.900	-14.764	0.100
328.000	-13.108	0.100
328.100	-15.759	0.100
328.200	-26.725	0.100
328.300	-23.091	0.100
328.400	-15.986	0.100
328.500	-11.047	0.100
328.600	-11.687	0.100
328.700	-20.225	0.100
328.800	-21.933	0.100
328.900	-19.314	0.100
329.000	-14.306	0.100
329.100	-9.023	0.100
329.200	-18.274	0.100
329.300	-0.955	0.100
329.400	-29.033	0.100
329.500	-28.953	0.100
329.600	-26.386	0.100
329.700	-21.732	0.100
329.800	-8.272	0.100
329.900	-7.171	0.100
330.000	-13.001	0.100
330.100	-12.175	0.100
330.200	-15.017	0.100
330.300	-16.064	0.100
330.400	-2.030	0.100
330.500	-5.002	0.100
330.600	-9.595	0.100
330.700	8.831	0.100
330.800	1.903	0.100
330.900	6.458	0.100
331.000	15.918	0.100
331.100	20.540	0.100
331.200	25.117	0.100
331.300	31.359	0.100
331.400	32.966	0.100
331.500	32.707	0.100
331.600	20.011	0.100
331.700	35.083	0.100
331.800	19.687	0.100
331.900	37.500	0.100
332.000	21.921	0.100
332.100	36.377	0.100
332.200	45.062	0.100
332.300	50.603	0.100
332.400	43.571	0.100
332.500	23.130	0.100
332.600	58.933	0.100
332.700	45.523	0.100
332.800	44.161	0.100
332.900	51.570	0.100
333.000	37.062	0.100
333.100	41.576	0.100
333.200	41.017	0.100
333.300	40.892	0.100
333.400	47.107	0.100
333.500	36.262	0.100
333.600	16.976	0.100
333.700	36.549	0.100
333.800	35.854	0.100
333.900	48.497	0.100
334.000	48.866	0.100
334.100	43.160	0.100
334.200	47.941	0.100
334.300	33.700	0.100
334.400	26.833	0.100
334.500	21.176	0.100
334.600	11.718	0.100
334.700	35.661	0.100
334.800	38.402	0.100
334.900	38.601	0.100
335.000	32.002	0.100
335.100	34.503	0.100
335.200	31.851	0.100
335.300	29.064	0.100
335.400	32.420	0.100
335.500	39.055	0.100
335.600	19.006	0.100
335.700	29.710	0.100
335.800	21.896	0.100
335.900	27.372	0.100
336.000	33.655	0.100
336.100	46.655	0.100
336.200	23.576	0.100
336.300	26.122	0.100
336.400	28.537	0.100
336.500	32.955	0.100
336.600	20.825	0.100
336.700	26.202	0.100
336.800	28.131	0.100
336.900	27.116	0.100
337.000	30.918	0.100
337.100	25.567	0.100
337.200	33.764	0.100
337.300	22.676	0.100
337.400	24.377	0.100
337.500	19.118	0.100
337.600	34.015	0.100
337.700	24.105	0.100
337.800	34.089	0.100
337.900	40.446	0.100
338.000	29.447	0.100
338.100	30.103	0.100
338.200	43.671	0.100
338.300	28.717	0.100
338.400	35.959	0.100
338.500	27.145	0.100
338.600	29.304	0.100
338.700	31.140	0.100
338.800	35.360	0.100
338.900	38.640	0.100
339.000	23.502	0.100
339.100	29.650	0.100
339.200	27.974	0.100
339.300	27.001	0.100
339.400	24.830	0.100
339.500	27.069	0.100
339.600	37.824	0.100
339.700	33.695	0.100
339.800	27.310	0.100
339.900	40.311	0.100
340.000	51.799	0.100
340.100	32.655	0.100
340.200	37.769	0.100
340.300	27.909	0.100
340.400	35.974	0.100
340.500	35.591	0.100
340.600	31.238	0.100
340.700	34.120	0.100
340.800	13.035	0.100
340.900	52.204	0.100
341.000	50.177	0.100
341.100	48.217	0.100
341.200	32.463	0.100
341.300	38.045	0.100
341.400	42.654	0.100
341.500	26.390	0.100
341.600	32.053	0.100
341.700	34.669	0.100
341.800	34.859	0.100
341.900	37.906	0.100
342.000	32.688	0.100
342.100	37.092	0.100
342.200	40.111	0.100
342.300	57.661	0.100
342.400	48.180	0.100
342.500	47.660	0.100
342.600	28.018	0.100
342.700	43.578	0.100
342.800	23.757	0.100
342.900	49.070	0.100
343.000	45.810	0.100
343.100	40.229	0.100
343.200	47.095	0.100
343.300	37.837	0.100
343.400	36.613	0.100
343.500	31.903	0.100
343.600	41.531	0.100
343.700	51.440	0.100
343.800	41.408	0.100
343.900	42.772	0.100
344.000	45.068	0.100
344.100	44.500	0.100
344.200	41.029	0.100
344.300	51.995	0.100
344.400	42.770	0.100
344.500	51.691	0.100
344.600	42.948	0.100
344.700	35.796	0.100
344.800	58.303	0.100
344.900	40.137	0.100
345.000	46.910	0.100
345.100	43.683	0.100
345.200	52.507	0.100
345.300	38.041	0.100
345.400	59.023	0.100
345.500	63.391	0.100
345.600	43.472	0.100
345.700	47.250	0.100
345.800	53.053	0.100
345.900	50.651	0.100
346.000	41.880	0.100
346.100	47.741	0.100
346.200	41.030	0.100
346.300	52.945	0.100
346.400	52.997	0.100
346.500	48.340	0.100
346.600	56.109	0.100
346.700	46.419	0.100
346.800	46.344	0.100
346.900	54.763	0.100
347.000	45.355	0.100
347.100	25.638	0.100
347.200	69.287	0.100
347.300	56.230	0.100
347.400	56.345	0.100
347.500	57.476	0.100
347.600	57.470	0.100
347.700	51.730	0.100
347.800	48.869	0.100
347.900	47.270	0.100
348.000	50.771	0.100
348.100	57.908	0.100
348.200	50.176	0.100
348.300	50.435	0.100
348.400	54.024	0.100
348.500	49.719	0.100
348.600	67.013	0.100
348.700	68.436	0.100
348.800	55.181	0.100
348.900	60.609	0.100
349.000	51.528	0.100
349.100	51.007	0.100
349.200	58.594	0.100
349.300	55.310	0.100
349.400	59.129	0.100
349.500	63.345	0.100
349.600	55.153	0.100
349.700	45.665	0.100
349.800	50.043	0.100
349.900	42.851	0.100
350.000	66.447	0.100
350.100	62.493	0.100
350.200	67.006	0.100
350.300	44.239	0.100
350.400	40.368	0.100
350.500	57.091	0.100
350.600	70.021	0.100
350.700	57.912	0.100
350.800	70.826	0.100
350.900	69.626	0.100
351.000	56.305	0.100
351.100	58.801	0.100
351.200	61.111	0.100
351.300	60.123	0.100
351.400	64.729	0.100
351.500	56.402	0.100
351.600	47.629	0.100
351.700	60.550	0.100
351.800	42.454	0.100
351.900	53.008	0.100
352.000	51.482	0.100
352.100	69.212	0.100
352.200	63.145	0.100
352.300	52.448	0.100
352.400	43.818	0.100
352.500	67.369	0.100
352.600	58.577	0.100
352.700	50.420	0.100
352.800	67.519	0.100
352.900	55.639	0.100
353.000	50.441	0.100
353.100	60.469	0.100
353.200	66.696	0.100
353.300	64.135	0.100
353.400	64.392	0.100
353.500	55.411	0.100
353.600	50.838	0.100
353.700	60.255	0.100
353.800	66.525	0.100
353.900	54.664	0.100
354.000	39.361	0.100
354.100	52.056	0.100
354.200	63.723	0.100
354.300	68.782	0.100
354.400	67.633	0.100
354.500	59.189	0.100
354.600	53.682	0.100
354.700	60.505	0.100
354.800	53.304	0.100
354.900	52.250	0.100
355.000	47.849	0.100
355.100	62.863	0.100
355.200	62.141	0.100
355.300	48.486	0.100
355.400	45.769	0.100
355.500	39.181	0.100
355.600	65.807	0.100
355.700	64.200	0.100
355.800	51.874	0.100
355.900	53.594	0.100
356.000	51.875	0.100
356.100	56.566	0.100
356.200	69.446	0.100
356.300	55.880	0.100
356.400	64.460	0.100
356.500	59.534	0.100
356.600	44.815	0.100
356.700	52.988	0.100
356.800	62.689	0.100
356.900	56.684	0.100
357.000	50.593	0.100
357.100	53.711	0.100
357.200	52.178	0.100
357.300	48.507	0.100
357.400	51.246	0.100
357.500	58.077	0.100
357.600	42.332	0.100
357.700	68.445	0.100
357.800	58.400	0.100
357.900	47.601	0.100
358.000	38.952	0.100
358.100	35.397	0.100
358.200	67.810	0.100
358.300	67.086	0.100
358.400	56.500	0.100
358.500	55.310	0.100
358.600	64.560	0.100
358.700	52.181	0.100
358.800	49.762	0.100
358.900	55.604	0.100
359.000	58.583	0.100
359.100	46.527	0.100
359.200	69.322	0.100
359.300	51.049	0.100
359.400	49.276	0.100
359.500	50.035	0.100
359.600	55.503	0.100
359.700	59.040	0.100
359.800	62.241	0.100
359.900	62.433	0.100
360.000	53.584	0.100
360.100	42.816	0.100
360.200	48.930	0.100
360.300	45.380	0.100
360.400	56.479	0.100
360.500	55.224	0.100
360.600	48.080	0.100
360.700	41.613	0.100
360.800	46.790	0.100
360.900	45.515	0.100
361.000	51.326	0.100
361.100	54.442	0.100
361.200	42.318	0.100
361.300	63.256	0.100
361.400	48.325	0.100
361.500	44.337	0.100
361.600	56.978	0.100
361.700	63.093	0.100
361.800	53.155	0.100
361.900	53.859	0.100
362.000	61.338	0.100
362.100	49.394	0.100
362.200	49.954	0.100
362.300	54.800	0.100
362.400	56.911	0.100
362.500	40.138	0.100
362.600	51.088	0.100
362.700	53.962	0.100
362.800	46.162	0.100
362.900	27.892	0.100
363.000	34.093	0.100
363.100	58.130	0.100
363.200	58.676	0.100
363.300	36.899	0.100
363.400	55.581	0.100
363.500	55.951	0.100
363.600	49.251	0.100
363.700	46.802	0.100
363.800	48.193	0.100
363.900	52.101	0.100
364.000	44.170	0.100
364.100	45.629	0.100
364.200	46.138	0.100
364.300	57.308	0.100
364.400	55.334	0.100
364.500	45.540	0.100
364.600	51.560	0.100
364.700	48.235	0.100
364.800	42.867	0.100
364.900	57.102	0.100
365.000	51.121	0.100
365.100	56.652	0.100
365.200	47.996	0.100
365.300	43.294	0.100
365.400	51.341	0.100
365.500	53.822	0.100
365.600	47.318	0.100
365.700	57.866	0.100
365.800	49.779	0.100
365.900	64.212	0.100
366.000	43.438	0.100
366.100	45.704	0.100
366.200	46.636	0.100
366.300	50.048	0.100
366.400	42.591	0.100
366.500	56.838	0.100
366.600	58.021	0.100
366.700	58.621	0.100
366.800	44.257	0.100
366.900	39.241	0.100
367.000	47.778	0.100
367.100	38.502	0.100
367.200	32.632	0.100
367.300	52.794	0.100
367.400	55.666	0.100
367.500	49.668	0.100
367.600	28.879	0.100
367.700	41.824	0.100
367.800	57.291	0.100
367.900	48.678	0.100
368.000	45.117	0.100
368.100	40.126	0.100
368.200	54.183	0.100
368.300	51.993	0.100
368.400	42.592	0.100
368.500	48.377	0.100
368.600	50.261	0.100
368.700	54.025	0.100
368.800	33.178	0.100
368.900	40.193	0.100
369.000	60.822	0.100
369.100	37.032	0.100
369.200	42.920	0.100
369.300	38.814	0.100
369.400	48.831	0.100
369.500	57.152	0.100
369.600	25.975	0.100
369.700	40.155	0.100
369.800	52.868	0.100
369.900	57.958	0.100
370.000	46.774	0.100
370.100	39.978	0.100
370.200	36.257	0.100
370.300	59.391	0.100
370.400	52.063	0.100
370.500	42.930	0.100
370.600	36.824	0.100
370.700	43.501	0.100
370.800	42.955	0.100
370.900	60.504	0.100
371.000	40.246	0.100
371.100	41.119	0.100
371.200	37.358	0.100
371.300	48.158	0.100
371.400	41.530	0.100
371.500	35.413	0.100
371.600	49.738	0.100
371.700	42.873	0.100
371.800	38.552	0.100
371.900	53.196	0.100
372.000	51.547	0.100
372.100	56.719	0.100
372.200	52.844	0.100
372.300	44.214	0.100
372.400	43.715	0.100
372.500	35.207	0.100
372.600	47.540	0.100
372.700	50.641	0.100
372.800	53.208	0.100
372.900	36.684	0.100
373.000	43.312	0.100
373.100	46.553	0.100
373.200	45.957	0.100
373.300	39.960	0.100
373.400	35.976	0.100
373.500	51.101	0.100
373.600	36.028	0.100
373.700	34.861	0.100
373.800	58.397	0.100
373.900	49.171	0.100
374.000	44.138	0.100
374.100	37.032	0.100
374.200	30.730	0.100
374.300	41.550	0.100
374.400	52.638	0.100
374.500	56.793	0.100
374.600	62.375	0.100
374.700	45.585	0.100
374.800	45.010	0.100
374.900	36.901	0.100
375.000	32.825	0.100
375.100	28.238	0.100
375.200	33.485	0.100
375.300	29.594	0.100
375.400	48.526	0.100
375.500	55.916	0.100
375.600	41.212	0.100
375.700	44.133	0.100
375.800	56.138	0.100
375.900	43.356	0.100
376.000	38.247	0.100
376.100	39.367	0.100
376.200	34.450	0.100
376.300	48.343	0.100
376.400	37.908	0.100
376.500	43.284	0.100
376.600	44.042	0.100
376.700	54.182	0.100
376.800	61.833	0.100
376.900	41.853	0.100
377.000	50.081	0.100
377.100	45.190	0.100
377.200	44.972	0.100
377.300	36.025	0.100
377.400	45.059	0.100
377.500	41.927	0.100
377.600	39.086	0.100
377.700	25.640	0.100
377.800	40.766	0.100
377.900	50.009	0.100
378.000	56.114	0.100
378.100	42.347	0.100
378.200	45.962	0.100
378.300	42.170	0.100
378.400	41.847	0.100
378.500	36.495	0.100
378.600	42.070	0.100
378.700	38.386	0.100
378.800	37.723	0.100
378.900	46.918	0.100
379.000	47.517	0.100
379.100	32.089	0.100
379.200	47.816	0.100
379.300	52.160	0.100
379.400	45.358	0.100
379.500	47.073	0.100
379.600	41.029	0.100
379.700	46.549	0.100
379.800	45.655	0.100
379.900	48.552	0.100
380.000	44.675	0.100
380.100	41.539	0.100
380.200	50.060	0.100
380.300	46.090	0.100
380.400	30.323	0.100
380.500	39.730	0.100
380.600	37.553	0.100
380.700	38.490	0.100
380.800	39.636	0.100
380.900	45.630	0.100
381.000	44.214	0.100
381.100	50.634	0.100
381.200	45.191	0.100
381.300	42.550	0.100
381.400	44.611	0.100
381.500	36.453	0.100
381.600	38.744	0.100
381.700	40.920	0.100
381.800	29.490	0.100
381.900	37.403	0.100
382.000	39.355	0.100
382.100	35.952	0.100
382.200	37.386	0.100
382.300	43.242	0.100
382.400	42.846	0.100
382.500	43.736	0.100
382.600	52.305	0.100
382.700	48.363	0.100
382.800	36.159	0.100
382.900	54.717	0.100
383.000	55.480	0.100
383.100	63.116	0.100
383.200	40.741	0.100
383.300	42.998	0.100
383.400	44.321	0.100
383.500	36.906	0.100
383.600	41.797	0.100
383.700	45.875	0.100
383.800	43.265	0.100
383.900	42.173	0.100
384.000	49.197	0.100
384.100	37.829	0.100
384.200	34.681	0.100
384.300	39.988	0.100
384.400	53.433	0.100
384.500	32.161	0.100
384.600	32.019	0.100
384.700	34.867	0.100
384.800	37.473	0.100
384.900	44.189	0.100
385.000	46.252	0.100
385.100	48.902	0.100
385.200	42.650	0.100
385.300	44.261	0.100
385.400	36.407	0.100
385.500	46.620	0.100
385.600	35.073	0.100
385.700	42.536	0.100
385.800	51.696	0.100
385.900	51.635	0.100
386.000	37.685	0.100
386.100	39.997	0.100
386.200	40.141	0.100
386.300	33.317	0.100
386.400	46.587	0.100
386.500	33.605	0.100
386.600	47.313	0.100
386.700	35.821	0.100
386.800	38.583	0.100
386.900	49.278	0.100
387.000	30.459	0.100
387.100	41.017	0.100
387.200	40.675	0.100
387.300	31.852	0.100
387.400	34.314	0.100
387.500	58.302	0.100
387.600	45.355	0.100
387.700	33.069	0.100
387.800	37.554	0.100
387.900	44.424	0.100
388.000	31.122	0.100
388.100	33.747	0.100
388.200	40.028	0.100
388.300	47.932	0.100
388.400	35.204	0.100
388.500	46.063	0.100
388.600	46.059	0.100
388.700	48.351	0.100
388.800	53.044	0.100
388.900	37.966	0.100
389.000	49.085	0.100
389.100	35.323	0.100
389.200	36.534	0.100
389.300	52.215	0.100
389.400	45.949	0.100
389.500	45.270	0.100
389.600	28.016	0.100
389.700	35.000	0.100
389.800	36.334	0.100
389.900	40.136	0.100
390.000	44.455	0.100
390.100	42.092	0.100
390.200	46.723	0.100
390.300	25.345	0.100
390.400	39.106	0.100
390.500	21.932	0.100
390.600	27.690	0.100
390.700	35.345	0.100
390.800	27.380	0.100
390.900	14.778	0.100
391.000	14.580	0.100
391.100	15.136	0.100
391.200	17.325	0.100
391.300	8.627	0.100
391.400	8.296	0.100
391.500	2.133	0.100
391.600	0.839	0.100
391.700	2.786	0.100
391.800	8.729	0.100
391.900	4.962	0.100
392.000	-14.200	0.100
392.100	-10.927	0.100
392.200	-5.880	0.100
392.300	0.636	0.100
392.400	-3.219	0.100
392.500	-5.815	0.100
392.600	1.847	0.100
392.700	-17.783	0.100
392.800	-16.343	0.100
392.900	-27.109	0.100
393.000	-16.923	0.100
393.100	-32.430	0.100
393.200	-18.296	0.100
393.300	-15.117	0.100
393.400	-25.557	0.100
393.500	-14.482	0.100
393.600	-20.351	0.100
393.700	-35.718	0.100
393.800	-26.947	0.100
393.900	-21.314	0.100
394.000	-29.739	0.100
394.100	-39.294	0.100
394.200	-21.943	0.100
394.300	-29.518	0.100
394.400	-19.614	0.100
394.500	-15.839	0.100
394.600	-32.569	0.100
394.700	-27.218	0.100
394.800	-30.173	0.100
394.900	-38.722	0.100
395.000	-39.052	0.100
395.100	-32.615	0.100
395.200	-25.125	0.100
395.300	-36.663	0.100
395.400	-32.654	0.100
395.500	-34.775	0.100
395.600	-22.467	0.100
395.700	-23.919	0.100
395.800	-33.103	0.100
395.900	-28.978	0.100
396.000	-35.661	0.100
396.100	-45.513	0.100
396.200	-34.097	0.100
396.300	-40.729	0.100
396.400	-37.862	0.100
396.500	-17.175	0.100
396.600	-24.132	0.100
396.700	-41.945	0.100
396.800	-50.932	0.100
396.900	-37.192	0.100
397.000	-29.835	0.100
397.100	-23.627	0.100
397.200	-25.091	0.100
397.300	-21.448	0.100
397.400	-34.811	0.100
397.500	-31.721	0.100
397.600	-19.168	0.100
397.700	-43.865	0.100
397.800	-38.527	0.100
397.900	-34.048	0.100
398.000	-30.289	0.100
398.100	-35.381	0.100
398.200	-29.563	0.100
398.300	-22.362	0.100
398.400	-16.065	0.100
398.500	-33.764	0.100
398.600	-35.933	0.100
398.700	-28.170	0.100
398.800	-26.803	0.100
398.900	-22.030	0.100
399.000	-44.328	0.100
399.100	-35.922	0.100
399.200	-8.543	0.100
399.300	-20.398	0.100
399.400	-37.559	0.100
399.500	-15.818	0.100
399.600	-26.835	0.100
399.700	-17.345	0.100
399.800	-16.254	0.100
399.900	-29.291	0.100
400.000	-14.554	0.100
400.100	-18.817	0.100
400.200	-32.963	0.100
400.300	-40.668	0.100
400.400	-32.219	0.100
400.500	-27.647	0.100
400.600	-14.100	0.100
400.700	-29.513	0.100
400.800	-26.593	0.100
400.900	-23.495	0.100
401.000	-15.480	0.100
401.100	-24.518	0.100
401.200	-17.152	0.100
401.300	-25.807	0.100
401.400	-26.585	0.100
401.500	-20.917	0.100
401.600	-21.186	0.100
401.700	-27.930	0.100
401.800	-14.037	0.100
401.900	-27.101	0.100
402.000	-14.448	0.100
402.100	-28.793	0.100
402.200	-15.928	0.100
402.300	-29.865	0.100
402.400	-8.629	0.100
402.500	-14.499	0.100
402.600	-22.442	0.100
402.700	-30.696	0.100
402.800	-20.428	0.100
402.900	-14.257	0.100
403.000	-18.142	0.100
403.100	-21.666	0.100
403.200	-18.317	0.100
403.300	-16.413	0.100
403.400	-30.991	0.100
403.500	-14.957	0.100
403.600	-20.417	0.100
403.700	-19.953	0.100
403.800	-14.462	0.100
403.900	-40.829	0.100
404.000	-20.086	0.100
404.100	-19.032	0.100
404.200	-26.708	0.100
404.300	-25.795	0.100
404.400	-25.402	0.100
404.500	-10.480	0.100
404.600	-12.903	0.100
404.700	-13.075	0.100
404.800	-22.300	0.100
404.900	-15.405	0.100
405.000	-20.748	0.100
405.100	-21.840	0.100
405.200	-11.023	0.100
405.300	-8.961	0.100
405.400	-21.970	0.100
405.500	-18.521	0.100
405.600	-22.840	0.100
405.700	-24.201	0.100
405.800	-22.768	0.100
405.900	-16.441	0.100
406.000	-30.140	0.100
406.100	-34.058	0.100
406.200	-25.415	0.100
406.300	-19.096	0.100
406.400	-20.765	0.100
406.500	-16.246	0.100
406.600	-8.517	0.100
406.700	-27.722	0.100
406.800	-33.069	0.100
406.900	-20.596	0.100
407.000	-24.546	0.100
407.100	-14.742	0.100
407.200	-10.730	0.100
407.300	-23.331	0.100
407.400	-19.578	0.100
407.500	-35.924	0.100
407.600	-23.607	0.100
407.700	-30.905	0.100
407.800	-15.928	0.100
407.900	-19.645	0.100
408.000	-7.224	0.100
408.100	-24.374	0.100
408.200	-15.670	0.100
408.300	-21.490	0.100
408.400	-29.158	0.100
408.500	-25.233	0.100
408.600	-14.702	0.100
408.700	-19.850	0.100
408.800	-22.647	0.100
408.900	-29.542	0.100
409.000	-25.667	0.100
409.100	-29.226	0.100
409.200	-36.387	0.100
409.300	-19.667	0.100
409.400	-12.394	0.100
409.500	-18.931	0.100
409.600	-22.408	0.100
409.700	-20.804	0.100
409.800	-20.279	0.100
409.900	-14.928	0.100
410.000	-16.531	0.100
410.100	-33.734	0.100
410.200	-20.001	0.100
410.300	-31.559	0.100
410.400	-10.934	0.100
410.500	-16.789	0.100
410.600	-30.700	0.100
410.700	-10.531	0.100
410.800	-10.078	0.100
410.900	-13.675	0.100
411.000	-14.064	0.100
411.100	-31.977	0.100
411.200	-8.141	0.100
411.300	-26.439	0.100
411.400	-35.287	0.100
411.500	-10.569	0.100
411.600	-25.838	0.100
411.700	-26.831	0.100
411.800	-26.301	0.100
411.900	-22.135	0.100
412.000	-31.960	0.100
412.100	-23.411	0.100
412.200	-21.502	0.100
412.300	-25.426	0.100
412.400	-33.483	0.100
412.500	-30.457	0.100
412.600	-23.452	0.100
412.700	-19.645	0.100
412.800	-19.958	0.100
412.900	-15.583	0.100
413.000	-17.993	0.100
413.100	-33.727	0.100
413.200	-22.289	0.100
413.300	-27.001	0.100
413.400	-16.687	0.100
413.500	-24.566	0.100
413.600	-21.931	0.100
413.700	-24.835	0.100
413.800	-20.054	0.100
413.900	-24.338	0.100
414.000	-28.691	0.100
414.100	-8.008	0.100
414.200	-13.205	0.100
414.300	-20.922	0.100
414.400	-36.422	0.100
414.500	-31.876	0.100
414.600	-29.599	0.100
414.700	-18.161	0.100
414.800	-28.290	0.100
414.900	-25.686	0.100
415.000	-33.910	0.100
415.100	-22.360	0.100
415.200	-25.536	0.100
415.300	-22.830	0.100
415.400	-12.363	0.100
415.500	-20.668	0.100
415.600	-24.289	0.100
415.700	-28.647	0.100
415.800	-17.830	0.100
415.900	-21.221	0.100
416.000	-18.801	0.100
416.100	-33.092	0.100
416.200	-29.638	0.100
416.300	-36.192	0.100
416.400	-31.065	0.100
416.500	-15.729	0.100
416.600	-31.973	0.100
416.700	-33.076	0.100
416.800	-17.001	0.100
416.900	-24.485	0.100
417.000	-24.348	0.100
417.100	-7.994	0.100
417.200	-20.968	0.100
417.300	-25.580	0.100
417.400	-26.714	0.100
417.500	-22.340	0.100
417.600	-26.963	0.100
417.700	-28.175	0.100
417.800	-37.959	0.100
417.900	-22.516	0.100
418.000	-18.749	0.100
418.100	-33.727	0.100
418.200	-29.027	0.100
418.300	-21.431	0.100
418.400	-33.841	0.100
418.500	-21.886	0.100
418.600	-17.872	0.100
418.700	1.435	0.100
418.800	-21.520	0.100
418.900	-23.526	0.100
419.000	-26.214	0.100
419.100	-15.938	0.100
419.200	-18.989	0.100
419.300	-27.574	0.100
419.400	-34.485	0.100
419.500	-35.950	0.100
419.600	-33.291	0.100
419.700	-20.499	0.100
419.800	-23.344	0.100
419.900	-25.216	0.100
420.000	-48.141	0.100
420.100	-32.529	0.100
420.200	-24.172	0.100
420.300	-33.483	0.100
420.400	-23.918	0.100
420.500	-22.112	0.100
420.600	-16.640	0.100
420.700	-25.832	0.100
420.800	-29.332	0.100
420.900	-23.416	0.100
421.000	-29.525	0.100
421.100	-21.129	0.100
421.200	-27.394	0.100
421.300	-23.716	0.100
421.400	-22.195	0.100
421.500	-20.664	0.100
421.600	-33.272	0.100
421.700	-27.318	0.100
421.800	-37.827	0.100
421.900	-37.287	0.100
422.000	-23.627	0.100
422.100	-31.380	0.100
422.200	-26.566	0.100
422.300	-21.521	0.100
422.400	-34.920	0.100
422.500	-32.079	0.100
422.600	-43.004	0.100
422.700	-33.881	0.100
422.800	-38.592	0.100
422.900	-14.745	0.100
423.000	-31.511	0.100
423.100	-26.279	0.100
423.200	-28.923	0.100
423.300	-25.113	0.100
423.400	-24.612	0.100
423.500	-40.462	0.100
423.600	-21.314	0.100
423.700	-21.843	0.100
423.800	-17.355	0.100
423.900	-36.457	0.100
424.000	-17.388	0.100
424.100	-28.404	0.100
424.200	-21.262	0.100
424.300	-42.709	0.100
424.400	-45.115	0.100
424.500	-29.176	0.100
424.600	-23.324	0.100
424.700	-29.598	0.100
424.800	-29.439	0.100
424.900	-23.988	0.100
425.000	-41.606	0.100
425.100	-35.541	0.100
425.200	-29.354	0.100
425.300	-11.828	0.100
425.400	-29.800	0.100
425.500	-28.437	0.100
425.600	-24.942	0.100
425.700	-21.987	0.100
425.800	-36.581	0.100
425.900	-28.339	0.100
426.000	-24.605	0.100
426.100	-24.697	0.100
426.200	-36.989	0.100
426.300	-35.665	0.100
426.400	-30.299	0.100
426.500	-18.661	0.100
426.600	-25.507	0.100
426.700	-40.218	0.100
426.800	-29.582	0.100
426.900	-25.712	0.100
427.000	-20.026	0.100
427.100	-16.887	0.100
427.200	-30.206	0.100
427.300	-25.763	0.100
427.400	-31.142	0.100
427.500	-26.820	0.100
427.600	-38.182	0.100
427.700	-44.388	0.100
427.800	-26.707	0.100
427.900	-26.798	0.100
428.000	-28.497	0.100
428.100	-37.114	0.100
428.200	-29.882	0.100
428.300	-18.191	0.100
428.400	-18.197	0.100
428.500	-19.682	0.100
428.600	-24.217	0.100
428.700	-27.502	0.100
428.800	-35.333	0.100
428.900	-34.518	0.100
429.000	-24.541	0.100
429.100	-23.558	0.100
429.200	-32.650	0.100
429.300	-24.694	0.100
429.400	-27.277	0.100
429.500	-21.853	0.100
429.600	-31.507	0.100
429.700	-30.269	0.100
429.800	-26.749	0.100
429.900	-30.020	0.100
430.000	-51.318	0.100
430.100	-38.954	0.100
430.200	-30.519	0.100
430.300	-22.297	0.100
430.400	-20.780	0.100
430.500	-28.362	0.100
430.600	-25.585	0.100
430.700	-29.743	0.100
430.800	-18.439	0.100
430.900	-25.834	0.100
431.000	-7.280	0.100
431.100	-13.618	0.100
431.200	-25.394	0.100
431.300	-30.774	0.100
431.400	-18.142	0.100
431.500	-24.273	0.100
431.600	-23.857	0.100
431.700	-31.200	0.100
431.800	-27.501	0.100
431.900	-40.552	0.100
432.000	-38.532	0.100
432.100	-32.764	0.100
432.200	-14.327	0.100
432.300	-20.090	0.100
432.400	-24.577	0.100
432.500	-27.872	0.100
432.600	-22.363	0.100
432.700	-23.536	0.100
432.800	-26.093	0.100
432.900	-28.423	0.100
433.000	-30.631	0.100
433.100	-23.921	0.100
433.200	-29.031	0.100
433.300	-16.118	0.100
433.400	-25.406	0.100
433.500	-41.658	0.100
433.600	-33.641	0.100
433.700	-32.215	0.100
433.800	-34.615	0.100
433.900	-17.466	0.100
434.000	-34.735	0.100
434.100	-29.815	0.100
434.200	-14.702	0.100
434.300	-23.488	0.100
434.400	-27.516	0.100
434.500	-30.171	0.100
434.600	-28.003	0.100
434.700	-23.894	0.100
434.800	-24.645	0.100
434.900	-22.449	0.100
435.000	-32.378	0.100
435.100	-19.639	0.100
435.200	-22.896	0.100
435.300	-25.555	0.100
435.400	-28.617	0.100
435.500	-38.267	0.100
435.600	-33.949	0.100
435.700	-25.868	0.100
435.800	-28.087	0.100
435.900	-22.348	0.100
436.000	-19.895	0.100
436.100	-29.346	0.100
436.200	-24.260	0.100
436.300	-18.937	0.100
436.400	-32.776	0.100
436.500	-34.376	0.100
436.600	-24.618	0.100
436.700	-24.202	0.100
436.800	-49.171	0.100
436.900	-20.438	0.100
437.000	-19.862	0.100
437.100	-32.889	0.100
437.200	-15.949	0.100
437.300	-21.652	0.100
437.400	-15.151	0.100
437.500	-30.088	0.100
437.600	-42.247	0.100
437.700	-26.272	0.100
437.800	-29.431	0.100
437.900	-13.932	0.100
438.000	-10.293	0.100
438.100	-25.833	0.100
438.200	-21.747	0.100
438.300	-33.245	0.100
438.400	-44.989	0.100
438.500	-4.612	0.100
438.600	-24.037	0.100
438.700	-35.844	0.100
438.800	-32.575	0.100
438.900	-37.647	0.100
439.000	-26.462	0.100
439.100	-7.378	0.100
439.200	-27.558	0.100
439.300	-21.830	0.100
439.400	-18.170	0.100
439.500	-43.960	0.100
439.600	-23.014	0.100
439.700	-24.551	0.100
439.800	-19.217	0.100
439.900	-25.245	0.100
440.000	-24.148	0.100
440.100	-40.823	0.100
440.200	-22.177	0.100
440.300	-28.278	0.100
440.400	-31.303	0.100
440.500	-36.455	0.100
440.600	-19.133	0.100
440.700	-26.032	0.100
440.800	-23.421	0.100
440.900	-15.954	0.100
441.000	-36.783	0.100
441.100	-27.442	0.100
441.200	-18.688	0.100
441.300	-26.111	0.100
441.400	-27.373	0.100
441.500	-20.467	0.100
441.600	-23.661	0.100
441.700	-32.445	0.100
441.800	-34.422	0.100
441.900	-18.440	0.100
442.000	-47.282	0.100
442.100	-19.584	0.100
442.200	-24.984	0.100
442.300	-24.813	0.100
442.400	-25.427	0.100
442.500	-25.602	0.100
442.600	-21.121	0.100
442.700	-37.468	0.100
442.800	-24.873	0.100
442.900	-24.756	0.100
443.000	-24.118	0.100
443.100	-16.060	0.100
443.200	-26.111	0.100
443.300	-35.105	0.100
443.400	-37.975	0.100
443.500	-21.074	0.100
443.600	-29.746	0.100
443.700	-18.578	0.100
443.800	-24.965	0.100
443.900	-8.859	0.100
444.000	-22.709	0.100
444.100	-18.769	0.100
444.200	-25.623	0.100
444.300	-18.066	0.100
444.400	-14.303	0.100
444.500	-37.862	0.100
444.600	-18.984	0.100
444.700	-40.324	0.100
444.800	-19.948	0.100
444.900	-22.832	0.100
445.000	-26.923	0.100
445.100	-24.905	0.100
445.200	-26.021	0.100
445.300	-30.447	0.100
445.400	-11.088	0.100
445.500	-32.048	0.100
445.600	-35.658	0.100
445.700	-24.199	0.100
445.800	-38.565	0.100
445.900	-18.012	0.100
446.000	-27.656	0.100
446.100	-12.747	0.100
446.200	-16.461	0.100
446.300	-23.321	0.100
446.400	-27.344	0.100
446.500	-29.152	0.100
446.600	-32.381	0.100
446.700	-28.297	0.100
446.800	-34.632	0.100
446.900	-17.228	0.100
447.000	-27.815	0.100
447.100	-21.441	0.100
447.200	-25.595	0.100
447.300	-11.861	0.100
447.400	-21.324	0.100
447.500	-19.549	0.100
447.600	-18.226	0.100
447.700	-24.945	0.100
447.800	-23.071	0.100
447.900	-12.672	0.100
448.000	-29.429	0.100
448.100	-27.955	0.100
448.200	-29.365	0.100
448.300	-25.988	0.100
448.400	-15.510	0.100
448.500	-23.640	0.100
448.600	-32.641	0.100
448.700	-13.399	0.100
448.800	-19.496	0.100
448.900	-20.838	0.100
449.000	-20.086	0.100
449.100	-33.572	0.100
449.200	-32.446	0.100
449.300	-25.084	0.100
449.400	-19.791	0.100
449.500	-21.767	0.100
449.600	-14.448	0.100
449.700	-10.030	0.100
449.800	-25.118	0.100
449.900	-38.815	0.100
450.000	-24.931	0.100
450.100	-23.017	0.100
450.200	-21.714	0.100
450.300	-19.340	0.100
450.400	-28.579	0.100
450.500	-39.338	0.100
450.600	-27.618	0.100
450.700	-27.767	0.100
450.800	-27.993	0.100
450.900	-15.181	0.100
451.000	-15.740	0.100
451.100	-26.662	0.100
451.200	-14.572	0.100
451.300	-26.652	0.100
451.400	-23.539	0.100
451.500	-15.212	0.100
451.600	-23.721	0.100
451.700	-28.733	0.100
451.800	-24.409	0.100
451.900	-22.236	0.100
452.000	-27.355	0.100
452.100	-25.395	0.100
452.200	-14.411	0.100
452.300	-29.991	0.100
452.400	-15.921	0.100
452.500	-18.235	0.100
452.600	-33.690	0.100
452.700	-35.741	0.100
452.800	-13.615	0.100
452.900	-22.317	0.100
453.000	-5.327	0.100
453.100	-12.583	0.100
453.200	-33.356	0.100
453.300	-25.521	0.100
453.400	-25.288	0.100
453.500	-26.716	0.100
453.600	-13.372	0.100
453.700	-22.661	0.100
453.800	-19.370	0.100
453.900	-45.087	0.100
454.000	-36.207	0.100
454.100	-19.179	0.100
454.200	-18.742	0.100
454.300	-27.605	0.100
454.400	-14.070	0.100
454.500	-18.409	0.100
454.600	-13.231	0.100
454.700	-20.035	0.100
454.800	-24.805	0.100
454.900	-17.314	0.100
455.000	-20.873	0.100
455.100	-20.609	0.100
455.200	-24.684	0.100
455.300	-20.191	0.100
455.400	-23.708	0.100
455.500	-32.940	0.100
455.600	-18.412	0.100
455.700	-26.089	0.100
455.800	-29.291	0.100
455.900	-14.372	0.100
456.000	-19.592	0.100
456.100	-15.964	0.100
456.200	-33.090	0.100
456.300	-19.081	0.100
456.400	-22.993	0.100
456.500	-20.900	0.100
456.600	-14.648	0.100
456.700	-23.571	0.100
456.800	-24.938	0.100
456.900	-27.130	0.100
457.000	-22.188	0.100
457.100	-18.543	0.100
457.200	-12.011	0.100
457.300	-22.235	0.100
457.400	-23.833	0.100
457.500	-27.845	0.100
457.600	-6.769	0.100
457.700	-27.627	0.100
457.800	-20.838	0.100
457.900	-17.321	0.100
458.000	-16.925	0.100
458.100	-18.571	0.100
458.200	-12.861	0.100
458.300	-27.896	0.100
458.400	-20.943	0.100
458.500	-25.096	0.100
458.600	-19.082	0.100
458.700	-22.198	0.100
458.800	-14.755	0.100
458.900	-26.424	0.100
459.000	-8.940	0.100
459.100	-29.977	0.100
459.200	-36.989	0.100
459.300	-19.580	0.100
459.400	-27.759	0.100
459.500	-18.275	0.100
459.600	-9.029	0.100
459.700	-19.171	0.100
459.800	-14.774	0.100
459.900	-42.172	0.100
460.000	-23.757	0.100
460.100	-16.340	0.100
460.200	-17.162	0.100
460.300	-11.347	0.100
460.400	-14.651	0.100
460.500	-24.822	0.100
460.600	-5.622	0.100
460.700	-19.270	0.100
460.800	-16.359	0.100
460.900	-28.029	0.100
461.000	-28.939	0.100
461.100	-10.504	0.100
461.200	-13.924	0.100
461.300	-15.064	0.100
461.400	-19.511	0.100
461.500	-21.905	0.100
461.600	-20.033	0.100
461.700	-21.548	0.100
461.800	-23.005	0.100
461.900	-14.895	0.100
462.000	-17.440	0.100
462.100	-15.900	0.100
462.200	-19.435	0.100
462.300	-10.533	0.100
462.400	-19.053	0.100
462.500	-23.592	0.100
462.600	-14.331	0.100
462.700	-28.445	0.100
462.800	-30.991	0.100
462.900	-31.208	0.100
463.000	-39.449	0.100
463.100	-25.089	0.100
463.200	-12.942	0.100
463.300	-17.779	0.100
463.400	-25.835	0.100
463.500	-10.603	0.100
463.600	-25.307	0.100
463.700	-23.807	0.100
463.800	-25.787	0.100
463.900	-33.574	0.100
464.000	-20.362	0.100
464.100	-25.666	0.100
464.200	-13.125	0.100
464.300	-30.418	0.100
464.400	-19.796	0.100
464.500	-17.917	0.100
464.600	-14.941	0.100
464.700	-18.892	0.100
464.800	-15.971	0.100
464.900	-6.757	0.100
465.000	-21.183	0.100
465.100	-12.250	0.100
465.200	-20.972	0.100
465.300	-25.898	0.100
465.400	-13.493	0.100
465.500	-14.067	0.100
465.600	-10.527	0.100
465.700	-19.228	0.100
465.800	-36.665	0.100
465.900	-33.356	0.100
466.000	-12.967	0.100
466.100	-19.105	0.100
466.200	-15.319	0.100
466.300	-22.319	0.100
466.400	-23.836	0.100
466.500	-7.941	0.100
466.600	-21.562	0.100
466.700	-19.246	0.100
466.800	-22.302	0.100
466.900	-22.252	0.100
467.000	-4.683	0.100
467.100	-14.235	0.100
467.200	-16.416	0.100
467.300	-17.732	0.100
467.400	-33.388	0.100
467.500	-20.689	0.100
467.600	-19.158	0.100
467.700	-23.944	0.100
467.800	-30.139	0.100
467.900	-19.108	0.100
468.000	-25.507	0.100
468.100	-15.041	0.100
468.200	-14.556	0.100
468.300	-15.590	0.100
468.400	-15.201	0.100
468.500	-24.169	0.100
468.600	-16.652	0.100
468.700	-12.797	0.100
468.800	-32.088	0.100
468.900	-22.824	0.100
469.000	-28.318	0.100
469.100	-26.461	0.100
469.200	-19.731	0.100
469.300	-29.340	0.100
469.400	-12.105	0.100
469.500	-14.067	0.100
469.600	-12.844	0.100
469.700	-6.711	0.100
469.800	-9.989	0.100
469.900	-25.249	0.100
470.000	-21.822	0.100
470.100	-24.873	0.100
470.200	-28.674	0.100
470.300	-13.065	0.100
470.400	-13.160	0.100
470.500	-22.365	0.100
470.600	-14.198	0.100
470.700	-21.136	0.100
470.800	-24.748	0.100
470.900	-14.946	0.100
471.000	-23.969	0.100
471.100	-24.373	0.100
471.200	-14.923	0.100
471.300	-25.314	0.100
471.400	-6.660	0.100
471.500	-24.782	0.100
471.600	-11.485	0.100
471.700	-20.576	0.100
471.800	-11.897	0.100
471.900	-20.660	0.100
472.000	-14.217	0.100
472.100	-13.547	0.100
472.200	-6.737	0.100
472.300	-8.944	0.100
472.400	-17.621	0.100
472.500	-7.740	0.100
472.600	-7.573	0.100
472.700	-30.733	0.100
472.800	-27.004	0.100
472.900	-14.578	0.100
473.000	-4.822	0.100
473.100	-22.413	0.100
473.200	-24.742	0.100
473.300	-18.061	0.100
473.400	-10.595	0.100
473.500	-21.579	0.100
473.600	-16.470	0.100
473.700	-23.938	0.100
473.800	-7.941	0.100
473.900	-15.396	0.100
474.000	-32.197	0.100
474.100	-28.039	0.100
474.200	-11.645	0.100
474.300	-22.356	0.100
474.400	-22.644	0.100
474.500	-10.513	0.100
474.600	-8.968	0.100
474.700	-15.696	0.100
474.800	-14.513	0.100
474.900	-21.028	0.100
475.000	-24.882	0.100
475.100	-31.106	0.100
475.200	-13.913	0.100
475.300	-22.600	0.100
475.400	-18.352	0.100
475.500	-15.728	0.100
475.600	-19.147	0.100
475.700	-20.902	0.100
475.800	-18.405	0.100
475.900	-26.688	0.100
476.000	-5.232	0.100
476.100	-21.686	0.100
476.200	-25.274	0.100
476.300	-4.996	0.100
476.400	-13.129	0.100
476.500	-15.471	0.100
476.600	-1.929	0.100
476.700	-13.085	0.100
476.800	-30.069	0.100
476.900	-25.507	0.100
477.000	-23.814	0.100
477.100	-4.283	0.100
477.200	-15.824	0.100
477.300	-19.188	0.100
477.400	-33.032	0.100
477.500	-29.193	0.100
477.600	-8.417	0.100
477.700	-18.186	0.100
477.800	-16.225	0.100
477.900	-27.232	0.100
478.000	-13.774	0.100
478.100	-20.630	0.100
478.200	-18.336	0.100
478.300	-17.403	0.100
478.400	-23.073	0.100
478.500	-12.879	0.100
478.600	-23.686	0.100
478.700	-18.647	0.100
478.800	-22.449	0.100
478.900	-17.659	0.100
479.000	-17.271	0.100
479.100	-20.828	0.100
479.200	-4.007	0.100
479.300	-13.284	0.100
479.400	-18.183	0.100
479.500	-12.416	0.100
479.600	-10.837	0.100
479.700	-17.756	0.100
479.800	-15.012	0.100
479.900	-11.625	0.100
480.000	-12.245	0.100
480.100	-7.470	0.100
480.200	-17.467	0.100
480.300	-11.086	0.100
480.400	-7.976	0.100
480.500	-9.484	0.100
480.600	-8.020	0.100
480.700	2.359	0.100
480.800	9.214	0.100
480.900	7.407	0.100
481.000	13.561	0.100
481.100	22.602	0.100
481.200	22.403	0.100
481.300	25.442	0.100
481.400	15.678	0.100
481.500	18.780	0.100
481.600	33.577	0.100
481.700	38.965	0.100
481.800	30.477	0.100
481.900	38.514	0.100
482.000	28.110	0.100
482.100	32.495	0.100
482.200	28.734	0.100
482.300	37.103	0.100
482.400	22.073	0.100
482.500	38.742	0.100
482.600	35.280	0.100
482.700	46.364	0.100
482.800	41.792	0.100
482.900	46.231	0.100
483.000	41.574	0.100
483.100	36.397	0.100
483.200	38.450	0.100
483.300	38.409	0.100
483.400	51.220	0.100
483.500	46.738	0.100
483.600	43.477	0.100
483.700	40.695	0.100
483.800	29.349	0.100
483.900	43.865	0.100
484.000	39.082	0.100
484.100	61.686	0.100
484.200	38.678	0.100
484.300	25.705	0.100
484.400	31.725	0.100
484.500	32.406	0.100
484.600	62.042	0.100
484.700	51.524	0.100
484.800	21.401	0.100
484.900	24.020	0.100
485.000	48.698	0.100
485.100	38.392	0.100
485.200	31.734	0.100
485.300	33.724	0.100
485.400	23.344	0.100
485.500	28.859	0.100
485.600	27.316	0.100
485.700	20.713	0.100
485.800	44.029	0.100
485.900	40.723	0.100
486.000	36.332	0.100
486.100	30.292	0.100
486.200	37.807	0.100
486.300	24.274	0.100
486.400	29.561	0.100
486.500	27.580	0.100
486.600	28.258	0.100
486.700	37.891	0.100
486.800	27.581	0.100
486.900	30.345	0.100
487.000	30.201	0.100
487.100	44.351	0.100
487.200	29.790	0.100
487.300	28.881	0.100
487.400	24.303	0.100
487.500	31.842	0.100
487.600	23.209	0.100
487.700	25.361	0.100
487.800	31.724	0.100
487.900	20.465	0.100
488.000	33.542	0.100
488.100	43.800	0.100
488.200	34.582	0.100
488.300	24.604	0.100
488.400	37.280	0.100
488.500	15.148	0.100
488.600	28.182	0.100
488.700	42.973	0.100
488.800	35.723	0.100
488.900	19.245	0.100
489.000	39.299	0.100
489.100	17.814	0.100
489.200	37.939	0.100
489.300	43.477	0.100
489.400	37.071	0.100
489.500	34.293	0.100
489.600	27.082	0.100
489.700	28.608	0.100
489.800	31.137	0.100
489.900	39.665	0.100
490.000	30.527	0.100
490.100	31.804	0.100
490.200	18.979	0.100
490.300	36.491	0.100
490.400	39.784	0.100
490.500	27.673	0.100
490.600	41.916	0.100
490.700	30.298	0.100
490.800	43.310	0.100
490.900	32.236	0.100
491.000	29.992	0.100
491.100	37.983	0.100
491.200	39.356	0.100
491.300	50.684	0.100
491.400	38.851	0.100
491.500	25.067	0.100
491.600	32.688	0.100
491.700	31.472	0.100
491.800	37.842	0.100
491.900	43.943	0.100
492.000	35.276	0.100
492.100	30.529	0.100
492.200	41.252	0.100
492.300	42.350	0.100
492.400	35.858	0.100
492.500	44.744	0.100
492.600	31.896	0.100
492.700	31.688	0.100
492.800	35.670	0.100
492.900	35.531	0.100
493.000	48.738	0.100
493.100	49.959	0.100
493.200	36.835	0.100
493.300	45.948	0.100
493.400	40.408	0.100
493.500	53.596	0.100
493.600	33.705	0.100
493.700	37.474	0.100
493.800	54.661	0.100
493.900	26.581	0.100
494.000	39.458	0.100
494.100	41.789	0.100
494.200	40.427	0.100
494.300	36.524	0.100
494.400	41.866	0.100
494.500	47.998	0.100
494.600	48.544	0.100
494.700	49.149	0.100
494.800	39.113	0.100
494.900	61.754	0.100
495.000	45.374	0.100
495.100	47.967	0.100
495.200	42.292	0.100
495.300	48.856	0.100
495.400	52.825	0.100
495.500	46.272	0.100
495.600	44.675	0.100
495.700	55.180	0.100
495.800	48.731	0.100
495.900	27.559	0.100
496.000	31.915	0.100
496.100	55.802	0.100
496.200	66.462	0.100
496.300	45.051	0.100
496.400	50.945	0.100
496.500	60.709	0.100
496.600	42.244	0.100
496.700	49.849	0.100
496.800	43.317	0.100
496.900	40.922	0.100
497.000	53.268	0.100
497.100	65.787	0.100
497.200	50.903	0.100
497.300	51.189	0.100
497.400	44.016	0.100
497.500	47.799	0.100
497.600	43.287	0.100
497.700	63.166	0.100
497.800	56.246	0.100
497.900	53.535	0.100
498.000	55.282	0.100
498.100	48.419	0.100
498.200	55.481	0.100
498.300	63.177	0.100
498.400	53.391	0.100
498.500	53.550	0.100
498.600	61.319	0.100
498.700	56.095	0.100
498.800	58.161	0.100
498.900	55.338	0.100
499.000	44.574	0.100
499.100	55.633	0.100
499.200	53.191	0.100
499.300	54.516	0.100
499.400	42.671	0.100
499.500	64.531	0.100
499.600	56.865	0.100
499.700	58.249	0.100
499.800	60.612	0.100
499.900	56.854	0.100
500.000	46.913	0.100
500.100	60.008	0.100
500.200	57.896	0.100
500.300	57.195	0.100
500.400	62.823	0.100
500.500	48.837	0.100
500.600	72.466	0.100
500.700	58.968	0.100
500.800	38.388	0.100
500.900	52.258	0.100
501.000	52.024	0.100
501.100	44.399	0.100
501.200	64.619	0.100
501.300	57.711	0.100
501.400	49.013	0.100
501.500	68.507	0.100
501.600	60.208	0.100
501.700	52.949	0.100
501.800	61.039	0.100
501.900	62.700	0.100
502.000	59.314	0.100
502.100	52.961	0.100
502.200	66.371	0.100
502.300	56.220	0.100
502.400	57.648	0.100
502.500	42.654	0.100
502.600	59.442	0.100
502.700	69.159	0.100
502.800	70.891	0.100
502.900	59.249	0.100
503.000	62.727	0.100
503.100	56.454	0.100
503.200	38.018	0.100
503.300	53.601	0.100
503.400	57.361	0.100
503.500	61.099	0.100
503.600	61.615	0.100
503.700	58.123	0.100
503.800	57.920	0.100
503.900	54.659	0.100
504.000	61.162	0.100
504.100	66.760	0.100
504.200	58.167	0.100
504.300	60.477	0.100
504.400	56.068	0.100
504.500	54.984	0.100
504.600	58.853	0.100
504.700	67.228	0.100
504.800	54.583	0.100
504.900	54.076	0.100
505.000	57.644	0.100
505.100	66.134	0.100
505.200	59.825	0.100
505.300	61.820	0.100
505.400	65.872	0.100
505.500	57.178	0.100
505.600	57.634	0.100
505.700	52.606	0.100
505.800	56.844	0.100
505.900	54.607	0.100
506.000	60.823	0.100
506.100	61.473	0.100
506.200	42.943	0.100
506.300	46.863	0.100
506.400	71.703	0.100
506.500	60.082	0.100
506.600	64.527	0.100
506.700	63.854	0.100
506.800	67.494	0.100
506.900	45.988	0.100
507.000	40.950	0.100
507.100	45.648	0.100
507.200	73.443	0.100
507.300	66.297	0.100
507.400	69.365	0.100
507.500	52.461	0.100
507.600	51.039	0.100
507.700	44.618	0.100
507.800	68.888	0.100
507.900	63.771	0.100
508.000	46.346	0.100
508.100	65.628	0.100
508.200	66.077	0.100
508.300	55.400	0.100
508.400	55.062	0.100
508.500	55.166	0.100
508.600	66.018	0.100
508.700	46.106	0.100
508.800	55.382	0.100
508.900	70.108	0.100
509.000	61.950	0.100
509.100	56.274	0.100
509.200	54.896	0.100
509.300	46.248	0.100
509.400	44.416	0.100
509.500	62.360	0.100
509.600	46.008	0.100
509.700	60.342	0.100
509.800	56.535	0.100
509.900	64.334	0.100
510.000	64.383	0.100
510.100	67.548	0.100
510.200	55.634	0.100
510.300	53.833	0.100
510.400	58.725	0.100
510.500	56.540	0.100
510.600	57.459	0.100
510.700	53.461	0.100
510.800	45.897	0.100
510.900	37.517	0.100
511.000	50.154	0.100
511.100	44.161	0.100
511.200	64.336	0.100
511.300	51.865	0.100
511.400	61.063	0.100
511.500	55.564	0.100
511.600	55.072	0.100
511.700	60.459	0.100
511.800	61.914	0.100
511.900	49.783	0.100
512.000	51.191	0.100
512.100	48.976	0.100
512.200	51.809	0.100
512.300	50.140	0.100
512.400	59.718	0.100
512.500	47.842	0.100
512.600	60.647	0.100
512.700	50.259	0.100
512.800	55.480	0.100
512.900	42.301	0.100
513.000	46.845	0.100
513.100	64.745	0.100
513.200	48.362	0.100
513.300	51.632	0.100
513.400	45.367	0.100
513.500	40.932	0.100
513.600	66.802	0.100
513.700	54.348	0.100
513.800	57.868	0.100
513.900	51.296	0.100
514.000	48.270	0.100
514.100	56.686	0.100
514.200	41.414	0.100
514.300	48.565	0.100
514.400	55.594	0.100
514.500	52.602	0.100
514.600	62.789	0.100
514.700	42.418	0.100
514.800	49.882	0.100
514.900	48.174	0.100
515.000	55.051	0.100
515.100	45.151	0.100
515.200	49.863	0.100
515.300	53.648	0.100
515.400	64.788	0.100
515.500	45.904	0.100
515.600	52.591	0.100
515.700	56.601	0.100
515.800	49.646	0.100
515.900	43.997	0.100
516.000	56.392	0.100
516.100	57.041	0.100
516.200	57.318	0.100
516.300	49.056	0.100
516.400	40.793	0.100
516.500	52.808	0.100
516.600	47.226	0.100
516.700	45.034	0.100
516.800	57.128	0.100
516.900	56.908	0.100
517.000	46.720	0.100
517.100	38.778	0.100
517.200	54.406	0.100
517.300	54.240	0.100
517.400	50.507	0.100
517.500	53.314	0.100
517.600	38.993	0.100
517.700	48.646	0.100
517.800	49.562	0.100
517.900	49.252	0.100
518.000	42.091	0.100
518.100	36.029	0.100
518.200	60.651	0.100
518.300	46.207	0.100
518.400	39.120	0.100
518.500	50.773	0.100
518.600	51.442	0.100
518.700	53.292	0.100
518.800	62.074	0.100
518.900	44.853	0.100
519.000	40.145	0.100
519.100	41.802	0.100
519.200	47.323	0.100
519.300	52.556	0.100
519.400	60.391	0.100
519.500	55.689	0.100
519.600	42.876	0.100
519.700	45.874	0.100
519.800	49.619	0.100
519.900	53.583	0.100
520.000	45.562	0.100
520.100	48.550	0.100
520.200	59.284	0.100
520.300	52.242	0.100
520.400	56.094	0.100
520.500	37.803	0.100
520.600	45.835	0.100
520.700	39.327	0.100
520.800	47.442	0.100
520.900	41.212	0.100
521.000	41.565	0.100
521.100	44.136	0.100
521.200	34.213	0.100
521.300	53.843	0.100
521.400	46.280	0.100
521.500	42.528	0.100
521.600	43.771	0.100
521.700	49.668	0.100
521.800	45.464	0.100
521.900	58.871	0.100
522.000	47.853	0.100
522.100	45.217	0.100
522.200	34.951	0.100
522.300	45.829	0.100
522.400	58.060	0.100
522.500	53.949	0.100
522.600	49.286	0.100
522.700	54.093	0.100
522.800	44.738	0.100
522.900	57.274	0.100
523.000	50.622	0.100
523.100	50.027	0.100
523.200	40.997	0.100
523.300	41.890	0.100
523.400	62.279	0.100
523.500	41.928	0.100
523.600	54.949	0.100
523.700	48.225	0.100
523.800	50.567	0.100
523.900	39.106	0.100
524.000	52.592	0.100
524.100	46.834	0.100
524.200	49.007	0.100
524.300	46.624	0.100
524.400	43.153	0.100
524.500	43.108	0.100
524.600	41.238	0.100
524.700	50.239	0.100
524.800	31.292	0.100
524.900	46.099	0.100
525.000	48.830	0.100
525.100	41.928	0.100
525.200	40.807	0.100
525.300	47.155	0.100
525.400	49.959	0.100
525.500	39.792	0.100
525.600	42.256	0.100
525.700	43.821	0.100
525.800	46.102	0.100
525.900	61.864	0.100
526.000	55.711	0.100
526.100	44.878	0.100
526.200	49.954	0.100
526.300	47.688	0.100
526.400	40.765	0.100
526.500	35.511	0.100
526.600	43.820	0.100
526.700	47.565	0.100
526.800	52.949	0.100
526.900	39.646	0.100
527.000	46.284	0.100
527.100	41.607	0.100
527.200	41.382	0.100
527.300	51.542	0.100
527.400	46.961	0.100
527.500	59.044	0.100
527.600	43.135	0.100
527.700	41.013	0.100
527.800	36.198	0.100
527.900	40.949	0.100
528.000	36.792	0.100
528.100	44.707	0.100
528.200	43.114	0.100
528.300	51.215	0.100
528.400	56.890	0.100
528.500	52.867	0.100
528.600	53.828	0.100
528.700	48.331	0.100
528.800	44.341	0.100
528.900	33.668	0.100
529.000	43.273	0.100
529.100	43.357	0.100
529.200	51.599	0.100
529.300	49.785	0.100
529.400	46.671	0.100
529.500	42.785	0.100
529.600	46.554	0.100
529.700	48.204	0.100
529.800	33.547	0.100
529.900	42.182	0.100
530.000	40.415	0.100
530.100	38.578	0.100
530.200	32.810	0.100
530.300	48.778	0.100
530.400	37.547	0.100
530.500	41.643	0.100
530.600	43.498	0.100
530.700	46.636	0.100
530.800	46.252	0.100
530.900	48.565	0.100
531.000	41.304	0.100
531.100	51.749	0.100
531.200	39.256	0.100
531.300	46.766	0.100
531.400	39.211	0.100
531.500	37.494	0.100
531.600	48.803	0.100
531.700	50.543	0.100
531.800	42.059	0.100
531.900	45.140	0.100
532.000	47.465	0.100
532.100	40.854	0.100
532.200	45.741	0.100
532.300	46.839	0.100
532.400	26.720	0.100
532.500	31.168	0.100
532.600	52.647	0.100
532.700	50.561	0.100
532.800	47.996	0.100
532.900	35.606	0.100
533.000	47.453	0.100
533.100	56.983	0.100
533.200	28.744	0.100
533.300	40.817	0.100
533.400	43.236	0.100
533.500	49.660	0.100
533.600	48.661	0.100
533.700	46.750	0.100
533.800	43.941	0.100
533.900	34.739	0.100
534.000	34.134	0.100
534.100	44.298	0.100
534.200	47.679	0.100
534.300	33.417	0.100
534.400	48.090	0.100
534.500	37.244	0.100
534.600	44.550	0.100
534.700	49.750	0.100
534.800	44.708	0.100
534.900	43.423	0.100
535.000	29.293	0.100
535.100	30.396	0.100
535.200	49.207	0.100
535.300	50.256	0.100
535.400	46.790	0.100
535.500	36.623	0.100
535.600	40.685	0.100
535.700	38.602	0.100
535.800	46.213	0.100
535.900	51.170	0.100
536.000	44.180	0.100
536.100	39.810	0.100
536.200	47.711	0.100
536.300	38.945	0.100
536.400	51.391	0.100
536.500	29.785	0.100
536.600	32.078	0.100
536.700	29.471	0.100
536.800	36.562	0.100
536.900	44.180	0.100
537.000	34.554	0.100
537.100	59.128	0.100
537.200	49.459	0.100
537.300	38.736	0.100
537.400	32.005	0.100
537.500	40.198	0.100
537.600	49.524	0.100
537.700	43.580	0.100
537.800	41.354	0.100
537.900	36.884	0.100
538.000	41.519	0.100
538.100	42.105	0.100
538.200	31.958	0.100
538.300	42.353	0.100
538.400	50.364	0.100
538.500	49.466	0.100
538.600	42.982	0.100
538.700	45.355	0.100
538.800	53.513	0.100
538.900	38.886	0.100
539.000	32.700	0.100
539.100	47.214	0.100
539.200	29.868	0.100
539.300	48.531	0.100
539.400	39.427	0.100
539.500	46.733	0.100
539.600	43.558	0.100
539.700	51.733	0.100
539.800	40.710	0.100
539.900	40.723	0.100
540.000	42.574	0.100
540.100	54.412	0.100
540.200	38.546	0.100
540.300	26.007	0.100
540.400	29.344	0.100
540.500	35.421	0.100
540.600	23.838	0.100
540.700	24.435	0.100
540.800	29.891	0.100
540.900	32.450	0.100
541.000	15.296	0.100
541.100	2.111	0.100
541.200	22.465	0.100
541.300	16.024	0.100
541.400	23.166	0.100
541.500	9.869	0.100
541.600	-5.631	0.100
541.700	9.390	0.100
541.800	3.912	0.100
541.900	1.786	0.100
542.000	0.058	0.100
542.100	-3.872	0.100
542.200	-6.243	0.100
542.300	-8.297	0.100
542.400	-4.963	0.100
542.500	-7.323	0.100
542.600	-15.399	0.100
542.700	-17.448	0.100
542.800	-10.094	0.100
542.900	-8.054	0.100
543.000	-18.561	0.100
543.100	-21.434	0.100
543.200	-34.968	0.100
543.300	-23.242	0.100
543.400	-17.610	0.100
543.500	-22.231	0.100
543.600	-12.953	0.100
543.700	-23.951	0.100
543.800	-23.866	0.100
543.900	-25.816	0.100
544.000	-21.875	0.100
544.100	-37.448	0.100
544.200	-30.954	0.100
544.300	-12.911	0.100
544.400	-23.864	0.100
544.500	-21.011	0.100
544.600	-36.413	0.100
544.700	-31.481	0.100
544.800	-28.426	0.100
544.900	-37.033	0.100
545.000	-23.569	0.100
545.100	-33.350	0.100
545.200	-27.893	0.100
545.300	-40.285	0.100
545.400	-32.219	0.100
545.500	-36.088	0.100
545.600	-42.972	0.100
545.700	-29.009	0.100
545.800	-29.870	0.100
545.900	-29.712	0.100
546.000	-27.001	0.100
546.100	-46.757	0.100
546.200	-23.858	0.100
546.300	-24.461	0.100
546.400	-29.502	0.100
546.500	-26.827	0.100
546.600	-27.818	0.100
546.700	-35.266	0.100
546.800	-31.279	0.100
546.900	-29.583	0.100
547.000	-34.093	0.100
547.100	-29.574	0.100
547.200	-29.268	0.100
547.300	-31.991	0.100
547.400	-33.280	0.100
547.500	-26.356	0.100
547.600	-32.064	0.100
547.700	-23.796	0.100
547.800	-23.742	0.100
547.900	-24.139	0.100
548.000	-36.680	0.100
548.100	-33.428	0.100
548.200	-42.825	0.100
548.300	-25.942	0.100
548.400	-22.805	0.100
548.500	-34.668	0.100
548.600	-24.876	0.100
548.700	-26.516	0.100
548.800	-24.403	0.100
548.900	-34.479	0.100
549.000	-31.006	0.100
549.100	-33.426	0.100
549.200	-26.350	0.100
549.300	-29.833	0.100
549.400	-34.269	0.100
549.500	-30.640	0.100
549.600	-22.586	0.100
549.700	-15.079	0.100
549.800	-19.903	0.100
549.900	-17.793	0.100
550.000	-22.355	0.100
550.100	-19.659	0.100
550.200	-19.864	0.100
550.300	-24.497	0.100
550.400	-32.819	0.100
550.500	-22.571	0.100
550.600	-27.409	0.100
550.700	-28.965	0.100
550.800	-18.576	0.100
550.900	-23.048	0.100
551.000	-12.574	0.100
551.100	-16.634	0.100
551.200	-27.174	0.100
551.300	-30.868	0.100
551.400	-25.785	0.100
551.500	-31.909	0.100
551.600	-19.506	0.100
551.700	-27.295	0.100
551.800	-31.337	0.100
551.900	-25.537	0.100
552.000	-27.193	0.100
552.100	-27.650	0.100
552.200	-12.347	0.100
552.300	-20.610	0.100
552.400	-29.148	0.100
552.500	-26.525	0.100
552.600	-13.677	0.100
552.700	-31.305	0.100
552.800	-24.844	0.100
552.900	-22.864	0.100
553.000	-25.554	0.100
553.100	-30.682	0.100
553.200	-11.256	0.100
553.300	-22.901	0.100
553.400	-25.001	0.100
553.500	-10.261	0.100
553.600	-21.886	0.100
553.700	-10.164	0.100
553.800	-24.045	0.100
553.900	-27.652	0.100
554.000	-22.347	0.100
554.100	-18.360	0.100
554.200	-37.530	0.100
554.300	-27.709	0.100
554.400	-16.660	0.100
554.500	-16.895	0.100
554.600	-21.190	0.100
554.700	-30.381	0.100
554.800	-21.185	0.100
554.900	-15.082	0.100
555.000	-17.799	0.100
555.100	-29.818	0.100
555.200	-10.515	0.100
555.300	-23.896	0.100
555.400	-16.319	0.100
555.500	-21.131	0.100
555.600	-21.486	0.100
555.700	-17.644	0.100
555.800	-10.778	0.100
555.900	-24.811	0.100
556.000	-25.438	0.100
556.100	-16.145	0.100
556.200	-20.980	0.100
556.300	-16.846	0.100
556.400	-24.796	0.100
556.500	-11.511	0.100
556.600	-23.350	0.100
556.700	-23.938	0.100
556.800	-17.860	0.100
556.900	-31.084	0.100
557.000	-46.555	0.100
557.100	-14.706	0.100
557.200	-17.043	0.100
557.300	-10.671	0.100
557.400	-33.321	0.100
557.500	-19.257	0.100
557.600	-32.867	0.100
557.700	-29.200	0.100
557.800	-21.032	0.100
557.900	-17.730	0.100
558.000	-14.409	0.100
558.100	-18.213	0.100
558.200	-11.600	0.100
558.300	-14.616	0.100
558.400	-22.079	0.100
558.500	-27.566	0.100
558.600	-22.001	0.100
558.700	-23.074	0.100
558.800	-27.984	0.100
558.900	-18.563	0.100
559.000	-22.776	0.100
559.100	-11.825	0.100
559.200	-20.873	0.100
559.300	-30.331	0.100
559.400	-14.839	0.100
559.500	-22.363	0.100
559.600	-17.723	0.100
559.700	-33.678	0.100
559.800	-14.750	0.100
559.900	-16.786	0.100
560.000	-30.332	0.100
560.100	-28.863	0.100
560.200	-20.046	0.100
560.300	-22.557	0.100
560.400	-27.883	0.100
560.500	-31.602	0.100
560.600	-26.479	0.100
560.700	-25.789	0.100
560.800	-38.208	0.100
560.900	-31.840	0.100
561.000	-17.144	0.100
561.100	-4.385	0.100
561.200	-11.483	0.100
561.300	-38.288	0.100
561.400	-31.207	0.100
561.500	-24.581	0.100
561.600	-17.564	0.100
561.700	-26.982	0.100
561.800	-19.202	0.100
561.900	-14.741	0.100
562.000	-22.018	0.100
562.100	-23.376	0.100
562.200	-25.886	0.100
562.300	-28.486	0.100
562.400	-41.998	0.100
562.500	-15.658	0.100
562.600	-0.097	0.100
562.700	-32.447	0.100
562.800	-36.569	0.100
562.900	-21.883	0.100
563.000	-30.626	0.100
563.100	-33.553	0.100
563.200	-29.918	0.100
563.300	-14.255	0.100
563.400	-19.827	0.100
563.500	-27.433	0.100
563.600	-30.949	0.100
563.700	-23.752	0.100
563.800	-15.870	0.100
563.900	-25.736	0.100
564.000	-31.769	0.100
564.100	-15.214	0.100
564.200	-22.230	0.100
564.300	-29.574	0.100
564.400	-26.391	0.100
564.500	-21.919	0.100
564.600	-27.527	0.100
564.700	-19.509	0.100
564.800	-26.653	0.100
564.900	-53.161	0.100
565.000	-23.301	0.100
565.100	-22.140	0.100
565.200	-38.165	0.100
565.300	-11.977	0.100
565.400	-32.721	0.100
565.500	-31.747	0.100
565.600	-26.936	0.100
565.700	-25.619	0.100
565.800	-16.533	0.100
565.900	-18.074	0.100
566.000	-22.621	0.100
566.100	-25.745	0.100
566.200	-25.609	0.100
566.300	-16.421	0.100
566.400	-40.547	0.100
566.500	-22.462	0.100
566.600	-18.990	0.100
566.700	-13.455	0.100
566.800	-31.931	0.100
566.900	-30.547	0.100
567.000	-23.998	0.100
567.100	-18.175	0.100
567.200	-22.494	0.100
567.300	-29.550	0.100
567.400	-37.945	0.100
567.500	-20.560	0.100
567.600	-29.190	0.100
567.700	-29.522	0.100
567.800	-34.683	0.100
567.900	-26.637	0.100
568.000	-28.310	0.100
568.100	-24.973	0.100
568.200	-27.592	0.100
568.300	-31.603	0.100
568.400	-30.331	0.100
568.500	-25.075	0.100
568.600	-24.501	0.100
568.700	-13.027	0.100
568.800	-34.793	0.100
568.900	-25.109	0.100
569.000	-40.786	0.100
569.100	-17.563	0.100
569.200	-17.934	0.100
569.300	-22.978	0.100
569.400	-33.531	0.100
569.500	-36.114	0.100
569.600	-18.852	0.100
569.700	-28.480	0.100
569.800	-47.603	0.100
569.900	-42.518	0.100
570.000	-21.815	0.100
570.100	-20.287	0.100
570.200	-28.507	0.100
570.300	-14.775	0.100
570.400	-17.378	0.100
570.500	-27.386	0.100
570.600	-26.441	0.100
570.700	-17.017	0.100
570.800	-35.887	0.100
570.900	-30.612	0.100
571.000	-23.157	0.100
571.100	-35.260	0.100
571.200	-28.338	0.100
571.300	-11.139	0.100
571.400	-25.818	0.100
571.500	-22.933	0.100
571.600	-31.195	0.100
571.700	-35.543	0.100
571.800	-26.482	0.100
571.900	-32.277	0.100
572.000	-27.884	0.100
572.100	-20.303	0.100
572.200	-28.483	0.100
572.300	-33.633	0.100
572.400	-19.331	0.100
572.500	-28.346	0.100
572.600	-16.890	0.100
572.700	-45.452	0.100
572.800	-24.905	0.100
572.900	-30.893	0.100
573.000	-24.458	0.100
573.100	-19.552	0.100
573.200	-44.076	0.100
573.300	-22.552	0.100
573.400	-28.642	0.100
573.500	-26.548	0.100
573.600	-30.162	0.100
573.700	-33.484	0.100
573.800	-18.729	0.100
573.900	-23.052	0.100
574.000	-45.069	0.100
574.100	-27.941	0.100
574.200	-39.997	0.100
574.300	-31.328	0.100
574.400	-30.403	0.100
574.500	-30.612	0.100
574.600	-28.453	0.100
574.700	-36.365	0.100
574.800	-25.291	0.100
574.900	-29.584	0.100
575.000	-30.615	0.100
575.100	-34.730	0.100
575.200	-20.805	0.100
575.300	-23.070	0.100
575.400	-21.179	0.100
575.500	-39.590	0.100
575.600	-37.813	0.100
575.700	-36.691	0.100
575.800	-20.971	0.100
575.900	-27.524	0.100
576.000	-32.330	0.100
576.100	-28.604	0.100
576.200	-41.428	0.100
576.300	-35.398	0.100
576.400	-34.751	0.100
576.500	-21.443	0.100
576.600	-22.252	0.100
576.700	-31.503	0.100
576.800	-22.326	0.100
576.900	-25.056	0.100
577.000	-42.807	0.100
577.100	-24.841	0.100
577.200	-25.566	0.100
577.300	-25.970	0.100
577.400	-24.535	0.100
577.500	-27.806	0.100
577.600	-39.378	0.100
577.700	-24.005	0.100
577.800	-24.222	0.100
577.900	-34.582	0.100
578.000	-29.058	0.100
578.100	-29.011	0.100
578.200	-22.130	0.100
578.300	-32.764	0.100
578.400	-33.352	0.100
578.500	-32.553	0.100
578.600	-33.017	0.100
578.700	-34.188	0.100
578.800	-37.513	0.100
578.900	-26.262	0.100
579.000	-33.160	0.100
579.100	-25.716	0.100
579.200	-29.118	0.100
579.300	-34.138	0.100
579.400	-33.050	0.100
579.500	-22.112	0.100
579.600	-25.946	0.100
579.700	-32.751	0.100
579.800	-28.983	0.100
579.900	-32.765	0.100
580.000	-41.455	0.100
580.100	-24.901	0.100
580.200	-30.370	0.100
580.300	-18.708	0.100
580.400	-33.125	0.100
580.500	-46.233	0.100
580.600	-35.092	0.100
580.700	-25.394	0.100
580.800	-29.858	0.100
580.900	-30.693	0.100
581.000	-26.908	0.100
581.100	-30.675	0.100
581.200	-34.444	0.100
581.300	-30.030	0.100
581.400	-21.117	0.100
581.500	-34.834	0.100
581.600	-30.373	0.100
581.700	-18.862	0.100
581.800	-27.454	0.100
581.900	-25.234	0.100
582.000	-34.858	0.100
582.100	-31.198	0.100
582.200	-30.178	0.100
582.300	-27.619	0.100
582.400	-37.595	0.100
582.500	-30.058	0.100
582.600	-33.918	0.100
582.700	-24.155	0.100
582.800	-21.815	0.100
582.900	-33.527	0.100
583.000	-38.596	0.100
583.100	-34.726	0.100
583.200	-29.619	0.100
583.300	-21.417	0.100
583.400	-24.498	0.100
583.500	-17.927	0.100
583.600	-29.282	0.100
583.700	-29.546	0.100
583.800	-34.288	0.100
583.900	-35.988	0.100
584.000	-35.455	0.100
584.100	-34.525	0.100
584.200	-23.278	0.100
584.300	-51.255	0.100
584.400	-23.821	0.100
584.500	-27.577	0.100
584.600	-20.211	0.100
584.700	-38.307	0.100
584.800	-20.628	0.100
584.900	-33.414	0.100
585.000	-27.772	0.100
585.100	-23.000	0.100
585.200	-30.096	0.100
585.300	-30.708	0.100
585.400	-32.508	0.100
585.500	-29.717	0.100
585.600	-28.025	0.100
585.700	-24.255	0.100
585.800	-33.314	0.100
585.900	-32.687	0.100
586.000	-44.840	0.100
586.100	-18.197	0.100
586.200	-21.639	0.100
586.300	-42.714	0.100
586.400	-21.536	0.100
586.500	-19.432	0.100
586.600	-25.829	0.100
586.700	-40.790	0.100
586.800	-33.732	0.100
586.900	-42.538	0.100
587.000	-20.543	0.100
587.100	-22.286	0.100
587.200	-33.421	0.100
587.300	-29.053	0.100
587.400	-28.136	0.100
587.500	-21.342	0.100
587.600	-40.981	0.100
587.700	-23.855	0.100
587.800	-25.112	0.100
587.900	-33.127	0.100
588.000	-29.786	0.100
588.100	-31.514	0.100
588.200	-21.372	0.100
588.300	-30.189	0.100
588.400	-26.506	0.100
588.500	-27.558	0.100
588.600	-39.454	0.100
588.700	-27.193	0.100
588.800	-19.932	0.100
588.900	-21.032	0.100
589.000	-23.616	0.100
589.100	-24.557	0.100
589.200	-30.502	0.100
589.300	-36.581	0.100
589.400	-25.859	0.100
589.500	-34.941	0.100
589.600	-32.536	0.100
589.700	-36.662	0.100
589.800	-12.588	0.100
589.900	-31.628	0.100
590.000	-21.769	0.100
590.100	-24.197	0.100
590.200	-24.260	0.100
590.300	-28.170	0.100
590.400	-20.696	0.100
590.500	-29.235	0.100
590.600	-18.523	0.100
590.700	-35.991	0.100
590.800	-34.070	0.100
590.900	-28.026	0.100
591.000	-28.629	0.100
591.100	-37.805	0.100
591.200	-30.166	0.100
591.300	-36.209	0.100
591.400	-22.082	0.100
591.500	-44.239	0.100
591.600	-21.227	0.100
591.700	-32.232	0.100
591.800	-29.025	0.100
591.900	-17.543	0.100
592.000	-26.967	0.100
592.100	-31.883	0.100
592.200	-34.432	0.100
592.300	-26.568	0.100
592.400	-24.288	0.100
592.500	-33.524	0.100
592.600	-27.844	0.100
592.700	-21.897	0.100
592.800	-28.860	0.100
592.900	-26.864	0.100
593.000	-15.366	0.100
593.100	-20.676	0.100
593.200	-24.253	0.100
593.300	-29.495	0.100
593.400	-31.143	0.100
593.500	-34.318	0.100
593.600	-37.676	0.100
593.700	-17.042	0.100
593.800	-27.339	0.100
593.900	-11.042	0.100
594.000	-32.069	0.100
594.100	-28.889	0.100
594.200	-26.062	0.100
594.300	-22.743	0.100
594.400	-15.924	0.100
594.500	-31.554	0.100
594.600	-27.231	0.100
594.700	-12.402	0.100
594.800	-25.130	0.100
594.900	-32.112	0.100
595.000	-34.018	0.100
595.100	-33.129	0.100
595.200	-20.936	0.100
595.300	-28.758	0.100
595.400	-21.718	0.100
595.500	-42.899	0.100
595.600	-24.805	0.100
595.700	-36.840	0.100
595.800	-26.546	0.100
595.900	-29.696	0.100
596.000	-16.165	0.100
596.100	-28.107	0.100
596.200	-32.287	0.100
596.300	-28.610	0.100
596.400	-25.394	0.100
596.500	-17.334	0.100
596.600	-34.785	0.100
596.700	-21.340	0.100
596.800	-30.926	0.100
596.900	-29.815	0.100
597.000	-32.819	0.100
597.100	-21.796	0.100
597.200	-19.998	0.100
597.300	-30.166	0.100
597.400	-22.958	0.100
597.500	-26.046	0.100
597.600	-23.811	0.100
597.700	-24.754	0.100
597.800	-19.830	0.100
597.900	-24.398	0.100
598.000	-15.559	0.100
598.100	-12.435	0.100
598.200	-30.449	0.100
598.300	-31.522	0.100
598.400	-18.921	0.100
598.500	-21.204	0.100
598.600	-28.422	0.100
598.700	-36.698	0.100
598.800	-30.677	0.100
598.900	-29.273	0.100
599.000	-21.846	0.100
599.100	-33.407	0.100
599.200	-16.606	0.100
599.300	-18.326	0.100
599.400	-15.731	0.100
599.500	-32.815	0.100
599.600	-23.748	0.100
599.700	-26.145	0.100
599.800	-35.259	0.100
599.900	-25.989	0.100
600.000	-29.028	0.100
600.100	-27.658	0.100
600.200	-18.473	0.100
600.300	-35.886	0.100
600.400	-23.582	0.100
600.500	-25.408	0.100
600.600	-25.213	0.100
600.700	-17.835	0.100
600.800	-21.793	0.100
600.900	-27.112	0.100
601.000	-23.573	0.100
601.100	-14.395	0.100
601.200	-11.970	0.100
601.300	-22.819	0.100
601.400	-33.940	0.100
601.500	-29.007	0.100
601.600	-31.207	0.100
601.700	-13.385	0.100
601.800	-19.128	0.100
601.900	-13.937	0.100
602.000	-21.394	0.100
602.100	-30.654	0.100
602.200	-31.430	0.100
602.300	-17.648	0.100
602.400	-19.208	0.100
602.500	-32.148	0.100
602.600	-22.956	0.100
602.700	-29.663	0.100
602.800	-31.240	0.100
602.900	-29.320	0.100
603.000	-14.287	0.100
603.100	-12.367	0.100
603.200	-33.124	0.100
603.300	-36.604	0.100
603.400	-27.160	0.100
603.500	-14.177	0.100
603.600	-19.823	0.100
603.700	-23.991	0.100
603.800	-24.097	0.100
603.900	-21.145	0.100
604.000	-37.782	0.100
604.100	-26.206	0.100
604.200	-20.051	0.100
604.300	-17.262	0.100
604.400	-23.491	0.100
604.500	-9.535	0.100
604.600	-24.498	0.100
604.700	-23.075	0.100
604.800	-27.981	0.100
604.900	-17.379	0.100
605.000	-23.006	0.100
605.100	-21.099	0.100
605.200	-32.567	0.100
605.300	-39.237	0.100
605.400	-12.027	0.100
605.500	-17.080	0.100
605.600	-17.825	0.100
605.700	-21.037	0.100
605.800	-21.956	0.100
605.900	-12.639	0.100
606.000	-21.612	0.100
606.100	-12.677	0.100
606.200	-24.149	0.100
606.300	-28.904	0.100
606.400	-30.631	0.100
606.500	-24.523	0.100
606.600	-22.884	0.100
606.700	-21.934	0.100
606.800	-12.002	0.100
606.900	-28.903	0.100
607.000	-33.707	0.100
607.100	-15.468	0.100
607.200	-35.878	0.100
607.300	-13.411	0.100
607.400	-18.848	0.100
607.500	-24.190	0.100
607.600	-18.664	0.100
607.700	-25.213	0.100
607.800	-28.885	0.100
607.900	-31.807	0.100
608.000	-21.615	0.100
608.100	-18.957	0.100
608.200	-18.558	0.100
608.300	-18.304	0.100
608.400	-27.031	0.100
608.500	-37.200	0.100
608.600	-23.614	0.100
608.700	-12.823	0.100
608.800	-22.581	0.100
608.900	-23.268	0.100
609.000	-34.506	0.100
609.100	-27.289	0.100
609.200	-23.270	0.100
609.300	-21.878	0.100
609.400	-24.500	0.100
609.500	-38.091	0.100
609.600	-37.765	0.100
609.700	-28.830	0.100
609.800	-31.511	0.100
609.900	-7.802	0.100
610.000	-11.192	0.100
610.100	-14.057	0.100
610.200	-15.440	0.100
610.300	-23.065	0.100
610.400	-19.367	0.100
610.500	-27.453	0.100
610.600	-21.424	0.100
610.700	-18.545	0.100
610.800	-25.892	0.100
610.900	-26.155	0.100
611.000	-18.433	0.100
611.100	-31.728	0.100
611.200	-14.049	0.100
611.300	-33.203	0.100
611.400	-24.035	0.100
611.500	-21.571	0.100
611.600	-12.320	0.100
611.700	-12.278	0.100
611.800	-41.564	0.100
611.900	-26.973	0.100
612.000	-27.212	0.100
612.100	-25.215	0.100
612.200	-17.881	0.100
612.300	-23.715	0.100
612.400	-28.458	0.100
612.500	-13.825	0.100
612.600	-26.279	0.100
612.700	-27.050	0.100
612.800	-35.701	0.100
612.900	-28.000	0.100
613.000	-5.940	0.100
613.100	-12.386	0.100
613.200	-19.555	0.100
613.300	-15.262	0.100
613.400	-19.806	0.100
613.500	-25.992	0.100
613.600	-10.100	0.100
613.700	-18.347	0.100
613.800	-18.833	0.100
613.900	-20.843	0.100
614.000	-14.349	0.100
614.100	-41.180	0.100
614.200	-21.349	0.100
614.300	-10.462	0.100
614.400	-10.832	0.100
614.500	-24.041	0.100
614.600	-21.719	0.100
614.700	-19.846	0.100
614.800	-35.906	0.100
614.900	-18.830	0.100
615.000	-23.611	0.100
615.100	-22.125	0.100
615.200	-28.081	0.100
615.300	-26.287	0.100
615.400	-26.540	0.100
615.500	-31.092	0.100
615.600	-20.724	0.100
615.700	-17.499	0.100
615.800	-16.196	0.100
615.900	-15.363	0.100
616.000	-23.383	0.100
616.100	-23.631	0.100
616.200	-27.638	0.100
616.300	-21.843	0.100
616.400	-11.121	0.100
616.500	-16.658	0.100
616.600	-26.160	0.100
616.700	-20.830	0.100
616.800	-23.947	0.100
616.900	-11.805	0.100
617.000	-24.875	0.100
617.100	-26.948	0.100
617.200	-20.861	0.100
617.300	-15.044	0.100
617.400	-17.518	0.100
617.500	-24.184	0.100
617.600	-23.416	0.100
617.700	-16.222	0.100
617.800	-16.321	0.100
617.900	-7.928	0.100
618.000	-18.553	0.100
618.100	-20.335	0.100
618.200	-26.238	0.100
618.300	-28.809	0.100
618.400	-21.511	0.100
618.500	-10.799	0.100
618.600	-18.926	0.100
618.700	-27.293	0.100
618.800	-17.709	0.100
618.900	-21.571	0.100
619.000	-21.129	0.100
619.100	-4.722	0.100
619.200	-13.359	0.100
619.300	-21.166	0.100
619.400	-13.865	0.100
619.500	-19.458	0.100
619.600	-13.776	0.100
619.700	-27.997	0.100
619.800	-11.800	0.100
619.900	-21.324	0.100
620.000	-27.679	0.100
620.100	-25.491	0.100
620.200	-2.793	0.100
620.300	-30.920	0.100
620.400	-27.080	0.100
620.500	-9.785	0.100
620.600	-21.397	0.100
620.700	-27.609	0.100
620.800	-24.561	0.100
620.900	-27.299	0.100
621.000	-17.198	0.100
621.100	-11.308	0.100
621.200	-22.930	0.100
621.300	-24.347	0.100
621.400	-15.544	0.100
621.500	-20.681	0.100
621.600	-11.008	0.100
621.700	-8.559	0.100
621.800	-20.119	0.100
621.900	-18.980	0.100
622.000	-20.117	0.100
622.100	-31.720	0.100
622.200	-15.643	0.100
622.300	-12.775	0.100
622.400	-29.043	0.100
622.500	-23.934	0.100
622.600	-29.430	0.100
622.700	-10.855	0.100
622.800	-18.905	0.100
622.900	-25.594	0.100
623.000	-28.781	0.100
623.100	-17.103	0.100
623.200	-11.891	0.100
623.300	-16.202	0.100
623.400	-17.937	0.100
623.500	-27.389	0.100
623.600	-8.468	0.100
623.700	-23.855	0.100
623.800	-20.907	0.100
623.900	-21.053	0.100
624.000	-17.596	0.100
624.100	-16.063	0.100
624.200	-26.320	0.100
624.300	-15.490	0.100
624.400	-18.622	0.100
624.500	-19.842	0.100
624.600	-20.664	0.100
624.700	-14.355	0.100
624.800	-9.866	0.100
624.900	-19.544	0.100
625.000	-13.298	0.100
625.100	-30.505	0.100
625.200	-34.527	0.100
625.300	-25.818	0.100
625.400	-14.669	0.100
625.500	-24.210	0.100
625.600	-18.855	0.100
625.700	-19.407	0.100
625.800	-24.436	0.100
625.900	-19.767	0.100
626.000	-5.181	0.100
626.100	-18.577	0.100
626.200	-17.703	0.100
626.300	-18.679	0.100
626.400	-9.141	0.100
626.500	-22.818	0.100
626.600	-21.248	0.100
626.700	-14.800	0.100
626.800	-6.957	0.100
626.900	-15.837	0.100
627.000	-18.407	0.100
627.100	-22.972	0.100
627.200	-26.677	0.100
627.300	-32.305	0.100
627.400	-16.118	0.100
627.500	-11.651	0.100
627.600	-5.187	0.100
627.700	-14.332	0.100
627.800	-26.175	0.100
627.900	-16.900	0.100
628.000	-28.567	0.100
628.100	-21.434	0.100
628.200	-24.659	0.100
628.300	-10.525	0.100
628.400	-34.135	0.100
628.500	-20.106	0.100
628.600	-12.215	0.100
628.700	-6.225	0.100
628.800	-21.792	0.100
628.900	-12.450	0.100
629.000	-25.879	0.100
629.100	-24.766	0.100
629.200	-15.863	0.100
629.300	-19.536	0.100
629.400	-32.622	0.100
629.500	-15.668	0.100
629.600	-18.682	0.100
629.700	-21.666	0.100
629.800	-6.057	0.100
629.900	-19.985	0.100
630.000	-20.151	0.100
630.100	-12.448	0.100
630.200	-11.559	0.100
630.300	4.462	0.100
630.400	-4.730	0.100
630.500	-9.253	0.100
630.600	3.558	0.100
630.700	3.015	0.100
630.800	1.650	0.100
630.900	12.888	0.100
631.000	-1.360	0.100
631.100	3.955	0.100
631.200	29.188	0.100
631.300	9.974	0.100
631.400	7.648	0.100
631.500	40.087	0.100
631.600	31.078	0.100
631.700	26.687	0.100
631.800	37.981	0.100
631.900	32.511	0.100
632.000	33.687	0.100
632.100	15.409	0.100
632.200	26.367	0.100
632.300	30.148	0.100
632.400	43.904	0.100
632.500	38.028	0.100
632.600	43.435	0.100
632.700	36.877	0.100
632.800	47.268	0.100
632.900	28.547	0.100
633.000	41.762	0.100
633.100	49.130	0.100
633.200	41.544	0.100
633.300	46.810	0.100
633.400	31.768	0.100
633.500	42.321	0.100
633.600	41.252	0.100
633.700	37.719	0.100
633.800	42.544	0.100
633.900	43.086	0.100
634.000	47.374	0.100
634.100	42.577	0.100
634.200	47.182	0.100
634.300	24.497	0.100
634.400	36.054	0.100
634.500	30.266	0.100
634.600	40.505	0.100
634.700	39.941	0.100
634.800	45.741	0.100
634.900	33.670	0.100
635.000	40.159	0.100
635.100	48.321	0.100
635.200	31.734	0.100
635.300	36.916	0.100
635.400	19.015	0.100
635.500	29.767	0.100
635.600	19.650	0.100
635.700	29.754	0.100
635.800	37.492	0.100
635.900	22.781	0.100
636.000	32.978	0.100
636.100	40.402	0.100
636.200	49.524	0.100
636.300	30.073	0.100
636.400	29.755	0.100
636.500	32.538	0.100
636.600	21.289	0.100
636.700	31.907	0.100
636.800	29.084	0.100
636.900	27.612	0.100
637.000	31.067	0.100
637.100	29.840	0.100
637.200	30.423	0.100
637.300	32.613	0.100
637.400	34.079	0.100
637.500	38.611	0.100
637.600	35.456	0.100
637.700	23.310	0.100
637.800	23.544	0.100
637.900	36.617	0.100
638.000	32.555	0.100
638.100	30.187	0.100
638.200	42.799	0.100
638.300	30.906	0.100
638.400	30.203	0.100
638.500	47.700	0.100
638.600	23.486	0.100
638.700	32.815	0.100
638.800	25.885	0.100
638.900	24.776	0.100
639.000	14.595	0.100
639.100	30.720	0.100
639.200	30.628	0.100
639.300	36.287	0.100
639.400	34.400	0.100
639.500	24.052	0.100
639.600	24.526	0.100
639.700	35.578	0.100
639.800	31.122	0.100
639.900	20.225	0.100
640.000	24.209	0.100
640.100	27.283	0.100
640.200	23.922	0.100
640.300	43.927	0.100
640.400	41.232	0.100
640.500	25.213	0.100
640.600	35.139	0.100
640.700	30.190	0.100
640.800	28.269	0.100
640.900	29.224	0.100
641.000	34.288	0.100
641.100	48.326	0.100
641.200	47.727	0.100
641.300	36.696	0.100
641.400	41.924	0.100
641.500	35.018	0.100
641.600	30.872	0.100
641.700	37.390	0.100
641.800	29.836	0.100
641.900	34.019	0.100
642.000	39.980	0.100
642.100	43.379	0.100
642.200	36.272	0.100
642.300	29.318	0.100
642.400	34.201	0.100
642.500	44.414	0.100
642.600	37.069	0.100
642.700	42.013	0.100
642.800	30.931	0.100
642.900	47.989	0.100
643.000	44.766	0.100
643.100	25.628	0.100
643.200	52.920	0.100
643.300	42.766	0.100
643.400	43.301	0.100
643.500	44.494	0.100
643.600	47.005	0.100
643.700	43.463	0.100
643.800	40.923	0.100
643.900	36.426	0.100
644.000	45.463	0.100
644.100	33.059	0.100
644.200	39.765	0.100
644.300	38.954	0.100
644.400	35.266	0.100
644.500	49.489	0.100
644.600	37.922	0.100
644.700	41.532	0.100
644.800	41.085	0.100
644.900	44.773	0.100
645.000	44.513	0.100
645.100	48.484	0.100
645.200	39.078	0.100
645.300	42.826	0.100
645.400	43.367	0.100
645.500	36.289	0.100
645.600	41.484	0.100
645.700	47.837	0.100
645.800	55.834	0.100
645.900	66.252	0.100
646.000	43.069	0.100
646.100	38.839	0.100
646.200	47.594	0.100
646.300	57.927	0.100
646.400	52.360	0.100
646.500	43.599	0.100
646.600	48.229	0.100
646.700	37.567	0.100
646.800	52.825	0.100
646.900	50.999	0.100
647.000	44.713	0.100
647.100	50.803	0.100
647.200	58.555	0.100
647.300	46.596	0.100
647.400	43.074	0.100
647.500	46.174	0.100
647.600	51.409	0.100
647.700	59.245	0.100
647.800	45.626	0.100
647.900	47.486	0.100
648.000	47.219	0.100
648.100	52.879	0.100
648.200	39.695	0.100
648.300	61.870	0.100
648.400	56.044	0.100
648.500	56.351	0.100
648.600	51.648	0.100
648.700	54.424	0.100
648.800	48.645	0.100
648.900	53.949	0.100
649.000	56.207	0.100
649.100	54.006	0.100
649.200	52.537	0.100
649.300	53.333	0.100
649.400	46.983	0.100
649.500	55.507	0.100
649.600	60.724	0.100
649.700	53.069	0.100
649.800	42.286	0.100
649.900	37.777	0.100
650.000	52.146	0.100
650.100	58.712	0.100
650.200	63.356	0.100
650.300	62.839	0.100
650.400	66.174	0.100
650.500	62.727	0.100
650.600	44.877	0.100
650.700	51.441	0.100
650.800	65.626	0.100
650.900	50.259	0.100
651.000	54.195	0.100
651.100	53.524	0.100
651.200	49.411	0.100
651.300	49.702	0.100
651.400	66.222	0.100
651.500	67.730	0.100
651.600	67.206	0.100
651.700	64.709	0.100
651.800	58.244	0.100
651.900	54.860	0.100
652.000	55.493	0.100
652.100	53.093	0.100
652.200	48.244	0.100
652.300	55.894	0.100
652.400	58.738	0.100
652.500	52.038	0.100
652.600	55.489	0.100
652.700	49.202	0.100
652.800	72.539	0.100
652.900	63.382	0.100
653.000	57.229	0.100
653.100	55.470	0.100
653.200	33.822	0.100
653.300	60.119	0.100
653.400	58.468	0.100
653.500	61.353	0.100
653.600	67.598	0.100
653.700	56.903	0.100
653.800	63.611	0.100
653.900	62.914	0.100
654.000	58.844	0.100
654.100	60.024	0.100
654.200	66.216	0.100
654.300	56.743	0.100
654.400	47.441	0.100
654.500	50.996	0.100
654.600	60.126	0.100
654.700	63.076	0.100
654.800	48.585	0.100
654.900	64.105	0.100
655.000	51.914	0.100
655.100	59.998	0.100
655.200	56.265	0.100
655.300	63.299	0.100
655.400	50.051	0.100
655.500	59.398	0.100
655.600	50.471	0.100
655.700	66.962	0.100
655.800	66.086	0.100
655.900	51.438	0.100
656.000	51.046	0.100
656.100	55.507	0.100
656.200	52.526	0.100
656.300	64.719	0.100
656.400	63.382	0.100
656.500	59.758	0.100
656.600	58.291	0.100
656.700	45.951	0.100
656.800	63.904	0.100
656.900	78.201	0.100
657.000	53.612	0.100
657.100	52.323	0.100
657.200	64.583	0.100
657.300	51.376	0.100
657.400	56.456	0.100
657.500	62.549	0.100
657.600	51.022	0.100
657.700	47.626	0.100
657.800	46.697	0.100
657.900	53.026	0.100
658.000	49.426	0.100
658.100	59.495	0.100
658.200	63.027	0.100
658.300	70.596	0.100
658.400	57.666	0.100
658.500	56.545	0.100
658.600	52.704	0.100
658.700	58.871	0.100
658.800	59.546	0.100
658.900	59.229	0.100
659.000	58.225	0.100
659.100	45.797	0.100
659.200	56.928	0.100
659.300	68.041	0.100
659.400	55.986	0.100
659.500	53.202	0.100
659.600	52.485	0.100
659.700	56.522	0.100
659.800	51.604	0.100
659.900	48.398	0.100
660.000	53.194	0.100
660.100	44.424	0.100
660.200	67.062	0.100
660.300	58.297	0.100
660.400	47.596	0.100
660.500	47.643	0.100
660.600	54.923	0.100
660.700	58.669	0.100
660.800	48.083	0.100
660.900	57.619	0.100
661.000	61.591	0.100
661.100	57.264	0.100
661.200	61.671	0.100
661.300	58.706	0.100
661.400	32.512	0.100
661.500	49.461	0.100
661.600	56.906	0.100
661.700	67.943	0.100
661.800	41.921	0.100
661.900	50.349	0.100
662.000	50.888	0.100
662.100	50.482	0.100
662.200	49.314	0.100
662.300	71.131	0.100
662.400	53.817	0.100
662.500	48.199	0.100
662.600	60.113	0.100
662.700	64.578	0.100
662.800	63.471	0.100
662.900	61.803	0.100
663.000	44.309	0.100
663.100	49.443	0.100
663.200	50.808	0.100
663.300	54.368	0.100
663.400	70.508	0.100
663.500	56.397	0.100
663.600	49.192	0.100
663.700	45.550	0.100
663.800	50.977	0.100
663.900	56.842	0.100
664.000	57.329	0.100
664.100	52.426	0.100
664.200	63.164	0.100
664.300	54.745	0.100
664.400	56.500	0.100
664.500	45.918	0.100
664.600	51.573	0.100
664.700	55.647	0.100
664.800	48.726	0.100
664.900	52.422	0.100
665.000	51.808	0.100
665.100	54.053	0.100
665.200	53.350	0.100
665.300	52.012	0.100
665.400	53.174	0.100
665.500	43.943	0.100
665.600	39.410	0.100
665.700	49.947	0.100
665.800	56.793	0.100
665.900	47.761	0.100
666.000	57.186	0.100
666.100	47.283	0.100
666.200	39.006	0.100
666.300	46.787	0.100
666.400	58.348	0.100
666.500	54.084	0.100
666.600	51.157	0.100
666.700	56.712	0.100
666.800	44.292	0.100
666.900	56.498	0.100
667.000	50.709	0.100
667.100	42.568	0.100
667.200	55.426	0.100
667.300	49.849	0.100
667.400	60.509	0.100
667.500	55.848	0.100
667.600	43.143	0.100
667.700	52.814	0.100
667.800	52.209	0.100
667.900	49.553	0.100
668.000	46.477	0.100
668.100	42.781	0.100
668.200	57.228	0.100
668.300	49.012	0.100
668.400	40.672	0.100
668.500	46.221	0.100
668.600	42.964	0.100
668.700	55.492	0.100
668.800	52.504	0.100
668.900	53.030	0.100
669.000	39.982	0.100
669.100	37.380	0.100
669.200	38.690	0.100
669.300	43.617	0.100
669.400	50.900	0.100
669.500	57.127	0.100
669.600	42.501	0.100
669.700	54.211	0.100
669.800	44.220	0.100
669.900	47.026	0.100
670.000	51.049	0.100
670.100	51.478	0.100
670.200	46.762	0.100
670.300	52.298	0.100
670.400	49.708	0.100
670.500	35.136	0.100
670.600	54.958	0.100
670.700	52.865	0.100
670.800	44.287	0.100
670.900	48.504	0.100
671.000	49.160	0.100
671.100	46.820	0.100
671.200	42.789	0.100
671.300	46.698	0.100
671.400	49.268	0.100
671.500	49.484	0.100
671.600	30.334	0.100
671.700	50.342	0.100
671.800	49.025	0.100
671.900	47.059	0.100
672.000	52.716	0.100
672.100	44.277	0.100
672.200	53.102	0.100
672.300	56.304	0.100
672.400	41.795	0.100
672.500	57.984	0.100
672.600	39.596	0.100
672.700	40.311	0.100
672.800	43.292	0.100
672.900	43.697	0.100
673.000	48.512	0.100
673.100	31.307	0.100
673.200	59.709	0.100
673.300	63.870	0.100
673.400	57.258	0.100
673.500	48.797	0.100
673.600	47.989	0.100
673.700	40.295	0.100
673.800	57.846	0.100
673.900	39.477	0.100
674.000	32.527	0.100
674.100	45.975	0.100
674.200	38.088	0.100
674.300	49.563	0.100
674.400	54.951	0.100
674.500	43.229	0.100
674.600	38.398	0.100
674.700	48.226	0.100
674.800	35.525	0.100
674.900	36.765	0.100
675.000	44.711	0.100
675.100	45.912	0.100
675.200	51.108	0.100
675.300	45.315	0.100
675.400	41.686	0.100
675.500	45.332	0.100
675.600	42.719	0.100
675.700	60.300	0.100
675.800	47.457	0.100
675.900	50.784	0.100
676.000	37.425	0.100
676.100	33.349	0.100
676.200	48.742	0.100
676.300	55.732	0.100
676.400	50.598	0.100
676.500	43.196	0.100
676.600	46.423	0.100
676.700	37.940	0.100
676.800	37.883	0.100
676.900	50.126	0.100
677.000	43.695	0.100
677.100	36.873	0.100
677.200	41.623	0.100
677.300	47.828	0.100
677.400	58.606	0.100
677.500	38.200	0.100
677.600	42.600	0.100
677.700	47.163	0.100
677.800	51.931	0.100
677.900	48.087	0.100
678.000	46.038	0.100
678.100	47.437	0.100
678.200	39.671	0.100
678.300	31.329	0.100
678.400	46.470	0.100
678.500	48.329	0.100
678.600	49.041	0.100
678.700	45.625	0.100
678.800	35.211	0.100
678.900	46.483	0.100
679.000	36.200	0.100
679.100	38.911	0.100
679.200	39.073	0.100
679.300	34.197	0.100
679.400	57.884	0.100
679.500	53.896	0.100
679.600	40.624	0.100
679.700	34.164	0.100
679.800	41.921	0.100
679.900	48.020	0.100
680.000	51.831	0.100
680.100	37.632	0.100
680.200	41.447	0.100
680.300	49.595	0.100
680.400	39.752	0.100
680.500	49.457	0.100
680.600	39.410	0.100
680.700	42.370	0.100
680.800	30.878	0.100
680.900	53.353	0.100
681.000	32.111	0.100
681.100	42.464	0.100
681.200	40.112	0.100
681.300	46.461	0.100
681.400	32.381	0.100
681.500	36.307	0.100
681.600	41.456	0.100
681.700	49.684	0.100
681.800	45.419	0.100
681.900	39.819	0.100
682.000	42.635	0.100
682.100	48.639	0.100
682.200	31.736	0.100
682.300	37.518	0.100
682.400	46.467	0.100
682.500	55.339	0.100
682.600	47.357	0.100
682.700	40.145	0.100
682.800	52.912	0.100
682.900	38.039	0.100
683.000	48.294	0.100
683.100	49.818	0.100
683.200	41.145	0.100
683.300	39.693	0.100
683.400	42.896	0.100
683.500	47.142	0.100
683.600	36.395	0.100
683.700	45.165	0.100
683.800	33.680	0.100
683.900	43.200	0.100
684.000	38.533	0.100
684.100	41.476	0.100
684.200	48.417	0.100
684.300	42.135	0.100
684.400	43.569	0.100
684.500	38.969	0.100
684.600	47.665	0.100
684.700	33.584	0.100
684.800	49.581	0.100
684.900	29.519	0.100
685.000	56.642	0.100
685.100	36.980	0.100
685.200	39.092	0.100
685.300	55.395	0.100
685.400	56.620	0.100
685.500	34.802	0.100
685.600	36.340	0.100
685.700	51.573	0.100
685.800	51.328	0.100
685.900	27.681	0.100
686.000	35.087	0.100
686.100	50.667	0.100
686.200	55.057	0.100
686.300	45.834	0.100
686.400	39.059	0.100
686.500	42.310	0.100
686.600	43.177	0.100
686.700	41.595	0.100
686.800	49.332	0.100
686.900	40.878	0.100
687.000	43.650	0.100
687.100	44.491	0.100
687.200	48.972	0.100
687.300	41.740	0.100
687.400	33.974	0.100
687.500	32.673	0.100
687.600	35.303	0.100
687.700	46.492	0.100
687.800	48.430	0.100
687.900	37.739	0.100
688.000	49.511	0.100
688.100	30.753	0.100
688.200	51.349	0.100
688.300	49.321	0.100
688.400	54.916	0.100
688.500	36.204	0.100
688.600	44.276	0.100
688.700	45.128	0.100
688.800	40.833	0.100
688.900	43.501	0.100
689.000	47.448	0.100
689.100	43.502	0.100
689.200	32.304	0.100
689.300	37.110	0.100
689.400	41.419	0.100
689.500	41.912	0.100
689.600	52.088	0.100
689.700	39.526	0.100
689.800	40.534	0.100
689.900	44.629	0.100
690.000	36.734	0.100
690.100	44.254	0.100
690.200	46.107	0.100
690.300	39.542	0.100
690.400	43.239	0.100
690.500	19.386	0.100
690.600	26.938	0.100
690.700	31.367	0.100
690.800	35.807	0.100
690.900	41.093	0.100
691.000	41.569	0.100
691.100	20.088	0.100
691.200	21.080	0.100
691.300	19.909	0.100
691.400	15.263	0.100
691.500	-0.927	0.100
691.600	1.415	0.100
691.700	5.296	0.100
691.800	16.693	0.100
691.900	2.597	0.100
692.000	7.205	0.100
692.100	6.346	0.100
692.200	0.669	0.100
692.300	-5.667	0.100
692.400	-2.789	0.100
692.500	-10.397	0.100
692.600	-0.545	0.100
692.700	-7.082	0.100
692.800	-13.180	0.100
692.900	-18.441	0.100
693.000	-23.165	0.100
693.100	-26.181	0.100
693.200	-7.129	0.100
693.300	-8.764	0.100
693.400	-14.184	0.100
693.500	-25.172	0.100
693.600	-26.722	0.100
693.700	-17.608	0.100
693.800	-27.965	0.100
693.900	-21.966	0.100
694.000	-14.319	0.100
694.100	-21.277	0.100
694.200	-16.689	0.100
694.300	-28.168	0.100
694.400	-23.760	0.100
694.500	-34.560	0.100
694.600	-31.400	0.100
694.700	-31.384	0.100
694.800	-18.931	0.100
694.900	-26.183	0.100
695.000	-35.897	0.100
695.100	-30.274	0.100
695.200	-38.512	0.100
695.300	-35.693	0.100
695.400	-22.855	0.100
695.500	-23.826	0.100
695.600	-20.608	0.100
695.700	-15.156	0.100
695.800	-32.672	0.100
695.900	-27.979	0.100
696.000	-32.719	0.100
696.100	-35.081	0.100
696.200	-19.065	0.100
696.300	-32.961	0.100
696.400	-40.582	0.100
696.500	-32.890	0.100
696.600	-24.362	0.100
696.700	-19.549	0.100
696.800	-22.531	0.100
696.900	-38.993	0.100
697.000	-25.474	0.100
697.100	-18.298	0.100
697.200	-27.744	0.100
697.300	-17.802	0.100
697.400	-30.737	0.100
697.500	-30.691	0.100
697.600	-38.625	0.100
697.700	-23.057	0.100
697.800	-29.513	0.100
697.900	-32.925	0.100
698.000	-33.765	0.100
698.100	-30.144	0.100
698.200	-21.721	0.100
698.300	-14.848	0.100
698.400	-24.916	0.100
698.500	-24.010	0.100
698.600	-29.336	0.100
698.700	-35.323	0.100
698.800	-37.270	0.100
698.900	-13.244	0.100
699.000	-23.037	0.100
699.100	-18.095	0.100
699.200	-35.000	0.100
699.300	-24.944	0.100
699.400	-26.265	0.100
699.500	-30.047	0.100
699.600	-16.546	0.100
699.700	-21.817	0.100
699.800	-23.986	0.100
699.900	-26.077	0.100
700.000	-19.843	0.100
700.100	-20.284	0.100
700.200	-19.942	0.100
700.300	-27.183	0.100
700.400	-18.046	0.100
700.500	-20.409	0.100
700.600	-19.544	0.100
700.700	-28.220	0.100
700.800	-22.116	0.100
700.900	-19.535	0.100
701.000	-21.480	0.100
701.100	-22.734	0.100
701.200	-9.498	0.100
701.300	-21.871	0.100
701.400	-27.173	0.100
701.500	-35.389	0.100
701.600	-24.513	0.100
701.700	-15.641	0.100
701.800	-2.960	0.100
701.900	-18.170	0.100
702.000	-29.338	0.100
702.100	-25.496	0.100
702.200	-21.397	0.100
702.300	-27.046	0.100
702.400	-32.065	0.100
702.500	-19.696	0.100
702.600	-23.396	0.100
702.700	-14.968	0.100
702.800	-28.354	0.100
702.900	-35.408	0.100
703.000	-23.052	0.100
703.100	-23.605	0.100
703.200	-22.690	0.100
703.300	-22.515	0.100
703.400	-27.628	0.100
703.500	-22.053	0.100
703.600	-32.403	0.100
703.700	-7.364	0.100
703.800	-15.110	0.100
703.900	-29.440	0.100
704.000	-20.102	0.100
704.100	-21.044	0.100
704.200	-13.138	0.100
704.300	-24.206	0.100
704.400	-21.816	0.100
704.500	-18.943	0.100
704.600	-22.693	0.100
704.700	-20.149	0.100
704.800	-30.338	0.100
704.900	-28.438	0.100
705.000	-9.638	0.100
705.100	-24.406	0.100
705.200	-16.070	0.100
705.300	-5.148	0.100
705.400	-8.696	0.100
705.500	-32.464	0.100
705.600	-27.597	0.100
705.700	-30.516	0.100
705.800	-24.269	0.100
705.900	-12.173	0.100
706.000	-17.512	0.100
706.100	-27.506	0.100
706.200	-24.508	0.100
706.300	-19.946	0.100
706.400	-19.545	0.100
706.500	-22.948	0.100
706.600	-15.809	0.100
706.700	-11.306	0.100
706.800	-20.095	0.100
706.900	-24.304	0.100
707.000	-39.348	0.100
707.100	-12.884	0.100
707.200	-32.587	0.100
707.300	-18.969	0.100
707.400	-17.071	0.100
707.500	-28.346	0.100
707.600	-27.999	0.100
707.700	-26.108	0.100
707.800	-22.802	0.100
707.900	-10.462	0.100
708.000	-19.214	0.100
708.100	-14.866	0.100
708.200	-35.976	0.100
708.300	-24.833	0.100
708.400	-24.204	0.100
708.500	-30.472	0.100
708.600	-23.111	0.100
708.700	-8.998	0.100
708.800	-32.965	0.100
708.900	-33.410	0.100
709.000	-24.563	0.100
709.100	-24.329	0.100
709.200	-34.232	0.100
709.300	-17.276	0.100
709.400	-2.326	0.100
709.500	-25.415	0.100
709.600	-31.665	0.100
709.700	-46.531	0.100
709.800	-16.409	0.100
709.900	-6.744	0.100
710.000	-11.112	0.100
710.100	-11.936	0.100
710.200	-18.878	0.100
710.300	-32.453	0.100
710.400	-33.844	0.100
710.500	-28.685	0.100
710.600	-24.561	0.100
710.700	-27.235	0.100
710.800	-27.337	0.100
710.900	-21.606	0.100
711.000	-14.959	0.100
711.100	-17.136	0.100
711.200	-28.187	0.100
711.300	-32.970	0.100
711.400	-18.335	0.100
711.500	-22.600	0.100
711.600	-25.531	0.100
711.700	-35.221	0.100
711.800	-11.432	0.100
711.900	-22.454	0.100
712.000	-25.173	0.100
712.100	-9.502	0.100
712.200	-20.423	0.100
712.300	-19.928	0.100
712.400	-22.458	0.100
712.500	-27.377	0.100
712.600	-27.884	0.100
712.700	-27.934	0.100
712.800	-35.862	0.100
712.900	-27.925	0.100
713.000	-18.029	0.100
713.100	-16.114	0.100
713.200	-31.515	0.100
713.300	-39.673	0.100
713.400	-26.822	0.100
713.500	-31.739	0.100
713.600	-11.568	0.100
713.700	-20.338	0.100
713.800	-14.556	0.100
713.900	-34.009	0.100
714.000	-22.262	0.100
714.100	-30.588	0.100
714.200	-27.037	0.100
714.300	-19.599	0.100
714.400	-28.874	0.100
714.500	-21.375	0.100
714.600	-22.420	0.100
714.700	-29.121	0.100
714.800	-23.673	0.100
714.900	-21.211	0.100
715.000	-19.851	0.100
715.100	-27.155	0.100
715.200	-23.767	0.100
715.300	-36.695	0.100
715.400	-23.834	0.100
715.500	-20.512	0.100
715.600	-30.351	0.100
715.700	-22.397	0.100
715.800	-29.196	0.100
715.900	-16.997	0.100
716.000	-26.069	0.100
716.100	-31.082	0.100
716.200	-24.976	0.100
716.300	-23.669	0.100
716.400	-19.358	0.100
716.500	-34.325	0.100
716.600	-24.820	0.100
716.700	-22.135	0.100
716.800	-39.729	0.100
716.900	-35.006	0.100
717.000	-29.529	0.100
717.100	-28.306	0.100
717.200	-26.496	0.100
717.300	-24.669	0.100
717.400	-32.759	0.100
717.500	-34.967	0.100
717.600	-22.515	0.100
717.700	-23.267	0.100
717.800	-25.155	0.100
717.900	-36.158	0.100
718.000	-39.967	0.100
718.100	-28.605	0.100
718.200	-26.608	0.100
718.300	-28.062	0.100
718.400	-30.671	0.100
718.500	-24.219	0.100
718.600	-28.362	0.100
718.700	-32.488	0.100
718.800	-38.395	0.100
718.900	-33.382	0.100
719.000	-20.744	0.100
719.100	-29.739	0.100
719.200	-22.657	0.100
719.300	-32.351	0.100
719.400	-18.049	0.100
719.500	-23.145	0.100
719.600	-17.663	0.100
719.700	-29.966	0.100
719.800	-23.110	0.100
719.900	-29.686	0.100
720.000	-23.883	0.100
720.100	-30.842	0.100
720.200	-20.326	0.100
720.300	-16.528	0.100
720.400	-24.763	0.100
720.500	-45.859	0.100
720.600	-32.297	0.100
720.700	-32.429	0.100
720.800	-31.221	0.100
720.900	-23.895	0.100
721.000	-15.911	0.100
721.100	-44.177	0.100
721.200	-40.936	0.100
721.300	-30.027	0.100
721.400	-23.326	0.100
721.500	-12.336	0.100
721.600	-13.073	0.100
721.700	-20.471	0.100
721.800	-21.801	0.100
721.900	-34.320	0.100
722.000	-25.076	0.100
722.100	-26.605	0.100
722.200	-31.600	0.100
722.300	-31.155	0.100
722.400	-26.977	0.100
722.500	-31.601	0.100
722.600	-43.322	0.100
722.700	-49.218	0.100
722.800	-52.207	0.100
722.900	-38.238	0.100
723.000	-13.314	0.100
723.100	-22.180	0.100
723.200	-23.322	0.100
723.300	-30.731	0.100
723.400	-36.255	0.100
723.500	-27.982	0.100
723.600	-37.744	0.100
723.700	-24.736	0.100
723.800	-34.796	0.100
723.900	-31.235	0.100
724.000	-41.485	0.100
724.100	-36.282	0.100
724.200	-20.860	0.100
724.300	-17.152	0.100
724.400	-24.455	0.100
724.500	-34.530	0.100
724.600	-28.952	0.100
724.700	-23.734	0.100
724.800	-16.495	0.100
724.900	-26.562	0.100
725.000	-36.155	0.100
725.100	-19.833	0.100
725.200	-34.803	0.100
725.300	-27.567	0.100
725.400	-27.477	0.100
725.500	-26.248	0.100
725.600	-39.910	0.100
725.700	-30.566	0.100
725.800	-40.118	0.100
725.900	-23.396	0.100
726.000	-14.073	0.100
726.100	-29.846	0.100
726.200	-33.351	0.100
726.300	-41.643	0.100
726.400	-27.727	0.100
726.500	-32.045	0.100
726.600	-45.274	0.100
726.700	-25.310	0.100
726.800	-35.800	0.100
726.900	-24.998	0.100
727.000	-45.494	0.100
727.100	-31.793	0.100
727.200	-32.400	0.100
727.300	-20.886	0.100
727.400	-42.513	0.100
727.500	-27.821	0.100
727.600	-23.138	0.100
727.700	-24.436	0.100
727.800	-36.724	0.100
727.900	-46.317	0.100
728.000	-40.074	0.100
728.100	-20.463	0.100
728.200	-30.018	0.100
728.300	-34.945	0.100
728.400	-31.435	0.100
728.500	-13.098	0.100
728.600	-28.082	0.100
728.700	-25.030	0.100
728.800	-23.004	0.100
728.900	-30.560	0.100
729.000	-29.528	0.100
729.100	-23.031	0.100
729.200	-34.054	0.100
729.300	-46.590	0.100
729.400	-26.728	0.100
729.500	-38.906	0.100
729.600	-34.143	0.100
729.700	-45.551	0.100
729.800	-20.437	0.100
729.900	-34.877	0.100
730.000	-24.700	0.100
730.100	-19.520	0.100
730.200	-28.032	0.100
730.300	-22.194	0.100
730.400	-25.095	0.100
730.500	-32.540	0.100
730.600	-32.515	0.100
730.700	-29.488	0.100
730.800	-38.056	0.100
730.900	-15.830	0.100
731.000	-32.433	0.100
731.100	-32.423	0.100
731.200	-18.336	0.100
731.300	-43.483	0.100
731.400	-38.393	0.100
731.500	-29.518	0.100
731.600	-38.308	0.100
731.700	-37.308	0.100
731.800	-27.932	0.100
731.900	-24.941	0.100
732.000	-28.157	0.100
732.100	-34.112	0.100
732.200	-46.810	0.100
732.300	-31.657	0.100
732.400	-37.349	0.100
732.500	-23.427	0.100
732.600	-18.956	0.100
732.700	-24.973	0.100
732.800	-29.721	0.100
732.900	-32.941	0.100
733.000	-22.803	0.100
733.100	-24.990	0.100
733.200	-30.549	0.100
733.300	-33.424	0.100
733.400	-34.659	0.100
733.500	-30.785	0.100
733.600	-34.977	0.100
733.700	-34.567	0.100
733.800	-20.945	0.100
733.900	-26.107	0.100
734.000	-22.549	0.100
734.100	-44.602	0.100
734.200	-27.941	0.100
734.300	-28.368	0.100
734.400	-19.177	0.100
734.500	-23.224	0.100
734.600	-26.831	0.100
734.700	-28.973	0.100
734.800	-31.205	0.100
734.900	-43.355	0.100
735.000	-31.598	0.100
735.100	-25.106	0.100
735.200	-24.118	0.100
735.300	-39.707	0.100
735.400	-22.702	0.100
735.500	-37.326	0.100
735.600	-28.669	0.100
735.700	-36.865	0.100
735.800	-39.915	0.100
735.900	-26.369	0.100
736.000	-33.093	0.100
736.100	-25.271	0.100
736.200	-35.666	0.100
736.300	-27.909	0.100
736.400	-40.281	0.100
736.500	-34.828	0.100
736.600	-25.722	0.100
736.700	-30.365	0.100
736.800	-24.937	0.100
736.900	-31.687	0.100
737.000	-34.556	0.100
737.100	-36.641	0.100
737.200	-38.427	0.100
737.300	-20.912	0.100
737.400	-32.508	0.100
737.500	-22.978	0.100
737.600	-36.320	0.100
737.700	-40.739	0.100
737.800	-23.683	0.100
737.900	-34.627	0.100
738.000	-21.124	0.100
738.100	-30.961	0.100
738.200	-30.646	0.100
738.300	-31.888	0.100
738.400	-35.818	0.100
738.500	-25.868	0.100
738.600	-28.155	0.100
738.700	-33.484	0.100
738.800	-19.220	0.100
738.900	-27.678	0.100
739.000	-28.031	0.100
739.100	-37.661	0.100
739.200	-41.334	0.100
739.300	-24.779	0.100
739.400	-30.106	0.100
739.500	-24.638	0.100
739.600	-29.081	0.100
739.700	-21.653	0.100
739.800	-23.906	0.100
739.900	-30.242	0.100
740.000	-35.340	0.100
740.100	-17.450	0.100
740.200	-23.761	0.100
740.300	-29.078	0.100
740.400	-30.990	0.100
740.500	-35.563	0.100
740.600	-23.759	0.100
740.700	-26.879	0.100
740.800	-29.386	0.100
740.900	-27.405	0.100
741.000	-22.800	0.100
741.100	-34.509	0.100
741.200	-26.532	0.100
741.300	-36.879	0.100
741.400	-29.831	0.100
741.500	-21.612	0.100
741.600	-17.304	0.100
741.700	-21.275	0.100
741.800	-34.614	0.100
741.900	-37.134	0.100
742.000	-33.590	0.100
742.100	-35.834	0.100
742.200	-27.601	0.100
742.300	-32.368	0.100
742.400	-21.589	0.100
742.500	-18.068	0.100
742.600	-25.421	0.100
742.700	-35.813	0.100
742.800	-22.347	0.100
742.900	-26.938	0.100
743.000	-20.076	0.100
743.100	-21.387	0.100
743.200	-31.154	0.100
743.300	-31.780	0.100
743.400	-26.484	0.100
743.500	-30.842	0.100
743.600	-32.353	0.100
743.700	-23.513	0.100
743.800	-34.899	0.100
743.900	-22.791	0.100
744.000	-19.433	0.100
744.100	-20.624	0.100
744.200	-25.811	0.100
744.300	-22.384	0.100
744.400	-40.348	0.100
744.500	-30.410	0.100
744.600	-39.082	0.100
744.700	-26.987	0.100
744.800	-30.007	0.100
744.900	-28.267	0.100
745.000	-37.664	0.100
745.100	-18.467	0.100
745.200	-16.316	0.100
745.300	-17.427	0.100
745.400	-22.681	0.100
745.500	-20.931	0.100
745.600	-25.390	0.100
745.700	-27.378	0.100
745.800	-31.015	0.100
745.900	-25.137	0.100
746.000	-28.493	0.100
746.100	-30.082	0.100
746.200	-28.853	0.100
746.300	-19.183	0.100
746.400	-18.488	0.100
746.500	-40.488	0.100
746.600	-13.816	0.100
746.700	-20.505	0.100
746.800	-26.156	0.100
746.900	-29.094	0.100
747.000	-27.285	0.100
747.100	-32.852	0.100
747.200	-35.509	0.100
747.300	-35.960	0.100
747.400	-22.203	0.100
747.500	-32.589	0.100
747.600	-34.468	0.100
747.700	-28.474	0.100
747.800	-14.950	0.100
747.900	-24.242	0.100
748.000	-22.052	0.100
748.100	-20.240	0.100
748.200	-13.367	0.100
748.300	-30.332	0.100
748.400	-30.416	0.100
748.500	-25.993	0.100
748.600	-21.597	0.100
748.700	-25.064	0.100
748.800	-25.821	0.100
748.900	-33.937	0.100
749.000	-39.462	0.100
749.100	-37.424	0.100
749.200	-14.372	0.100
749.300	-26.470	0.100
749.400	-30.731	0.100
749.500	-21.925	0.100
749.600	-32.422	0.100
749.700	-9.058	0.100
749.800	-31.951	0.100
749.900	-22.229	0.100
750.000	-35.892	0.100
750.100	-23.310	0.100
750.200	-30.422	0.100
750.300	-17.804	0.100
750.400	-20.719	0.100
750.500	-33.957	0.100
750.600	-34.577	0.100
750.700	-10.923	0.100
750.800	-37.445	0.100
750.900	-15.360	0.100
751.000	-30.961	0.100
751.100	-21.963	0.100
751.200	-22.459	0.100
751.300	-21.747	0.100
751.400	-25.939	0.100
751.500	-30.317	0.100
751.600	-35.097	0.100
751.700	-33.912	0.100
751.800	-17.883	0.100
751.900	-25.774	0.100
752.000	-36.282	0.100
752.100	-30.001	0.100
752.200	-25.143	0.100
752.300	-21.945	0.100
752.400	-28.764	0.100
752.500	-19.802	0.100
752.600	-28.572	0.100
752.700	-29.385	0.100
752.800	-23.002	0.100
752.900	-19.150	0.100
753.000	-24.648	0.100
753.100	-23.042	0.100
753.200	-22.972	0.100
753.300	-28.153	0.100
753.400	-27.207	0.100
753.500	-20.878	0.100
753.600	-13.536	0.100
753.700	-31.893	0.100
753.800	-16.275	0.100
753.900	-21.001	0.100
754.000	-23.491	0.100
754.100	-27.423	0.100
754.200	-33.164	0.100
754.300	-28.549	0.100
754.400	-24.214	0.100
754.500	-26.366	0.100
754.600	-14.633	0.100
754.700	-31.651	0.100
754.800	-21.870	0.100
754.900	-37.116	0.100
755.000	-22.033	0.100
755.100	-17.440	0.100
755.200	-9.939	0.100
755.300	-24.261	0.100
755.400	-27.653	0.100
755.500	-33.202	0.100
755.600	-24.075	0.100
755.700	-35.051	0.100
755.800	-35.080	0.100
755.900	-13.606	0.100
756.000	-24.383	0.100
756.100	-17.957	0.100
756.200	-19.931	0.100
756.300	-9.949	0.100
756.400	-28.055	0.100
756.500	-21.301	0.100
756.600	-22.538	0.100
756.700	-21.388	0.100
756.800	-34.749	0.100
756.900	-23.909	0.100
757.000	-24.781	0.100
757.100	-18.636	0.100
757.200	-13.500	0.100
757.300	-16.675	0.100
757.400	-20.822	0.100
757.500	-48.928	0.100
757.600	-31.362	0.100
757.700	-19.800	0.100
757.800	-36.137	0.100
757.900	-15.688	0.100
758.000	-29.450	0.100
758.100	-19.095	0.100
758.200	-28.689	0.100
758.300	-17.545	0.100
758.400	-31.373	0.100
758.500	-35.360	0.100
758.600	-24.585	0.100
758.700	-18.851	0.100
758.800	-13.966	0.100
758.900	-30.480	0.100
759.000	-16.969	0.100
759.100	-26.824	0.100
759.200	-26.107	0.100
759.300	-26.091	0.100
759.400	-18.393	0.100
759.500	-20.241	0.100
759.600	-25.191	0.100
759.700	-24.733	0.100
759.800	-26.731	0.100
759.900	-16.288	0.100
760.000	-19.092	0.100
760.100	-21.128	0.100
760.200	-12.715	0.100
760.300	-12.851	0.100
760.400	-14.859	0.100
760.500	-29.475	0.100
760.600	-24.673	0.100
760.700	-21.137	0.100
760.800	-19.013	0.100
760.900	-22.437	0.100
761.000	-30.496	0.100
761.100	-14.358	0.100
761.200	-27.527	0.100
761.300	-26.821	0.100
761.400	-20.772	0.100
761.500	-26.778	0.100
761.600	-22.397	0.100
761.700	-17.518	0.100
761.800	-37.772	0.100
761.900	-26.405	0.100
762.000	-13.627	0.100
762.100	-17.255	0.100
762.200	-19.729	0.100
762.300	-24.499	0.100
762.400	-25.578	0.100
762.500	-26.966	0.100
762.600	-18.179	0.100
762.700	-26.775	0.100
762.800	-21.817	0.100
762.900	-28.384	0.100
763.000	-17.967	0.100
763.100	-22.399	0.100
763.200	-25.405	0.100
763.300	-28.948	0.100
763.400	-21.246	0.100
763.500	-17.591	0.100
763.600	-22.792	0.100
763.700	-23.925	0.100
763.800	-23.893	0.100
763.900	-36.928	0.100
764.000	-22.034	0.100
764.100	-17.394	0.100
764.200	-31.391	0.100
764.300	-27.828	0.100
764.400	-23.021	0.100
764.500	-11.920	0.100
764.600	-13.554	0.100
764.700	-16.935	0.100
764.800	-31.552	0.100
764.900	-30.592	0.100
765.000	-17.761	0.100
765.100	-18.147	0.100
765.200	-20.005	0.100
765.300	-30.255	0.100
765.400	-29.971	0.100
765.500	-27.712	0.100
765.600	-36.890	0.100
765.700	-8.710	0.100
765.800	-8.844	0.100
765.900	-21.420	0.100
766.000	-25.198	0.100
766.100	-14.161	0.100
766.200	-26.810	0.100
766.300	-18.502	0.100
766.400	-21.585	0.100
766.500	-16.177	0.100
766.600	-16.814	0.100
766.700	-26.225	0.100
766.800	-24.671	0.100
766.900	-11.810	0.100
767.000	-7.658	0.100
767.100	-12.248	0.100
767.200	-16.070	0.100
767.300	-32.446	0.100
767.400	-17.125	0.100
767.500	-16.983	0.100
767.600	-26.995	0.100
767.700	-35.609	0.100
767.800	-22.154	0.100
767.900	-15.310	0.100
768.000	-22.618	0.100
768.100	-23.476	0.100
768.200	3.183	0.100
768.300	-17.799	0.100
768.400	-32.034	0.100
768.500	-24.204	0.100
768.600	-25.236	0.100
768.700	-11.119	0.100
768.800	-14.037	0.100
768.900	-33.619	0.100
769.000	-18.146	0.100
769.100	-16.020	0.100
769.200	-29.591	0.100
769.300	-29.699	0.100
769.400	-13.719	0.100
769.500	-26.582	0.100
769.600	-15.782	0.100
769.700	-24.977	0.100
769.800	-16.307	0.100
769.900	-16.887	0.099
770.000	-12.052	0.099
770.100	-27.277	0.099
770.200	-17.825	0.099
770.300	-24.050	0.099
770.400	-24.968	0.099
770.500	-19.823	0.099
770.600	-19.809	0.099
770.700	-21.290	0.099
770.800	-20.022	0.099
770.900	-19.877	0.099
771.000	-25.947	0.099
771.100	-8.511	0.099
771.200	-13.447	0.099
771.300	-15.958	0.099
771.400	-18.950	0.099
771.500	-25.120	0.099
771.600	-17.657	0.099
771.700	-12.000	0.099
771.800	-35.408	0.099
771.900	-14.590	0.099
772.000	-31.255	0.099
772.100	-22.247	0.099
772.200	-27.375	0.099
772.300	-30.413	0.099
772.400	-5.890	0.099
772.500	-14.784	0.099
772.600	-5.612	0.099
772.700	-22.677	0.099
772.800	-22.549	0.099
772.900	-16.982	0.099
773.000	-18.163	0.099
773.100	-31.493	0.099
773.200	-24.430	0.099
773.300	-15.714	0.099
773.400	-24.792	0.099
773.500	-14.725	0.099
773.600	-10.719	0.099
773.700	-10.112	0.099
773.800	-13.906	0.099
773.900	-27.426	0.099
774.000	-33.350	0.099
774.100	-20.135	0.099
774.200	-16.826	0.099
774.300	-26.645	0.099
774.400	-16.116	0.099
774.500	-19.888	0.099
774.600	-13.843	0.099
774.700	-2.108	0.099
774.800	-26.709	0.099
774.900	-16.850	0.099
775.000	-26.802	0.099
775.100	-13.557	0.099
775.200	-26.607	0.099
775.300	-19.126	0.099
775.400	-21.217	0.099
775.500	-31.092	0.099
775.600	-21.969	0.099
775.700	-9.326	0.099
775.800	-27.158	0.099
775.900	-13.824	0.099
776.000	-21.348	0.099
776.100	-14.662	0.099
776.200	-24.200	0.099
776.300	-32.934	0.099
776.400	-21.468	0.099
776.500	-27.656	0.099
776.600	-15.684	0.099
776.700	-29.809	0.099
776.800	-27.748	0.099
776.900	-13.586	0.099
777.000	-20.326	0.099
777.100	-16.599	0.099
777.200	-2.213	0.099
777.300	-13.839	0.099
777.400	-27.735	0.099
777.500	-22.583	0.099
777.600	-22.685	0.099
777.700	-14.960	0.099
777.800	-8.154	0.099
777.900	-10.756	0.099
778.000	-26.295	0.099
778.100	-22.467	0.099
778.200	-19.887	0.099
778.300	-13.334	0.099
778.400	-23.060	0.099
778.500	-26.138	0.099
778.600	-17.955	0.099
778.700	-19.809	0.099
778.800	-17.236	0.099
778.900	-15.380	0.099
779.000	-28.869	0.099
779.100	-26.713	0.099
779.200	-8.538	0.099
779.300	-13.565	0.099
779.400	-22.118	0.099
779.500	-19.935	0.099
779.600	-30.397	0.099
779.700	-19.675	0.099
779.800	-14.376	0.099
779.900	-21.702	0.099
780.000	-18.277	0.099
780.100	-0.388	0.099
780.200	-17.332	0.099
780.300	-30.256	0.099
780.400	-26.341	0.099
780.500	-12.745	0.099
780.600	-18.171	0.099
780.700	10.721	0.099
780.800	-1.196	0.099
780.900	4.895	0.099
781.000	4.779	0.099
781.100	1.066	0.099
781.200	6.364	0.099
781.300	12.229	0.099
781.400	34.708	0.099
781.500	25.574	0.099
781.600	27.988	0.099
781.700	9.642	0.099
781.800	31.538	0.099
781.900	39.525	0.099
782.000	29.642	0.099
782.100	26.406	0.099
782.200	32.521	0.099
782.300	32.924	0.099
782.400	31.250	0.099
782.500	30.387	0.099
782.600	35.122	0.099
782.700	33.156	0.099
782.800	39.768	0.099
782.900	37.871	0.099
783.000	44.715	0.099
783.100	22.422	0.099
783.200	45.446	0.099
783.300	40.237	0.099
783.400	37.427	0.099
783.500	46.387	0.099
783.600	42.048	0.099
783.700	40.550	0.099
783.800	37.334	0.099
783.900	50.378	0.099
784.000	32.569	0.099
784.100	46.829	0.099
784.200	55.095	0.099
784.300	37.146	0.099
784.400	40.136	0.099
784.500	33.044	0.099
784.600	45.502	0.099
784.700	38.371	0.099
784.800	39.713	0.099
784.900	34.306	0.099
785.000	35.246	0.099
785.100	50.348	0.099
785.200	34.660	0.099
785.300	36.446	0.099
785.400	40.746	0.099
785.500	43.601	0.099
785.600	32.778	0.099
785.700	29.791	0.099
785.800	26.841	0.099
785.900	33.809	0.099
786.000	15.868	0.099
786.100	25.243	0.099
786.200	23.513	0.099
786.300	28.620	0.099
786.400	30.168	0.099
786.500	26.141	0.099
786.600	30.005	0.099
786.700	29.686	0.099
786.800	12.999	0.099
786.900	29.594	0.099
787.000	20.736	0.100
787.100	29.399	0.100
787.200	31.545	0.100
787.300	23.561	0.100
787.400	29.238	0.100
787.500	28.384	0.100
787.600	36.615	0.100
787.700	36.131	0.100
787.800	7.515	0.100
787.900	20.878	0.100
788.000	24.392	0.100
788.100	39.976	0.100
788.200	38.243	0.100
788.300	28.143	0.100
788.400	38.945	0.100
788.500	39.678	0.100
788.600	35.739	0.100
788.700	28.721	0.100
788.800	17.365	0.100
788.900	43.898	0.100
789.000	30.522	0.100
789.100	40.509	0.100
789.200	30.542	0.100
789.300	23.916	0.100
789.400	23.545	0.100
789.500	26.314	0.100
789.600	38.946	0.100
789.700	22.488	0.100
789.800	30.472	0.100
789.900	33.366	0.100
790.000	34.762	0.100
790.100	31.900	0.100
790.200	20.311	0.100
790.300	41.116	0.100
790.400	32.804	0.100
790.500	35.994	0.100
790.600	24.386	0.100
790.700	34.198	0.100
790.800	23.250	0.100
790.900	40.762	0.100
791.000	29.772	0.100
791.100	36.327	0.100
791.200	42.240	0.100
791.300	36.288	0.100
791.400	41.361	0.100
791.500	36.076	0.100
791.600	34.969	0.100
791.700	29.461	0.100
791.800	39.007	0.100
791.900	38.778	0.100
792.000	38.299	0.100
792.100	42.620	0.100
792.200	42.821	0.100
792.300	40.444	0.100
792.400	42.059	0.100
792.500	40.652	0.100
792.600	38.886	0.100
792.700	26.833	0.100
792.800	37.460	0.100
792.900	34.947	0.100
793.000	40.707	0.100
793.100	42.990	0.100
793.200	24.490	0.100
793.300	37.768	0.100
793.400	39.960	0.100
793.500	38.778	0.100
793.600	34.060	0.100
793.700	26.420	0.100
793.800	39.849	0.100
793.900	35.740	0.100
794.000	37.857	0.100
794.100	48.131	0.100
794.200	45.062	0.100
794.300	42.591	0.100
794.400	31.847	0.100
794.500	36.384	0.100
794.600	41.686	0.100
794.700	26.647	0.100
794.800	48.853	0.100
794.900	49.032	0.100
795.000	43.779	0.100
795.100	42.348	0.100
795.200	27.436	0.100
795.300	44.735	0.100
795.400	44.734	0.100
795.500	41.659	0.100
795.600	26.605	0.100
795.700	46.264	0.100
795.800	42.349	0.100
795.900	52.043	0.100
796.000	43.794	0.100
796.100	43.037	0.100
796.200	42.047	0.100
796.300	42.700	0.100
796.400	41.738	0.100
796.500	49.305	0.100
796.600	52.092	0.100
796.700	51.313	0.100
796.800	45.527	0.100
796.900	43.800	0.100
797.000	53.659	0.100
797.100	47.329	0.100
797.200	43.863	0.100
797.300	49.690	0.100
797.400	39.513	0.100
797.500	44.296	0.100
797.600	53.986	0.100
797.700	44.131	0.100
797.800	43.639	0.100
797.900	51.646	0.100
798.000	49.141	0.100
798.100	50.653	0.100
798.200	47.561	0.100
798.300	48.033	0.100
798.400	59.671	0.100
798.500	59.065	0.100
798.600	55.602	0.100
798.700	53.304	0.100
798.800	47.360	0.100
798.900	40.531	0.100
799.000	41.649	0.100
799.100	59.195	0.100
799.200	56.955	0.100
799.300	52.735	0.100
799.400	38.706	0.100
799.500	40.947	0.100
799.600	51.298	0.100
799.700	44.127	0.100
799.800	51.496	0.100
799.900	56.193	0.100
800.000	61.146	0.100
