time /s	I /nA	E /V
0.100	21.853	0.100
0.200	40.959	0.100
0.300	41.166	0.100
0.400	11.386	0.100
0.500	35.257	0.100
0.600	17.852	0.100
0.700	48.250	0.100
0.800	46.077	0.100
0.900	20.598	0.100
1.000	31.136	0.100
1.100	24.628	0.100
1.200	46.504	0.100
1.300	41.281	0.100
1.400	27.938	0.100
1.500	15.721	0.100
1.600	37.870	0.100
1.700	45.803	0.100
1.800	29.566	0.100
1.900	41.434	0.100
2.000	28.537	0.100
2.100	28.897	0.100
2.200	41.119	0.100
2.300	28.487	0.100
2.400	20.416	0.100
2.500	37.367	0.100
2.600	39.345	0.100
2.700	40.471	0.100
2.800	46.288	0.100
2.900	33.423	0.100
3.000	45.910	0.100
3.100	26.704	0.100
3.200	21.509	0.100
3.300	24.222	0.100
3.400	39.754	0.100
3.500	33.629	0.100
3.600	27.069	0.100
3.700	42.347	0.100
3.800	31.966	0.100
3.900	26.780	0.100
4.000	29.533	0.100
4.100	30.734	0.100
4.200	48.531	0.100
4.300	48.334	0.100
4.400	35.633	0.100
4.500	21.215	0.100
4.600	37.037	0.100
4.700	20.549	0.100
4.800	46.471	0.100
4.900	29.342	0.100
5.000	37.274	0.100
5.100	31.349	0.100
5.200	38.453	0.100
5.300	38.512	0.100
5.400	38.339	0.100
5.500	28.593	0.100
5.600	36.813	0.100
5.700	42.919	0.100
5.800	26.139	0.100
5.900	27.586	0.100
6.000	35.946	0.100
6.100	20.787	0.100
6.200	18.701	0.100
6.300	44.165	0.100
6.400	52.867	0.100
6.500	28.392	0.100
6.600	30.532	0.100
6.700	34.362	0.100
6.800	37.700	0.100
6.900	35.895	0.100
7.000	37.125	0.100
7.100	31.143	0.100
7.200	27.636	0.100
7.300	44.795	0.100
7.400	26.266	0.100
7.500	30.333	0.100
7.600	28.507	0.100
7.700	41.367	0.100
7.800	30.257	0.100
7.900	19.354	0.100
8.000	28.384	0.100
8.100	43.378	0.100
8.200	25.242	0.100
8.300	23.824	0.100
8.400	28.635	0.100
8.500	38.055	0.100
8.600	18.865	0.100
8.700	22.239	0.100
8.800	39.693	0.100
8.900	32.746	0.100
9.000	37.532	0.100
9.100	18.367	0.100
9.200	35.466	0.100
9.300	40.538	0.100
9.400	26.834	0.100
9.500	31.240	0.100
9.600	30.319	0.100
9.700	33.218	0.100
9.800	30.830	0.100
9.900	18.322	0.100
10.000	39.838	0.100
10.100	38.044	0.100
10.200	43.136	0.100
10.300	21.983	0.100
10.400	32.823	0.100
10.500	20.761	0.100
10.600	17.632	0.100
10.700	32.485	0.100
10.800	36.875	0.100
10.900	38.542	0.100
11.000	22.819	0.100
11.100	34.254	0.100
11.200	32.719	0.100
11.300	23.194	0.100
11.400	48.912	0.100
11.500	33.149	0.100
11.600	31.900	0.100
11.700	7.370	0.100
11.800	30.509	0.100
11.900	41.939	0.100
12.000	29.985	0.100
12.100	29.615	0.100
12.200	36.920	0.100
12.300	35.677	0.100
12.400	35.084	0.100
12.500	25.478	0.100
12.600	44.392	0.100
12.700	34.787	0.100
12.800	32.766	0.100
12.900	19.673	0.100
13.000	22.543	0.100
13.100	40.525	0.100
13.200	30.676	0.100
13.300	33.349	0.100
13.400	30.153	0.100
13.500	31.860	0.100
13.600	22.436	0.100
13.700	32.204	0.100
13.800	36.973	0.100
13.900	30.635	0.100
14.000	39.849	0.100
14.100	44.793	0.100
14.200	30.288	0.100
14.300	50.930	0.100
14.400	26.131	0.100
14.500	35.789	0.100
14.600	43.638	0.100
14.700	18.327	0.100
14.800	25.582	0.100
14.900	24.854	0.100
15.000	25.994	0.100
15.100	15.447	0.100
15.200	28.378	0.100
15.300	32.096	0.100
15.400	41.966	0.100
15.500	41.861	0.100
15.600	21.230	0.100
15.700	38.252	0.100
15.800	23.310	0.100
15.900	33.387	0.100
16.000	39.885	0.100
16.100	26.954	0.100
16.200	31.066	0.100
16.300	36.481	0.100
16.400	18.508	0.100
16.500	32.671	0.100
16.600	25.419	0.100
16.700	27.898	0.100
16.800	26.023	0.100
16.900	39.007	0.100
17.000	37.342	0.100
17.100	35.424	0.100
17.200	34.651	0.100
17.300	28.326	0.100
17.400	34.959	0.100
17.500	29.160	0.100
17.600	25.809	0.100
17.700	28.201	0.100
17.800	17.999	0.100
17.900	36.576	0.100
18.000	26.884	0.100
18.100	61.120	0.100
18.200	10.794	0.100
18.300	13.263	0.100
18.400	22.179	0.100
18.500	41.055	0.100
18.600	37.990	0.100
18.700	39.524	0.100
18.800	42.828	0.100
18.900	29.848	0.100
19.000	8.959	0.100
19.100	21.844	0.100
19.200	46.779	0.100
19.300	34.113	0.100
19.400	33.558	0.100
19.500	60.065	0.100
19.600	8.833	0.100
19.700	22.020	0.100
19.800	33.409	0.100
19.900	34.807	0.100
20.000	39.652	0.100
20.100	24.295	0.100
20.200	32.117	0.100
20.300	33.684	0.100
20.400	39.959	0.100
20.500	34.633	0.100
20.600	18.615	0.100
20.700	38.788	0.100
20.800	22.210	0.100
20.900	35.253	0.100
21.000	32.676	0.100
21.100	33.212	0.100
21.200	40.220	0.100
21.300	36.737	0.100
21.400	48.252	0.100
21.500	39.429	0.100
21.600	32.060	0.100
21.700	27.106	0.100
21.800	9.180	0.100
21.900	31.096	0.100
22.000	25.187	0.100
22.100	45.356	0.100
22.200	32.474	0.100
22.300	31.104	0.100
22.400	34.712	0.100
22.500	25.198	0.100
22.600	35.570	0.100
22.700	25.520	0.100
22.800	14.513	0.100
22.900	31.789	0.100
23.000	40.209	0.100
23.100	36.429	0.100
23.200	26.684	0.100
23.300	20.170	0.100
23.400	33.736	0.100
23.500	22.253	0.100
23.600	29.659	0.100
23.700	25.341	0.100
23.800	22.703	0.100
23.900	32.377	0.100
24.000	24.945	0.100
24.100	51.981	0.100
24.200	26.648	0.100
24.300	36.508	0.100
24.400	37.302	0.100
24.500	33.779	0.100
24.600	24.207	0.100
24.700	42.216	0.100
24.800	27.529	0.100
24.900	30.004	0.100
25.000	41.879	0.100
25.100	24.653	0.100
25.200	24.730	0.100
25.300	25.454	0.100
25.400	16.124	0.100
25.500	32.208	0.100
25.600	38.548	0.100
25.700	44.767	0.100
25.800	24.252	0.100
25.900	51.963	0.100
26.000	33.923	0.100
26.100	21.560	0.100
26.200	35.833	0.100
26.300	23.272	0.100
26.400	20.587	0.100
26.500	25.462	0.100
26.600	30.922	0.100
26.700	34.206	0.100
26.800	37.807	0.100
26.900	37.213	0.100
27.000	38.929	0.100
27.100	30.038	0.100
27.200	8.802	0.100
27.300	20.751	0.100
27.400	24.004	0.100
27.500	40.160	0.100
27.600	21.808	0.100
27.700	22.683	0.100
27.800	58.819	0.100
27.900	35.680	0.100
28.000	15.989	0.100
28.100	30.481	0.100
28.200	21.123	0.100
28.300	25.614	0.100
28.400	26.568	0.100
28.500	46.212	0.100
28.600	22.933	0.100
28.700	23.522	0.100
28.800	21.960	0.100
28.900	24.238	0.100
29.000	18.556	0.100
29.100	31.701	0.100
29.200	44.364	0.100
29.300	29.185	0.100
29.400	26.400	0.100
29.500	39.831	0.100
29.600	28.440	0.100
29.700	14.079	0.100
29.800	24.822	0.100
29.900	46.864	0.100
30.000	39.820	0.100
30.100	27.146	0.100
30.200	34.532	0.100
30.300	39.513	0.100
30.400	30.108	0.100
30.500	37.288	0.100
30.600	13.056	0.100
30.700	37.082	0.100
30.800	38.208	0.100
30.900	42.889	0.100
31.000	42.784	0.100
31.100	42.924	0.100
31.200	39.059	0.100
31.300	40.929	0.100
31.400	46.458	0.100
31.500	43.370	0.100
31.600	48.422	0.100
31.700	53.992	0.100
31.800	41.613	0.100
31.900	54.676	0.100
32.000	48.174	0.100
32.100	45.497	0.100
32.200	47.810	0.100
32.300	37.311	0.100
32.400	38.412	0.100
32.500	59.054	0.100
32.600	47.237	0.100
32.700	57.980	0.100
32.800	59.358	0.100
32.900	56.696	0.100
33.000	63.112	0.100
33.100	46.899	0.100
33.200	67.383	0.100
33.300	56.851	0.100
33.400	63.483	0.100
33.500	67.502	0.100
33.600	58.593	0.100
33.700	52.006	0.100
33.800	43.860	0.100
33.900	48.575	0.100
34.000	61.385	0.100
34.100	61.997	0.100
34.200	60.660	0.100
34.300	46.231	0.100
34.400	56.367	0.100
34.500	72.300	0.100
34.600	44.664	0.100
34.700	68.086	0.100
34.800	74.162	0.100
34.900	70.749	0.100
35.000	74.362	0.100
35.100	56.326	0.100
35.200	51.260	0.100
35.300	47.890	0.100
35.400	66.340	0.100
35.500	64.639	0.100
35.600	68.843	0.100
35.700	63.968	0.100
35.800	63.724	0.100
35.900	71.158	0.100
36.000	62.380	0.100
36.100	74.158	0.100
36.200	57.790	0.100
36.300	64.543	0.100
36.400	46.152	0.100
36.500	46.042	0.100
36.600	58.075	0.100
36.700	74.088	0.100
36.800	59.776	0.100
36.900	74.987	0.100
37.000	67.876	0.100
37.100	54.937	0.100
37.200	58.679	0.100
37.300	70.397	0.100
37.400	60.058	0.100
37.500	67.092	0.100
37.600	59.443	0.100
37.700	61.340	0.100
37.800	75.395	0.100
37.900	52.669	0.100
38.000	51.392	0.100
38.100	72.808	0.100
38.200	68.553	0.100
38.300	69.525	0.100
38.400	61.461	0.100
38.500	76.639	0.100
38.600	57.074	0.100
38.700	64.328	0.100
38.800	76.082	0.100
38.900	80.961	0.100
39.000	58.336	0.100
39.100	83.006	0.100
39.200	57.686	0.100
39.300	54.595	0.100
39.400	60.631	0.100
39.500	55.257	0.100
39.600	55.662	0.100
39.700	61.200	0.100
39.800	74.913	0.100
39.900	72.824	0.100
40.000	80.960	0.100
40.100	65.611	0.100
40.200	63.343	0.100
40.300	55.788	0.100
40.400	68.264	0.100
40.500	70.185	0.100
40.600	60.273	0.100
40.700	63.252	0.100
40.800	59.049	0.100
40.900	59.134	0.100
41.000	74.120	0.100
41.100	61.971	0.100
41.200	65.875	0.100
41.300	57.236	0.100
41.400	46.239	0.100
41.500	72.198	0.100
41.600	71.610	0.100
41.700	59.720	0.100
41.800	69.891	0.100
41.900	72.647	0.100
42.000	66.972	0.100
42.100	51.004	0.100
42.200	68.594	0.100
42.300	65.784	0.100
42.400	76.041	0.100
42.500	73.541	0.100
42.600	62.064	0.100
42.700	62.891	0.100
42.800	53.205	0.100
42.900	72.608	0.100
43.000	64.044	0.100
43.100	65.798	0.100
43.200	31.725	0.100
43.300	57.821	0.100
43.400	51.124	0.100
43.500	60.215	0.100
43.600	67.215	0.100
43.700	65.741	0.100
43.800	69.771	0.100
43.900	59.184	0.100
44.000	76.492	0.100
44.100	61.252	0.100
44.200	73.894	0.100
44.300	70.466	0.100
44.400	65.678	0.100
44.500	69.774	0.100
44.600	51.661	0.100
44.700	64.801	0.100
44.800	59.627	0.100
44.900	71.191	0.100
45.000	62.649	0.100
45.100	50.182	0.100
45.200	70.994	0.100
45.300	56.797	0.100
45.400	73.330	0.100
45.500	66.483	0.100
45.600	60.219	0.100
45.700	60.247	0.100
45.800	68.920	0.100
45.900	65.941	0.100
46.000	70.972	0.100
46.100	67.684	0.100
46.200	57.124	0.100
46.300	73.573	0.100
46.400	57.393	0.100
46.500	52.653	0.100
46.600	78.571	0.100
46.700	60.808	0.100
46.800	55.518	0.100
46.900	67.429	0.100
47.000	62.543	0.100
47.100	70.831	0.100
47.200	66.793	0.100
47.300	56.117	0.100
47.400	61.293	0.100
47.500	61.458	0.100
47.600	51.182	0.100
47.700	70.071	0.100
47.800	65.856	0.100
47.900	65.064	0.100
48.000	53.063	0.100
48.100	65.049	0.100
48.200	74.145	0.100
48.300	67.608	0.100
48.400	56.436	0.100
48.500	74.806	0.100
48.600	76.471	0.100
48.700	71.836	0.100
48.800	62.735	0.100
48.900	75.869	0.100
49.000	67.178	0.100
49.100	58.158	0.100
49.200	65.229	0.100
49.300	60.974	0.100
49.400	71.477	0.100
49.500	64.244	0.100
49.600	55.335	0.100
49.700	53.389	0.100
49.800	57.820	0.100
49.900	60.741	0.100
50.000	71.543	0.100
50.100	87.505	0.100
50.200	64.373	0.100
50.300	50.018	0.100
50.400	69.930	0.100
50.500	53.375	0.100
50.600	55.143	0.100
50.700	62.551	0.100
50.800	57.356	0.100
50.900	58.696	0.100
51.000	42.638	0.100
51.100	67.354	0.100
51.200	64.389	0.100
51.300	71.813	0.100
51.400	67.160	0.100
51.500	59.338	0.100
51.600	53.515	0.100
51.700	66.426	0.100
51.800	43.871	0.100
51.900	68.591	0.100
52.000	79.628	0.100
52.100	56.467	0.100
52.200	61.587	0.100
52.300	52.616	0.100
52.400	59.251	0.100
52.500	51.471	0.100
52.600	62.369	0.100
52.700	68.938	0.100
52.800	61.538	0.100
52.900	61.898	0.100
53.000	66.367	0.100
53.100	56.546	0.100
53.200	55.778	0.100
53.300	58.493	0.100
53.400	68.436	0.100
53.500	58.517	0.100
53.600	61.416	0.100
53.700	60.465	0.100
53.800	70.837	0.100
53.900	62.856	0.100
54.000	65.786	0.100
54.100	67.827	0.100
54.200	70.938	0.100
54.300	71.628	0.100
54.400	60.264	0.100
54.500	60.984	0.100
54.600	49.774	0.100
54.700	65.175	0.100
54.800	58.129	0.100
54.900	77.248	0.100
55.000	78.095	0.100
55.100	67.432	0.100
55.200	61.076	0.100
55.300	63.467	0.100
55.400	63.089	0.100
55.500	63.878	0.100
55.600	69.614	0.100
55.700	61.513	0.100
55.800	77.483	0.100
55.900	69.741	0.100
56.000	58.349	0.100
56.100	59.770	0.100
56.200	67.869	0.100
56.300	62.512	0.100
56.400	50.208	0.100
56.500	54.512	0.100
56.600	73.981	0.100
56.700	60.810	0.100
56.800	67.800	0.100
56.900	67.759	0.100
57.000	61.457	0.100
57.100	65.884	0.100
57.200	64.582	0.100
57.300	69.249	0.100
57.400	70.556	0.100
57.500	57.658	0.100
57.600	70.100	0.100
57.700	68.919	0.100
57.800	62.654	0.100
57.900	57.080	0.100
58.000	66.776	0.100
58.100	56.340	0.100
58.200	48.344	0.100
58.300	62.008	0.100
58.400	78.868	0.100
58.500	67.717	0.100
58.600	57.110	0.100
58.700	72.442	0.100
58.800	55.423	0.100
58.900	61.385	0.100
59.000	64.499	0.100
59.100	56.333	0.100
59.200	73.272	0.100
59.300	65.814	0.100
59.400	73.875	0.100
59.500	50.700	0.100
59.600	57.163	0.100
59.700	68.737	0.100
59.800	63.276	0.100
59.900	59.128	0.100
60.000	83.681	0.100
60.100	82.325	0.100
60.200	58.615	0.100
60.300	82.132	0.100
60.400	68.164	0.100
60.500	68.243	0.100
60.600	71.294	0.100
60.700	65.965	0.100
60.800	57.386	0.100
60.900	40.810	0.100
61.000	72.079	0.100
61.100	72.997	0.100
61.200	78.694	0.100
61.300	62.861	0.100
61.400	59.505	0.100
61.500	86.147	0.100
61.600	72.017	0.100
61.700	94.445	0.100
61.800	81.027	0.100
61.900	71.205	0.100
62.000	64.170	0.100
62.100	71.014	0.100
62.200	69.500	0.100
62.300	77.384	0.100
62.400	61.032	0.100
62.500	66.872	0.100
62.600	41.327	0.100
62.700	46.712	0.100
62.800	59.614	0.100
62.900	73.941	0.100
63.000	67.598	0.100
63.100	71.729	0.100
63.200	55.505	0.100
63.300	64.533	0.100
63.400	60.589	0.100
63.500	62.151	0.100
63.600	71.468	0.100
63.700	63.518	0.100
63.800	63.841	0.100
63.900	62.468	0.100
64.000	61.841	0.100
64.100	71.827	0.100
64.200	67.496	0.100
64.300	68.494	0.100
64.400	73.132	0.100
64.500	57.906	0.100
64.600	72.319	0.100
64.700	82.523	0.100
64.800	73.999	0.100
64.900	76.082	0.100
65.000	53.603	0.100
65.100	77.295	0.100
65.200	53.824	0.100
65.300	71.497	0.100
65.400	76.099	0.100
65.500	58.719	0.100
65.600	72.898	0.100
65.700	67.449	0.100
65.800	64.997	0.100
65.900	70.267	0.100
66.000	70.296	0.100
66.100	68.567	0.100
66.200	65.518	0.100
66.300	58.155	0.100
66.400	92.338	0.100
66.500	56.799	0.100
66.600	65.616	0.100
66.700	48.079	0.100
66.800	68.711	0.100
66.900	53.829	0.100
67.000	81.758	0.100
67.100	81.989	0.100
67.200	56.921	0.100
67.300	88.925	0.100
67.400	53.250	0.100
67.500	47.100	0.100
67.600	78.784	0.100
67.700	67.288	0.100
67.800	72.199	0.100
67.900	72.360	0.100
68.000	74.019	0.100
68.100	67.641	0.100
68.200	69.300	0.100
68.300	66.659	0.100
68.400	93.054	0.100
68.500	74.132	0.100
68.600	48.126	0.100
68.700	56.044	0.100
68.800	62.691	0.100
68.900	49.852	0.100
69.000	53.891	0.100
69.100	91.360	0.100
69.200	87.786	0.100
69.300	68.374	0.100
69.400	69.820	0.100
69.500	58.289	0.100
69.600	60.533	0.100
69.700	67.149	0.100
69.800	59.918	0.100
69.900	85.537	0.100
70.000	81.996	0.100
70.100	66.813	0.100
70.200	75.687	0.100
70.300	73.524	0.100
70.400	68.447	0.100
70.500	78.900	0.100
70.600	78.037	0.100
70.700	67.977	0.100
70.800	79.852	0.100
70.900	78.352	0.100
71.000	54.850	0.100
71.100	81.583	0.100
71.200	54.213	0.100
71.300	69.156	0.100
71.400	74.037	0.100
71.500	77.166	0.100
71.600	72.637	0.100
71.700	60.017	0.100
71.800	56.180	0.100
71.900	60.267	0.100
72.000	69.426	0.100
72.100	78.806	0.100
72.200	58.883	0.100
72.300	76.274	0.100
72.400	77.918	0.100
72.500	77.884	0.100
72.600	73.589	0.100
72.700	62.007	0.100
72.800	72.409	0.100
72.900	82.859	0.100
73.000	68.941	0.100
73.100	60.541	0.100
73.200	70.031	0.100
73.300	74.793	0.100
73.400	78.885	0.100
73.500	63.472	0.100
73.600	76.478	0.100
73.700	70.017	0.100
73.800	57.637	0.100
73.900	68.934	0.100
74.000	70.786	0.100
74.100	74.165	0.100
74.200	68.553	0.100
74.300	54.152	0.100
74.400	53.671	0.100
74.500	87.310	0.100
74.600	92.703	0.100
74.700	81.152	0.100
74.800	76.491	0.100
74.900	70.552	0.100
75.000	65.101	0.100
75.100	72.668	0.100
75.200	65.707	0.100
75.300	81.630	0.100
75.400	68.298	0.100
75.500	73.994	0.100
75.600	65.057	0.100
75.700	66.881	0.100
75.800	73.598	0.100
75.900	80.332	0.100
76.000	85.526	0.100
76.100	74.235	0.100
76.200	71.832	0.100
76.300	71.962	0.100
76.400	65.811	0.100
76.500	72.837	0.100
76.600	64.782	0.100
76.700	83.065	0.100
76.800	71.129	0.100
76.900	64.472	0.100
77.000	76.824	0.100
77.100	82.256	0.100
77.200	78.431	0.100
77.300	83.243	0.100
77.400	60.839	0.100
77.500	74.573	0.100
77.600	67.641	0.100
77.700	89.044	0.100
77.800	74.973	0.100
77.900	73.268	0.100
78.000	57.352	0.100
78.100	68.286	0.100
78.200	70.325	0.100
78.300	70.404	0.100
78.400	83.162	0.100
78.500	72.351	0.100
78.600	81.296	0.100
78.700	82.189	0.100
78.800	57.219	0.100
78.900	75.749	0.100
79.000	66.117	0.100
79.100	81.511	0.100
79.200	62.822	0.100
79.300	80.020	0.100
79.400	63.395	0.100
79.500	67.889	0.100
79.600	71.151	0.100
79.700	82.738	0.100
79.800	79.427	0.100
79.900	63.447	0.100
80.000	62.220	0.100
80.100	81.018	0.100
80.200	77.452	0.100
80.300	70.981	0.100
80.400	85.033	0.100
80.500	73.913	0.100
80.600	64.322	0.100
80.700	94.114	0.100
80.800	77.148	0.100
80.900	82.679	0.100
81.000	73.724	0.100
81.100	58.554	0.100
81.200	62.573	0.100
81.300	64.897	0.100
81.400	90.184	0.100
81.500	83.041	0.100
81.600	66.965	0.100
81.700	77.590	0.100
81.800	80.157	0.100
81.900	73.937	0.100
82.000	81.415	0.100
82.100	70.786	0.100
82.200	56.965	0.100
82.300	77.518	0.100
82.400	96.295	0.100
82.500	87.929	0.100
82.600	71.203	0.100
82.700	81.446	0.100
82.800	83.353	0.100
82.900	59.688	0.100
83.000	74.426	0.100
83.100	69.557	0.100
83.200	71.247	0.100
83.300	69.900	0.100
83.400	71.961	0.100
83.500	67.841	0.100
83.600	75.013	0.100
83.700	67.689	0.100
83.800	80.822	0.100
83.900	54.254	0.100
84.000	77.365	0.100
84.100	86.320	0.100
84.200	62.418	0.100
84.300	79.996	0.100
84.400	84.443	0.100
84.500	93.268	0.100
84.600	70.258	0.100
84.700	70.794	0.100
84.800	73.873	0.100
84.900	79.541	0.100
85.000	77.037	0.100
85.100	83.339	0.100
85.200	88.809	0.100
85.300	69.782	0.100
85.400	74.512	0.100
85.500	82.890	0.100
85.600	61.399	0.100
85.700	82.602	0.100
85.800	70.191	0.100
85.900	82.786	0.100
86.000	82.006	0.100
86.100	68.585	0.100
86.200	84.757	0.100
86.300	76.720	0.100
86.400	78.390	0.100
86.500	70.878	0.100
86.600	85.139	0.100
86.700	63.081	0.100
86.800	73.254	0.100
86.900	89.440	0.100
87.000	88.432	0.100
87.100	73.979	0.100
87.200	57.414	0.100
87.300	83.728	0.100
87.400	75.374	0.100
87.500	66.008	0.100
87.600	78.584	0.100
87.700	81.637	0.100
87.800	85.752	0.100
87.900	86.251	0.100
88.000	66.418	0.100
88.100	89.613	0.100
88.200	84.364	0.100
88.300	77.999	0.100
88.400	84.741	0.100
88.500	78.422	0.100
88.600	74.326	0.100
88.700	65.125	0.100
88.800	77.010	0.100
88.900	77.051	0.100
89.000	79.068	0.100
89.100	81.625	0.100
89.200	85.991	0.100
89.300	80.366	0.100
89.400	82.890	0.100
89.500	86.154	0.100
89.600	74.037	0.100
89.700	50.079	0.100
89.800	78.920	0.100
89.900	85.641	0.100
90.000	71.424	0.100
90.100	76.080	0.100
90.200	77.818	0.100
90.300	79.830	0.100
90.400	77.769	0.100
90.500	75.047	0.100
90.600	75.478	0.100
90.700	72.766	0.100
90.800	67.076	0.100
90.900	62.951	0.100
91.000	67.985	0.100
91.100	77.170	0.100
91.200	80.670	0.100
91.300	72.323	0.100
91.400	81.384	0.100
91.500	67.929	0.100
91.600	68.926	0.100
91.700	61.023	0.100
91.800	76.107	0.100
91.900	62.615	0.100
92.000	46.719	0.100
92.100	69.948	0.100
92.200	62.742	0.100
92.300	71.073	0.100
92.400	50.289	0.100
92.500	65.635	0.100
92.600	49.147	0.100
92.700	71.631	0.100
92.800	66.604	0.100
92.900	57.310	0.100
93.000	54.258	0.100
93.100	58.423	0.100
93.200	64.395	0.100
93.300	54.387	0.100
93.400	72.417	0.100
93.500	55.931	0.100
93.600	48.845	0.100
93.700	61.436	0.100
93.800	49.572	0.100
93.900	65.373	0.100
94.000	53.455	0.100
94.100	47.106	0.100
94.200	46.058	0.100
94.300	59.322	0.100
94.400	43.230	0.100
94.500	55.581	0.100
94.600	54.777	0.100
94.700	53.869	0.100
94.800	38.994	0.100
94.900	56.980	0.100
95.000	59.529	0.100
95.100	54.004	0.100
95.200	29.338	0.100
95.300	56.683	0.100
95.400	58.516	0.100
95.500	44.451	0.100
95.600	49.850	0.100
95.700	44.996	0.100
95.800	67.675	0.100
95.900	41.816	0.100
96.000	45.592	0.100
96.100	40.000	0.100
96.200	49.253	0.100
96.300	36.934	0.100
96.400	56.050	0.100
96.500	47.199	0.100
96.600	46.352	0.100
96.700	33.749	0.100
96.800	41.042	0.100
96.900	41.101	0.100
97.000	47.715	0.100
97.100	44.668	0.100
97.200	31.315	0.100
97.300	37.729	0.100
97.400	37.387	0.100
97.500	56.399	0.100
97.600	40.929	0.100
97.700	60.917	0.100
97.800	50.986	0.100
97.900	48.981	0.100
98.000	34.188	0.100
98.100	32.631	0.100
98.200	38.325	0.100
98.300	47.080	0.100
98.400	55.053	0.100
98.500	35.610	0.100
98.600	28.460	0.100
98.700	33.980	0.100
98.800	46.320	0.100
98.900	43.596	0.100
99.000	37.634	0.100
99.100	26.212	0.100
99.200	21.388	0.100
99.300	33.209	0.100
99.400	34.105	0.100
99.500	49.547	0.100
99.600	36.609	0.100
99.700	41.556	0.100
99.800	37.307	0.100
99.900	17.967	0.100
100.000	34.402	0.100
100.100	61.025	0.100
100.200	46.863	0.100
100.300	26.467	0.100
100.400	34.473	0.100
100.500	33.617	0.100
100.600	46.743	0.100
100.700	32.027	0.100
100.800	29.338	0.100
100.900	36.066	0.100
101.000	35.187	0.100
101.100	54.856	0.100
101.200	36.154	0.100
101.300	40.157	0.100
101.400	25.699	0.100
101.500	32.111	0.100
101.600	25.292	0.100
101.700	33.616	0.100
101.800	28.416	0.100
101.900	43.742	0.100
102.000	40.459	0.100
102.100	40.107	0.100
102.200	29.377	0.100
102.300	37.676	0.100
102.400	37.783	0.100
102.500	23.362	0.100
102.600	40.783	0.100
102.700	30.542	0.100
102.800	32.456	0.100
102.900	37.673	0.100
103.000	46.829	0.100
103.100	24.292	0.100
103.200	29.406	0.100
103.300	40.360	0.100
103.400	31.392	0.100
103.500	31.854	0.100
103.600	28.152	0.100
103.700	30.895	0.100
103.800	23.776	0.100
103.900	28.902	0.100
104.000	35.883	0.100
104.100	41.063	0.100
104.200	35.114	0.100
104.300	24.697	0.100
104.400	35.936	0.100
104.500	29.121	0.100
104.600	47.352	0.100
104.700	29.018	0.100
104.800	28.883	0.100
104.900	25.257	0.100
105.000	50.185	0.100
105.100	38.793	0.100
105.200	33.393	0.100
105.300	42.085	0.100
105.400	17.350	0.100
105.500	33.581	0.100
105.600	44.123	0.100
105.700	40.143	0.100
105.800	31.158	0.100
105.900	22.877	0.100
106.000	27.751	0.100
106.100	21.306	0.100
106.200	29.172	0.100
106.300	49.424	0.100
106.400	29.567	0.100
106.500	31.579	0.100
106.600	20.489	0.100
106.700	17.729	0.100
106.800	41.395	0.100
106.900	35.212	0.100
107.000	40.635	0.100
107.100	37.192	0.100
107.200	37.118	0.100
107.300	24.302	0.100
107.400	19.754	0.100
107.500	28.850	0.100
107.600	33.530	0.100
107.700	26.379	0.100
107.800	30.238	0.100
107.900	23.669	0.100
108.000	38.033	0.100
108.100	37.114	0.100
108.200	34.430	0.100
108.300	40.253	0.100
108.400	21.326	0.100
108.500	35.271	0.100
108.600	55.636	0.100
108.700	23.003	0.100
108.800	37.023	0.100
108.900	34.309	0.100
109.000	25.908	0.100
109.100	28.748	0.100
109.200	37.679	0.100
109.300	24.165	0.100
109.400	31.915	0.100
109.500	26.855	0.100
109.600	47.781	0.100
109.700	32.198	0.100
109.800	41.255	0.100
109.900	19.225	0.100
110.000	38.813	0.100
110.100	31.485	0.100
110.200	33.026	0.100
110.300	34.951	0.100
110.400	26.957	0.100
110.500	24.365	0.100
110.600	25.238	0.100
110.700	26.166	0.100
110.800	36.755	0.100
110.900	42.075	0.100
111.000	22.448	0.100
111.100	17.257	0.100
111.200	28.196	0.100
111.300	51.826	0.100
111.400	24.518	0.100
111.500	26.893	0.100
111.600	36.979	0.100
111.700	28.658	0.100
111.800	27.992	0.100
111.900	38.041	0.100
112.000	14.037	0.100
112.100	19.570	0.100
112.200	24.138	0.100
112.300	34.897	0.100
112.400	37.212	0.100
112.500	35.740	0.100
112.600	33.978	0.100
112.700	21.600	0.100
112.800	30.546	0.100
112.900	35.388	0.100
113.000	21.193	0.100
113.100	26.063	0.100
113.200	32.777	0.100
113.300	33.795	0.100
113.400	19.829	0.100
113.500	31.125	0.100
113.600	27.947	0.100
113.700	31.492	0.100
113.800	32.823	0.100
113.900	32.961	0.100
114.000	34.642	0.100
114.100	24.644	0.100
114.200	31.531	0.100
114.300	35.437	0.100
114.400	30.817	0.100
114.500	17.560	0.100
114.600	21.718	0.100
114.700	30.159	0.100
114.800	18.894	0.100
114.900	19.691	0.100
115.000	34.807	0.100
115.100	29.522	0.100
115.200	26.314	0.100
115.300	33.662	0.100
115.400	14.527	0.100
115.500	20.755	0.100
115.600	32.212	0.100
115.700	21.033	0.100
115.800	19.974	0.100
115.900	45.829	0.100
116.000	21.764	0.100
116.100	27.067	0.100
116.200	42.877	0.100
116.300	37.608	0.100
116.400	26.412	0.100
116.500	38.669	0.100
116.600	19.915	0.100
116.700	16.138	0.100
116.800	34.602	0.100
116.900	26.697	0.100
117.000	34.239	0.100
117.100	19.789	0.100
117.200	35.746	0.100
117.300	39.873	0.100
117.400	21.482	0.100
117.500	24.460	0.100
117.600	27.932	0.100
117.700	29.694	0.100
117.800	36.639	0.100
117.900	23.385	0.100
118.000	30.238	0.100
118.100	32.391	0.100
118.200	25.827	0.100
118.300	19.476	0.100
118.400	31.180	0.100
118.500	27.680	0.100
118.600	27.345	0.100
118.700	24.262	0.100
118.800	23.601	0.100
118.900	15.579	0.100
119.000	9.857	0.100
119.100	8.727	0.100
119.200	21.696	0.100
119.300	31.166	0.100
119.400	31.339	0.100
119.500	33.967	0.100
119.600	30.483	0.100
119.700	14.903	0.100
119.800	33.956	0.100
119.900	30.450	0.100
120.000	40.203	0.100
120.100	42.466	0.100
120.200	18.039	0.100
120.300	27.539	0.100
120.400	31.232	0.100
120.500	10.431	0.100
120.600	22.908	0.100
120.700	32.824	0.100
120.800	24.614	0.100
120.900	26.990	0.100
121.000	22.318	0.100
121.100	21.549	0.100
121.200	14.066	0.100
121.300	35.485	0.100
121.400	35.265	0.100
121.500	31.283	0.100
121.600	38.703	0.100
121.700	21.824	0.100
121.800	28.135	0.100
121.900	30.992	0.100
122.000	23.072	0.100
122.100	21.825	0.100
122.200	16.657	0.100
122.300	4.688	0.100
122.400	38.125	0.100
122.500	26.574	0.100
122.600	35.877	0.100
122.700	27.289	0.100
122.800	30.981	0.100
122.900	29.782	0.100
123.000	34.484	0.100
123.100	17.857	0.100
123.200	26.834	0.100
123.300	21.172	0.100
123.400	26.772	0.100
123.500	23.890	0.100
123.600	22.599	0.100
123.700	29.102	0.100
123.800	17.108	0.100
123.900	14.380	0.100
124.000	36.652	0.100
124.100	33.168	0.100
124.200	36.742	0.100
124.300	34.390	0.100
124.400	35.986	0.100
124.500	22.669	0.100
124.600	11.988	0.100
124.700	27.948	0.100
124.800	21.093	0.100
124.900	37.046	0.100
125.000	21.882	0.100
125.100	30.354	0.100
125.200	17.333	0.100
125.300	25.798	0.100
125.400	28.458	0.100
125.500	36.258	0.100
125.600	31.190	0.100
125.700	33.154	0.100
125.800	25.534	0.100
125.900	22.976	0.100
126.000	1.580	0.100
126.100	23.935	0.100
126.200	35.717	0.100
126.300	28.782	0.100
126.400	35.437	0.100
126.500	24.675	0.100
126.600	17.285	0.100
126.700	9.102	0.100
126.800	24.839	0.100
126.900	34.277	0.100
127.000	8.042	0.100
127.100	25.963	0.100
127.200	9.686	0.100
127.300	24.783	0.100
127.400	39.511	0.100
127.500	18.004	0.100
127.600	16.350	0.100
127.700	18.138	0.100
127.800	22.954	0.100
127.900	37.527	0.100
128.000	18.913	0.100
128.100	30.228	0.100
128.200	15.631	0.100
128.300	27.195	0.100
128.400	24.523	0.100
128.500	33.303	0.100
128.600	33.555	0.100
128.700	20.261	0.100
128.800	23.625	0.100
128.900	23.254	0.100
129.000	25.935	0.100
129.100	22.115	0.100
129.200	16.752	0.100
129.300	18.865	0.100
129.400	34.461	0.100
129.500	12.039	0.100
129.600	32.281	0.100
129.700	23.849	0.100
129.800	21.797	0.100
129.900	20.213	0.100
130.000	15.229	0.100
130.100	25.411	0.100
130.200	11.349	0.100
130.300	28.006	0.100
130.400	28.539	0.100
130.500	20.221	0.100
130.600	25.809	0.100
130.700	35.166	0.100
130.800	25.035	0.100
130.900	24.185	0.100
131.000	21.614	0.100
131.100	16.570	0.100
131.200	18.239	0.100
131.300	24.694	0.100
131.400	17.964	0.100
131.500	8.053	0.100
131.600	11.767	0.100
131.700	21.738	0.100
131.800	47.238	0.100
131.900	27.024	0.100
132.000	17.383	0.100
132.100	15.452	0.100
132.200	29.611	0.100
132.300	9.544	0.100
132.400	23.499	0.100
132.500	37.730	0.100
132.600	33.109	0.100
132.700	29.933	0.100
132.800	11.289	0.100
132.900	15.020	0.100
133.000	24.137	0.100
133.100	34.676	0.100
133.200	15.278	0.100
133.300	17.998	0.100
133.400	11.370	0.100
133.500	26.229	0.100
133.600	18.166	0.100
133.700	22.396	0.100
133.800	23.605	0.100
133.900	9.369	0.100
134.000	30.747	0.100
134.100	9.229	0.100
134.200	22.021	0.100
134.300	19.691	0.100
134.400	30.535	0.100
134.500	33.283	0.100
134.600	22.539	0.100
134.700	19.000	0.100
134.800	21.286	0.100
134.900	23.485	0.100
135.000	21.262	0.100
135.100	2.859	0.100
135.200	20.129	0.100
135.300	32.158	0.100
135.400	15.704	0.100
135.500	24.144	0.100
135.600	27.086	0.100
135.700	25.910	0.100
135.800	18.492	0.100
135.900	23.749	0.100
136.000	20.851	0.100
136.100	22.040	0.100
136.200	42.594	0.100
136.300	23.188	0.100
136.400	34.520	0.100
136.500	18.790	0.100
136.600	14.210	0.100
136.700	35.372	0.100
136.800	22.094	0.100
136.900	28.988	0.100
137.000	16.540	0.100
137.100	1.960	0.100
137.200	24.545	0.100
137.300	8.707	0.100
137.400	16.483	0.100
137.500	23.283	0.100
137.600	17.254	0.100
137.700	25.633	0.100
137.800	24.201	0.100
137.900	27.890	0.100
138.000	21.734	0.100
138.100	27.497	0.100
138.200	16.828	0.100
138.300	12.351	0.100
138.400	22.364	0.100
138.500	28.213	0.100
138.600	17.423	0.100
138.700	15.714	0.100
138.800	21.633	0.100
138.900	20.635	0.100
139.000	36.227	0.100
139.100	23.954	0.100
139.200	22.801	0.100
139.300	18.413	0.100
139.400	29.731	0.100
139.500	31.566	0.100
139.600	19.098	0.100
139.700	23.257	0.100
139.800	19.993	0.100
139.900	27.222	0.100
140.000	4.811	0.100
140.100	22.738	0.100
140.200	-8.539	0.100
140.300	14.568	0.100
140.400	30.387	0.100
140.500	31.854	0.100
140.600	30.171	0.100
140.700	20.033	0.100
140.800	2.732	0.100
140.900	24.474	0.100
141.000	28.182	0.100
141.100	20.979	0.100
141.200	22.318	0.100
141.300	20.189	0.100
141.400	23.204	0.100
141.500	6.360	0.100
141.600	18.833	0.100
141.700	9.531	0.100
141.800	20.718	0.100
141.900	28.034	0.100
142.000	9.282	0.100
142.100	12.138	0.100
142.200	18.317	0.100
142.300	24.610	0.100
142.400	21.127	0.100
142.500	25.655	0.100
142.600	15.639	0.100
142.700	18.064	0.100
142.800	20.594	0.100
142.900	19.531	0.100
143.000	24.267	0.100
143.100	20.754	0.100
143.200	15.865	0.100
143.300	15.993	0.100
143.400	16.532	0.100
143.500	18.434	0.100
143.600	19.937	0.100
143.700	18.941	0.100
143.800	22.300	0.100
143.900	18.565	0.100
144.000	28.897	0.100
144.100	18.190	0.100
144.200	11.966	0.100
144.300	19.357	0.100
144.400	22.064	0.100
144.500	14.899	0.100
144.600	22.799	0.100
144.700	36.024	0.100
144.800	20.102	0.100
144.900	18.836	0.100
145.000	9.601	0.100
145.100	22.878	0.100
145.200	15.392	0.100
145.300	22.513	0.100
145.400	8.310	0.100
145.500	32.073	0.100
145.600	19.513	0.100
145.700	22.136	0.100
145.800	16.878	0.100
145.900	23.394	0.100
146.000	12.863	0.100
146.100	8.658	0.100
146.200	22.929	0.100
146.300	10.878	0.100
146.400	30.044	0.100
146.500	24.386	0.100
146.600	23.057	0.100
146.700	13.449	0.100
146.800	25.048	0.100
146.900	15.791	0.100
147.000	9.126	0.100
147.100	16.589	0.100
147.200	19.533	0.100
147.300	21.627	0.100
147.400	12.953	0.100
147.500	19.105	0.100
147.600	8.370	0.100
147.700	5.971	0.100
147.800	10.060	0.100
147.900	32.708	0.100
148.000	16.292	0.100
148.100	8.803	0.100
148.200	22.556	0.100
148.300	14.722	0.100
148.400	11.887	0.100
148.500	16.019	0.100
148.600	11.166	0.100
148.700	16.082	0.100
148.800	20.151	0.100
148.900	10.942	0.100
149.000	13.082	0.100
149.100	5.963	0.100
149.200	33.450	0.100
149.300	2.843	0.100
149.400	19.312	0.100
149.500	18.586	0.100
149.600	12.303	0.100
149.700	30.052	0.100
149.800	17.654	0.100
149.900	24.425	0.100
150.000	9.002	0.100
150.100	11.874	0.100
150.200	11.383	0.100
150.300	21.261	0.100
150.400	17.763	0.100
150.500	26.390	0.100
150.600	15.081	0.100
150.700	34.534	0.100
150.800	24.171	0.100
150.900	6.041	0.100
151.000	16.166	0.100
151.100	18.686	0.100
151.200	21.487	0.100
151.300	18.293	0.100
151.400	6.818	0.100
151.500	19.260	0.100
151.600	16.167	0.100
151.700	29.278	0.100
151.800	25.438	0.100
151.900	15.125	0.100
152.000	10.884	0.100
152.100	10.899	0.100
152.200	3.481	0.100
152.300	23.464	0.100
152.400	10.111	0.100
152.500	12.345	0.100
152.600	3.887	0.100
152.700	14.997	0.100
152.800	12.664	0.100
152.900	-3.534	0.100
153.000	33.979	0.100
153.100	22.896	0.100
153.200	34.011	0.100
153.300	24.724	0.100
153.400	2.472	0.100
153.500	9.997	0.100
153.600	19.227	0.100
153.700	14.852	0.100
153.800	27.139	0.100
153.900	-0.775	0.100
154.000	6.873	0.100
154.100	20.271	0.100
154.200	27.060	0.100
154.300	19.650	0.100
154.400	20.554	0.100
154.500	11.788	0.100
154.600	35.418	0.100
154.700	38.184	0.100
154.800	11.379	0.100
154.900	20.492	0.100
155.000	9.923	0.100
155.100	15.712	0.100
155.200	14.156	0.100
155.300	25.108	0.100
155.400	30.430	0.100
155.500	24.424	0.100
155.600	14.379	0.100
155.700	0.676	0.100
155.800	7.646	0.100
155.900	19.224	0.100
156.000	15.275	0.100
156.100	5.858	0.100
156.200	20.442	0.100
156.300	16.236	0.100
156.400	33.089	0.100
156.500	12.170	0.100
156.600	11.346	0.100
156.700	16.122	0.100
156.800	9.817	0.100
156.900	2.825	0.100
157.000	19.272	0.100
157.100	17.839	0.100
157.200	12.631	0.100
157.300	22.404	0.100
157.400	26.371	0.100
157.500	21.308	0.100
157.600	4.505	0.100
157.700	9.893	0.100
157.800	18.056	0.100
157.900	40.246	0.100
158.000	10.187	0.100
158.100	-0.424	0.100
158.200	13.229	0.100
158.300	15.180	0.100
158.400	6.003	0.100
158.500	22.841	0.100
158.600	11.316	0.100
158.700	24.830	0.100
158.800	21.062	0.100
158.900	4.483	0.100
159.000	-1.795	0.100
159.100	17.238	0.100
159.200	21.763	0.100
159.300	34.636	0.100
159.400	32.335	0.100
159.500	19.543	0.100
159.600	4.820	0.100
159.700	9.294	0.100
159.800	16.282	0.100
159.900	16.692	0.100
160.000	19.806	0.100
160.100	-0.178	0.100
160.200	21.696	0.100
160.300	11.814	0.100
160.400	5.722	0.100
160.500	20.365	0.100
160.600	25.145	0.100
160.700	7.690	0.100
160.800	16.719	0.100
160.900	32.564	0.100
161.000	19.736	0.100
161.100	13.834	0.100
161.200	-5.053	0.100
161.300	2.411	0.100
161.400	15.001	0.100
161.500	17.752	0.100
161.600	34.126	0.100
161.700	9.988	0.100
161.800	18.998	0.100
161.900	22.020	0.100
162.000	16.028	0.100
162.100	15.359	0.100
162.200	22.122	0.100
162.300	18.473	0.100
162.400	23.524	0.100
162.500	23.350	0.100
162.600	22.727	0.100
162.700	16.121	0.100
162.800	5.753	0.100
162.900	21.690	0.100
163.000	15.145	0.100
163.100	23.292	0.100
163.200	12.750	0.100
163.300	-0.380	0.100
163.400	20.170	0.100
163.500	17.666	0.100
163.600	19.762	0.100
163.700	7.123	0.100
163.800	8.928	0.100
163.900	16.815	0.100
164.000	10.940	0.100
164.100	23.333	0.100
164.200	9.933	0.100
164.300	22.792	0.100
164.400	23.112	0.100
164.500	21.921	0.100
164.600	7.568	0.100
164.700	10.326	0.100
164.800	18.609	0.100
164.900	1.071	0.100
165.000	20.294	0.100
165.100	18.887	0.100
165.200	14.176	0.100
165.300	22.399	0.100
165.400	20.929	0.100
165.500	14.882	0.100
165.600	13.364	0.100
165.700	24.007	0.100
165.800	19.762	0.100
165.900	20.813	0.100
166.000	16.923	0.100
166.100	-0.207	0.100
166.200	18.389	0.100
166.300	22.683	0.100
166.400	17.628	0.100
166.500	23.887	0.100
166.600	8.195	0.100
166.700	14.182	0.100
166.800	30.341	0.100
166.900	11.210	0.100
167.000	12.194	0.100
167.100	10.825	0.100
167.200	11.325	0.100
167.300	19.263	0.100
167.400	23.555	0.100
167.500	31.213	0.100
167.600	0.871	0.100
167.700	25.756	0.100
167.800	21.474	0.100
167.900	18.260	0.100
168.000	9.202	0.100
168.100	27.958	0.100
168.200	15.931	0.100
168.300	11.975	0.100
168.400	26.188	0.100
168.500	11.551	0.100
168.600	9.275	0.100
168.700	8.311	0.100
168.800	5.235	0.100
168.900	28.698	0.100
169.000	18.903	0.100
169.100	19.596	0.100
169.200	17.103	0.100
169.300	11.641	0.100
169.400	3.019	0.100
169.500	13.717	0.100
169.600	36.127	0.100
169.700	16.969	0.100
169.800	7.219	0.100
169.900	11.712	0.100
170.000	8.825	0.100
170.100	20.621	0.100
170.200	18.228	0.100
170.300	12.133	0.100
170.400	-6.745	0.100
170.500	34.200	0.100
170.600	35.113	0.100
170.700	6.370	0.100
170.800	18.690	0.100
170.900	30.157	0.100
171.000	-15.759	0.100
171.100	21.091	0.100
171.200	18.535	0.100
171.300	6.511	0.100
171.400	3.242	0.100
171.500	14.571	0.100
171.600	11.008	0.100
171.700	27.444	0.100
171.800	25.636	0.100
171.900	16.469	0.100
172.000	21.762	0.100
172.100	16.842	0.100
172.200	12.494	0.100
172.300	-4.745	0.100
172.400	8.508	0.100
172.500	21.529	0.100
172.600	10.175	0.100
172.700	25.402	0.100
172.800	11.589	0.100
172.900	13.536	0.100
173.000	35.417	0.100
173.100	21.671	0.100
173.200	14.474	0.100
173.300	14.233	0.100
173.400	7.557	0.100
173.500	7.002	0.100
173.600	3.685	0.100
173.700	7.811	0.100
173.800	19.435	0.100
173.900	32.097	0.100
174.000	15.280	0.100
174.100	12.423	0.100
174.200	-0.744	0.100
174.300	37.420	0.100
174.400	15.972	0.100
174.500	22.052	0.100
174.600	12.438	0.100
174.700	11.046	0.100
174.800	12.312	0.100
174.900	16.002	0.100
175.000	3.651	0.100
175.100	16.529	0.100
175.200	22.754	0.100
175.300	22.747	0.100
175.400	5.362	0.100
175.500	16.564	0.100
175.600	27.255	0.100
175.700	12.294	0.100
175.800	22.401	0.100
175.900	16.923	0.100
176.000	16.404	0.100
176.100	2.002	0.100
176.200	10.989	0.100
176.300	11.670	0.100
176.400	27.177	0.100
176.500	18.525	0.100
176.600	15.105	0.100
176.700	13.805	0.100
176.800	12.357	0.100
176.900	30.650	0.100
177.000	20.693	0.100
177.100	15.616	0.100
177.200	17.818	0.100
177.300	10.148	0.100
177.400	15.124	0.100
177.500	19.341	0.100
177.600	3.388	0.100
177.700	19.927	0.100
177.800	25.030	0.100
177.900	27.825	0.100
178.000	14.206	0.100
178.100	10.719	0.100
178.200	9.206	0.100
178.300	18.984	0.100
178.400	19.913	0.100
178.500	24.833	0.100
178.600	17.731	0.100
178.700	13.174	0.100
178.800	-5.780	0.100
178.900	19.200	0.100
179.000	16.133	0.100
179.100	13.133	0.100
179.200	11.525	0.100
179.300	16.353	0.100
179.400	16.476	0.100
179.500	28.960	0.100
179.600	8.255	0.100
179.700	10.181	0.100
179.800	15.872	0.100
179.900	21.090	0.100
180.000	29.561	0.100
180.100	5.227	0.100
180.200	12.065	0.100
180.300	25.679	0.100
180.400	6.361	0.100
180.500	24.727	0.100
180.600	20.641	0.100
180.700	33.955	0.100
180.800	9.165	0.100
180.900	7.001	0.100
181.000	22.758	0.100
181.100	30.096	0.100
181.200	31.509	0.100
181.300	35.007	0.100
181.400	35.877	0.100
181.500	34.498	0.100
181.600	33.148	0.100
181.700	31.955	0.100
181.800	23.983	0.100
181.900	26.541	0.100
182.000	37.958	0.100
182.100	46.967	0.100
182.200	33.944	0.100
182.300	50.332	0.100
182.400	35.252	0.100
182.500	42.134	0.100
182.600	40.049	0.100
182.700	36.088	0.100
182.800	26.832	0.100
182.900	37.071	0.100
183.000	41.130	0.100
183.100	42.131	0.100
183.200	46.432	0.100
183.300	32.219	0.100
183.400	49.934	0.100
183.500	44.168	0.100
183.600	37.215	0.100
183.700	51.480	0.100
183.800	29.326	0.100
183.900	36.270	0.100
184.000	44.732	0.100
184.100	45.154	0.100
184.200	44.394	0.100
184.300	50.957	0.100
184.400	46.998	0.100
184.500	51.398	0.100
184.600	40.229	0.100
184.700	28.270	0.100
184.800	51.294	0.100
184.900	43.726	0.100
185.000	30.519	0.100
185.100	44.506	0.100
185.200	59.563	0.100
185.300	48.156	0.100
185.400	33.933	0.100
185.500	44.042	0.100
185.600	45.990	0.100
185.700	39.181	0.100
185.800	37.284	0.100
185.900	51.492	0.100
186.000	47.741	0.100
186.100	58.074	0.100
186.200	46.831	0.100
186.300	39.931	0.100
186.400	48.875	0.100
186.500	48.267	0.100
186.600	48.389	0.100
186.700	46.090	0.100
186.800	43.455	0.100
186.900	35.308	0.100
187.000	42.170	0.100
187.100	54.293	0.100
187.200	46.140	0.100
187.300	55.170	0.100
187.400	41.924	0.100
187.500	61.840	0.100
187.600	58.130	0.100
187.700	54.832	0.100
187.800	45.102	0.100
187.900	18.053	0.100
188.000	47.967	0.100
188.100	47.026	0.100
188.200	61.252	0.100
188.300	38.243	0.100
188.400	57.554	0.100
188.500	50.771	0.100
188.600	44.752	0.100
188.700	44.210	0.100
188.800	35.229	0.100
188.900	61.961	0.100
189.000	49.765	0.100
189.100	47.131	0.100
189.200	67.849	0.100
189.300	61.686	0.100
189.400	50.759	0.100
189.500	50.606	0.100
189.600	60.058	0.100
189.700	56.547	0.100
189.800	57.375	0.100
189.900	64.543	0.100
190.000	41.903	0.100
190.100	50.504	0.100
190.200	56.268	0.100
190.300	50.117	0.100
190.400	67.797	0.100
190.500	61.691	0.100
190.600	58.322	0.100
190.700	42.705	0.100
190.800	56.517	0.100
190.900	58.875	0.100
191.000	40.470	0.100
191.100	41.854	0.100
191.200	51.184	0.100
191.300	58.483	0.100
191.400	61.003	0.100
191.500	63.134	0.100
191.600	50.433	0.100
191.700	41.365	0.100
191.800	56.353	0.100
191.900	70.335	0.100
192.000	51.478	0.100
192.100	58.468	0.100
192.200	65.623	0.100
192.300	49.424	0.100
192.400	55.743	0.100
192.500	52.349	0.100
192.600	71.018	0.100
192.700	52.949	0.100
192.800	60.077	0.100
192.900	72.863	0.100
193.000	51.812	0.100
193.100	64.299	0.100
193.200	54.297	0.100
193.300	68.687	0.100
193.400	64.676	0.100
193.500	55.421	0.100
193.600	58.311	0.100
193.700	50.193	0.100
193.800	56.471	0.100
193.900	52.881	0.100
194.000	75.627	0.100
194.100	60.988	0.100
194.200	67.041	0.100
194.300	58.926	0.100
194.400	51.163	0.100
194.500	76.112	0.100
194.600	56.198	0.100
194.700	65.756	0.100
194.800	61.956	0.100
194.900	64.779	0.100
195.000	59.055	0.100
195.100	65.065	0.100
195.200	61.574	0.100
195.300	59.066	0.100
195.400	66.848	0.100
195.500	71.264	0.100
195.600	54.396	0.100
195.700	56.930	0.100
195.800	67.002	0.100
195.900	65.748	0.100
196.000	66.743	0.100
196.100	73.072	0.100
196.200	59.689	0.100
196.300	51.017	0.100
196.400	61.985	0.100
196.500	53.987	0.100
196.600	73.015	0.100
196.700	76.249	0.100
196.800	69.933	0.100
196.900	57.916	0.100
197.000	54.193	0.100
197.100	50.288	0.100
197.200	66.500	0.100
197.300	82.796	0.100
197.400	62.734	0.100
197.500	49.883	0.100
197.600	55.044	0.100
197.700	56.816	0.100
197.800	83.145	0.100
197.900	84.543	0.100
198.000	77.596	0.100
198.100	70.455	0.100
198.200	68.838	0.100
198.300	71.851	0.100
198.400	71.377	0.100
198.500	45.814	0.100
198.600	77.489	0.100
198.700	72.799	0.100
198.800	81.208	0.100
198.900	57.930	0.100
199.000	55.890	0.100
199.100	53.171	0.100
199.200	79.107	0.100
199.300	74.672	0.100
199.400	72.272	0.100
199.500	73.390	0.100
199.600	69.599	0.100
199.700	60.289	0.100
199.800	77.504	0.100
199.900	73.152	0.100
200.000	66.034	0.100
200.100	84.155	0.100
200.200	71.397	0.100
200.300	69.041	0.100
200.400	63.929	0.100
200.500	91.021	0.100
200.600	64.173	0.100
200.700	73.890	0.100
200.800	66.858	0.100
200.900	73.915	0.100
201.000	86.274	0.100
201.100	77.293	0.100
201.200	62.559	0.100
201.300	75.116	0.100
201.400	74.052	0.100
201.500	77.142	0.100
201.600	78.864	0.100
201.700	85.356	0.100
201.800	73.714	0.100
201.900	81.332	0.100
202.000	70.723	0.100
202.100	71.607	0.100
202.200	76.378	0.100
202.300	62.176	0.100
202.400	72.121	0.100
202.500	77.625	0.100
202.600	68.956	0.100
202.700	79.662	0.100
202.800	74.114	0.100
202.900	72.042	0.100
203.000	65.728	0.100
203.100	88.187	0.100
203.200	71.663	0.100
203.300	76.894	0.100
203.400	72.967	0.100
203.500	65.100	0.100
203.600	72.670	0.100
203.700	68.000	0.100
203.800	80.463	0.100
203.900	76.190	0.100
204.000	83.658	0.100
204.100	75.036	0.100
204.200	75.902	0.100
204.300	69.138	0.100
204.400	71.026	0.100
204.500	90.715	0.100
204.600	89.164	0.100
204.700	91.280	0.100
204.800	65.942	0.100
204.900	82.511	0.100
205.000	77.750	0.100
205.100	89.695	0.100
205.200	74.350	0.100
205.300	67.954	0.100
205.400	73.820	0.100
205.500	79.002	0.100
205.600	82.895	0.100
205.700	80.253	0.100
205.800	95.980	0.100
205.900	72.025	0.100
206.000	71.171	0.100
206.100	86.339	0.100
206.200	93.539	0.100
206.300	74.922	0.100
206.400	86.149	0.100
206.500	66.367	0.100
206.600	82.107	0.100
206.700	87.919	0.100
206.800	73.686	0.100
206.900	87.914	0.100
207.000	80.565	0.100
207.100	64.781	0.100
207.200	71.804	0.100
207.300	73.447	0.100
207.400	87.198	0.100
207.500	102.851	0.100
207.600	104.919	0.100
207.700	74.678	0.100
207.800	76.709	0.100
207.900	85.192	0.100
208.000	74.257	0.100
208.100	96.819	0.100
208.200	79.566	0.100
208.300	76.683	0.100
208.400	92.715	0.100
208.500	75.231	0.100
208.600	82.143	0.100
208.700	79.249	0.100
208.800	75.219	0.100
208.900	80.735	0.100
209.000	99.949	0.100
209.100	96.240	0.100
209.200	103.217	0.100
209.300	76.027	0.100
209.400	71.968	0.100
209.500	82.711	0.100
209.600	67.180	0.100
209.700	84.012	0.100
209.800	74.781	0.100
209.900	70.032	0.100
210.000	87.109	0.100
210.100	83.210	0.100
210.200	105.051	0.100
210.300	71.170	0.100
210.400	84.599	0.100
210.500	82.700	0.100
210.600	91.264	0.100
210.700	84.641	0.100
210.800	91.944	0.100
210.900	93.841	0.100
211.000	74.052	0.100
211.100	78.221	0.100
211.200	82.314	0.100
211.300	108.450	0.100
211.400	87.561	0.100
211.500	73.559	0.100
211.600	78.305	0.100
211.700	78.239	0.100
211.800	91.889	0.100
211.900	75.660	0.100
212.000	97.581	0.100
212.100	85.288	0.100
212.200	77.591	0.100
212.300	92.670	0.100
212.400	94.566	0.100
212.500	89.798	0.100
212.600	81.734	0.100
212.700	91.203	0.100
212.800	80.170	0.100
212.900	104.177	0.100
213.000	77.253	0.100
213.100	83.997	0.100
213.200	88.548	0.100
213.300	85.655	0.100
213.400	84.389	0.100
213.500	74.734	0.100
213.600	93.453	0.100
213.700	84.473	0.100
213.800	79.257	0.100
213.900	86.837	0.100
214.000	76.870	0.100
214.100	89.898	0.100
214.200	97.321	0.100
214.300	84.447	0.100
214.400	94.243	0.100
214.500	83.851	0.100
214.600	84.892	0.100
214.700	87.922	0.100
214.800	84.734	0.100
214.900	91.906	0.100
215.000	88.496	0.100
215.100	91.190	0.100
215.200	96.259	0.100
215.300	83.180	0.100
215.400	98.915	0.100
215.500	83.537	0.100
215.600	91.899	0.100
215.700	87.242	0.100
215.800	87.575	0.100
215.900	76.665	0.100
216.000	85.275	0.100
216.100	102.345	0.100
216.200	89.331	0.100
216.300	85.812	0.100
216.400	93.957	0.100
216.500	79.009	0.100
216.600	81.733	0.100
216.700	85.080	0.100
216.800	88.078	0.100
216.900	90.988	0.100
217.000	84.078	0.100
217.100	68.354	0.100
217.200	91.102	0.100
217.300	111.748	0.100
217.400	86.984	0.100
217.500	93.831	0.100
217.600	90.466	0.100
217.700	105.252	0.100
217.800	92.836	0.100
217.900	85.719	0.100
218.000	84.412	0.100
218.100	88.403	0.100
218.200	94.143	0.100
218.300	95.807	0.100
218.400	101.693	0.100
218.500	85.559	0.100
218.600	95.580	0.100
218.700	90.501	0.100
218.800	91.725	0.100
218.900	83.155	0.100
219.000	89.167	0.100
219.100	91.821	0.100
219.200	72.640	0.100
219.300	89.903	0.100
219.400	104.612	0.100
219.500	92.594	0.100
219.600	93.173	0.100
219.700	90.966	0.100
219.800	91.821	0.100
219.900	87.612	0.100
220.000	87.716	0.100
220.100	98.556	0.100
220.200	82.991	0.100
220.300	83.075	0.100
220.400	93.711	0.100
220.500	81.224	0.100
220.600	99.764	0.100
220.700	98.243	0.100
220.800	99.448	0.100
220.900	89.784	0.100
221.000	72.270	0.100
221.100	78.764	0.100
221.200	88.053	0.100
221.300	102.759	0.100
221.400	100.202	0.100
221.500	82.984	0.100
221.600	80.728	0.100
221.700	97.165	0.100
221.800	75.101	0.100
221.900	86.392	0.100
222.000	80.251	0.100
222.100	103.645	0.100
222.200	92.360	0.100
222.300	89.434	0.100
222.400	87.910	0.100
222.500	83.482	0.100
222.600	93.263	0.100
222.700	97.605	0.100
222.800	89.006	0.100
222.900	93.532	0.100
223.000	85.926	0.100
223.100	102.403	0.100
223.200	100.939	0.100
223.300	112.631	0.100
223.400	103.616	0.100
223.500	88.708	0.100
223.600	97.157	0.100
223.700	96.356	0.100
223.800	85.044	0.100
223.900	97.579	0.100
224.000	88.530	0.100
224.100	100.253	0.100
224.200	105.179	0.100
224.300	74.964	0.100
224.400	105.019	0.100
224.500	101.937	0.100
224.600	107.025	0.100
224.700	87.341	0.100
224.800	99.676	0.100
224.900	102.269	0.100
225.000	82.496	0.100
225.100	94.527	0.100
225.200	79.411	0.100
225.300	99.067	0.100
225.400	92.388	0.100
225.500	104.317	0.100
225.600	102.489	0.100
225.700	92.904	0.100
225.800	86.355	0.100
225.900	106.955	0.100
226.000	77.698	0.100
226.100	96.244	0.100
226.200	101.277	0.100
226.300	90.103	0.100
226.400	102.148	0.100
226.500	96.906	0.100
226.600	85.549	0.100
226.700	79.159	0.100
226.800	91.369	0.100
226.900	80.224	0.100
227.000	90.778	0.100
227.100	104.612	0.100
227.200	78.494	0.100
227.300	101.239	0.100
227.400	99.375	0.100
227.500	98.878	0.100
227.600	96.444	0.100
227.700	90.926	0.100
227.800	96.656	0.100
227.900	88.766	0.100
228.000	85.218	0.100
228.100	99.973	0.100
228.200	81.677	0.100
228.300	120.598	0.100
228.400	111.183	0.100
228.500	83.164	0.100
228.600	86.716	0.100
228.700	89.542	0.100
228.800	104.490	0.100
228.900	90.809	0.100
229.000	93.242	0.100
229.100	92.415	0.100
229.200	105.973	0.100
229.300	86.126	0.100
229.400	90.710	0.100
229.500	102.930	0.100
229.600	112.604	0.100
229.700	100.851	0.100
229.800	96.802	0.100
229.900	95.047	0.100
230.000	88.915	0.100
230.100	92.528	0.100
230.200	89.291	0.100
230.300	109.604	0.100
230.400	110.958	0.100
230.500	91.896	0.100
230.600	105.061	0.100
230.700	83.083	0.100
230.800	104.245	0.100
230.900	84.654	0.099
231.000	89.477	0.099
231.100	107.299	0.099
231.200	89.255	0.099
231.300	108.108	0.099
231.400	82.913	0.099
231.500	96.036	0.099
231.600	77.883	0.099
231.700	100.495	0.099
231.800	108.967	0.099
231.900	105.391	0.099
232.000	110.984	0.099
232.100	101.449	0.099
232.200	91.444	0.099
232.300	79.255	0.099
232.400	102.912	0.099
232.500	90.352	0.099
232.600	106.769	0.099
232.700	104.525	0.099
232.800	99.210	0.099
232.900	113.349	0.099
233.000	100.871	0.099
233.100	92.932	0.099
233.200	102.448	0.099
233.300	100.528	0.099
233.400	92.218	0.099
233.500	91.303	0.099
233.600	98.459	0.099
233.700	87.323	0.099
233.800	102.785	0.099
233.900	109.328	0.099
234.000	91.888	0.099
234.100	90.834	0.099
234.200	91.335	0.099
234.300	93.290	0.099
234.400	94.665	0.099
234.500	99.319	0.099
234.600	93.677	0.099
234.700	96.225	0.099
234.800	105.087	0.099
234.900	108.523	0.099
235.000	97.009	0.099
235.100	80.682	0.099
235.200	92.235	0.099
235.300	100.940	0.099
235.400	89.483	0.099
235.500	99.250	0.099
235.600	87.146	0.099
235.700	107.205	0.099
235.800	80.723	0.099
235.900	103.458	0.099
236.000	94.406	0.099
236.100	95.061	0.099
236.200	87.437	0.099
236.300	98.707	0.099
236.400	99.686	0.099
236.500	96.600	0.099
236.600	87.759	0.099
236.700	99.510	0.099
236.800	102.256	0.099
236.900	100.478	0.099
237.000	85.293	0.099
237.100	100.518	0.099
237.200	102.801	0.099
237.300	91.671	0.099
237.400	89.233	0.099
237.500	94.311	0.099
237.600	104.323	0.099
237.700	88.995	0.099
237.800	82.781	0.099
237.900	96.011	0.099
238.000	106.994	0.099
238.100	96.447	0.099
238.200	96.524	0.099
238.300	80.504	0.099
238.400	88.288	0.099
238.500	93.538	0.099
238.600	83.399	0.099
238.700	85.570	0.099
238.800	98.133	0.099
238.900	78.801	0.099
239.000	96.884	0.099
239.100	85.493	0.099
239.200	106.918	0.099
239.300	95.658	0.099
239.400	101.420	0.099
239.500	92.653	0.099
239.600	107.045	0.099
239.700	97.646	0.099
239.800	87.466	0.099
239.900	107.137	0.099
240.000	104.686	0.099
240.100	96.902	0.099
240.200	96.410	0.099
240.300	98.235	0.099
240.400	97.247	0.099
240.500	98.877	0.099
240.600	104.195	0.099
240.700	94.773	0.099
240.800	83.009	0.099
240.900	85.488	0.099
241.000	89.467	0.099
241.100	89.762	0.099
241.200	89.270	0.099
241.300	92.663	0.099
241.400	95.990	0.099
241.500	87.860	0.099
241.600	80.433	0.099
241.700	77.397	0.099
241.800	82.170	0.099
241.900	69.733	0.099
242.000	69.948	0.099
242.100	79.383	0.099
242.200	87.141	0.099
242.300	71.350	0.099
242.400	90.068	0.099
242.500	87.561	0.099
242.600	77.080	0.099
242.700	78.151	0.099
242.800	74.107	0.099
242.900	72.669	0.099
243.000	86.917	0.099
243.100	78.091	0.099
243.200	69.754	0.099
243.300	71.790	0.099
243.400	61.855	0.099
243.500	65.207	0.099
243.600	73.659	0.099
243.700	58.021	0.099
243.800	59.135	0.099
243.900	66.792	0.099
244.000	67.609	0.099
244.100	70.363	0.099
244.200	62.253	0.099
244.300	64.420	0.099
244.400	51.271	0.099
244.500	86.592	0.099
244.600	56.892	0.099
244.700	57.689	0.099
244.800	58.270	0.099
244.900	55.384	0.099
245.000	70.707	0.099
245.100	69.577	0.099
245.200	62.667	0.099
245.300	67.229	0.099
245.400	49.656	0.099
245.500	65.270	0.099
245.600	50.476	0.099
245.700	55.668	0.099
245.800	55.633	0.099
245.900	52.963	0.099
246.000	58.108	0.099
246.100	63.963	0.099
246.200	49.148	0.099
246.300	53.489	0.099
246.400	59.447	0.099
246.500	51.554	0.099
246.600	56.820	0.099
246.700	61.819	0.099
246.800	50.880	0.099
246.900	53.173	0.099
247.000	49.108	0.099
247.100	56.350	0.099
247.200	64.295	0.099
247.300	61.275	0.099
247.400	51.261	0.099
247.500	44.054	0.099
247.600	47.903	0.099
247.700	62.583	0.099
247.800	40.579	0.099
247.900	60.035	0.099
248.000	56.399	0.100
248.100	61.398	0.100
248.200	60.347	0.100
248.300	55.524	0.100
248.400	48.411	0.100
248.500	59.734	0.100
248.600	47.144	0.100
248.700	50.817	0.100
248.800	44.264	0.100
248.900	40.538	0.100
249.000	35.962	0.100
249.100	51.663	0.100
249.200	50.245	0.100
249.300	39.147	0.100
249.400	55.256	0.100
249.500	55.953	0.100
249.600	61.534	0.100
249.700	56.400	0.100
249.800	44.836	0.100
249.900	59.196	0.100
250.000	45.632	0.100
250.100	32.974	0.100
250.200	38.496	0.100
250.300	50.605	0.100
250.400	50.092	0.100
250.500	43.477	0.100
250.600	38.036	0.100
250.700	42.143	0.100
250.800	55.106	0.100
250.900	36.266	0.100
251.000	45.169	0.100
251.100	48.831	0.100
251.200	40.152	0.100
251.300	36.777	0.100
251.400	49.903	0.100
251.500	41.936	0.100
251.600	47.211	0.100
251.700	47.802	0.100
251.800	45.945	0.100
251.900	53.336	0.100
252.000	47.894	0.100
252.100	50.689	0.100
252.200	41.081	0.100
252.300	54.409	0.100
252.400	46.973	0.100
252.500	46.701	0.100
252.600	39.077	0.100
252.700	38.432	0.100
252.800	40.155	0.100
252.900	33.848	0.100
253.000	41.024	0.100
253.100	43.287	0.100
253.200	46.222	0.100
253.300	29.196	0.100
253.400	36.570	0.100
253.500	40.212	0.100
253.600	35.652	0.100
253.700	45.558	0.100
253.800	36.124	0.100
253.900	32.447	0.100
254.000	52.873	0.100
254.100	34.542	0.100
254.200	49.256	0.100
254.300	37.676	0.100
254.400	50.230	0.100
254.500	30.164	0.100
254.600	38.314	0.100
254.700	41.436	0.100
254.800	25.795	0.100
254.900	38.013	0.100
255.000	32.509	0.100
255.100	42.828	0.100
255.200	33.632	0.100
255.300	35.452	0.100
255.400	34.311	0.100
255.500	37.536	0.100
255.600	33.265	0.100
255.700	37.731	0.100
255.800	43.901	0.100
255.900	37.516	0.100
256.000	38.791	0.100
256.100	30.224	0.100
256.200	43.742	0.100
256.300	32.610	0.100
256.400	35.778	0.100
256.500	20.733	0.100
256.600	42.429	0.100
256.700	44.110	0.100
256.800	40.910	0.100
256.900	37.619	0.100
257.000	50.552	0.100
257.100	37.391	0.100
257.200	36.665	0.100
257.300	32.229	0.100
257.400	38.338	0.100
257.500	34.658	0.100
257.600	39.040	0.100
257.700	30.263	0.100
257.800	40.769	0.100
257.900	23.707	0.100
258.000	49.946	0.100
258.100	33.149	0.100
258.200	44.627	0.100
258.300	31.476	0.100
258.400	50.553	0.100
258.500	34.835	0.100
258.600	32.396	0.100
258.700	37.644	0.100
258.800	17.153	0.100
258.900	35.386	0.100
259.000	39.841	0.100
259.100	37.156	0.100
259.200	33.157	0.100
259.300	46.808	0.100
259.400	29.135	0.100
259.500	33.690	0.100
259.600	18.966	0.100
259.700	36.903	0.100
259.800	37.322	0.100
259.900	37.640	0.100
260.000	38.348	0.100
260.100	39.785	0.100
260.200	33.168	0.100
260.300	35.144	0.100
260.400	33.829	0.100
260.500	29.016	0.100
260.600	35.675	0.100
260.700	30.100	0.100
260.800	27.149	0.100
260.900	39.668	0.100
261.000	42.550	0.100
261.100	31.956	0.100
261.200	28.379	0.100
261.300	22.340	0.100
261.400	28.691	0.100
261.500	41.723	0.100
261.600	34.081	0.100
261.700	40.202	0.100
261.800	40.465	0.100
261.900	39.412	0.100
262.000	24.931	0.100
262.100	7.493	0.100
262.200	24.774	0.100
262.300	40.284	0.100
262.400	18.153	0.100
262.500	24.877	0.100
262.600	37.954	0.100
262.700	35.580	0.100
262.800	33.397	0.100
262.900	33.032	0.100
263.000	25.773	0.100
263.100	34.312	0.100
263.200	32.129	0.100
263.300	18.353	0.100
263.400	15.821	0.100
263.500	28.295	0.100
263.600	41.162	0.100
263.700	31.978	0.100
263.800	20.041	0.100
263.900	36.632	0.100
264.000	33.184	0.100
264.100	27.799	0.100
264.200	24.201	0.100
264.300	24.092	0.100
264.400	26.973	0.100
264.500	24.564	0.100
264.600	18.040	0.100
264.700	29.127	0.100
264.800	28.986	0.100
264.900	33.336	0.100
265.000	17.839	0.100
265.100	29.155	0.100
265.200	30.713	0.100
265.300	14.627	0.100
265.400	22.077	0.100
265.500	21.128	0.100
265.600	23.271	0.100
265.700	33.064	0.100
265.800	46.389	0.100
265.900	20.214	0.100
266.000	30.603	0.100
266.100	27.349	0.100
266.200	22.044	0.100
266.300	39.239	0.100
266.400	27.063	0.100
266.500	18.575	0.100
266.600	38.944	0.100
266.700	10.841	0.100
266.800	34.026	0.100
266.900	30.952	0.100
267.000	29.679	0.100
267.100	3.091	0.100
267.200	28.153	0.100
267.300	44.944	0.100
267.400	25.182	0.100
267.500	24.129	0.100
267.600	19.135	0.100
267.700	16.970	0.100
267.800	23.538	0.100
267.900	33.245	0.100
268.000	34.416	0.100
268.100	29.715	0.100
268.200	33.576	0.100
268.300	23.612	0.100
268.400	38.094	0.100
268.500	36.896	0.100
268.600	27.405	0.100
268.700	24.594	0.100
268.800	21.613	0.100
268.900	29.960	0.100
269.000	22.924	0.100
269.100	26.355	0.100
269.200	20.241	0.100
269.300	20.354	0.100
269.400	23.856	0.100
269.500	13.413	0.100
269.600	23.590	0.100
269.700	13.046	0.100
269.800	21.557	0.100
269.900	21.106	0.100
270.000	34.342	0.100
270.100	18.902	0.100
270.200	26.458	0.100
270.300	16.627	0.100
270.400	6.606	0.100
270.500	26.087	0.100
270.600	38.715	0.100
270.700	21.091	0.100
270.800	13.136	0.100
270.900	23.291	0.100
271.000	3.891	0.100
271.100	31.048	0.100
271.200	28.035	0.100
271.300	32.496	0.100
271.400	9.462	0.100
271.500	19.001	0.100
271.600	13.528	0.100
271.700	32.926	0.100
271.800	26.404	0.100
271.900	17.792	0.100
272.000	21.568	0.100
272.100	13.520	0.100
272.200	7.847	0.100
272.300	39.225	0.100
272.400	20.857	0.100
272.500	28.536	0.100
272.600	-0.195	0.100
272.700	26.353	0.100
272.800	29.297	0.100
272.900	28.726	0.100
273.000	12.498	0.100
273.100	19.303	0.100
273.200	17.602	0.100
273.300	32.001	0.100
273.400	10.112	0.100
273.500	9.342	0.100
273.600	17.843	0.100
273.700	29.605	0.100
273.800	20.899	0.100
273.900	17.229	0.100
274.000	25.538	0.100
274.100	27.858	0.100
274.200	16.505	0.100
274.300	0.217	0.100
274.400	15.276	0.100
274.500	17.984	0.100
274.600	26.904	0.100
274.700	4.265	0.100
274.800	20.375	0.100
274.900	15.017	0.100
275.000	30.097	0.100
275.100	23.274	0.100
275.200	18.932	0.100
275.300	12.240	0.100
275.400	24.789	0.100
275.500	10.476	0.100
275.600	22.574	0.100
275.700	8.011	0.100
275.800	9.141	0.100
275.900	-4.472	0.100
276.000	15.664	0.100
276.100	23.923	0.100
276.200	26.221	0.100
276.300	39.108	0.100
276.400	16.805	0.100
276.500	7.938	0.100
276.600	16.757	0.100
276.700	24.583	0.100
276.800	12.047	0.100
276.900	6.184	0.100
277.000	5.570	0.100
277.100	22.767	0.100
277.200	18.124	0.100
277.300	12.622	0.100
277.400	22.299	0.100
277.500	11.747	0.100
277.600	10.084	0.100
277.700	26.306	0.100
277.800	5.967	0.100
277.900	11.993	0.100
278.000	35.834	0.100
278.100	12.635	0.100
278.200	10.526	0.100
278.300	20.509	0.100
278.400	17.635	0.100
278.500	12.331	0.100
278.600	19.428	0.100
278.700	15.051	0.100
278.800	6.138	0.100
278.900	17.474	0.100
279.000	19.947	0.100
279.100	32.946	0.100
279.200	18.325	0.100
279.300	4.786	0.100
279.400	20.993	0.100
279.500	10.436	0.100
279.600	12.738	0.100
279.700	3.825	0.100
279.800	18.857	0.100
279.900	19.115	0.100
280.000	19.019	0.100
280.100	13.414	0.100
280.200	14.366	0.100
280.300	20.054	0.100
280.400	22.968	0.100
280.500	16.048	0.100
280.600	13.374	0.100
280.700	14.179	0.100
280.800	-8.598	0.100
280.900	25.613	0.100
281.000	13.133	0.100
281.100	7.553	0.100
281.200	15.341	0.100
281.300	7.533	0.100
281.400	12.221	0.100
281.500	5.687	0.100
281.600	11.396	0.100
281.700	28.807	0.100
281.800	12.075	0.100
281.900	8.095	0.100
282.000	15.629	0.100
282.100	2.465	0.100
282.200	18.331	0.100
282.300	6.919	0.100
282.400	9.910	0.100
282.500	35.922	0.100
282.600	18.580	0.100
282.700	3.289	0.100
282.800	18.624	0.100
282.900	5.003	0.100
283.000	-6.852	0.100
283.100	9.163	0.100
283.200	3.415	0.100
283.300	19.567	0.100
283.400	31.296	0.100
283.500	9.196	0.100
283.600	19.140	0.100
283.700	4.842	0.100
283.800	16.951	0.100
283.900	13.788	0.100
284.000	18.049	0.100
284.100	2.468	0.100
284.200	9.117	0.100
284.300	3.588	0.100
284.400	20.840	0.100
284.500	13.874	0.100
284.600	7.173	0.100
284.700	6.646	0.100
284.800	2.737	0.100
284.900	9.394	0.100
285.000	11.007	0.100
285.100	26.600	0.100
285.200	10.214	0.100
285.300	11.675	0.100
285.400	21.518	0.100
285.500	10.027	0.100
285.600	5.310	0.100
285.700	2.286	0.100
285.800	10.685	0.100
285.900	33.693	0.100
286.000	23.619	0.100
286.100	5.166	0.100
286.200	0.206	0.100
286.300	16.062	0.100
286.400	18.846	0.100
286.500	18.944	0.100
286.600	1.296	0.100
286.700	25.299	0.100
286.800	10.574	0.100
286.900	9.331	0.100
287.000	6.689	0.100
287.100	7.978	0.100
287.200	8.618	0.100
287.300	2.590	0.100
287.400	8.122	0.100
287.500	14.219	0.100
287.600	5.419	0.100
287.700	21.133	0.100
287.800	1.190	0.100
287.900	12.576	0.100
288.000	14.735	0.100
288.100	13.755	0.100
288.200	13.778	0.100
288.300	12.525	0.100
288.400	0.234	0.100
288.500	5.280	0.100
288.600	-1.432	0.100
288.700	20.468	0.100
288.800	15.376	0.100
288.900	12.857	0.100
289.000	6.491	0.100
289.100	26.336	0.100
289.200	10.207	0.100
289.300	8.923	0.100
289.400	10.175	0.100
289.500	15.903	0.100
289.600	-6.427	0.100
289.700	10.407	0.100
289.800	19.196	0.100
289.900	12.787	0.100
290.000	-1.308	0.100
290.100	7.677	0.100
290.200	16.290	0.100
290.300	10.902	0.100
290.400	2.505	0.100
290.500	0.933	0.100
290.600	22.545	0.100
290.700	21.114	0.100
290.800	11.716	0.100
290.900	0.229	0.100
291.000	21.215	0.100
291.100	13.226	0.100
291.200	5.562	0.100
291.300	1.528	0.100
291.400	12.823	0.100
291.500	11.755	0.100
291.600	23.875	0.100
291.700	-8.788	0.100
291.800	10.369	0.100
291.900	7.419	0.100
292.000	16.795	0.100
292.100	3.351	0.100
292.200	12.425	0.100
292.300	9.318	0.100
292.400	-14.792	0.100
292.500	4.214	0.100
292.600	19.615	0.100
292.700	6.741	0.100
292.800	15.283	0.100
292.900	-4.889	0.100
293.000	5.691	0.100
293.100	16.146	0.100
293.200	13.159	0.100
293.300	11.862	0.100
293.400	14.394	0.100
293.500	19.783	0.100
293.600	4.809	0.100
293.700	13.284	0.100
293.800	14.233	0.100
293.900	-2.705	0.100
294.000	5.364	0.100
294.100	1.678	0.100
294.200	8.336	0.100
294.300	-6.740	0.100
294.400	-3.010	0.100
294.500	2.968	0.100
294.600	15.112	0.100
294.700	1.479	0.100
294.800	-2.097	0.100
294.900	12.438	0.100
295.000	8.701	0.100
295.100	14.438	0.100
295.200	3.716	0.100
295.300	15.368	0.100
295.400	-14.865	0.100
295.500	-5.603	0.100
295.600	18.576	0.100
295.700	7.237	0.100
295.800	4.517	0.100
295.900	0.317	0.100
296.000	5.425	0.100
296.100	3.397	0.100
296.200	17.373	0.100
296.300	7.545	0.100
296.400	7.508	0.100
296.500	6.174	0.100
296.600	7.697	0.100
296.700	13.427	0.100
296.800	-3.026	0.100
296.900	-4.835	0.100
297.000	-1.410	0.100
297.100	1.729	0.100
297.200	6.283	0.100
297.300	12.855	0.100
297.400	9.867	0.100
297.500	18.400	0.100
297.600	6.264	0.100
297.700	0.643	0.100
297.800	7.820	0.100
297.900	2.733	0.100
298.000	-11.016	0.100
298.100	-3.428	0.100
298.200	10.251	0.100
298.300	11.301	0.100
298.400	-4.774	0.100
298.500	17.394	0.100
298.600	14.531	0.100
298.700	11.188	0.100
298.800	15.196	0.100
298.900	0.567	0.100
299.000	16.927	0.100
299.100	0.294	0.100
299.200	6.190	0.100
299.300	12.548	0.100
299.400	7.068	0.100
299.500	-11.904	0.100
299.600	3.407	0.100
299.700	12.778	0.100
299.800	8.052	0.100
299.900	-0.886	0.100
300.000	3.570	0.100
300.100	4.243	0.100
300.200	12.586	0.100
300.300	2.923	0.100
300.400	7.797	0.100
300.500	5.280	0.100
300.600	-4.699	0.100
300.700	-0.044	0.100
300.800	-5.798	0.100
300.900	6.972	0.100
301.000	-11.791	0.100
301.100	23.053	0.100
301.200	21.543	0.100
301.300	-1.947	0.100
301.400	2.921	0.100
301.500	3.624	0.100
301.600	12.326	0.100
301.700	-9.593	0.100
301.800	14.814	0.100
301.900	10.240	0.100
302.000	6.331	0.100
302.100	4.882	0.100
302.200	5.301	0.100
302.300	1.383	0.100
302.400	10.851	0.100
302.500	4.856	0.100
302.600	13.663	0.100
302.700	1.433	0.100
302.800	0.754	0.100
302.900	18.461	0.100
303.000	4.186	0.100
303.100	10.086	0.100
303.200	-10.941	0.100
303.300	7.152	0.100
303.400	-11.821	0.100
303.500	-5.187	0.100
303.600	18.897	0.100
303.700	13.884	0.100
303.800	11.533	0.100
303.900	3.369	0.100
304.000	4.291	0.100
304.100	11.670	0.100
304.200	12.009	0.100
304.300	2.939	0.100
304.400	-1.726	0.100
304.500	8.318	0.100
304.600	10.334	0.100
304.700	-0.685	0.100
304.800	6.428	0.100
304.900	3.601	0.100
305.000	15.102	0.100
305.100	3.087	0.100
305.200	0.195	0.100
305.300	14.047	0.100
305.400	9.447	0.100
305.500	2.938	0.100
305.600	5.739	0.100
305.700	10.958	0.100
305.800	11.021	0.100
305.900	0.792	0.100
306.000	8.698	0.100
306.100	-6.665	0.100
306.200	14.968	0.100
306.300	-15.022	0.100
306.400	21.113	0.100
306.500	8.133	0.100
306.600	9.763	0.100
306.700	9.031	0.100
306.800	-7.896	0.100
306.900	-8.386	0.100
307.000	9.544	0.100
307.100	-10.181	0.100
307.200	4.206	0.100
307.300	12.150	0.100
307.400	9.452	0.100
307.500	8.866	0.100
307.600	10.640	0.100
307.700	-4.519	0.100
307.800	-9.958	0.100
307.900	0.331	0.100
308.000	0.483	0.100
308.100	9.136	0.100
308.200	19.222	0.100
308.300	18.965	0.100
308.400	15.277	0.100
308.500	-7.251	0.100
308.600	-2.355	0.100
308.700	8.560	0.100
308.800	6.720	0.100
308.900	-0.925	0.100
309.000	10.647	0.100
309.100	-19.792	0.100
309.200	4.990	0.100
309.300	6.115	0.100
309.400	8.604	0.100
309.500	-9.069	0.100
309.600	-0.446	0.100
309.700	0.874	0.100
309.800	-2.439	0.100
309.900	0.999	0.100
310.000	14.097	0.100
310.100	22.585	0.100
310.200	-3.223	0.100
310.300	-1.323	0.100
310.400	-6.882	0.100
310.500	18.853	0.100
310.600	9.836	0.100
310.700	14.601	0.100
310.800	8.977	0.100
310.900	7.663	0.100
311.000	6.853	0.100
311.100	-7.565	0.100
311.200	11.495	0.100
311.300	-10.124	0.100
311.400	0.574	0.100
311.500	1.711	0.100
311.600	5.568	0.100
311.700	5.654	0.100
311.800	-0.256	0.100
311.900	-4.277	0.100
312.000	4.235	0.100
312.100	-23.177	0.100
312.200	2.048	0.100
312.300	-2.347	0.100
312.400	6.021	0.100
312.500	-0.716	0.100
312.600	-0.049	0.100
312.700	-9.953	0.100
312.800	0.668	0.100
312.900	-2.249	0.100
313.000	14.983	0.100
313.100	3.354	0.100
313.200	-5.128	0.100
313.300	4.322	0.100
313.400	-1.941	0.100
313.500	0.922	0.100
313.600	-2.386	0.100
313.700	3.856	0.100
313.800	7.621	0.100
313.900	7.395	0.100
314.000	14.947	0.100
314.100	3.532	0.100
314.200	12.266	0.100
314.300	-0.665	0.100
314.400	2.979	0.100
314.500	2.263	0.100
314.600	-2.943	0.100
314.700	-7.643	0.100
314.800	3.733	0.100
314.900	22.222	0.100
315.000	8.062	0.100
315.100	7.494	0.100
315.200	-8.284	0.100
315.300	-11.132	0.100
315.400	10.089	0.100
315.500	-10.398	0.100
315.600	-0.954	0.100
315.700	15.949	0.100
315.800	6.444	0.100
315.900	-7.610	0.100
316.000	6.648	0.100
316.100	-3.282	0.100
316.200	6.108	0.100
316.300	-10.189	0.100
316.400	-1.692	0.100
316.500	0.761	0.100
316.600	-10.385	0.100
316.700	-9.463	0.100
316.800	-2.529	0.100
316.900	15.311	0.100
317.000	-1.989	0.100
317.100	3.258	0.100
317.200	-2.258	0.100
317.300	4.453	0.100
317.400	-5.207	0.100
317.500	-1.684	0.100
317.600	6.747	0.100
317.700	4.586	0.100
317.800	-4.010	0.100
317.900	6.840	0.100
318.000	0.911	0.100
318.100	-5.229	0.100
318.200	-2.596	0.100
318.300	-4.541	0.100
318.400	8.294	0.100
318.500	-1.456	0.100
318.600	-7.969	0.100
318.700	9.612	0.100
318.800	0.631	0.100
318.900	4.678	0.100
319.000	6.308	0.100
319.100	-0.754	0.100
319.200	-11.638	0.100
319.300	0.117	0.100
319.400	10.467	0.100
319.500	-2.747	0.100
319.600	16.876	0.100
319.700	1.279	0.100
319.800	1.179	0.100
319.900	-4.885	0.100
320.000	-5.064	0.100
320.100	0.665	0.100
320.200	7.490	0.100
320.300	-7.297	0.100
320.400	-5.003	0.100
320.500	13.513	0.100
320.600	-6.571	0.100
320.700	0.214	0.100
320.800	9.438	0.100
320.900	-16.529	0.100
321.000	-4.103	0.100
321.100	2.057	0.100
321.200	13.354	0.100
321.300	4.384	0.100
321.400	3.850	0.100
321.500	6.433	0.100
321.600	0.309	0.100
321.700	-4.715	0.100
321.800	-8.481	0.100
321.900	3.040	0.100
322.000	0.031	0.100
322.100	5.853	0.100
322.200	17.360	0.100
322.300	4.133	0.100
322.400	-12.375	0.100
322.500	-10.968	0.100
322.600	9.058	0.100
322.700	4.617	0.100
322.800	-8.717	0.100
322.900	5.051	0.100
323.000	-5.531	0.100
323.100	14.833	0.100
323.200	-8.129	0.100
323.300	-7.905	0.100
323.400	-1.119	0.100
323.500	-8.282	0.100
323.600	4.517	0.100
323.700	-9.734	0.100
323.800	3.288	0.100
323.900	-13.656	0.100
324.000	-12.018	0.100
324.100	-0.480	0.100
324.200	5.218	0.100
324.300	11.443	0.100
324.400	-1.142	0.100
324.500	-0.354	0.100
324.600	1.795	0.100
324.700	0.410	0.100
324.800	7.128	0.100
324.900	-1.374	0.100
325.000	-6.713	0.100
325.100	-0.234	0.100
325.200	0.284	0.100
325.300	1.703	0.100
325.400	-14.921	0.100
325.500	11.207	0.100
325.600	2.458	0.100
325.700	3.920	0.100
325.800	-9.623	0.100
325.900	-4.479	0.100
326.000	-8.326	0.100
326.100	10.239	0.100
326.200	12.259	0.100
326.300	-8.501	0.100
326.400	6.619	0.100
326.500	-6.793	0.100
326.600	2.590	0.100
326.700	7.890	0.100
326.800	3.214	0.100
326.900	-17.880	0.100
327.000	-9.429	0.100
327.100	4.942	0.100
327.200	-6.340	0.100
327.300	-0.437	0.100
327.400	8.534	0.100
327.500	-37.327	0.100
327.600	-20.002	0.100
327.700	1.026	0.100
327.800	-4.158	0.100
327.900	6.477	0.100
328.000	1.443	0.100
328.100	-1.584	0.100
328.200	9.232	0.100
328.300	-3.492	0.100
328.400	9.790	0.100
328.500	0.944	0.100
328.600	-17.863	0.100
328.700	1.911	0.100
328.800	-7.445	0.100
328.900	2.496	0.100
329.000	-7.162	0.100
329.100	-2.527	0.100
329.200	0.128	0.100
329.300	9.921	0.100
329.400	4.981	0.100
329.500	0.907	0.100
329.600	-15.814	0.100
329.700	2.743	0.100
329.800	0.506	0.100
329.900	0.981	0.100
330.000	-2.045	0.100
330.100	0.677	0.100
330.200	-16.096	0.100
330.300	-10.702	0.100
330.400	12.742	0.100
330.500	14.960	0.100
330.600	10.835	0.100
330.700	10.834	0.100
330.800	5.154	0.100
330.900	7.070	0.100
331.000	14.201	0.100
331.100	1.077	0.100
331.200	5.771	0.100
331.300	14.637	0.100
331.400	15.560	0.100
331.500	13.116	0.100
331.600	16.141	0.100
331.700	4.189	0.100
331.800	9.347	0.100
331.900	19.198	0.100
332.000	13.129	0.100
332.100	11.577	0.100
332.200	26.921	0.100
332.300	10.975	0.100
332.400	17.129	0.100
332.500	24.129	0.100
332.600	29.230	0.100
332.700	15.093	0.100
332.800	29.516	0.100
332.900	13.102	0.100
333.000	21.030	0.100
333.100	35.085	0.100
333.200	28.255	0.100
333.300	8.316	0.100
333.400	30.020	0.100
333.500	35.839	0.100
333.600	10.883	0.100
333.700	38.911	0.100
333.800	37.465	0.100
333.900	37.223	0.100
334.000	24.471	0.100
334.100	25.913	0.100
334.200	6.501	0.100
334.300	13.796	0.100
334.400	15.049	0.100
334.500	28.300	0.100
334.600	36.257	0.100
334.700	31.430	0.100
334.800	39.319	0.100
334.900	12.307	0.100
335.000	34.394	0.100
335.100	48.903	0.100
335.200	34.620	0.100
335.300	36.963	0.100
335.400	33.716	0.100
335.500	29.342	0.100
335.600	31.282	0.100
335.700	29.443	0.100
335.800	30.704	0.100
335.900	23.310	0.100
336.000	38.701	0.100
336.100	26.051	0.100
336.200	26.700	0.100
336.300	40.654	0.100
336.400	27.058	0.100
336.500	52.799	0.100
336.600	41.984	0.100
336.700	35.340	0.100
336.800	25.125	0.100
336.900	40.971	0.100
337.000	29.401	0.100
337.100	31.718	0.100
337.200	22.566	0.100
337.300	43.420	0.100
337.400	36.241	0.100
337.500	42.421	0.100
337.600	54.153	0.100
337.700	23.297	0.100
337.800	35.064	0.100
337.900	36.943	0.100
338.000	34.750	0.100
338.100	35.282	0.100
338.200	39.495	0.100
338.300	45.986	0.100
338.400	23.128	0.100
338.500	37.156	0.100
338.600	33.928	0.100
338.700	39.675	0.100
338.800	37.781	0.100
338.900	35.423	0.100
339.000	44.768	0.100
339.100	57.035	0.100
339.200	29.451	0.100
339.300	31.374	0.100
339.400	42.990	0.100
339.500	52.796	0.100
339.600	39.998	0.100
339.700	33.451	0.100
339.800	33.747	0.100
339.900	35.875	0.100
340.000	26.273	0.100
340.100	42.928	0.100
340.200	43.068	0.100
340.300	46.821	0.100
340.400	31.359	0.100
340.500	40.520	0.100
340.600	37.181	0.100
340.700	37.830	0.100
340.800	49.374	0.100
340.900	35.750	0.100
341.000	46.298	0.100
341.100	54.297	0.100
341.200	44.096	0.100
341.300	37.953	0.100
341.400	37.386	0.100
341.500	34.933	0.100
341.600	41.092	0.100
341.700	51.280	0.100
341.800	42.178	0.100
341.900	43.612	0.100
342.000	56.080	0.100
342.100	47.333	0.100
342.200	47.756	0.100
342.300	48.191	0.100
342.400	51.991	0.100
342.500	48.746	0.100
342.600	41.465	0.100
342.700	33.655	0.100
342.800	41.910	0.100
342.900	51.219	0.100
343.000	61.892	0.100
343.100	37.429	0.100
343.200	56.441	0.100
343.300	40.385	0.100
343.400	39.620	0.100
343.500	52.205	0.100
343.600	45.425	0.100
343.700	51.683	0.100
343.800	40.352	0.100
343.900	51.965	0.100
344.000	71.843	0.100
344.100	43.817	0.100
344.200	53.112	0.100
344.300	41.603	0.100
344.400	53.751	0.100
344.500	44.925	0.100
344.600	52.682	0.100
344.700	58.973	0.100
344.800	46.489	0.100
344.900	63.236	0.100
345.000	51.452	0.100
345.100	47.120	0.100
345.200	61.009	0.100
345.300	51.314	0.100
345.400	55.632	0.100
345.500	54.837	0.100
345.600	54.953	0.100
345.700	57.380	0.100
345.800	58.663	0.100
345.900	54.863	0.100
346.000	57.737	0.100
346.100	54.572	0.100
346.200	44.030	0.100
346.300	47.057	0.100
346.400	68.394	0.100
346.500	35.759	0.100
346.600	49.140	0.100
346.700	37.639	0.100
346.800	45.727	0.100
346.900	55.180	0.100
347.000	67.498	0.100
347.100	61.402	0.100
347.200	62.701	0.100
347.300	71.225	0.100
347.400	66.842	0.100
347.500	58.229	0.100
347.600	43.597	0.100
347.700	63.497	0.100
347.800	53.283	0.100
347.900	60.624	0.100
348.000	64.401	0.100
348.100	49.453	0.100
348.200	62.462	0.100
348.300	42.188	0.100
348.400	42.808	0.100
348.500	65.073	0.100
348.600	71.491	0.100
348.700	67.099	0.100
348.800	54.049	0.100
348.900	54.234	0.100
349.000	59.085	0.100
349.100	61.384	0.100
349.200	59.310	0.100
349.300	73.077	0.100
349.400	48.504	0.100
349.500	66.857	0.100
349.600	60.093	0.100
349.700	62.428	0.100
349.800	60.643	0.100
349.900	53.078	0.100
350.000	38.545	0.100
350.100	51.663	0.100
350.200	62.556	0.100
350.300	60.671	0.100
350.400	57.684	0.100
350.500	62.233	0.100
350.600	75.593	0.100
350.700	69.272	0.100
350.800	51.823	0.100
350.900	64.364	0.100
351.000	60.334	0.100
351.100	54.537	0.100
351.200	40.315	0.100
351.300	82.480	0.100
351.400	61.613	0.100
351.500	74.168	0.100
351.600	47.204	0.100
351.700	79.348	0.100
351.800	70.107	0.100
351.900	54.259	0.100
352.000	55.689	0.100
352.100	74.168	0.100
352.200	60.297	0.100
352.300	75.099	0.100
352.400	69.330	0.100
352.500	55.881	0.100
352.600	58.757	0.100
352.700	58.119	0.100
352.800	75.174	0.100
352.900	72.869	0.100
353.000	60.000	0.100
353.100	68.645	0.100
353.200	73.945	0.100
353.300	80.241	0.100
353.400	72.679	0.100
353.500	54.682	0.100
353.600	77.851	0.100
353.700	67.188	0.100
353.800	60.275	0.100
353.900	63.744	0.100
354.000	73.725	0.100
354.100	65.262	0.100
354.200	69.796	0.100
354.300	64.628	0.100
354.400	70.733	0.100
354.500	78.153	0.100
354.600	76.839	0.100
354.700	61.985	0.100
354.800	66.660	0.100
354.900	74.110	0.100
355.000	70.561	0.100
355.100	54.252	0.100
355.200	81.829	0.100
355.300	83.557	0.100
355.400	77.396	0.100
355.500	68.764	0.100
355.600	74.679	0.100
355.700	69.650	0.100
355.800	87.125	0.100
355.900	64.386	0.100
356.000	59.370	0.100
356.100	56.618	0.100
356.200	77.125	0.100
356.300	66.314	0.100
356.400	64.678	0.100
356.500	73.670	0.100
356.600	69.008	0.100
356.700	81.866	0.100
356.800	67.122	0.100
356.900	64.159	0.100
357.000	66.931	0.100
357.100	76.365	0.100
357.200	77.330	0.100
357.300	72.861	0.100
357.400	73.600	0.100
357.500	62.509	0.100
357.600	69.616	0.100
357.700	52.667	0.100
357.800	77.407	0.100
357.900	76.551	0.100
358.000	67.012	0.100
358.100	67.977	0.100
358.200	81.301	0.100
358.300	58.730	0.100
358.400	75.763	0.100
358.500	95.220	0.100
358.600	84.349	0.100
358.700	69.331	0.100
358.800	80.135	0.100
358.900	88.462	0.100
359.000	70.018	0.100
359.100	71.169	0.100
359.200	80.527	0.100
359.300	60.761	0.100
359.400	71.580	0.100
359.500	63.256	0.100
359.600	68.442	0.100
359.700	79.516	0.100
359.800	83.525	0.100
359.900	80.981	0.100
360.000	77.214	0.100
360.100	76.251	0.100
360.200	70.755	0.100
360.300	61.110	0.100
360.400	78.983	0.100
360.500	87.668	0.100
360.600	74.561	0.100
360.700	70.296	0.100
360.800	58.951	0.100
360.900	86.889	0.100
361.000	73.897	0.100
361.100	77.732	0.100
361.200	94.217	0.100
361.300	83.837	0.100
361.400	82.610	0.100
361.500	80.014	0.100
361.600	77.577	0.100
361.700	78.449	0.100
361.800	51.977	0.100
361.900	66.536	0.100
362.000	86.536	0.100
362.100	84.064	0.100
362.200	80.191	0.100
362.300	82.752	0.100
362.400	69.597	0.100
362.500	90.998	0.100
362.600	71.375	0.100
362.700	83.003	0.100
362.800	91.346	0.100
362.900	71.502	0.100
363.000	79.595	0.100
363.100	83.066	0.100
363.200	95.586	0.100
363.300	75.515	0.100
363.400	82.199	0.100
363.500	81.610	0.100
363.600	70.457	0.100
363.700	79.924	0.100
363.800	84.678	0.100
363.900	71.060	0.100
364.000	73.366	0.100
364.100	67.231	0.100
364.200	83.949	0.100
364.300	92.150	0.100
364.400	76.576	0.100
364.500	72.671	0.100
364.600	90.214	0.100
364.700	92.990	0.100
364.800	75.783	0.100
364.900	76.791	0.100
365.000	71.440	0.100
365.100	77.037	0.100
365.200	86.203	0.100
365.300	74.798	0.100
365.400	84.478	0.100
365.500	81.230	0.100
365.600	83.054	0.100
365.700	86.884	0.100
365.800	83.281	0.100
365.900	87.023	0.100
366.000	81.236	0.100
366.100	74.069	0.100
366.200	91.974	0.100
366.300	73.402	0.100
366.400	86.452	0.100
366.500	98.580	0.100
366.600	93.374	0.100
366.700	83.244	0.100
366.800	70.920	0.100
366.900	72.280	0.100
367.000	79.682	0.100
367.100	88.061	0.100
367.200	73.292	0.100
367.300	83.933	0.100
367.400	92.452	0.100
367.500	83.706	0.100
367.600	80.064	0.100
367.700	81.988	0.100
367.800	70.593	0.100
367.900	93.471	0.100
368.000	82.038	0.100
368.100	78.418	0.100
368.200	75.118	0.100
368.300	81.531	0.100
368.400	78.102	0.100
368.500	91.203	0.100
368.600	86.481	0.100
368.700	74.464	0.100
368.800	69.177	0.100
368.900	93.004	0.100
369.000	79.134	0.100
369.100	82.710	0.100
369.200	99.060	0.100
369.300	84.298	0.100
369.400	83.687	0.100
369.500	78.250	0.100
369.600	76.518	0.100
369.700	84.934	0.100
369.800	87.261	0.100
369.900	67.215	0.100
370.000	80.701	0.100
370.100	87.471	0.100
370.200	84.817	0.100
370.300	75.000	0.100
370.400	91.516	0.100
370.500	89.542	0.100
370.600	77.725	0.100
370.700	91.021	0.100
370.800	99.780	0.100
370.900	71.728	0.100
371.000	78.544	0.100
371.100	98.622	0.100
371.200	79.844	0.100
371.300	87.077	0.100
371.400	94.449	0.100
371.500	75.197	0.100
371.600	92.355	0.100
371.700	92.082	0.100
371.800	90.846	0.100
371.900	90.961	0.100
372.000	87.709	0.100
372.100	81.394	0.100
372.200	78.307	0.100
372.300	82.084	0.100
372.400	92.891	0.100
372.500	83.683	0.100
372.600	79.171	0.100
372.700	91.470	0.100
372.800	79.594	0.100
372.900	94.991	0.100
373.000	75.749	0.100
373.100	87.023	0.100
373.200	86.548	0.100
373.300	76.493	0.100
373.400	78.353	0.100
373.500	91.337	0.100
373.600	83.317	0.100
373.700	101.132	0.100
373.800	82.898	0.100
373.900	91.374	0.100
374.000	87.020	0.100
374.100	90.032	0.100
374.200	74.578	0.100
374.300	91.518	0.100
374.400	74.899	0.100
374.500	89.050	0.100
374.600	89.979	0.100
374.700	85.583	0.100
374.800	78.791	0.100
374.900	88.302	0.100
375.000	84.056	0.100
375.100	82.317	0.100
375.200	84.425	0.100
375.300	83.198	0.100
375.400	89.691	0.100
375.500	86.371	0.100
375.600	80.517	0.100
375.700	94.527	0.100
375.800	71.694	0.100
375.900	101.761	0.100
376.000	79.776	0.100
376.100	89.723	0.100
376.200	91.274	0.100
376.300	87.717	0.100
376.400	90.341	0.100
376.500	84.188	0.100
376.600	91.335	0.100
376.700	84.934	0.100
376.800	93.786	0.100
376.900	84.380	0.100
377.000	77.412	0.100
377.100	94.863	0.100
377.200	90.850	0.100
377.300	98.332	0.100
377.400	77.272	0.100
377.500	61.530	0.100
377.600	78.372	0.100
377.700	79.703	0.100
377.800	81.670	0.100
377.900	85.514	0.100
378.000	86.535	0.100
378.100	91.997	0.100
378.200	89.620	0.100
378.300	79.199	0.100
378.400	74.512	0.100
378.500	80.545	0.100
378.600	87.072	0.100
378.700	96.201	0.100
378.800	63.343	0.100
378.900	94.906	0.100
379.000	93.515	0.100
379.100	100.177	0.100
379.200	76.721	0.100
379.300	87.156	0.100
379.400	81.067	0.100
379.500	90.427	0.100
379.600	87.427	0.100
379.700	87.475	0.100
379.800	83.758	0.100
379.900	103.850	0.100
380.000	94.953	0.100
380.100	71.519	0.100
380.200	81.850	0.100
380.300	85.330	0.100
380.400	73.866	0.100
380.500	94.738	0.100
380.600	68.047	0.100
380.700	87.027	0.100
380.800	91.520	0.100
380.900	85.276	0.100
381.000	93.192	0.100
381.100	86.121	0.100
381.200	82.476	0.100
381.300	97.994	0.100
381.400	87.256	0.100
381.500	77.098	0.100
381.600	92.155	0.100
381.700	74.887	0.100
381.800	96.251	0.100
381.900	91.189	0.100
382.000	76.924	0.100
382.100	88.218	0.100
382.200	92.342	0.100
382.300	90.345	0.100
382.400	83.498	0.100
382.500	85.240	0.100
382.600	94.071	0.100
382.700	85.209	0.100
382.800	69.461	0.100
382.900	80.108	0.100
383.000	89.455	0.100
383.100	85.998	0.100
383.200	97.419	0.100
383.300	67.859	0.100
383.400	97.969	0.100
383.500	92.333	0.100
383.600	94.969	0.100
383.700	77.181	0.100
383.800	81.438	0.100
383.900	81.571	0.100
384.000	101.086	0.100
384.100	73.012	0.100
384.200	90.274	0.100
384.300	87.288	0.100
384.400	89.196	0.100
384.500	92.676	0.100
384.600	87.118	0.100
384.700	91.347	0.100
384.800	71.962	0.100
384.900	83.796	0.100
385.000	85.118	0.100
385.100	93.477	0.100
385.200	91.667	0.100
385.300	96.137	0.100
385.400	82.786	0.100
385.500	88.263	0.100
385.600	78.686	0.100
385.700	84.520	0.100
385.800	88.231	0.100
385.900	86.299	0.100
386.000	68.163	0.100
386.100	84.960	0.100
386.200	81.427	0.100
386.300	80.751	0.100
386.400	82.149	0.100
386.500	89.282	0.100
386.600	98.440	0.100
386.700	78.776	0.100
386.800	80.559	0.100
386.900	83.726	0.100
387.000	89.988	0.100
387.100	75.059	0.100
387.200	88.637	0.100
387.300	88.681	0.100
387.400	89.619	0.100
387.500	78.896	0.100
387.600	82.362	0.100
387.700	77.138	0.100
387.800	90.370	0.100
387.900	101.002	0.100
388.000	94.309	0.100
388.100	90.287	0.100
388.200	87.047	0.100
388.300	90.368	0.100
388.400	81.485	0.100
388.500	93.851	0.100
388.600	93.100	0.100
388.700	83.001	0.100
388.800	68.092	0.100
388.900	93.075	0.100
389.000	105.121	0.100
389.100	86.416	0.100
389.200	82.446	0.100
389.300	78.210	0.100
389.400	93.443	0.100
389.500	98.233	0.100
389.600	98.869	0.100
389.700	79.914	0.100
389.800	82.411	0.100
389.900	87.322	0.100
390.000	72.136	0.100
390.100	84.076	0.100
390.200	85.837	0.100
390.300	80.379	0.100
390.400	85.939	0.100
390.500	69.916	0.100
390.600	82.832	0.100
390.700	75.063	0.100
390.800	77.380	0.100
390.900	80.755	0.100
391.000	80.360	0.100
391.100	60.614	0.100
391.200	80.238	0.100
391.300	77.053	0.100
391.400	74.467	0.100
391.500	71.070	0.100
391.600	74.187	0.100
391.700	83.901	0.100
391.800	79.356	0.100
391.900	74.338	0.100
392.000	69.386	0.100
392.100	73.552	0.100
392.200	62.797	0.100
392.300	67.612	0.100
392.400	58.769	0.100
392.500	70.674	0.100
392.600	54.411	0.100
392.700	67.842	0.100
392.800	68.087	0.100
392.900	57.354	0.100
393.000	54.902	0.100
393.100	50.964	0.100
393.200	52.492	0.100
393.300	64.979	0.100
393.400	60.020	0.100
393.500	74.476	0.100
393.600	52.328	0.100
393.700	55.226	0.100
393.800	54.235	0.100
393.900	53.044	0.100
394.000	40.574	0.100
394.100	50.750	0.100
394.200	45.951	0.100
394.300	45.432	0.100
394.400	31.669	0.100
394.500	70.077	0.100
394.600	57.036	0.100
394.700	55.474	0.100
394.800	45.524	0.100
394.900	38.282	0.100
395.000	39.250	0.100
395.100	36.404	0.100
395.200	38.561	0.100
395.300	45.803	0.100
395.400	51.143	0.100
395.500	62.974	0.100
395.600	62.530	0.100
395.700	44.173	0.100
395.800	43.009	0.100
395.900	31.608	0.100
396.000	49.707	0.100
396.100	37.375	0.100
396.200	42.653	0.100
396.300	43.293	0.100
396.400	28.978	0.100
396.500	36.974	0.100
396.600	36.992	0.100
396.700	39.825	0.100
396.800	32.075	0.100
396.900	46.310	0.100
397.000	45.868	0.100
397.100	28.283	0.100
397.200	19.988	0.100
397.300	43.945	0.100
397.400	37.881	0.100
397.500	28.999	0.100
397.600	34.317	0.100
397.700	45.769	0.100
397.800	49.401	0.100
397.900	31.801	0.100
398.000	35.147	0.100
398.100	40.208	0.100
398.200	19.762	0.100
398.300	36.889	0.100
398.400	24.448	0.100
398.500	15.341	0.100
398.600	20.667	0.100
398.700	20.974	0.100
398.800	2.279	0.100
398.900	39.743	0.100
399.000	44.920	0.100
399.100	19.235	0.100
399.200	50.359	0.100
399.300	26.111	0.100
399.400	26.800	0.100
399.500	24.740	0.100
399.600	39.202	0.100
399.700	27.995	0.100
399.800	30.330	0.100
399.900	19.104	0.100
400.000	5.126	0.100
400.100	20.092	0.100
400.200	31.530	0.100
400.300	33.113	0.100
400.400	33.909	0.100
400.500	22.456	0.100
400.600	31.198	0.100
400.700	29.831	0.100
400.800	34.656	0.100
400.900	13.377	0.100
401.000	15.097	0.100
401.100	24.587	0.100
401.200	34.757	0.100
401.300	27.732	0.100
401.400	15.340	0.100
401.500	16.204	0.100
401.600	37.570	0.100
401.700	25.081	0.100
401.800	28.012	0.100
401.900	27.375	0.100
402.000	27.543	0.100
402.100	13.445	0.100
402.200	23.887	0.100
402.300	22.143	0.100
402.400	34.553	0.100
402.500	23.753	0.100
402.600	40.733	0.100
402.700	17.535	0.100
402.800	31.801	0.100
402.900	24.569	0.100
403.000	17.132	0.100
403.100	20.449	0.100
403.200	6.789	0.100
403.300	30.316	0.100
403.400	15.306	0.100
403.500	21.058	0.100
403.600	29.016	0.100
403.700	20.034	0.100
403.800	15.571	0.100
403.900	20.586	0.100
404.000	25.404	0.100
404.100	18.100	0.100
404.200	6.796	0.100
404.300	9.345	0.100
404.400	22.580	0.100
404.500	28.959	0.100
404.600	28.874	0.100
404.700	10.947	0.100
404.800	21.146	0.100
404.900	16.083	0.100
405.000	11.663	0.100
405.100	15.257	0.100
405.200	23.850	0.100
405.300	11.961	0.100
405.400	26.111	0.100
405.500	12.250	0.100
405.600	21.538	0.100
405.700	25.165	0.100
405.800	10.399	0.100
405.900	11.963	0.100
406.000	20.550	0.100
406.100	7.018	0.100
406.200	21.787	0.100
406.300	16.661	0.100
406.400	18.998	0.100
406.500	14.061	0.100
406.600	25.652	0.100
406.700	12.274	0.100
406.800	23.754	0.100
406.900	20.485	0.100
407.000	10.861	0.100
407.100	7.134	0.100
407.200	4.984	0.100
407.300	20.618	0.100
407.400	19.395	0.100
407.500	11.459	0.100
407.600	-1.171	0.100
407.700	-1.153	0.100
407.800	19.666	0.100
407.900	19.901	0.100
408.000	12.237	0.100
408.100	26.160	0.100
408.200	17.002	0.100
408.300	24.113	0.100
408.400	29.130	0.100
408.500	7.821	0.100
408.600	-4.329	0.100
408.700	23.759	0.100
408.800	10.914	0.100
408.900	8.108	0.100
409.000	11.738	0.100
409.100	12.067	0.100
409.200	9.156	0.100
409.300	11.728	0.100
409.400	17.198	0.100
409.500	7.423	0.100
409.600	10.948	0.100
409.700	5.013	0.100
409.800	10.199	0.100
409.900	8.484	0.100
410.000	2.876	0.100
410.100	12.327	0.100
410.200	13.904	0.100
410.300	18.480	0.100
410.400	10.259	0.100
410.500	-0.149	0.100
410.600	5.530	0.100
410.700	17.950	0.100
410.800	15.222	0.100
410.900	6.566	0.100
411.000	0.851	0.100
411.100	8.231	0.100
411.200	7.929	0.100
411.300	6.626	0.100
411.400	3.822	0.100
411.500	5.367	0.100
411.600	-1.028	0.100
411.700	-3.747	0.100
411.800	16.364	0.100
411.900	17.422	0.100
412.000	24.565	0.100
412.100	24.409	0.100
412.200	17.226	0.100
412.300	3.373	0.100
412.400	8.322	0.100
412.500	1.683	0.100
412.600	16.596	0.100
412.700	11.334	0.100
412.800	8.382	0.100
412.900	9.631	0.100
413.000	8.398	0.100
413.100	9.098	0.100
413.200	0.539	0.100
413.300	-11.727	0.100
413.400	15.315	0.100
413.500	17.968	0.100
413.600	10.826	0.100
413.700	-1.563	0.100
413.800	-1.658	0.100
413.900	0.219	0.100
414.000	-4.050	0.100
414.100	0.467	0.100
414.200	8.952	0.100
414.300	-4.518	0.100
414.400	8.986	0.100
414.500	18.654	0.100
414.600	11.801	0.100
414.700	-0.157	0.100
414.800	3.694	0.100
414.900	23.973	0.100
415.000	7.426	0.100
415.100	13.048	0.100
415.200	0.684	0.100
415.300	-1.140	0.100
415.400	1.552	0.100
415.500	-1.219	0.100
415.600	11.494	0.100
415.700	6.898	0.100
415.800	4.501	0.100
415.900	7.480	0.100
416.000	-3.519	0.100
416.100	1.558	0.100
416.200	-7.248	0.100
416.300	-10.945	0.100
416.400	-0.451	0.100
416.500	9.983	0.100
416.600	-10.645	0.100
416.700	9.447	0.100
416.800	9.604	0.100
416.900	2.269	0.100
417.000	4.036	0.100
417.100	23.724	0.100
417.200	-1.747	0.100
417.300	-3.680	0.100
417.400	-18.747	0.100
417.500	12.340	0.100
417.600	0.815	0.100
417.700	2.223	0.100
417.800	0.496	0.100
417.900	-3.543	0.100
418.000	20.642	0.100
418.100	9.397	0.100
418.200	-6.846	0.100
418.300	1.878	0.100
418.400	-6.809	0.100
418.500	0.566	0.100
418.600	2.693	0.100
418.700	2.864	0.100
418.800	-12.592	0.100
418.900	-1.872	0.100
419.000	-4.793	0.100
419.100	1.682	0.100
419.200	7.242	0.100
419.300	-2.368	0.100
419.400	-5.129	0.100
419.500	6.756	0.100
419.600	1.724	0.100
419.700	-3.270	0.100
419.800	1.836	0.100
419.900	11.663	0.100
420.000	1.759	0.100
420.100	-5.520	0.100
420.200	6.016	0.100
420.300	1.993	0.100
420.400	-1.850	0.100
420.500	-8.071	0.100
420.600	-7.735	0.100
420.700	2.026	0.100
420.800	-4.613	0.100
420.900	-5.437	0.100
421.000	5.944	0.100
421.100	-19.603	0.100
421.200	-3.434	0.100
421.300	3.261	0.100
421.400	-8.074	0.100
421.500	-8.940	0.100
421.600	4.864	0.100
421.700	3.305	0.100
421.800	-5.820	0.100
421.900	2.606	0.100
422.000	4.542	0.100
422.100	-5.222	0.100
422.200	-9.373	0.100
422.300	1.336	0.100
422.400	-16.451	0.100
422.500	-3.362	0.100
422.600	-1.646	0.100
422.700	0.719	0.100
422.800	-9.121	0.100
422.900	-9.086	0.100
423.000	-11.840	0.100
423.100	-4.812	0.100
423.200	-9.169	0.100
423.300	0.388	0.100
423.400	-16.200	0.100
423.500	-3.148	0.100
423.600	0.670	0.100
423.700	-10.670	0.100
423.800	4.846	0.100
423.900	-3.659	0.100
424.000	-10.414	0.100
424.100	-13.084	0.100
424.200	-10.858	0.100
424.300	-4.872	0.100
424.400	-6.971	0.100
424.500	1.305	0.100
424.600	-13.756	0.100
424.700	2.734	0.100
424.800	0.792	0.100
424.900	-11.684	0.100
425.000	6.971	0.100
425.100	-9.839	0.100
425.200	0.923	0.100
425.300	1.301	0.100
425.400	-7.571	0.100
425.500	-0.780	0.100
425.600	-5.973	0.100
425.700	-8.246	0.100
425.800	-11.131	0.100
425.900	-13.128	0.100
426.000	-10.749	0.100
426.100	-15.708	0.100
426.200	-10.470	0.100
426.300	-9.424	0.100
426.400	-10.977	0.100
426.500	-9.960	0.100
426.600	-9.767	0.100
426.700	-4.495	0.100
426.800	-13.171	0.100
426.900	-14.641	0.100
427.000	-18.440	0.100
427.100	-12.118	0.100
427.200	10.745	0.100
427.300	-9.200	0.100
427.400	-8.102	0.100
427.500	-17.763	0.100
427.600	-3.577	0.100
427.700	-6.199	0.100
427.800	-2.784	0.100
427.900	-17.565	0.100
428.000	4.441	0.100
428.100	-26.581	0.100
428.200	-9.688	0.100
428.300	-21.544	0.100
428.400	-19.276	0.100
428.500	8.944	0.100
428.600	-10.325	0.100
428.700	-19.622	0.100
428.800	-19.870	0.100
428.900	-13.499	0.100
429.000	-16.604	0.100
429.100	-16.319	0.100
429.200	-5.199	0.100
429.300	-1.814	0.100
429.400	-9.700	0.100
429.500	-5.857	0.100
429.600	-19.882	0.100
429.700	-5.641	0.100
429.800	-22.098	0.100
429.900	-5.472	0.100
430.000	-27.606	0.100
430.100	-12.840	0.100
430.200	-24.726	0.100
430.300	-8.915	0.100
430.400	-8.674	0.100
430.500	-8.903	0.100
430.600	-0.216	0.100
430.700	-7.851	0.100
430.800	-5.995	0.100
430.900	-15.356	0.100
431.000	-28.186	0.100
431.100	-5.327	0.100
431.200	-3.543	0.100
431.300	-11.414	0.100
431.400	-30.486	0.100
431.500	-8.687	0.100
431.600	-6.436	0.100
431.700	-3.069	0.100
431.800	-14.954	0.100
431.900	-21.379	0.100
432.000	-0.908	0.100
432.100	-13.850	0.100
432.200	-2.780	0.100
432.300	-4.734	0.100
432.400	-30.080	0.100
432.500	-36.026	0.100
432.600	-15.848	0.100
432.700	-12.167	0.100
432.800	-5.729	0.100
432.900	-10.949	0.100
433.000	-18.650	0.100
433.100	-12.596	0.100
433.200	-16.360	0.100
433.300	-21.532	0.100
433.400	-16.395	0.100
433.500	-18.810	0.100
433.600	-13.195	0.100
433.700	-25.718	0.100
433.800	-11.684	0.100
433.900	-15.418	0.100
434.000	-8.873	0.100
434.100	-11.581	0.100
434.200	-24.418	0.100
434.300	-27.383	0.100
434.400	-21.795	0.100
434.500	-21.049	0.100
434.600	-17.386	0.100
434.700	-15.973	0.100
434.800	-18.647	0.100
434.900	-20.587	0.100
435.000	-14.681	0.100
435.100	-13.750	0.100
435.200	-13.345	0.100
435.300	-8.826	0.100
435.400	-0.390	0.100
435.500	-24.600	0.100
435.600	-32.858	0.100
435.700	-19.871	0.100
435.800	-8.641	0.100
435.900	-27.006	0.100
436.000	-18.548	0.100
436.100	-22.947	0.100
436.200	-7.082	0.100
436.300	-11.974	0.100
436.400	-17.165	0.100
436.500	-22.632	0.100
436.600	-22.067	0.100
436.700	-14.042	0.100
436.800	-11.396	0.100
436.900	-19.487	0.100
437.000	-24.876	0.100
437.100	-21.719	0.100
437.200	-11.002	0.100
437.300	-28.579	0.100
437.400	-25.311	0.100
437.500	-19.390	0.100
437.600	-25.151	0.100
437.700	-13.911	0.100
437.800	-22.176	0.100
437.900	-20.294	0.100
438.000	-13.786	0.100
438.100	-8.098	0.100
438.200	-23.241	0.100
438.300	-13.284	0.100
438.400	-22.180	0.100
438.500	-16.263	0.100
438.600	-11.639	0.100
438.700	-22.633	0.100
438.800	-23.531	0.100
438.900	-14.592	0.100
439.000	-34.455	0.100
439.100	-27.425	0.100
439.200	-2.291	0.100
439.300	-22.521	0.100
439.400	-25.399	0.100
439.500	-18.077	0.100
439.600	-18.996	0.100
439.700	-28.884	0.100
439.800	-23.096	0.100
439.900	-20.391	0.100
440.000	-23.678	0.100
440.100	-39.023	0.100
440.200	-22.633	0.100
440.300	-18.076	0.100
440.400	-12.487	0.100
440.500	-22.188	0.100
440.600	-16.340	0.100
440.700	-21.631	0.100
440.800	-35.440	0.100
440.900	-36.471	0.100
441.000	-7.105	0.100
441.100	-22.455	0.100
441.200	-19.660	0.100
441.300	-7.545	0.100
441.400	-3.800	0.100
441.500	-28.937	0.100
441.600	-19.243	0.100
441.700	-25.405	0.100
441.800	-20.717	0.100
441.900	-29.320	0.100
442.000	-24.861	0.100
442.100	-23.975	0.100
442.200	-24.320	0.100
442.300	-23.680	0.100
442.400	-20.171	0.100
442.500	-18.648	0.100
442.600	-37.080	0.100
442.700	-41.774	0.100
442.800	-31.089	0.100
442.900	-8.999	0.100
443.000	-15.850	0.100
443.100	-20.643	0.100
443.200	-21.631	0.100
443.300	-25.881	0.100
443.400	-26.577	0.100
443.500	-21.465	0.100
443.600	-25.747	0.100
443.700	-30.980	0.100
443.800	-11.342	0.100
443.900	-24.824	0.100
444.000	-25.948	0.100
444.100	-28.436	0.100
444.200	-43.863	0.100
444.300	-18.015	0.100
444.400	-13.047	0.100
444.500	-3.307	0.100
444.600	-24.586	0.100
444.700	-29.507	0.100
444.800	-24.359	0.100
444.900	-27.697	0.100
445.000	-23.370	0.100
445.100	-17.163	0.100
445.200	-22.902	0.100
445.300	-16.464	0.100
445.400	-18.606	0.100
445.500	-31.615	0.100
445.600	-40.197	0.100
445.700	-29.275	0.100
445.800	-27.031	0.100
445.900	-16.697	0.100
446.000	-12.341	0.100
446.100	-12.223	0.100
446.200	-15.273	0.100
446.300	-24.740	0.100
446.400	-34.213	0.100
446.500	-12.893	0.100
446.600	-22.761	0.100
446.700	-30.709	0.100
446.800	-35.577	0.100
446.900	-11.953	0.100
447.000	-25.395	0.100
447.100	-26.190	0.100
447.200	-25.389	0.100
447.300	-36.810	0.100
447.400	-26.169	0.100
447.500	-19.190	0.100
447.600	-18.684	0.100
447.700	-38.450	0.100
447.800	-30.585	0.100
447.900	-29.877	0.100
448.000	-21.311	0.100
448.100	-19.379	0.100
448.200	-19.452	0.100
448.300	-23.324	0.100
448.400	-24.415	0.100
448.500	-31.916	0.100
448.600	-21.344	0.100
448.700	-30.106	0.100
448.800	-31.681	0.100
448.900	-28.523	0.100
449.000	-44.720	0.100
449.100	-17.061	0.100
449.200	-18.068	0.100
449.300	-21.380	0.100
449.400	-18.472	0.100
449.500	-33.215	0.100
449.600	-28.745	0.100
449.700	-15.868	0.100
449.800	-16.250	0.100
449.900	-15.331	0.100
450.000	-26.679	0.100
450.100	-24.629	0.100
450.200	-30.706	0.100
450.300	-31.864	0.100
450.400	-20.935	0.100
450.500	-26.189	0.100
450.600	-28.774	0.100
450.700	-18.250	0.100
450.800	-23.663	0.100
450.900	-25.889	0.100
451.000	-33.316	0.100
451.100	-29.305	0.100
451.200	-28.342	0.100
451.300	-28.158	0.100
451.400	-28.234	0.100
451.500	-34.422	0.100
451.600	-30.056	0.100
451.700	-36.299	0.100
451.800	-28.906	0.100
451.900	-19.473	0.100
452.000	-12.264	0.100
452.100	-33.796	0.100
452.200	-31.855	0.100
452.300	-18.962	0.100
452.400	-29.157	0.100
452.500	-41.195	0.100
452.600	-27.602	0.100
452.700	-15.959	0.100
452.800	-26.329	0.100
452.900	-28.482	0.100
453.000	-33.433	0.100
453.100	-44.762	0.100
453.200	-31.132	0.100
453.300	-25.049	0.100
453.400	-20.496	0.100
453.500	-37.456	0.100
453.600	-35.101	0.100
453.700	-15.840	0.100
453.800	-28.868	0.100
453.900	-23.563	0.100
454.000	-13.933	0.100
454.100	-37.837	0.100
454.200	-31.190	0.100
454.300	-28.066	0.100
454.400	-24.897	0.100
454.500	-12.469	0.100
454.600	-29.268	0.100
454.700	-26.760	0.100
454.800	-32.724	0.100
454.900	-18.632	0.100
455.000	-19.175	0.100
455.100	-28.485	0.100
455.200	-22.500	0.100
455.300	-22.947	0.100
455.400	-35.300	0.100
455.500	-14.235	0.100
455.600	-19.523	0.100
455.700	-31.864	0.100
455.800	-24.507	0.100
455.900	-23.812	0.100
456.000	-28.344	0.100
456.100	-41.939	0.100
456.200	-44.311	0.100
456.300	-37.614	0.100
456.400	-34.927	0.100
456.500	-29.893	0.100
456.600	-27.771	0.100
456.700	-31.384	0.100
456.800	-27.833	0.100
456.900	-24.939	0.100
457.000	-48.310	0.100
457.100	-40.105	0.100
457.200	-35.107	0.100
457.300	-36.281	0.100
457.400	-6.766	0.100
457.500	-23.442	0.100
457.600	-33.328	0.100
457.700	-17.888	0.100
457.800	-40.637	0.100
457.900	-38.560	0.100
458.000	-32.448	0.100
458.100	-37.094	0.100
458.200	-38.377	0.100
458.300	-21.298	0.100
458.400	-34.930	0.100
458.500	-35.945	0.100
458.600	-25.093	0.100
458.700	-25.724	0.100
458.800	-20.316	0.100
458.900	-18.290	0.100
459.000	-24.944	0.100
459.100	-24.293	0.100
459.200	-31.184	0.100
459.300	-27.815	0.100
459.400	-17.341	0.100
459.500	-42.871	0.100
459.600	-25.856	0.100
459.700	-28.741	0.100
459.800	-40.166	0.100
459.900	-27.396	0.100
460.000	-30.049	0.100
460.100	-25.082	0.100
460.200	-34.549	0.100
460.300	-31.496	0.100
460.400	-30.233	0.100
460.500	-31.387	0.100
460.600	-26.655	0.100
460.700	-30.987	0.100
460.800	-44.498	0.100
460.900	-25.566	0.100
461.000	-37.924	0.100
461.100	-23.836	0.100
461.200	-33.281	0.100
461.300	-32.686	0.100
461.400	-28.972	0.100
461.500	-15.455	0.100
461.600	-28.643	0.100
461.700	-17.928	0.100
461.800	-35.056	0.100
461.900	-27.559	0.100
462.000	-36.025	0.100
462.100	-41.057	0.100
462.200	-40.399	0.100
462.300	-27.033	0.100
462.400	-25.783	0.100
462.500	-28.371	0.100
462.600	-31.062	0.100
462.700	-24.468	0.100
462.800	-21.986	0.100
462.900	-27.686	0.100
463.000	-49.173	0.100
463.100	-48.998	0.100
463.200	-22.882	0.100
463.300	-39.397	0.100
463.400	-31.799	0.100
463.500	-31.484	0.100
463.600	-15.754	0.100
463.700	-41.314	0.100
463.800	-35.453	0.100
463.900	-32.462	0.100
464.000	-26.962	0.100
464.100	-24.564	0.100
464.200	-30.329	0.100
464.300	-21.675	0.100
464.400	-14.211	0.100
464.500	-30.836	0.100
464.600	-30.447	0.100
464.700	-38.165	0.100
464.800	-40.661	0.100
464.900	-22.397	0.100
465.000	-37.926	0.100
465.100	-24.579	0.100
465.200	-29.843	0.100
465.300	-25.332	0.100
465.400	-33.788	0.100
465.500	-37.737	0.100
465.600	-27.262	0.100
465.700	-45.889	0.100
465.800	-30.229	0.100
465.900	-24.788	0.100
466.000	-31.786	0.100
466.100	-27.901	0.100
466.200	-37.057	0.100
466.300	-35.011	0.100
466.400	-30.079	0.100
466.500	-42.832	0.100
466.600	-31.146	0.100
466.700	-24.390	0.100
466.800	-23.866	0.100
466.900	-22.969	0.100
467.000	-20.690	0.100
467.100	-34.114	0.100
467.200	-28.906	0.100
467.300	-21.453	0.100
467.400	-41.365	0.100
467.500	-46.295	0.100
467.600	-22.548	0.100
467.700	-35.276	0.100
467.800	-32.151	0.100
467.900	-32.292	0.100
468.000	-33.702	0.100
468.100	-44.444	0.100
468.200	-34.549	0.100
468.300	-35.292	0.100
468.400	-34.410	0.100
468.500	-42.101	0.100
468.600	-21.667	0.100
468.700	-29.909	0.100
468.800	-26.424	0.100
468.900	-18.521	0.100
469.000	-40.948	0.100
469.100	-38.061	0.100
469.200	-25.868	0.100
469.300	-31.890	0.100
469.400	-37.490	0.100
469.500	-35.923	0.100
469.600	-22.692	0.100
469.700	-41.746	0.100
469.800	-23.572	0.100
469.900	-38.841	0.100
470.000	-37.262	0.100
470.100	-31.631	0.100
470.200	-20.348	0.100
470.300	-49.805	0.100
470.400	-21.528	0.100
470.500	-28.846	0.100
470.600	-30.704	0.100
470.700	-23.331	0.100
470.800	-27.442	0.100
470.900	-37.380	0.100
471.000	-28.950	0.100
471.100	-36.487	0.100
471.200	-38.601	0.100
471.300	-46.905	0.100
471.400	-33.550	0.100
471.500	-32.365	0.100
471.600	-17.898	0.100
471.700	-40.651	0.100
471.800	-35.082	0.100
471.900	-39.142	0.100
472.000	-30.593	0.100
472.100	-31.033	0.100
472.200	-40.287	0.100
472.300	-25.926	0.100
472.400	-33.720	0.100
472.500	-39.114	0.100
472.600	-30.429	0.100
472.700	-41.735	0.100
472.800	-33.603	0.100
472.900	-20.791	0.100
473.000	-30.576	0.100
473.100	-41.707	0.100
473.200	-48.127	0.100
473.300	-39.752	0.100
473.400	-36.063	0.100
473.500	-44.925	0.100
473.600	-37.555	0.100
473.700	-27.903	0.100
473.800	-29.787	0.100
473.900	-32.713	0.100
474.000	-40.920	0.100
474.100	-23.906	0.100
474.200	-54.121	0.100
474.300	-45.183	0.100
474.400	-32.078	0.100
474.500	-25.837	0.100
474.600	-31.780	0.100
474.700	-39.759	0.100
474.800	-28.969	0.100
474.900	-31.008	0.100
475.000	-29.699	0.100
475.100	-28.632	0.100
475.200	-38.617	0.100
475.300	-36.953	0.100
475.400	-29.828	0.100
475.500	-40.285	0.100
475.600	-39.757	0.100
475.700	-44.119	0.100
475.800	-41.546	0.100
475.900	-24.977	0.100
476.000	-24.879	0.100
476.100	-36.859	0.100
476.200	-23.418	0.100
476.300	-34.603	0.100
476.400	-38.725	0.100
476.500	-24.526	0.100
476.600	-40.230	0.100
476.700	-29.940	0.100
476.800	-27.518	0.100
476.900	-58.653	0.100
477.000	-30.902	0.100
477.100	-29.260	0.100
477.200	-25.457	0.100
477.300	-33.153	0.100
477.400	-38.751	0.100
477.500	-34.874	0.100
477.600	-44.864	0.100
477.700	-48.620	0.100
477.800	-33.587	0.100
477.900	-20.869	0.100
478.000	-29.292	0.100
478.100	-27.768	0.100
478.200	-27.676	0.100
478.300	-50.596	0.100
478.400	-43.866	0.100
478.500	-16.114	0.100
478.600	-44.402	0.100
478.700	-26.281	0.100
478.800	-28.580	0.100
478.900	-33.080	0.100
479.000	-37.681	0.100
479.100	-30.474	0.100
479.200	-46.268	0.100
479.300	-26.057	0.100
479.400	-25.593	0.100
479.500	-28.386	0.100
479.600	-26.680	0.100
479.700	-45.770	0.100
479.800	-32.594	0.100
479.900	-31.763	0.100
480.000	-26.971	0.100
480.100	-50.978	0.100
480.200	-41.840	0.100
480.300	-38.415	0.100
480.400	-32.569	0.100
480.500	-33.277	0.100
480.600	-31.718	0.100
480.700	-41.974	0.100
480.800	-32.372	0.100
480.900	-19.705	0.100
481.000	-26.096	0.100
481.100	-21.384	0.100
481.200	-22.013	0.100
481.300	-23.877	0.100
481.400	-18.785	0.100
481.500	-29.047	0.100
481.600	-20.908	0.100
481.700	-16.223	0.100
481.800	-14.279	0.100
481.900	-24.821	0.100
482.000	-16.378	0.100
482.100	-18.254	0.100
482.200	-20.593	0.100
482.300	0.929	0.100
482.400	1.619	0.100
482.500	-9.677	0.100
482.600	-20.700	0.100
482.700	-29.443	0.100
482.800	-10.258	0.100
482.900	-13.594	0.100
483.000	-11.507	0.100
483.100	-19.442	0.100
483.200	-0.719	0.100
483.300	-7.525	0.100
483.400	-7.901	0.100
483.500	-17.527	0.100
483.600	3.211	0.100
483.700	1.336	0.100
483.800	-10.474	0.100
483.900	-8.452	0.100
484.000	-11.769	0.100
484.100	12.422	0.100
484.200	-1.162	0.100
484.300	-6.289	0.100
484.400	1.309	0.100
484.500	-15.871	0.100
484.600	3.001	0.100
484.700	3.383	0.100
484.800	7.981	0.100
484.900	-2.219	0.100
485.000	-6.047	0.100
485.100	-16.745	0.100
485.200	1.362	0.100
485.300	9.814	0.100
485.400	-2.554	0.100
485.500	-1.480	0.100
485.600	-13.432	0.100
485.700	-6.009	0.100
485.800	-12.369	0.100
485.900	-1.225	0.100
486.000	0.468	0.100
486.100	13.004	0.100
486.200	6.836	0.100
486.300	3.325	0.100
486.400	-1.019	0.100
486.500	-4.661	0.100
486.600	-5.867	0.100
486.700	-3.602	0.100
486.800	-9.485	0.100
486.900	-1.338	0.100
487.000	9.699	0.100
487.100	1.599	0.100
487.200	8.663	0.100
487.300	-4.901	0.100
487.400	-10.052	0.100
487.500	3.109	0.100
487.600	1.521	0.100
487.700	-4.871	0.100
487.800	7.199	0.100
487.900	1.533	0.100
488.000	0.065	0.100
488.100	-2.994	0.100
488.200	1.441	0.100
488.300	-4.524	0.100
488.400	12.898	0.100
488.500	6.528	0.100
488.600	12.568	0.100
488.700	5.598	0.100
488.800	3.345	0.100
488.900	-6.410	0.100
489.000	8.515	0.100
489.100	13.260	0.100
489.200	7.410	0.100
489.300	8.384	0.100
489.400	-7.198	0.100
489.500	10.464	0.100
489.600	5.548	0.100
489.700	5.449	0.100
489.800	16.446	0.100
489.900	7.007	0.100
490.000	0.309	0.100
490.100	2.914	0.100
490.200	12.044	0.100
490.300	8.813	0.100
490.400	-0.521	0.100
490.500	7.109	0.100
490.600	7.896	0.100
490.700	8.159	0.100
490.800	11.511	0.100
490.900	8.793	0.100
491.000	2.221	0.100
491.100	3.957	0.100
491.200	19.656	0.100
491.300	-7.401	0.100
491.400	24.745	0.100
491.500	15.612	0.100
491.600	5.015	0.100
491.700	7.764	0.100
491.800	6.904	0.100
491.900	20.114	0.100
492.000	12.580	0.100
492.100	18.220	0.100
492.200	6.532	0.100
492.300	14.648	0.100
492.400	2.156	0.100
492.500	8.105	0.100
492.600	7.096	0.100
492.700	0.513	0.100
492.800	13.559	0.100
492.900	21.702	0.100
493.000	21.487	0.100
493.100	8.882	0.100
493.200	16.918	0.100
493.300	10.086	0.100
493.400	20.326	0.100
493.500	11.530	0.100
493.600	10.764	0.100
493.700	4.384	0.100
493.800	9.338	0.100
493.900	19.490	0.100
494.000	7.722	0.100
494.100	20.975	0.100
494.200	12.464	0.100
494.300	7.907	0.100
494.400	15.744	0.100
494.500	13.572	0.100
494.600	18.725	0.100
494.700	20.858	0.100
494.800	18.213	0.100
494.900	5.769	0.100
495.000	10.283	0.100
495.100	21.464	0.100
495.200	5.432	0.100
495.300	23.607	0.100
495.400	16.508	0.100
495.500	21.781	0.100
495.600	29.675	0.100
495.700	22.393	0.100
495.800	22.178	0.100
495.900	23.625	0.100
496.000	0.071	0.100
496.100	34.649	0.100
496.200	31.318	0.100
496.300	29.661	0.100
496.400	20.287	0.100
496.500	21.632	0.100
496.600	12.993	0.100
496.700	24.914	0.100
496.800	24.095	0.100
496.900	19.607	0.100
497.000	17.677	0.100
497.100	6.858	0.100
497.200	18.200	0.100
497.300	27.305	0.100
497.400	23.479	0.100
497.500	30.722	0.100
497.600	17.016	0.100
497.700	28.839	0.100
497.800	31.539	0.100
497.900	24.346	0.100
498.000	42.454	0.100
498.100	20.430	0.100
498.200	18.229	0.100
498.300	18.574	0.100
498.400	23.463	0.100
498.500	21.416	0.100
498.600	17.508	0.100
498.700	14.447	0.100
498.800	28.462	0.100
498.900	18.908	0.100
499.000	30.418	0.100
499.100	27.689	0.100
499.200	24.242	0.100
499.300	16.458	0.100
499.400	27.204	0.100
499.500	34.153	0.100
499.600	30.736	0.100
499.700	33.179	0.100
499.800	21.087	0.100
499.900	23.494	0.100
500.000	40.531	0.100
500.100	33.157	0.100
500.200	37.344	0.100
500.300	17.406	0.100
500.400	33.591	0.100
500.500	21.112	0.100
500.600	24.539	0.100
500.700	27.897	0.100
500.800	40.821	0.100
500.900	18.905	0.100
501.000	33.556	0.100
501.100	39.168	0.100
501.200	29.883	0.100
501.300	38.711	0.100
501.400	39.981	0.100
501.500	26.160	0.100
501.600	17.404	0.100
501.700	35.175	0.100
501.800	39.317	0.100
501.900	39.080	0.100
502.000	33.104	0.100
502.100	23.150	0.100
502.200	29.173	0.100
502.300	31.009	0.100
502.400	35.903	0.100
502.500	38.762	0.100
502.600	32.380	0.100
502.700	33.708	0.100
502.800	37.233	0.100
502.900	37.913	0.100
503.000	46.272	0.100
503.100	32.468	0.100
503.200	31.684	0.100
503.300	32.877	0.100
503.400	26.435	0.100
503.500	44.588	0.100
503.600	43.681	0.100
503.700	18.752	0.100
503.800	23.528	0.100
503.900	25.782	0.100
504.000	52.990	0.100
504.100	49.983	0.100
504.200	37.703	0.100
504.300	32.076	0.100
504.400	44.413	0.100
504.500	48.232	0.100
504.600	46.300	0.100
504.700	38.277	0.100
504.800	45.291	0.100
504.900	34.237	0.100
505.000	39.230	0.100
505.100	30.352	0.100
505.200	32.063	0.100
505.300	43.173	0.100
505.400	54.477	0.100
505.500	32.498	0.100
505.600	37.455	0.100
505.700	39.534	0.100
505.800	23.369	0.100
505.900	36.237	0.100
506.000	55.087	0.100
506.100	41.213	0.100
506.200	44.246	0.100
506.300	51.408	0.100
506.400	42.584	0.100
506.500	39.526	0.100
506.600	38.078	0.100
506.700	44.373	0.100
506.800	29.726	0.100
506.900	42.268	0.100
507.000	50.267	0.100
507.100	40.910	0.100
507.200	34.473	0.100
507.300	21.750	0.100
507.400	40.480	0.100
507.500	37.585	0.100
507.600	61.038	0.100
507.700	45.674	0.100
507.800	44.937	0.100
507.900	40.567	0.100
508.000	41.453	0.100
508.100	57.709	0.100
508.200	69.067	0.100
508.300	34.222	0.100
508.400	44.206	0.100
508.500	42.372	0.100
508.600	41.226	0.100
508.700	44.732	0.100
508.800	36.875	0.100
508.900	58.138	0.100
509.000	44.924	0.100
509.100	47.467	0.100
509.200	41.170	0.100
509.300	36.852	0.100
509.400	41.206	0.100
509.500	54.254	0.100
509.600	63.471	0.100
509.700	50.056	0.100
509.800	55.666	0.100
509.900	47.416	0.100
510.000	43.051	0.100
510.100	33.063	0.100
510.200	57.176	0.100
510.300	53.418	0.100
510.400	40.330	0.100
510.500	41.759	0.100
510.600	40.508	0.100
510.700	53.201	0.100
510.800	58.295	0.100
510.900	53.866	0.100
511.000	53.228	0.100
511.100	64.524	0.100
511.200	41.573	0.100
511.300	47.963	0.100
511.400	56.921	0.100
511.500	40.375	0.100
511.600	61.996	0.100
511.700	46.385	0.100
511.800	60.485	0.100
511.900	34.687	0.100
512.000	52.208	0.100
512.100	59.292	0.100
512.200	46.206	0.100
512.300	56.000	0.100
512.400	44.579	0.100
512.500	50.075	0.100
512.600	45.965	0.100
512.700	49.511	0.100
512.800	53.474	0.100
512.900	30.644	0.100
513.000	42.044	0.100
513.100	60.148	0.100
513.200	65.830	0.100
513.300	51.094	0.100
513.400	63.819	0.100
513.500	46.695	0.100
513.600	37.232	0.100
513.700	53.801	0.100
513.800	62.842	0.100
513.900	54.219	0.100
514.000	40.810	0.100
514.100	42.627	0.100
514.200	53.175	0.100
514.300	55.620	0.100
514.400	56.858	0.100
514.500	54.182	0.100
514.600	45.855	0.100
514.700	48.609	0.100
514.800	61.318	0.100
514.900	55.568	0.100
515.000	44.552	0.100
515.100	45.691	0.100
515.200	68.982	0.100
515.300	56.511	0.100
515.400	63.957	0.100
515.500	50.974	0.100
515.600	70.621	0.100
515.700	56.995	0.100
515.800	53.357	0.100
515.900	41.308	0.100
516.000	45.153	0.100
516.100	45.775	0.100
516.200	44.193	0.100
516.300	39.757	0.100
516.400	58.082	0.100
516.500	64.066	0.100
516.600	54.708	0.100
516.700	67.477	0.100
516.800	58.352	0.100
516.900	54.229	0.100
517.000	52.628	0.100
517.100	39.276	0.100
517.200	44.287	0.100
517.300	50.221	0.100
517.400	57.887	0.100
517.500	70.700	0.100
517.600	67.215	0.100
517.700	59.297	0.100
517.800	54.304	0.100
517.900	58.499	0.100
518.000	42.270	0.100
518.100	42.864	0.100
518.200	72.716	0.100
518.300	64.321	0.100
518.400	45.192	0.100
518.500	51.129	0.100
518.600	56.724	0.100
518.700	59.138	0.100
518.800	60.969	0.100
518.900	52.260	0.100
519.000	46.833	0.100
519.100	53.352	0.100
519.200	68.144	0.100
519.300	70.089	0.100
519.400	50.102	0.100
519.500	59.910	0.100
519.600	66.988	0.100
519.700	47.887	0.100
519.800	46.559	0.100
519.900	50.068	0.100
520.000	68.105	0.100
520.100	61.403	0.100
520.200	60.754	0.100
520.300	59.595	0.100
520.400	60.345	0.100
520.500	63.476	0.100
520.600	64.893	0.100
520.700	58.061	0.100
520.800	58.912	0.100
520.900	52.466	0.100
521.000	60.103	0.100
521.100	51.555	0.100
521.200	57.982	0.100
521.300	58.036	0.100
521.400	47.258	0.100
521.500	41.643	0.100
521.600	65.305	0.100
521.700	40.054	0.100
521.800	67.860	0.100
521.900	66.910	0.100
522.000	68.045	0.100
522.100	62.309	0.100
522.200	46.580	0.100
522.300	57.662	0.100
522.400	55.945	0.100
522.500	66.157	0.100
522.600	50.703	0.100
522.700	60.916	0.100
522.800	51.904	0.100
522.900	57.236	0.100
523.000	50.477	0.100
523.100	51.847	0.100
523.200	54.542	0.100
523.300	45.757	0.100
523.400	75.192	0.100
523.500	59.403	0.100
523.600	68.156	0.100
523.700	64.329	0.100
523.800	66.469	0.100
523.900	69.928	0.100
524.000	55.670	0.100
524.100	61.235	0.100
524.200	59.549	0.100
524.300	62.377	0.100
524.400	64.436	0.100
524.500	57.715	0.100
524.600	56.359	0.100
524.700	57.241	0.100
524.800	62.984	0.100
524.900	58.760	0.100
525.000	41.252	0.100
525.100	65.337	0.100
525.200	64.368	0.100
525.300	70.608	0.100
525.400	67.913	0.100
525.500	51.411	0.100
525.600	62.913	0.100
525.700	71.075	0.100
525.800	76.544	0.100
525.900	63.582	0.100
526.000	66.235	0.100
526.100	34.866	0.100
526.200	50.331	0.100
526.300	62.649	0.100
526.400	64.570	0.100
526.500	59.334	0.100
526.600	57.887	0.100
526.700	48.728	0.100
526.800	66.444	0.100
526.900	62.824	0.100
527.000	67.057	0.100
527.100	72.120	0.100
527.200	55.391	0.100
527.300	40.646	0.100
527.400	51.186	0.100
527.500	79.496	0.100
527.600	62.826	0.100
527.700	55.314	0.100
527.800	48.806	0.100
527.900	62.683	0.100
528.000	46.444	0.100
528.100	61.894	0.100
528.200	63.708	0.100
528.300	66.119	0.100
528.400	64.241	0.100
528.500	60.777	0.100
528.600	57.712	0.100
528.700	50.564	0.100
528.800	43.302	0.100
528.900	49.004	0.100
529.000	57.683	0.100
529.100	61.325	0.100
529.200	63.481	0.100
529.300	56.868	0.100
529.400	72.134	0.100
529.500	57.843	0.100
529.600	57.444	0.100
529.700	59.622	0.100
529.800	48.831	0.100
529.900	69.400	0.100
530.000	54.027	0.100
530.100	50.180	0.100
530.200	49.747	0.100
530.300	65.288	0.100
530.400	56.562	0.100
530.500	62.432	0.100
530.600	45.884	0.100
530.700	70.927	0.100
530.800	63.026	0.100
530.900	62.312	0.100
531.000	59.688	0.100
531.100	50.109	0.100
531.200	56.198	0.100
531.300	50.659	0.100
531.400	65.839	0.100
531.500	62.892	0.100
531.600	75.468	0.100
531.700	68.096	0.100
531.800	58.454	0.100
531.900	64.190	0.100
532.000	62.830	0.100
532.100	67.789	0.100
532.200	59.617	0.100
532.300	60.300	0.100
532.400	54.579	0.100
532.500	46.256	0.100
532.600	55.275	0.100
532.700	58.711	0.100
532.800	64.092	0.100
532.900	63.144	0.100
533.000	73.041	0.100
533.100	63.718	0.100
533.200	59.483	0.100
533.300	56.612	0.100
533.400	70.920	0.100
533.500	58.913	0.100
533.600	43.925	0.100
533.700	64.030	0.100
533.800	53.248	0.100
533.900	43.608	0.100
534.000	63.859	0.100
534.100	41.625	0.100
534.200	36.089	0.100
534.300	78.624	0.100
534.400	73.734	0.100
534.500	61.004	0.100
534.600	70.376	0.100
534.700	49.708	0.100
534.800	63.599	0.100
534.900	62.641	0.100
535.000	60.111	0.100
535.100	56.969	0.100
535.200	70.616	0.100
535.300	59.367	0.100
535.400	61.278	0.100
535.500	55.617	0.100
535.600	67.013	0.100
535.700	63.948	0.100
535.800	68.480	0.100
535.900	61.612	0.100
536.000	67.546	0.100
536.100	61.626	0.100
536.200	58.108	0.100
536.300	46.866	0.100
536.400	56.623	0.100
536.500	73.630	0.100
536.600	60.253	0.100
536.700	56.538	0.100
536.800	64.193	0.100
536.900	68.743	0.100
537.000	65.813	0.100
537.100	51.573	0.100
537.200	59.921	0.100
537.300	52.927	0.100
537.400	65.179	0.100
537.500	43.269	0.100
537.600	62.600	0.100
537.700	52.195	0.100
537.800	63.731	0.100
537.900	65.633	0.100
538.000	57.377	0.100
538.100	59.858	0.100
538.200	54.298	0.100
538.300	56.096	0.100
538.400	57.120	0.100
538.500	66.650	0.100
538.600	69.061	0.100
538.700	61.800	0.100
538.800	59.724	0.100
538.900	52.364	0.100
539.000	46.629	0.100
539.100	66.497	0.100
539.200	60.837	0.100
539.300	65.841	0.100
539.400	68.621	0.100
539.500	74.831	0.100
539.600	61.993	0.100
539.700	74.259	0.100
539.800	73.082	0.100
539.900	67.912	0.100
540.000	69.283	0.100
540.100	60.305	0.100
540.200	53.131	0.100
540.300	69.193	0.100
540.400	49.999	0.100
540.500	62.339	0.100
540.600	49.920	0.100
540.700	53.960	0.100
540.800	49.992	0.100
540.900	64.741	0.100
541.000	56.280	0.100
541.100	61.519	0.100
541.200	63.909	0.100
541.300	48.741	0.100
541.400	47.505	0.100
541.500	48.506	0.100
541.600	43.427	0.100
541.700	45.953	0.100
541.800	48.654	0.100
541.900	44.211	0.100
542.000	60.794	0.100
542.100	46.930	0.100
542.200	40.035	0.100
542.300	45.313	0.100
542.400	50.650	0.100
542.500	31.785	0.100
542.600	43.837	0.100
542.700	42.558	0.100
542.800	34.722	0.100
542.900	43.616	0.100
543.000	24.281	0.100
543.100	53.394	0.100
543.200	30.026	0.100
543.300	24.339	0.100
543.400	28.886	0.100
543.500	34.939	0.100
543.600	26.146	0.100
543.700	31.627	0.100
543.800	30.370	0.100
543.900	23.650	0.100
544.000	37.049	0.100
544.100	34.161	0.100
544.200	29.061	0.100
544.300	18.507	0.100
544.400	35.293	0.100
544.500	31.363	0.100
544.600	33.239	0.100
544.700	40.668	0.100
544.800	16.697	0.100
544.900	14.647	0.100
545.000	24.495	0.100
545.100	19.800	0.100
545.200	9.244	0.100
545.300	25.512	0.100
545.400	30.085	0.100
545.500	10.605	0.100
545.600	29.330	0.100
545.700	26.570	0.100
545.800	26.109	0.100
545.900	33.310	0.100
546.000	22.104	0.100
546.100	-5.946	0.100
546.200	19.584	0.100
546.300	4.613	0.100
546.400	18.461	0.100
546.500	20.355	0.100
546.600	23.056	0.100
546.700	19.283	0.100
546.800	5.451	0.100
546.900	22.852	0.100
547.000	20.406	0.100
547.100	29.604	0.100
547.200	9.746	0.100
547.300	7.245	0.100
547.400	10.342	0.100
547.500	13.610	0.100
547.600	17.977	0.100
547.700	20.512	0.100
547.800	5.131	0.100
547.900	-0.328	0.100
548.000	2.891	0.100
548.100	13.900	0.100
548.200	-0.955	0.100
548.300	14.160	0.100
548.400	12.839	0.100
548.500	7.633	0.100
548.600	11.529	0.100
548.700	2.991	0.100
548.800	5.537	0.100
548.900	9.059	0.100
549.000	13.544	0.100
549.100	20.017	0.100
549.200	4.701	0.100
549.300	3.289	0.100
549.400	6.215	0.100
549.500	1.793	0.100
549.600	14.767	0.100
549.700	13.689	0.100
549.800	2.715	0.100
549.900	9.997	0.100
550.000	11.702	0.100
550.100	25.945	0.100
550.200	6.605	0.100
550.300	-19.263	0.100
550.400	5.305	0.100
550.500	0.673	0.100
550.600	11.305	0.100
550.700	7.624	0.100
550.800	10.263	0.100
550.900	-0.136	0.100
551.000	0.476	0.100
551.100	9.040	0.100
551.200	4.145	0.100
551.300	-6.790	0.100
551.400	7.369	0.100
551.500	-4.063	0.100
551.600	12.146	0.100
551.700	-4.783	0.100
551.800	-5.113	0.100
551.900	9.706	0.100
552.000	-13.023	0.100
552.100	1.091	0.100
552.200	5.884	0.100
552.300	2.908	0.100
552.400	1.119	0.100
552.500	11.494	0.100
552.600	-8.428	0.100
552.700	8.659	0.100
552.800	1.453	0.100
552.900	-5.647	0.100
553.000	-3.587	0.100
553.100	-13.868	0.100
553.200	-15.039	0.100
553.300	6.570	0.100
553.400	-0.053	0.100
553.500	-3.318	0.100
553.600	10.008	0.100
553.700	-1.055	0.100
553.800	-0.539	0.100
553.900	7.062	0.100
554.000	11.007	0.100
554.100	10.553	0.100
554.200	-13.389	0.100
554.300	-9.850	0.100
554.400	1.523	0.100
554.500	5.897	0.100
554.600	7.455	0.100
554.700	5.850	0.100
554.800	14.473	0.100
554.900	-10.837	0.100
555.000	1.056	0.100
555.100	-14.136	0.100
555.200	-8.588	0.100
555.300	-7.237	0.100
555.400	-4.619	0.100
555.500	-6.931	0.100
555.600	-15.111	0.100
555.700	0.948	0.100
555.800	-7.760	0.100
555.900	12.315	0.100
556.000	3.083	0.100
556.100	-18.142	0.100
556.200	-7.550	0.100
556.300	5.046	0.100
556.400	-1.018	0.100
556.500	-15.894	0.100
556.600	-4.596	0.100
556.700	-4.743	0.100
556.800	4.612	0.100
556.900	-8.256	0.100
557.000	-7.808	0.100
557.100	15.312	0.100
557.200	2.223	0.100
557.300	-6.245	0.100
557.400	-7.073	0.100
557.500	-14.882	0.100
557.600	-5.768	0.100
557.700	2.312	0.100
557.800	0.662	0.100
557.900	-16.936	0.100
558.000	-4.152	0.100
558.100	8.065	0.100
558.200	-7.329	0.100
558.300	-2.052	0.100
558.400	-9.110	0.100
558.500	-7.063	0.100
558.600	-6.828	0.100
558.700	-1.367	0.100
558.800	-10.422	0.100
558.900	-9.612	0.100
559.000	9.717	0.100
559.100	-17.625	0.100
559.200	-7.700	0.100
559.300	-14.214	0.100
559.400	-1.837	0.100
559.500	-2.883	0.100
559.600	-10.213	0.100
559.700	-22.418	0.100
559.800	-11.144	0.100
559.900	-11.415	0.100
560.000	-3.512	0.100
560.100	0.178	0.100
560.200	-24.150	0.100
560.300	0.721	0.100
560.400	-9.931	0.100
560.500	-17.267	0.100
560.600	-7.889	0.100
560.700	0.340	0.100
560.800	-11.348	0.100
560.900	-9.117	0.100
561.000	-13.656	0.100
561.100	-13.281	0.100
561.200	2.018	0.100
561.300	-18.793	0.100
561.400	-11.798	0.100
561.500	-5.289	0.100
561.600	-9.895	0.100
561.700	3.726	0.100
561.800	-10.230	0.100
561.900	-4.422	0.100
562.000	-8.407	0.100
562.100	-9.264	0.100
562.200	-6.972	0.100
562.300	-14.267	0.100
562.400	-17.329	0.100
562.500	-12.631	0.100
562.600	-13.455	0.100
562.700	-25.449	0.100
562.800	9.547	0.100
562.900	-15.473	0.100
563.000	-12.143	0.100
563.100	-11.920	0.100
563.200	-22.545	0.100
563.300	-13.325	0.100
563.400	-7.762	0.100
563.500	-23.779	0.100
563.600	-1.905	0.100
563.700	-16.357	0.100
563.800	-10.444	0.100
563.900	-4.717	0.100
564.000	-35.118	0.100
564.100	-8.990	0.100
564.200	-8.239	0.100
564.300	-8.092	0.100
564.400	-9.242	0.100
564.500	-16.747	0.100
564.600	-8.981	0.100
564.700	-19.553	0.100
564.800	-13.520	0.100
564.900	-2.045	0.100
565.000	-11.725	0.100
565.100	-13.757	0.100
565.200	-1.249	0.100
565.300	-9.510	0.100
565.400	-26.006	0.100
565.500	-10.594	0.100
565.600	-13.325	0.100
565.700	-12.659	0.100
565.800	-15.255	0.100
565.900	-16.240	0.100
566.000	-11.759	0.100
566.100	-7.658	0.100
566.200	-7.377	0.100
566.300	-29.792	0.100
566.400	-10.667	0.100
566.500	-4.479	0.100
566.600	-15.721	0.100
566.700	-17.483	0.100
566.800	-33.826	0.100
566.900	-4.305	0.100
567.000	-19.349	0.100
567.100	-15.188	0.100
567.200	-24.418	0.100
567.300	-21.806	0.100
567.400	-22.104	0.100
567.500	-5.866	0.100
567.600	-10.817	0.100
567.700	-11.293	0.100
567.800	-21.278	0.100
567.900	-25.667	0.100
568.000	-5.666	0.100
568.100	-15.168	0.100
568.200	-11.252	0.100
568.300	-8.686	0.100
568.400	-21.847	0.100
568.500	-12.891	0.100
568.600	-19.992	0.100
568.700	-22.018	0.100
568.800	-12.056	0.100
568.900	-34.541	0.100
569.000	-19.766	0.100
569.100	-22.167	0.100
569.200	-9.215	0.100
569.300	-10.966	0.100
569.400	-17.433	0.100
569.500	-21.298	0.100
569.600	-30.953	0.100
569.700	-20.175	0.100
569.800	-4.466	0.100
569.900	-13.503	0.100
570.000	-15.324	0.100
570.100	-14.200	0.100
570.200	-38.389	0.100
570.300	-16.913	0.100
570.400	-11.622	0.100
570.500	-15.449	0.100
570.600	-12.511	0.100
570.700	-26.462	0.100
570.800	-16.969	0.100
570.900	-25.812	0.100
571.000	-17.539	0.100
571.100	-14.679	0.100
571.200	-19.716	0.100
571.300	-35.564	0.100
571.400	-21.951	0.100
571.500	-43.081	0.100
571.600	-19.705	0.100
571.700	-8.073	0.100
571.800	-12.962	0.100
571.900	-12.329	0.100
572.000	-13.463	0.100
572.100	-34.377	0.100
572.200	-28.377	0.100
572.300	-11.602	0.100
572.400	1.414	0.100
572.500	-21.485	0.100
572.600	-38.296	0.100
572.700	-23.477	0.100
572.800	-25.151	0.100
572.900	-22.697	0.100
573.000	-25.908	0.100
573.100	-21.869	0.100
573.200	-29.215	0.100
573.300	-31.002	0.100
573.400	-37.534	0.100
573.500	-13.511	0.100
573.600	-40.188	0.100
573.700	-16.908	0.100
573.800	-30.261	0.100
573.900	-15.934	0.100
574.000	-30.167	0.100
574.100	-17.784	0.100
574.200	-29.401	0.100
574.300	-15.499	0.100
574.400	-33.110	0.100
574.500	-17.798	0.100
574.600	-11.280	0.100
574.700	-15.923	0.100
574.800	-20.248	0.100
574.900	-24.694	0.100
575.000	-32.180	0.100
575.100	-33.441	0.100
575.200	-24.098	0.100
575.300	-12.543	0.100
575.400	-28.204	0.100
575.500	-31.518	0.100
575.600	-20.510	0.100
575.700	-26.227	0.100
575.800	-19.046	0.100
575.900	-24.649	0.100
576.000	-21.897	0.100
576.100	-13.003	0.100
576.200	-24.245	0.100
576.300	-38.917	0.100
576.400	-26.291	0.100
576.500	-14.464	0.100
576.600	-34.863	0.100
576.700	-28.941	0.100
576.800	-19.468	0.100
576.900	-24.526	0.100
577.000	-18.986	0.100
577.100	-26.175	0.100
577.200	-27.295	0.100
577.300	-19.805	0.100
577.400	-25.724	0.100
577.500	-24.234	0.100
577.600	-19.935	0.100
577.700	-20.810	0.100
577.800	-45.074	0.100
577.900	-17.468	0.100
578.000	-34.872	0.100
578.100	-26.949	0.100
578.200	-24.936	0.100
578.300	-41.283	0.100
578.400	-31.557	0.100
578.500	-20.979	0.100
578.600	-29.640	0.100
578.700	-34.337	0.100
578.800	-32.919	0.100
578.900	-35.409	0.100
579.000	-33.308	0.100
579.100	-18.218	0.100
579.200	-20.669	0.100
579.300	-21.415	0.100
579.400	-25.155	0.100
579.500	-32.198	0.100
579.600	-21.790	0.100
579.700	-29.437	0.100
579.800	-24.385	0.100
579.900	-25.964	0.100
580.000	-32.548	0.100
580.100	-31.458	0.100
580.200	-24.499	0.100
580.300	-24.398	0.100
580.400	-48.648	0.100
580.500	-26.141	0.100
580.600	-24.370	0.100
580.700	-27.448	0.100
580.800	-19.515	0.100
580.900	-39.374	0.100
581.000	-30.963	0.100
581.100	-30.159	0.100
581.200	-37.575	0.100
581.300	-29.884	0.100
581.400	-35.029	0.100
581.500	-24.124	0.100
581.600	-31.976	0.100
581.700	-29.620	0.100
581.800	-20.623	0.100
581.900	-21.754	0.100
582.000	-32.244	0.100
582.100	-30.887	0.100
582.200	-24.282	0.100
582.300	-13.216	0.100
582.400	-18.456	0.100
582.500	-32.668	0.100
582.600	-31.724	0.100
582.700	-50.626	0.100
582.800	-25.281	0.100
582.900	-33.441	0.100
583.000	-29.980	0.100
583.100	-17.023	0.100
583.200	-27.369	0.100
583.300	-36.346	0.100
583.400	-29.330	0.100
583.500	-31.598	0.100
583.600	-29.580	0.100
583.700	-35.082	0.100
583.800	-26.316	0.100
583.900	-35.968	0.100
584.000	-32.106	0.100
584.100	-20.652	0.100
584.200	-32.398	0.100
584.300	-45.819	0.100
584.400	-28.437	0.100
584.500	-38.430	0.100
584.600	-29.188	0.100
584.700	-30.415	0.100
584.800	-23.337	0.100
584.900	-20.700	0.100
585.000	-28.693	0.100
585.100	-33.313	0.100
585.200	-33.988	0.100
585.300	-17.021	0.100
585.400	-20.936	0.100
585.500	-40.482	0.100
585.600	-44.771	0.100
585.700	-38.696	0.100
585.800	-43.221	0.100
585.900	-37.286	0.100
586.000	-30.853	0.100
586.100	-25.586	0.100
586.200	-32.257	0.100
586.300	-33.782	0.100
586.400	-35.981	0.100
586.500	-41.297	0.100
586.600	-27.057	0.100
586.700	-37.479	0.100
586.800	-31.902	0.100
586.900	-39.951	0.100
587.000	-22.505	0.100
587.100	-36.616	0.100
587.200	-42.596	0.100
587.300	-26.590	0.100
587.400	-28.435	0.100
587.500	-43.721	0.100
587.600	-21.379	0.100
587.700	-30.029	0.100
587.800	-31.105	0.100
587.900	-34.754	0.100
588.000	-43.921	0.100
588.100	-27.174	0.100
588.200	-44.014	0.100
588.300	-36.671	0.100
588.400	-32.433	0.100
588.500	-18.495	0.100
588.600	-34.887	0.100
588.700	-44.513	0.100
588.800	-27.272	0.100
588.900	-28.917	0.100
589.000	-26.125	0.100
589.100	-36.304	0.100
589.200	-26.968	0.100
589.300	-46.236	0.100
589.400	-35.587	0.100
589.500	-43.401	0.100
589.600	-35.507	0.100
589.700	-39.326	0.100
589.800	-33.401	0.100
589.900	-39.503	0.100
590.000	-34.478	0.100
590.100	-30.400	0.100
590.200	-34.459	0.100
590.300	-47.278	0.100
590.400	-18.932	0.100
590.500	-24.347	0.100
590.600	-18.654	0.100
590.700	-31.470	0.100
590.800	-55.521	0.100
590.900	-44.500	0.100
591.000	-25.759	0.100
591.100	-30.559	0.100
591.200	-25.613	0.100
591.300	-29.751	0.100
591.400	-29.164	0.100
591.500	-37.242	0.100
591.600	-42.668	0.100
591.700	-32.478	0.100
591.800	-30.662	0.100
591.900	-37.292	0.100
592.000	-31.645	0.100
592.100	-31.111	0.100
592.200	-10.176	0.100
592.300	-41.120	0.100
592.400	-39.193	0.100
592.500	-31.408	0.100
592.600	-42.094	0.100
592.700	-34.818	0.100
592.800	-34.854	0.100
592.900	-37.044	0.100
593.000	-40.626	0.100
593.100	-41.561	0.100
593.200	-33.184	0.100
593.300	-35.528	0.100
593.400	-47.393	0.100
593.500	-43.796	0.100
593.600	-30.084	0.100
593.700	-31.683	0.100
593.800	-31.018	0.100
593.900	-57.043	0.100
594.000	-35.386	0.100
594.100	-38.519	0.100
594.200	-38.970	0.100
594.300	-42.845	0.100
594.400	-49.110	0.100
594.500	-45.355	0.100
594.600	-35.638	0.100
594.700	-35.398	0.100
594.800	-30.208	0.100
594.900	-26.488	0.100
595.000	-38.876	0.100
595.100	-40.831	0.100
595.200	-38.625	0.100
595.300	-33.492	0.100
595.400	-39.156	0.100
595.500	-35.669	0.100
595.600	-46.431	0.100
595.700	-29.011	0.100
595.800	-37.151	0.100
595.900	-37.540	0.100
596.000	-46.672	0.100
596.100	-30.741	0.100
596.200	-42.558	0.100
596.300	-43.453	0.100
596.400	-35.889	0.100
596.500	-41.226	0.100
596.600	-27.483	0.100
596.700	-43.960	0.100
596.800	-33.931	0.100
596.900	-38.535	0.100
597.000	-40.166	0.100
597.100	-33.196	0.100
597.200	-35.622	0.100
597.300	-44.478	0.100
597.400	-40.044	0.100
597.500	-40.893	0.100
597.600	-29.366	0.100
597.700	-42.103	0.100
597.800	-46.087	0.100
597.900	-41.739	0.100
598.000	-30.288	0.100
598.100	-38.625	0.100
598.200	-31.259	0.100
598.300	-56.115	0.100
598.400	-48.966	0.100
598.500	-40.920	0.100
598.600	-33.244	0.100
598.700	-28.251	0.100
598.800	-46.571	0.100
598.900	-19.694	0.100
599.000	-31.545	0.100
599.100	-25.197	0.100
599.200	-38.565	0.100
599.300	-51.390	0.100
599.400	-42.792	0.100
599.500	-54.469	0.100
599.600	-31.727	0.100
599.700	-23.886	0.100
599.800	-35.807	0.100
599.900	-40.587	0.100
600.000	-50.179	0.100
600.100	-38.656	0.100
600.200	-32.251	0.100
600.300	-56.965	0.100
600.400	-50.408	0.100
600.500	-39.665	0.100
600.600	-38.512	0.100
600.700	-32.733	0.100
600.800	-32.335	0.100
600.900	-33.539	0.100
601.000	-32.665	0.100
601.100	-34.726	0.100
601.200	-35.660	0.100
601.300	-44.010	0.100
601.400	-42.051	0.100
601.500	-23.608	0.100
601.600	-40.680	0.100
601.700	-40.106	0.100
601.800	-47.773	0.100
601.900	-37.386	0.100
602.000	-41.204	0.100
602.100	-46.084	0.100
602.200	-39.575	0.100
602.300	-43.431	0.100
602.400	-40.028	0.100
602.500	-31.423	0.100
602.600	-56.655	0.100
602.700	-40.078	0.100
602.800	-27.093	0.100
602.900	-31.134	0.100
603.000	-41.267	0.100
603.100	-46.618	0.100
603.200	-43.428	0.100
603.300	-41.033	0.100
603.400	-45.896	0.100
603.500	-38.678	0.100
603.600	-38.449	0.100
603.700	-43.567	0.100
603.800	-49.996	0.100
603.900	-21.115	0.100
604.000	-36.201	0.100
604.100	-51.126	0.100
604.200	-41.377	0.100
604.300	-36.406	0.100
604.400	-35.979	0.100
604.500	-37.229	0.100
604.600	-36.947	0.100
604.700	-44.442	0.100
604.800	-49.112	0.100
604.900	-36.735	0.100
605.000	-23.935	0.100
605.100	-31.739	0.100
605.200	-44.772	0.100
605.300	-47.379	0.100
605.400	-41.805	0.100
605.500	-49.556	0.100
605.600	-60.671	0.100
605.700	-40.326	0.100
605.800	-51.693	0.100
605.900	-38.217	0.100
606.000	-36.430	0.100
606.100	-29.652	0.100
606.200	-36.738	0.100
606.300	-40.887	0.100
606.400	-47.905	0.100
606.500	-49.131	0.100
606.600	-38.894	0.100
606.700	-36.867	0.100
606.800	-43.725	0.100
606.900	-50.929	0.100
607.000	-27.785	0.100
607.100	-51.397	0.100
607.200	-31.618	0.100
607.300	-40.310	0.100
607.400	-42.927	0.100
607.500	-44.081	0.100
607.600	-33.737	0.100
607.700	-37.298	0.100
607.800	-43.475	0.100
607.900	-49.337	0.100
608.000	-49.329	0.100
608.100	-45.466	0.100
608.200	-34.779	0.100
608.300	-46.486	0.100
608.400	-43.011	0.100
608.500	-39.535	0.100
608.600	-33.782	0.100
608.700	-50.477	0.100
608.800	-30.776	0.100
608.900	-37.625	0.100
609.000	-47.880	0.100
609.100	-47.922	0.100
609.200	-36.146	0.100
609.300	-39.556	0.100
609.400	-38.824	0.100
609.500	-40.064	0.100
609.600	-38.371	0.100
609.700	-37.407	0.100
609.800	-46.540	0.100
609.900	-42.160	0.100
610.000	-41.988	0.100
610.100	-35.607	0.100
610.200	-28.859	0.100
610.300	-40.899	0.100
610.400	-28.096	0.100
610.500	-42.559	0.100
610.600	-45.286	0.100
610.700	-34.840	0.100
610.800	-57.917	0.100
610.900	-60.073	0.100
611.000	-40.697	0.100
611.100	-52.387	0.100
611.200	-26.046	0.100
611.300	-36.915	0.100
611.400	-46.017	0.100
611.500	-24.018	0.100
611.600	-36.960	0.100
611.700	-39.433	0.100
611.800	-35.693	0.100
611.900	-36.043	0.100
612.000	-41.431	0.100
612.100	-52.092	0.100
612.200	-46.067	0.100
612.300	-42.419	0.100
612.400	-39.494	0.100
612.500	-45.851	0.100
612.600	-50.741	0.100
612.700	-39.114	0.100
612.800	-33.190	0.100
612.900	-49.857	0.100
613.000	-40.951	0.100
613.100	-54.682	0.100
613.200	-30.317	0.100
613.300	-37.912	0.100
613.400	-41.406	0.100
613.500	-43.225	0.100
613.600	-47.984	0.100
613.700	-37.070	0.100
613.800	-27.202	0.100
613.900	-55.429	0.100
614.000	-28.107	0.100
614.100	-53.852	0.100
614.200	-36.715	0.100
614.300	-37.520	0.100
614.400	-38.752	0.100
614.500	-48.945	0.100
614.600	-57.777	0.100
614.700	-55.565	0.100
614.800	-33.440	0.100
614.900	-37.826	0.100
615.000	-36.710	0.100
615.100	-37.154	0.100
615.200	-28.078	0.100
615.300	-45.733	0.100
615.400	-33.311	0.100
615.500	-49.346	0.100
615.600	-52.226	0.100
615.700	-39.835	0.100
615.800	-32.231	0.100
615.900	-34.968	0.100
616.000	-32.927	0.100
616.100	-47.033	0.100
616.200	-53.541	0.100
616.300	-46.562	0.100
616.400	-43.543	0.100
616.500	-37.426	0.100
616.600	-32.984	0.100
616.700	-39.441	0.100
616.800	-50.301	0.100
616.900	-42.451	0.100
617.000	-34.491	0.100
617.100	-31.747	0.100
617.200	-40.134	0.100
617.300	-33.365	0.100
617.400	-36.807	0.100
617.500	-63.555	0.100
617.600	-37.993	0.100
617.700	-39.351	0.100
617.800	-52.973	0.100
617.900	-45.510	0.100
618.000	-40.339	0.100
618.100	-32.187	0.100
618.200	-50.405	0.100
618.300	-48.768	0.100
618.400	-36.242	0.100
618.500	-40.673	0.100
618.600	-46.110	0.100
618.700	-36.206	0.100
618.800	-28.018	0.100
618.900	-44.849	0.100
619.000	-31.799	0.100
619.100	-51.952	0.100
619.200	-47.521	0.100
619.300	-42.369	0.100
619.400	-42.645	0.100
619.500	-40.910	0.100
619.600	-55.255	0.100
619.700	-31.631	0.100
619.800	-39.623	0.100
619.900	-41.409	0.100
620.000	-53.941	0.100
620.100	-29.993	0.100
620.200	-53.493	0.100
620.300	-47.871	0.100
620.400	-33.103	0.100
620.500	-44.346	0.100
620.600	-48.978	0.100
620.700	-37.066	0.100
620.800	-47.142	0.100
620.900	-46.651	0.100
621.000	-41.308	0.100
621.100	-32.948	0.100
621.200	-46.990	0.100
621.300	-30.233	0.100
621.400	-32.374	0.100
621.500	-46.935	0.100
621.600	-52.456	0.100
621.700	-58.971	0.100
621.800	-43.574	0.100
621.900	-50.524	0.100
622.000	-54.149	0.100
622.100	-39.818	0.100
622.200	-36.920	0.100
622.300	-37.851	0.100
622.400	-36.706	0.100
622.500	-57.292	0.100
622.600	-37.512	0.100
622.700	-48.848	0.100
622.800	-40.223	0.100
622.900	-52.135	0.100
623.000	-47.301	0.100
623.100	-24.995	0.100
623.200	-30.670	0.100
623.300	-41.629	0.100
623.400	-44.351	0.100
623.500	-58.306	0.100
623.600	-58.778	0.100
623.700	-40.941	0.100
623.800	-40.241	0.100
623.900	-60.104	0.100
624.000	-49.232	0.100
624.100	-29.855	0.100
624.200	-44.854	0.100
624.300	-51.555	0.100
624.400	-47.946	0.100
624.500	-40.459	0.100
624.600	-46.565	0.100
624.700	-30.766	0.100
624.800	-48.352	0.100
624.900	-48.422	0.100
625.000	-53.300	0.100
625.100	-35.841	0.100
625.200	-42.011	0.100
625.300	-38.809	0.100
625.400	-37.749	0.100
625.500	-50.367	0.100
625.600	-38.694	0.100
625.700	-47.193	0.100
625.800	-43.947	0.100
625.900	-43.736	0.100
626.000	-30.486	0.100
626.100	-36.054	0.100
626.200	-47.681	0.100
626.300	-37.461	0.100
626.400	-46.963	0.100
626.500	-43.996	0.100
626.600	-40.974	0.100
626.700	-50.909	0.100
626.800	-52.633	0.100
626.900	-48.403	0.100
627.000	-36.203	0.100
627.100	-32.306	0.100
627.200	-52.648	0.100
627.300	-29.285	0.100
627.400	-41.773	0.100
627.500	-45.898	0.100
627.600	-38.757	0.100
627.700	-38.467	0.100
627.800	-50.644	0.100
627.900	-53.788	0.100
628.000	-57.704	0.100
628.100	-48.300	0.100
628.200	-52.318	0.100
628.300	-43.507	0.100
628.400	-37.740	0.100
628.500	-41.158	0.100
628.600	-46.147	0.100
628.700	-57.564	0.100
628.800	-45.250	0.100
628.900	-35.560	0.100
629.000	-34.768	0.100
629.100	-46.391	0.100
629.200	-48.824	0.100
629.300	-46.836	0.100
629.400	-38.151	0.100
629.500	-36.715	0.100
629.600	-50.069	0.100
629.700	-37.113	0.100
629.800	-43.807	0.100
629.900	-46.546	0.100
630.000	-39.691	0.100
630.100	-45.587	0.100
630.200	-51.366	0.100
630.300	-45.452	0.100
630.400	-32.262	0.100
630.500	-36.978	0.100
630.600	-42.407	0.100
630.700	-47.001	0.100
630.800	-43.725	0.100
630.900	-26.494	0.100
631.000	-35.242	0.100
631.100	-36.702	0.100
631.200	-32.385	0.100
631.300	-39.856	0.100
631.400	-32.536	0.100
631.500	-42.589	0.100
631.600	-27.332	0.100
631.700	-23.133	0.100
631.800	-27.506	0.100
631.900	-24.194	0.100
632.000	-38.939	0.100
632.100	-28.714	0.100
632.200	-31.280	0.100
632.300	-7.042	0.100
632.400	-18.404	0.100
632.500	-26.159	0.100
632.600	-22.441	0.100
632.700	-18.814	0.100
632.800	-17.007	0.100
632.900	-11.645	0.100
633.000	-23.702	0.100
633.100	-8.389	0.100
633.200	-18.087	0.100
633.300	-19.789	0.100
633.400	-31.755	0.100
633.500	-17.850	0.100
633.600	-2.420	0.100
633.700	-20.602	0.100
633.800	-20.555	0.100
633.900	-3.897	0.100
634.000	-8.279	0.100
634.100	-29.043	0.100
634.200	-22.107	0.100
634.300	-30.798	0.100
634.400	-5.277	0.100
634.500	-14.757	0.100
634.600	-2.987	0.100
634.700	-14.221	0.100
634.800	-13.011	0.100
634.900	-7.214	0.100
635.000	-12.120	0.100
635.100	-33.021	0.100
635.200	-12.768	0.100
635.300	-12.670	0.100
635.400	-1.260	0.100
635.500	-14.315	0.100
635.600	-22.486	0.100
635.700	-15.474	0.100
635.800	-17.433	0.100
635.900	6.813	0.100
636.000	-10.770	0.100
636.100	-13.161	0.100
636.200	-20.595	0.100
636.300	-12.961	0.100
636.400	13.185	0.100
636.500	-16.180	0.100
636.600	-5.657	0.100
636.700	-7.855	0.100
636.800	-24.697	0.100
636.900	-5.606	0.100
637.000	-3.673	0.100
637.100	-13.596	0.100
637.200	-9.078	0.100
637.300	0.135	0.100
637.400	-0.691	0.100
637.500	-11.013	0.100
637.600	-22.405	0.100
637.700	-7.547	0.100
637.800	-3.926	0.100
637.900	-19.371	0.100
638.000	-10.525	0.100
638.100	-11.755	0.100
638.200	-5.728	0.100
638.300	-19.904	0.100
638.400	-5.548	0.100
638.500	-8.634	0.100
638.600	-2.562	0.100
638.700	-7.416	0.100
638.800	-15.949	0.100
638.900	-4.521	0.100
639.000	-2.117	0.100
639.100	-8.342	0.100
639.200	-29.414	0.100
639.300	-13.738	0.100
639.400	1.584	0.100
639.500	1.643	0.100
639.600	-5.883	0.100
639.700	-22.673	0.100
639.800	15.067	0.100
639.900	2.975	0.100
640.000	-3.234	0.100
640.100	-14.589	0.100
640.200	1.276	0.100
640.300	5.603	0.100
640.400	-5.281	0.100
640.500	-7.372	0.100
640.600	-7.715	0.100
640.700	0.076	0.100
640.800	-2.623	0.100
640.900	-13.539	0.100
641.000	4.117	0.100
641.100	-20.993	0.100
641.200	-20.838	0.100
641.300	11.976	0.100
641.400	-2.517	0.100
641.500	9.090	0.100
641.600	0.231	0.100
641.700	-5.902	0.100
641.800	-20.908	0.100
641.900	-3.137	0.100
642.000	10.614	0.100
642.100	0.206	0.100
642.200	-8.698	0.100
642.300	2.277	0.100
642.400	-5.138	0.100
642.500	-10.015	0.100
642.600	-8.134	0.100
642.700	1.483	0.100
642.800	-4.583	0.100
642.900	10.485	0.100
643.000	28.111	0.100
643.100	4.629	0.100
643.200	-10.197	0.100
643.300	0.239	0.100
643.400	13.460	0.100
643.500	-7.888	0.100
643.600	5.019	0.100
643.700	6.867	0.100
643.800	-8.210	0.100
643.900	4.391	0.100
644.000	5.997	0.100
644.100	1.271	0.100
644.200	7.637	0.100
644.300	10.501	0.100
644.400	17.606	0.100
644.500	0.914	0.100
644.600	-10.995	0.100
644.700	-6.579	0.100
644.800	16.486	0.100
644.900	-2.426	0.100
645.000	14.010	0.100
645.100	14.832	0.100
645.200	8.375	0.100
645.300	13.712	0.100
645.400	4.101	0.100
645.500	4.738	0.100
645.600	5.286	0.100
645.700	17.904	0.100
645.800	4.839	0.100
645.900	10.378	0.100
646.000	5.910	0.100
646.100	11.257	0.100
646.200	19.135	0.100
646.300	9.596	0.100
646.400	7.257	0.100
646.500	18.611	0.100
646.600	8.188	0.100
646.700	7.243	0.100
646.800	27.615	0.100
646.900	22.038	0.100
647.000	3.592	0.100
647.100	16.356	0.100
647.200	6.882	0.100
647.300	17.366	0.100
647.400	0.759	0.100
647.500	1.667	0.100
647.600	15.885	0.100
647.700	0.235	0.100
647.800	4.760	0.100
647.900	8.779	0.100
648.000	30.425	0.100
648.100	16.548	0.100
648.200	9.082	0.100
648.300	15.808	0.100
648.400	11.289	0.100
648.500	9.350	0.100
648.600	19.172	0.100
648.700	5.840	0.100
648.800	21.026	0.100
648.900	22.194	0.100
649.000	9.663	0.100
649.100	8.353	0.100
649.200	19.212	0.100
649.300	10.219	0.100
649.400	13.596	0.100
649.500	17.884	0.100
649.600	13.193	0.100
649.700	16.233	0.100
649.800	30.167	0.100
649.900	10.755	0.100
650.000	18.925	0.100
650.100	33.716	0.100
650.200	6.679	0.100
650.300	19.426	0.100
650.400	19.866	0.100
650.500	8.586	0.100
650.600	29.234	0.100
650.700	19.991	0.100
650.800	31.143	0.100
650.900	25.163	0.100
651.000	38.499	0.100
651.100	15.910	0.100
651.200	18.092	0.100
651.300	17.736	0.100
651.400	9.110	0.100
651.500	27.642	0.100
651.600	14.347	0.100
651.700	28.287	0.100
651.800	21.340	0.100
651.900	21.110	0.100
652.000	14.783	0.100
652.100	7.937	0.100
652.200	28.096	0.100
652.300	8.725	0.100
652.400	50.248	0.100
652.500	32.970	0.100
652.600	34.377	0.100
652.700	25.156	0.100
652.800	-1.800	0.100
652.900	18.172	0.100
653.000	31.217	0.100
653.100	35.209	0.100
653.200	33.437	0.100
653.300	31.807	0.100
653.400	16.750	0.100
653.500	19.955	0.100
653.600	14.639	0.100
653.700	30.364	0.100
653.800	36.619	0.100
653.900	23.703	0.100
654.000	22.758	0.100
654.100	23.828	0.100
654.200	24.756	0.100
654.300	22.501	0.100
654.400	24.109	0.100
654.500	36.686	0.100
654.600	24.249	0.100
654.700	28.694	0.100
654.800	35.861	0.100
654.900	37.648	0.100
655.000	33.880	0.100
655.100	37.743	0.100
655.200	21.583	0.100
655.300	41.988	0.100
655.400	29.122	0.100
655.500	11.936	0.100
655.600	26.861	0.100
655.700	37.052	0.100
655.800	20.712	0.100
655.900	23.373	0.100
656.000	49.308	0.100
656.100	33.456	0.100
656.200	24.849	0.100
656.300	38.655	0.100
656.400	32.550	0.100
656.500	48.400	0.100
656.600	28.379	0.100
656.700	38.648	0.100
656.800	39.238	0.100
656.900	23.429	0.100
657.000	31.400	0.100
657.100	36.875	0.100
657.200	37.561	0.100
657.300	26.196	0.100
657.400	47.021	0.100
657.500	40.595	0.100
657.600	39.111	0.100
657.700	31.850	0.100
657.800	22.367	0.100
657.900	37.836	0.100
658.000	43.646	0.100
658.100	32.686	0.100
658.200	28.547	0.100
658.300	34.351	0.100
658.400	41.057	0.100
658.500	26.629	0.100
658.600	34.581	0.100
658.700	37.884	0.100
658.800	42.647	0.100
658.900	30.586	0.100
659.000	47.535	0.100
659.100	42.760	0.100
659.200	48.020	0.100
659.300	32.071	0.100
659.400	39.204	0.100
659.500	48.452	0.100
659.600	37.606	0.100
659.700	45.038	0.100
659.800	30.142	0.100
659.900	36.965	0.100
660.000	26.093	0.100
660.100	37.433	0.100
660.200	43.082	0.100
660.300	33.765	0.100
660.400	34.955	0.100
660.500	35.688	0.100
660.600	47.669	0.100
660.700	32.745	0.100
660.800	36.094	0.100
660.900	27.572	0.100
661.000	40.106	0.100
661.100	42.631	0.100
661.200	50.898	0.100
661.300	42.842	0.100
661.400	23.042	0.100
661.500	41.952	0.100
661.600	49.798	0.100
661.700	39.874	0.100
661.800	42.372	0.100
661.900	49.690	0.100
662.000	52.579	0.100
662.100	36.049	0.100
662.200	45.260	0.100
662.300	35.754	0.100
662.400	35.066	0.100
662.500	43.412	0.100
662.600	32.527	0.100
662.700	62.992	0.100
662.800	44.866	0.100
662.900	38.580	0.100
663.000	43.370	0.100
663.100	36.113	0.100
663.200	43.789	0.100
663.300	38.780	0.100
663.400	40.707	0.100
663.500	32.615	0.100
663.600	55.413	0.100
663.700	40.990	0.100
663.800	48.692	0.100
663.900	35.627	0.100
664.000	40.897	0.100
664.100	38.873	0.100
664.200	47.094	0.100
664.300	46.348	0.100
664.400	47.026	0.100
664.500	54.303	0.100
664.600	33.066	0.100
664.700	51.117	0.100
664.800	39.341	0.100
664.900	32.000	0.100
665.000	47.358	0.100
665.100	41.021	0.100
665.200	53.848	0.100
665.300	38.138	0.100
665.400	46.199	0.100
665.500	45.599	0.100
665.600	47.166	0.100
665.700	42.076	0.100
665.800	53.429	0.100
665.900	49.376	0.100
666.000	44.589	0.100
666.100	51.149	0.100
666.200	58.681	0.100
666.300	40.052	0.100
666.400	36.202	0.100
666.500	43.131	0.100
666.600	27.206	0.100
666.700	51.719	0.100
666.800	52.307	0.100
666.900	39.597	0.100
667.000	48.052	0.100
667.100	32.833	0.100
667.200	43.041	0.100
667.300	38.871	0.100
667.400	40.322	0.100
667.500	53.201	0.100
667.600	46.554	0.100
667.700	37.546	0.100
667.800	44.667	0.100
667.900	51.754	0.100
668.000	42.955	0.100
668.100	53.399	0.100
668.200	47.259	0.100
668.300	42.632	0.100
668.400	45.759	0.100
668.500	51.076	0.100
668.600	43.487	0.100
668.700	50.344	0.100
668.800	58.000	0.100
668.900	54.103	0.100
669.000	41.684	0.100
669.100	63.355	0.100
669.200	50.785	0.100
669.300	50.026	0.100
669.400	51.290	0.100
669.500	59.783	0.100
669.600	36.567	0.100
669.700	63.267	0.100
669.800	48.727	0.100
669.900	46.813	0.100
670.000	52.791	0.100
670.100	53.789	0.100
670.200	49.841	0.100
670.300	55.489	0.100
670.400	48.252	0.100
670.500	34.748	0.100
670.600	36.502	0.100
670.700	48.353	0.100
670.800	44.879	0.100
670.900	57.501	0.100
671.000	51.809	0.100
671.100	43.262	0.100
671.200	57.187	0.100
671.300	32.667	0.100
671.400	62.188	0.100
671.500	57.282	0.100
671.600	47.824	0.100
671.700	58.631	0.100
671.800	52.120	0.100
671.900	36.393	0.100
672.000	38.279	0.100
672.100	52.907	0.100
672.200	48.064	0.100
672.300	38.246	0.100
672.400	41.545	0.100
672.500	47.517	0.100
672.600	43.296	0.100
672.700	52.367	0.100
672.800	45.066	0.100
672.900	57.380	0.100
673.000	56.331	0.100
673.100	42.135	0.100
673.200	55.513	0.100
673.300	52.170	0.100
673.400	47.619	0.100
673.500	68.271	0.100
673.600	51.997	0.100
673.700	51.935	0.100
673.800	45.267	0.100
673.900	54.485	0.100
674.000	39.908	0.100
674.100	50.488	0.100
674.200	59.314	0.100
674.300	60.696	0.100
674.400	46.631	0.100
674.500	41.770	0.100
674.600	43.240	0.100
674.700	49.861	0.100
674.800	58.440	0.100
674.900	60.451	0.100
675.000	39.969	0.100
675.100	37.434	0.100
675.200	45.277	0.100
675.300	54.988	0.100
675.400	41.078	0.100
675.500	62.032	0.100
675.600	50.272	0.100
675.700	45.373	0.100
675.800	48.466	0.100
675.900	43.016	0.100
676.000	44.611	0.100
676.100	48.183	0.100
676.200	54.817	0.100
676.300	53.672	0.100
676.400	47.476	0.100
676.500	60.883	0.100
676.600	59.388	0.100
676.700	58.655	0.100
676.800	50.667	0.100
676.900	54.590	0.100
677.000	46.668	0.100
677.100	58.566	0.100
677.200	44.664	0.100
677.300	45.590	0.100
677.400	44.837	0.100
677.500	53.765	0.100
677.600	54.823	0.100
677.700	62.885	0.100
677.800	46.204	0.100
677.900	52.168	0.100
678.000	31.803	0.100
678.100	62.904	0.100
678.200	35.694	0.100
678.300	30.634	0.100
678.400	50.155	0.100
678.500	53.667	0.100
678.600	62.782	0.100
678.700	53.827	0.100
678.800	43.083	0.100
678.900	57.034	0.100
679.000	57.698	0.100
679.100	57.751	0.100
679.200	55.314	0.100
679.300	47.810	0.100
679.400	48.540	0.100
679.500	39.948	0.100
679.600	49.428	0.100
679.700	51.303	0.100
679.800	47.741	0.100
679.900	48.796	0.100
680.000	54.856	0.100
680.100	50.712	0.100
680.200	51.931	0.100
680.300	54.669	0.100
680.400	49.585	0.100
680.500	44.709	0.100
680.600	54.557	0.100
680.700	35.926	0.100
680.800	50.287	0.100
680.900	58.100	0.100
681.000	53.869	0.100
681.100	49.214	0.100
681.200	46.092	0.100
681.300	55.129	0.100
681.400	37.297	0.100
681.500	53.778	0.100
681.600	43.922	0.100
681.700	48.611	0.100
681.800	49.920	0.100
681.900	51.873	0.100
682.000	59.255	0.100
682.100	49.330	0.100
682.200	44.774	0.100
682.300	51.199	0.100
682.400	43.292	0.100
682.500	55.057	0.100
682.600	57.525	0.100
682.700	53.946	0.100
682.800	57.320	0.100
682.900	48.767	0.100
683.000	53.382	0.100
683.100	43.257	0.100
683.200	38.191	0.100
683.300	55.754	0.100
683.400	68.188	0.100
683.500	53.009	0.100
683.600	56.609	0.100
683.700	58.200	0.100
683.800	46.496	0.100
683.900	38.719	0.100
684.000	51.973	0.100
684.100	42.524	0.100
684.200	44.419	0.100
684.300	54.664	0.100
684.400	40.397	0.100
684.500	38.757	0.100
684.600	52.480	0.100
684.700	50.676	0.100
684.800	56.040	0.100
684.900	55.027	0.100
685.000	48.253	0.100
685.100	64.312	0.100
685.200	44.454	0.100
685.300	60.483	0.100
685.400	48.139	0.100
685.500	32.971	0.100
685.600	60.957	0.100
685.700	61.565	0.100
685.800	53.770	0.100
685.900	47.176	0.100
686.000	49.786	0.100
686.100	58.287	0.100
686.200	43.927	0.100
686.300	50.509	0.100
686.400	43.809	0.100
686.500	50.614	0.100
686.600	59.161	0.100
686.700	53.373	0.100
686.800	55.120	0.100
686.900	56.520	0.100
687.000	45.977	0.100
687.100	51.377	0.100
687.200	61.471	0.100
687.300	62.136	0.100
687.400	61.116	0.100
687.500	46.059	0.100
687.600	36.234	0.100
687.700	54.308	0.100
687.800	41.577	0.100
687.900	61.702	0.100
688.000	61.613	0.100
688.100	57.378	0.100
688.200	51.047	0.100
688.300	43.964	0.100
688.400	41.251	0.100
688.500	62.285	0.100
688.600	55.759	0.100
688.700	49.362	0.100
688.800	54.524	0.100
688.900	40.372	0.100
689.000	45.310	0.100
689.100	57.944	0.100
689.200	59.658	0.100
689.300	52.263	0.100
689.400	51.090	0.100
689.500	29.253	0.100
689.600	38.844	0.100
689.700	38.080	0.100
689.800	39.558	0.100
689.900	47.950	0.100
690.000	42.705	0.100
690.100	51.165	0.100
690.200	67.136	0.100
690.300	55.028	0.100
690.400	39.812	0.100
690.500	49.746	0.100
690.600	57.333	0.100
690.700	31.776	0.100
690.800	48.079	0.100
690.900	40.670	0.100
691.000	50.985	0.100
691.100	46.807	0.100
691.200	42.438	0.100
691.300	50.999	0.100
691.400	39.277	0.100
691.500	48.729	0.100
691.600	23.451	0.100
691.700	36.035	0.100
691.800	44.632	0.100
691.900	30.200	0.100
692.000	32.793	0.100
692.100	33.909	0.100
692.200	31.304	0.100
692.300	35.298	0.100
692.400	22.520	0.100
692.500	39.143	0.100
692.600	33.186	0.100
692.700	30.857	0.100
692.800	40.493	0.100
692.900	29.274	0.100
693.000	16.773	0.100
693.100	25.306	0.100
693.200	53.588	0.100
693.300	30.853	0.100
693.400	33.743	0.100
693.500	28.033	0.100
693.600	32.088	0.100
693.700	21.149	0.100
693.800	32.741	0.100
693.900	28.700	0.100
694.000	4.182	0.100
694.100	24.325	0.100
694.200	27.298	0.100
694.300	17.905	0.100
694.400	12.553	0.100
694.500	26.486	0.100
694.600	29.251	0.100
694.700	17.635	0.100
694.800	-0.029	0.100
694.900	23.646	0.100
695.000	25.393	0.100
695.100	16.390	0.100
695.200	12.742	0.100
695.300	35.305	0.100
695.400	20.967	0.100
695.500	7.781	0.100
695.600	9.115	0.100
695.700	10.133	0.100
695.800	16.992	0.100
695.900	19.830	0.100
696.000	29.553	0.100
696.100	11.893	0.100
696.200	20.044	0.100
696.300	6.724	0.100
696.400	6.489	0.100
696.500	12.472	0.100
696.600	3.347	0.100
696.700	1.733	0.100
696.800	7.085	0.100
696.900	12.865	0.100
697.000	1.586	0.100
697.100	16.784	0.100
697.200	3.891	0.100
697.300	12.072	0.100
697.400	1.267	0.100
697.500	3.866	0.100
697.600	3.977	0.100
697.700	9.653	0.100
697.800	8.277	0.100
697.900	2.949	0.100
698.000	-3.624	0.100
698.100	-3.527	0.100
698.200	3.769	0.100
698.300	13.782	0.100
698.400	5.449	0.100
698.500	8.856	0.100
698.600	20.293	0.100
698.700	-1.078	0.100
698.800	3.681	0.100
698.900	-3.798	0.100
699.000	-16.236	0.100
699.100	11.669	0.100
699.200	6.777	0.100
699.300	6.225	0.100
699.400	3.094	0.100
699.500	-3.554	0.100
699.600	-1.978	0.100
699.700	0.526	0.100
699.800	12.740	0.100
699.900	3.423	0.100
700.000	-9.486	0.100
700.100	1.960	0.100
700.200	0.508	0.100
700.300	-1.903	0.100
700.400	-5.473	0.100
700.500	8.084	0.100
700.600	5.342	0.100
700.700	-3.409	0.100
700.800	7.275	0.100
700.900	1.578	0.100
701.000	8.242	0.100
701.100	-3.984	0.100
701.200	-6.915	0.100
701.300	-6.748	0.100
701.400	12.323	0.100
701.500	-3.755	0.100
701.600	-9.551	0.100
701.700	-2.935	0.100
701.800	-7.968	0.100
701.900	-13.208	0.100
702.000	-13.519	0.100
702.100	-3.426	0.100
702.200	-1.533	0.100
702.300	4.158	0.100
702.400	-6.879	0.100
702.500	-0.864	0.100
702.600	-8.028	0.100
702.700	6.048	0.100
702.800	3.206	0.100
702.900	-2.758	0.100
703.000	-8.893	0.100
703.100	-7.929	0.100
703.200	-6.783	0.100
703.300	-9.155	0.100
703.400	-6.554	0.100
703.500	-10.586	0.100
703.600	-15.091	0.100
703.700	-1.724	0.100
703.800	9.035	0.100
703.900	-21.920	0.100
704.000	-9.002	0.100
704.100	5.505	0.100
704.200	-15.445	0.100
704.300	-2.206	0.100
704.400	-6.289	0.100
704.500	-16.348	0.100
704.600	-13.397	0.100
704.700	-4.916	0.100
704.800	11.800	0.100
704.900	-15.269	0.100
705.000	-7.951	0.100
705.100	-11.177	0.100
705.200	-21.852	0.100
705.300	-13.263	0.100
705.400	4.925	0.100
705.500	-13.124	0.100
705.600	3.384	0.100
705.700	-5.038	0.100
705.800	1.053	0.100
705.900	-19.716	0.100
706.000	-15.518	0.100
706.100	-3.211	0.100
706.200	-8.577	0.100
706.300	-15.231	0.100
706.400	-5.359	0.100
706.500	-1.400	0.100
706.600	-10.411	0.100
706.700	3.448	0.100
706.800	-20.096	0.100
706.900	-23.913	0.100
707.000	-15.162	0.100
707.100	-14.440	0.100
707.200	-9.336	0.100
707.300	10.364	0.100
707.400	-6.359	0.100
707.500	-7.224	0.100
707.600	-23.419	0.100
707.700	-13.465	0.100
707.800	-9.286	0.100
707.900	-6.855	0.100
708.000	-14.737	0.100
708.100	-18.594	0.100
708.200	-21.305	0.100
708.300	-13.417	0.100
708.400	-14.344	0.100
708.500	-11.248	0.100
708.600	-0.264	0.100
708.700	-18.273	0.100
708.800	-15.081	0.100
708.900	-8.154	0.100
709.000	0.776	0.100
709.100	-11.575	0.100
709.200	-21.152	0.100
709.300	-14.816	0.100
709.400	-19.820	0.100
709.500	-18.684	0.100
709.600	-24.079	0.100
709.700	-8.221	0.100
709.800	-17.234	0.100
709.900	-28.415	0.100
710.000	-22.744	0.100
710.100	-10.982	0.100
710.200	-28.916	0.100
710.300	-6.142	0.100
710.400	-0.030	0.100
710.500	-23.708	0.100
710.600	-15.536	0.100
710.700	-17.555	0.100
710.800	-11.624	0.100
710.900	-12.143	0.100
711.000	-12.795	0.100
711.100	-13.375	0.100
711.200	-39.306	0.100
711.300	-20.527	0.100
711.400	-12.435	0.100
711.500	-20.567	0.100
711.600	-24.281	0.100
711.700	-27.241	0.100
711.800	-16.317	0.100
711.900	-23.665	0.100
712.000	-23.851	0.100
712.100	-19.436	0.100
712.200	-12.182	0.100
712.300	-3.419	0.100
712.400	-19.533	0.100
712.500	-24.397	0.100
712.600	-23.722	0.100
712.700	-20.886	0.100
712.800	-34.770	0.100
712.900	-22.038	0.100
713.000	-22.776	0.100
713.100	-18.098	0.100
713.200	-15.801	0.100
713.300	-2.689	0.100
713.400	-9.265	0.100
713.500	-20.427	0.100
713.600	-34.204	0.100
713.700	-20.666	0.100
713.800	-31.447	0.100
713.900	-15.747	0.100
714.000	-10.364	0.100
714.100	-16.933	0.100
714.200	-19.670	0.100
714.300	-26.669	0.100
714.400	-18.527	0.100
714.500	-25.393	0.100
714.600	-21.078	0.100
714.700	-29.429	0.100
714.800	-10.911	0.100
714.900	-25.631	0.100
715.000	-16.902	0.100
715.100	-30.441	0.100
715.200	-16.616	0.100
715.300	-16.721	0.100
715.400	-23.367	0.100
715.500	-21.606	0.100
715.600	-18.233	0.100
715.700	-20.282	0.100
715.800	-23.824	0.100
715.900	-16.652	0.100
716.000	-28.148	0.100
716.100	-31.785	0.100
716.200	-7.781	0.100
716.300	-29.289	0.100
716.400	-29.086	0.100
716.500	-28.098	0.100
716.600	-14.048	0.100
716.700	-28.633	0.100
716.800	-25.084	0.100
716.900	-13.780	0.100
717.000	-27.719	0.100
717.100	-30.326	0.100
717.200	-41.437	0.100
717.300	-34.593	0.100
717.400	-17.764	0.100
717.500	-25.510	0.100
717.600	-38.122	0.100
717.700	-33.807	0.100
717.800	-23.474	0.100
717.900	-30.600	0.100
718.000	-15.712	0.100
718.100	-19.978	0.100
718.200	-33.112	0.100
718.300	-39.366	0.100
718.400	-28.997	0.100
718.500	-36.198	0.100
718.600	-15.791	0.100
718.700	-35.240	0.100
718.800	-25.757	0.100
718.900	-43.419	0.100
719.000	-31.391	0.100
719.100	-30.812	0.100
719.200	-21.531	0.100
719.300	-29.452	0.100
719.400	-29.344	0.100
719.500	-27.039	0.100
719.600	-40.585	0.100
719.700	-20.110	0.100
719.800	-25.967	0.100
719.900	-30.589	0.100
720.000	-26.526	0.100
720.100	-30.576	0.100
720.200	-25.911	0.100
720.300	-24.439	0.100
720.400	-31.474	0.100
720.500	-28.447	0.100
720.600	-14.739	0.100
720.700	-24.669	0.100
720.800	-36.268	0.100
720.900	-41.773	0.100
721.000	-30.533	0.100
721.100	-31.163	0.100
721.200	-32.163	0.100
721.300	-24.751	0.100
721.400	-20.780	0.100
721.500	-37.506	0.100
721.600	-26.049	0.100
721.700	-29.334	0.100
721.800	-31.337	0.100
721.900	-32.209	0.100
722.000	-25.017	0.100
722.100	-27.433	0.100
722.200	-27.943	0.100
722.300	-33.466	0.100
722.400	-11.972	0.100
722.500	-27.409	0.100
722.600	-19.174	0.100
722.700	-40.892	0.100
722.800	-23.153	0.100
722.900	-39.372	0.100
723.000	-28.336	0.100
723.100	-44.912	0.100
723.200	-31.279	0.100
723.300	-31.006	0.100
723.400	-28.275	0.100
723.500	-31.142	0.100
723.600	-37.677	0.100
723.700	-40.352	0.100
723.800	-47.198	0.100
723.900	-26.309	0.100
724.000	-25.735	0.100
724.100	-30.125	0.100
724.200	-32.568	0.100
724.300	-53.534	0.100
724.400	-29.800	0.100
724.500	-28.874	0.100
724.600	-29.823	0.100
724.700	-38.497	0.100
724.800	-34.341	0.100
724.900	-30.466	0.100
725.000	-29.689	0.100
725.100	-32.710	0.100
725.200	-35.658	0.100
725.300	-31.344	0.100
725.400	-40.155	0.100
725.500	-31.380	0.100
725.600	-36.603	0.100
725.700	-25.311	0.100
725.800	-28.474	0.100
725.900	-44.726	0.100
726.000	-40.138	0.100
726.100	-31.395	0.100
726.200	-28.256	0.100
726.300	-27.222	0.100
726.400	-38.284	0.100
726.500	-38.925	0.100
726.600	-35.690	0.100
726.700	-43.585	0.100
726.800	-34.158	0.100
726.900	-39.569	0.100
727.000	-28.106	0.100
727.100	-27.111	0.100
727.200	-29.819	0.100
727.300	-39.856	0.100
727.400	-35.653	0.100
727.500	-35.395	0.100
727.600	-29.710	0.100
727.700	-33.345	0.100
727.800	-32.851	0.100
727.900	-39.867	0.100
728.000	-29.975	0.100
728.100	-35.418	0.100
728.200	-38.236	0.100
728.300	-39.434	0.100
728.400	-47.044	0.100
728.500	-44.625	0.100
728.600	-32.864	0.100
728.700	-32.876	0.100
728.800	-32.093	0.100
728.900	-28.311	0.100
729.000	-37.355	0.100
729.100	-36.358	0.100
729.200	-36.535	0.100
729.300	-40.333	0.100
729.400	-31.194	0.100
729.500	-46.820	0.100
729.600	-39.168	0.100
729.700	-32.780	0.100
729.800	-37.128	0.100
729.900	-27.713	0.100
730.000	-38.640	0.100
730.100	-34.064	0.100
730.200	-59.099	0.100
730.300	-31.810	0.100
730.400	-28.038	0.100
730.500	-39.735	0.100
730.600	-30.669	0.100
730.700	-30.994	0.100
730.800	-34.605	0.100
730.900	-40.477	0.100
731.000	-28.008	0.100
731.100	-40.229	0.100
731.200	-31.934	0.100
731.300	-37.719	0.100
731.400	-29.857	0.100
731.500	-49.638	0.100
731.600	-36.209	0.100
731.700	-45.651	0.100
731.800	-28.248	0.100
731.900	-50.761	0.100
732.000	-36.905	0.100
732.100	-51.627	0.100
732.200	-29.553	0.100
732.300	-39.978	0.100
732.400	-30.879	0.100
732.500	-43.426	0.100
732.600	-46.754	0.100
732.700	-35.112	0.100
732.800	-34.103	0.100
732.900	-30.219	0.100
733.000	-50.234	0.100
733.100	-53.691	0.100
733.200	-38.103	0.100
733.300	-47.866	0.100
733.400	-20.840	0.100
733.500	-39.230	0.100
733.600	-38.295	0.100
733.700	-42.975	0.100
733.800	-53.835	0.100
733.900	-48.114	0.100
734.000	-44.932	0.100
734.100	-41.497	0.100
734.200	-39.833	0.100
734.300	-36.667	0.100
734.400	-41.434	0.100
734.500	-50.335	0.100
734.600	-43.855	0.100
734.700	-41.319	0.100
734.800	-34.091	0.100
734.900	-34.618	0.100
735.000	-42.529	0.100
735.100	-38.006	0.100
735.200	-37.930	0.100
735.300	-40.282	0.100
735.400	-26.178	0.100
735.500	-36.129	0.100
735.600	-51.986	0.100
735.700	-40.834	0.100
735.800	-51.145	0.100
735.900	-39.906	0.100
736.000	-57.040	0.100
736.100	-42.984	0.100
736.200	-46.327	0.100
736.300	-38.916	0.100
736.400	-27.564	0.100
736.500	-41.929	0.100
736.600	-35.694	0.100
736.700	-49.421	0.100
736.800	-49.817	0.100
736.900	-43.153	0.100
737.000	-37.960	0.100
737.100	-42.721	0.100
737.200	-41.479	0.100
737.300	-44.845	0.100
737.400	-41.229	0.100
737.500	-40.067	0.100
737.600	-35.310	0.100
737.700	-56.323	0.100
737.800	-35.829	0.100
737.900	-34.431	0.100
738.000	-42.161	0.100
738.100	-47.535	0.100
738.200	-40.960	0.100
738.300	-58.962	0.099
738.400	-43.176	0.100
738.500	-41.476	0.100
738.600	-44.070	0.100
738.700	-45.780	0.100
738.800	-32.698	0.100
738.900	-32.867	0.100
739.000	-37.225	0.100
739.100	-45.187	0.100
739.200	-52.949	0.099
739.300	-46.718	0.100
739.400	-37.263	0.100
739.500	-42.984	0.100
739.600	-46.822	0.100
739.700	-49.093	0.100
739.800	-39.742	0.100
739.900	-52.962	0.100
740.000	-50.890	0.100
740.100	-49.029	0.100
740.200	-39.702	0.100
740.300	-54.468	0.100
740.400	-34.253	0.099
740.500	-39.521	0.100
740.600	-54.283	0.100
740.700	-46.973	0.099
740.800	-43.982	0.100
740.900	-30.090	0.100
741.000	-34.370	0.100
741.100	-51.830	0.099
741.200	-48.343	0.099
741.300	-40.617	0.100
741.400	-48.530	0.100
741.500	-43.196	0.099
741.600	-31.481	0.099
741.700	-39.230	0.100
741.800	-44.134	0.100
741.900	-55.649	0.100
742.000	-51.519	0.100
742.100	-50.135	0.099
742.200	-48.665	0.099
742.300	-39.172	0.099
742.400	-40.629	0.100
742.500	-51.197	0.100
742.600	-42.660	0.100
742.700	-42.107	0.100
742.800	-42.735	0.100
742.900	-53.869	0.100
743.000	-34.128	0.100
743.100	-43.175	0.100
743.200	-43.783	0.100
743.300	-47.708	0.100
743.400	-46.057	0.099
743.500	-41.134	0.100
743.600	-36.169	0.099
743.700	-46.527	0.100
743.800	-48.113	0.099
743.900	-42.731	0.099
744.000	-50.366	0.100
744.100	-54.361	0.099
744.200	-62.172	0.099
744.300	-50.713	0.099
744.400	-36.812	0.100
744.500	-30.080	0.099
744.600	-49.593	0.100
744.700	-42.984	0.100
744.800	-45.646	0.100
744.900	-51.161	0.100
745.000	-50.218	0.100
745.100	-46.221	0.099
745.200	-34.419	0.099
745.300	-49.928	0.100
745.400	-54.592	0.100
745.500	-50.939	0.100
745.600	-56.421	0.099
745.700	-53.856	0.100
745.800	-50.118	0.099
745.900	-38.958	0.100
746.000	-43.268	0.099
746.100	-46.554	0.099
746.200	-42.275	0.099
746.300	-47.687	0.099
746.400	-50.482	0.099
746.500	-45.576	0.100
746.600	-62.165	0.100
746.700	-66.651	0.099
746.800	-49.027	0.099
746.900	-47.707	0.099
747.000	-59.893	0.099
747.100	-51.946	0.099
747.200	-36.711	0.099
747.300	-39.371	0.099
747.400	-50.664	0.099
747.500	-48.827	0.099
747.600	-39.995	0.099
747.700	-43.160	0.099
747.800	-46.585	0.099
747.900	-43.631	0.099
748.000	-43.778	0.099
748.100	-43.521	0.099
748.200	-78.013	0.099
748.300	-67.613	0.099
748.400	-39.606	0.099
748.500	-41.087	0.099
748.600	-57.748	0.099
748.700	-48.651	0.099
748.800	-46.540	0.099
748.900	-42.938	0.099
749.000	-49.892	0.099
749.100	-45.349	0.099
749.200	-34.867	0.099
749.300	-33.028	0.099
749.400	-41.845	0.099
749.500	-43.391	0.099
749.600	-54.684	0.099
749.700	-61.708	0.099
749.800	-54.608	0.099
749.900	-47.677	0.099
750.000	-42.897	0.099
750.100	-42.048	0.099
750.200	-52.354	0.099
750.300	-54.674	0.099
750.400	-57.850	0.099
750.500	-52.424	0.099
750.600	-47.028	0.099
750.700	-49.290	0.099
750.800	-39.428	0.099
750.900	-48.612	0.099
751.000	-51.330	0.099
751.100	-50.187	0.099
751.200	-38.506	0.099
751.300	-46.632	0.099
751.400	-45.796	0.099
751.500	-20.495	0.099
751.600	-42.915	0.099
751.700	-64.964	0.099
751.800	-57.936	0.099
751.900	-49.340	0.099
752.000	-42.334	0.099
752.100	-50.238	0.099
752.200	-55.956	0.099
752.300	-58.089	0.099
752.400	-42.474	0.099
752.500	-52.544	0.099
752.600	-36.681	0.099
752.700	-46.477	0.099
752.800	-34.645	0.099
752.900	-46.330	0.099
753.000	-50.492	0.099
753.100	-42.159	0.099
753.200	-58.689	0.099
753.300	-65.650	0.099
753.400	-45.571	0.099
753.500	-42.162	0.099
753.600	-41.270	0.099
753.700	-44.734	0.099
753.800	-64.803	0.099
753.900	-46.347	0.099
754.000	-55.225	0.099
754.100	-53.834	0.099
754.200	-52.093	0.099
754.300	-53.319	0.099
754.400	-49.358	0.099
754.500	-58.282	0.099
754.600	-36.521	0.099
754.700	-45.232	0.099
754.800	-44.608	0.099
754.900	-53.124	0.099
755.000	-55.823	0.099
755.100	-35.381	0.099
755.200	-55.006	0.099
755.300	-60.678	0.099
755.400	-51.414	0.099
755.500	-52.435	0.099
755.600	-31.949	0.099
755.700	-47.627	0.099
755.800	-55.420	0.099
755.900	-67.326	0.099
756.000	-62.479	0.099
756.100	-49.966	0.099
756.200	-57.184	0.099
756.300	-57.686	0.099
756.400	-48.249	0.099
756.500	-31.520	0.099
756.600	-45.899	0.099
756.700	-52.240	0.099
756.800	-53.595	0.099
756.900	-38.883	0.099
757.000	-41.771	0.099
757.100	-44.423	0.099
757.200	-51.983	0.099
757.300	-51.400	0.099
757.400	-42.122	0.099
757.500	-67.561	0.099
757.600	-46.598	0.099
757.700	-51.568	0.099
757.800	-32.964	0.099
757.900	-53.179	0.099
758.000	-49.683	0.099
758.100	-58.387	0.099
758.200	-38.002	0.099
758.300	-44.672	0.099
758.400	-50.738	0.099
758.500	-54.900	0.099
758.600	-48.478	0.099
758.700	-37.284	0.099
758.800	-48.674	0.099
758.900	-55.273	0.099
759.000	-69.323	0.099
759.100	-40.847	0.099
759.200	-46.756	0.099
759.300	-31.746	0.099
759.400	-51.758	0.099
759.500	-63.194	0.099
759.600	-42.251	0.099
759.700	-45.607	0.099
759.800	-51.480	0.099
759.900	-56.351	0.099
760.000	-56.053	0.099
760.100	-51.496	0.099
760.200	-44.837	0.099
760.300	-50.765	0.099
760.400	-40.079	0.099
760.500	-63.237	0.099
760.600	-62.426	0.099
760.700	-53.221	0.099
760.800	-41.197	0.099
760.900	-53.027	0.099
761.000	-40.396	0.099
761.100	-46.046	0.099
761.200	-45.232	0.099
761.300	-68.106	0.099
761.400	-54.910	0.099
761.500	-71.620	0.099
761.600	-61.992	0.099
761.700	-42.605	0.099
761.800	-46.492	0.099
761.900	-49.062	0.099
762.000	-43.015	0.099
762.100	-49.814	0.099
762.200	-54.772	0.099
762.300	-52.160	0.099
762.400	-53.435	0.099
762.500	-44.258	0.099
762.600	-44.182	0.099
762.700	-52.336	0.099
762.800	-55.791	0.099
762.900	-55.337	0.099
763.000	-49.751	0.099
763.100	-50.027	0.099
763.200	-47.637	0.099
763.300	-47.923	0.099
763.400	-52.261	0.099
763.500	-45.892	0.099
763.600	-58.868	0.099
763.700	-50.422	0.099
763.800	-62.910	0.099
763.900	-65.248	0.099
764.000	-49.549	0.099
764.100	-53.846	0.099
764.200	-53.516	0.099
764.300	-54.396	0.099
764.400	-60.426	0.099
764.500	-52.223	0.099
764.600	-42.108	0.099
764.700	-41.979	0.099
764.800	-54.914	0.099
764.900	-64.936	0.099
765.000	-55.550	0.099
765.100	-48.259	0.099
765.200	-66.075	0.099
765.300	-54.832	0.099
765.400	-41.757	0.099
765.500	-40.936	0.099
765.600	-51.398	0.099
765.700	-48.650	0.099
765.800	-52.477	0.099
765.900	-44.986	0.099
766.000	-47.079	0.099
766.100	-63.885	0.099
766.200	-54.897	0.099
766.300	-43.005	0.099
766.400	-40.625	0.099
766.500	-64.684	0.099
766.600	-56.340	0.099
766.700	-39.804	0.099
766.800	-49.681	0.099
766.900	-57.897	0.099
767.000	-58.807	0.099
767.100	-38.641	0.099
767.200	-42.489	0.099
767.300	-58.967	0.099
767.400	-62.401	0.099
767.500	-50.149	0.099
767.600	-35.152	0.099
767.700	-54.040	0.099
767.800	-54.207	0.099
767.900	-54.833	0.099
768.000	-58.728	0.099
768.100	-46.902	0.099
768.200	-50.890	0.099
768.300	-55.775	0.099
768.400	-45.307	0.099
768.500	-62.314	0.099
768.600	-49.573	0.099
768.700	-62.541	0.099
768.800	-34.414	0.099
768.900	-52.288	0.099
769.000	-48.455	0.099
769.100	-50.498	0.099
769.200	-51.499	0.099
769.300	-56.046	0.099
769.400	-52.432	0.099
769.500	-67.572	0.099
769.600	-48.610	0.099
769.700	-58.049	0.099
769.800	-48.464	0.099
769.900	-56.964	0.099
770.000	-48.983	0.099
770.100	-47.087	0.099
770.200	-50.311	0.099
770.300	-52.210	0.099
770.400	-59.059	0.099
770.500	-53.183	0.099
770.600	-40.558	0.099
770.700	-52.017	0.099
770.800	-60.023	0.099
770.900	-58.631	0.099
771.000	-35.321	0.099
771.100	-51.373	0.099
771.200	-49.619	0.099
771.300	-40.269	0.099
771.400	-43.348	0.099
771.500	-42.990	0.099
771.600	-42.881	0.099
771.700	-48.563	0.099
771.800	-49.562	0.099
771.900	-58.046	0.099
772.000	-55.140	0.099
772.100	-54.747	0.099
772.200	-70.383	0.099
772.300	-48.495	0.099
772.400	-39.382	0.099
772.500	-39.193	0.099
772.600	-33.604	0.099
772.700	-48.576	0.099
772.800	-62.358	0.099
772.900	-53.610	0.099
773.000	-55.387	0.099
773.100	-47.306	0.099
773.200	-53.341	0.099
773.300	-58.691	0.099
773.400	-43.591	0.099
773.500	-54.206	0.099
773.600	-61.010	0.099
773.700	-43.599	0.099
773.800	-45.119	0.099
773.900	-48.120	0.099
774.000	-57.233	0.099
774.100	-59.841	0.099
774.200	-58.047	0.099
774.300	-50.993	0.099
774.400	-59.282	0.099
774.500	-35.766	0.099
774.600	-46.557	0.099
774.700	-58.577	0.099
774.800	-48.433	0.099
774.900	-46.328	0.099
775.000	-50.844	0.099
775.100	-54.588	0.099
775.200	-50.918	0.099
775.300	-53.619	0.099
775.400	-51.573	0.099
775.500	-42.680	0.099
775.600	-44.893	0.099
775.700	-49.708	0.099
775.800	-53.934	0.099
775.900	-57.033	0.099
776.000	-30.705	0.099
776.100	-42.024	0.099
776.200	-44.589	0.099
776.300	-53.913	0.099
776.400	-44.847	0.099
776.500	-56.999	0.099
776.600	-46.795	0.099
776.700	-42.784	0.099
776.800	-62.896	0.099
776.900	-54.334	0.099
777.000	-48.242	0.099
777.100	-49.865	0.099
777.200	-48.856	0.099
777.300	-45.118	0.099
777.400	-47.961	0.099
777.500	-46.135	0.099
777.600	-54.302	0.099
777.700	-58.137	0.099
777.800	-67.752	0.099
777.900	-60.340	0.099
778.000	-43.029	0.099
778.100	-43.647	0.099
778.200	-42.091	0.099
778.300	-39.421	0.099
778.400	-48.030	0.099
778.500	-53.526	0.099
778.600	-53.192	0.099
778.700	-61.092	0.099
778.800	-58.077	0.099
778.900	-54.931	0.099
779.000	-61.399	0.099
779.100	-51.110	0.099
779.200	-49.143	0.099
779.300	-43.898	0.099
779.400	-58.478	0.099
779.500	-48.468	0.099
779.600	-55.071	0.099
779.700	-55.626	0.099
779.800	-46.824	0.099
779.900	-37.802	0.099
780.000	-53.852	0.099
780.100	-42.814	0.099
780.200	-54.547	0.099
780.300	-56.604	0.099
780.400	-50.011	0.099
780.500	-43.248	0.099
780.600	-53.131	0.099
780.700	-43.613	0.099
780.800	-41.171	0.099
780.900	-53.996	0.099
781.000	-47.219	0.099
781.100	-38.291	0.099
781.200	-48.815	0.099
781.300	-47.794	0.099
781.400	-42.114	0.099
781.500	-36.846	0.099
781.600	-43.166	0.099
781.700	-32.854	0.099
781.800	-27.014	0.099
781.900	-35.548	0.099
782.000	-35.350	0.099
782.100	-28.634	0.099
782.200	-27.492	0.099
782.300	-38.234	0.099
782.400	-34.424	0.099
782.500	-44.474	0.099
782.600	-12.833	0.099
782.700	-28.355	0.099
782.800	-37.198	0.099
782.900	-8.884	0.099
783.000	-30.153	0.099
783.100	-34.508	0.099
783.200	-42.222	0.099
783.300	-25.173	0.099
783.400	-30.899	0.099
783.500	-34.310	0.099
783.600	-13.314	0.099
783.700	-20.853	0.099
783.800	-48.104	0.099
783.900	-32.305	0.099
784.000	-21.993	0.099
784.100	-17.221	0.099
784.200	-34.452	0.099
784.300	-14.255	0.099
784.400	-25.312	0.099
784.500	-23.013	0.099
784.600	-26.683	0.099
784.700	-26.076	0.099
784.800	-18.767	0.099
784.900	-22.239	0.099
785.000	-20.131	0.099
785.100	-46.584	0.099
785.200	-36.052	0.099
785.300	-23.223	0.099
785.400	-20.381	0.099
785.500	-23.579	0.099
785.600	-14.798	0.099
785.700	-13.470	0.099
785.800	-22.694	0.099
785.900	-14.970	0.099
786.000	-25.812	0.099
786.100	-9.337	0.099
786.200	-21.320	0.099
786.300	-29.227	0.099
786.400	-29.774	0.099
786.500	-19.026	0.099
786.600	-22.187	0.099
786.700	-8.012	0.099
786.800	-32.604	0.099
786.900	-27.210	0.099
787.000	-19.360	0.099
787.100	-26.646	0.099
787.200	-23.294	0.099
787.300	-13.455	0.099
787.400	-12.197	0.099
787.500	-10.212	0.099
787.600	-25.063	0.099
787.700	-20.636	0.099
787.800	-12.852	0.099
787.900	-22.538	0.099
788.000	-18.482	0.099
788.100	-23.676	0.099
788.200	-25.794	0.099
788.300	-14.678	0.099
788.400	-16.366	0.099
788.500	-22.739	0.099
788.600	-25.216	0.099
788.700	-2.341	0.099
788.800	-7.395	0.099
788.900	-20.291	0.099
789.000	-17.462	0.099
789.100	-32.766	0.099
789.200	-5.767	0.099
789.300	-2.664	0.099
789.400	-10.336	0.099
789.500	-41.302	0.099
789.600	-15.161	0.099
789.700	-7.659	0.099
789.800	-19.003	0.099
789.900	-12.441	0.099
790.000	-20.130	0.099
790.100	-12.396	0.099
790.200	-10.884	0.099
790.300	-6.238	0.099
790.400	-17.135	0.099
790.500	-10.322	0.099
790.600	-10.703	0.099
790.700	-20.350	0.099
790.800	-11.774	0.099
790.900	-14.093	0.099
791.000	-14.723	0.099
791.100	-8.896	0.099
791.200	-12.825	0.099
791.300	-13.463	0.099
791.400	-3.852	0.099
791.500	-17.394	0.099
791.600	-11.662	0.099
791.700	-24.967	0.099
791.800	-17.190	0.099
791.900	-19.446	0.099
792.000	-7.379	0.099
792.100	-14.817	0.099
792.200	-2.348	0.099
792.300	-5.038	0.099
792.400	-23.638	0.099
792.500	-5.885	0.099
792.600	-2.506	0.099
792.700	-8.328	0.099
792.800	1.182	0.099
792.900	-1.637	0.099
793.000	3.099	0.099
793.100	6.055	0.099
793.200	-20.434	0.099
793.300	-18.573	0.099
793.400	-14.250	0.099
793.500	-11.658	0.099
793.600	1.262	0.099
793.700	-1.402	0.099
793.800	-5.885	0.099
793.900	-9.665	0.099
794.000	-2.299	0.099
794.100	-2.356	0.099
794.200	-3.043	0.099
794.300	-3.849	0.099
794.400	-3.335	0.099
794.500	-3.710	0.099
794.600	-3.280	0.099
794.700	-4.222	0.099
794.800	6.614	0.099
794.900	-5.498	0.099
795.000	-9.215	0.099
795.100	-1.741	0.099
795.200	11.819	0.099
795.300	-7.498	0.099
795.400	-10.019	0.099
795.500	1.915	0.099
795.600	-1.855	0.099
795.700	-15.271	0.099
795.800	5.910	0.099
795.900	-0.710	0.099
796.000	-10.186	0.099
796.100	-2.949	0.099
796.200	-17.963	0.099
796.300	10.974	0.099
796.400	8.441	0.099
796.500	-1.100	0.099
796.600	-14.377	0.099
796.700	15.442	0.099
796.800	4.541	0.099
796.900	1.818	0.099
797.000	-4.722	0.099
797.100	9.847	0.099
797.200	-1.522	0.099
797.300	3.314	0.099
797.400	0.689	0.099
797.500	11.849	0.099
797.600	-2.200	0.099
797.700	-3.699	0.099
797.800	0.691	0.099
797.900	9.404	0.099
798.000	-3.135	0.099
798.100	3.810	0.099
798.200	17.777	0.099
798.300	16.621	0.099
798.400	-5.221	0.099
798.500	3.787	0.099
798.600	4.461	0.099
798.700	15.054	0.099
798.800	10.392	0.099
798.900	11.186	0.099
799.000	8.462	0.099
799.100	8.688	0.099
799.200	-8.343	0.099
799.300	1.706	0.099
799.400	14.263	0.099
799.500	8.043	0.099
799.600	1.709	0.099
799.700	10.726	0.099
799.800	8.769	0.099
799.900	13.032	0.099
800.000	19.361	0.099
