time /s	I /nA	E /V
0.100	9.145	0.100
0.200	9.187	0.100
0.300	13.969	0.100
0.400	6.158	0.100
0.500	20.321	0.100
0.600	35.096	0.100
0.700	10.317	0.100
0.800	28.051	0.100
0.900	19.852	0.100
1.000	9.892	0.100
1.100	23.541	0.100
1.200	17.602	0.100
1.300	20.763	0.100
1.400	-1.439	0.100
1.500	16.126	0.100
1.600	19.841	0.100
1.700	21.185	0.100
1.800	16.190	0.100
1.900	10.783	0.100
2.000	22.280	0.100
2.100	24.798	0.100
2.200	21.049	0.100
2.300	17.849	0.100
2.400	5.925	0.100
2.500	4.300	0.100
2.600	25.277	0.100
2.700	5.289	0.100
2.800	19.447	0.100
2.900	28.133	0.100
3.000	9.831	0.100
3.100	10.371	0.100
3.200	21.975	0.100
3.300	20.784	0.100
3.400	23.041	0.100
3.500	16.442	0.100
3.600	13.337	0.100
3.700	7.569	0.100
3.800	7.811	0.100
3.900	10.009	0.100
4.000	20.555	0.100
4.100	7.131	0.100
4.200	21.951	0.100
4.300	17.121	0.100
4.400	12.599	0.100
4.500	28.818	0.100
4.600	15.846	0.100
4.700	6.097	0.100
4.800	16.539	0.100
4.900	15.047	0.100
5.000	31.080	0.100
5.100	33.078	0.100
5.200	6.036	0.100
5.300	14.277	0.100
5.400	17.770	0.100
5.500	26.434	0.100
5.600	9.185	0.100
5.700	21.470	0.100
5.800	16.718	0.100
5.900	11.236	0.100
6.000	26.276	0.100
6.100	19.249	0.100
6.200	9.089	0.100
6.300	18.376	0.100
6.400	27.072	0.100
6.500	29.796	0.100
6.600	10.664	0.100
6.700	0.313	0.100
6.800	4.024	0.100
6.900	15.137	0.100
7.000	25.155	0.100
7.100	15.899	0.100
7.200	27.666	0.100
7.300	15.583	0.100
7.400	25.301	0.100
7.500	14.356	0.100
7.600	13.156	0.100
7.700	10.216	0.100
7.800	7.851	0.100
7.900	11.817	0.100
8.000	24.169	0.100
8.100	8.448	0.100
8.200	14.239	0.100
8.300	29.189	0.100
8.400	18.693	0.100
8.500	10.605	0.100
8.600	1.438	0.100
8.700	28.674	0.100
8.800	22.136	0.100
8.900	21.731	0.100
9.000	1.081	0.100
9.100	14.848	0.100
9.200	20.270	0.100
9.300	11.542	0.100
9.400	8.127	0.100
9.500	29.448	0.100
9.600	20.251	0.100
9.700	19.861	0.100
9.800	17.357	0.100
9.900	16.221	0.100
10.000	30.217	0.100
10.100	21.498	0.100
10.200	22.536	0.100
10.300	15.078	0.100
10.400	11.598	0.100
10.500	25.037	0.100
10.600	13.323	0.100
10.700	8.125	0.100
10.800	-4.471	0.100
10.900	18.904	0.100
11.000	12.126	0.100
11.100	11.967	0.100
11.200	16.875	0.100
11.300	7.102	0.100
11.400	4.773	0.100
11.500	17.206	0.100
11.600	8.331	0.100
11.700	31.179	0.100
11.800	6.187	0.100
11.900	8.819	0.100
12.000	23.735	0.100
12.100	29.883	0.100
12.200	17.858	0.100
12.300	20.805	0.100
12.400	21.565	0.100
12.500	9.214	0.100
12.600	10.166	0.100
12.700	26.010	0.100
12.800	5.716	0.100
12.900	8.924	0.100
13.000	34.177	0.100
13.100	14.495	0.100
13.200	13.694	0.100
13.300	31.110	0.100
13.400	23.304	0.100
13.500	11.687	0.100
13.600	17.422	0.100
13.700	17.007	0.100
13.800	20.700	0.100
13.900	16.107	0.100
14.000	9.429	0.100
14.100	19.445	0.100
14.200	11.116	0.100
14.300	14.777	0.100
14.400	23.369	0.100
14.500	24.610	0.100
14.600	18.442	0.100
14.700	12.428	0.100
14.800	15.224	0.100
14.900	22.314	0.100
15.000	20.511	0.100
15.100	9.385	0.100
15.200	11.061	0.100
15.300	7.422	0.100
15.400	12.522	0.100
15.500	15.931	0.100
15.600	17.573	0.100
15.700	10.704	0.100
15.800	22.747	0.100
15.900	14.238	0.100
16.000	21.126	0.100
16.100	16.833	0.100
16.200	16.948	0.100
16.300	2.545	0.100
16.400	30.305	0.100
16.500	27.279	0.100
16.600	27.006	0.100
16.700	23.129	0.100
16.800	15.581	0.100
16.900	6.268	0.100
17.000	2.872	0.100
17.100	5.796	0.100
17.200	20.373	0.100
17.300	27.115	0.100
17.400	17.755	0.100
17.500	-5.597	0.100
17.600	3.358	0.100
17.700	16.827	0.100
17.800	20.841	0.100
17.900	20.099	0.100
18.000	28.220	0.100
18.100	11.615	0.100
18.200	15.084	0.100
18.300	-3.178	0.100
18.400	13.477	0.100
18.500	13.634	0.100
18.600	12.384	0.100
18.700	11.695	0.100
18.800	18.461	0.100
18.900	16.029	0.100
19.000	23.096	0.100
19.100	19.915	0.100
19.200	14.508	0.100
19.300	12.044	0.100
19.400	-1.091	0.100
19.500	12.545	0.100
19.600	7.636	0.100
19.700	18.261	0.100
19.800	29.561	0.100
19.900	26.288	0.100
20.000	21.672	0.100
20.100	23.721	0.100
20.200	8.625	0.100
20.300	0.692	0.100
20.400	2.509	0.100
20.500	20.697	0.100
20.600	5.838	0.100
20.700	-0.042	0.100
20.800	23.519	0.100
20.900	22.982	0.100
21.000	25.407	0.100
21.100	0.856	0.100
21.200	10.561	0.100
21.300	22.052	0.100
21.400	6.625	0.100
21.500	13.254	0.100
21.600	16.221	0.100
21.700	12.217	0.100
21.800	12.644	0.100
21.900	23.588	0.100
22.000	1.507	0.100
22.100	12.299	0.100
22.200	24.808	0.100
22.300	4.694	0.100
22.400	7.499	0.100
22.500	10.518	0.100
22.600	19.957	0.100
22.700	22.533	0.100
22.800	21.804	0.100
22.900	11.741	0.100
23.000	24.494	0.100
23.100	22.959	0.100
23.200	19.701	0.100
23.300	6.400	0.100
23.400	10.856	0.100
23.500	16.172	0.100
23.600	-1.286	0.100
23.700	7.640	0.100
23.800	14.625	0.100
23.900	23.330	0.100
24.000	17.511	0.100
24.100	15.039	0.100
24.200	6.137	0.100
24.300	11.816	0.100
24.400	18.828	0.100
24.500	11.269	0.100
24.600	14.456	0.100
24.700	12.605	0.100
24.800	11.021	0.100
24.900	9.108	0.100
25.000	19.806	0.100
25.100	22.205	0.100
25.200	6.931	0.100
25.300	4.892	0.100
25.400	26.549	0.100
25.500	27.596	0.100
25.600	-0.781	0.100
25.700	11.876	0.100
25.800	21.186	0.100
25.900	6.627	0.100
26.000	15.696	0.100
26.100	16.162	0.100
26.200	18.686	0.100
26.300	9.711	0.100
26.400	15.108	0.100
26.500	18.747	0.100
26.600	13.073	0.100
26.700	12.455	0.100
26.800	17.893	0.100
26.900	8.543	0.100
27.000	22.110	0.100
27.100	17.842	0.100
27.200	15.343	0.100
27.300	8.571	0.100
27.400	14.011	0.100
27.500	9.522	0.100
27.600	11.075	0.100
27.700	25.441	0.100
27.800	23.766	0.100
27.900	10.297	0.100
28.000	16.433	0.100
28.100	18.896	0.100
28.200	14.227	0.100
28.300	4.665	0.100
28.400	14.704	0.100
28.500	26.394	0.100
28.600	17.331	0.100
28.700	9.775	0.100
28.800	3.724	0.100
28.900	16.465	0.100
29.000	11.817	0.100
29.100	8.266	0.100
29.200	23.145	0.100
29.300	24.359	0.100
29.400	13.801	0.100
29.500	17.488	0.100
29.600	12.098	0.100
29.700	7.582	0.100
29.800	10.293	0.100
29.900	26.606	0.100
30.000	1.154	0.100
30.100	26.114	0.100
30.200	19.043	0.100
30.300	20.139	0.100
30.400	16.478	0.100
30.500	18.608	0.100
30.600	13.671	0.100
30.700	18.286	0.100
30.800	15.254	0.100
30.900	16.383	0.100
31.000	17.627	0.100
31.100	30.896	0.100
31.200	16.656	0.100
31.300	16.035	0.100
31.400	31.091	0.100
31.500	30.646	0.100
31.600	18.820	0.100
31.700	18.405	0.100
31.800	22.159	0.100
31.900	15.990	0.100
32.000	9.544	0.100
32.100	32.992	0.100
32.200	33.780	0.100
32.300	17.601	0.100
32.400	36.997	0.100
32.500	34.492	0.100
32.600	29.696	0.100
32.700	39.235	0.100
32.800	28.120	0.100
32.900	23.219	0.100
33.000	25.210	0.100
33.100	17.545	0.100
33.200	41.340	0.100
33.300	34.006	0.100
33.400	34.252	0.100
33.500	25.286	0.100
33.600	18.654	0.100
33.700	29.529	0.100
33.800	43.213	0.100
33.900	28.033	0.100
34.000	44.111	0.100
34.100	44.580	0.100
34.200	24.766	0.100
34.300	23.598	0.100
34.400	39.432	0.100
34.500	49.343	0.100
34.600	31.304	0.100
34.700	32.124	0.100
34.800	32.494	0.100
34.900	30.974	0.100
35.000	30.788	0.100
35.100	32.563	0.100
35.200	30.546	0.100
35.300	42.060	0.100
35.400	34.610	0.100
35.500	35.709	0.100
35.600	49.285	0.100
35.700	45.575	0.100
35.800	38.836	0.100
35.900	35.508	0.100
36.000	37.089	0.100
36.100	37.540	0.100
36.200	36.984	0.100
36.300	26.993	0.100
36.400	42.927	0.100
36.500	39.069	0.100
36.600	44.552	0.100
36.700	46.151	0.100
36.800	44.143	0.100
36.900	33.367	0.100
37.000	45.214	0.100
37.100	50.217	0.100
37.200	14.094	0.100
37.300	39.890	0.100
37.400	31.265	0.100
37.500	47.230	0.100
37.600	45.149	0.100
37.700	32.753	0.100
37.800	45.329	0.100
37.900	36.414	0.100
38.000	40.801	0.100
38.100	42.270	0.100
38.200	39.101	0.100
38.300	50.681	0.100
38.400	45.692	0.100
38.500	20.952	0.100
38.600	39.255	0.100
38.700	30.442	0.100
38.800	36.115	0.100
38.900	41.781	0.100
39.000	41.743	0.100
39.100	45.691	0.100
39.200	30.776	0.100
39.300	42.654	0.100
39.400	47.750	0.100
39.500	34.283	0.100
39.600	39.189	0.100
39.700	36.689	0.100
39.800	30.707	0.100
39.900	34.496	0.100
40.000	47.743	0.100
40.100	43.845	0.100
40.200	42.852	0.100
40.300	44.251	0.100
40.400	29.083	0.100
40.500	49.300	0.100
40.600	53.493	0.100
40.700	41.772	0.100
40.800	45.121	0.100
40.900	50.122	0.100
41.000	44.047	0.100
41.100	54.484	0.100
41.200	40.159	0.100
41.300	43.908	0.100
41.400	50.717	0.100
41.500	32.537	0.100
41.600	33.572	0.100
41.700	38.846	0.100
41.800	48.127	0.100
41.900	47.477	0.100
42.000	31.840	0.100
42.100	27.432	0.100
42.200	36.804	0.100
42.300	45.555	0.100
42.400	43.651	0.100
42.500	44.100	0.100
42.600	44.805	0.100
42.700	33.774	0.100
42.800	30.689	0.100
42.900	49.510	0.100
43.000	39.804	0.100
43.100	47.883	0.100
43.200	43.282	0.100
43.300	40.235	0.100
43.400	45.120	0.100
43.500	52.985	0.100
43.600	38.842	0.100
43.700	40.875	0.100
43.800	32.749	0.100
43.900	44.461	0.100
44.000	43.054	0.100
44.100	37.324	0.100
44.200	41.593	0.100
44.300	31.482	0.100
44.400	38.008	0.100
44.500	37.933	0.100
44.600	47.952	0.100
44.700	38.033	0.100
44.800	52.325	0.100
44.900	52.397	0.100
45.000	43.718	0.100
45.100	30.400	0.100
45.200	52.003	0.100
45.300	55.883	0.100
45.400	36.516	0.100
45.500	36.889	0.100
45.600	34.308	0.100
45.700	49.944	0.100
45.800	45.886	0.100
45.900	45.699	0.100
46.000	43.403	0.100
46.100	47.955	0.100
46.200	28.422	0.100
46.300	41.654	0.100
46.400	44.182	0.100
46.500	44.696	0.100
46.600	48.778	0.100
46.700	50.816	0.100
46.800	49.222	0.100
46.900	50.282	0.100
47.000	36.031	0.100
47.100	40.777	0.100
47.200	39.286	0.100
47.300	37.805	0.100
47.400	41.223	0.100
47.500	38.484	0.100
47.600	38.942	0.100
47.700	43.165	0.100
47.800	55.189	0.100
47.900	50.493	0.100
48.000	47.722	0.100
48.100	39.128	0.100
48.200	36.091	0.100
48.300	38.518	0.100
48.400	51.324	0.100
48.500	35.838	0.100
48.600	52.027	0.100
48.700	33.297	0.100
48.800	38.936	0.100
48.900	43.245	0.100
49.000	44.584	0.100
49.100	56.066	0.100
49.200	37.915	0.100
49.300	54.804	0.100
49.400	36.148	0.100
49.500	42.355	0.100
49.600	36.159	0.100
49.700	46.162	0.100
49.800	39.125	0.100
49.900	41.263	0.100
50.000	41.613	0.100
50.100	40.944	0.100
50.200	40.789	0.100
50.300	33.733	0.100
50.400	48.072	0.100
50.500	52.307	0.100
50.600	54.101	0.100
50.700	50.888	0.100
50.800	38.896	0.100
50.900	51.534	0.100
51.000	46.085	0.100
51.100	49.382	0.100
51.200	46.477	0.100
51.300	37.111	0.100
51.400	53.362	0.100
51.500	45.507	0.100
51.600	44.502	0.100
51.700	41.609	0.100
51.800	34.534	0.100
51.900	41.673	0.100
52.000	30.964	0.100
52.100	26.573	0.100
52.200	48.112	0.100
52.300	51.143	0.100
52.400	44.891	0.100
52.500	54.625	0.100
52.600	41.457	0.100
52.700	37.416	0.100
52.800	47.468	0.100
52.900	57.602	0.100
53.000	33.332	0.100
53.100	44.639	0.100
53.200	43.609	0.100
53.300	45.984	0.100
53.400	32.292	0.100
53.500	49.178	0.100
53.600	57.219	0.100
53.700	45.497	0.100
53.800	43.499	0.100
53.900	42.703	0.100
54.000	38.272	0.100
54.100	37.874	0.100
54.200	50.794	0.100
54.300	49.525	0.100
54.400	54.241	0.100
54.500	42.803	0.100
54.600	48.562	0.100
54.700	52.966	0.100
54.800	43.641	0.100
54.900	36.964	0.100
55.000	42.788	0.100
55.100	37.823	0.100
55.200	38.335	0.100
55.300	45.814	0.100
55.400	53.077	0.100
55.500	48.725	0.100
55.600	48.940	0.100
55.700	51.569	0.100
55.800	52.451	0.100
55.900	62.952	0.100
56.000	51.615	0.100
56.100	36.241	0.100
56.200	50.444	0.100
56.300	44.134	0.100
56.400	42.269	0.100
56.500	37.878	0.100
56.600	48.152	0.100
56.700	48.840	0.100
56.800	47.461	0.100
56.900	53.961	0.100
57.000	34.646	0.100
57.100	51.278	0.100
57.200	42.233	0.100
57.300	46.542	0.100
57.400	50.723	0.100
57.500	47.132	0.100
57.600	35.664	0.100
57.700	32.308	0.100
57.800	46.081	0.100
57.900	53.609	0.100
58.000	53.051	0.100
58.100	25.835	0.100
58.200	33.583	0.100
58.300	54.795	0.100
58.400	45.996	0.100
58.500	55.668	0.100
58.600	53.370	0.100
58.700	42.837	0.100
58.800	41.835	0.100
58.900	44.254	0.100
59.000	46.733	0.100
59.100	42.529	0.100
59.200	50.507	0.100
59.300	49.401	0.100
59.400	39.244	0.100
59.500	42.563	0.100
59.600	44.295	0.100
59.700	32.478	0.100
59.800	50.827	0.100
59.900	53.732	0.100
60.000	37.775	0.100
60.100	38.162	0.100
60.200	45.377	0.100
60.300	52.002	0.100
60.400	50.021	0.100
60.500	54.133	0.100
60.600	34.259	0.100
60.700	39.305	0.100
60.800	39.464	0.100
60.900	38.846	0.100
61.000	46.398	0.100
61.100	61.199	0.100
61.200	50.574	0.100
61.300	52.413	0.100
61.400	48.827	0.100
61.500	35.303	0.100
61.600	40.868	0.100
61.700	36.175	0.100
61.800	39.769	0.100
61.900	66.282	0.100
62.000	58.320	0.100
62.100	50.956	0.100
62.200	40.202	0.100
62.300	48.500	0.100
62.400	45.552	0.100
62.500	60.621	0.100
62.600	47.281	0.100
62.700	37.249	0.100
62.800	43.243	0.100
62.900	43.120	0.100
63.000	50.274	0.100
63.100	52.826	0.100
63.200	43.463	0.100
63.300	50.956	0.100
63.400	53.211	0.100
63.500	49.936	0.100
63.600	51.206	0.100
63.700	44.748	0.100
63.800	56.478	0.100
63.900	44.923	0.100
64.000	52.847	0.100
64.100	43.348	0.100
64.200	39.896	0.100
64.300	51.015	0.100
64.400	54.367	0.100
64.500	31.469	0.100
64.600	50.571	0.100
64.700	56.679	0.100
64.800	53.030	0.100
64.900	54.891	0.100
65.000	36.743	0.100
65.100	51.286	0.100
65.200	47.410	0.100
65.300	46.023	0.100
65.400	46.797	0.100
65.500	59.517	0.100
65.600	51.967	0.100
65.700	32.870	0.100
65.800	43.359	0.100
65.900	39.862	0.100
66.000	39.402	0.100
66.100	54.424	0.100
66.200	51.563	0.100
66.300	54.615	0.100
66.400	42.073	0.100
66.500	52.634	0.100
66.600	47.917	0.100
66.700	35.700	0.100
66.800	48.604	0.100
66.900	66.448	0.100
67.000	65.310	0.100
67.100	55.171	0.100
67.200	44.199	0.100
67.300	40.465	0.100
67.400	49.122	0.100
67.500	35.147	0.100
67.600	46.770	0.100
67.700	63.418	0.100
67.800	77.822	0.100
67.900	60.697	0.100
68.000	45.843	0.100
68.100	51.663	0.100
68.200	40.103	0.100
68.300	44.251	0.100
68.400	28.745	0.100
68.500	36.146	0.100
68.600	54.164	0.100
68.700	51.067	0.100
68.800	49.031	0.100
68.900	55.391	0.100
69.000	63.506	0.100
69.100	55.863	0.100
69.200	50.711	0.100
69.300	41.696	0.100
69.400	41.162	0.100
69.500	55.642	0.100
69.600	47.236	0.100
69.700	41.395	0.100
69.800	40.838	0.100
69.900	49.728	0.100
70.000	46.132	0.100
70.100	53.434	0.100
70.200	53.956	0.100
70.300	47.822	0.100
70.400	46.442	0.100
70.500	46.116	0.100
70.600	51.965	0.100
70.700	46.770	0.100
70.800	43.718	0.100
70.900	54.646	0.100
71.000	46.957	0.100
71.100	52.079	0.100
71.200	53.396	0.100
71.300	47.172	0.100
71.400	46.650	0.100
71.500	51.702	0.100
71.600	62.727	0.100
71.700	49.206	0.100
71.800	39.657	0.100
71.900	50.271	0.100
72.000	44.701	0.100
72.100	57.666	0.100
72.200	60.466	0.100
72.300	50.914	0.100
72.400	44.206	0.100
72.500	55.240	0.100
72.600	51.363	0.100
72.700	43.431	0.100
72.800	52.527	0.100
72.900	55.150	0.100
73.000	59.355	0.100
73.100	54.713	0.100
73.200	51.923	0.100
73.300	50.371	0.100
73.400	46.255	0.100
73.500	61.854	0.100
73.600	52.775	0.100
73.700	62.014	0.100
73.800	52.246	0.100
73.900	47.671	0.100
74.000	51.569	0.100
74.100	42.634	0.100
74.200	55.788	0.100
74.300	68.372	0.100
74.400	50.356	0.100
74.500	54.084	0.100
74.600	52.103	0.100
74.700	53.032	0.100
74.800	36.926	0.100
74.900	49.646	0.100
75.000	54.420	0.100
75.100	45.242	0.100
75.200	53.291	0.100
75.300	42.701	0.100
75.400	39.669	0.100
75.500	56.572	0.100
75.600	59.456	0.100
75.700	53.425	0.100
75.800	60.507	0.100
75.900	49.755	0.100
76.000	50.477	0.100
76.100	54.256	0.100
76.200	41.974	0.100
76.300	59.887	0.100
76.400	57.848	0.100
76.500	62.050	0.100
76.600	60.964	0.100
76.700	44.934	0.100
76.800	48.970	0.100
76.900	48.930	0.100
77.000	61.447	0.100
77.100	52.878	0.100
77.200	55.964	0.100
77.300	50.841	0.100
77.400	46.195	0.100
77.500	56.780	0.100
77.600	35.145	0.100
77.700	49.952	0.100
77.800	53.226	0.100
77.900	48.905	0.100
78.000	57.263	0.100
78.100	58.642	0.100
78.200	58.893	0.100
78.300	53.213	0.100
78.400	53.594	0.100
78.500	51.768	0.100
78.600	51.035	0.100
78.700	53.863	0.100
78.800	59.350	0.100
78.900	66.750	0.100
79.000	41.133	0.100
79.100	40.217	0.100
79.200	43.836	0.100
79.300	49.244	0.100
79.400	60.184	0.100
79.500	67.561	0.100
79.600	56.771	0.100
79.700	51.737	0.100
79.800	55.267	0.100
79.900	54.414	0.100
80.000	52.028	0.100
80.100	53.276	0.100
80.200	53.188	0.100
80.300	49.058	0.100
80.400	50.273	0.100
80.500	38.795	0.100
80.600	50.171	0.100
80.700	69.300	0.100
80.800	42.184	0.100
80.900	39.002	0.100
81.000	58.063	0.100
81.100	66.250	0.100
81.200	54.124	0.100
81.300	52.096	0.100
81.400	66.364	0.100
81.500	63.886	0.100
81.600	62.994	0.100
81.700	45.871	0.100
81.800	41.333	0.100
81.900	52.549	0.100
82.000	63.514	0.100
82.100	55.202	0.100
82.200	51.759	0.100
82.300	54.100	0.100
82.400	59.747	0.100
82.500	51.850	0.100
82.600	45.441	0.100
82.700	44.843	0.100
82.800	60.061	0.100
82.900	58.991	0.100
83.000	56.882	0.100
83.100	54.499	0.100
83.200	47.641	0.100
83.300	38.932	0.100
83.400	46.973	0.100
83.500	52.597	0.100
83.600	62.224	0.100
83.700	66.174	0.100
83.800	55.324	0.100
83.900	47.053	0.100
84.000	52.944	0.100
84.100	57.036	0.100
84.200	58.516	0.100
84.300	63.622	0.100
84.400	44.884	0.100
84.500	72.766	0.100
84.600	62.369	0.100
84.700	57.050	0.100
84.800	60.100	0.100
84.900	59.782	0.100
85.000	42.187	0.100
85.100	58.837	0.100
85.200	62.863	0.100
85.300	53.530	0.100
85.400	49.937	0.100
85.500	54.665	0.100
85.600	54.423	0.100
85.700	46.861	0.100
85.800	61.273	0.100
85.900	60.402	0.100
86.000	43.968	0.100
86.100	59.070	0.100
86.200	58.709	0.100
86.300	56.491	0.100
86.400	47.504	0.100
86.500	48.244	0.100
86.600	41.550	0.100
86.700	56.317	0.100
86.800	57.632	0.100
86.900	66.422	0.100
87.000	56.349	0.100
87.100	62.627	0.100
87.200	57.680	0.100
87.300	63.422	0.100
87.400	46.704	0.100
87.500	51.937	0.100
87.600	54.345	0.100
87.700	62.704	0.100
87.800	59.763	0.100
87.900	55.879	0.100
88.000	54.659	0.100
88.100	52.477	0.100
88.200	56.471	0.100
88.300	58.077	0.100
88.400	48.875	0.100
88.500	59.778	0.100
88.600	57.987	0.100
88.700	67.978	0.100
88.800	51.396	0.100
88.900	46.280	0.100
89.000	56.156	0.100
89.100	46.065	0.100
89.200	60.936	0.100
89.300	65.869	0.100
89.400	70.003	0.100
89.500	73.945	0.100
89.600	52.990	0.100
89.700	53.876	0.100
89.800	59.990	0.100
89.900	63.769	0.100
90.000	47.973	0.100
90.100	62.720	0.100
90.200	40.410	0.100
90.300	41.398	0.100
90.400	51.611	0.100
90.500	41.604	0.100
90.600	50.341	0.100
90.700	53.312	0.100
90.800	53.688	0.100
90.900	55.727	0.100
91.000	49.713	0.100
91.100	59.307	0.100
91.200	53.189	0.100
91.300	55.925	0.100
91.400	59.800	0.100
91.500	47.846	0.100
91.600	47.465	0.100
91.700	58.240	0.100
91.800	51.260	0.100
91.900	50.006	0.100
92.000	36.680	0.100
92.100	40.548	0.100
92.200	41.620	0.100
92.300	44.280	0.100
92.400	43.601	0.100
92.500	45.573	0.100
92.600	38.585	0.100
92.700	58.133	0.100
92.800	42.136	0.100
92.900	41.053	0.100
93.000	50.118	0.100
93.100	25.462	0.100
93.200	51.384	0.100
93.300	37.521	0.100
93.400	36.211	0.100
93.500	44.490	0.100
93.600	57.212	0.100
93.700	54.372	0.100
93.800	35.003	0.100
93.900	29.254	0.100
94.000	35.121	0.100
94.100	49.053	0.100
94.200	27.728	0.100
94.300	37.162	0.100
94.400	39.497	0.100
94.500	32.355	0.100
94.600	34.531	0.100
94.700	46.177	0.100
94.800	47.281	0.100
94.900	48.026	0.100
95.000	40.866	0.100
95.100	21.009	0.100
95.200	39.076	0.100
95.300	27.237	0.100
95.400	35.778	0.100
95.500	45.021	0.100
95.600	37.100	0.100
95.700	30.022	0.100
95.800	29.408	0.100
95.900	25.678	0.100
96.000	25.560	0.100
96.100	32.669	0.100
96.200	37.666	0.100
96.300	35.885	0.100
96.400	33.058	0.100
96.500	30.345	0.100
96.600	28.649	0.100
96.700	30.164	0.100
96.800	26.022	0.100
96.900	39.790	0.100
97.000	39.881	0.100
97.100	33.079	0.100
97.200	33.805	0.100
97.300	42.292	0.100
97.400	28.382	0.100
97.500	35.661	0.100
97.600	30.242	0.100
97.700	42.809	0.100
97.800	34.116	0.100
97.900	41.083	0.100
98.000	37.089	0.100
98.100	40.280	0.100
98.200	30.082	0.100
98.300	26.704	0.100
98.400	23.420	0.100
98.500	27.882	0.100
98.600	24.915	0.100
98.700	29.606	0.100
98.800	24.009	0.100
98.900	29.246	0.100
99.000	31.914	0.100
99.100	31.230	0.100
99.200	26.369	0.100
99.300	31.855	0.100
99.400	14.402	0.100
99.500	30.340	0.100
99.600	21.452	0.100
99.700	31.261	0.100
99.800	32.343	0.100
99.900	24.953	0.100
100.000	36.736	0.100
100.100	21.106	0.100
100.200	19.572	0.100
100.300	18.932	0.100
100.400	30.167	0.100
100.500	20.461	0.100
100.600	34.146	0.100
100.700	41.827	0.100
100.800	26.240	0.100
100.900	35.957	0.100
101.000	25.532	0.100
101.100	20.442	0.100
101.200	9.965	0.100
101.300	18.375	0.100
101.400	10.703	0.100
101.500	17.100	0.100
101.600	39.209	0.100
101.700	32.375	0.100
101.800	13.277	0.100
101.900	43.627	0.100
102.000	28.674	0.100
102.100	23.369	0.100
102.200	-2.421	0.100
102.300	24.608	0.100
102.400	24.952	0.100
102.500	22.413	0.100
102.600	33.334	0.100
102.700	22.260	0.100
102.800	45.020	0.100
102.900	38.323	0.100
103.000	25.550	0.100
103.100	9.349	0.100
103.200	19.865	0.100
103.300	22.599	0.100
103.400	18.984	0.100
103.500	33.886	0.100
103.600	26.366	0.100
103.700	23.736	0.100
103.800	26.353	0.100
103.900	23.725	0.100
104.000	40.219	0.100
104.100	31.921	0.100
104.200	17.312	0.100
104.300	19.679	0.100
104.400	31.512	0.100
104.500	28.063	0.100
104.600	15.049	0.100
104.700	21.868	0.100
104.800	20.484	0.100
104.900	22.394	0.100
105.000	27.676	0.100
105.100	18.990	0.100
105.200	33.904	0.100
105.300	18.633	0.100
105.400	21.420	0.100
105.500	18.574	0.100
105.600	21.958	0.100
105.700	24.769	0.100
105.800	31.107	0.100
105.900	28.036	0.100
106.000	21.828	0.100
106.100	19.641	0.100
106.200	33.493	0.100
106.300	23.734	0.100
106.400	15.308	0.100
106.500	23.735	0.100
106.600	23.138	0.100
106.700	9.812	0.100
106.800	23.188	0.100
106.900	19.407	0.100
107.000	1.418	0.100
107.100	22.140	0.100
107.200	33.808	0.100
107.300	29.743	0.100
107.400	23.570	0.100
107.500	10.717	0.100
107.600	29.794	0.100
107.700	16.916	0.100
107.800	26.352	0.100
107.900	20.893	0.100
108.000	18.993	0.100
108.100	35.766	0.100
108.200	21.354	0.100
108.300	18.356	0.100
108.400	22.177	0.100
108.500	16.002	0.100
108.600	26.651	0.100
108.700	36.570	0.100
108.800	21.130	0.100
108.900	20.396	0.100
109.000	20.848	0.100
109.100	26.716	0.100
109.200	11.395	0.100
109.300	21.029	0.100
109.400	11.572	0.100
109.500	33.089	0.100
109.600	27.992	0.100
109.700	22.636	0.100
109.800	23.458	0.100
109.900	11.065	0.100
110.000	14.691	0.100
110.100	13.653	0.100
110.200	17.915	0.100
110.300	25.628	0.100
110.400	24.834	0.100
110.500	11.304	0.100
110.600	13.841	0.100
110.700	24.130	0.100
110.800	25.565	0.100
110.900	9.645	0.100
111.000	22.731	0.100
111.100	35.149	0.100
111.200	16.776	0.100
111.300	15.538	0.100
111.400	24.926	0.100
111.500	23.939	0.100
111.600	26.553	0.100
111.700	24.715	0.100
111.800	18.929	0.100
111.900	20.302	0.100
112.000	20.736	0.100
112.100	3.960	0.100
112.200	6.181	0.100
112.300	23.596	0.100
112.400	20.061	0.100
112.500	5.809	0.100
112.600	19.107	0.100
112.700	24.270	0.100
112.800	11.666	0.100
112.900	9.517	0.100
113.000	19.586	0.100
113.100	27.465	0.100
113.200	30.862	0.100
113.300	26.595	0.100
113.400	0.503	0.100
113.500	14.327	0.100
113.600	15.186	0.100
113.700	25.765	0.100
113.800	30.705	0.100
113.900	22.998	0.100
114.000	9.565	0.100
114.100	16.225	0.100
114.200	20.261	0.100
114.300	9.158	0.100
114.400	19.298	0.100
114.500	19.226	0.100
114.600	20.610	0.100
114.700	30.033	0.100
114.800	11.687	0.100
114.900	23.608	0.100
115.000	20.037	0.100
115.100	12.989	0.100
115.200	28.516	0.100
115.300	28.031	0.100
115.400	7.622	0.100
115.500	11.777	0.100
115.600	18.281	0.100
115.700	15.868	0.100
115.800	8.812	0.100
115.900	27.918	0.100
116.000	27.633	0.100
116.100	25.935	0.100
116.200	15.620	0.100
116.300	29.327	0.100
116.400	19.373	0.100
116.500	12.158	0.100
116.600	8.171	0.100
116.700	14.349	0.100
116.800	24.590	0.100
116.900	13.459	0.100
117.000	8.776	0.100
117.100	9.159	0.100
117.200	35.567	0.100
117.300	23.150	0.100
117.400	7.995	0.100
117.500	26.413	0.100
117.600	13.123	0.100
117.700	14.647	0.100
117.800	33.609	0.100
117.900	14.074	0.100
118.000	16.510	0.100
118.100	17.773	0.100
118.200	17.739	0.100
118.300	24.705	0.100
118.400	21.068	0.100
118.500	5.441	0.100
118.600	25.221	0.100
118.700	21.770	0.100
118.800	26.515	0.100
118.900	17.703	0.100
119.000	-0.209	0.100
119.100	14.416	0.100
119.200	9.766	0.100
119.300	24.314	0.100
119.400	16.135	0.100
119.500	13.775	0.100
119.600	20.035	0.100
119.700	13.491	0.100
119.800	23.201	0.100
119.900	21.206	0.100
120.000	18.995	0.100
120.100	12.369	0.100
120.200	3.734	0.100
120.300	18.137	0.100
120.400	16.380	0.100
120.500	24.957	0.100
120.600	17.064	0.100
120.700	18.688	0.100
120.800	23.419	0.100
120.900	21.297	0.100
121.000	14.771	0.100
121.100	0.982	0.100
121.200	2.879	0.100
121.300	33.574	0.100
121.400	24.964	0.100
121.500	12.554	0.100
121.600	9.104	0.100
121.700	19.904	0.100
121.800	17.215	0.100
121.900	22.378	0.100
122.000	21.368	0.100
122.100	17.188	0.100
122.200	21.324	0.100
122.300	11.152	0.100
122.400	15.657	0.100
122.500	17.741	0.100
122.600	17.205	0.100
122.700	-2.276	0.100
122.800	16.978	0.100
122.900	9.792	0.100
123.000	25.033	0.100
123.100	16.187	0.100
123.200	11.533	0.100
123.300	22.550	0.100
123.400	15.827	0.100
123.500	30.125	0.100
123.600	6.457	0.100
123.700	14.545	0.100
123.800	15.458	0.100
123.900	29.479	0.100
124.000	23.781	0.100
124.100	9.801	0.100
124.200	14.385	0.100
124.300	21.384	0.100
124.400	30.136	0.100
124.500	20.483	0.100
124.600	7.884	0.100
124.700	17.382	0.100
124.800	16.561	0.100
124.900	23.375	0.100
125.000	18.428	0.100
125.100	17.018	0.100
125.200	5.726	0.100
125.300	15.122	0.100
125.400	21.889	0.100
125.500	16.431	0.100
125.600	11.377	0.100
125.700	11.658	0.100
125.800	8.899	0.100
125.900	23.645	0.100
126.000	7.126	0.100
126.100	30.078	0.100
126.200	25.107	0.100
126.300	18.167	0.100
126.400	8.543	0.100
126.500	16.087	0.100
126.600	4.365	0.100
126.700	12.905	0.100
126.800	17.386	0.100
126.900	2.915	0.100
127.000	7.389	0.100
127.100	22.737	0.100
127.200	16.577	0.100
127.300	19.270	0.100
127.400	28.592	0.100
127.500	12.854	0.100
127.600	14.166	0.100
127.700	5.873	0.100
127.800	12.976	0.100
127.900	2.709	0.100
128.000	8.882	0.100
128.100	13.353	0.100
128.200	10.632	0.100
128.300	13.255	0.100
128.400	14.357	0.100
128.500	18.540	0.100
128.600	18.926	0.100
128.700	19.604	0.100
128.800	21.538	0.100
128.900	13.478	0.100
129.000	9.596	0.100
129.100	14.185	0.100
129.200	9.790	0.100
129.300	28.920	0.100
129.400	7.047	0.100
129.500	4.364	0.100
129.600	22.085	0.100
129.700	13.614	0.100
129.800	10.965	0.100
129.900	18.349	0.100
130.000	-1.767	0.100
130.100	-0.986	0.100
130.200	4.666	0.100
130.300	30.104	0.100
130.400	14.551	0.100
130.500	11.219	0.100
130.600	18.629	0.100
130.700	7.609	0.100
130.800	-8.777	0.100
130.900	21.343	0.100
131.000	25.510	0.100
131.100	29.556	0.100
131.200	21.768	0.100
131.300	19.191	0.100
131.400	25.808	0.100
131.500	10.170	0.100
131.600	12.648	0.100
131.700	19.832	0.100
131.800	8.472	0.100
131.900	15.266	0.100
132.000	13.936	0.100
132.100	7.204	0.100
132.200	11.960	0.100
132.300	1.875	0.100
132.400	16.171	0.100
132.500	12.909	0.100
132.600	5.032	0.100
132.700	2.532	0.100
132.800	36.410	0.100
132.900	11.316	0.100
133.000	11.163	0.100
133.100	8.338	0.100
133.200	4.441	0.100
133.300	9.338	0.100
133.400	7.923	0.100
133.500	17.312	0.100
133.600	7.602	0.100
133.700	22.994	0.100
133.800	24.161	0.100
133.900	12.789	0.100
134.000	30.349	0.100
134.100	5.819	0.100
134.200	15.410	0.100
134.300	17.995	0.100
134.400	20.195	0.100
134.500	26.832	0.100
134.600	5.642	0.100
134.700	-1.007	0.100
134.800	18.835	0.100
134.900	-3.843	0.100
135.000	15.522	0.100
135.100	25.376	0.100
135.200	6.156	0.100
135.300	24.104	0.100
135.400	20.622	0.100
135.500	16.703	0.100
135.600	15.572	0.100
135.700	-1.227	0.100
135.800	5.137	0.100
135.900	-3.351	0.100
136.000	7.810	0.100
136.100	17.444	0.100
136.200	13.059	0.100
136.300	24.595	0.100
136.400	9.193	0.100
136.500	21.405	0.100
136.600	8.929	0.100
136.700	15.302	0.100
136.800	8.174	0.100
136.900	22.956	0.100
137.000	5.365	0.100
137.100	-1.874	0.100
137.200	14.542	0.100
137.300	19.069	0.100
137.400	24.859	0.100
137.500	5.020	0.100
137.600	2.365	0.100
137.700	5.868	0.100
137.800	8.476	0.100
137.900	12.350	0.100
138.000	14.440	0.100
138.100	14.984	0.100
138.200	17.634	0.100
138.300	30.542	0.100
138.400	16.898	0.100
138.500	-1.564	0.100
138.600	14.097	0.100
138.700	17.407	0.100
138.800	6.354	0.100
138.900	17.585	0.100
139.000	0.411	0.100
139.100	11.449	0.100
139.200	11.179	0.100
139.300	7.201	0.100
139.400	15.077	0.100
139.500	-0.986	0.100
139.600	4.255	0.100
139.700	12.262	0.100
139.800	14.049	0.100
139.900	16.167	0.100
140.000	18.697	0.100
140.100	18.838	0.100
140.200	2.542	0.100
140.300	6.842	0.100
140.400	17.548	0.100
140.500	-9.594	0.100
140.600	-1.088	0.100
140.700	14.432	0.100
140.800	17.173	0.100
140.900	3.865	0.100
141.000	-3.868	0.100
141.100	24.608	0.100
141.200	20.178	0.100
141.300	-5.135	0.100
141.400	18.723	0.100
141.500	15.366	0.100
141.600	12.249	0.100
141.700	2.306	0.100
141.800	10.712	0.100
141.900	15.757	0.100
142.000	-7.853	0.100
142.100	14.478	0.100
142.200	23.046	0.100
142.300	10.821	0.100
142.400	0.211	0.100
142.500	9.516	0.100
142.600	12.833	0.100
142.700	-1.608	0.100
142.800	10.105	0.100
142.900	17.793	0.100
143.000	16.640	0.100
143.100	2.043	0.100
143.200	15.933	0.100
143.300	-6.064	0.100
143.400	16.966	0.100
143.500	11.778	0.100
143.600	5.600	0.100
143.700	13.709	0.100
143.800	9.334	0.100
143.900	21.162	0.100
144.000	15.051	0.100
144.100	-2.366	0.100
144.200	2.382	0.100
144.300	18.790	0.100
144.400	13.807	0.100
144.500	5.596	0.100
144.600	17.607	0.100
144.700	-2.109	0.100
144.800	8.362	0.100
144.900	12.892	0.100
145.000	6.486	0.100
145.100	9.451	0.100
145.200	6.142	0.100
145.300	11.763	0.100
145.400	15.453	0.100
145.500	3.214	0.100
145.600	20.450	0.100
145.700	10.470	0.100
145.800	16.837	0.100
145.900	14.276	0.100
146.000	11.203	0.100
146.100	8.826	0.100
146.200	-5.834	0.100
146.300	4.677	0.100
146.400	13.040	0.100
146.500	-0.553	0.100
146.600	12.024	0.100
146.700	10.605	0.100
146.800	7.419	0.100
146.900	4.566	0.100
147.000	18.557	0.100
147.100	-0.108	0.100
147.200	3.522	0.100
147.300	9.225	0.100
147.400	23.105	0.100
147.500	4.993	0.100
147.600	2.765	0.100
147.700	13.762	0.100
147.800	6.545	0.100
147.900	-10.777	0.100
148.000	5.750	0.100
148.100	10.442	0.100
148.200	14.025	0.100
148.300	22.310	0.100
148.400	14.821	0.100
148.500	17.989	0.100
148.600	3.007	0.100
148.700	7.870	0.100
148.800	21.688	0.100
148.900	24.510	0.100
149.000	4.285	0.100
149.100	13.749	0.100
149.200	-3.904	0.100
149.300	4.810	0.100
149.400	2.219	0.100
149.500	16.217	0.100
149.600	21.132	0.100
149.700	11.235	0.100
149.800	9.277	0.100
149.900	9.195	0.100
150.000	10.963	0.100
150.100	13.727	0.100
150.200	15.430	0.100
150.300	8.282	0.100
150.400	-0.961	0.100
150.500	3.011	0.100
150.600	2.313	0.100
150.700	0.501	0.100
150.800	9.470	0.100
150.900	0.853	0.100
151.000	13.924	0.100
151.100	9.135	0.100
151.200	9.634	0.100
151.300	6.391	0.100
151.400	10.216	0.100
151.500	11.609	0.100
151.600	13.694	0.100
151.700	13.516	0.100
151.800	12.165	0.100
151.900	6.400	0.100
152.000	18.198	0.100
152.100	3.179	0.100
152.200	-2.820	0.100
152.300	5.089	0.100
152.400	10.275	0.100
152.500	12.137	0.100
152.600	12.670	0.100
152.700	17.004	0.100
152.800	24.574	0.100
152.900	9.854	0.100
153.000	1.976	0.100
153.100	7.665	0.100
153.200	8.293	0.100
153.300	21.529	0.100
153.400	1.858	0.100
153.500	4.433	0.100
153.600	3.404	0.100
153.700	0.828	0.100
153.800	4.480	0.100
153.900	26.000	0.100
154.000	11.973	0.100
154.100	-6.677	0.100
154.200	-3.038	0.100
154.300	6.367	0.100
154.400	12.204	0.100
154.500	12.188	0.100
154.600	12.957	0.100
154.700	-2.416	0.100
154.800	7.571	0.100
154.900	4.585	0.100
155.000	20.601	0.100
155.100	23.522	0.100
155.200	6.949	0.100
155.300	-5.233	0.100
155.400	8.659	0.100
155.500	-1.750	0.100
155.600	-5.297	0.100
155.700	4.285	0.100
155.800	3.008	0.100
155.900	23.675	0.100
156.000	20.502	0.100
156.100	11.508	0.100
156.200	8.519	0.100
156.300	7.243	0.100
156.400	5.705	0.100
156.500	2.415	0.100
156.600	9.889	0.100
156.700	22.015	0.100
156.800	3.412	0.100
156.900	12.762	0.100
157.000	5.117	0.100
157.100	2.727	0.100
157.200	8.013	0.100
157.300	6.027	0.100
157.400	3.831	0.100
157.500	13.114	0.100
157.600	12.526	0.100
157.700	-8.713	0.100
157.800	9.577	0.100
157.900	18.381	0.100
158.000	12.619	0.100
158.100	8.094	0.100
158.200	2.213	0.100
158.300	19.958	0.100
158.400	1.748	0.100
158.500	10.731	0.100
158.600	13.760	0.100
158.700	11.620	0.100
158.800	1.339	0.100
158.900	0.131	0.100
159.000	15.493	0.100
159.100	-1.874	0.100
159.200	8.393	0.100
159.300	4.357	0.100
159.400	7.129	0.100
159.500	12.620	0.100
159.600	4.377	0.100
159.700	10.649	0.100
159.800	1.708	0.100
159.900	12.495	0.100
160.000	20.288	0.100
160.100	10.215	0.100
160.200	5.139	0.100
160.300	-15.523	0.100
160.400	12.191	0.100
160.500	2.799	0.100
160.600	17.431	0.100
160.700	11.546	0.100
160.800	12.379	0.100
160.900	10.605	0.100
161.000	15.977	0.100
161.100	9.598	0.100
161.200	-3.122	0.100
161.300	12.848	0.100
161.400	0.534	0.100
161.500	0.923	0.100
161.600	-12.670	0.100
161.700	1.175	0.100
161.800	15.466	0.100
161.900	11.799	0.100
162.000	8.131	0.100
162.100	16.193	0.100
162.200	5.116	0.100
162.300	5.149	0.100
162.400	13.402	0.100
162.500	11.374	0.100
162.600	5.118	0.100
162.700	8.284	0.100
162.800	1.893	0.100
162.900	-7.766	0.100
163.000	4.203	0.100
163.100	0.053	0.100
163.200	26.292	0.100
163.300	9.744	0.100
163.400	7.948	0.100
163.500	1.988	0.100
163.600	4.922	0.100
163.700	0.370	0.100
163.800	1.529	0.100
163.900	4.309	0.100
164.000	-14.292	0.100
164.100	15.131	0.100
164.200	4.024	0.100
164.300	1.795	0.100
164.400	10.360	0.100
164.500	4.355	0.100
164.600	18.760	0.100
164.700	19.503	0.100
164.800	4.612	0.100
164.900	7.896	0.100
165.000	8.238	0.100
165.100	12.306	0.100
165.200	12.076	0.100
165.300	-1.058	0.100
165.400	7.779	0.100
165.500	0.346	0.100
165.600	15.741	0.100
165.700	-4.391	0.100
165.800	10.125	0.100
165.900	10.837	0.100
166.000	18.671	0.100
166.100	1.001	0.100
166.200	13.922	0.100
166.300	11.707	0.100
166.400	5.449	0.100
166.500	9.999	0.100
166.600	-4.634	0.100
166.700	-3.963	0.100
166.800	12.699	0.100
166.900	20.066	0.100
167.000	9.415	0.100
167.100	8.075	0.100
167.200	-1.365	0.100
167.300	-4.312	0.100
167.400	-0.426	0.100
167.500	-9.441	0.100
167.600	23.874	0.100
167.700	17.907	0.100
167.800	13.855	0.100
167.900	10.347	0.100
168.000	6.708	0.100
168.100	0.593	0.100
168.200	3.309	0.100
168.300	5.559	0.100
168.400	19.059	0.100
168.500	5.263	0.100
168.600	7.569	0.100
168.700	4.433	0.100
168.800	12.869	0.100
168.900	2.512	0.100
169.000	8.438	0.100
169.100	14.568	0.100
169.200	9.725	0.100
169.300	-0.034	0.100
169.400	0.526	0.100
169.500	5.534	0.100
169.600	12.808	0.100
169.700	-2.746	0.100
169.800	6.562	0.100
169.900	12.833	0.100
170.000	1.929	0.100
170.100	11.544	0.100
170.200	11.636	0.100
170.300	1.294	0.100
170.400	18.891	0.100
170.500	7.307	0.100
170.600	4.074	0.100
170.700	1.310	0.100
170.800	4.064	0.100
170.900	3.833	0.100
171.000	1.349	0.100
171.100	-2.562	0.100
171.200	16.066	0.100
171.300	4.635	0.100
171.400	14.070	0.100
171.500	13.503	0.100
171.600	-2.105	0.100
171.700	4.278	0.100
171.800	17.770	0.100
171.900	16.947	0.100
172.000	-2.997	0.100
172.100	15.317	0.100
172.200	10.086	0.100
172.300	-9.999	0.100
172.400	1.488	0.100
172.500	12.919	0.100
172.600	5.032	0.100
172.700	-13.762	0.100
172.800	4.991	0.100
172.900	10.103	0.100
173.000	3.560	0.100
173.100	2.314	0.100
173.200	20.202	0.100
173.300	15.569	0.100
173.400	3.922	0.100
173.500	-4.615	0.100
173.600	4.556	0.100
173.700	8.795	0.100
173.800	16.736	0.100
173.900	20.064	0.100
174.000	12.548	0.100
174.100	-2.767	0.100
174.200	12.641	0.100
174.300	9.645	0.100
174.400	14.489	0.100
174.500	-4.197	0.100
174.600	7.959	0.100
174.700	4.317	0.100
174.800	-0.779	0.100
174.900	8.809	0.100
175.000	8.752	0.100
175.100	9.690	0.100
175.200	14.128	0.100
175.300	-9.908	0.100
175.400	0.996	0.100
175.500	10.036	0.100
175.600	2.776	0.100
175.700	5.703	0.100
175.800	10.643	0.100
175.900	5.850	0.100
176.000	4.697	0.100
176.100	5.512	0.100
176.200	4.725	0.100
176.300	7.300	0.100
176.400	6.289	0.100
176.500	16.122	0.100
176.600	-5.919	0.100
176.700	-1.933	0.100
176.800	1.137	0.100
176.900	13.037	0.100
177.000	-8.982	0.100
177.100	15.699	0.100
177.200	1.120	0.100
177.300	11.297	0.100
177.400	8.549	0.100
177.500	3.291	0.100
177.600	-2.337	0.100
177.700	-2.006	0.100
177.800	13.051	0.100
177.900	12.767	0.100
178.000	17.508	0.100
178.100	11.208	0.100
178.200	-0.276	0.100
178.300	-9.730	0.100
178.400	9.730	0.100
178.500	19.195	0.100
178.600	11.706	0.100
178.700	11.002	0.100
178.800	11.911	0.100
178.900	16.512	0.100
179.000	-0.664	0.100
179.100	5.677	0.100
179.200	-0.071	0.100
179.300	8.025	0.100
179.400	5.698	0.100
179.500	2.681	0.100
179.600	22.310	0.100
179.700	4.344	0.100
179.800	5.604	0.100
179.900	6.854	0.100
180.000	4.210	0.100
180.100	2.912	0.100
180.200	11.590	0.100
180.300	13.466	0.100
180.400	26.292	0.100
180.500	18.988	0.100
180.600	16.876	0.100
180.700	6.046	0.100
180.800	14.761	0.100
180.900	17.624	0.100
181.000	4.500	0.100
181.100	8.738	0.100
181.200	14.730	0.100
181.300	24.416	0.100
181.400	11.954	0.100
181.500	25.250	0.100
181.600	25.488	0.100
181.700	19.609	0.100
181.800	14.231	0.100
181.900	15.121	0.100
182.000	18.989	0.100
182.100	21.554	0.100
182.200	27.956	0.100
182.300	22.282	0.100
182.400	21.182	0.100
182.500	13.007	0.100
182.600	12.972	0.100
182.700	30.127	0.100
182.800	19.537	0.100
182.900	21.969	0.100
183.000	35.060	0.100
183.100	25.203	0.100
183.200	13.814	0.100
183.300	12.362	0.100
183.400	14.984	0.100
183.500	42.126	0.100
183.600	30.458	0.100
183.700	33.264	0.100
183.800	20.427	0.100
183.900	32.735	0.100
184.000	35.617	0.100
184.100	24.697	0.100
184.200	13.758	0.100
184.300	31.967	0.100
184.400	33.153	0.100
184.500	34.230	0.100
184.600	33.877	0.100
184.700	32.798	0.100
184.800	31.571	0.100
184.900	22.493	0.100
185.000	37.663	0.100
185.100	27.968	0.100
185.200	20.712	0.100
185.300	24.530	0.100
185.400	19.643	0.100
185.500	21.884	0.100
185.600	37.209	0.100
185.700	37.969	0.100
185.800	22.191	0.100
185.900	18.194	0.100
186.000	32.729	0.100
186.100	43.795	0.100
186.200	41.185	0.100
186.300	26.516	0.100
186.400	40.372	0.100
186.500	39.950	0.100
186.600	41.752	0.100
186.700	34.514	0.100
186.800	23.540	0.100
186.900	40.752	0.100
187.000	41.859	0.100
187.100	32.607	0.100
187.200	42.539	0.100
187.300	35.186	0.100
187.400	34.079	0.100
187.500	34.494	0.100
187.600	18.702	0.100
187.700	40.601	0.100
187.800	45.397	0.100
187.900	39.101	0.100
188.000	45.714	0.100
188.100	35.613	0.100
188.200	39.113	0.100
188.300	27.439	0.100
188.400	34.124	0.100
188.500	44.841	0.100
188.600	28.293	0.100
188.700	30.455	0.100
188.800	39.740	0.100
188.900	38.985	0.100
189.000	46.885	0.100
189.100	40.438	0.100
189.200	34.164	0.100
189.300	41.113	0.100
189.400	33.913	0.100
189.500	51.800	0.100
189.600	44.091	0.100
189.700	39.269	0.100
189.800	34.214	0.100
189.900	32.355	0.100
190.000	42.219	0.100
190.100	47.754	0.100
190.200	37.777	0.100
190.300	42.705	0.100
190.400	29.867	0.100
190.500	30.521	0.100
190.600	47.091	0.100
190.700	34.426	0.100
190.800	37.754	0.100
190.900	48.182	0.100
191.000	43.341	0.100
191.100	37.449	0.100
191.200	30.439	0.100
191.300	40.437	0.100
191.400	54.829	0.100
191.500	53.621	0.100
191.600	39.413	0.100
191.700	36.501	0.100
191.800	46.671	0.100
191.900	34.321	0.100
192.000	52.045	0.100
192.100	54.951	0.100
192.200	48.528	0.100
192.300	42.238	0.100
192.400	36.394	0.100
192.500	46.325	0.100
192.600	30.952	0.100
192.700	48.454	0.100
192.800	53.257	0.100
192.900	52.456	0.100
193.000	51.672	0.100
193.100	47.984	0.100
193.200	40.629	0.100
193.300	36.632	0.100
193.400	56.330	0.100
193.500	54.647	0.100
193.600	51.374	0.100
193.700	47.209	0.100
193.800	59.716	0.100
193.900	54.100	0.100
194.000	46.342	0.100
194.100	48.790	0.100
194.200	58.033	0.100
194.300	62.613	0.100
194.400	44.129	0.100
194.500	44.774	0.100
194.600	48.040	0.100
194.700	44.357	0.100
194.800	36.670	0.100
194.900	36.159	0.100
195.000	56.018	0.100
195.100	50.533	0.100
195.200	36.147	0.100
195.300	39.159	0.100
195.400	65.605	0.100
195.500	61.964	0.100
195.600	55.958	0.100
195.700	42.046	0.100
195.800	42.863	0.100
195.900	51.656	0.100
196.000	48.293	0.100
196.100	51.335	0.100
196.200	60.210	0.100
196.300	64.683	0.100
196.400	58.073	0.100
196.500	55.735	0.100
196.600	45.820	0.100
196.700	42.274	0.100
196.800	46.158	0.100
196.900	60.690	0.100
197.000	64.047	0.100
197.100	42.144	0.100
197.200	56.365	0.100
197.300	55.818	0.100
197.400	58.711	0.100
197.500	38.002	0.100
197.600	52.308	0.100
197.700	42.406	0.100
197.800	70.874	0.100
197.900	47.804	0.100
198.000	54.239	0.100
198.100	58.342	0.100
198.200	45.961	0.100
198.300	31.044	0.100
198.400	58.647	0.100
198.500	67.716	0.100
198.600	57.097	0.100
198.700	62.053	0.100
198.800	58.552	0.100
198.900	51.813	0.100
199.000	72.617	0.100
199.100	60.024	0.100
199.200	53.961	0.100
199.300	39.591	0.100
199.400	61.332	0.100
199.500	57.857	0.100
199.600	66.616	0.100
199.700	65.459	0.100
199.800	71.129	0.100
199.900	55.148	0.100
200.000	38.860	0.100
200.100	62.444	0.100
200.200	72.758	0.100
200.300	54.460	0.100
200.400	58.108	0.100
200.500	67.031	0.100
200.600	55.350	0.100
200.700	56.775	0.100
200.800	56.934	0.100
200.900	50.508	0.100
201.000	59.017	0.100
201.100	56.098	0.100
201.200	54.351	0.100
201.300	48.277	0.100
201.400	63.875	0.100
201.500	50.979	0.100
201.600	48.796	0.100
201.700	66.465	0.100
201.800	64.909	0.100
201.900	58.047	0.100
202.000	62.077	0.100
202.100	56.788	0.100
202.200	66.560	0.100
202.300	56.202	0.100
202.400	63.548	0.100
202.500	68.876	0.100
202.600	61.437	0.100
202.700	65.191	0.100
202.800	70.540	0.100
202.900	58.169	0.100
203.000	71.807	0.100
203.100	57.240	0.100
203.200	61.260	0.100
203.300	64.290	0.100
203.400	63.104	0.100
203.500	62.912	0.100
203.600	70.748	0.100
203.700	61.670	0.100
203.800	64.328	0.100
203.900	65.132	0.100
204.000	58.282	0.100
204.100	65.880	0.100
204.200	73.123	0.100
204.300	65.456	0.100
204.400	61.782	0.100
204.500	71.477	0.100
204.600	62.984	0.100
204.700	70.103	0.100
204.800	63.959	0.100
204.900	55.817	0.100
205.000	70.531	0.100
205.100	71.072	0.100
205.200	67.126	0.100
205.300	65.250	0.100
205.400	51.882	0.100
205.500	70.563	0.100
205.600	64.044	0.100
205.700	62.641	0.100
205.800	65.608	0.100
205.900	68.387	0.100
206.000	71.689	0.100
206.100	60.744	0.100
206.200	78.051	0.100
206.300	61.667	0.100
206.400	59.572	0.099
206.500	75.560	0.099
206.600	63.051	0.099
206.700	55.226	0.099
206.800	56.809	0.099
206.900	73.014	0.099
207.000	68.302	0.099
207.100	76.126	0.099
207.200	69.737	0.099
207.300	58.024	0.099
207.400	63.407	0.099
207.500	75.471	0.099
207.600	76.043	0.099
207.700	59.098	0.099
207.800	67.961	0.099
207.900	80.581	0.099
208.000	74.048	0.099
208.100	70.865	0.099
208.200	58.900	0.099
208.300	51.389	0.099
208.400	70.714	0.099
208.500	68.977	0.099
208.600	71.595	0.099
208.700	71.352	0.099
208.800	65.011	0.099
208.900	56.223	0.099
209.000	66.094	0.099
209.100	78.374	0.099
209.200	73.666	0.099
209.300	71.225	0.099
209.400	73.388	0.099
209.500	65.586	0.099
209.600	68.792	0.099
209.700	60.116	0.099
209.800	80.578	0.099
209.900	78.332	0.099
210.000	68.228	0.099
210.100	64.375	0.099
210.200	65.164	0.099
210.300	66.690	0.099
210.400	74.879	0.099
210.500	71.008	0.099
210.600	64.326	0.099
210.700	78.700	0.099
210.800	63.758	0.099
210.900	68.395	0.099
211.000	62.380	0.099
211.100	67.099	0.099
211.200	70.380	0.099
211.300	79.104	0.099
211.400	71.157	0.099
211.500	76.311	0.099
211.600	70.669	0.099
211.700	66.582	0.099
211.800	65.732	0.099
211.900	71.828	0.099
212.000	59.705	0.099
212.100	65.183	0.099
212.200	74.280	0.099
212.300	67.023	0.099
212.400	75.671	0.099
212.500	59.957	0.099
212.600	64.176	0.099
212.700	64.610	0.099
212.800	92.736	0.099
212.900	69.330	0.099
213.000	83.462	0.099
213.100	68.389	0.099
213.200	77.825	0.099
213.300	72.550	0.099
213.400	74.234	0.099
213.500	70.819	0.099
213.600	78.034	0.099
213.700	70.429	0.099
213.800	76.892	0.099
213.900	58.547	0.099
214.000	66.224	0.099
214.100	76.884	0.099
214.200	59.945	0.099
214.300	50.224	0.099
214.400	76.251	0.099
214.500	86.115	0.099
214.600	68.495	0.099
214.700	73.040	0.099
214.800	70.064	0.099
214.900	82.109	0.099
215.000	72.979	0.099
215.100	58.124	0.099
215.200	71.593	0.099
215.300	81.626	0.099
215.400	77.798	0.099
215.500	79.100	0.099
215.600	65.420	0.099
215.700	71.759	0.099
215.800	69.718	0.099
215.900	76.685	0.099
216.000	78.741	0.099
216.100	78.001	0.099
216.200	73.290	0.099
216.300	58.905	0.099
216.400	81.569	0.099
216.500	75.272	0.099
216.600	65.463	0.099
216.700	71.591	0.099
216.800	74.989	0.099
216.900	68.344	0.099
217.000	69.164	0.099
217.100	65.195	0.099
217.200	68.814	0.099
217.300	70.775	0.099
217.400	70.786	0.099
217.500	76.765	0.099
217.600	77.355	0.099
217.700	80.475	0.099
217.800	76.554	0.099
217.900	71.973	0.099
218.000	56.240	0.099
218.100	75.725	0.099
218.200	64.264	0.099
218.300	66.756	0.099
218.400	67.590	0.099
218.500	65.730	0.099
218.600	80.152	0.099
218.700	90.238	0.099
218.800	88.421	0.099
218.900	77.712	0.099
219.000	78.615	0.099
219.100	73.569	0.099
219.200	79.973	0.099
219.300	76.092	0.099
219.400	73.670	0.099
219.500	65.950	0.099
219.600	76.872	0.099
219.700	64.726	0.099
219.800	74.032	0.099
219.900	72.484	0.099
220.000	74.770	0.099
220.100	83.400	0.099
220.200	77.403	0.099
220.300	78.513	0.099
220.400	70.126	0.099
220.500	72.219	0.099
220.600	74.529	0.099
220.700	73.273	0.099
220.800	76.436	0.099
220.900	73.431	0.099
221.000	75.974	0.099
221.100	62.638	0.099
221.200	72.789	0.099
221.300	73.632	0.099
221.400	80.641	0.099
221.500	78.871	0.099
221.600	69.157	0.099
221.700	80.945	0.099
221.800	76.290	0.099
221.900	74.282	0.099
222.000	67.448	0.099
222.100	70.355	0.099
222.200	77.206	0.099
222.300	76.239	0.099
222.400	70.502	0.099
222.500	88.696	0.099
222.600	78.695	0.099
222.700	63.944	0.099
222.800	64.318	0.099
222.900	71.921	0.099
223.000	55.770	0.099
223.100	86.870	0.099
223.200	78.788	0.099
223.300	80.421	0.099
223.400	66.458	0.099
223.500	80.912	0.100
223.600	76.376	0.100
223.700	63.181	0.100
223.800	76.978	0.100
223.900	75.994	0.100
224.000	80.052	0.100
224.100	68.608	0.100
224.200	70.946	0.100
224.300	73.689	0.100
224.400	74.190	0.100
224.500	75.227	0.100
224.600	84.055	0.100
224.700	80.481	0.100
224.800	86.177	0.100
224.900	69.201	0.100
225.000	85.418	0.100
225.100	68.551	0.100
225.200	73.262	0.100
225.300	72.468	0.100
225.400	66.863	0.100
225.500	77.323	0.100
225.600	76.565	0.100
225.700	80.201	0.100
225.800	68.254	0.100
225.900	84.194	0.100
226.000	79.640	0.100
226.100	72.854	0.100
226.200	73.203	0.100
226.300	66.760	0.100
226.400	73.682	0.100
226.500	78.751	0.100
226.600	78.127	0.100
226.700	69.478	0.100
226.800	89.065	0.100
226.900	80.264	0.100
227.000	83.424	0.100
227.100	83.888	0.100
227.200	81.303	0.100
227.300	76.842	0.100
227.400	53.071	0.100
227.500	68.365	0.100
227.600	76.226	0.100
227.700	86.468	0.100
227.800	76.890	0.100
227.900	74.509	0.100
228.000	70.517	0.100
228.100	56.855	0.100
228.200	77.102	0.100
228.300	77.332	0.100
228.400	78.792	0.100
228.500	82.207	0.100
228.600	72.879	0.100
228.700	75.289	0.100
228.800	73.931	0.100
228.900	83.728	0.100
229.000	80.504	0.100
229.100	71.260	0.100
229.200	78.441	0.100
229.300	72.280	0.100
229.400	59.127	0.100
229.500	74.117	0.100
229.600	85.988	0.100
229.700	85.151	0.100
229.800	79.169	0.100
229.900	59.560	0.100
230.000	80.408	0.100
230.100	77.195	0.100
230.200	86.932	0.100
230.300	80.381	0.100
230.400	76.325	0.100
230.500	58.146	0.100
230.600	78.426	0.100
230.700	85.387	0.100
230.800	79.814	0.100
230.900	62.708	0.100
231.000	88.529	0.100
231.100	81.699	0.100
231.200	75.063	0.100
231.300	74.618	0.100
231.400	81.659	0.100
231.500	71.401	0.100
231.600	63.346	0.100
231.700	89.911	0.100
231.800	83.530	0.100
231.900	79.236	0.100
232.000	66.457	0.100
232.100	72.227	0.100
232.200	84.929	0.100
232.300	86.068	0.100
232.400	73.247	0.100
232.500	76.934	0.100
232.600	75.056	0.100
232.700	79.645	0.100
232.800	86.784	0.100
232.900	73.391	0.100
233.000	75.940	0.100
233.100	76.231	0.100
233.200	88.782	0.100
233.300	66.984	0.100
233.400	64.288	0.100
233.500	60.841	0.100
233.600	74.523	0.100
233.700	88.768	0.100
233.800	76.552	0.100
233.900	62.249	0.100
234.000	65.100	0.100
234.100	84.167	0.100
234.200	79.364	0.100
234.300	76.901	0.100
234.400	74.674	0.100
234.500	78.525	0.100
234.600	72.351	0.100
234.700	83.267	0.100
234.800	79.402	0.100
234.900	91.471	0.100
235.000	62.273	0.100
235.100	81.364	0.100
235.200	79.268	0.100
235.300	79.259	0.100
235.400	89.281	0.100
235.500	89.966	0.100
235.600	67.347	0.100
235.700	71.828	0.100
235.800	84.228	0.100
235.900	72.945	0.100
236.000	79.773	0.100
236.100	87.972	0.100
236.200	80.620	0.100
236.300	81.299	0.100
236.400	68.454	0.100
236.500	69.841	0.100
236.600	83.623	0.100
236.700	74.015	0.100
236.800	79.074	0.100
236.900	79.157	0.100
237.000	77.680	0.100
237.100	63.930	0.100
237.200	56.359	0.100
237.300	77.014	0.100
237.400	83.085	0.100
237.500	77.881	0.100
237.600	86.983	0.100
237.700	86.515	0.100
237.800	81.321	0.100
237.900	75.501	0.100
238.000	78.806	0.100
238.100	77.791	0.100
238.200	92.374	0.100
238.300	76.567	0.100
238.400	77.174	0.100
238.500	59.728	0.100
238.600	71.387	0.100
238.700	63.744	0.100
238.800	83.515	0.100
238.900	78.246	0.100
239.000	68.955	0.100
239.100	66.669	0.100
239.200	101.491	0.100
239.300	84.023	0.100
239.400	88.265	0.100
239.500	68.505	0.100
239.600	64.176	0.100
239.700	100.179	0.100
239.800	83.143	0.100
239.900	76.130	0.100
240.000	81.209	0.100
240.100	81.482	0.100
240.200	86.806	0.100
240.300	81.050	0.100
240.400	86.791	0.100
240.500	77.487	0.100
240.600	78.122	0.100
240.700	67.963	0.100
240.800	76.187	0.100
240.900	76.839	0.100
241.000	74.296	0.100
241.100	52.948	0.100
241.200	73.556	0.100
241.300	58.546	0.100
241.400	80.011	0.100
241.500	64.353	0.100
241.600	63.819	0.100
241.700	68.123	0.100
241.800	72.309	0.100
241.900	68.754	0.100
242.000	53.990	0.100
242.100	59.472	0.100
242.200	74.375	0.100
242.300	67.073	0.100
242.400	65.393	0.100
242.500	57.121	0.100
242.600	71.888	0.100
242.700	45.706	0.100
242.800	49.249	0.100
242.900	64.521	0.100
243.000	63.383	0.100
243.100	58.545	0.100
243.200	61.032	0.100
243.300	52.362	0.100
243.400	51.902	0.100
243.500	51.581	0.100
243.600	57.278	0.100
243.700	40.034	0.100
243.800	60.554	0.100
243.900	47.538	0.100
244.000	52.478	0.100
244.100	46.969	0.100
244.200	71.987	0.100
244.300	56.803	0.100
244.400	44.732	0.100
244.500	47.350	0.100
244.600	31.462	0.100
244.700	49.431	0.100
244.800	39.699	0.100
244.900	50.799	0.100
245.000	50.333	0.100
245.100	41.542	0.100
245.200	56.741	0.100
245.300	50.486	0.100
245.400	51.037	0.100
245.500	31.766	0.100
245.600	46.347	0.100
245.700	45.017	0.100
245.800	40.983	0.100
245.900	44.638	0.100
246.000	42.753	0.100
246.100	43.714	0.100
246.200	55.979	0.100
246.300	40.454	0.100
246.400	40.175	0.100
246.500	41.218	0.100
246.600	22.267	0.100
246.700	49.346	0.100
246.800	36.684	0.100
246.900	42.102	0.100
247.000	48.951	0.100
247.100	43.919	0.100
247.200	33.556	0.100
247.300	46.893	0.100
247.400	37.207	0.100
247.500	43.384	0.100
247.600	38.067	0.100
247.700	57.702	0.100
247.800	45.269	0.100
247.900	33.824	0.100
248.000	33.078	0.100
248.100	31.585	0.100
248.200	35.062	0.100
248.300	29.718	0.100
248.400	40.927	0.100
248.500	41.768	0.100
248.600	34.211	0.100
248.700	42.355	0.100
248.800	27.305	0.100
248.900	26.168	0.100
249.000	9.742	0.100
249.100	24.475	0.100
249.200	40.155	0.100
249.300	32.304	0.100
249.400	45.617	0.100
249.500	40.897	0.100
249.600	23.847	0.100
249.700	28.687	0.100
249.800	44.252	0.100
249.900	20.426	0.100
250.000	19.857	0.100
250.100	47.005	0.100
250.200	20.605	0.100
250.300	26.138	0.100
250.400	41.643	0.100
250.500	41.641	0.100
250.600	24.768	0.100
250.700	26.383	0.100
250.800	31.382	0.100
250.900	33.024	0.100
251.000	34.693	0.100
251.100	36.499	0.100
251.200	26.428	0.100
251.300	40.599	0.100
251.400	23.657	0.100
251.500	50.722	0.100
251.600	44.975	0.100
251.700	31.841	0.100
251.800	22.788	0.100
251.900	21.836	0.100
252.000	33.345	0.100
252.100	30.661	0.100
252.200	20.226	0.100
252.300	35.397	0.100
252.400	35.253	0.100
252.500	34.403	0.100
252.600	34.947	0.100
252.700	19.089	0.100
252.800	40.677	0.100
252.900	33.814	0.100
253.000	21.266	0.100
253.100	32.151	0.100
253.200	34.901	0.100
253.300	34.060	0.100
253.400	21.239	0.100
253.500	31.681	0.100
253.600	37.795	0.100
253.700	21.340	0.100
253.800	27.123	0.100
253.900	22.853	0.100
254.000	27.289	0.100
254.100	41.805	0.100
254.200	35.854	0.100
254.300	28.886	0.100
254.400	30.414	0.100
254.500	32.472	0.100
254.600	36.377	0.100
254.700	32.333	0.100
254.800	26.869	0.100
254.900	26.080	0.100
255.000	19.414	0.100
255.100	21.319	0.100
255.200	33.860	0.100
255.300	31.569	0.100
255.400	16.989	0.100
255.500	22.973	0.100
255.600	21.659	0.100
255.700	39.415	0.100
255.800	22.626	0.100
255.900	37.078	0.100
256.000	30.196	0.100
256.100	28.645	0.100
256.200	20.957	0.100
256.300	35.904	0.100
256.400	19.200	0.100
256.500	29.226	0.100
256.600	25.459	0.100
256.700	21.462	0.100
256.800	26.146	0.100
256.900	23.999	0.100
257.000	18.732	0.100
257.100	15.390	0.100
257.200	29.894	0.100
257.300	27.500	0.100
257.400	28.623	0.100
257.500	18.869	0.100
257.600	15.155	0.100
257.700	35.734	0.100
257.800	27.118	0.100
257.900	35.345	0.100
258.000	26.412	0.100
258.100	21.569	0.100
258.200	11.550	0.100
258.300	28.360	0.100
258.400	37.231	0.100
258.500	23.503	0.100
258.600	24.024	0.100
258.700	27.842	0.100
258.800	21.810	0.100
258.900	7.910	0.100
259.000	25.065	0.100
259.100	18.929	0.100
259.200	3.949	0.100
259.300	34.980	0.100
259.400	20.504	0.100
259.500	31.400	0.100
259.600	20.134	0.100
259.700	14.970	0.100
259.800	12.914	0.100
259.900	12.365	0.100
260.000	19.407	0.100
260.100	37.551	0.100
260.200	28.708	0.100
260.300	5.097	0.100
260.400	18.915	0.100
260.500	39.404	0.100
260.600	37.391	0.100
260.700	20.296	0.100
260.800	19.904	0.100
260.900	20.194	0.100
261.000	6.716	0.100
261.100	16.097	0.100
261.200	24.198	0.100
261.300	19.440	0.100
261.400	9.084	0.100
261.500	25.809	0.100
261.600	17.653	0.100
261.700	25.165	0.100
261.800	26.301	0.100
261.900	20.659	0.100
262.000	12.980	0.100
262.100	16.964	0.100
262.200	22.673	0.100
262.300	-0.754	0.100
262.400	10.330	0.100
262.500	14.662	0.100
262.600	25.009	0.100
262.700	26.594	0.100
262.800	28.402	0.100
262.900	12.913	0.100
263.000	20.510	0.100
263.100	16.328	0.100
263.200	7.782	0.100
263.300	17.228	0.100
263.400	15.077	0.100
263.500	26.833	0.100
263.600	15.049	0.100
263.700	9.437	0.100
263.800	28.152	0.100
263.900	29.267	0.100
264.000	20.608	0.100
264.100	17.679	0.100
264.200	13.626	0.100
264.300	-1.127	0.100
264.400	16.865	0.100
264.500	18.988	0.100
264.600	18.964	0.100
264.700	20.846	0.100
264.800	20.618	0.100
264.900	26.912	0.100
265.000	18.134	0.100
265.100	31.357	0.100
265.200	25.352	0.100
265.300	23.010	0.100
265.400	20.325	0.100
265.500	17.451	0.100
265.600	14.292	0.100
265.700	28.567	0.100
265.800	14.766	0.100
265.900	13.553	0.100
266.000	8.544	0.100
266.100	32.092	0.100
266.200	19.576	0.100
266.300	17.766	0.100
266.400	7.892	0.100
266.500	10.086	0.100
266.600	11.361	0.100
266.700	19.876	0.100
266.800	15.863	0.100
266.900	26.185	0.100
267.000	34.597	0.100
267.100	8.587	0.100
267.200	4.268	0.100
267.300	21.211	0.100
267.400	16.766	0.100
267.500	16.137	0.100
267.600	8.056	0.100
267.700	13.027	0.100
267.800	13.792	0.100
267.900	6.010	0.100
268.000	20.160	0.100
268.100	15.174	0.100
268.200	13.809	0.100
268.300	5.226	0.100
268.400	7.344	0.100
268.500	10.179	0.100
268.600	5.392	0.100
268.700	0.444	0.100
268.800	22.682	0.100
268.900	23.156	0.100
269.000	23.158	0.100
269.100	17.729	0.100
269.200	11.768	0.100
269.300	8.407	0.100
269.400	10.250	0.100
269.500	17.187	0.100
269.600	2.770	0.100
269.700	8.195	0.100
269.800	14.010	0.100
269.900	18.409	0.100
270.000	10.580	0.100
270.100	11.809	0.100
270.200	18.057	0.100
270.300	17.520	0.100
270.400	14.878	0.100
270.500	11.418	0.100
270.600	9.925	0.100
270.700	7.447	0.100
270.800	15.323	0.100
270.900	20.031	0.100
271.000	10.415	0.100
271.100	3.650	0.100
271.200	15.285	0.100
271.300	1.842	0.100
271.400	0.066	0.100
271.500	20.370	0.100
271.600	2.851	0.100
271.700	20.336	0.100
271.800	11.996	0.100
271.900	11.676	0.100
272.000	12.833	0.100
272.100	9.790	0.100
272.200	2.734	0.100
272.300	0.690	0.100
272.400	6.253	0.100
272.500	18.526	0.100
272.600	26.664	0.100
272.700	22.032	0.100
272.800	3.756	0.100
272.900	6.370	0.100
273.000	12.224	0.100
273.100	8.807	0.100
273.200	6.506	0.100
273.300	23.505	0.100
273.400	8.350	0.100
273.500	5.173	0.100
273.600	4.520	0.100
273.700	5.812	0.100
273.800	17.615	0.100
273.900	1.513	0.100
274.000	10.910	0.100
274.100	14.104	0.100
274.200	-0.103	0.100
274.300	9.746	0.100
274.400	13.780	0.100
274.500	7.204	0.100
274.600	11.925	0.100
274.700	8.238	0.100
274.800	12.303	0.100
274.900	7.907	0.100
275.000	9.430	0.100
275.100	11.641	0.100
275.200	10.628	0.100
275.300	11.243	0.100
275.400	1.895	0.100
275.500	11.519	0.100
275.600	17.931	0.100
275.700	14.266	0.100
275.800	-3.081	0.100
275.900	21.183	0.100
276.000	-0.280	0.100
276.100	2.402	0.100
276.200	15.714	0.100
276.300	18.070	0.100
276.400	7.846	0.100
276.500	7.953	0.100
276.600	2.177	0.100
276.700	5.458	0.100
276.800	10.652	0.100
276.900	2.224	0.100
277.000	2.831	0.100
277.100	8.302	0.100
277.200	7.447	0.100
277.300	6.356	0.100
277.400	1.248	0.100
277.500	10.642	0.100
277.600	8.081	0.100
277.700	9.657	0.100
277.800	14.763	0.100
277.900	6.081	0.100
278.000	-2.519	0.100
278.100	-3.701	0.100
278.200	5.588	0.100
278.300	5.871	0.100
278.400	0.559	0.100
278.500	3.038	0.100
278.600	-7.507	0.100
278.700	4.828	0.100
278.800	23.733	0.100
278.900	10.854	0.100
279.000	5.192	0.100
279.100	11.367	0.100
279.200	1.584	0.100
279.300	11.370	0.100
279.400	12.865	0.100
279.500	11.013	0.100
279.600	4.068	0.100
279.700	11.918	0.100
279.800	8.966	0.100
279.900	4.830	0.100
280.000	-0.564	0.100
280.100	3.574	0.100
280.200	-2.863	0.100
280.300	20.196	0.100
280.400	3.183	0.100
280.500	-0.298	0.100
280.600	-3.324	0.100
280.700	10.681	0.100
280.800	5.049	0.100
280.900	1.994	0.100
281.000	-5.299	0.100
281.100	7.962	0.100
281.200	-2.106	0.100
281.300	5.574	0.100
281.400	9.502	0.100
281.500	-6.182	0.100
281.600	-1.232	0.100
281.700	6.659	0.100
281.800	5.844	0.100
281.900	-5.183	0.100
282.000	-5.764	0.100
282.100	7.367	0.100
282.200	-7.744	0.100
282.300	9.535	0.100
282.400	9.477	0.100
282.500	5.707	0.100
282.600	7.749	0.100
282.700	10.905	0.100
282.800	3.211	0.100
282.900	16.573	0.100
283.000	0.922	0.100
283.100	3.247	0.100
283.200	-5.423	0.100
283.300	5.022	0.100
283.400	9.951	0.100
283.500	2.462	0.100
283.600	-3.879	0.100
283.700	1.566	0.100
283.800	6.801	0.100
283.900	2.501	0.100
284.000	13.622	0.100
284.100	2.026	0.100
284.200	-0.480	0.100
284.300	4.841	0.100
284.400	-6.829	0.100
284.500	-17.391	0.100
284.600	6.380	0.100
284.700	-0.150	0.100
284.800	2.903	0.100
284.900	-13.202	0.100
285.000	6.309	0.100
285.100	13.218	0.100
285.200	0.548	0.100
285.300	-5.935	0.100
285.400	5.702	0.100
285.500	18.053	0.100
285.600	5.505	0.100
285.700	7.982	0.100
285.800	2.072	0.100
285.900	-0.036	0.100
286.000	1.250	0.100
286.100	12.670	0.100
286.200	16.613	0.100
286.300	-3.198	0.100
286.400	-10.057	0.100
286.500	-6.745	0.100
286.600	-1.400	0.100
286.700	16.698	0.100
286.800	-10.767	0.100
286.900	-1.487	0.100
287.000	4.731	0.100
287.100	14.559	0.100
287.200	4.238	0.100
287.300	3.969	0.100
287.400	2.162	0.100
287.500	-1.371	0.100
287.600	6.612	0.100
287.700	2.019	0.100
287.800	6.785	0.100
287.900	8.543	0.100
288.000	-25.858	0.100
288.100	-13.266	0.100
288.200	6.214	0.100
288.300	11.846	0.100
288.400	14.311	0.100
288.500	10.267	0.100
288.600	-12.555	0.100
288.700	6.476	0.100
288.800	-4.398	0.100
288.900	-4.098	0.100
289.000	-6.884	0.100
289.100	4.375	0.100
289.200	-0.567	0.100
289.300	12.019	0.100
289.400	-3.602	0.100
289.500	6.980	0.100
289.600	5.146	0.100
289.700	4.476	0.100
289.800	9.950	0.100
289.900	1.416	0.100
290.000	2.122	0.100
290.100	-4.975	0.100
290.200	3.509	0.100
290.300	4.657	0.100
290.400	0.357	0.100
290.500	6.502	0.100
290.600	6.001	0.100
290.700	2.160	0.100
290.800	7.061	0.100
290.900	-12.980	0.100
291.000	-0.182	0.100
291.100	-6.518	0.100
291.200	-11.508	0.100
291.300	17.259	0.100
291.400	2.700	0.100
291.500	0.874	0.100
291.600	-9.092	0.100
291.700	1.169	0.100
291.800	10.940	0.100
291.900	2.973	0.100
292.000	17.488	0.100
292.100	0.889	0.100
292.200	7.133	0.100
292.300	-1.174	0.100
292.400	-1.659	0.100
292.500	1.066	0.100
292.600	3.302	0.100
292.700	-0.342	0.100
292.800	4.536	0.100
292.900	7.976	0.100
293.000	0.023	0.100
293.100	4.614	0.100
293.200	-6.246	0.100
293.300	0.330	0.100
293.400	-9.763	0.100
293.500	2.032	0.100
293.600	-7.909	0.100
293.700	7.467	0.100
293.800	11.558	0.100
293.900	1.525	0.100
294.000	6.375	0.100
294.100	10.010	0.100
294.200	-3.608	0.100
294.300	3.193	0.100
294.400	-4.380	0.100
294.500	2.781	0.100
294.600	4.248	0.100
294.700	0.329	0.100
294.800	-1.681	0.100
294.900	-3.093	0.100
295.000	1.527	0.100
295.100	-7.487	0.100
295.200	-5.914	0.100
295.300	9.198	0.100
295.400	7.280	0.100
295.500	6.073	0.100
295.600	11.809	0.100
295.700	3.483	0.100
295.800	-12.766	0.100
295.900	-4.785	0.100
296.000	6.507	0.100
296.100	-6.970	0.100
296.200	-4.810	0.100
296.300	9.138	0.100
296.400	3.626	0.100
296.500	9.196	0.100
296.600	4.213	0.100
296.700	-1.598	0.100
296.800	3.226	0.100
296.900	0.483	0.100
297.000	-5.527	0.100
297.100	2.055	0.100
297.200	-8.784	0.100
297.300	-7.320	0.100
297.400	1.138	0.100
297.500	-0.687	0.100
297.600	-5.269	0.100
297.700	9.935	0.100
297.800	4.291	0.100
297.900	6.048	0.100
298.000	12.689	0.100
298.100	-5.931	0.100
298.200	7.833	0.100
298.300	-0.153	0.100
298.400	0.306	0.100
298.500	-7.308	0.100
298.600	1.214	0.100
298.700	-9.822	0.100
298.800	-17.636	0.100
298.900	-5.057	0.100
299.000	0.180	0.100
299.100	5.241	0.100
299.200	0.339	0.100
299.300	0.065	0.100
299.400	-10.652	0.100
299.500	5.661	0.100
299.600	14.521	0.100
299.700	10.058	0.100
299.800	4.269	0.100
299.900	-5.311	0.100
300.000	1.695	0.100
300.100	0.307	0.100
300.200	-10.408	0.100
300.300	-7.024	0.100
300.400	7.949	0.100
300.500	-6.259	0.100
300.600	-0.829	0.100
300.700	-1.483	0.100
300.800	0.543	0.100
300.900	13.816	0.100
301.000	-6.458	0.100
301.100	11.073	0.100
301.200	-9.761	0.100
301.300	3.429	0.100
301.400	-3.830	0.100
301.500	-5.711	0.100
301.600	3.699	0.100
301.700	-1.473	0.100
301.800	-5.016	0.100
301.900	-9.079	0.100
302.000	-1.458	0.100
302.100	1.208	0.100
302.200	-0.268	0.100
302.300	-5.466	0.100
302.400	3.055	0.100
302.500	4.175	0.100
302.600	-1.986	0.100
302.700	-14.525	0.100
302.800	4.716	0.100
302.900	-11.265	0.100
303.000	-3.782	0.100
303.100	15.204	0.100
303.200	-7.658	0.100
303.300	2.589	0.100
303.400	3.912	0.100
303.500	-3.912	0.100
303.600	8.509	0.100
303.700	5.242	0.100
303.800	7.205	0.100
303.900	15.368	0.100
304.000	-18.424	0.100
304.100	1.037	0.100
304.200	-4.925	0.100
304.300	-9.512	0.100
304.400	-7.512	0.100
304.500	-6.375	0.100
304.600	-4.111	0.100
304.700	4.942	0.100
304.800	-2.165	0.100
304.900	-2.729	0.100
305.000	1.351	0.100
305.100	8.604	0.100
305.200	13.549	0.100
305.300	-2.875	0.100
305.400	-8.139	0.100
305.500	6.997	0.100
305.600	1.458	0.100
305.700	-7.954	0.100
305.800	-12.498	0.100
305.900	-0.813	0.100
306.000	-3.372	0.100
306.100	-1.017	0.100
306.200	0.020	0.100
306.300	2.350	0.100
306.400	6.309	0.100
306.500	-5.763	0.100
306.600	-4.853	0.100
306.700	-6.084	0.100
306.800	12.432	0.100
306.900	-7.514	0.100
307.000	-8.579	0.100
307.100	7.403	0.100
307.200	1.704	0.100
307.300	0.172	0.100
307.400	-1.461	0.100
307.500	-2.505	0.100
307.600	-5.126	0.100
307.700	-2.442	0.100
307.800	-7.586	0.100
307.900	-7.732	0.100
308.000	0.587	0.100
308.100	-0.899	0.100
308.200	1.750	0.100
308.300	4.739	0.100
308.400	-1.346	0.100
308.500	-2.666	0.100
308.600	-6.370	0.100
308.700	-4.899	0.100
308.800	-0.080	0.100
308.900	11.513	0.100
309.000	6.681	0.100
309.100	1.036	0.100
309.200	8.048	0.100
309.300	-1.680	0.100
309.400	-7.680	0.100
309.500	4.198	0.100
309.600	-17.018	0.100
309.700	7.716	0.100
309.800	8.723	0.100
309.900	2.328	0.100
310.000	-0.553	0.100
310.100	-9.464	0.100
310.200	-1.935	0.100
310.300	-2.881	0.100
310.400	-2.921	0.100
310.500	-1.422	0.100
310.600	-5.451	0.100
310.700	7.056	0.100
310.800	8.153	0.100
310.900	-2.891	0.100
311.000	2.660	0.100
311.100	-4.831	0.100
311.200	-8.205	0.100
311.300	-7.359	0.100
311.400	-12.248	0.100
311.500	-0.680	0.100
311.600	1.092	0.100
311.700	-3.972	0.100
311.800	4.413	0.100
311.900	-0.770	0.100
312.000	-1.040	0.100
312.100	-13.066	0.100
312.200	-13.424	0.100
312.300	-2.978	0.100
312.400	7.648	0.100
312.500	-5.253	0.100
312.600	-1.053	0.100
312.700	-6.782	0.100
312.800	10.130	0.100
312.900	-1.332	0.100
313.000	2.844	0.100
313.100	1.044	0.100
313.200	5.905	0.100
313.300	-12.547	0.100
313.400	-3.593	0.100
313.500	-6.800	0.100
313.600	-0.902	0.100
313.700	3.940	0.100
313.800	-10.640	0.100
313.900	-8.271	0.100
314.000	-5.188	0.100
314.100	-4.801	0.100
314.200	5.690	0.100
314.300	0.572	0.100
314.400	-4.148	0.100
314.500	9.644	0.100
314.600	10.293	0.100
314.700	-2.674	0.100
314.800	-6.383	0.100
314.900	4.042	0.100
315.000	4.659	0.100
315.100	8.538	0.100
315.200	-0.132	0.100
315.300	1.836	0.100
315.400	-12.728	0.100
315.500	-14.565	0.100
315.600	0.793	0.100
315.700	11.826	0.100
315.800	4.281	0.100
315.900	5.477	0.100
316.000	2.480	0.100
316.100	-11.272	0.100
316.200	-7.874	0.100
316.300	9.039	0.100
316.400	3.888	0.100
316.500	-0.034	0.100
316.600	5.788	0.100
316.700	-0.891	0.100
316.800	-19.098	0.100
316.900	0.139	0.100
317.000	-5.202	0.100
317.100	0.222	0.100
317.200	0.661	0.100
317.300	3.366	0.100
317.400	-0.209	0.100
317.500	-1.459	0.100
317.600	0.000	0.100
317.700	-10.472	0.100
317.800	-2.253	0.100
317.900	2.220	0.100
318.000	-8.786	0.100
318.100	4.623	0.100
318.200	-5.343	0.100
318.300	11.132	0.100
318.400	-9.062	0.100
318.500	-5.405	0.100
318.600	0.761	0.100
318.700	-1.255	0.100
318.800	0.138	0.100
318.900	-5.284	0.100
319.000	-7.505	0.100
319.100	-11.465	0.100
319.200	4.354	0.100
319.300	-5.797	0.100
319.400	-2.987	0.100
319.500	0.776	0.100
319.600	-2.827	0.100
319.700	-0.971	0.100
319.800	2.810	0.100
319.900	-10.235	0.100
320.000	-11.718	0.100
320.100	-16.959	0.100
320.200	-5.982	0.100
320.300	14.126	0.100
320.400	-6.008	0.100
320.500	1.943	0.100
320.600	4.537	0.100
320.700	-0.812	0.100
320.800	-9.377	0.100
320.900	-2.119	0.100
321.000	-1.682	0.100
321.100	-7.582	0.100
321.200	-0.676	0.100
321.300	0.665	0.100
321.400	-2.609	0.100
321.500	-11.977	0.100
321.600	-14.251	0.100
321.700	6.384	0.100
321.800	-0.769	0.100
321.900	2.552	0.100
322.000	-4.972	0.100
322.100	2.255	0.100
322.200	-6.862	0.100
322.300	2.361	0.100
322.400	-3.646	0.100
322.500	3.756	0.100
322.600	11.375	0.100
322.700	-6.666	0.100
322.800	-3.853	0.100
322.900	0.481	0.100
323.000	2.880	0.100
323.100	-7.631	0.100
323.200	-7.549	0.100
323.300	-5.936	0.100
323.400	-4.216	0.100
323.500	2.524	0.100
323.600	-11.219	0.100
323.700	-0.016	0.100
323.800	-1.818	0.100
323.900	-5.193	0.100
324.000	10.423	0.100
324.100	0.731	0.100
324.200	-6.192	0.100
324.300	-17.776	0.100
324.400	-13.728	0.100
324.500	1.302	0.100
324.600	-5.921	0.100
324.700	-1.707	0.100
324.800	16.034	0.100
324.900	-11.635	0.100
325.000	-8.031	0.100
325.100	-0.163	0.100
325.200	-4.507	0.100
325.300	7.610	0.100
325.400	-4.483	0.100
325.500	9.851	0.100
325.600	-15.649	0.100
325.700	-1.520	0.100
325.800	2.875	0.100
325.900	-6.674	0.100
326.000	4.617	0.100
326.100	5.610	0.100
326.200	-9.405	0.100
326.300	-2.830	0.100
326.400	-1.109	0.100
326.500	-1.148	0.100
326.600	-0.335	0.100
326.700	1.882	0.100
326.800	-14.569	0.100
326.900	-10.353	0.100
327.000	8.605	0.100
327.100	0.013	0.100
327.200	0.324	0.100
327.300	-9.124	0.100
327.400	-0.908	0.100
327.500	-16.357	0.100
327.600	-5.957	0.100
327.700	15.847	0.100
327.800	-4.034	0.100
327.900	-6.409	0.100
328.000	-17.995	0.100
328.100	-8.177	0.100
328.200	-5.529	0.100
328.300	6.387	0.100
328.400	0.914	0.100
328.500	5.769	0.100
328.600	-9.148	0.100
328.700	-2.457	0.100
328.800	-10.418	0.100
328.900	3.144	0.100
329.000	-5.995	0.100
329.100	-0.659	0.100
329.200	2.751	0.100
329.300	4.520	0.100
329.400	-12.857	0.100
329.500	-0.731	0.100
329.600	-4.358	0.100
329.700	-5.508	0.100
329.800	-10.280	0.100
329.900	-3.600	0.100
330.000	-8.360	0.100
330.100	-0.458	0.100
330.200	-5.632	0.100
330.300	8.396	0.100
330.400	6.363	0.100
330.500	10.669	0.100
330.600	11.564	0.100
330.700	2.471	0.100
330.800	-2.606	0.100
330.900	-0.934	0.100
331.000	-6.626	0.100
331.100	1.712	0.100
331.200	7.104	0.100
331.300	3.578	0.100
331.400	6.530	0.100
331.500	7.081	0.100
331.600	8.753	0.100
331.700	9.242	0.100
331.800	-1.673	0.100
331.900	12.617	0.100
332.000	4.089	0.100
332.100	30.123	0.100
332.200	20.473	0.100
332.300	17.019	0.100
332.400	19.760	0.100
332.500	11.969	0.100
332.600	12.372	0.100
332.700	15.565	0.100
332.800	23.040	0.100
332.900	23.598	0.100
333.000	18.213	0.100
333.100	24.183	0.100
333.200	8.716	0.100
333.300	24.211	0.100
333.400	17.719	0.100
333.500	31.997	0.100
333.600	19.641	0.100
333.700	25.173	0.100
333.800	20.420	0.100
333.900	31.031	0.100
334.000	25.470	0.100
334.100	20.981	0.100
334.200	23.791	0.100
334.300	20.323	0.100
334.400	25.731	0.100
334.500	26.321	0.100
334.600	29.356	0.100
334.700	27.962	0.100
334.800	25.099	0.100
334.900	21.961	0.100
335.000	22.103	0.100
335.100	28.929	0.100
335.200	13.024	0.100
335.300	19.751	0.100
335.400	21.506	0.100
335.500	30.357	0.100
335.600	36.887	0.100
335.700	35.415	0.100
335.800	37.528	0.100
335.900	12.912	0.100
336.000	38.356	0.100
336.100	26.017	0.100
336.200	17.372	0.100
336.300	21.211	0.100
336.400	39.057	0.100
336.500	38.552	0.100
336.600	22.141	0.100
336.700	31.360	0.100
336.800	30.170	0.100
336.900	15.374	0.100
337.000	28.601	0.100
337.100	48.787	0.100
337.200	36.923	0.100
337.300	43.124	0.100
337.400	30.994	0.100
337.500	26.287	0.100
337.600	33.653	0.100
337.700	36.138	0.100
337.800	26.551	0.100
337.900	41.183	0.100
338.000	40.372	0.100
338.100	26.567	0.100
338.200	40.827	0.100
338.300	13.582	0.100
338.400	38.266	0.100
338.500	48.523	0.100
338.600	32.172	0.100
338.700	27.120	0.100
338.800	34.094	0.100
338.900	31.483	0.100
339.000	26.973	0.100
339.100	52.348	0.100
339.200	47.545	0.100
339.300	43.614	0.100
339.400	35.844	0.100
339.500	36.160	0.100
339.600	40.389	0.100
339.700	25.111	0.100
339.800	49.605	0.100
339.900	40.815	0.100
340.000	19.495	0.100
340.100	33.251	0.100
340.200	28.611	0.100
340.300	35.991	0.100
340.400	41.958	0.100
340.500	34.469	0.100
340.600	42.997	0.100
340.700	35.962	0.100
340.800	37.349	0.100
340.900	63.704	0.100
341.000	27.067	0.100
341.100	37.868	0.100
341.200	54.188	0.100
341.300	57.085	0.100
341.400	39.996	0.100
341.500	32.176	0.100
341.600	50.628	0.100
341.700	45.113	0.100
341.800	35.876	0.100
341.900	37.846	0.100
342.000	40.564	0.100
342.100	45.903	0.100
342.200	35.021	0.100
342.300	40.579	0.100
342.400	50.128	0.100
342.500	51.002	0.100
342.600	39.811	0.100
342.700	40.853	0.100
342.800	51.366	0.100
342.900	34.611	0.100
343.000	43.935	0.100
343.100	40.399	0.100
343.200	55.383	0.100
343.300	46.645	0.100
343.400	42.883	0.100
343.500	32.797	0.100
343.600	45.447	0.100
343.700	49.511	0.100
343.800	36.028	0.100
343.900	45.359	0.100
344.000	57.724	0.100
344.100	66.248	0.100
344.200	48.089	0.100
344.300	53.415	0.100
344.400	49.468	0.100
344.500	62.283	0.100
344.600	53.615	0.100
344.700	49.575	0.100
344.800	57.404	0.100
344.900	49.042	0.100
345.000	46.382	0.100
345.100	55.295	0.100
345.200	45.732	0.100
345.300	48.625	0.100
345.400	52.485	0.100
345.500	43.520	0.100
345.600	55.077	0.100
345.700	51.740	0.100
345.800	52.881	0.100
345.900	59.422	0.100
346.000	42.093	0.100
346.100	54.694	0.100
346.200	51.260	0.100
346.300	48.665	0.100
346.400	60.430	0.100
346.500	47.207	0.100
346.600	62.031	0.100
346.700	59.570	0.100
346.800	44.292	0.100
346.900	43.529	0.100
347.000	52.967	0.100
347.100	64.363	0.100
347.200	61.630	0.100
347.300	56.110	0.100
347.400	50.104	0.100
347.500	50.414	0.100
347.600	59.964	0.100
347.700	54.370	0.100
347.800	55.003	0.100
347.900	58.900	0.100
348.000	54.952	0.100
348.100	58.480	0.100
348.200	59.253	0.100
348.300	44.827	0.100
348.400	44.365	0.100
348.500	45.301	0.100
348.600	50.885	0.100
348.700	72.823	0.100
348.800	65.365	0.100
348.900	63.244	0.100
349.000	68.144	0.100
349.100	64.822	0.100
349.200	61.366	0.100
349.300	64.472	0.100
349.400	59.950	0.100
349.500	62.542	0.100
349.600	57.493	0.100
349.700	55.757	0.100
349.800	60.353	0.100
349.900	54.254	0.100
350.000	58.762	0.100
350.100	58.836	0.100
350.200	51.251	0.100
350.300	64.247	0.100
350.400	62.812	0.100
350.500	62.638	0.100
350.600	57.352	0.100
350.700	59.190	0.100
350.800	58.245	0.100
350.900	60.484	0.100
351.000	66.828	0.100
351.100	63.860	0.100
351.200	53.140	0.100
351.300	56.479	0.100
351.400	65.244	0.100
351.500	62.702	0.100
351.600	56.839	0.100
351.700	55.312	0.100
351.800	70.851	0.100
351.900	57.161	0.100
352.000	61.576	0.100
352.100	76.297	0.100
352.200	54.018	0.100
352.300	69.090	0.100
352.400	66.630	0.100
352.500	62.371	0.100
352.600	57.885	0.100
352.700	67.519	0.100
352.800	53.388	0.100
352.900	65.679	0.100
353.000	63.692	0.100
353.100	60.776	0.100
353.200	53.595	0.100
353.300	66.259	0.100
353.400	55.799	0.100
353.500	69.924	0.100
353.600	46.148	0.100
353.700	61.749	0.100
353.800	75.817	0.100
353.900	75.635	0.100
354.000	66.448	0.100
354.100	74.255	0.100
354.200	75.284	0.100
354.300	60.094	0.100
354.400	77.658	0.100
354.500	77.479	0.100
354.600	73.056	0.100
354.700	60.533	0.100
354.800	70.166	0.100
354.900	64.490	0.100
355.000	60.393	0.100
355.100	61.150	0.100
355.200	65.940	0.100
355.300	75.554	0.100
355.400	95.603	0.100
355.500	68.093	0.100
355.600	64.020	0.100
355.700	74.048	0.100
355.800	70.994	0.100
355.900	60.894	0.100
356.000	72.204	0.100
356.100	63.525	0.100
356.200	58.246	0.100
356.300	71.509	0.100
356.400	75.569	0.100
356.500	69.877	0.100
356.600	75.656	0.100
356.700	66.454	0.100
356.800	55.751	0.100
356.900	65.580	0.100
357.000	81.415	0.100
357.100	73.389	0.100
357.200	50.274	0.100
357.300	76.144	0.100
357.400	80.994	0.100
357.500	75.820	0.100
357.600	76.180	0.100
357.700	70.450	0.100
357.800	62.545	0.100
357.900	70.616	0.100
358.000	72.700	0.100
358.100	81.482	0.100
358.200	71.419	0.100
358.300	72.732	0.100
358.400	75.754	0.100
358.500	65.692	0.100
358.600	58.550	0.100
358.700	76.714	0.100
358.800	74.129	0.100
358.900	89.378	0.100
359.000	74.534	0.100
359.100	60.645	0.100
359.200	84.778	0.100
359.300	77.920	0.100
359.400	64.109	0.100
359.500	74.925	0.100
359.600	79.946	0.100
359.700	74.342	0.100
359.800	77.957	0.100
359.900	80.321	0.100
360.000	58.570	0.100
360.100	85.197	0.100
360.200	71.433	0.100
360.300	61.735	0.100
360.400	70.648	0.100
360.500	78.843	0.100
360.600	74.463	0.100
360.700	81.254	0.100
360.800	65.014	0.100
360.900	93.990	0.100
361.000	68.279	0.100
361.100	79.519	0.100
361.200	83.724	0.100
361.300	79.041	0.100
361.400	76.917	0.100
361.500	77.760	0.100
361.600	67.839	0.100
361.700	69.693	0.100
361.800	76.812	0.100
361.900	67.962	0.100
362.000	83.682	0.100
362.100	78.812	0.100
362.200	81.870	0.100
362.300	84.162	0.100
362.400	85.866	0.100
362.500	79.573	0.100
362.600	64.544	0.100
362.700	80.986	0.100
362.800	72.273	0.100
362.900	75.462	0.100
363.000	65.154	0.100
363.100	71.584	0.100
363.200	70.078	0.100
363.300	74.698	0.100
363.400	86.513	0.100
363.500	75.607	0.100
363.600	75.643	0.100
363.700	82.429	0.100
363.800	63.587	0.100
363.900	71.255	0.100
364.000	71.953	0.100
364.100	72.007	0.100
364.200	85.375	0.100
364.300	83.383	0.100
364.400	82.845	0.100
364.500	91.503	0.100
364.600	76.755	0.100
364.700	74.235	0.100
364.800	89.037	0.100
364.900	80.391	0.100
365.000	75.181	0.100
365.100	76.233	0.100
365.200	72.007	0.100
365.300	83.973	0.100
365.400	81.500	0.100
365.500	86.922	0.100
365.600	87.418	0.100
365.700	71.008	0.100
365.800	79.234	0.100
365.900	80.515	0.100
366.000	67.445	0.100
366.100	83.665	0.100
366.200	86.110	0.100
366.300	88.749	0.100
366.400	78.084	0.100
366.500	74.536	0.100
366.600	71.587	0.100
366.700	74.820	0.100
366.800	89.130	0.100
366.900	79.477	0.100
367.000	68.189	0.100
367.100	76.695	0.100
367.200	80.167	0.100
367.300	66.532	0.100
367.400	78.429	0.100
367.500	83.487	0.100
367.600	76.105	0.100
367.700	92.546	0.100
367.800	85.831	0.100
367.900	81.229	0.100
368.000	89.004	0.100
368.100	69.615	0.100
368.200	72.930	0.100
368.300	80.610	0.100
368.400	67.884	0.100
368.500	94.680	0.100
368.600	84.902	0.100
368.700	72.234	0.100
368.800	94.058	0.100
368.900	87.753	0.100
369.000	85.441	0.100
369.100	76.067	0.100
369.200	92.035	0.100
369.300	78.403	0.100
369.400	79.347	0.100
369.500	78.926	0.100
369.600	84.382	0.100
369.700	70.346	0.100
369.800	77.537	0.100
369.900	73.522	0.100
370.000	82.131	0.100
370.100	79.816	0.100
370.200	76.161	0.100
370.300	69.019	0.100
370.400	91.045	0.100
370.500	67.625	0.100
370.600	82.359	0.100
370.700	68.987	0.100
370.800	69.281	0.100
370.900	85.501	0.100
371.000	84.592	0.100
371.100	81.603	0.100
371.200	71.580	0.100
371.300	83.771	0.100
371.400	73.914	0.100
371.500	98.013	0.100
371.600	68.601	0.100
371.700	90.191	0.100
371.800	76.104	0.100
371.900	76.566	0.100
372.000	69.885	0.100
372.100	86.765	0.100
372.200	76.712	0.100
372.300	88.009	0.100
372.400	86.213	0.100
372.500	84.984	0.100
372.600	80.705	0.100
372.700	75.929	0.100
372.800	86.598	0.100
372.900	88.108	0.100
373.000	80.249	0.100
373.100	91.592	0.100
373.200	88.992	0.100
373.300	82.926	0.100
373.400	87.018	0.100
373.500	78.985	0.100
373.600	76.435	0.100
373.700	80.088	0.100
373.800	85.916	0.100
373.900	85.583	0.100
374.000	79.957	0.100
374.100	91.432	0.100
374.200	74.351	0.100
374.300	74.267	0.100
374.400	64.335	0.100
374.500	84.402	0.100
374.600	75.215	0.100
374.700	88.048	0.100
374.800	89.791	0.100
374.900	87.847	0.100
375.000	82.167	0.100
375.100	77.371	0.100
375.200	86.235	0.100
375.300	86.214	0.100
375.400	71.800	0.100
375.500	85.827	0.100
375.600	77.341	0.100
375.700	74.857	0.100
375.800	75.811	0.100
375.900	80.189	0.100
376.000	81.005	0.100
376.100	70.222	0.100
376.200	90.728	0.100
376.300	89.308	0.100
376.400	76.391	0.100
376.500	84.488	0.100
376.600	77.857	0.100
376.700	68.562	0.100
376.800	83.423	0.100
376.900	74.974	0.100
377.000	89.332	0.100
377.100	78.040	0.100
377.200	82.165	0.100
377.300	81.370	0.100
377.400	85.031	0.100
377.500	83.767	0.100
377.600	72.367	0.100
377.700	88.664	0.100
377.800	85.562	0.100
377.900	70.242	0.100
378.000	80.369	0.100
378.100	79.754	0.100
378.200	79.820	0.100
378.300	96.623	0.100
378.400	74.668	0.100
378.500	75.733	0.100
378.600	82.584	0.100
378.700	88.426	0.100
378.800	89.438	0.100
378.900	90.009	0.100
379.000	77.014	0.100
379.100	73.717	0.100
379.200	83.227	0.100
379.300	71.068	0.100
379.400	89.706	0.100
379.500	72.994	0.100
379.600	93.078	0.100
379.700	76.932	0.100
379.800	82.300	0.100
379.900	78.408	0.100
380.000	73.462	0.100
380.100	78.808	0.100
380.200	89.962	0.100
380.300	92.313	0.100
380.400	81.701	0.100
380.500	80.138	0.100
380.600	75.436	0.100
380.700	87.821	0.100
380.800	81.190	0.100
380.900	93.460	0.100
381.000	70.555	0.100
381.100	80.494	0.100
381.200	83.704	0.100
381.300	76.334	0.100
381.400	79.727	0.100
381.500	81.045	0.100
381.600	76.750	0.100
381.700	78.797	0.100
381.800	77.652	0.100
381.900	66.183	0.100
382.000	72.307	0.100
382.100	81.464	0.100
382.200	84.113	0.100
382.300	89.646	0.100
382.400	90.653	0.100
382.500	70.136	0.100
382.600	79.679	0.100
382.700	86.026	0.100
382.800	77.186	0.100
382.900	99.399	0.100
383.000	89.851	0.100
383.100	71.764	0.100
383.200	79.311	0.100
383.300	86.366	0.100
383.400	84.311	0.100
383.500	80.009	0.100
383.600	86.276	0.100
383.700	83.277	0.100
383.800	85.945	0.100
383.900	84.147	0.100
384.000	68.650	0.100
384.100	81.426	0.100
384.200	77.986	0.100
384.300	85.169	0.100
384.400	73.114	0.100
384.500	77.888	0.100
384.600	79.328	0.100
384.700	80.322	0.100
384.800	82.332	0.100
384.900	76.863	0.100
385.000	82.014	0.100
385.100	81.765	0.100
385.200	89.930	0.100
385.300	80.062	0.100
385.400	83.721	0.100
385.500	82.178	0.100
385.600	85.783	0.100
385.700	77.272	0.100
385.800	73.377	0.100
385.900	71.717	0.100
386.000	87.120	0.100
386.100	87.154	0.100
386.200	69.434	0.100
386.300	72.557	0.100
386.400	90.912	0.100
386.500	91.583	0.100
386.600	79.360	0.100
386.700	70.468	0.100
386.800	87.261	0.100
386.900	81.147	0.100
387.000	84.384	0.100
387.100	75.471	0.100
387.200	88.267	0.100
387.300	77.946	0.100
387.400	85.600	0.100
387.500	69.811	0.100
387.600	85.021	0.100
387.700	83.673	0.100
387.800	84.166	0.100
387.900	79.905	0.100
388.000	92.041	0.100
388.100	88.386	0.100
388.200	75.588	0.100
388.300	81.735	0.100
388.400	79.520	0.100
388.500	75.429	0.100
388.600	107.853	0.100
388.700	97.412	0.100
388.800	80.382	0.100
388.900	70.539	0.100
389.000	90.494	0.100
389.100	82.974	0.100
389.200	83.088	0.100
389.300	79.666	0.100
389.400	71.098	0.100
389.500	79.715	0.100
389.600	74.752	0.100
389.700	75.977	0.100
389.800	81.042	0.100
389.900	85.153	0.100
390.000	75.483	0.100
390.100	89.917	0.100
390.200	82.124	0.100
390.300	84.849	0.100
390.400	76.729	0.100
390.500	69.644	0.100
390.600	81.444	0.100
390.700	70.329	0.100
390.800	74.868	0.100
390.900	76.740	0.100
391.000	79.824	0.100
391.100	73.843	0.100
391.200	80.927	0.100
391.300	79.024	0.100
391.400	70.839	0.100
391.500	71.866	0.100
391.600	70.217	0.100
391.700	66.602	0.100
391.800	63.792	0.100
391.900	63.865	0.100
392.000	69.571	0.100
392.100	48.492	0.100
392.200	56.652	0.100
392.300	74.402	0.100
392.400	63.561	0.100
392.500	67.486	0.100
392.600	60.554	0.100
392.700	61.136	0.100
392.800	43.533	0.100
392.900	43.876	0.100
393.000	55.944	0.100
393.100	72.744	0.100
393.200	44.007	0.100
393.300	52.477	0.100
393.400	61.132	0.100
393.500	56.422	0.100
393.600	70.096	0.100
393.700	57.477	0.100
393.800	49.533	0.100
393.900	44.406	0.100
394.000	48.469	0.100
394.100	38.278	0.100
394.200	45.200	0.100
394.300	62.854	0.100
394.400	39.427	0.100
394.500	61.054	0.100
394.600	48.347	0.100
394.700	53.965	0.100
394.800	46.762	0.100
394.900	42.118	0.100
395.000	46.930	0.100
395.100	31.149	0.100
395.200	33.556	0.100
395.300	40.781	0.100
395.400	41.768	0.100
395.500	47.427	0.100
395.600	44.910	0.100
395.700	43.564	0.100
395.800	21.082	0.100
395.900	37.002	0.100
396.000	44.338	0.100
396.100	29.432	0.100
396.200	45.903	0.100
396.300	40.277	0.100
396.400	25.526	0.100
396.500	22.098	0.100
396.600	51.731	0.100
396.700	37.389	0.100
396.800	35.774	0.100
396.900	41.468	0.100
397.000	35.711	0.100
397.100	28.356	0.100
397.200	23.526	0.100
397.300	44.969	0.100
397.400	30.857	0.100
397.500	30.005	0.100
397.600	18.766	0.100
397.700	35.823	0.100
397.800	29.594	0.100
397.900	25.143	0.100
398.000	16.154	0.100
398.100	29.101	0.100
398.200	20.065	0.100
398.300	42.351	0.100
398.400	32.224	0.100
398.500	30.787	0.100
398.600	26.130	0.100
398.700	18.161	0.100
398.800	20.921	0.100
398.900	40.109	0.100
399.000	36.710	0.100
399.100	36.344	0.100
399.200	31.012	0.100
399.300	22.199	0.100
399.400	27.476	0.100
399.500	25.399	0.100
399.600	20.310	0.100
399.700	27.759	0.100
399.800	38.488	0.100
399.900	21.786	0.100
400.000	22.169	0.100
400.100	28.049	0.100
400.200	37.365	0.100
400.300	36.544	0.100
400.400	17.086	0.100
400.500	18.398	0.100
400.600	20.080	0.100
400.700	24.938	0.100
400.800	36.838	0.100
400.900	26.278	0.100
401.000	20.087	0.100
401.100	37.791	0.100
401.200	18.858	0.100
401.300	26.403	0.100
401.400	11.162	0.100
401.500	13.805	0.100
401.600	38.403	0.100
401.700	35.382	0.100
401.800	24.032	0.100
401.900	26.126	0.100
402.000	14.106	0.100
402.100	12.661	0.100
402.200	18.229	0.100
402.300	19.306	0.100
402.400	22.066	0.100
402.500	21.304	0.100
402.600	39.319	0.100
402.700	26.486	0.100
402.800	27.011	0.100
402.900	35.720	0.100
403.000	22.059	0.100
403.100	33.249	0.100
403.200	22.822	0.100
403.300	21.906	0.100
403.400	16.006	0.100
403.500	18.952	0.100
403.600	17.875	0.100
403.700	19.723	0.100
403.800	29.530	0.100
403.900	17.774	0.100
404.000	13.983	0.100
404.100	18.219	0.100
404.200	12.590	0.100
404.300	26.164	0.100
404.400	15.453	0.100
404.500	32.342	0.100
404.600	23.359	0.100
404.700	19.872	0.100
404.800	18.777	0.100
404.900	28.641	0.100
405.000	16.326	0.100
405.100	17.845	0.100
405.200	15.702	0.100
405.300	31.425	0.100
405.400	14.025	0.100
405.500	12.992	0.100
405.600	15.202	0.100
405.700	0.160	0.100
405.800	27.464	0.100
405.900	16.677	0.100
406.000	18.256	0.100
406.100	29.011	0.100
406.200	12.377	0.100
406.300	13.358	0.100
406.400	13.413	0.100
406.500	22.219	0.100
406.600	29.258	0.100
406.700	31.456	0.100
406.800	32.230	0.100
406.900	15.249	0.100
407.000	15.678	0.100
407.100	15.874	0.100
407.200	14.277	0.100
407.300	15.142	0.100
407.400	26.028	0.100
407.500	7.013	0.100
407.600	6.025	0.100
407.700	16.614	0.100
407.800	11.732	0.100
407.900	26.218	0.100
408.000	17.732	0.100
408.100	15.222	0.100
408.200	13.801	0.100
408.300	10.216	0.100
408.400	17.188	0.100
408.500	11.893	0.100
408.600	18.089	0.100
408.700	9.792	0.100
408.800	20.121	0.100
408.900	18.279	0.100
409.000	12.803	0.100
409.100	18.042	0.100
409.200	16.426	0.100
409.300	13.653	0.100
409.400	22.808	0.100
409.500	7.157	0.100
409.600	18.124	0.100
409.700	17.420	0.100
409.800	19.335	0.100
409.900	11.835	0.100
410.000	12.401	0.100
410.100	15.975	0.100
410.200	13.011	0.100
410.300	6.326	0.100
410.400	3.378	0.100
410.500	11.707	0.100
410.600	5.057	0.100
410.700	17.542	0.100
410.800	16.490	0.100
410.900	18.382	0.100
411.000	16.143	0.100
411.100	9.649	0.100
411.200	14.213	0.100
411.300	10.919	0.100
411.400	28.774	0.100
411.500	15.131	0.100
411.600	21.413	0.100
411.700	6.487	0.100
411.800	9.224	0.100
411.900	16.747	0.100
412.000	9.049	0.100
412.100	6.703	0.100
412.200	16.263	0.100
412.300	30.792	0.100
412.400	14.390	0.100
412.500	3.151	0.100
412.600	18.497	0.100
412.700	-3.736	0.100
412.800	9.425	0.100
412.900	7.384	0.100
413.000	14.949	0.100
413.100	0.739	0.100
413.200	12.333	0.100
413.300	11.069	0.100
413.400	3.212	0.100
413.500	13.705	0.100
413.600	26.569	0.100
413.700	31.569	0.100
413.800	12.792	0.100
413.900	9.251	0.100
414.000	9.685	0.100
414.100	15.123	0.100
414.200	12.147	0.100
414.300	6.542	0.100
414.400	10.419	0.100
414.500	9.340	0.100
414.600	9.768	0.100
414.700	1.310	0.100
414.800	-0.142	0.100
414.900	22.655	0.100
415.000	3.557	0.100
415.100	15.402	0.100
415.200	14.041	0.100
415.300	8.514	0.100
415.400	15.993	0.100
415.500	-3.441	0.100
415.600	13.125	0.100
415.700	13.402	0.100
415.800	16.820	0.100
415.900	13.504	0.100
416.000	6.760	0.100
416.100	-4.087	0.100
416.200	-8.013	0.100
416.300	10.959	0.100
416.400	9.068	0.100
416.500	14.207	0.100
416.600	6.164	0.100
416.700	16.183	0.100
416.800	13.427	0.100
416.900	15.084	0.100
417.000	7.318	0.100
417.100	13.131	0.100
417.200	13.773	0.100
417.300	4.857	0.100
417.400	0.543	0.100
417.500	9.587	0.100
417.600	1.420	0.100
417.700	9.775	0.100
417.800	-2.831	0.100
417.900	13.172	0.100
418.000	5.943	0.100
418.100	10.083	0.100
418.200	15.936	0.100
418.300	16.113	0.100
418.400	7.215	0.100
418.500	-0.489	0.100
418.600	4.274	0.100
418.700	-0.957	0.100
418.800	13.584	0.100
418.900	17.052	0.100
419.000	-10.587	0.100
419.100	2.724	0.100
419.200	15.388	0.100
419.300	6.786	0.100
419.400	0.820	0.100
419.500	-3.763	0.100
419.600	10.650	0.100
419.700	2.701	0.100
419.800	-7.433	0.100
419.900	9.678	0.100
420.000	11.579	0.100
420.100	1.780	0.100
420.200	6.594	0.100
420.300	7.918	0.100
420.400	14.098	0.100
420.500	23.105	0.100
420.600	15.787	0.100
420.700	11.079	0.100
420.800	2.973	0.100
420.900	-8.504	0.100
421.000	-3.480	0.100
421.100	1.354	0.100
421.200	2.138	0.100
421.300	-3.189	0.100
421.400	6.350	0.100
421.500	2.889	0.100
421.600	-9.316	0.100
421.700	21.279	0.100
421.800	11.858	0.100
421.900	-0.578	0.100
422.000	10.958	0.100
422.100	17.310	0.100
422.200	0.823	0.100
422.300	4.723	0.100
422.400	2.443	0.100
422.500	-0.081	0.100
422.600	0.321	0.100
422.700	-4.677	0.100
422.800	-9.039	0.100
422.900	12.532	0.100
423.000	5.382	0.100
423.100	3.260	0.100
423.200	10.217	0.100
423.300	-3.031	0.100
423.400	-6.447	0.100
423.500	20.182	0.100
423.600	5.435	0.100
423.700	-1.130	0.100
423.800	2.674	0.100
423.900	17.604	0.100
424.000	-0.522	0.100
424.100	6.523	0.100
424.200	-8.413	0.100
424.300	-4.867	0.100
424.400	0.238	0.100
424.500	7.025	0.100
424.600	5.138	0.100
424.700	2.927	0.100
424.800	2.298	0.100
424.900	0.498	0.100
425.000	2.603	0.100
425.100	-9.038	0.100
425.200	10.172	0.100
425.300	1.820	0.100
425.400	4.149	0.100
425.500	1.526	0.100
425.600	-11.517	0.100
425.700	-6.856	0.100
425.800	-8.075	0.100
425.900	1.382	0.100
426.000	-0.202	0.100
426.100	3.177	0.100
426.200	-10.998	0.100
426.300	5.902	0.100
426.400	-3.731	0.100
426.500	0.095	0.100
426.600	5.093	0.100
426.700	-6.060	0.100
426.800	-5.774	0.100
426.900	-13.822	0.100
427.000	7.481	0.100
427.100	0.636	0.100
427.200	2.715	0.100
427.300	0.423	0.100
427.400	6.538	0.100
427.500	4.901	0.100
427.600	-0.474	0.100
427.700	5.787	0.100
427.800	-1.952	0.100
427.900	-4.321	0.100
428.000	0.976	0.100
428.100	-7.704	0.100
428.200	-0.577	0.100
428.300	11.447	0.100
428.400	-16.147	0.100
428.500	-0.039	0.100
428.600	-3.965	0.100
428.700	-10.173	0.100
428.800	-2.795	0.100
428.900	-5.630	0.100
429.000	-1.272	0.100
429.100	3.351	0.100
429.200	4.581	0.100
429.300	-12.849	0.100
429.400	1.679	0.100
429.500	-0.830	0.100
429.600	10.025	0.100
429.700	-3.161	0.100
429.800	-4.420	0.100
429.900	-7.753	0.100
430.000	5.976	0.100
430.100	-5.893	0.100
430.200	-6.288	0.100
430.300	-2.094	0.100
430.400	3.109	0.100
430.500	-3.426	0.100
430.600	-7.614	0.100
430.700	-9.910	0.100
430.800	-18.281	0.100
430.900	-8.735	0.100
431.000	-10.014	0.100
431.100	15.674	0.100
431.200	-2.378	0.100
431.300	-14.712	0.100
431.400	-11.130	0.100
431.500	2.524	0.100
431.600	6.083	0.100
431.700	7.643	0.100
431.800	-14.162	0.100
431.900	2.386	0.100
432.000	-8.926	0.100
432.100	3.856	0.100
432.200	-4.878	0.100
432.300	-2.924	0.100
432.400	-6.383	0.100
432.500	4.388	0.100
432.600	7.482	0.100
432.700	0.297	0.100
432.800	-10.587	0.100
432.900	-1.717	0.100
433.000	9.831	0.100
433.100	1.137	0.100
433.200	0.465	0.100
433.300	-8.672	0.100
433.400	-7.827	0.100
433.500	-8.249	0.100
433.600	-6.555	0.100
433.700	1.199	0.100
433.800	-4.725	0.100
433.900	-7.642	0.100
434.000	-4.046	0.100
434.100	1.012	0.100
434.200	-3.024	0.100
434.300	-0.164	0.100
434.400	-14.578	0.100
434.500	-10.816	0.100
434.600	-0.938	0.100
434.700	-6.440	0.100
434.800	-4.240	0.100
434.900	-7.470	0.100
435.000	-9.123	0.100
435.100	-8.376	0.100
435.200	-10.544	0.100
435.300	5.422	0.100
435.400	-0.542	0.100
435.500	-4.079	0.100
435.600	-1.310	0.100
435.700	-0.210	0.100
435.800	-4.714	0.100
435.900	-18.174	0.100
436.000	-3.870	0.100
436.100	-20.846	0.100
436.200	3.679	0.100
436.300	3.634	0.100
436.400	-11.973	0.100
436.500	-6.480	0.100
436.600	-2.051	0.100
436.700	-1.466	0.100
436.800	2.569	0.100
436.900	-6.296	0.100
437.000	7.141	0.100
437.100	-8.419	0.100
437.200	5.304	0.100
437.300	-5.601	0.100
437.400	7.467	0.100
437.500	-7.064	0.100
437.600	-18.601	0.100
437.700	-6.704	0.100
437.800	-2.357	0.100
437.900	-8.937	0.100
438.000	2.794	0.100
438.100	-3.540	0.100
438.200	-5.524	0.100
438.300	-14.987	0.100
438.400	2.771	0.100
438.500	-0.347	0.100
438.600	-12.475	0.100
438.700	-24.926	0.100
438.800	-10.079	0.100
438.900	-3.611	0.100
439.000	-4.825	0.100
439.100	-1.900	0.100
439.200	-14.516	0.100
439.300	3.909	0.100
439.400	-5.591	0.100
439.500	-9.639	0.100
439.600	-9.472	0.100
439.700	5.124	0.100
439.800	1.300	0.100
439.900	8.141	0.100
440.000	-4.008	0.100
440.100	4.466	0.100
440.200	-17.962	0.100
440.300	-3.718	0.100
440.400	-6.032	0.100
440.500	-4.736	0.100
440.600	-4.201	0.100
440.700	-9.520	0.100
440.800	-12.387	0.100
440.900	-3.730	0.100
441.000	-2.894	0.100
441.100	-17.154	0.100
441.200	2.048	0.100
441.300	-14.430	0.100
441.400	-13.459	0.100
441.500	-6.783	0.100
441.600	-13.746	0.100
441.700	-5.957	0.100
441.800	-6.356	0.100
441.900	-8.549	0.100
442.000	-19.063	0.100
442.100	-14.077	0.100
442.200	-3.011	0.100
442.300	-1.426	0.100
442.400	-5.268	0.100
442.500	-7.315	0.100
442.600	-5.969	0.100
442.700	-15.207	0.100
442.800	-5.787	0.100
442.900	-15.715	0.100
443.000	-16.917	0.100
443.100	-9.996	0.100
443.200	1.268	0.100
443.300	-7.785	0.100
443.400	6.379	0.100
443.500	-5.632	0.100
443.600	-15.927	0.100
443.700	-12.265	0.100
443.800	-0.865	0.100
443.900	-3.584	0.100
444.000	-1.569	0.100
444.100	4.163	0.100
444.200	-9.460	0.100
444.300	-3.155	0.100
444.400	-6.067	0.100
444.500	-28.442	0.100
444.600	-7.761	0.100
444.700	2.431	0.100
444.800	-13.011	0.100
444.900	-8.824	0.100
445.000	-14.993	0.100
445.100	-12.555	0.100
445.200	-6.031	0.100
445.300	-5.845	0.100
445.400	-10.981	0.100
445.500	-16.164	0.100
445.600	-10.918	0.100
445.700	-3.372	0.100
445.800	-4.618	0.100
445.900	-6.817	0.100
446.000	-0.591	0.100
446.100	-13.018	0.100
446.200	-2.604	0.100
446.300	-13.502	0.100
446.400	-3.389	0.100
446.500	-3.193	0.100
446.600	-21.420	0.100
446.700	-17.586	0.100
446.800	-20.767	0.100
446.900	-5.413	0.100
447.000	9.281	0.100
447.100	-7.810	0.100
447.200	-12.289	0.100
447.300	-0.848	0.100
447.400	-5.822	0.100
447.500	-20.520	0.100
447.600	-3.570	0.100
447.700	-6.293	0.100
447.800	-2.371	0.100
447.900	-6.737	0.100
448.000	-7.907	0.100
448.100	-18.395	0.100
448.200	0.938	0.100
448.300	-19.780	0.100
448.400	-7.272	0.100
448.500	-12.055	0.100
448.600	-10.492	0.100
448.700	4.418	0.100
448.800	-15.979	0.100
448.900	-26.448	0.100
449.000	-17.085	0.100
449.100	-7.523	0.100
449.200	0.053	0.100
449.300	4.115	0.100
449.400	0.089	0.100
449.500	-16.022	0.100
449.600	-12.325	0.100
449.700	6.177	0.100
449.800	-2.253	0.100
449.900	-4.461	0.100
450.000	-18.090	0.100
450.100	-14.493	0.100
450.200	2.171	0.100
450.300	7.560	0.100
450.400	-9.541	0.100
450.500	-3.351	0.100
450.600	-1.099	0.100
450.700	-8.123	0.100
450.800	-8.534	0.100
450.900	-22.786	0.100
451.000	-14.347	0.100
451.100	-6.166	0.100
451.200	-12.457	0.100
451.300	-12.877	0.100
451.400	-4.259	0.100
451.500	0.232	0.100
451.600	0.179	0.100
451.700	-15.797	0.100
451.800	-21.869	0.100
451.900	-17.942	0.100
452.000	-9.398	0.100
452.100	1.730	0.100
452.200	-8.149	0.100
452.300	-6.993	0.100
452.400	-9.610	0.100
452.500	-9.968	0.100
452.600	-2.523	0.100
452.700	-2.574	0.100
452.800	-13.558	0.100
452.900	-6.808	0.100
453.000	-19.909	0.100
453.100	-12.196	0.100
453.200	-7.807	0.100
453.300	-0.283	0.100
453.400	5.464	0.100
453.500	-4.477	0.100
453.600	-19.086	0.100
453.700	-12.507	0.100
453.800	-19.618	0.100
453.900	-13.099	0.100
454.000	-2.050	0.100
454.100	-13.952	0.100
454.200	-22.347	0.100
454.300	2.412	0.100
454.400	2.876	0.100
454.500	-15.733	0.100
454.600	-24.435	0.100
454.700	-23.795	0.100
454.800	4.428	0.100
454.900	-0.558	0.100
455.000	-5.254	0.100
455.100	-4.839	0.100
455.200	1.225	0.100
455.300	-23.076	0.100
455.400	-0.284	0.100
455.500	-16.951	0.100
455.600	-14.659	0.100
455.700	-10.066	0.100
455.800	-9.079	0.100
455.900	-7.737	0.100
456.000	-31.402	0.100
456.100	-18.177	0.100
456.200	-6.091	0.100
456.300	-1.302	0.100
456.400	-4.286	0.100
456.500	-18.379	0.100
456.600	-7.672	0.100
456.700	-8.160	0.100
456.800	-14.908	0.100
456.900	-9.792	0.100
457.000	-6.115	0.100
457.100	3.015	0.100
457.200	-11.251	0.100
457.300	-14.320	0.100
457.400	-6.608	0.100
457.500	-10.669	0.100
457.600	-3.895	0.100
457.700	-12.430	0.100
457.800	7.847	0.100
457.900	-20.531	0.100
458.000	-12.247	0.100
458.100	-4.065	0.100
458.200	-12.062	0.100
458.300	-7.246	0.100
458.400	0.899	0.100
458.500	-9.100	0.100
458.600	-2.629	0.100
458.700	-2.128	0.100
458.800	-8.726	0.100
458.900	-12.469	0.100
459.000	-20.436	0.100
459.100	-17.411	0.100
459.200	-8.224	0.100
459.300	-8.437	0.100
459.400	-15.660	0.100
459.500	-9.770	0.100
459.600	-14.923	0.100
459.700	-17.618	0.100
459.800	-11.808	0.100
459.900	-9.476	0.100
460.000	4.325	0.100
460.100	4.317	0.100
460.200	-13.237	0.100
460.300	-6.997	0.100
460.400	-12.261	0.100
460.500	-4.377	0.100
460.600	-5.547	0.100
460.700	-9.570	0.100
460.800	-5.315	0.100
460.900	-11.211	0.100
461.000	-4.659	0.100
461.100	-8.498	0.100
461.200	-22.466	0.100
461.300	-8.280	0.100
461.400	2.866	0.100
461.500	-13.641	0.100
461.600	-4.063	0.100
461.700	-13.378	0.100
461.800	-11.952	0.100
461.900	-13.580	0.100
462.000	-11.566	0.100
462.100	-14.768	0.100
462.200	-10.400	0.100
462.300	-12.022	0.100
462.400	-8.578	0.100
462.500	-7.916	0.100
462.600	-7.587	0.100
462.700	-8.106	0.100
462.800	-10.439	0.100
462.900	-1.967	0.100
463.000	1.316	0.100
463.100	-3.836	0.100
463.200	-19.350	0.100
463.300	-16.607	0.100
463.400	-12.552	0.100
463.500	-18.632	0.100
463.600	-7.206	0.100
463.700	-6.583	0.100
463.800	-8.563	0.100
463.900	-19.003	0.100
464.000	-6.927	0.100
464.100	-3.710	0.100
464.200	-9.089	0.100
464.300	-21.546	0.100
464.400	-18.713	0.100
464.500	-12.652	0.100
464.600	-15.589	0.100
464.700	-3.251	0.100
464.800	-10.311	0.100
464.900	-10.468	0.100
465.000	-9.505	0.100
465.100	-8.117	0.100
465.200	-17.670	0.100
465.300	-11.891	0.100
465.400	-14.355	0.100
465.500	-12.647	0.100
465.600	-4.050	0.100
465.700	-10.928	0.100
465.800	-13.689	0.100
465.900	-15.094	0.100
466.000	0.105	0.100
466.100	-23.943	0.100
466.200	-8.347	0.100
466.300	-9.472	0.100
466.400	-5.660	0.100
466.500	-20.805	0.100
466.600	-13.971	0.100
466.700	-20.930	0.100
466.800	-6.595	0.100
466.900	1.151	0.100
467.000	-17.611	0.100
467.100	-16.155	0.100
467.200	-19.763	0.100
467.300	-6.494	0.100
467.400	-0.563	0.100
467.500	-0.562	0.100
467.600	5.921	0.100
467.700	-18.304	0.100
467.800	-11.140	0.100
467.900	-16.005	0.100
468.000	-21.428	0.100
468.100	-15.104	0.100
468.200	-9.499	0.100
468.300	-6.767	0.100
468.400	-16.990	0.100
468.500	-11.821	0.100
468.600	0.890	0.100
468.700	-18.096	0.100
468.800	-10.710	0.100
468.900	-7.738	0.100
469.000	-11.865	0.100
469.100	-26.409	0.100
469.200	-15.809	0.100
469.300	-4.771	0.100
469.400	-3.641	0.100
469.500	-4.143	0.100
469.600	-7.506	0.100
469.700	-8.168	0.100
469.800	-22.340	0.100
469.900	-0.493	0.100
470.000	-1.984	0.100
470.100	-9.628	0.100
470.200	-11.250	0.100
470.300	-6.816	0.100
470.400	-2.759	0.100
470.500	-16.748	0.100
470.600	-16.001	0.100
470.700	-15.578	0.100
470.800	-12.193	0.100
470.900	-6.942	0.100
471.000	-10.849	0.100
471.100	-21.279	0.100
471.200	4.560	0.100
471.300	-13.969	0.100
471.400	-18.437	0.100
471.500	-14.551	0.100
471.600	-2.504	0.100
471.700	1.711	0.100
471.800	-11.425	0.100
471.900	-17.935	0.100
472.000	-5.909	0.100
472.100	-2.037	0.100
472.200	-20.089	0.100
472.300	5.368	0.100
472.400	-1.943	0.100
472.500	-1.300	0.100
472.600	-3.662	0.100
472.700	-12.067	0.100
472.800	-13.580	0.100
472.900	-21.518	0.100
473.000	-16.289	0.100
473.100	0.969	0.100
473.200	-2.954	0.100
473.300	-25.957	0.100
473.400	-9.230	0.100
473.500	1.711	0.100
473.600	-10.984	0.100
473.700	-9.899	0.100
473.800	-18.890	0.100
473.900	-11.798	0.100
474.000	-6.055	0.100
474.100	-18.679	0.100
474.200	-9.171	0.100
474.300	-9.218	0.100
474.400	-17.254	0.100
474.500	1.043	0.100
474.600	-26.272	0.100
474.700	-25.914	0.100
474.800	-13.083	0.100
474.900	-21.712	0.100
475.000	-16.023	0.100
475.100	-2.283	0.100
475.200	-9.770	0.100
475.300	-21.650	0.100
475.400	-4.113	0.100
475.500	-3.723	0.100
475.600	-11.076	0.100
475.700	-19.166	0.100
475.800	-9.615	0.100
475.900	-10.546	0.100
476.000	-22.320	0.100
476.100	-20.640	0.100
476.200	-13.497	0.100
476.300	-5.944	0.100
476.400	-4.049	0.100
476.500	-13.438	0.100
476.600	-15.193	0.100
476.700	-14.190	0.100
476.800	-16.412	0.100
476.900	-8.370	0.100
477.000	-2.343	0.100
477.100	-12.550	0.100
477.200	-5.467	0.100
477.300	7.353	0.100
477.400	-11.849	0.100
477.500	-1.803	0.100
477.600	-11.862	0.100
477.700	-9.084	0.100
477.800	-16.305	0.100
477.900	-14.609	0.100
478.000	-21.989	0.100
478.100	-13.493	0.100
478.200	-5.024	0.100
478.300	-12.392	0.100
478.400	-9.469	0.100
478.500	-11.674	0.100
478.600	0.584	0.100
478.700	-7.345	0.100
478.800	-17.017	0.100
478.900	-14.377	0.100
479.000	-14.774	0.100
479.100	-16.048	0.100
479.200	-8.035	0.100
479.300	-7.334	0.100
479.400	-12.643	0.100
479.500	2.689	0.100
479.600	-3.551	0.100
479.700	-15.792	0.100
479.800	-10.706	0.100
479.900	-20.475	0.100
480.000	-3.734	0.100
480.100	-13.713	0.100
480.200	-12.138	0.100
480.300	-21.234	0.100
480.400	-22.476	0.100
480.500	-18.076	0.100
480.600	-3.858	0.100
480.700	3.248	0.100
480.800	8.984	0.100
480.900	-2.744	0.100
481.000	-8.861	0.100
481.100	1.981	0.100
481.200	-8.539	0.100
481.300	-12.201	0.100
481.400	4.172	0.100
481.500	8.698	0.100
481.600	-14.325	0.100
481.700	-6.402	0.100
481.800	1.179	0.100
481.900	-4.882	0.100
482.000	3.918	0.100
482.100	15.393	0.100
482.200	0.557	0.100
482.300	3.862	0.100
482.400	-0.035	0.100
482.500	15.137	0.100
482.600	18.029	0.100
482.700	5.576	0.100
482.800	12.537	0.100
482.900	8.169	0.100
483.000	7.020	0.100
483.100	14.443	0.100
483.200	13.772	0.100
483.300	17.696	0.100
483.400	6.300	0.100
483.500	2.704	0.100
483.600	15.931	0.100
483.700	9.235	0.100
483.800	18.514	0.100
483.900	23.201	0.100
484.000	13.055	0.100
484.100	32.594	0.100
484.200	18.900	0.100
484.300	19.403	0.100
484.400	23.262	0.100
484.500	26.131	0.100
484.600	20.014	0.100
484.700	18.389	0.100
484.800	21.012	0.100
484.900	21.485	0.100
485.000	19.949	0.100
485.100	29.645	0.100
485.200	14.818	0.100
485.300	22.621	0.100
485.400	17.084	0.100
485.500	23.512	0.100
485.600	24.861	0.100
485.700	8.098	0.100
485.800	28.578	0.100
485.900	27.523	0.100
486.000	14.335	0.100
486.100	27.267	0.100
486.200	28.359	0.100
486.300	32.336	0.100
486.400	32.367	0.100
486.500	27.848	0.100
486.600	15.555	0.100
486.700	20.013	0.100
486.800	24.278	0.100
486.900	19.927	0.100
487.000	26.128	0.100
487.100	24.761	0.100
487.200	22.465	0.100
487.300	21.152	0.100
487.400	23.625	0.100
487.500	17.884	0.100
487.600	33.180	0.100
487.700	39.333	0.100
487.800	31.823	0.100
487.900	22.655	0.100
488.000	36.507	0.100
488.100	22.173	0.100
488.200	21.131	0.100
488.300	22.918	0.100
488.400	31.072	0.100
488.500	35.548	0.100
488.600	37.227	0.100
488.700	35.605	0.100
488.800	24.730	0.100
488.900	36.012	0.100
489.000	25.687	0.100
489.100	35.654	0.100
489.200	42.992	0.100
489.300	26.854	0.100
489.400	25.021	0.100
489.500	27.067	0.100
489.600	12.390	0.100
489.700	29.418	0.100
489.800	38.895	0.100
489.900	42.192	0.100
490.000	26.773	0.100
490.100	27.422	0.100
490.200	32.352	0.100
490.300	17.133	0.100
490.400	35.778	0.100
490.500	26.786	0.100
490.600	24.737	0.100
490.700	39.063	0.100
490.800	35.692	0.100
490.900	37.354	0.100
491.000	44.090	0.100
491.100	32.653	0.100
491.200	38.624	0.100
491.300	34.811	0.100
491.400	24.622	0.100
491.500	31.315	0.100
491.600	30.635	0.100
491.700	30.313	0.100
491.800	44.088	0.100
491.900	20.661	0.100
492.000	35.086	0.100
492.100	31.837	0.100
492.200	40.248	0.100
492.300	36.857	0.100
492.400	43.944	0.100
492.500	52.687	0.100
492.600	37.247	0.100
492.700	42.676	0.100
492.800	27.537	0.100
492.900	29.708	0.100
493.000	48.281	0.100
493.100	39.656	0.100
493.200	38.104	0.100
493.300	36.732	0.100
493.400	39.130	0.100
493.500	33.444	0.100
493.600	45.069	0.100
493.700	42.716	0.100
493.800	45.937	0.100
493.900	36.504	0.100
494.000	34.086	0.100
494.100	47.586	0.100
494.200	45.022	0.100
494.300	32.712	0.100
494.400	42.035	0.100
494.500	43.954	0.100
494.600	39.019	0.100
494.700	41.112	0.100
494.800	31.780	0.100
494.900	39.237	0.100
495.000	35.164	0.100
495.100	38.743	0.100
495.200	32.044	0.100
495.300	36.193	0.100
495.400	54.122	0.100
495.500	52.399	0.100
495.600	37.304	0.100
495.700	45.415	0.100
495.800	51.539	0.100
495.900	37.861	0.100
496.000	37.053	0.100
496.100	41.666	0.100
496.200	41.454	0.100
496.300	57.734	0.100
496.400	44.976	0.100
496.500	48.706	0.100
496.600	43.548	0.100
496.700	52.802	0.100
496.800	50.694	0.100
496.900	50.419	0.100
497.000	46.335	0.100
497.100	59.224	0.100
497.200	46.565	0.100
497.300	52.860	0.100
497.400	40.799	0.100
497.500	49.009	0.100
497.600	58.050	0.100
497.700	51.196	0.100
497.800	44.472	0.100
497.900	45.539	0.100
498.000	59.400	0.100
498.100	48.578	0.100
498.200	49.893	0.100
498.300	60.963	0.100
498.400	39.426	0.100
498.500	38.995	0.100
498.600	35.482	0.100
498.700	49.758	0.100
498.800	61.253	0.100
498.900	63.206	0.100
499.000	49.283	0.100
499.100	47.520	0.100
499.200	54.929	0.100
499.300	55.824	0.100
499.400	49.686	0.100
499.500	42.511	0.100
499.600	45.685	0.100
499.700	56.150	0.100
499.800	64.589	0.100
499.900	64.365	0.100
500.000	58.304	0.100
500.100	48.536	0.100
500.200	49.937	0.100
500.300	34.020	0.100
500.400	55.748	0.100
500.500	60.919	0.100
500.600	57.553	0.100
500.700	51.346	0.100
500.800	71.941	0.100
500.900	66.403	0.100
501.000	52.082	0.100
501.100	49.758	0.100
501.200	52.282	0.100
501.300	52.447	0.100
501.400	49.132	0.100
501.500	53.005	0.100
501.600	55.711	0.100
501.700	65.801	0.100
501.800	56.177	0.100
501.900	50.496	0.100
502.000	48.019	0.100
502.100	50.991	0.100
502.200	57.424	0.100
502.300	59.377	0.100
502.400	62.959	0.100
502.500	62.320	0.100
502.600	52.206	0.100
502.700	57.036	0.100
502.800	58.433	0.100
502.900	49.652	0.100
503.000	68.216	0.100
503.100	60.047	0.100
503.200	49.307	0.100
503.300	59.483	0.100
503.400	57.999	0.100
503.500	53.136	0.100
503.600	66.239	0.100
503.700	68.443	0.100
503.800	59.340	0.100
503.900	61.660	0.100
504.000	43.092	0.100
504.100	50.621	0.100
504.200	63.994	0.100
504.300	60.562	0.100
504.400	62.742	0.100
504.500	72.905	0.100
504.600	66.329	0.100
504.700	68.558	0.100
504.800	53.777	0.100
504.900	64.797	0.100
505.000	55.252	0.100
505.100	67.974	0.100
505.200	63.089	0.100
505.300	86.209	0.100
505.400	64.785	0.100
505.500	66.197	0.100
505.600	59.685	0.100
505.700	50.675	0.100
505.800	62.539	0.100
505.900	61.362	0.100
506.000	63.490	0.100
506.100	71.009	0.100
506.200	57.983	0.100
506.300	63.448	0.100
506.400	78.398	0.100
506.500	52.436	0.100
506.600	64.864	0.100
506.700	65.605	0.100
506.800	84.113	0.100
506.900	64.488	0.100
507.000	63.494	0.100
507.100	55.785	0.100
507.200	66.548	0.100
507.300	63.741	0.100
507.400	71.725	0.100
507.500	59.789	0.100
507.600	69.375	0.100
507.700	76.758	0.100
507.800	56.497	0.100
507.900	72.398	0.100
508.000	66.934	0.100
508.100	67.755	0.100
508.200	63.799	0.100
508.300	65.318	0.100
508.400	60.909	0.100
508.500	66.854	0.100
508.600	75.773	0.100
508.700	70.816	0.100
508.800	76.206	0.100
508.900	70.417	0.100
509.000	69.448	0.100
509.100	66.661	0.100
509.200	70.946	0.100
509.300	59.340	0.100
509.400	69.322	0.100
509.500	70.731	0.100
509.600	65.906	0.100
509.700	64.736	0.100
509.800	71.974	0.100
509.900	64.025	0.100
510.000	63.956	0.100
510.100	63.757	0.100
510.200	71.958	0.100
510.300	79.452	0.100
510.400	65.625	0.100
510.500	76.951	0.100
510.600	53.921	0.100
510.700	82.467	0.100
510.800	74.177	0.100
510.900	74.872	0.100
511.000	70.490	0.100
511.100	70.809	0.100
511.200	70.888	0.100
511.300	68.657	0.100
511.400	66.800	0.100
511.500	57.124	0.100
511.600	70.719	0.100
511.700	75.046	0.100
511.800	69.068	0.100
511.900	67.970	0.100
512.000	86.311	0.100
512.100	78.470	0.100
512.200	70.026	0.100
512.300	69.786	0.100
512.400	67.483	0.100
512.500	73.638	0.100
512.600	70.141	0.100
512.700	58.151	0.100
512.800	56.892	0.100
512.900	72.900	0.100
513.000	82.291	0.100
513.100	68.042	0.100
513.200	75.641	0.100
513.300	69.613	0.100
513.400	79.330	0.100
513.500	55.482	0.100
513.600	75.630	0.100
513.700	76.233	0.100
513.800	69.752	0.100
513.900	68.607	0.100
514.000	74.235	0.100
514.100	86.392	0.100
514.200	63.560	0.100
514.300	72.478	0.100
514.400	76.916	0.100
514.500	75.161	0.100
514.600	68.840	0.100
514.700	83.355	0.100
514.800	66.479	0.100
514.900	74.644	0.100
515.000	71.400	0.100
515.100	64.503	0.100
515.200	78.776	0.100
515.300	71.578	0.100
515.400	69.190	0.100
515.500	73.290	0.100
515.600	62.858	0.100
515.700	75.466	0.100
515.800	67.787	0.100
515.900	66.481	0.100
516.000	80.908	0.100
516.100	75.691	0.100
516.200	66.479	0.100
516.300	63.548	0.100
516.400	72.182	0.100
516.500	66.301	0.100
516.600	72.694	0.100
516.700	84.468	0.100
516.800	71.438	0.100
516.900	70.233	0.100
517.000	72.690	0.100
517.100	76.694	0.100
517.200	69.634	0.100
517.300	61.607	0.100
517.400	77.395	0.100
517.500	75.139	0.100
517.600	75.223	0.100
517.700	85.893	0.100
517.800	81.096	0.100
517.900	67.680	0.100
518.000	65.552	0.100
518.100	78.373	0.100
518.200	69.816	0.100
518.300	72.044	0.100
518.400	78.839	0.100
518.500	69.872	0.100
518.600	78.724	0.100
518.700	61.877	0.100
518.800	65.598	0.100
518.900	70.569	0.100
519.000	70.518	0.100
519.100	71.351	0.100
519.200	78.738	0.100
519.300	82.140	0.100
519.400	62.446	0.100
519.500	61.738	0.100
519.600	73.315	0.100
519.700	73.582	0.100
519.800	68.891	0.100
519.900	73.973	0.100
520.000	70.669	0.100
520.100	71.376	0.100
520.200	68.826	0.100
520.300	66.977	0.100
520.400	73.300	0.100
520.500	77.224	0.100
520.600	81.027	0.100
520.700	83.568	0.100
520.800	72.316	0.100
520.900	70.016	0.100
521.000	61.633	0.100
521.100	66.492	0.100
521.200	54.111	0.100
521.300	65.848	0.100
521.400	65.573	0.100
521.500	77.698	0.100
521.600	83.180	0.100
521.700	77.763	0.100
521.800	66.737	0.100
521.900	72.534	0.100
522.000	67.040	0.100
522.100	51.669	0.100
522.200	71.178	0.100
522.300	82.663	0.100
522.400	79.668	0.100
522.500	77.631	0.100
522.600	68.427	0.100
522.700	67.387	0.100
522.800	80.273	0.100
522.900	66.566	0.100
523.000	75.712	0.100
523.100	71.467	0.100
523.200	82.533	0.100
523.300	72.310	0.100
523.400	66.326	0.100
523.500	67.895	0.100
523.600	64.863	0.100
523.700	75.058	0.100
523.800	69.281	0.100
523.900	67.748	0.100
524.000	76.252	0.100
524.100	75.505	0.100
524.200	85.253	0.100
524.300	66.925	0.100
524.400	62.261	0.100
524.500	79.168	0.100
524.600	73.165	0.100
524.700	79.954	0.100
524.800	61.715	0.100
524.900	77.357	0.100
525.000	71.035	0.100
525.100	79.260	0.100
525.200	73.598	0.100
525.300	70.507	0.100
525.400	61.811	0.100
525.500	69.074	0.100
525.600	73.015	0.100
525.700	65.934	0.100
525.800	71.738	0.100
525.900	70.413	0.100
526.000	71.558	0.100
526.100	65.781	0.100
526.200	74.994	0.100
526.300	81.038	0.100
526.400	58.556	0.100
526.500	74.986	0.100
526.600	74.277	0.100
526.700	65.743	0.100
526.800	81.112	0.100
526.900	79.742	0.100
527.000	63.391	0.100
527.100	72.655	0.100
527.200	80.523	0.100
527.300	73.188	0.100
527.400	69.290	0.100
527.500	74.845	0.100
527.600	78.236	0.100
527.700	79.805	0.100
527.800	71.920	0.100
527.900	61.742	0.100
528.000	64.641	0.100
528.100	72.194	0.100
528.200	80.236	0.100
528.300	78.397	0.100
528.400	72.649	0.100
528.500	65.581	0.100
528.600	65.814	0.100
528.700	77.627	0.100
528.800	74.241	0.100
528.900	69.878	0.100
529.000	59.225	0.100
529.100	85.015	0.100
529.200	72.796	0.100
529.300	69.936	0.100
529.400	74.815	0.100
529.500	70.151	0.100
529.600	65.708	0.100
529.700	70.454	0.100
529.800	80.614	0.100
529.900	69.531	0.100
530.000	78.594	0.100
530.100	67.791	0.100
530.200	74.721	0.100
530.300	78.658	0.100
530.400	61.881	0.100
530.500	75.156	0.100
530.600	72.865	0.100
530.700	60.977	0.100
530.800	64.326	0.100
530.900	78.134	0.100
531.000	76.617	0.100
531.100	71.117	0.100
531.200	78.705	0.100
531.300	60.795	0.100
531.400	76.762	0.100
531.500	77.399	0.100
531.600	71.310	0.100
531.700	67.218	0.100
531.800	75.699	0.100
531.900	72.783	0.100
532.000	76.080	0.100
532.100	71.734	0.100
532.200	62.937	0.100
532.300	69.142	0.100
532.400	80.794	0.100
532.500	73.001	0.100
532.600	82.524	0.100
532.700	52.058	0.100
532.800	80.614	0.100
532.900	76.170	0.100
533.000	71.682	0.100
533.100	77.210	0.100
533.200	61.468	0.100
533.300	58.048	0.100
533.400	80.601	0.100
533.500	58.960	0.100
533.600	86.635	0.100
533.700	83.161	0.100
533.800	74.025	0.100
533.900	69.448	0.100
534.000	79.256	0.100
534.100	59.080	0.100
534.200	64.352	0.100
534.300	68.353	0.100
534.400	65.357	0.100
534.500	82.324	0.100
534.600	77.752	0.100
534.700	72.455	0.100
534.800	72.298	0.100
534.900	57.537	0.100
535.000	58.689	0.100
535.100	68.737	0.100
535.200	72.299	0.100
535.300	68.884	0.100
535.400	77.145	0.100
535.500	74.954	0.100
535.600	70.858	0.100
535.700	69.976	0.100
535.800	74.753	0.100
535.900	61.922	0.100
536.000	74.218	0.100
536.100	63.824	0.100
536.200	74.463	0.100
536.300	65.712	0.100
536.400	79.831	0.100
536.500	71.682	0.100
536.600	61.765	0.100
536.700	73.372	0.100
536.800	78.041	0.100
536.900	67.261	0.100
537.000	72.529	0.100
537.100	71.847	0.100
537.200	72.865	0.100
537.300	62.484	0.100
537.400	69.628	0.100
537.500	78.021	0.100
537.600	53.534	0.100
537.700	77.120	0.100
537.800	70.657	0.100
537.900	68.344	0.100
538.000	75.967	0.100
538.100	64.867	0.100
538.200	69.716	0.100
538.300	67.698	0.100
538.400	65.912	0.100
538.500	68.375	0.100
538.600	69.069	0.100
538.700	69.401	0.100
538.800	73.790	0.100
538.900	74.427	0.100
539.000	74.627	0.100
539.100	73.262	0.100
539.200	66.287	0.100
539.300	59.608	0.100
539.400	72.410	0.100
539.500	68.216	0.100
539.600	66.006	0.100
539.700	77.088	0.100
539.800	60.270	0.100
539.900	61.147	0.100
540.000	65.589	0.100
540.100	60.669	0.100
540.200	62.476	0.100
540.300	82.755	0.100
540.400	55.540	0.100
540.500	60.748	0.100
540.600	76.730	0.100
540.700	70.406	0.100
540.800	78.627	0.100
540.900	74.552	0.100
541.000	47.514	0.100
541.100	68.377	0.100
541.200	59.621	0.100
541.300	60.518	0.100
541.400	54.211	0.100
541.500	48.892	0.100
541.600	61.617	0.100
541.700	59.893	0.100
541.800	43.852	0.100
541.900	51.454	0.100
542.000	48.746	0.100
542.100	57.439	0.100
542.200	46.649	0.100
542.300	54.723	0.100
542.400	43.407	0.100
542.500	53.672	0.100
542.600	55.288	0.100
542.700	56.854	0.100
542.800	42.499	0.100
542.900	43.629	0.100
543.000	35.906	0.100
543.100	46.239	0.100
543.200	41.489	0.100
543.300	42.944	0.100
543.400	29.640	0.100
543.500	39.753	0.100
543.600	39.991	0.100
543.700	46.133	0.100
543.800	43.458	0.100
543.900	26.625	0.100
544.000	33.079	0.100
544.100	47.617	0.100
544.200	34.095	0.100
544.300	25.160	0.100
544.400	26.376	0.100
544.500	36.459	0.100
544.600	32.214	0.100
544.700	25.605	0.100
544.800	40.387	0.100
544.900	25.666	0.100
545.000	42.259	0.100
545.100	24.888	0.100
545.200	22.427	0.100
545.300	25.484	0.100
545.400	24.842	0.100
545.500	21.438	0.100
545.600	28.438	0.100
545.700	15.167	0.100
545.800	32.048	0.100
545.900	27.494	0.100
546.000	20.880	0.100
546.100	26.600	0.100
546.200	43.019	0.100
546.300	19.342	0.100
546.400	28.553	0.100
546.500	9.558	0.100
546.600	13.521	0.100
546.700	27.390	0.100
546.800	18.247	0.100
546.900	11.211	0.100
547.000	23.387	0.100
547.100	19.932	0.100
547.200	27.524	0.100
547.300	6.392	0.100
547.400	12.083	0.100
547.500	-11.128	0.100
547.600	10.622	0.100
547.700	21.568	0.100
547.800	8.737	0.100
547.900	8.680	0.100
548.000	8.639	0.100
548.100	26.461	0.100
548.200	13.647	0.100
548.300	15.093	0.100
548.400	17.968	0.100
548.500	17.981	0.100
548.600	21.789	0.100
548.700	22.494	0.100
548.800	6.676	0.100
548.900	16.560	0.100
549.000	24.489	0.100
549.100	6.118	0.100
549.200	21.129	0.100
549.300	18.798	0.100
549.400	3.983	0.100
549.500	2.279	0.100
549.600	8.894	0.100
549.700	26.609	0.100
549.800	13.835	0.100
549.900	12.790	0.100
550.000	13.787	0.100
550.100	14.745	0.100
550.200	4.169	0.100
550.300	5.772	0.100
550.400	15.150	0.100
550.500	20.392	0.100
550.600	16.234	0.100
550.700	5.707	0.100
550.800	-1.014	0.100
550.900	14.634	0.100
551.000	1.211	0.100
551.100	7.079	0.100
551.200	14.036	0.100
551.300	-4.567	0.100
551.400	4.794	0.100
551.500	10.212	0.100
551.600	13.038	0.100
551.700	8.344	0.100
551.800	0.484	0.100
551.900	3.197	0.100
552.000	9.770	0.100
552.100	2.214	0.100
552.200	16.540	0.100
552.300	13.875	0.100
552.400	-2.528	0.100
552.500	5.106	0.100
552.600	6.411	0.100
552.700	9.307	0.100
552.800	13.578	0.100
552.900	-0.324	0.100
553.000	5.234	0.100
553.100	9.952	0.100
553.200	-1.252	0.100
553.300	4.143	0.100
553.400	13.336	0.100
553.500	15.484	0.100
553.600	11.159	0.100
553.700	4.315	0.100
553.800	-7.371	0.100
553.900	-2.758	0.100
554.000	14.646	0.100
554.100	18.977	0.100
554.200	2.378	0.100
554.300	1.607	0.100
554.400	13.116	0.100
554.500	-3.110	0.100
554.600	9.298	0.100
554.700	8.591	0.100
554.800	-2.013	0.100
554.900	21.053	0.100
555.000	1.145	0.100
555.100	2.517	0.100
555.200	0.912	0.100
555.300	1.350	0.100
555.400	-3.886	0.100
555.500	9.417	0.100
555.600	11.193	0.100
555.700	11.936	0.100
555.800	9.112	0.100
555.900	-5.128	0.100
556.000	4.676	0.100
556.100	3.903	0.100
556.200	13.049	0.100
556.300	11.778	0.100
556.400	3.345	0.100
556.500	-2.263	0.100
556.600	9.378	0.100
556.700	-0.782	0.100
556.800	5.980	0.100
556.900	3.320	0.100
557.000	-5.513	0.100
557.100	-1.336	0.100
557.200	-4.504	0.100
557.300	-3.441	0.100
557.400	-1.463	0.100
557.500	-4.965	0.100
557.600	6.218	0.100
557.700	-5.824	0.100
557.800	0.009	0.100
557.900	-0.462	0.100
558.000	-6.324	0.100
558.100	-4.217	0.100
558.200	-7.249	0.100
558.300	3.985	0.100
558.400	1.067	0.100
558.500	4.172	0.100
558.600	2.368	0.100
558.700	2.752	0.100
558.800	-7.527	0.100
558.900	-1.607	0.100
559.000	-0.013	0.100
559.100	-2.562	0.100
559.200	-2.070	0.100
559.300	-15.147	0.100
559.400	5.721	0.100
559.500	3.354	0.100
559.600	-3.628	0.100
559.700	4.529	0.100
559.800	-0.992	0.100
559.900	4.289	0.100
560.000	-7.591	0.100
560.100	-7.773	0.100
560.200	-1.092	0.100
560.300	1.752	0.100
560.400	2.114	0.100
560.500	-1.504	0.100
560.600	-21.689	0.100
560.700	-10.770	0.100
560.800	-16.745	0.100
560.900	-8.770	0.100
561.000	3.090	0.100
561.100	-12.011	0.100
561.200	-5.993	0.100
561.300	-3.003	0.100
561.400	1.832	0.100
561.500	12.726	0.100
561.600	-8.516	0.100
561.700	-19.214	0.100
561.800	-11.882	0.100
561.900	3.423	0.100
562.000	-1.154	0.100
562.100	-0.771	0.100
562.200	-0.328	0.100
562.300	-1.699	0.100
562.400	2.373	0.100
562.500	-0.013	0.100
562.600	-16.078	0.100
562.700	-7.673	0.100
562.800	-9.238	0.100
562.900	-2.751	0.100
563.000	-1.633	0.100
563.100	-10.103	0.100
563.200	-2.035	0.100
563.300	13.203	0.100
563.400	-2.983	0.100
563.500	1.450	0.100
563.600	-7.128	0.100
563.700	-2.327	0.100
563.800	-7.196	0.100
563.900	-10.072	0.100
564.000	-6.266	0.100
564.100	-1.264	0.100
564.200	-4.725	0.100
564.300	-7.839	0.100
564.400	-4.862	0.100
564.500	-23.123	0.100
564.600	-1.461	0.100
564.700	5.585	0.100
564.800	-8.723	0.100
564.900	-10.068	0.100
565.000	-15.266	0.100
565.100	-6.318	0.100
565.200	-5.911	0.100
565.300	-12.755	0.100
565.400	-9.392	0.100
565.500	-13.421	0.100
565.600	-9.450	0.100
565.700	-6.799	0.100
565.800	-14.042	0.100
565.900	-9.499	0.100
566.000	-10.694	0.100
566.100	-18.048	0.100
566.200	-7.829	0.100
566.300	-12.818	0.100
566.400	-5.128	0.100
566.500	-13.664	0.100
566.600	-11.059	0.100
566.700	-5.010	0.100
566.800	-7.671	0.100
566.900	-14.746	0.100
567.000	-13.493	0.100
567.100	-13.133	0.100
567.200	-7.744	0.100
567.300	4.733	0.100
567.400	-13.665	0.100
567.500	-17.578	0.100
567.600	-10.969	0.100
567.700	-13.135	0.100
567.800	-2.795	0.100
567.900	-8.371	0.100
568.000	-11.291	0.100
568.100	-13.968	0.100
568.200	-5.150	0.100
568.300	-2.554	0.100
568.400	-14.391	0.100
568.500	-8.925	0.100
568.600	-25.273	0.100
568.700	-14.139	0.100
568.800	-18.968	0.100
568.900	-29.543	0.100
569.000	-11.196	0.100
569.100	4.848	0.100
569.200	-19.750	0.100
569.300	-4.207	0.100
569.400	-15.864	0.100
569.500	-26.553	0.100
569.600	-14.592	0.100
569.700	-10.981	0.100
569.800	-17.352	0.100
569.900	-14.755	0.100
570.000	-21.228	0.100
570.100	-0.879	0.100
570.200	-11.077	0.100
570.300	-0.883	0.100
570.400	-8.166	0.100
570.500	-7.578	0.100
570.600	-3.732	0.100
570.700	-8.837	0.100
570.800	-12.530	0.100
570.900	-13.148	0.100
571.000	-14.094	0.100
571.100	-11.600	0.100
571.200	-12.584	0.100
571.300	-12.481	0.100
571.400	-9.677	0.100
571.500	-22.832	0.100
571.600	-9.495	0.100
571.700	-25.862	0.100
571.800	-28.814	0.100
571.900	-4.168	0.100
572.000	-16.230	0.100
572.100	-22.338	0.100
572.200	-12.181	0.100
572.300	-10.238	0.100
572.400	-17.293	0.100
572.500	-16.873	0.100
572.600	-16.238	0.100
572.700	-20.468	0.100
572.800	-5.111	0.100
572.900	-16.208	0.100
573.000	-24.004	0.100
573.100	-15.977	0.100
573.200	-5.266	0.100
573.300	-12.866	0.100
573.400	-30.614	0.100
573.500	-18.514	0.100
573.600	-14.251	0.100
573.700	-14.261	0.100
573.800	-21.255	0.100
573.900	-41.703	0.100
574.000	-28.660	0.100
574.100	-19.437	0.100
574.200	-15.752	0.100
574.300	-14.313	0.100
574.400	-16.575	0.100
574.500	-9.215	0.100
574.600	-10.719	0.100
574.700	-22.587	0.100
574.800	-6.878	0.100
574.900	-10.485	0.100
575.000	-22.912	0.100
575.100	-30.247	0.100
575.200	-27.060	0.100
575.300	-17.764	0.100
575.400	-23.786	0.100
575.500	-22.011	0.100
575.600	-22.153	0.100
575.700	-20.842	0.100
575.800	-20.913	0.100
575.900	-11.975	0.100
576.000	-17.109	0.100
576.100	-18.426	0.100
576.200	-18.084	0.100
576.300	-22.342	0.100
576.400	-20.278	0.100
576.500	-13.675	0.100
576.600	-14.917	0.100
576.700	-15.020	0.100
576.800	-14.081	0.100
576.900	-32.311	0.100
577.000	-26.075	0.100
577.100	-20.687	0.100
577.200	-7.579	0.100
577.300	-10.989	0.100
577.400	-27.750	0.100
577.500	-21.683	0.100
577.600	-25.392	0.100
577.700	-14.045	0.100
577.800	-13.742	0.100
577.900	-25.244	0.100
578.000	-16.347	0.100
578.100	-8.598	0.100
578.200	-25.475	0.100
578.300	-21.943	0.100
578.400	-17.515	0.100
578.500	-24.619	0.100
578.600	-27.004	0.100
578.700	-14.774	0.100
578.800	-23.646	0.100
578.900	-27.440	0.100
579.000	-21.062	0.100
579.100	-21.611	0.100
579.200	-22.503	0.100
579.300	-19.694	0.100
579.400	-10.033	0.100
579.500	-19.362	0.100
579.600	-16.296	0.100
579.700	-15.632	0.100
579.800	-36.820	0.100
579.900	-17.717	0.100
580.000	-26.229	0.100
580.100	-14.880	0.100
580.200	-25.214	0.100
580.300	-27.391	0.100
580.400	-18.298	0.100
580.500	-18.979	0.100
580.600	-26.498	0.100
580.700	-21.739	0.100
580.800	-32.040	0.100
580.900	-23.393	0.100
581.000	-19.738	0.100
581.100	-18.569	0.100
581.200	-25.243	0.100
581.300	-19.478	0.100
581.400	-30.914	0.100
581.500	-24.491	0.100
581.600	-19.958	0.100
581.700	-17.357	0.100
581.800	-15.788	0.100
581.900	-17.342	0.100
582.000	-28.675	0.100
582.100	-32.882	0.100
582.200	-24.495	0.100
582.300	-18.069	0.100
582.400	-30.239	0.100
582.500	-35.745	0.100
582.600	-16.277	0.100
582.700	-24.705	0.100
582.800	-23.127	0.100
582.900	-23.447	0.100
583.000	-21.255	0.100
583.100	-20.095	0.100
583.200	-34.562	0.100
583.300	-16.211	0.100
583.400	-22.149	0.100
583.500	-15.581	0.100
583.600	-28.997	0.100
583.700	-24.485	0.100
583.800	-35.765	0.100
583.900	-19.046	0.100
584.000	-18.885	0.100
584.100	-25.183	0.100
584.200	-24.553	0.100
584.300	-26.176	0.100
584.400	-28.626	0.100
584.500	-20.330	0.100
584.600	-23.433	0.100
584.700	-30.804	0.100
584.800	-16.580	0.100
584.900	-36.220	0.100
585.000	-29.131	0.100
585.100	-29.436	0.100
585.200	-33.090	0.100
585.300	-22.548	0.100
585.400	-17.056	0.100
585.500	-15.076	0.100
585.600	-22.397	0.100
585.700	-25.019	0.100
585.800	-27.886	0.100
585.900	-23.081	0.100
586.000	-18.229	0.100
586.100	-32.436	0.100
586.200	-38.413	0.100
586.300	-29.262	0.100
586.400	-15.625	0.100
586.500	-24.004	0.100
586.600	-37.719	0.100
586.700	-34.795	0.100
586.800	-29.619	0.100
586.900	-23.202	0.100
587.000	-34.257	0.100
587.100	-13.832	0.100
587.200	-29.077	0.100
587.300	-8.579	0.100
587.400	-23.575	0.100
587.500	-21.523	0.100
587.600	-24.258	0.100
587.700	-26.666	0.100
587.800	-33.727	0.100
587.900	-31.795	0.100
588.000	-39.576	0.100
588.100	-20.706	0.100
588.200	-34.659	0.100
588.300	-42.044	0.100
588.400	-27.534	0.100
588.500	-31.469	0.100
588.600	-21.560	0.100
588.700	-19.948	0.100
588.800	-22.737	0.100
588.900	-32.281	0.100
589.000	-24.896	0.100
589.100	-28.350	0.100
589.200	-20.250	0.100
589.300	-28.344	0.100
589.400	-15.099	0.100
589.500	-29.973	0.100
589.600	-32.834	0.100
589.700	-23.847	0.100
589.800	-22.982	0.100
589.900	-20.923	0.100
590.000	-25.420	0.100
590.100	-29.902	0.100
590.200	-27.024	0.100
590.300	-34.149	0.100
590.400	-35.074	0.100
590.500	-18.325	0.100
590.600	-25.266	0.100
590.700	-34.668	0.100
590.800	-30.382	0.100
590.900	-28.868	0.100
591.000	-23.174	0.100
591.100	-32.078	0.100
591.200	-29.570	0.100
591.300	-10.731	0.100
591.400	-27.823	0.100
591.500	-41.570	0.100
591.600	-41.270	0.100
591.700	-23.236	0.100
591.800	-34.713	0.100
591.900	-17.848	0.100
592.000	-19.975	0.100
592.100	-23.641	0.100
592.200	-15.800	0.100
592.300	-26.556	0.100
592.400	-20.389	0.100
592.500	-33.636	0.100
592.600	-27.613	0.100
592.700	-24.841	0.100
592.800	-34.905	0.100
592.900	-25.003	0.100
593.000	-23.487	0.100
593.100	-22.388	0.100
593.200	-26.754	0.100
593.300	-32.305	0.100
593.400	-18.906	0.100
593.500	-39.292	0.100
593.600	-33.437	0.100
593.700	-24.701	0.100
593.800	-33.061	0.100
593.900	-19.058	0.100
594.000	-29.819	0.100
594.100	-33.393	0.100
594.200	-31.900	0.100
594.300	-28.501	0.100
594.400	-22.567	0.100
594.500	-40.471	0.100
594.600	-30.090	0.100
594.700	-30.927	0.100
594.800	-22.250	0.100
594.900	-26.655	0.100
595.000	-27.281	0.100
595.100	-19.270	0.100
595.200	-31.814	0.100
595.300	-22.573	0.100
595.400	-16.320	0.100
595.500	-35.436	0.100
595.600	-43.521	0.100
595.700	-24.926	0.100
595.800	-24.757	0.100
595.900	-31.752	0.100
596.000	-29.107	0.100
596.100	-24.929	0.100
596.200	-32.578	0.100
596.300	-27.097	0.100
596.400	-29.922	0.100
596.500	-16.890	0.100
596.600	-41.848	0.100
596.700	-39.904	0.100
596.800	-29.372	0.100
596.900	-27.913	0.100
597.000	-18.520	0.100
597.100	-25.585	0.100
597.200	-28.879	0.100
597.300	-36.197	0.100
597.400	-31.183	0.100
597.500	-27.641	0.100
597.600	-23.648	0.100
597.700	-24.523	0.100
597.800	-35.475	0.100
597.900	-30.376	0.100
598.000	-31.042	0.100
598.100	-35.340	0.100
598.200	-40.450	0.100
598.300	-27.521	0.100
598.400	-22.513	0.100
598.500	-8.734	0.100
598.600	-23.918	0.100
598.700	-28.946	0.100
598.800	-40.239	0.100
598.900	-33.304	0.100
599.000	-18.240	0.100
599.100	-27.866	0.100
599.200	-21.943	0.100
599.300	-25.401	0.100
599.400	-37.644	0.100
599.500	-43.354	0.100
599.600	-31.071	0.100
599.700	-30.988	0.100
599.800	-29.943	0.100
599.900	-20.478	0.100
600.000	-26.462	0.100
600.100	-26.263	0.100
600.200	-34.840	0.100
600.300	-21.357	0.100
600.400	-40.819	0.100
600.500	-34.765	0.100
600.600	-35.129	0.100
600.700	-31.499	0.100
600.800	-18.884	0.100
600.900	-21.985	0.100
601.000	-28.608	0.100
601.100	-44.114	0.100
601.200	-27.526	0.100
601.300	-16.167	0.100
601.400	-29.258	0.100
601.500	-31.870	0.100
601.600	-30.905	0.100
601.700	-19.812	0.100
601.800	-27.562	0.100
601.900	-32.183	0.100
602.000	-20.546	0.100
602.100	-23.344	0.100
602.200	-29.092	0.100
602.300	-25.741	0.100
602.400	-24.517	0.100
602.500	-24.516	0.100
602.600	-41.952	0.100
602.700	-49.161	0.100
602.800	-37.866	0.100
602.900	-32.225	0.100
603.000	-20.263	0.100
603.100	-25.138	0.100
603.200	-32.482	0.100
603.300	-31.597	0.100
603.400	-34.652	0.100
603.500	-30.319	0.100
603.600	-21.400	0.100
603.700	-23.504	0.100
603.800	-29.737	0.100
603.900	-41.485	0.100
604.000	-34.525	0.100
604.100	-35.001	0.100
604.200	-36.407	0.100
604.300	-33.904	0.100
604.400	-35.107	0.100
604.500	-38.135	0.100
604.600	-29.801	0.100
604.700	-33.455	0.100
604.800	-19.757	0.100
604.900	-28.480	0.100
605.000	-26.785	0.100
605.100	-42.100	0.100
605.200	-43.050	0.100
605.300	-23.157	0.100
605.400	-24.978	0.100
605.500	-36.170	0.100
605.600	-33.061	0.100
605.700	-29.744	0.100
605.800	-31.094	0.100
605.900	-32.109	0.100
606.000	-21.601	0.100
606.100	-24.541	0.100
606.200	-18.676	0.100
606.300	-32.697	0.100
606.400	-39.079	0.100
606.500	-39.930	0.100
606.600	-28.878	0.100
606.700	-24.203	0.100
606.800	-33.283	0.100
606.900	-28.518	0.100
607.000	-28.380	0.100
607.100	-35.151	0.100
607.200	-27.229	0.100
607.300	-29.111	0.100
607.400	-26.276	0.100
607.500	-23.986	0.100
607.600	-34.192	0.100
607.700	-28.277	0.100
607.800	-34.080	0.100
607.900	-32.398	0.100
608.000	-34.411	0.100
608.100	-28.662	0.100
608.200	-34.296	0.100
608.300	-30.678	0.100
608.400	-19.552	0.100
608.500	-26.620	0.100
608.600	-20.207	0.100
608.700	-21.368	0.100
608.800	-23.667	0.100
608.900	-47.200	0.100
609.000	-46.736	0.100
609.100	-30.758	0.100
609.200	-30.114	0.100
609.300	-21.103	0.100
609.400	-31.781	0.100
609.500	-30.365	0.100
609.600	-41.301	0.100
609.700	-30.144	0.100
609.800	-35.019	0.100
609.900	-31.061	0.100
610.000	-31.984	0.100
610.100	-35.903	0.100
610.200	-18.125	0.100
610.300	-29.655	0.100
610.400	-30.376	0.100
610.500	-15.804	0.100
610.600	-10.881	0.100
610.700	-27.965	0.100
610.800	-27.193	0.100
610.900	-33.381	0.100
611.000	-30.022	0.100
611.100	-41.026	0.100
611.200	-44.412	0.100
611.300	-43.602	0.100
611.400	-27.068	0.100
611.500	-32.932	0.100
611.600	-32.172	0.100
611.700	-28.973	0.100
611.800	-35.968	0.100
611.900	-33.263	0.100
612.000	-26.914	0.100
612.100	-25.437	0.100
612.200	-35.704	0.100
612.300	-34.466	0.100
612.400	-39.437	0.100
612.500	-35.844	0.100
612.600	-15.987	0.100
612.700	-22.500	0.100
612.800	-31.876	0.100
612.900	-30.174	0.100
613.000	-25.311	0.100
613.100	-33.865	0.100
613.200	-37.567	0.100
613.300	-35.344	0.100
613.400	-19.312	0.100
613.500	-24.931	0.100
613.600	-26.804	0.100
613.700	-34.938	0.100
613.800	-28.783	0.100
613.900	-39.474	0.100
614.000	-25.729	0.100
614.100	-29.309	0.100
614.200	-30.524	0.100
614.300	-30.813	0.100
614.400	-28.905	0.100
614.500	-37.677	0.100
614.600	-37.406	0.100
614.700	-29.589	0.100
614.800	-32.952	0.100
614.900	-17.938	0.100
615.000	-23.577	0.100
615.100	-32.013	0.100
615.200	-26.280	0.100
615.300	-37.724	0.100
615.400	-37.991	0.100
615.500	-36.346	0.100
615.600	-37.911	0.100
615.700	-31.742	0.100
615.800	-29.366	0.100
615.900	-31.180	0.100
616.000	-43.755	0.100
616.100	-12.215	0.100
616.200	-49.139	0.100
616.300	-32.844	0.100
616.400	-16.825	0.100
616.500	-21.890	0.100
616.600	-27.086	0.100
616.700	-30.018	0.100
616.800	-26.960	0.100
616.900	-29.697	0.100
617.000	-38.455	0.100
617.100	-38.117	0.100
617.200	-32.686	0.100
617.300	-29.430	0.100
617.400	-33.155	0.100
617.500	-26.882	0.100
617.600	-21.682	0.100
617.700	-29.820	0.100
617.800	-32.600	0.100
617.900	-39.874	0.100
618.000	-30.489	0.100
618.100	-36.504	0.100
618.200	-31.730	0.100
618.300	-21.934	0.100
618.400	-25.216	0.100
618.500	-30.034	0.100
618.600	-29.531	0.100
618.700	-42.827	0.100
618.800	-34.529	0.100
618.900	-28.013	0.100
619.000	-18.963	0.100
619.100	-31.450	0.100
619.200	-28.686	0.100
619.300	-27.335	0.100
619.400	-29.400	0.100
619.500	-30.002	0.100
619.600	-26.172	0.100
619.700	-26.578	0.100
619.800	-41.085	0.100
619.900	-37.848	0.100
620.000	-26.203	0.100
620.100	-26.994	0.100
620.200	-35.813	0.100
620.300	-46.179	0.100
620.400	-26.753	0.100
620.500	-30.064	0.100
620.600	-35.275	0.100
620.700	-42.530	0.100
620.800	-10.084	0.100
620.900	-20.867	0.100
621.000	-39.042	0.100
621.100	-36.504	0.100
621.200	-28.334	0.100
621.300	-28.498	0.100
621.400	-26.326	0.100
621.500	-14.416	0.100
621.600	-38.945	0.100
621.700	-30.723	0.100
621.800	-39.561	0.100
621.900	-31.766	0.100
622.000	-24.992	0.100
622.100	-38.419	0.100
622.200	-32.312	0.100
622.300	-35.983	0.100
622.400	-32.301	0.100
622.500	-21.932	0.100
622.600	-35.176	0.100
622.700	-40.844	0.100
622.800	-37.604	0.100
622.900	-25.000	0.100
623.000	-27.170	0.100
623.100	-24.751	0.100
623.200	-14.346	0.100
623.300	-31.670	0.100
623.400	-29.493	0.100
623.500	-31.600	0.100
623.600	-35.211	0.100
623.700	-34.424	0.100
623.800	-32.379	0.100
623.900	-27.369	0.100
624.000	-22.787	0.100
624.100	-39.063	0.100
624.200	-28.506	0.100
624.300	-23.994	0.100
624.400	-37.162	0.100
624.500	-43.635	0.100
624.600	-38.464	0.100
624.700	-31.198	0.100
624.800	-37.232	0.100
624.900	-30.940	0.100
625.000	-23.533	0.100
625.100	-30.925	0.100
625.200	-32.960	0.100
625.300	-31.715	0.100
625.400	-31.529	0.100
625.500	-28.585	0.100
625.600	-19.412	0.100
625.700	-16.108	0.100
625.800	-31.831	0.100
625.900	-38.703	0.100
626.000	-30.886	0.100
626.100	-41.466	0.100
626.200	-33.604	0.100
626.300	-31.451	0.100
626.400	-32.837	0.100
626.500	-28.824	0.100
626.600	-27.083	0.100
626.700	-35.352	0.100
626.800	-33.259	0.100
626.900	-51.464	0.100
627.000	-20.810	0.100
627.100	-19.184	0.100
627.200	-25.442	0.100
627.300	-37.394	0.100
627.400	-29.717	0.100
627.500	-33.369	0.100
627.600	-35.678	0.100
627.700	-22.426	0.100
627.800	-29.657	0.100
627.900	-30.634	0.100
628.000	-27.583	0.100
628.100	-26.886	0.100
628.200	-26.736	0.100
628.300	-33.694	0.100
628.400	-29.370	0.100
628.500	-26.924	0.100
628.600	-27.063	0.100
628.700	-37.714	0.100
628.800	-39.163	0.100
628.900	-34.724	0.100
629.000	-31.047	0.100
629.100	-25.328	0.100
629.200	-29.674	0.100
629.300	-31.526	0.100
629.400	-34.106	0.100
629.500	-28.247	0.100
629.600	-28.895	0.100
629.700	-20.322	0.100
629.800	-30.760	0.100
629.900	-25.022	0.100
630.000	-22.753	0.100
630.100	-36.429	0.100
630.200	-57.498	0.100
630.300	-26.244	0.100
630.400	-21.333	0.100
630.500	-29.581	0.100
630.600	-25.873	0.100
630.700	-27.810	0.100
630.800	-15.524	0.100
630.900	-22.944	0.100
631.000	-19.844	0.100
631.100	-22.848	0.100
631.200	-35.244	0.100
631.300	-22.571	0.100
631.400	-30.587	0.100
631.500	-29.610	0.100
631.600	-16.108	0.100
631.700	-10.700	0.100
631.800	-7.035	0.100
631.900	-14.002	0.100
632.000	-11.880	0.100
632.100	-3.123	0.100
632.200	-9.377	0.100
632.300	-12.684	0.100
632.400	0.250	0.100
632.500	-15.217	0.100
632.600	-16.888	0.100
632.700	-11.467	0.100
632.800	1.634	0.100
632.900	4.504	0.100
633.000	-8.922	0.100
633.100	6.791	0.100
633.200	-4.468	0.100
633.300	-20.978	0.100
633.400	-14.315	0.100
633.500	-2.278	0.100
633.600	4.270	0.100
633.700	4.256	0.100
633.800	-0.847	0.100
633.900	-14.859	0.100
634.000	-12.222	0.100
634.100	1.479	0.100
634.200	0.204	0.100
634.300	3.445	0.100
634.400	6.305	0.100
634.500	6.191	0.100
634.600	-14.528	0.100
634.700	13.488	0.100
634.800	-7.415	0.100
634.900	-12.900	0.100
635.000	3.795	0.100
635.100	-6.181	0.100
635.200	-5.852	0.100
635.300	20.640	0.100
635.400	6.425	0.100
635.500	10.213	0.100
635.600	0.221	0.100
635.700	-5.689	0.100
635.800	-4.085	0.100
635.900	2.941	0.100
636.000	17.147	0.100
636.100	-5.310	0.100
636.200	-7.104	0.100
636.300	3.576	0.100
636.400	-1.850	0.100
636.500	12.515	0.100
636.600	11.270	0.100
636.700	9.975	0.100
636.800	1.545	0.100
636.900	13.629	0.100
637.000	7.680	0.100
637.100	3.296	0.100
637.200	0.364	0.100
637.300	26.417	0.100
637.400	24.120	0.100
637.500	-0.445	0.100
637.600	7.877	0.100
637.700	9.686	0.100
637.800	5.615	0.100
637.900	13.550	0.100
638.000	-2.253	0.100
638.100	2.651	0.100
638.200	7.871	0.100
638.300	7.811	0.100
638.400	39.158	0.100
638.500	19.622	0.100
638.600	9.423	0.100
638.700	8.993	0.100
638.800	10.582	0.100
638.900	11.595	0.100
639.000	10.681	0.100
639.100	2.895	0.100
639.200	5.738	0.100
639.300	20.869	0.100
639.400	4.434	0.100
639.500	9.815	0.100
639.600	18.117	0.100
639.700	8.673	0.100
639.800	5.756	0.100
639.900	15.870	0.100
640.000	-3.906	0.100
640.100	15.622	0.100
640.200	19.393	0.100
640.300	18.438	0.100
640.400	20.140	0.100
640.500	3.108	0.100
640.600	16.249	0.100
640.700	18.991	0.100
640.800	7.172	0.100
640.900	20.427	0.100
641.000	13.088	0.100
641.100	15.467	0.100
641.200	11.745	0.100
641.300	17.130	0.100
641.400	18.928	0.100
641.500	12.676	0.100
641.600	7.449	0.100
641.700	30.508	0.100
641.800	21.240	0.100
641.900	15.150	0.100
642.000	27.936	0.100
642.100	20.591	0.100
642.200	18.805	0.100
642.300	18.552	0.100
642.400	15.231	0.100
642.500	7.200	0.100
642.600	7.025	0.100
642.700	15.038	0.100
642.800	21.870	0.100
642.900	25.899	0.100
643.000	29.307	0.100
643.100	42.972	0.100
643.200	24.559	0.100
643.300	20.220	0.100
643.400	30.862	0.100
643.500	18.599	0.100
643.600	21.857	0.100
643.700	19.714	0.100
643.800	9.665	0.100
643.900	23.754	0.100
644.000	36.281	0.100
644.100	28.927	0.100
644.200	27.772	0.100
644.300	16.931	0.100
644.400	25.955	0.100
644.500	21.582	0.100
644.600	20.678	0.100
644.700	26.964	0.100
644.800	24.087	0.100
644.900	27.279	0.100
645.000	29.680	0.100
645.100	17.296	0.100
645.200	17.546	0.100
645.300	31.005	0.100
645.400	24.795	0.100
645.500	11.778	0.100
645.600	26.944	0.100
645.700	25.928	0.100
645.800	30.712	0.100
645.900	30.460	0.100
646.000	31.392	0.100
646.100	20.398	0.100
646.200	29.055	0.100
646.300	31.816	0.100
646.400	22.377	0.100
646.500	24.350	0.100
646.600	15.393	0.100
646.700	26.000	0.100
646.800	21.623	0.100
646.900	29.853	0.100
647.000	36.388	0.100
647.100	28.620	0.100
647.200	33.286	0.100
647.300	33.281	0.100
647.400	23.931	0.100
647.500	32.663	0.100
647.600	33.670	0.100
647.700	29.000	0.100
647.800	30.483	0.100
647.900	41.875	0.100
648.000	31.770	0.100
648.100	12.512	0.100
648.200	30.260	0.100
648.300	34.601	0.100
648.400	30.014	0.100
648.500	49.344	0.100
648.600	45.353	0.100
648.700	33.197	0.100
648.800	24.849	0.100
648.900	30.284	0.100
649.000	29.733	0.100
649.100	53.415	0.100
649.200	21.026	0.100
649.300	38.676	0.100
649.400	44.447	0.100
649.500	26.924	0.100
649.600	34.354	0.100
649.700	30.690	0.100
649.800	29.435	0.100
649.900	31.202	0.100
650.000	42.089	0.100
650.100	38.022	0.100
650.200	28.767	0.100
650.300	36.504	0.100
650.400	40.732	0.100
650.500	41.363	0.100
650.600	42.331	0.100
650.700	42.635	0.100
650.800	28.746	0.100
650.900	39.483	0.100
651.000	44.429	0.100
651.100	51.386	0.100
651.200	32.387	0.100
651.300	51.017	0.100
651.400	52.871	0.100
651.500	45.461	0.100
651.600	32.943	0.100
651.700	34.501	0.100
651.800	43.606	0.100
651.900	42.625	0.100
652.000	42.683	0.100
652.100	43.349	0.100
652.200	36.319	0.100
652.300	28.414	0.100
652.400	36.328	0.100
652.500	44.148	0.100
652.600	46.666	0.100
652.700	51.869	0.100
652.800	55.298	0.100
652.900	41.407	0.100
653.000	43.240	0.100
653.100	44.589	0.100
653.200	40.043	0.100
653.300	37.716	0.100
653.400	39.727	0.100
653.500	58.530	0.100
653.600	54.829	0.100
653.700	42.366	0.100
653.800	45.229	0.100
653.900	55.084	0.100
654.000	53.251	0.100
654.100	38.286	0.100
654.200	42.648	0.100
654.300	39.441	0.100
654.400	61.017	0.100
654.500	67.145	0.100
654.600	55.662	0.100
654.700	44.565	0.100
654.800	34.799	0.100
654.900	46.119	0.100
655.000	50.271	0.100
655.100	47.620	0.100
655.200	46.024	0.100
655.300	59.717	0.100
655.400	44.009	0.100
655.500	53.219	0.100
655.600	39.631	0.100
655.700	50.982	0.100
655.800	57.317	0.100
655.900	61.366	0.100
656.000	52.111	0.100
656.100	45.469	0.100
656.200	36.389	0.100
656.300	44.162	0.100
656.400	44.423	0.100
656.500	51.940	0.100
656.600	44.583	0.100
656.700	49.843	0.100
656.800	49.234	0.100
656.900	54.680	0.100
657.000	51.406	0.100
657.100	40.450	0.100
657.200	57.393	0.100
657.300	56.512	0.100
657.400	53.471	0.100
657.500	57.464	0.100
657.600	48.435	0.100
657.700	41.942	0.100
657.800	42.430	0.100
657.900	47.308	0.100
658.000	38.632	0.100
658.100	43.899	0.100
658.200	49.956	0.100
658.300	50.818	0.100
658.400	65.124	0.100
658.500	64.926	0.100
658.600	43.433	0.100
658.700	56.311	0.100
658.800	48.646	0.100
658.900	52.196	0.100
659.000	52.118	0.100
659.100	54.640	0.100
659.200	52.796	0.100
659.300	52.223	0.100
659.400	57.130	0.100
659.500	52.590	0.100
659.600	58.726	0.100
659.700	67.704	0.100
659.800	59.720	0.100
659.900	57.341	0.100
660.000	50.857	0.100
660.100	42.508	0.100
660.200	65.045	0.100
660.300	50.806	0.100
660.400	53.647	0.100
660.500	45.067	0.100
660.600	46.846	0.100
660.700	66.513	0.100
660.800	68.575	0.100
660.900	61.685	0.100
661.000	48.500	0.100
661.100	53.947	0.100
661.200	61.031	0.100
661.300	53.950	0.100
661.400	57.825	0.100
661.500	50.588	0.100
661.600	61.479	0.100
661.700	59.308	0.100
661.800	53.000	0.100
661.900	49.233	0.100
662.000	62.634	0.100
662.100	62.879	0.100
662.200	72.300	0.100
662.300	57.092	0.100
662.400	52.100	0.100
662.500	41.487	0.100
662.600	51.597	0.100
662.700	50.532	0.100
662.800	71.480	0.100
662.900	65.268	0.100
663.000	49.717	0.100
663.100	63.262	0.100
663.200	60.549	0.100
663.300	65.795	0.100
663.400	62.039	0.100
663.500	53.077	0.100
663.600	62.193	0.100
663.700	66.304	0.100
663.800	67.954	0.100
663.900	52.266	0.100
664.000	57.123	0.100
664.100	62.510	0.100
664.200	54.699	0.100
664.300	51.885	0.100
664.400	61.742	0.100
664.500	67.642	0.100
664.600	50.523	0.100
664.700	52.052	0.100
664.800	52.996	0.100
664.900	56.384	0.100
665.000	61.390	0.100
665.100	62.179	0.100
665.200	46.402	0.100
665.300	57.582	0.100
665.400	67.269	0.100
665.500	68.549	0.100
665.600	63.859	0.100
665.700	61.482	0.100
665.800	62.262	0.100
665.900	59.410	0.100
666.000	63.287	0.100
666.100	65.177	0.100
666.200	56.470	0.100
666.300	61.066	0.100
666.400	63.515	0.100
666.500	64.286	0.100
666.600	63.157	0.100
666.700	70.450	0.100
666.800	66.724	0.100
666.900	62.246	0.100
667.000	59.171	0.100
667.100	52.906	0.100
667.200	49.870	0.100
667.300	76.551	0.100
667.400	70.758	0.100
667.500	58.541	0.100
667.600	66.775	0.100
667.700	67.022	0.100
667.800	45.059	0.100
667.900	57.736	0.100
668.000	54.436	0.100
668.100	54.719	0.100
668.200	58.533	0.100
668.300	56.082	0.100
668.400	71.637	0.100
668.500	49.595	0.100
668.600	54.955	0.100
668.700	58.542	0.100
668.800	77.194	0.100
668.900	62.396	0.100
669.000	59.774	0.100
669.100	60.021	0.100
669.200	57.982	0.100
669.300	67.386	0.100
669.400	61.233	0.100
669.500	76.929	0.100
669.600	67.909	0.100
669.700	59.868	0.100
669.800	56.398	0.100
669.900	63.150	0.100
670.000	59.421	0.100
670.100	51.870	0.100
670.200	64.394	0.100
670.300	63.596	0.100
670.400	60.329	0.100
670.500	60.165	0.100
670.600	72.171	0.100
670.700	52.190	0.100
670.800	62.879	0.100
670.900	62.766	0.100
671.000	64.515	0.100
671.100	62.929	0.100
671.200	63.486	0.100
671.300	56.997	0.100
671.400	73.268	0.100
671.500	52.601	0.100
671.600	64.697	0.100
671.700	58.970	0.100
671.800	60.431	0.100
671.900	62.098	0.100
672.000	46.752	0.100
672.100	58.530	0.100
672.200	63.841	0.100
672.300	57.331	0.100
672.400	47.798	0.100
672.500	64.362	0.100
672.600	67.185	0.100
672.700	60.397	0.100
672.800	63.777	0.100
672.900	65.843	0.100
673.000	58.603	0.100
673.100	58.221	0.100
673.200	66.960	0.100
673.300	54.824	0.100
673.400	53.553	0.100
673.500	62.287	0.100
673.600	64.772	0.100
673.700	61.661	0.100
673.800	57.817	0.100
673.900	66.562	0.100
674.000	79.856	0.100
674.100	82.718	0.100
674.200	62.781	0.100
674.300	62.959	0.100
674.400	63.277	0.100
674.500	64.946	0.100
674.600	44.383	0.100
674.700	53.364	0.100
674.800	52.246	0.100
674.900	63.596	0.100
675.000	65.642	0.100
675.100	67.876	0.100
675.200	57.848	0.100
675.300	71.155	0.100
675.400	62.038	0.100
675.500	56.781	0.100
675.600	51.474	0.100
675.700	77.039	0.100
675.800	50.720	0.100
675.900	58.938	0.100
676.000	47.032	0.100
676.100	62.018	0.100
676.200	64.573	0.100
676.300	50.016	0.100
676.400	63.091	0.100
676.500	67.268	0.100
676.600	76.242	0.100
676.700	72.587	0.100
676.800	67.461	0.100
676.900	67.381	0.100
677.000	44.493	0.100
677.100	54.593	0.100
677.200	67.131	0.100
677.300	72.569	0.100
677.400	58.018	0.100
677.500	68.755	0.100
677.600	55.759	0.100
677.700	59.979	0.100
677.800	52.287	0.100
677.900	39.827	0.100
678.000	59.886	0.100
678.100	64.909	0.100
678.200	69.765	0.100
678.300	63.018	0.100
678.400	59.156	0.100
678.500	56.048	0.100
678.600	63.012	0.100
678.700	66.000	0.100
678.800	49.843	0.100
678.900	62.542	0.100
679.000	47.979	0.100
679.100	76.480	0.100
679.200	61.437	0.100
679.300	66.475	0.100
679.400	57.235	0.100
679.500	65.640	0.100
679.600	56.463	0.100
679.700	57.300	0.100
679.800	66.659	0.100
679.900	62.020	0.100
680.000	59.871	0.100
680.100	62.719	0.100
680.200	73.395	0.100
680.300	60.778	0.100
680.400	56.647	0.100
680.500	59.812	0.100
680.600	55.033	0.100
680.700	64.799	0.100
680.800	68.025	0.100
680.900	66.408	0.100
681.000	58.217	0.100
681.100	56.276	0.100
681.200	51.436	0.100
681.300	66.533	0.100
681.400	66.069	0.100
681.500	64.314	0.100
681.600	54.444	0.100
681.700	54.779	0.100
681.800	63.766	0.100
681.900	52.909	0.100
682.000	51.113	0.100
682.100	79.367	0.100
682.200	74.038	0.100
682.300	60.038	0.100
682.400	65.696	0.100
682.500	56.720	0.100
682.600	59.000	0.100
682.700	63.540	0.100
682.800	58.584	0.100
682.900	56.533	0.100
683.000	51.003	0.100
683.100	53.293	0.100
683.200	66.801	0.100
683.300	66.082	0.100
683.400	69.454	0.100
683.500	63.265	0.100
683.600	67.535	0.100
683.700	67.122	0.100
683.800	59.012	0.100
683.900	61.423	0.100
684.000	50.112	0.100
684.100	64.781	0.100
684.200	69.514	0.100
684.300	51.046	0.100
684.400	73.600	0.100
684.500	67.674	0.100
684.600	69.423	0.100
684.700	69.684	0.100
684.800	61.493	0.100
684.900	48.077	0.100
685.000	60.654	0.100
685.100	62.658	0.100
685.200	57.169	0.100
685.300	48.339	0.100
685.400	60.619	0.100
685.500	70.827	0.100
685.600	69.155	0.100
685.700	64.840	0.100
685.800	53.619	0.100
685.900	67.946	0.100
686.000	65.957	0.100
686.100	40.732	0.100
686.200	54.755	0.100
686.300	55.084	0.100
686.400	65.201	0.100
686.500	45.640	0.100
686.600	53.191	0.100
686.700	52.495	0.100
686.800	73.970	0.100
686.900	55.813	0.100
687.000	50.336	0.100
687.100	48.908	0.100
687.200	61.609	0.100
687.300	60.270	0.100
687.400	58.792	0.100
687.500	57.247	0.100
687.600	61.073	0.100
687.700	79.027	0.100
687.800	63.370	0.100
687.900	55.193	0.100
688.000	65.281	0.100
688.100	68.796	0.100
688.200	55.879	0.100
688.300	70.308	0.100
688.400	55.271	0.100
688.500	63.267	0.100
688.600	56.310	0.100
688.700	55.199	0.100
688.800	62.141	0.100
688.900	49.510	0.100
689.000	56.772	0.100
689.100	65.385	0.100
689.200	57.181	0.100
689.300	56.559	0.100
689.400	53.322	0.100
689.500	57.505	0.100
689.600	48.395	0.100
689.700	71.029	0.100
689.800	73.814	0.100
689.900	72.005	0.100
690.000	70.009	0.100
690.100	64.734	0.100
690.200	58.520	0.100
690.300	49.295	0.100
690.400	62.287	0.100
690.500	67.363	0.100
690.600	56.413	0.100
690.700	46.381	0.100
690.800	59.209	0.100
690.900	56.632	0.100
691.000	48.677	0.100
691.100	53.589	0.100
691.200	56.125	0.100
691.300	54.121	0.100
691.400	45.603	0.100
691.500	46.819	0.100
691.600	42.301	0.100
691.700	36.811	0.100
691.800	46.173	0.100
691.900	59.881	0.100
692.000	39.865	0.100
692.100	45.207	0.100
692.200	39.836	0.100
692.300	35.202	0.100
692.400	34.326	0.100
692.500	44.483	0.100
692.600	49.807	0.100
692.700	39.029	0.100
692.800	31.364	0.100
692.900	25.594	0.100
693.000	15.477	0.100
693.100	44.048	0.100
693.200	48.393	0.100
693.300	29.062	0.100
693.400	39.562	0.100
693.500	34.970	0.100
693.600	37.096	0.100
693.700	23.730	0.100
693.800	26.191	0.100
693.900	30.759	0.100
694.000	27.657	0.100
694.100	8.464	0.100
694.200	28.253	0.100
694.300	28.465	0.100
694.400	26.149	0.100
694.500	8.856	0.100
694.600	36.811	0.100
694.700	37.980	0.100
694.800	13.770	0.100
694.900	17.722	0.100
695.000	25.523	0.100
695.100	20.321	0.100
695.200	13.533	0.100
695.300	24.146	0.100
695.400	11.272	0.100
695.500	16.749	0.100
695.600	18.393	0.100
695.700	13.450	0.100
695.800	10.924	0.100
695.900	14.439	0.100
696.000	15.871	0.100
696.100	13.950	0.100
696.200	10.582	0.100
696.300	13.479	0.100
696.400	32.725	0.100
696.500	11.752	0.100
696.600	14.141	0.100
696.700	12.571	0.100
696.800	18.437	0.100
696.900	10.886	0.100
697.000	21.791	0.100
697.100	15.832	0.100
697.200	-0.622	0.100
697.300	6.107	0.100
697.400	17.640	0.100
697.500	1.761	0.100
697.600	-3.531	0.100
697.700	4.295	0.100
697.800	5.369	0.100
697.900	2.980	0.100
698.000	10.987	0.100
698.100	14.937	0.100
698.200	10.348	0.100
698.300	4.397	0.100
698.400	3.679	0.100
698.500	3.696	0.100
698.600	-0.281	0.100
698.700	19.080	0.100
698.800	13.087	0.100
698.900	9.501	0.100
699.000	-9.078	0.100
699.100	-0.720	0.100
699.200	8.363	0.100
699.300	6.384	0.100
699.400	-7.853	0.100
699.500	15.288	0.100
699.600	7.755	0.100
699.700	1.862	0.100
699.800	5.416	0.100
699.900	-8.867	0.100
700.000	4.166	0.100
700.100	6.612	0.100
700.200	10.686	0.100
700.300	8.481	0.100
700.400	1.424	0.100
700.500	-6.425	0.100
700.600	-9.624	0.100
700.700	-2.172	0.100
700.800	6.339	0.100
700.900	17.073	0.100
701.000	10.433	0.100
701.100	-1.131	0.100
701.200	1.632	0.100
701.300	0.382	0.100
701.400	11.314	0.100
701.500	-4.012	0.100
701.600	2.132	0.100
701.700	11.917	0.100
701.800	-2.075	0.100
701.900	0.319	0.100
702.000	3.607	0.100
702.100	6.143	0.100
702.200	-7.620	0.100
702.300	0.491	0.100
702.400	-0.039	0.100
702.500	8.428	0.100
702.600	-4.490	0.100
702.700	-9.035	0.100
702.800	-7.342	0.100
702.900	1.482	0.100
703.000	1.239	0.100
703.100	3.297	0.100
703.200	9.553	0.100
703.300	4.131	0.100
703.400	9.000	0.100
703.500	8.439	0.100
703.600	-4.973	0.100
703.700	-2.320	0.100
703.800	-11.582	0.100
703.900	1.947	0.100
704.000	-3.276	0.100
704.100	-4.787	0.100
704.200	-8.907	0.100
704.300	-2.771	0.100
704.400	-1.432	0.100
704.500	-14.340	0.100
704.600	-4.238	0.100
704.700	-8.921	0.100
704.800	0.340	0.100
704.900	-2.721	0.100
705.000	2.010	0.100
705.100	1.307	0.100
705.200	-5.572	0.100
705.300	-7.042	0.100
705.400	1.571	0.100
705.500	-6.802	0.100
705.600	-4.161	0.100
705.700	-3.749	0.100
705.800	-1.650	0.100
705.900	-0.200	0.100
706.000	-8.168	0.100
706.100	12.555	0.100
706.200	-7.931	0.100
706.300	-13.316	0.100
706.400	-13.342	0.100
706.500	0.289	0.100
706.600	2.387	0.100
706.700	-7.822	0.100
706.800	-19.994	0.100
706.900	-5.748	0.100
707.000	-8.942	0.100
707.100	-15.612	0.100
707.200	-2.763	0.100
707.300	1.913	0.100
707.400	-10.673	0.100
707.500	-9.551	0.100
707.600	-13.892	0.100
707.700	-6.145	0.100
707.800	-14.088	0.100
707.900	-7.349	0.100
708.000	-6.764	0.100
708.100	-11.084	0.100
708.200	-16.646	0.100
708.300	-15.726	0.100
708.400	-8.274	0.100
708.500	-2.288	0.100
708.600	-3.439	0.100
708.700	-5.343	0.100
708.800	-10.046	0.100
708.900	-2.954	0.100
709.000	-13.822	0.100
709.100	-16.068	0.100
709.200	-3.518	0.100
709.300	-7.454	0.100
709.400	-15.524	0.100
709.500	-18.155	0.100
709.600	-21.407	0.100
709.700	-13.111	0.100
709.800	-17.445	0.100
709.900	-23.692	0.100
710.000	-6.238	0.100
710.100	-10.753	0.100
710.200	-7.059	0.100
710.300	-1.579	0.100
710.400	-14.391	0.100
710.500	-9.048	0.100
710.600	-7.913	0.100
710.700	-9.611	0.100
710.800	-0.540	0.100
710.900	-13.169	0.100
711.000	-17.454	0.100
711.100	-18.981	0.100
711.200	-16.316	0.100
711.300	-10.663	0.100
711.400	-19.006	0.100
711.500	-13.085	0.100
711.600	-5.358	0.100
711.700	-10.797	0.100
711.800	-11.576	0.100
711.900	-3.233	0.100
712.000	-6.676	0.100
712.100	-11.375	0.100
712.200	-18.811	0.100
712.300	-23.585	0.100
712.400	-14.411	0.100
712.500	-4.521	0.100
712.600	-14.845	0.100
712.700	-8.533	0.100
712.800	-8.821	0.100
712.900	-22.296	0.100
713.000	-14.298	0.100
713.100	-18.630	0.100
713.200	-12.782	0.100
713.300	-12.843	0.100
713.400	-27.017	0.100
713.500	-22.065	0.100
713.600	-16.528	0.100
713.700	-6.519	0.100
713.800	-6.691	0.100
713.900	-8.658	0.100
714.000	-25.279	0.100
714.100	-27.859	0.100
714.200	-9.376	0.100
714.300	-7.453	0.100
714.400	-4.409	0.100
714.500	-5.924	0.100
714.600	-19.479	0.100
714.700	-19.611	0.100
714.800	-11.770	0.100
714.900	-15.617	0.100
715.000	-6.225	0.100
715.100	-10.652	0.100
715.200	-19.294	0.100
715.300	-23.470	0.100
715.400	-20.712	0.100
715.500	-17.545	0.100
715.600	-19.285	0.100
715.700	-15.834	0.100
715.800	-20.515	0.100
715.900	-16.754	0.100
716.000	-33.085	0.100
716.100	-12.173	0.100
716.200	-17.607	0.100
716.300	-12.593	0.100
716.400	-19.052	0.100
716.500	-14.436	0.100
716.600	-22.599	0.100
716.700	-32.324	0.100
716.800	-20.254	0.100
716.900	-38.880	0.100
717.000	-12.730	0.100
717.100	-19.113	0.100
717.200	-13.203	0.100
717.300	-18.596	0.100
717.400	-13.620	0.100
717.500	-21.903	0.100
717.600	-19.032	0.100
717.700	-9.503	0.100
717.800	-20.909	0.100
717.900	-17.254	0.100
718.000	-26.267	0.100
718.100	-20.574	0.100
718.200	-8.170	0.100
718.300	-12.331	0.100
718.400	-29.385	0.100
718.500	-28.527	0.100
718.600	-24.572	0.100
718.700	-33.050	0.100
718.800	-12.070	0.100
718.900	-20.743	0.100
719.000	-25.288	0.100
719.100	-18.765	0.100
719.200	-29.322	0.100
719.300	-6.709	0.100
719.400	-8.969	0.100
719.500	-22.567	0.100
719.600	-17.230	0.100
719.700	-14.128	0.100
719.800	-25.138	0.100
719.900	-22.686	0.100
720.000	-7.041	0.100
720.100	-22.024	0.100
720.200	-24.354	0.100
720.300	-18.375	0.100
720.400	-19.636	0.100
720.500	-28.142	0.100
720.600	-18.572	0.100
720.700	-23.828	0.100
720.800	-19.867	0.100
720.900	-28.540	0.100
721.000	-21.300	0.100
721.100	-23.556	0.100
721.200	-20.094	0.100
721.300	-24.088	0.100
721.400	-29.002	0.100
721.500	-32.546	0.100
721.600	-23.970	0.100
721.700	-27.534	0.100
721.800	-29.815	0.100
721.900	-16.206	0.100
722.000	-30.320	0.100
722.100	-42.210	0.100
722.200	-30.866	0.100
722.300	-19.887	0.100
722.400	-19.511	0.100
722.500	-23.821	0.100
722.600	-30.360	0.100
722.700	-21.026	0.100
722.800	-20.979	0.099
722.900	-29.807	0.099
723.000	-28.878	0.100
723.100	-20.519	0.100
723.200	-17.686	0.100
723.300	-32.794	0.100
723.400	-27.167	0.100
723.500	-26.937	0.100
723.600	-16.041	0.100
723.700	-19.105	0.100
723.800	-29.221	0.100
723.900	-29.930	0.100
724.000	-33.617	0.100
724.100	-22.118	0.100
724.200	-22.198	0.100
724.300	-39.450	0.100
724.400	-39.314	0.100
724.500	-23.242	0.100
724.600	-14.248	0.100
724.700	-19.793	0.100
724.800	-10.220	0.100
724.900	-32.418	0.100
725.000	-32.220	0.099
725.100	-24.097	0.100
725.200	-26.657	0.100
725.300	-29.015	0.099
725.400	-23.714	0.100
725.500	-33.905	0.099
725.600	-21.455	0.099
725.700	-16.817	0.100
725.800	-18.790	0.100
725.900	-30.693	0.099
726.000	-32.358	0.099
726.100	-26.825	0.099
726.200	-16.026	0.099
726.300	-23.848	0.099
726.400	-27.551	0.099
726.500	-31.657	0.100
726.600	-19.657	0.100
726.700	-15.531	0.100
726.800	-50.350	0.099
726.900	-28.131	0.099
727.000	-33.622	0.099
727.100	-27.526	0.099
727.200	-26.311	0.099
727.300	-31.650	0.099
727.400	-34.912	0.100
727.500	-25.648	0.099
727.600	-31.630	0.099
727.700	-24.695	0.099
727.800	-28.969	0.099
727.900	-36.355	0.099
728.000	-23.320	0.099
728.100	-30.558	0.100
728.200	-35.629	0.099
728.300	-38.038	0.099
728.400	-21.119	0.099
728.500	-28.341	0.099
728.600	-15.453	0.099
728.700	-20.709	0.099
728.800	-32.228	0.100
728.900	-44.919	0.099
729.000	-36.679	0.099
729.100	-25.154	0.099
729.200	-21.435	0.099
729.300	-30.506	0.099
729.400	-32.431	0.099
729.500	-38.597	0.099
729.600	-39.124	0.099
729.700	-36.755	0.099
729.800	-37.236	0.099
729.900	-21.164	0.099
730.000	-42.579	0.099
730.100	-28.734	0.099
730.200	-21.673	0.099
730.300	-37.243	0.099
730.400	-25.759	0.099
730.500	-32.875	0.099
730.600	-31.740	0.099
730.700	-34.909	0.099
730.800	-25.292	0.099
730.900	-20.663	0.099
731.000	-34.108	0.099
731.100	-28.903	0.099
731.200	-29.150	0.099
731.300	-54.236	0.099
731.400	-35.704	0.099
731.500	-28.919	0.099
731.600	-41.950	0.099
731.700	-28.037	0.099
731.800	-37.440	0.099
731.900	-33.280	0.099
732.000	-36.049	0.099
732.100	-29.427	0.099
732.200	-40.959	0.099
732.300	-33.331	0.099
732.400	-32.047	0.099
732.500	-29.595	0.099
732.600	-34.734	0.099
732.700	-17.004	0.099
732.800	-28.777	0.099
732.900	-22.488	0.099
733.000	-35.459	0.099
733.100	-36.448	0.099
733.200	-39.177	0.099
733.300	-37.168	0.099
733.400	-28.445	0.099
733.500	-27.820	0.099
733.600	-26.000	0.099
733.700	-35.283	0.099
733.800	-40.201	0.099
733.900	-27.856	0.099
734.000	-29.251	0.099
734.100	-36.395	0.099
734.200	-21.335	0.099
734.300	-29.586	0.099
734.400	-35.577	0.099
734.500	-34.132	0.099
734.600	-34.036	0.099
734.700	-36.411	0.099
734.800	-29.704	0.099
734.900	-24.556	0.099
735.000	-38.848	0.099
735.100	-25.217	0.099
735.200	-36.973	0.099
735.300	-41.277	0.099
735.400	-37.835	0.099
735.500	-39.177	0.099
735.600	-38.316	0.099
735.700	-34.172	0.099
735.800	-42.309	0.099
735.900	-8.641	0.099
736.000	-27.387	0.099
736.100	-38.713	0.099
736.200	-35.381	0.099
736.300	-38.006	0.099
736.400	-28.943	0.099
736.500	-31.069	0.099
736.600	-35.703	0.099
736.700	-32.648	0.099
736.800	-24.660	0.099
736.900	-30.563	0.099
737.000	-39.150	0.099
737.100	-34.013	0.099
737.200	-33.295	0.099
737.300	-37.291	0.099
737.400	-36.635	0.099
737.500	-30.210	0.099
737.600	-46.338	0.099
737.700	-30.254	0.099
737.800	-38.286	0.099
737.900	-31.834	0.099
738.000	-31.455	0.099
738.100	-23.888	0.099
738.200	-36.713	0.099
738.300	-26.711	0.099
738.400	-25.310	0.099
738.500	-39.123	0.099
738.600	-41.568	0.099
738.700	-35.345	0.099
738.800	-33.768	0.099
738.900	-34.876	0.099
739.000	-34.391	0.099
739.100	-34.259	0.099
739.200	-34.766	0.099
739.300	-24.290	0.099
739.400	-38.018	0.099
739.500	-36.319	0.099
739.600	-36.617	0.099
739.700	-54.777	0.099
739.800	-39.081	0.099
739.900	-30.726	0.099
740.000	-31.473	0.099
740.100	-33.250	0.099
740.200	-28.525	0.099
740.300	-43.868	0.099
740.400	-33.362	0.099
740.500	-32.140	0.099
740.600	-34.329	0.099
740.700	-33.170	0.099
740.800	-39.115	0.099
740.900	-33.705	0.099
741.000	-49.422	0.099
741.100	-41.676	0.099
741.200	-28.675	0.099
741.300	-22.560	0.099
741.400	-30.534	0.099
741.500	-30.218	0.099
741.600	-39.965	0.099
741.700	-33.353	0.099
741.800	-38.072	0.099
741.900	-43.551	0.099
742.000	-55.102	0.099
742.100	-32.555	0.099
742.200	-43.175	0.099
742.300	-27.946	0.099
742.400	-32.776	0.099
742.500	-35.307	0.099
742.600	-42.572	0.099
742.700	-44.869	0.099
742.800	-39.037	0.099
742.900	-35.141	0.099
743.000	-41.411	0.099
743.100	-26.183	0.099
743.200	-35.827	0.099
743.300	-31.277	0.099
743.400	-29.073	0.099
743.500	-28.579	0.099
743.600	-42.155	0.099
743.700	-41.105	0.099
743.800	-37.761	0.099
743.900	-31.683	0.099
744.000	-43.972	0.099
744.100	-45.109	0.099
744.200	-36.769	0.099
744.300	-31.424	0.099
744.400	-42.542	0.099
744.500	-26.794	0.099
744.600	-36.743	0.099
744.700	-33.140	0.099
744.800	-43.946	0.099
744.900	-45.066	0.099
745.000	-40.031	0.099
745.100	-53.900	0.099
745.200	-35.824	0.099
745.300	-29.231	0.099
745.400	-35.327	0.099
745.500	-30.716	0.099
745.600	-42.640	0.099
745.700	-36.796	0.099
745.800	-39.999	0.099
745.900	-34.736	0.099
746.000	-33.251	0.099
746.100	-37.552	0.099
746.200	-37.421	0.099
746.300	-30.478	0.099
746.400	-44.941	0.099
746.500	-47.457	0.099
746.600	-49.355	0.099
746.700	-34.142	0.099
746.800	-42.898	0.099
746.900	-31.799	0.099
747.000	-27.059	0.099
747.100	-35.976	0.099
747.200	-36.281	0.099
747.300	-49.758	0.099
747.400	-30.073	0.099
747.500	-31.674	0.099
747.600	-44.954	0.099
747.700	-46.066	0.099
747.800	-44.350	0.099
747.900	-23.385	0.099
748.000	-26.006	0.099
748.100	-33.345	0.099
748.200	-34.979	0.099
748.300	-39.875	0.099
748.400	-25.273	0.099
748.500	-43.285	0.099
748.600	-43.622	0.099
748.700	-45.481	0.099
748.800	-46.780	0.099
748.900	-43.009	0.099
749.000	-39.943	0.099
749.100	-28.530	0.099
749.200	-25.628	0.099
749.300	-39.288	0.099
749.400	-30.137	0.099
749.500	-35.149	0.099
749.600	-35.467	0.099
749.700	-49.640	0.099
749.800	-44.660	0.099
749.900	-21.900	0.099
750.000	-38.374	0.099
750.100	-32.529	0.099
750.200	-21.649	0.099
750.300	-38.798	0.099
750.400	-32.998	0.099
750.500	-42.006	0.099
750.600	-44.728	0.099
750.700	-40.212	0.099
750.800	-31.241	0.099
750.900	-39.814	0.099
751.000	-27.043	0.099
751.100	-39.418	0.099
751.200	-27.317	0.099
751.300	-34.598	0.099
751.400	-41.633	0.099
751.500	-51.316	0.099
751.600	-43.432	0.099
751.700	-43.074	0.099
751.800	-35.942	0.099
751.900	-40.162	0.099
752.000	-33.448	0.099
752.100	-31.241	0.099
752.200	-36.826	0.099
752.300	-39.998	0.099
752.400	-37.635	0.099
752.500	-35.406	0.099
752.600	-33.230	0.099
752.700	-37.250	0.099
752.800	-45.496	0.099
752.900	-41.707	0.099
753.000	-43.658	0.099
753.100	-39.752	0.099
753.200	-37.858	0.099
753.300	-38.502	0.099
753.400	-38.644	0.099
753.500	-41.411	0.099
753.600	-32.547	0.099
753.700	-35.623	0.099
753.800	-31.413	0.099
753.900	-45.256	0.099
754.000	-40.482	0.099
754.100	-55.573	0.099
754.200	-35.910	0.099
754.300	-38.024	0.099
754.400	-37.560	0.099
754.500	-43.602	0.099
754.600	-49.959	0.099
754.700	-36.704	0.099
754.800	-42.747	0.099
754.900	-36.463	0.099
755.000	-34.044	0.099
755.100	-35.530	0.099
755.200	-30.531	0.099
755.300	-33.906	0.099
755.400	-40.113	0.099
755.500	-42.964	0.099
755.600	-35.054	0.099
755.700	-44.950	0.099
755.800	-33.071	0.099
755.900	-31.919	0.099
756.000	-39.286	0.099
756.100	-40.970	0.099
756.200	-47.615	0.099
756.300	-40.698	0.099
756.400	-36.703	0.099
756.500	-43.683	0.099
756.600	-34.022	0.099
756.700	-41.584	0.099
756.800	-49.640	0.099
756.900	-27.425	0.099
757.000	-27.519	0.099
757.100	-26.595	0.099
757.200	-40.813	0.099
757.300	-30.240	0.099
757.400	-37.976	0.099
757.500	-26.245	0.099
757.600	-41.885	0.099
757.700	-43.787	0.099
757.800	-39.002	0.099
757.900	-44.285	0.099
758.000	-30.204	0.099
758.100	-39.212	0.099
758.200	-43.578	0.099
758.300	-34.838	0.099
758.400	-49.498	0.099
758.500	-42.231	0.099
758.600	-47.778	0.099
758.700	-40.449	0.099
758.800	-38.308	0.099
758.900	-33.323	0.099
759.000	-33.722	0.099
759.100	-25.616	0.099
759.200	-35.857	0.099
759.300	-47.845	0.099
759.400	-42.205	0.099
759.500	-37.303	0.099
759.600	-30.863	0.099
759.700	-30.345	0.099
759.800	-41.712	0.099
759.900	-41.994	0.099
760.000	-38.335	0.099
760.100	-47.697	0.099
760.200	-47.612	0.099
760.300	-30.644	0.099
760.400	-40.761	0.099
760.500	-38.733	0.099
760.600	-42.491	0.099
760.700	-39.922	0.099
760.800	-31.210	0.099
760.900	-46.560	0.099
761.000	-45.467	0.099
761.100	-37.003	0.099
761.200	-34.885	0.099
761.300	-42.636	0.099
761.400	-53.868	0.099
761.500	-24.631	0.099
761.600	-32.342	0.099
761.700	-45.851	0.099
761.800	-31.413	0.099
761.900	-35.456	0.099
762.000	-42.412	0.099
762.100	-44.915	0.099
762.200	-40.797	0.099
762.300	-34.133	0.099
762.400	-41.730	0.099
762.500	-48.471	0.099
762.600	-43.965	0.099
762.700	-44.673	0.099
762.800	-29.949	0.099
762.900	-25.086	0.099
763.000	-48.628	0.099
763.100	-44.102	0.099
763.200	-30.029	0.099
763.300	-39.369	0.099
763.400	-48.094	0.099
763.500	-26.378	0.099
763.600	-40.664	0.099
763.700	-45.707	0.099
763.800	-24.885	0.099
763.900	-33.649	0.099
764.000	-38.448	0.099
764.100	-36.366	0.099
764.200	-33.908	0.099
764.300	-51.990	0.099
764.400	-36.855	0.099
764.500	-41.441	0.099
764.600	-39.209	0.099
764.700	-30.431	0.099
764.800	-41.820	0.099
764.900	-38.218	0.099
765.000	-38.400	0.099
765.100	-43.120	0.099
765.200	-37.300	0.099
765.300	-49.973	0.099
765.400	-51.488	0.099
765.500	-44.077	0.099
765.600	-43.485	0.099
765.700	-36.189	0.099
765.800	-25.968	0.099
765.900	-35.232	0.099
766.000	-34.430	0.099
766.100	-36.816	0.099
766.200	-37.456	0.099
766.300	-42.041	0.099
766.400	-33.215	0.099
766.500	-23.630	0.099
766.600	-38.580	0.099
766.700	-43.400	0.099
766.800	-36.336	0.099
766.900	-44.683	0.099
767.000	-43.659	0.099
767.100	-42.439	0.099
767.200	-40.345	0.099
767.300	-40.739	0.099
767.400	-40.660	0.099
767.500	-40.544	0.099
767.600	-37.613	0.099
767.700	-42.085	0.099
767.800	-39.716	0.099
767.900	-42.480	0.099
768.000	-51.243	0.099
768.100	-50.599	0.099
768.200	-34.486	0.099
768.300	-27.317	0.099
768.400	-28.070	0.099
768.500	-39.630	0.099
768.600	-48.919	0.099
768.700	-42.207	0.099
768.800	-38.299	0.099
768.900	-40.792	0.099
769.000	-37.968	0.099
769.100	-44.447	0.099
769.200	-29.608	0.099
769.300	-37.903	0.099
769.400	-24.302	0.099
769.500	-60.731	0.099
769.600	-32.263	0.099
769.700	-47.040	0.099
769.800	-37.391	0.099
769.900	-43.288	0.099
770.000	-46.336	0.099
770.100	-23.904	0.099
770.200	-30.073	0.099
770.300	-37.831	0.099
770.400	-51.604	0.099
770.500	-39.064	0.099
770.600	-40.727	0.099
770.700	-37.450	0.099
770.800	-37.031	0.099
770.900	-45.427	0.099
771.000	-35.405	0.099
771.100	-39.576	0.099
771.200	-41.306	0.099
771.300	-43.830	0.099
771.400	-43.056	0.099
771.500	-48.548	0.099
771.600	-30.261	0.099
771.700	-42.878	0.099
771.800	-47.719	0.099
771.900	-28.032	0.099
772.000	-48.293	0.099
772.100	-45.112	0.099
772.200	-34.183	0.099
772.300	-23.214	0.099
772.400	-44.332	0.099
772.500	-36.127	0.099
772.600	-47.021	0.099
772.700	-39.053	0.099
772.800	-40.889	0.099
772.900	-42.003	0.099
773.000	-40.271	0.099
773.100	-34.535	0.099
773.200	-41.519	0.099
773.300	-37.001	0.099
773.400	-36.058	0.099
773.500	-44.370	0.099
773.600	-28.386	0.099
773.700	-29.561	0.099
773.800	-30.594	0.099
773.900	-51.247	0.099
774.000	-23.266	0.099
774.100	-34.685	0.099
774.200	-44.390	0.099
774.300	-44.072	0.099
774.400	-41.727	0.099
774.500	-42.962	0.099
774.600	-37.923	0.099
774.700	-51.876	0.099
774.800	-29.307	0.099
774.900	-39.291	0.099
775.000	-34.536	0.099
775.100	-35.901	0.099
775.200	-47.022	0.099
775.300	-23.472	0.099
775.400	-25.010	0.099
775.500	-45.165	0.099
775.600	-34.354	0.099
775.700	-36.993	0.099
775.800	-38.160	0.099
775.900	-42.567	0.099
776.000	-38.114	0.099
776.100	-28.468	0.099
776.200	-56.132	0.099
776.300	-47.748	0.099
776.400	-38.549	0.099
776.500	-26.330	0.099
776.600	-23.158	0.099
776.700	-45.926	0.099
776.800	-47.479	0.099
776.900	-34.794	0.099
777.000	-54.341	0.099
777.100	-30.804	0.099
777.200	-37.538	0.099
777.300	-34.915	0.099
777.400	-35.646	0.099
777.500	-42.038	0.099
777.600	-47.532	0.099
777.700	-24.839	0.099
777.800	-29.284	0.100
777.900	-33.763	0.099
778.000	-44.894	0.099
778.100	-50.521	0.100
778.200	-38.189	0.100
778.300	-32.958	0.100
778.400	-48.879	0.100
778.500	-30.480	0.100
778.600	-48.264	0.100
778.700	-55.527	0.100
778.800	-35.736	0.100
778.900	-30.312	0.100
779.000	-41.688	0.100
779.100	-42.852	0.100
779.200	-53.551	0.100
779.300	-43.886	0.100
779.400	-32.853	0.100
779.500	-17.867	0.100
779.600	-37.418	0.100
779.700	-26.244	0.100
779.800	-40.148	0.100
779.900	-32.047	0.100
780.000	-42.358	0.100
780.100	-48.974	0.100
780.200	-45.091	0.100
780.300	-28.443	0.100
780.400	-30.389	0.100
780.500	-28.137	0.100
780.600	-30.473	0.100
780.700	-40.128	0.100
780.800	-30.024	0.100
780.900	-34.625	0.100
781.000	-29.094	0.100
781.100	-36.888	0.100
781.200	-34.003	0.100
781.300	-24.582	0.100
781.400	-23.663	0.100
781.500	-21.024	0.100
781.600	-37.576	0.100
781.700	-36.657	0.100
781.800	-34.283	0.100
781.900	-24.163	0.100
782.000	-8.819	0.100
782.100	-7.477	0.100
782.200	-16.040	0.100
782.300	-12.159	0.100
782.400	-22.657	0.100
782.500	-13.321	0.100
782.600	-2.398	0.100
782.700	-17.319	0.100
782.800	-10.173	0.100
782.900	-6.830	0.100
783.000	-25.424	0.100
783.100	-9.043	0.100
783.200	-10.377	0.100
783.300	-5.973	0.100
783.400	-8.653	0.100
783.500	-1.848	0.100
783.600	-3.382	0.100
783.700	-0.909	0.100
783.800	-14.933	0.100
783.900	-7.532	0.100
784.000	-15.201	0.100
784.100	-3.355	0.100
784.200	-23.596	0.100
784.300	-18.896	0.100
784.400	-9.291	0.100
784.500	-16.389	0.100
784.600	1.039	0.100
784.700	-0.221	0.100
784.800	-8.258	0.100
784.900	-11.813	0.100
785.000	-9.784	0.100
785.100	-5.370	0.100
785.200	4.538	0.100
785.300	4.751	0.100
785.400	1.182	0.100
785.500	-4.548	0.100
785.600	-16.955	0.100
785.700	-16.409	0.100
785.800	-13.779	0.100
785.900	-2.655	0.100
786.000	-2.999	0.100
786.100	-5.157	0.100
786.200	4.712	0.100
786.300	-0.236	0.100
786.400	-6.456	0.100
786.500	1.920	0.100
786.600	2.317	0.100
786.700	3.667	0.100
786.800	3.053	0.100
786.900	0.841	0.100
787.000	-2.820	0.100
787.100	-3.709	0.100
787.200	-10.194	0.100
787.300	-11.032	0.100
787.400	10.057	0.100
787.500	-1.369	0.100
787.600	14.112	0.100
787.700	0.505	0.100
787.800	-0.590	0.100
787.900	5.310	0.100
788.000	-13.519	0.100
788.100	-0.432	0.100
788.200	11.113	0.100
788.300	-9.531	0.100
788.400	16.521	0.100
788.500	16.557	0.100
788.600	7.626	0.100
788.700	2.789	0.100
788.800	5.141	0.100
788.900	-1.280	0.100
789.000	9.107	0.100
789.100	7.359	0.100
789.200	-2.736	0.100
789.300	-11.224	0.100
789.400	-3.257	0.100
789.500	15.060	0.100
789.600	13.087	0.100
789.700	2.288	0.100
789.800	1.664	0.100
789.900	5.091	0.100
790.000	4.840	0.100
790.100	-5.214	0.100
790.200	5.676	0.100
790.300	8.956	0.100
790.400	7.005	0.100
790.500	2.221	0.100
790.600	6.178	0.100
790.700	21.162	0.100
790.800	13.700	0.100
790.900	11.821	0.100
791.000	16.827	0.100
791.100	3.914	0.100
791.200	13.610	0.100
791.300	8.931	0.100
791.400	8.866	0.100
791.500	5.509	0.100
791.600	-1.644	0.100
791.700	11.229	0.100
791.800	16.751	0.100
791.900	4.184	0.100
792.000	-7.773	0.100
792.100	8.166	0.100
792.200	7.165	0.100
792.300	11.680	0.100
792.400	9.969	0.100
792.500	20.629	0.100
792.600	15.040	0.100
792.700	10.800	0.100
792.800	18.009	0.100
792.900	0.994	0.100
793.000	16.130	0.100
793.100	20.891	0.100
793.200	15.695	0.100
793.300	7.732	0.100
793.400	8.447	0.100
793.500	21.053	0.100
793.600	18.213	0.100
793.700	14.838	0.100
793.800	21.795	0.100
793.900	9.324	0.100
794.000	0.192	0.100
794.100	22.920	0.100
794.200	19.402	0.100
794.300	22.193	0.100
794.400	18.608	0.100
794.500	16.344	0.100
794.600	36.376	0.100
794.700	14.035	0.100
794.800	8.605	0.100
794.900	4.551	0.100
795.000	24.051	0.100
795.100	17.835	0.100
795.200	11.173	0.100
795.300	16.807	0.100
795.400	17.512	0.100
795.500	8.318	0.100
795.600	18.761	0.100
795.700	23.632	0.100
795.800	9.608	0.100
795.900	13.463	0.100
796.000	15.882	0.100
796.100	22.550	0.100
796.200	31.855	0.100
796.300	15.856	0.100
796.400	-0.837	0.100
796.500	37.514	0.100
796.600	32.465	0.100
796.700	31.981	0.100
796.800	23.073	0.100
796.900	17.280	0.100
797.000	34.503	0.100
797.100	30.526	0.100
797.200	18.414	0.100
797.300	18.427	0.100
797.400	28.474	0.100
797.500	9.581	0.100
797.600	5.468	0.100
797.700	35.287	0.100
797.800	11.722	0.100
797.900	20.694	0.100
798.000	31.855	0.100
798.100	18.322	0.100
798.200	39.492	0.100
798.300	33.296	0.100
798.400	18.666	0.100
798.500	23.776	0.100
798.600	24.748	0.100
798.700	31.578	0.100
798.800	29.603	0.100
798.900	17.742	0.100
799.000	7.579	0.100
799.100	44.442	0.100
799.200	37.661	0.100
799.300	31.088	0.100
799.400	28.420	0.100
799.500	29.100	0.100
799.600	25.874	0.100
799.700	20.663	0.100
799.800	16.468	0.100
799.900	26.674	0.100
800.000	36.835	0.100
