time /s	I /nA	E /V
0.100	11.213	0.100
0.200	-6.888	0.100
0.300	-0.154	0.100
0.400	7.487	0.100
0.500	5.683	0.100
0.600	9.888	0.100
0.700	-0.836	0.100
0.800	-0.403	0.100
0.900	6.472	0.100
1.000	-0.897	0.100
1.100	12.485	0.100
1.200	-0.943	0.100
1.300	4.852	0.100
1.400	-3.060	0.100
1.500	16.660	0.100
1.600	-9.507	0.100
1.700	-5.706	0.100
1.800	7.489	0.100
1.900	15.288	0.100
2.000	15.632	0.100
2.100	-7.003	0.100
2.200	15.612	0.100
2.300	-2.456	0.100
2.400	7.388	0.100
2.500	12.015	0.100
2.600	1.309	0.100
2.700	1.119	0.100
2.800	1.548	0.100
2.900	15.626	0.100
3.000	-0.573	0.100
3.100	0.382	0.100
3.200	3.145	0.100
3.300	6.027	0.100
3.400	7.430	0.100
3.500	0.846	0.100
3.600	15.391	0.100
3.700	8.763	0.100
3.800	-2.706	0.100
3.900	2.129	0.100
4.000	5.273	0.100
4.100	3.569	0.100
4.200	8.274	0.100
4.300	-6.499	0.100
4.400	2.764	0.100
4.500	10.935	0.100
4.600	4.483	0.100
4.700	5.412	0.100
4.800	7.627	0.100
4.900	8.660	0.100
5.000	-8.198	0.100
5.100	0.811	0.100
5.200	5.466	0.100
5.300	21.261	0.100
5.400	1.398	0.100
5.500	14.163	0.100
5.600	13.688	0.100
5.700	-0.747	0.100
5.800	5.868	0.100
5.900	-1.605	0.100
6.000	3.235	0.100
6.100	6.421	0.100
6.200	8.837	0.100
6.300	12.827	0.100
6.400	-8.163	0.100
6.500	5.113	0.100
6.600	13.252	0.100
6.700	20.183	0.100
6.800	0.420	0.100
6.900	6.588	0.100
7.000	2.683	0.100
7.100	20.216	0.100
7.200	-1.029	0.100
7.300	-15.083	0.100
7.400	0.576	0.100
7.500	5.741	0.100
7.600	19.977	0.100
7.700	5.489	0.100
7.800	1.591	0.100
7.900	0.375	0.100
8.000	1.188	0.100
8.100	-1.575	0.100
8.200	10.681	0.100
8.300	5.627	0.100
8.400	7.160	0.100
8.500	10.202	0.100
8.600	-9.689	0.100
8.700	5.758	0.100
8.800	9.403	0.100
8.900	0.827	0.100
9.000	0.160	0.100
9.100	16.580	0.100
9.200	7.804	0.100
9.300	-11.463	0.100
9.400	12.641	0.100
9.500	4.734	0.100
9.600	12.327	0.100
9.700	-0.426	0.100
9.800	11.389	0.100
9.900	-8.019	0.100
10.000	13.082	0.100
10.100	-7.819	0.100
10.200	4.896	0.100
10.300	5.999	0.100
10.400	-2.691	0.100
10.500	5.697	0.100
10.600	5.999	0.100
10.700	-1.113	0.100
10.800	7.730	0.100
10.900	4.611	0.100
11.000	20.904	0.100
11.100	19.921	0.100
11.200	1.574	0.100
11.300	-18.836	0.100
11.400	9.261	0.100
11.500	14.990	0.100
11.600	2.479	0.100
11.700	-5.233	0.100
11.800	-6.764	0.100
11.900	8.945	0.100
12.000	10.030	0.100
12.100	3.694	0.100
12.200	-8.922	0.100
12.300	12.013	0.100
12.400	5.628	0.100
12.500	-17.444	0.100
12.600	13.640	0.100
12.700	-2.434	0.100
12.800	7.368	0.100
12.900	15.407	0.100
13.000	3.450	0.100
13.100	-6.692	0.100
13.200	6.748	0.100
13.300	1.192	0.100
13.400	10.034	0.100
13.500	3.913	0.100
13.600	0.268	0.100
13.700	14.243	0.100
13.800	7.096	0.100
13.900	1.405	0.100
14.000	11.334	0.100
14.100	3.831	0.100
14.200	-9.264	0.100
14.300	6.367	0.100
14.400	4.660	0.100
14.500	5.173	0.100
14.600	-4.344	0.100
14.700	4.260	0.100
14.800	5.531	0.100
14.900	4.621	0.100
15.000	3.476	0.100
15.100	-3.140	0.100
15.200	6.275	0.100
15.300	0.319	0.100
15.400	-9.060	0.100
15.500	-0.278	0.100
15.600	3.246	0.100
15.700	11.515	0.100
15.800	24.491	0.100
15.900	3.658	0.100
16.000	10.455	0.100
16.100	-3.791	0.100
16.200	15.508	0.100
16.300	10.115	0.100
16.400	0.339	0.100
16.500	-4.860	0.100
16.600	11.340	0.100
16.700	-0.924	0.100
16.800	5.374	0.100
16.900	11.095	0.100
17.000	-4.683	0.100
17.100	10.091	0.100
17.200	4.753	0.100
17.300	5.275	0.100
17.400	3.066	0.100
17.500	6.799	0.100
17.600	2.808	0.100
17.700	-5.973	0.100
17.800	-1.637	0.100
17.900	-0.062	0.100
18.000	-0.605	0.100
18.100	0.724	0.100
18.200	2.846	0.100
18.300	3.952	0.100
18.400	3.855	0.100
18.500	6.968	0.100
18.600	5.341	0.100
18.700	7.595	0.100
18.800	15.925	0.100
18.900	-1.672	0.100
19.000	9.774	0.100
19.100	15.178	0.100
19.200	10.634	0.100
19.300	7.327	0.100
19.400	9.757	0.100
19.500	-3.571	0.100
19.600	10.447	0.100
19.700	0.954	0.100
19.800	7.770	0.100
19.900	-5.202	0.100
20.000	-11.512	0.100
20.100	7.603	0.100
20.200	-12.712	0.100
20.300	14.432	0.100
20.400	-10.092	0.100
20.500	-11.589	0.100
20.600	2.015	0.100
20.700	-0.341	0.100
20.800	14.644	0.100
20.900	6.185	0.100
21.000	6.959	0.100
21.100	10.675	0.100
21.200	9.461	0.100
21.300	-2.854	0.100
21.400	3.614	0.100
21.500	13.777	0.100
21.600	3.216	0.100
21.700	-6.421	0.100
21.800	13.000	0.100
21.900	4.885	0.100
22.000	3.548	0.100
22.100	-1.665	0.100
22.200	1.566	0.100
22.300	4.425	0.100
22.400	7.093	0.100
22.500	4.712	0.100
22.600	0.150	0.100
22.700	10.432	0.100
22.800	7.295	0.100
22.900	5.870	0.100
23.000	5.284	0.100
23.100	10.826	0.100
23.200	13.284	0.100
23.300	11.134	0.100
23.400	8.068	0.100
23.500	-16.508	0.100
23.600	4.761	0.100
23.700	-8.057	0.100
23.800	17.683	0.100
23.900	21.343	0.100
24.000	-4.739	0.100
24.100	-10.167	0.100
24.200	7.563	0.100
24.300	-12.406	0.100
24.400	2.115	0.100
24.500	-10.334	0.100
24.600	12.467	0.100
24.700	7.015	0.100
24.800	9.834	0.100
24.900	1.744	0.100
25.000	4.719	0.100
25.100	11.731	0.100
25.200	5.446	0.100
25.300	3.165	0.100
25.400	6.558	0.100
25.500	8.693	0.100
25.600	-13.889	0.100
25.700	9.746	0.100
25.800	-6.133	0.100
25.900	1.304	0.100
26.000	4.049	0.100
26.100	-7.461	0.100
26.200	-4.642	0.100
26.300	-12.198	0.100
26.400	7.478	0.100
26.500	4.732	0.100
26.600	8.022	0.100
26.700	7.775	0.100
26.800	2.027	0.100
26.900	10.227	0.100
27.000	4.569	0.100
27.100	-9.625	0.100
27.200	10.073	0.100
27.300	1.252	0.100
27.400	0.059	0.100
27.500	12.615	0.100
27.600	5.390	0.100
27.700	3.688	0.100
27.800	-1.711	0.100
27.900	-1.551	0.100
28.000	0.742	0.100
28.100	8.931	0.100
28.200	4.193	0.100
28.300	5.442	0.100
28.400	9.964	0.100
28.500	1.653	0.100
28.600	-1.349	0.100
28.700	-4.431	0.100
28.800	-0.209	0.100
28.900	0.800	0.100
29.000	11.125	0.100
29.100	13.152	0.100
29.200	-2.513	0.100
29.300	1.591	0.100
29.400	10.500	0.100
29.500	2.013	0.100
29.600	0.511	0.100
29.700	7.090	0.100
29.800	10.110	0.100
29.900	-8.884	0.100
30.000	7.099	0.100
30.100	3.230	0.100
30.200	18.243	0.100
30.300	22.580	0.100
30.400	10.504	0.100
30.500	8.689	0.100
30.600	6.832	0.100
30.700	18.443	0.100
30.800	2.832	0.100
30.900	13.555	0.100
31.000	19.464	0.100
31.100	24.045	0.100
31.200	-0.488	0.100
31.300	10.515	0.100
31.400	21.290	0.100
31.500	23.533	0.100
31.600	14.047	0.100
31.700	35.090	0.100
31.800	14.387	0.100
31.900	23.281	0.100
32.000	23.888	0.100
32.100	19.756	0.100
32.200	16.270	0.100
32.300	20.721	0.100
32.400	24.427	0.100
32.500	33.609	0.100
32.600	25.875	0.100
32.700	13.888	0.100
32.800	29.754	0.100
32.900	17.524	0.100
33.000	17.250	0.100
33.100	26.405	0.100
33.200	12.096	0.100
33.300	23.713	0.100
33.400	24.180	0.100
33.500	27.717	0.100
33.600	35.097	0.100
33.700	33.041	0.100
33.800	17.482	0.100
33.900	36.334	0.100
34.000	32.042	0.100
34.100	0.498	0.100
34.200	22.621	0.100
34.300	23.539	0.100
34.400	24.828	0.100
34.500	17.864	0.100
34.600	49.336	0.100
34.700	29.970	0.100
34.800	43.430	0.100
34.900	34.726	0.100
35.000	23.078	0.100
35.100	22.298	0.100
35.200	51.506	0.100
35.300	34.893	0.100
35.400	28.147	0.100
35.500	25.635	0.100
35.600	39.110	0.100
35.700	31.877	0.100
35.800	38.341	0.100
35.900	37.329	0.100
36.000	36.149	0.100
36.100	37.153	0.100
36.200	36.307	0.100
36.300	36.234	0.100
36.400	56.531	0.100
36.500	32.977	0.100
36.600	35.441	0.100
36.700	41.548	0.100
36.800	50.445	0.100
36.900	24.306	0.100
37.000	43.744	0.100
37.100	45.082	0.100
37.200	42.048	0.100
37.300	41.988	0.100
37.400	44.618	0.100
37.500	35.677	0.100
37.600	37.068	0.100
37.700	34.904	0.100
37.800	43.428	0.100
37.900	42.035	0.100
38.000	41.384	0.100
38.100	48.970	0.100
38.200	49.591	0.100
38.300	26.952	0.100
38.400	21.608	0.100
38.500	60.666	0.100
38.600	47.842	0.100
38.700	31.610	0.100
38.800	35.496	0.100
38.900	49.852	0.100
39.000	39.309	0.100
39.100	55.980	0.100
39.200	36.451	0.100
39.300	37.617	0.100
39.400	46.580	0.100
39.500	33.820	0.100
39.600	41.029	0.100
39.700	42.851	0.100
39.800	23.714	0.100
39.900	36.990	0.100
40.000	41.113	0.100
40.100	35.769	0.100
40.200	29.931	0.100
40.300	45.565	0.100
40.400	44.880	0.100
40.500	43.488	0.100
40.600	45.413	0.100
40.700	53.426	0.100
40.800	48.482	0.100
40.900	40.749	0.100
41.000	37.497	0.100
41.100	45.346	0.100
41.200	33.200	0.100
41.300	58.509	0.100
41.400	35.873	0.100
41.500	32.771	0.100
41.600	29.011	0.100
41.700	30.004	0.100
41.800	24.325	0.100
41.900	44.152	0.100
42.000	35.010	0.100
42.100	47.685	0.100
42.200	23.147	0.100
42.300	44.053	0.100
42.400	27.560	0.100
42.500	20.098	0.100
42.600	35.164	0.100
42.700	37.869	0.100
42.800	25.876	0.100
42.900	36.761	0.100
43.000	37.153	0.100
43.100	26.255	0.100
43.200	31.781	0.100
43.300	32.154	0.100
43.400	30.659	0.100
43.500	31.720	0.100
43.600	26.715	0.100
43.700	31.632	0.100
43.800	25.930	0.100
43.900	43.081	0.100
44.000	39.698	0.100
44.100	25.871	0.100
44.200	17.273	0.100
44.300	32.892	0.100
44.400	15.753	0.100
44.500	34.981	0.100
44.600	19.331	0.100
44.700	20.045	0.100
44.800	24.446	0.100
44.900	30.779	0.100
45.000	30.309	0.100
45.100	23.822	0.100
45.200	17.646	0.100
45.300	24.141	0.100
45.400	31.329	0.100
45.500	31.860	0.100
45.600	25.864	0.100
45.700	16.270	0.100
45.800	17.944	0.100
45.900	25.117	0.100
46.000	14.513	0.100
46.100	7.821	0.100
46.200	20.325	0.100
46.300	24.108	0.100
46.400	13.442	0.100
46.500	22.114	0.100
46.600	2.751	0.100
46.700	27.075	0.100
46.800	17.978	0.100
46.900	7.334	0.100
47.000	22.040	0.100
47.100	16.061	0.100
47.200	25.455	0.100
47.300	-6.693	0.100
47.400	25.508	0.100
47.500	13.503	0.100
47.600	9.966	0.100
47.700	15.768	0.100
47.800	11.357	0.100
47.900	9.023	0.100
48.000	5.797	0.100
48.100	21.909	0.100
48.200	23.923	0.100
48.300	5.953	0.100
48.400	15.175	0.100
48.500	20.853	0.100
48.600	21.508	0.100
48.700	18.332	0.100
48.800	13.479	0.100
48.900	12.193	0.100
49.000	10.889	0.100
49.100	16.353	0.100
49.200	15.360	0.100
49.300	26.662	0.100
49.400	23.715	0.100
49.500	13.577	0.100
49.600	15.171	0.100
49.700	15.792	0.100
49.800	9.988	0.100
49.900	-0.607	0.100
50.000	15.368	0.100
50.100	-3.970	0.100
50.200	27.887	0.100
50.300	11.909	0.100
50.400	14.121	0.100
50.500	23.740	0.100
50.600	5.955	0.100
50.700	0.592	0.100
50.800	12.067	0.100
50.900	17.076	0.100
51.000	5.682	0.100
51.100	24.317	0.100
51.200	10.315	0.100
51.300	12.912	0.100
51.400	16.659	0.100
51.500	14.582	0.100
51.600	-8.188	0.100
51.700	23.353	0.100
51.800	14.619	0.100
51.900	13.132	0.100
52.000	17.273	0.100
52.100	13.574	0.100
52.200	20.661	0.100
52.300	9.585	0.100
52.400	6.328	0.100
52.500	8.760	0.100
52.600	30.229	0.100
52.700	6.854	0.100
52.800	10.069	0.100
52.900	14.274	0.100
53.000	9.292	0.100
53.100	8.597	0.100
53.200	16.860	0.100
53.300	10.794	0.100
53.400	17.235	0.100
53.500	9.933	0.100
53.600	19.441	0.100
53.700	15.988	0.100
53.800	7.891	0.100
53.900	6.750	0.100
54.000	15.581	0.100
54.100	4.769	0.100
54.200	12.614	0.100
54.300	17.003	0.100
54.400	12.200	0.100
54.500	4.631	0.100
54.600	8.728	0.100
54.700	12.808	0.100
54.800	12.122	0.100
54.900	10.732	0.100
55.000	10.321	0.100
55.100	8.193	0.100
55.200	19.499	0.100
55.300	23.368	0.100
55.400	12.598	0.100
55.500	12.671	0.100
55.600	9.126	0.100
55.700	19.010	0.100
55.800	8.874	0.100
55.900	4.350	0.100
56.000	7.682	0.100
56.100	19.131	0.100
56.200	13.346	0.100
56.300	14.851	0.100
56.400	4.251	0.100
56.500	18.230	0.100
56.600	22.225	0.100
56.700	20.848	0.100
56.800	15.213	0.100
56.900	0.926	0.100
57.000	21.020	0.100
57.100	19.326	0.100
57.200	12.111	0.100
57.300	17.521	0.100
57.400	11.871	0.100
57.500	13.795	0.100
57.600	17.932	0.100
57.700	28.262	0.100
57.800	17.284	0.100
57.900	14.012	0.100
58.000	6.345	0.100
58.100	9.472	0.100
58.200	14.211	0.100
58.300	10.826	0.100
58.400	27.706	0.100
58.500	18.321	0.100
58.600	11.407	0.100
58.700	34.552	0.100
58.800	6.652	0.100
58.900	12.343	0.100
59.000	10.396	0.100
59.100	11.127	0.100
59.200	27.716	0.100
59.300	23.005	0.100
59.400	13.435	0.100
59.500	30.901	0.100
59.600	13.441	0.100
59.700	15.455	0.100
59.800	14.217	0.099
59.900	26.110	0.100
60.000	9.074	0.100
60.100	13.475	0.100
60.200	8.759	0.100
60.300	2.774	0.099
60.400	19.836	0.100
60.500	24.737	0.100
60.600	-2.399	0.100
60.700	16.969	0.099
60.800	18.854	0.100
60.900	20.353	0.100
61.000	8.930	0.099
61.100	15.846	0.100
61.200	22.924	0.099
61.300	16.974	0.100
61.400	2.794	0.099
61.500	9.957	0.099
61.600	12.590	0.099
61.700	3.271	0.100
61.800	22.161	0.100
61.900	17.747	0.099
62.000	21.652	0.099
62.100	25.195	0.099
62.200	22.498	0.099
62.300	14.623	0.099
62.400	17.664	0.099
62.500	8.144	0.099
62.600	13.277	0.099
62.700	10.192	0.099
62.800	14.238	0.099
62.900	19.758	0.099
63.000	5.839	0.099
63.100	11.377	0.099
63.200	8.711	0.099
63.300	18.050	0.099
63.400	29.708	0.099
63.500	19.652	0.099
63.600	13.070	0.099
63.700	7.749	0.099
63.800	7.086	0.099
63.900	20.704	0.099
64.000	26.003	0.099
64.100	15.459	0.099
64.200	21.172	0.099
64.300	10.083	0.099
64.400	11.543	0.099
64.500	18.992	0.099
64.600	15.490	0.099
64.700	16.690	0.099
64.800	16.813	0.099
64.900	15.762	0.099
65.000	0.874	0.099
65.100	13.211	0.099
65.200	20.623	0.099
65.300	29.665	0.099
65.400	21.270	0.099
65.500	32.402	0.099
65.600	18.050	0.099
65.700	9.211	0.099
65.800	23.360	0.099
65.900	6.046	0.099
66.000	-6.173	0.099
66.100	15.949	0.099
66.200	18.559	0.099
66.300	20.635	0.099
66.400	17.016	0.099
66.500	2.766	0.099
66.600	21.182	0.099
66.700	11.719	0.099
66.800	17.219	0.099
66.900	18.883	0.099
67.000	23.065	0.099
67.100	10.434	0.099
67.200	-5.013	0.099
67.300	14.782	0.099
67.400	13.834	0.099
67.500	23.325	0.099
67.600	15.468	0.099
67.700	14.395	0.099
67.800	21.683	0.099
67.900	9.448	0.099
68.000	27.250	0.099
68.100	5.017	0.099
68.200	4.788	0.099
68.300	14.526	0.099
68.400	11.164	0.099
68.500	20.633	0.099
68.600	0.248	0.099
68.700	32.850	0.099
68.800	7.417	0.099
68.900	24.845	0.099
69.000	5.650	0.099
69.100	9.907	0.099
69.200	12.929	0.099
69.300	23.247	0.099
69.400	14.083	0.099
69.500	12.130	0.099
69.600	13.492	0.099
69.700	-11.193	0.099
69.800	27.785	0.099
69.900	23.662	0.099
70.000	17.386	0.099
70.100	-0.036	0.099
70.200	16.307	0.099
70.300	27.152	0.099
70.400	9.702	0.099
70.500	16.572	0.099
70.600	10.045	0.099
70.700	11.881	0.099
70.800	28.987	0.099
70.900	5.087	0.099
71.000	8.359	0.099
71.100	27.397	0.099
71.200	17.838	0.099
71.300	13.614	0.099
71.400	18.955	0.099
71.500	13.136	0.099
71.600	21.354	0.099
71.700	18.272	0.099
71.800	8.767	0.099
71.900	1.110	0.099
72.000	16.597	0.099
72.100	15.557	0.099
72.200	16.280	0.099
72.300	12.863	0.099
72.400	17.902	0.099
72.500	8.842	0.099
72.600	16.207	0.099
72.700	6.771	0.099
72.800	18.086	0.099
72.900	12.392	0.099
73.000	17.531	0.099
73.100	11.016	0.099
73.200	15.222	0.099
73.300	-0.140	0.099
73.400	11.832	0.099
73.500	29.828	0.099
73.600	13.668	0.099
73.700	19.541	0.099
73.800	18.567	0.099
73.900	-1.011	0.099
74.000	29.458	0.099
74.100	6.815	0.099
74.200	1.593	0.099
74.300	13.757	0.099
74.400	17.279	0.099
74.500	14.186	0.099
74.600	-21.037	0.099
74.700	26.938	0.099
74.800	12.212	0.099
74.900	13.922	0.099
75.000	23.353	0.099
75.100	8.697	0.099
75.200	26.113	0.099
75.300	12.068	0.099
75.400	12.732	0.099
75.500	21.531	0.099
75.600	12.677	0.099
75.700	20.345	0.099
75.800	10.670	0.099
75.900	15.161	0.099
76.000	20.864	0.099
76.100	17.577	0.099
76.200	10.916	0.099
76.300	13.970	0.099
76.400	22.893	0.099
76.500	16.052	0.099
76.600	21.863	0.099
76.700	19.328	0.099
76.800	4.811	0.099
76.900	28.305	0.099
77.000	9.881	0.099
77.100	3.391	0.099
77.200	-1.113	0.099
77.300	17.691	0.099
77.400	5.191	0.099
77.500	22.694	0.099
77.600	27.792	0.099
77.700	23.433	0.099
77.800	-0.608	0.099
77.900	13.309	0.099
78.000	27.735	0.099
78.100	25.592	0.099
78.200	15.109	0.099
78.300	11.545	0.099
78.400	10.513	0.099
78.500	15.833	0.099
78.600	15.860	0.099
78.700	8.429	0.099
78.800	12.163	0.099
78.900	26.693	0.099
79.000	27.514	0.099
79.100	13.923	0.099
79.200	18.918	0.099
79.300	11.708	0.099
79.400	9.709	0.099
79.500	24.121	0.099
79.600	19.124	0.099
79.700	22.750	0.099
79.800	18.999	0.099
79.900	23.112	0.099
80.000	16.578	0.099
80.100	25.117	0.099
80.200	8.666	0.099
80.300	16.845	0.099
80.400	18.942	0.099
80.500	4.720	0.099
80.600	26.699	0.099
80.700	32.356	0.099
80.800	13.947	0.099
80.900	28.593	0.099
81.000	14.782	0.099
81.100	10.505	0.099
81.200	16.907	0.099
81.300	29.726	0.099
81.400	42.319	0.099
81.500	15.282	0.099
81.600	23.707	0.099
81.700	21.702	0.099
81.800	10.553	0.099
81.900	27.084	0.099
82.000	8.611	0.099
82.100	17.007	0.099
82.200	10.510	0.100
82.300	17.897	0.099
82.400	17.714	0.099
82.500	10.592	0.099
82.600	16.328	0.099
82.700	-1.223	0.099
82.800	27.632	0.100
82.900	29.356	0.100
83.000	26.125	0.099
83.100	18.052	0.099
83.200	14.598	0.099
83.300	21.807	0.099
83.400	16.961	0.099
83.500	17.097	0.099
83.600	33.678	0.099
83.700	7.980	0.099
83.800	3.615	0.099
83.900	26.423	0.099
84.000	20.714	0.099
84.100	11.667	0.099
84.200	12.142	0.099
84.300	19.262	0.099
84.400	10.389	0.099
84.500	14.596	0.099
84.600	14.396	0.099
84.700	15.614	0.099
84.800	19.366	0.099
84.900	20.077	0.099
85.000	10.382	0.099
85.100	25.021	0.099
85.200	4.088	0.099
85.300	14.989	0.099
85.400	19.968	0.099
85.500	20.626	0.099
85.600	32.043	0.099
85.700	7.541	0.099
85.800	26.249	0.099
85.900	24.796	0.099
86.000	21.886	0.099
86.100	23.178	0.099
86.200	22.179	0.099
86.300	19.704	0.099
86.400	18.850	0.099
86.500	16.692	0.099
86.600	7.201	0.099
86.700	11.094	0.099
86.800	17.097	0.099
86.900	16.307	0.099
87.000	8.787	0.099
87.100	5.213	0.099
87.200	17.953	0.099
87.300	9.280	0.099
87.400	6.167	0.099
87.500	11.897	0.099
87.600	22.921	0.099
87.700	29.526	0.099
87.800	19.679	0.099
87.900	3.907	0.099
88.000	26.005	0.099
88.100	25.016	0.099
88.200	16.980	0.099
88.300	24.007	0.099
88.400	26.109	0.099
88.500	16.415	0.099
88.600	38.762	0.099
88.700	7.141	0.099
88.800	16.560	0.099
88.900	16.172	0.099
89.000	9.483	0.099
89.100	16.858	0.099
89.200	22.767	0.099
89.300	22.658	0.099
89.400	13.558	0.099
89.500	11.364	0.099
89.600	20.573	0.099
89.700	18.721	0.099
89.800	9.614	0.099
89.900	7.288	0.099
90.000	16.368	0.099
90.100	18.549	0.099
90.200	26.598	0.099
90.300	6.071	0.099
90.400	24.720	0.099
90.500	20.977	0.099
90.600	18.462	0.099
90.700	4.241	0.099
90.800	22.355	0.099
90.900	7.041	0.099
91.000	-3.655	0.099
91.100	-8.235	0.099
91.200	0.034	0.099
91.300	1.680	0.099
91.400	4.773	0.099
91.500	-23.931	0.099
91.600	-6.316	0.099
91.700	0.727	0.099
91.800	-18.973	0.099
91.900	-12.662	0.099
92.000	-20.027	0.099
92.100	-11.770	0.099
92.200	-32.526	0.099
92.300	-17.285	0.099
92.400	-26.140	0.099
92.500	-23.935	0.099
92.600	-15.861	0.099
92.700	-28.520	0.099
92.800	-9.515	0.099
92.900	-25.982	0.099
93.000	-31.782	0.099
93.100	-23.763	0.099
93.200	-24.027	0.099
93.300	-23.721	0.099
93.400	-47.031	0.099
93.500	-46.284	0.099
93.600	-32.880	0.099
93.700	-42.488	0.099
93.800	-40.039	0.099
93.900	-33.137	0.099
94.000	-28.995	0.099
94.100	-31.145	0.099
94.200	-26.227	0.099
94.300	-35.128	0.099
94.400	-33.254	0.099
94.500	-41.390	0.099
94.600	-39.425	0.099
94.700	-26.777	0.099
94.800	-29.047	0.099
94.900	-39.831	0.099
95.000	-34.694	0.099
95.100	-31.791	0.099
95.200	-41.624	0.099
95.300	-38.265	0.099
95.400	-42.285	0.099
95.500	-37.396	0.099
95.600	-38.271	0.099
95.700	-35.454	0.099
95.800	-25.212	0.099
95.900	-36.831	0.099
96.000	-34.305	0.099
96.100	-27.819	0.099
96.200	-32.275	0.099
96.300	-36.268	0.099
96.400	-22.579	0.099
96.500	-48.641	0.099
96.600	-35.345	0.099
96.700	-37.629	0.099
96.800	-27.881	0.099
96.900	-28.915	0.099
97.000	-29.277	0.099
97.100	-34.821	0.099
97.200	-23.509	0.099
97.300	-34.967	0.099
97.400	-25.356	0.099
97.500	-25.165	0.099
97.600	-33.924	0.099
97.700	-34.366	0.099
97.800	-23.797	0.099
97.900	-30.769	0.099
98.000	-32.242	0.099
98.100	-17.823	0.099
98.200	-27.436	0.099
98.300	-32.395	0.099
98.400	-26.152	0.099
98.500	-36.125	0.099
98.600	-12.722	0.099
98.700	-23.072	0.099
98.800	-25.482	0.099
98.900	-29.560	0.099
99.000	-24.911	0.099
99.100	-15.954	0.099
99.200	-25.826	0.099
99.300	-14.843	0.099
99.400	-20.778	0.099
99.500	-24.308	0.099
99.600	-18.766	0.099
99.700	-19.859	0.099
99.800	-21.386	0.099
99.900	-23.782	0.099
100.000	-13.999	0.099
100.100	-8.099	0.099
100.200	-17.484	0.099
100.300	-9.884	0.099
100.400	-20.156	0.099
100.500	-24.169	0.099
100.600	-8.563	0.099
100.700	-13.843	0.099
100.800	-4.998	0.099
100.900	-25.795	0.099
101.000	-5.531	0.099
101.100	-16.085	0.099
101.200	-22.596	0.099
101.300	-3.859	0.099
101.400	-21.774	0.099
101.500	-23.237	0.099
101.600	-4.073	0.099
101.700	-15.207	0.099
101.800	-6.341	0.099
101.900	-9.538	0.099
102.000	-7.234	0.099
102.100	-17.604	0.099
102.200	-21.054	0.099
102.300	-18.226	0.099
102.400	-17.223	0.099
102.500	-19.971	0.099
102.600	6.857	0.099
102.700	-9.490	0.099
102.800	-5.655	0.099
102.900	-1.101	0.099
103.000	1.332	0.099
103.100	-11.540	0.099
103.200	-11.225	0.099
103.300	-8.208	0.099
103.400	-8.805	0.099
103.500	-10.137	0.099
103.600	8.565	0.099
103.700	-5.248	0.099
103.800	-16.696	0.099
103.900	-12.828	0.099
104.000	-2.350	0.099
104.100	-8.520	0.099
104.200	-1.570	0.099
104.300	-13.843	0.099
104.400	6.949	0.099
104.500	-19.906	0.099
104.600	-19.626	0.099
104.700	-7.144	0.099
104.800	-13.261	0.099
104.900	-5.444	0.099
105.000	-0.069	0.099
105.100	-0.654	0.099
105.200	-4.393	0.099
105.300	1.322	0.099
105.400	-6.753	0.099
105.500	-4.572	0.099
105.600	-3.450	0.099
105.700	11.731	0.099
105.800	-8.916	0.099
105.900	-6.477	0.099
106.000	-7.493	0.099
106.100	-0.337	0.099
106.200	5.271	0.099
106.300	8.105	0.099
106.400	-8.354	0.099
106.500	4.023	0.099
106.600	-11.566	0.099
106.700	-15.522	0.099
106.800	-4.666	0.099
106.900	-1.794	0.099
107.000	7.005	0.099
107.100	-4.794	0.099
107.200	6.626	0.099
107.300	-7.861	0.099
107.400	-3.836	0.099
107.500	1.199	0.099
107.600	-7.578	0.099
107.700	2.745	0.099
107.800	-6.631	0.099
107.900	-8.744	0.099
108.000	-12.674	0.099
108.100	-10.834	0.099
108.200	-10.641	0.099
108.300	5.076	0.099
108.400	-1.104	0.099
108.500	-5.914	0.099
108.600	-0.944	0.099
108.700	-0.658	0.099
108.800	-0.845	0.099
108.900	3.802	0.099
109.000	-10.479	0.099
109.100	0.991	0.099
109.200	-2.409	0.099
109.300	8.389	0.099
109.400	-5.161	0.099
109.500	-10.053	0.099
109.600	7.246	0.099
109.700	-3.579	0.099
109.800	-6.593	0.099
109.900	7.318	0.099
110.000	0.105	0.099
110.100	-13.117	0.099
110.200	4.117	0.099
110.300	-3.267	0.099
110.400	-2.736	0.099
110.500	-0.577	0.099
110.600	4.381	0.099
110.700	-2.089	0.099
110.800	4.354	0.099
110.900	-3.795	0.099
111.000	-11.818	0.099
111.100	-6.530	0.099
111.200	30.443	0.099
111.300	-13.075	0.099
111.400	-10.114	0.099
111.500	-7.098	0.099
111.600	2.776	0.099
111.700	-15.213	0.099
111.800	-5.439	0.099
111.900	5.106	0.099
112.000	19.608	0.099
112.100	-12.294	0.099
112.200	-5.699	0.099
112.300	1.168	0.099
112.400	1.237	0.099
112.500	6.123	0.099
112.600	-10.826	0.099
112.700	-6.935	0.099
112.800	-1.745	0.099
112.900	-8.264	0.099
113.000	-5.487	0.099
113.100	8.027	0.099
113.200	8.399	0.099
113.300	-7.474	0.099
113.400	-10.731	0.099
113.500	12.012	0.099
113.600	2.961	0.099
113.700	18.969	0.099
113.800	-18.737	0.099
113.900	-0.884	0.099
114.000	10.880	0.099
114.100	-10.383	0.099
114.200	-8.525	0.099
114.300	-4.726	0.099
114.400	-20.449	0.099
114.500	-4.967	0.099
114.600	-8.951	0.099
114.700	-5.147	0.099
114.800	5.123	0.099
114.900	2.492	0.099
115.000	4.429	0.099
115.100	-2.779	0.099
115.200	-9.180	0.099
115.300	-3.157	0.099
115.400	0.866	0.099
115.500	-10.215	0.099
115.600	4.334	0.099
115.700	-4.721	0.099
115.800	-0.479	0.099
115.900	-8.580	0.099
116.000	15.767	0.099
116.100	-12.886	0.099
116.200	-2.114	0.099
116.300	0.726	0.099
116.400	-13.025	0.099
116.500	-6.476	0.099
116.600	-9.954	0.099
116.700	-9.773	0.099
116.800	5.945	0.099
116.900	-2.320	0.099
117.000	-7.478	0.099
117.100	1.754	0.099
117.200	-15.838	0.099
117.300	0.749	0.099
117.400	-5.182	0.099
117.500	2.314	0.099
117.600	8.006	0.099
117.700	-5.723	0.099
117.800	-3.412	0.099
117.900	-10.649	0.099
118.000	6.936	0.099
118.100	-6.543	0.099
118.200	4.299	0.099
118.300	-18.742	0.099
118.400	-8.133	0.099
118.500	-10.757	0.099
118.600	-7.036	0.099
118.700	12.589	0.099
118.800	12.830	0.099
118.900	1.250	0.099
119.000	8.415	0.099
119.100	3.337	0.099
119.200	-8.565	0.099
119.300	-3.437	0.099
119.400	-0.477	0.099
119.500	4.858	0.099
119.600	-2.370	0.099
119.700	3.221	0.099
119.800	-11.427	0.099
119.900	6.815	0.099
120.000	0.487	0.099
120.100	-13.661	0.099
120.200	3.952	0.099
120.300	0.170	0.099
120.400	0.399	0.099
120.500	-3.629	0.099
120.600	1.054	0.099
120.700	-8.432	0.099
120.800	-4.956	0.099
120.900	7.666	0.099
121.000	0.823	0.099
121.100	0.543	0.099
121.200	13.893	0.099
121.300	-1.612	0.099
121.400	-7.403	0.099
121.500	5.859	0.099
121.600	-10.559	0.099
121.700	10.922	0.099
121.800	7.403	0.099
121.900	-5.950	0.099
122.000	-4.387	0.099
122.100	-16.733	0.099
122.200	-4.708	0.099
122.300	-6.610	0.099
122.400	-9.124	0.099
122.500	-12.912	0.099
122.600	4.358	0.099
122.700	-7.112	0.099
122.800	12.178	0.099
122.900	-4.294	0.099
123.000	7.989	0.099
123.100	-3.896	0.099
123.200	-9.498	0.099
123.300	-8.866	0.099
123.400	4.914	0.099
123.500	-10.036	0.099
123.600	11.109	0.099
123.700	-6.053	0.099
123.800	-4.762	0.099
123.900	-16.338	0.099
124.000	-15.952	0.099
124.100	-4.672	0.099
124.200	-5.841	0.099
124.300	2.443	0.099
124.400	-1.870	0.099
124.500	1.687	0.099
124.600	2.933	0.099
124.700	-7.327	0.099
124.800	12.554	0.099
124.900	-12.186	0.099
125.000	5.728	0.099
125.100	-1.066	0.099
125.200	-18.008	0.099
125.300	0.111	0.099
125.400	5.727	0.099
125.500	5.312	0.099
125.600	0.897	0.099
125.700	4.556	0.099
125.800	-3.661	0.099
125.900	-17.297	0.099
126.000	-1.651	0.099
126.100	-6.371	0.099
126.200	-4.494	0.099
126.300	-12.290	0.099
126.400	-9.749	0.099
126.500	2.833	0.099
126.600	7.803	0.099
126.700	-4.181	0.099
126.800	-12.359	0.099
126.900	2.801	0.099
127.000	-4.713	0.099
127.100	-2.245	0.099
127.200	-14.416	0.099
127.300	-2.351	0.099
127.400	-4.795	0.099
127.500	16.977	0.099
127.600	-10.359	0.099
127.700	6.315	0.099
127.800	4.196	0.099
127.900	0.967	0.099
128.000	2.219	0.099
128.100	-23.478	0.099
128.200	-14.164	0.099
128.300	-2.162	0.099
128.400	2.304	0.099
128.500	-9.674	0.099
128.600	-2.600	0.099
128.700	-3.059	0.099
128.800	-9.137	0.099
128.900	-5.748	0.099
129.000	5.426	0.099
129.100	-10.524	0.099
129.200	4.706	0.099
129.300	12.660	0.099
129.400	-3.508	0.099
129.500	-7.008	0.099
129.600	-4.242	0.099
129.700	11.011	0.099
129.800	-10.830	0.099
129.900	-13.212	0.099
130.000	6.972	0.099
130.100	-0.153	0.099
130.200	-4.418	0.099
130.300	11.647	0.099
130.400	1.911	0.099
130.500	-1.844	0.099
130.600	10.498	0.099
130.700	6.569	0.099
130.800	-7.776	0.099
130.900	-7.840	0.099
131.000	-15.202	0.099
131.100	-11.046	0.099
131.200	-17.471	0.099
131.300	-0.090	0.099
131.400	7.623	0.099
131.500	-0.234	0.099
131.600	-3.721	0.099
131.700	-11.705	0.099
131.800	-15.875	0.099
131.900	-1.301	0.099
132.000	2.861	0.099
132.100	8.720	0.099
132.200	-1.246	0.099
132.300	3.608	0.099
132.400	-4.097	0.099
132.500	12.985	0.099
132.600	-7.011	0.099
132.700	-2.490	0.099
132.800	-5.723	0.099
132.900	-7.519	0.099
133.000	-2.333	0.099
133.100	-1.575	0.099
133.200	-15.446	0.099
133.300	-0.022	0.099
133.400	-6.533	0.099
133.500	-2.728	0.099
133.600	-18.418	0.099
133.700	-10.311	0.099
133.800	0.211	0.099
133.900	0.228	0.099
134.000	-8.042	0.099
134.100	-1.588	0.099
134.200	-12.027	0.099
134.300	-6.485	0.099
134.400	6.338	0.099
134.500	-1.270	0.099
134.600	10.666	0.099
134.700	-6.836	0.099
134.800	-5.902	0.099
134.900	-5.624	0.099
135.000	0.444	0.099
135.100	-9.143	0.099
135.200	-12.762	0.099
135.300	8.361	0.099
135.400	8.347	0.099
135.500	2.190	0.099
135.600	-9.612	0.099
135.700	-6.087	0.099
135.800	-9.004	0.099
135.900	7.148	0.099
136.000	-4.326	0.099
136.100	-4.969	0.099
136.200	3.482	0.099
136.300	-5.084	0.099
136.400	5.877	0.099
136.500	-5.434	0.099
136.600	-5.357	0.099
136.700	2.340	0.099
136.800	4.187	0.099
136.900	-9.534	0.099
137.000	0.946	0.099
137.100	0.790	0.099
137.200	-4.113	0.099
137.300	7.979	0.099
137.400	-9.332	0.099
137.500	-17.659	0.099
137.600	-5.042	0.099
137.700	7.841	0.099
137.800	0.360	0.099
137.900	6.464	0.099
138.000	9.071	0.099
138.100	15.143	0.099
138.200	1.246	0.099
138.300	-2.166	0.099
138.400	10.610	0.099
138.500	-10.222	0.099
138.600	0.844	0.099
138.700	-5.929	0.099
138.800	-10.877	0.099
138.900	-1.908	0.099
139.000	-4.978	0.099
139.100	-2.880	0.099
139.200	-11.762	0.099
139.300	5.701	0.099
139.400	-5.777	0.099
139.500	-2.762	0.099
139.600	-0.474	0.099
139.700	8.113	0.099
139.800	2.903	0.099
139.900	-1.690	0.099
140.000	-1.373	0.099
140.100	-10.413	0.099
140.200	-1.792	0.099
140.300	6.751	0.099
140.400	3.923	0.099
140.500	-17.077	0.099
140.600	-0.280	0.099
140.700	3.056	0.099
140.800	-1.700	0.099
140.900	-15.117	0.099
141.000	11.202	0.099
141.100	3.867	0.099
141.200	0.923	0.099
141.300	-15.473	0.099
141.400	5.934	0.099
141.500	-5.788	0.099
141.600	5.711	0.099
141.700	3.103	0.099
141.800	6.894	0.099
141.900	-3.999	0.099
142.000	-4.463	0.099
142.100	-14.717	0.099
142.200	-12.458	0.099
142.300	-17.509	0.099
142.400	3.357	0.099
142.500	1.079	0.099
142.600	5.063	0.099
142.700	11.304	0.099
142.800	-10.009	0.099
142.900	-0.641	0.099
143.000	-11.547	0.099
143.100	-0.870	0.099
143.200	5.742	0.099
143.300	-5.335	0.099
143.400	8.786	0.099
143.500	-15.217	0.099
143.600	-11.941	0.099
143.700	4.312	0.099
143.800	-14.693	0.099
143.900	2.079	0.099
144.000	0.483	0.099
144.100	-1.952	0.099
144.200	-9.470	0.099
144.300	-7.172	0.099
144.400	-24.427	0.099
144.500	-3.503	0.099
144.600	-2.633	0.099
144.700	2.266	0.099
144.800	4.989	0.099
144.900	-14.898	0.099
145.000	-6.329	0.099
145.100	-17.226	0.099
145.200	4.206	0.099
145.300	-1.287	0.099
145.400	9.305	0.099
145.500	-5.078	0.099
145.600	6.265	0.099
145.700	-0.559	0.099
145.800	5.066	0.099
145.900	-0.804	0.099
146.000	6.130	0.099
146.100	7.829	0.099
146.200	1.526	0.099
146.300	-0.964	0.099
146.400	1.792	0.099
146.500	-7.582	0.099
146.600	7.336	0.099
146.700	-28.004	0.099
146.800	-8.551	0.099
146.900	-4.705	0.099
147.000	7.973	0.099
147.100	-0.344	0.099
147.200	-0.813	0.099
147.300	7.911	0.099
147.400	-14.083	0.099
147.500	-5.974	0.099
147.600	-4.845	0.099
147.700	1.285	0.099
147.800	2.693	0.099
147.900	-1.828	0.099
148.000	-6.760	0.099
148.100	3.251	0.099
148.200	-5.264	0.099
148.300	-0.218	0.099
148.400	0.356	0.099
148.500	-0.531	0.099
148.600	-3.226	0.099
148.700	7.234	0.099
148.800	-5.004	0.099
148.900	-15.516	0.099
149.000	-12.699	0.099
149.100	13.838	0.099
149.200	2.608	0.099
149.300	-8.726	0.099
149.400	-5.398	0.099
149.500	-8.282	0.099
149.600	-8.295	0.099
149.700	5.949	0.099
149.800	5.834	0.099
149.900	-8.376	0.099
150.000	-15.858	0.099
150.100	1.361	0.099
150.200	-1.069	0.099
150.300	0.270	0.099
150.400	-4.073	0.099
150.500	-15.631	0.099
150.600	13.898	0.099
150.700	-5.929	0.099
150.800	-10.467	0.099
150.900	-7.666	0.099
151.000	-11.399	0.099
151.100	1.228	0.099
151.200	-8.306	0.099
151.300	-1.748	0.099
151.400	0.832	0.099
151.500	-5.441	0.099
151.600	9.910	0.099
151.700	3.755	0.099
151.800	-14.911	0.099
151.900	4.056	0.099
152.000	-2.992	0.099
152.100	-3.475	0.099
152.200	-10.379	0.099
152.300	8.575	0.099
152.400	9.731	0.099
152.500	5.355	0.099
152.600	-0.538	0.099
152.700	-0.052	0.099
152.800	-7.358	0.099
152.900	6.343	0.099
153.000	14.107	0.099
153.100	-4.305	0.099
153.200	2.001	0.099
153.300	-3.883	0.099
153.400	-9.816	0.099
153.500	6.610	0.099
153.600	-7.593	0.099
153.700	0.819	0.099
153.800	-3.894	0.099
153.900	-7.535	0.099
154.000	-16.586	0.099
154.100	-3.089	0.099
154.200	5.425	0.099
154.300	-16.409	0.099
154.400	-2.954	0.099
154.500	6.344	0.099
154.600	-8.253	0.099
154.700	-1.295	0.099
154.800	-5.604	0.099
154.900	-1.839	0.099
155.000	3.121	0.099
155.100	-4.366	0.099
155.200	-16.784	0.099
155.300	3.190	0.099
155.400	1.705	0.099
155.500	-4.700	0.099
155.600	0.319	0.099
155.700	-10.627	0.099
155.800	-6.251	0.099
155.900	-3.916	0.099
156.000	-2.522	0.099
156.100	-11.406	0.099
156.200	-6.013	0.099
156.300	6.771	0.099
156.400	-1.598	0.099
156.500	-0.703	0.099
156.600	-6.981	0.099
156.700	-16.508	0.099
156.800	-10.358	0.099
156.900	-3.576	0.099
157.000	-0.478	0.099
157.100	-5.929	0.099
157.200	8.076	0.099
157.300	-4.763	0.099
157.400	2.254	0.099
157.500	-3.765	0.099
157.600	-3.100	0.099
157.700	6.529	0.099
157.800	-7.076	0.099
157.900	1.586	0.099
158.000	-4.043	0.099
158.100	-1.034	0.099
158.200	6.272	0.099
158.300	0.464	0.099
158.400	3.553	0.099
158.500	-9.823	0.099
158.600	13.752	0.099
158.700	-2.662	0.099
158.800	5.018	0.099
158.900	-7.425	0.099
159.000	2.040	0.099
159.100	-2.837	0.099
159.200	-14.457	0.099
159.300	12.165	0.099
159.400	-0.774	0.099
159.500	-8.603	0.099
159.600	29.731	0.099
159.700	-15.449	0.099
159.800	2.652	0.099
159.900	-14.698	0.099
160.000	4.504	0.099
160.100	-0.424	0.099
160.200	-3.128	0.099
160.300	3.152	0.099
160.400	-2.290	0.099
160.500	-8.542	0.099
160.600	-4.831	0.099
160.700	-1.309	0.099
160.800	-5.432	0.099
160.900	-5.534	0.099
161.000	1.868	0.099
161.100	-1.633	0.099
161.200	-5.871	0.099
161.300	16.239	0.099
161.400	-1.290	0.099
161.500	-8.116	0.099
161.600	7.289	0.099
161.700	1.140	0.099
161.800	6.386	0.099
161.900	3.432	0.099
162.000	1.728	0.099
162.100	2.325	0.099
162.200	-3.906	0.099
162.300	0.208	0.099
162.400	10.350	0.099
162.500	-0.693	0.099
162.600	-8.006	0.099
162.700	-5.475	0.099
162.800	-6.670	0.099
162.900	-22.927	0.099
163.000	-1.065	0.099
163.100	-4.938	0.099
163.200	-0.698	0.099
163.300	1.604	0.099
163.400	-4.201	0.099
163.500	4.777	0.099
163.600	-1.955	0.099
163.700	1.929	0.099
163.800	-0.021	0.099
163.900	-6.430	0.099
164.000	-3.069	0.099
164.100	4.125	0.099
164.200	-0.014	0.099
164.300	0.532	0.099
164.400	-3.621	0.099
164.500	2.536	0.099
164.600	-3.655	0.099
164.700	-5.920	0.099
164.800	3.963	0.099
164.900	1.668	0.099
165.000	15.902	0.099
165.100	2.927	0.099
165.200	1.970	0.099
165.300	-10.761	0.099
165.400	-7.804	0.099
165.500	-10.736	0.099
165.600	1.548	0.099
165.700	2.041	0.099
165.800	-19.468	0.099
165.900	-7.530	0.099
166.000	3.023	0.099
166.100	6.251	0.099
166.200	-8.775	0.099
166.300	-10.944	0.099
166.400	5.677	0.099
166.500	-13.629	0.099
166.600	8.701	0.099
166.700	-12.248	0.099
166.800	-4.896	0.099
166.900	-12.588	0.099
167.000	0.449	0.099
167.100	-5.707	0.099
167.200	-2.296	0.099
167.300	-4.261	0.099
167.400	5.511	0.099
167.500	8.054	0.099
167.600	-6.858	0.099
167.700	2.568	0.099
167.800	5.346	0.099
167.900	-14.024	0.099
168.000	6.277	0.099
168.100	1.044	0.099
168.200	-6.746	0.099
168.300	-12.992	0.099
168.400	-15.348	0.099
168.500	5.174	0.099
168.600	2.914	0.099
168.700	-2.392	0.099
168.800	5.353	0.099
168.900	-0.601	0.099
169.000	1.685	0.099
169.100	7.022	0.099
169.200	-6.927	0.099
169.300	2.370	0.099
169.400	-10.630	0.099
169.500	16.690	0.099
169.600	-4.957	0.099
169.700	-12.037	0.099
169.800	-2.260	0.099
169.900	9.907	0.099
170.000	11.334	0.099
170.100	2.670	0.099
170.200	11.906	0.099
170.300	12.029	0.099
170.400	4.369	0.099
170.500	-8.526	0.099
170.600	3.619	0.099
170.700	-15.578	0.099
170.800	14.338	0.099
170.900	-10.476	0.099
171.000	-7.874	0.099
171.100	-5.010	0.099
171.200	-8.471	0.099
171.300	4.972	0.099
171.400	0.114	0.099
171.500	-13.824	0.099
171.600	-17.196	0.099
171.700	7.879	0.099
171.800	8.387	0.099
171.900	-3.680	0.099
172.000	7.736	0.099
172.100	16.968	0.099
172.200	10.649	0.099
172.300	3.094	0.099
172.400	11.267	0.099
172.500	-3.170	0.099
172.600	6.558	0.099
172.700	-7.366	0.099
172.800	4.923	0.099
172.900	7.586	0.099
173.000	0.815	0.099
173.100	-8.560	0.099
173.200	-2.659	0.099
173.300	-13.661	0.099
173.400	1.567	0.099
173.500	4.780	0.099
173.600	-8.081	0.099
173.700	4.532	0.099
173.800	-1.843	0.099
173.900	-10.999	0.099
174.000	3.096	0.099
174.100	6.682	0.099
174.200	3.945	0.099
174.300	-1.193	0.099
174.400	8.124	0.099
174.500	-0.308	0.099
174.600	5.464	0.099
174.700	0.270	0.099
174.800	-6.834	0.099
174.900	-16.447	0.099
175.000	3.394	0.099
175.100	13.456	0.099
175.200	-6.295	0.099
175.300	-10.064	0.099
175.400	-2.946	0.099
175.500	2.199	0.099
175.600	1.263	0.099
175.700	1.410	0.099
175.800	-17.480	0.099
175.900	1.216	0.099
176.000	-3.446	0.099
176.100	2.525	0.099
176.200	16.095	0.099
176.300	1.153	0.099
176.400	-1.631	0.099
176.500	-2.443	0.099
176.600	4.509	0.099
176.700	13.848	0.099
176.800	-6.178	0.099
176.900	6.647	0.099
177.000	-3.525	0.099
177.100	14.703	0.099
177.200	-12.534	0.099
177.300	-20.144	0.099
177.400	-5.434	0.099
177.500	-6.937	0.099
177.600	-4.458	0.099
177.700	-0.637	0.099
177.800	3.908	0.099
177.900	-4.060	0.099
178.000	0.779	0.099
178.100	-12.942	0.099
178.200	0.113	0.099
178.300	1.560	0.099
178.400	-0.169	0.099
178.500	-7.668	0.099
178.600	-7.666	0.099
178.700	-2.910	0.099
178.800	-6.475	0.099
178.900	-13.675	0.099
179.000	7.317	0.099
179.100	14.376	0.099
179.200	-11.387	0.099
179.300	0.656	0.099
179.400	3.169	0.099
179.500	-16.801	0.099
179.600	-0.270	0.099
179.700	6.790	0.099
179.800	13.490	0.099
179.900	-2.856	0.099
180.000	-6.198	0.099
180.100	4.225	0.099
180.200	-11.969	0.099
180.300	1.277	0.099
180.400	-0.033	0.099
180.500	2.996	0.099
180.600	6.154	0.099
180.700	9.736	0.099
180.800	18.463	0.099
180.900	11.040	0.099
181.000	33.430	0.099
181.100	21.200	0.099
181.200	17.664	0.099
181.300	16.998	0.099
181.400	32.297	0.099
181.500	19.410	0.099
181.600	27.405	0.099
181.700	28.120	0.099
181.800	35.799	0.099
181.900	37.382	0.099
182.000	36.430	0.099
182.100	25.975	0.099
182.200	27.835	0.099
182.300	27.441	0.099
182.400	17.057	0.099
182.500	35.843	0.099
182.600	30.401	0.099
182.700	35.331	0.099
182.800	20.086	0.099
182.900	35.464	0.099
183.000	33.587	0.099
183.100	43.819	0.099
183.200	26.086	0.099
183.300	29.163	0.099
183.400	16.768	0.099
183.500	13.664	0.099
183.600	29.792	0.099
183.700	32.203	0.099
183.800	35.678	0.099
183.900	32.738	0.099
184.000	33.234	0.099
184.100	38.667	0.099
184.200	30.365	0.099
184.300	21.871	0.099
184.400	31.203	0.099
184.500	31.354	0.099
184.600	27.365	0.099
184.700	27.326	0.099
184.800	31.403	0.099
184.900	42.851	0.099
185.000	27.243	0.099
185.100	15.520	0.099
185.200	28.456	0.099
185.300	38.737	0.099
185.400	22.606	0.099
185.500	32.658	0.099
185.600	27.940	0.099
185.700	13.404	0.099
185.800	25.796	0.099
185.900	17.809	0.099
186.000	27.552	0.099
186.100	32.922	0.099
186.200	23.536	0.099
186.300	22.838	0.099
186.400	25.357	0.099
186.500	16.153	0.099
186.600	25.480	0.099
186.700	19.804	0.099
186.800	35.778	0.099
186.900	24.510	0.099
187.000	16.985	0.099
187.100	9.892	0.099
187.200	29.010	0.099
187.300	27.183	0.099
187.400	23.349	0.099
187.500	25.746	0.099
187.600	34.208	0.099
187.700	17.805	0.099
187.800	20.615	0.099
187.900	25.841	0.099
188.000	34.561	0.099
188.100	18.717	0.099
188.200	41.026	0.099
188.300	33.078	0.099
188.400	32.581	0.099
188.500	22.740	0.099
188.600	15.610	0.099
188.700	33.795	0.099
188.800	19.148	0.099
188.900	48.756	0.099
189.000	10.942	0.099
189.100	33.321	0.099
189.200	28.585	0.099
189.300	2.829	0.099
189.400	35.082	0.099
189.500	40.358	0.099
189.600	34.670	0.099
189.700	29.206	0.099
189.800	22.925	0.099
189.900	30.503	0.099
190.000	55.125	0.099
190.100	37.508	0.099
190.200	24.196	0.099
190.300	39.317	0.099
190.400	31.835	0.099
190.500	26.607	0.099
190.600	49.990	0.099
190.700	34.624	0.099
190.800	24.880	0.099
190.900	36.122	0.099
191.000	26.685	0.099
191.100	43.589	0.099
191.200	23.779	0.099
191.300	49.832	0.099
191.400	19.941	0.099
191.500	29.042	0.099
191.600	28.552	0.099
191.700	39.634	0.099
191.800	32.174	0.099
191.900	24.900	0.099
192.000	33.461	0.099
192.100	26.889	0.099
192.200	41.396	0.099
192.300	46.009	0.099
192.400	22.620	0.099
192.500	41.355	0.099
192.600	35.583	0.099
192.700	34.326	0.099
192.800	32.004	0.099
192.900	34.152	0.099
193.000	37.196	0.099
193.100	21.885	0.099
193.200	42.219	0.099
193.300	44.688	0.099
193.400	26.246	0.099
193.500	33.244	0.099
193.600	36.867	0.099
193.700	43.511	0.099
193.800	50.148	0.099
193.900	33.430	0.099
194.000	22.031	0.099
194.100	23.200	0.099
194.200	39.011	0.099
194.300	43.975	0.099
194.400	39.478	0.099
194.500	43.135	0.099
194.600	35.451	0.099
194.700	29.105	0.099
194.800	35.290	0.099
194.900	33.372	0.099
195.000	44.025	0.099
195.100	32.566	0.099
195.200	34.007	0.099
195.300	25.967	0.099
195.400	35.656	0.099
195.500	34.820	0.099
195.600	40.085	0.099
195.700	39.844	0.099
195.800	23.751	0.099
195.900	58.108	0.099
196.000	44.762	0.099
196.100	31.252	0.099
196.200	34.783	0.099
196.300	13.010	0.099
196.400	39.820	0.099
196.500	25.878	0.099
196.600	26.343	0.099
196.700	27.514	0.099
196.800	22.530	0.099
196.900	24.475	0.099
197.000	26.916	0.099
197.100	34.859	0.099
197.200	46.272	0.099
197.300	22.867	0.099
197.400	18.322	0.099
197.500	16.486	0.099
197.600	29.578	0.099
197.700	33.400	0.099
197.800	38.863	0.099
197.900	32.488	0.099
198.000	22.930	0.099
198.100	23.186	0.099
198.200	30.242	0.099
198.300	49.228	0.099
198.400	33.220	0.099
198.500	31.933	0.099
198.600	30.849	0.099
198.700	11.205	0.099
198.800	41.585	0.099
198.900	24.247	0.099
199.000	27.984	0.099
199.100	33.432	0.099
199.200	26.778	0.099
199.300	34.216	0.099
199.400	29.732	0.099
199.500	25.792	0.099
199.600	14.331	0.099
199.700	39.302	0.099
199.800	29.653	0.099
199.900	26.119	0.099
200.000	24.332	0.099
200.100	17.837	0.099
200.200	27.080	0.099
200.300	16.276	0.099
200.400	24.971	0.099
200.500	16.133	0.099
200.600	23.324	0.099
200.700	26.628	0.099
200.800	33.206	0.099
200.900	32.461	0.099
201.000	27.686	0.099
201.100	34.817	0.099
201.200	28.565	0.099
201.300	28.497	0.099
201.400	33.142	0.099
201.500	23.948	0.099
201.600	25.345	0.099
201.700	21.096	0.099
201.800	24.435	0.099
201.900	29.461	0.099
202.000	40.541	0.099
202.100	9.659	0.099
202.200	21.618	0.099
202.300	24.510	0.099
202.400	35.528	0.099
202.500	38.350	0.099
202.600	27.689	0.099
202.700	28.374	0.099
202.800	36.394	0.099
202.900	22.907	0.099
203.000	31.169	0.099
203.100	29.315	0.099
203.200	42.727	0.099
203.300	25.376	0.099
203.400	23.424	0.099
203.500	22.191	0.099
203.600	28.239	0.099
203.700	19.246	0.099
203.800	11.633	0.099
203.900	25.258	0.099
204.000	24.723	0.099
204.100	11.801	0.099
204.200	8.426	0.099
204.300	26.991	0.099
204.400	16.503	0.099
204.500	14.795	0.099
204.600	28.769	0.099
204.700	36.599	0.099
204.800	24.011	0.099
204.900	10.670	0.099
205.000	27.776	0.099
205.100	15.094	0.099
205.200	20.555	0.099
205.300	8.913	0.099
205.400	23.380	0.099
205.500	21.684	0.099
205.600	21.244	0.099
205.700	20.984	0.099
205.800	10.231	0.099
205.900	27.615	0.099
206.000	27.936	0.099
206.100	37.774	0.099
206.200	18.814	0.099
206.300	20.685	0.099
206.400	25.650	0.099
206.500	16.742	0.099
206.600	27.367	0.099
206.700	20.845	0.099
206.800	30.811	0.099
206.900	26.022	0.099
207.000	26.012	0.099
207.100	30.717	0.099
207.200	17.710	0.099
207.300	25.253	0.099
207.400	24.511	0.099
207.500	17.978	0.099
207.600	15.901	0.099
207.700	20.106	0.099
207.800	10.548	0.099
207.900	23.935	0.099
208.000	29.308	0.099
208.100	31.894	0.099
208.200	7.526	0.099
208.300	26.545	0.099
208.400	33.311	0.099
208.500	28.541	0.099
208.600	22.544	0.099
208.700	23.793	0.099
208.800	3.014	0.099
208.900	29.487	0.099
209.000	22.566	0.099
209.100	20.775	0.099
209.200	17.673	0.099
209.300	27.583	0.099
209.400	25.432	0.099
209.500	21.772	0.099
209.600	27.075	0.099
209.700	23.991	0.099
209.800	29.326	0.099
209.900	18.446	0.099
210.000	37.249	0.099
210.100	27.089	0.099
210.200	32.108	0.099
210.300	37.328	0.099
210.400	30.309	0.099
210.500	16.926	0.099
210.600	30.384	0.099
210.700	13.251	0.099
210.800	22.736	0.099
210.900	18.493	0.099
211.000	26.997	0.099
211.100	26.706	0.099
211.200	11.886	0.099
211.300	13.821	0.099
211.400	20.009	0.099
211.500	19.931	0.099
211.600	26.612	0.099
211.700	8.816	0.099
211.800	16.568	0.099
211.900	17.497	0.099
212.000	14.137	0.099
212.100	6.336	0.099
212.200	15.126	0.099
212.300	15.421	0.099
212.400	26.871	0.099
212.500	31.307	0.099
212.600	40.475	0.099
212.700	24.785	0.099
212.800	18.307	0.099
212.900	34.130	0.099
213.000	28.997	0.099
213.100	12.205	0.099
213.200	18.406	0.099
213.300	29.040	0.099
213.400	19.252	0.099
213.500	19.639	0.099
213.600	35.516	0.099
213.700	8.979	0.099
213.800	31.810	0.099
213.900	3.470	0.099
214.000	32.658	0.099
214.100	15.397	0.099
214.200	30.635	0.099
214.300	6.696	0.099
214.400	27.497	0.099
214.500	20.290	0.099
214.600	18.460	0.099
214.700	16.207	0.099
214.800	27.789	0.099
214.900	32.953	0.099
215.000	22.439	0.099
215.100	9.541	0.099
215.200	20.263	0.099
215.300	22.537	0.099
215.400	18.979	0.099
215.500	23.645	0.099
215.600	21.054	0.099
215.700	21.269	0.099
215.800	8.206	0.099
215.900	21.178	0.099
216.000	14.066	0.099
216.100	23.679	0.099
216.200	31.886	0.099
216.300	18.252	0.099
216.400	23.632	0.099
216.500	20.841	0.099
216.600	19.343	0.099
216.700	11.431	0.099
216.800	28.202	0.099
216.900	22.352	0.099
217.000	26.773	0.099
217.100	19.504	0.099
217.200	22.395	0.099
217.300	20.597	0.099
217.400	23.757	0.099
217.500	21.343	0.099
217.600	21.130	0.099
217.700	-0.895	0.099
217.800	14.518	0.099
217.900	21.504	0.099
218.000	17.831	0.099
218.100	17.392	0.099
218.200	33.071	0.099
218.300	15.214	0.099
218.400	4.462	0.099
218.500	27.183	0.099
218.600	8.719	0.099
218.700	15.849	0.099
218.800	28.035	0.099
218.900	19.161	0.099
219.000	14.654	0.099
219.100	10.649	0.099
219.200	15.781	0.099
219.300	8.666	0.099
219.400	0.346	0.099
219.500	3.491	0.099
219.600	18.333	0.099
219.700	22.406	0.099
219.800	21.798	0.099
219.900	33.462	0.099
220.000	29.410	0.099
220.100	18.150	0.099
220.200	27.929	0.099
220.300	31.161	0.099
220.400	8.069	0.099
220.500	29.276	0.099
220.600	23.825	0.099
220.700	12.906	0.099
220.800	14.383	0.099
220.900	12.356	0.099
221.000	26.936	0.099
221.100	29.115	0.099
221.200	16.841	0.099
221.300	11.694	0.099
221.400	22.784	0.099
221.500	27.538	0.099
221.600	26.816	0.099
221.700	24.805	0.099
221.800	17.532	0.099
221.900	9.004	0.099
222.000	22.783	0.099
222.100	18.391	0.099
222.200	15.864	0.099
222.300	29.964	0.099
222.400	7.976	0.099
222.500	17.561	0.099
222.600	27.802	0.099
222.700	30.427	0.099
222.800	23.228	0.099
222.900	10.062	0.099
223.000	23.977	0.099
223.100	14.976	0.099
223.200	18.508	0.099
223.300	23.369	0.099
223.400	19.306	0.099
223.500	25.634	0.099
223.600	15.137	0.099
223.700	17.790	0.099
223.800	27.169	0.099
223.900	12.044	0.099
224.000	21.407	0.099
224.100	25.701	0.099
224.200	11.487	0.099
224.300	29.466	0.099
224.400	24.468	0.099
224.500	12.589	0.099
224.600	36.998	0.099
224.700	26.096	0.099
224.800	20.689	0.099
224.900	13.791	0.099
225.000	21.592	0.099
225.100	25.418	0.099
225.200	20.650	0.099
225.300	22.004	0.099
225.400	17.484	0.099
225.500	12.095	0.099
225.600	25.712	0.099
225.700	30.413	0.099
225.800	8.566	0.099
225.900	24.893	0.099
226.000	20.846	0.099
226.100	23.361	0.099
226.200	13.094	0.099
226.300	21.279	0.099
226.400	23.337	0.099
226.500	14.123	0.099
226.600	34.876	0.099
226.700	27.249	0.099
226.800	6.507	0.099
226.900	10.109	0.099
227.000	14.014	0.099
227.100	17.454	0.099
227.200	18.465	0.099
227.300	16.965	0.099
227.400	19.556	0.099
227.500	13.702	0.099
227.600	18.911	0.099
227.700	18.707	0.099
227.800	17.720	0.099
227.900	23.550	0.099
228.000	14.785	0.099
228.100	23.041	0.099
228.200	24.070	0.099
228.300	10.860	0.099
228.400	28.966	0.099
228.500	15.585	0.099
228.600	22.389	0.099
228.700	18.136	0.099
228.800	29.349	0.099
228.900	17.899	0.099
229.000	25.683	0.099
229.100	25.919	0.099
229.200	25.338	0.099
229.300	3.287	0.099
229.400	24.734	0.099
229.500	16.549	0.099
229.600	19.032	0.099
229.700	16.833	0.099
229.800	31.121	0.099
229.900	22.866	0.099
230.000	14.442	0.099
230.100	18.588	0.099
230.200	24.356	0.099
230.300	30.110	0.099
230.400	17.549	0.099
230.500	25.498	0.099
230.600	25.406	0.099
230.700	21.286	0.099
230.800	25.623	0.099
230.900	7.869	0.099
231.000	24.415	0.099
231.100	17.179	0.099
231.200	20.818	0.099
231.300	19.770	0.099
231.400	18.862	0.099
231.500	18.969	0.099
231.600	21.341	0.099
231.700	26.633	0.099
231.800	17.394	0.099
231.900	16.925	0.099
232.000	15.878	0.099
232.100	9.566	0.099
232.200	34.175	0.099
232.300	17.644	0.099
232.400	26.627	0.099
232.500	10.996	0.099
232.600	29.346	0.099
232.700	6.385	0.099
232.800	17.395	0.099
232.900	26.463	0.099
233.000	16.489	0.099
233.100	19.777	0.099
233.200	17.219	0.099
233.300	23.600	0.099
233.400	19.898	0.099
233.500	14.740	0.099
233.600	11.499	0.099
233.700	11.186	0.099
233.800	16.854	0.099
233.900	11.730	0.099
234.000	18.936	0.099
234.100	11.666	0.099
234.200	20.622	0.099
234.300	25.570	0.099
234.400	24.048	0.099
234.500	17.309	0.099
234.600	12.235	0.099
234.700	18.473	0.099
234.800	19.386	0.099
234.900	22.856	0.099
235.000	21.835	0.099
235.100	21.172	0.099
235.200	29.064	0.099
235.300	17.022	0.099
235.400	8.449	0.099
235.500	10.573	0.099
235.600	30.985	0.099
235.700	9.877	0.099
235.800	34.162	0.099
235.900	8.195	0.099
236.000	6.510	0.099
236.100	17.421	0.099
236.200	26.916	0.099
236.300	12.638	0.099
236.400	23.256	0.099
236.500	20.569	0.099
236.600	28.324	0.099
236.700	12.481	0.099
236.800	28.089	0.099
236.900	13.292	0.099
237.000	23.684	0.099
237.100	28.724	0.099
237.200	17.198	0.099
237.300	26.931	0.099
237.400	22.254	0.099
237.500	34.385	0.099
237.600	28.790	0.099
237.700	29.995	0.099
237.800	19.269	0.099
237.900	38.806	0.099
238.000	24.826	0.099
238.100	32.756	0.099
238.200	12.925	0.099
238.300	21.424	0.099
238.400	21.712	0.099
238.500	15.976	0.099
238.600	12.961	0.099
238.700	14.208	0.099
238.800	6.918	0.099
238.900	16.967	0.099
239.000	25.582	0.099
239.100	9.459	0.099
239.200	25.616	0.099
239.300	16.761	0.099
239.400	23.667	0.099
239.500	7.738	0.099
239.600	20.392	0.099
239.700	10.223	0.099
239.800	22.972	0.099
239.900	11.387	0.099
240.000	11.486	0.099
240.100	15.144	0.099
240.200	22.366	0.099
240.300	6.845	0.099
240.400	25.082	0.099
240.500	9.321	0.099
240.600	24.530	0.099
240.700	12.493	0.099
240.800	8.750	0.099
240.900	12.404	0.099
241.000	-0.650	0.099
241.100	-6.621	0.099
241.200	1.292	0.099
241.300	-8.059	0.099
241.400	-10.958	0.099
241.500	1.067	0.099
241.600	-24.139	0.099
241.700	-11.595	0.099
241.800	-7.555	0.099
241.900	-25.993	0.099
242.000	-24.975	0.099
242.100	-27.284	0.099
242.200	-31.946	0.099
242.300	-17.149	0.099
242.400	-34.501	0.099
242.500	-37.763	0.099
242.600	-19.928	0.099
242.700	-34.682	0.099
242.800	-40.264	0.099
242.900	-43.514	0.099
243.000	-49.815	0.099
243.100	-43.702	0.099
243.200	-28.864	0.099
243.300	-37.042	0.099
243.400	-35.803	0.099
243.500	-34.549	0.099
243.600	-51.489	0.099
243.700	-39.199	0.099
243.800	-57.673	0.099
243.900	-30.442	0.099
244.000	-46.574	0.099
244.100	-40.720	0.099
244.200	-45.161	0.099
244.300	-53.864	0.099
244.400	-35.216	0.099
244.500	-35.997	0.099
244.600	-58.960	0.099
244.700	-30.868	0.099
244.800	-43.987	0.099
244.900	-53.512	0.099
245.000	-29.569	0.099
245.100	-49.255	0.099
245.200	-37.523	0.099
245.300	-47.806	0.099
245.400	-34.374	0.099
245.500	-52.418	0.099
245.600	-44.478	0.099
245.700	-38.385	0.099
245.800	-31.271	0.099
245.900	-22.366	0.099
246.000	-32.407	0.099
246.100	-36.589	0.099
246.200	-34.612	0.099
246.300	-28.985	0.099
246.400	-33.274	0.099
246.500	-25.790	0.099
246.600	-39.490	0.099
246.700	-41.242	0.099
246.800	-20.165	0.099
246.900	-34.605	0.099
247.000	-57.222	0.099
247.100	-24.962	0.099
247.200	-28.079	0.099
247.300	-26.249	0.099
247.400	-34.683	0.099
247.500	-31.006	0.099
247.600	-23.816	0.099
247.700	-26.657	0.099
247.800	-30.877	0.099
247.900	-26.543	0.099
248.000	-23.635	0.099
248.100	-38.319	0.099
248.200	-26.390	0.099
248.300	-34.859	0.099
248.400	-14.094	0.099
248.500	-19.529	0.099
248.600	-24.710	0.099
248.700	-14.677	0.099
248.800	-12.504	0.099
248.900	-17.494	0.099
249.000	-12.738	0.099
249.100	-20.275	0.099
249.200	-31.106	0.099
249.300	-24.704	0.099
249.400	-26.142	0.099
249.500	-10.676	0.099
249.600	-23.635	0.099
249.700	-10.127	0.099
249.800	-13.683	0.099
249.900	-20.394	0.099
250.000	-13.926	0.099
250.100	-19.708	0.099
250.200	-17.259	0.099
250.300	-14.297	0.099
250.400	-17.936	0.099
250.500	-8.709	0.099
250.600	-2.232	0.099
250.700	-18.266	0.099
250.800	-17.057	0.099
250.900	-20.180	0.099
251.000	-15.088	0.099
251.100	-18.670	0.099
251.200	-11.581	0.099
251.300	-10.418	0.099
251.400	-21.405	0.099
251.500	-3.189	0.099
251.600	-14.384	0.099
251.700	-13.182	0.099
251.800	-5.357	0.099
251.900	-13.339	0.099
252.000	-15.478	0.099
252.100	-8.496	0.099
252.200	2.664	0.099
252.300	-19.805	0.099
252.400	-3.795	0.099
252.500	-12.539	0.099
252.600	-14.171	0.099
252.700	-8.906	0.099
252.800	-1.807	0.099
252.900	-21.880	0.099
253.000	-13.061	0.099
253.100	5.287	0.099
253.200	3.327	0.099
253.300	6.054	0.099
253.400	-8.138	0.099
253.500	1.735	0.099
253.600	-11.261	0.099
253.700	-12.653	0.099
253.800	-6.799	0.099
253.900	-5.804	0.099
254.000	-5.959	0.099
254.100	-16.614	0.099
254.200	-8.504	0.099
254.300	-7.524	0.099
254.400	5.748	0.099
254.500	3.225	0.099
254.600	-14.422	0.099
254.700	-11.989	0.099
254.800	-4.656	0.099
254.900	-3.298	0.099
255.000	-11.103	0.099
255.100	2.801	0.099
255.200	-8.049	0.099
255.300	-2.745	0.099
255.400	-2.163	0.099
255.500	-20.998	0.099
255.600	-13.440	0.099
255.700	-5.483	0.099
255.800	-7.583	0.099
255.900	-3.031	0.099
256.000	0.089	0.099
256.100	-9.320	0.099
256.200	4.598	0.099
256.300	-10.725	0.099
256.400	5.030	0.099
256.500	7.683	0.099
256.600	-9.714	0.099
256.700	-8.742	0.099
256.800	0.174	0.099
256.900	-6.851	0.099
257.000	7.025	0.099
257.100	-18.525	0.099
257.200	0.778	0.099
257.300	12.642	0.099
257.400	-7.209	0.099
257.500	-10.324	0.099
257.600	-8.997	0.099
257.700	-4.885	0.099
257.800	-11.693	0.099
257.900	-2.569	0.099
258.000	4.877	0.099
258.100	-11.350	0.099
258.200	-23.865	0.099
258.300	5.423	0.099
258.400	-15.027	0.099
258.500	8.110	0.099
258.600	-19.501	0.099
258.700	-12.287	0.099
258.800	-17.027	0.099
258.900	7.528	0.099
259.000	-2.045	0.099
259.100	-7.933	0.099
259.200	11.589	0.099
259.300	0.133	0.099
259.400	6.167	0.099
259.500	-4.895	0.099
259.600	1.075	0.099
259.700	-5.800	0.099
259.800	-5.661	0.099
259.900	-23.374	0.099
260.000	-8.398	0.099
260.100	2.644	0.099
260.200	0.677	0.099
260.300	-9.948	0.099
260.400	-7.956	0.099
260.500	-16.957	0.099
260.600	-3.427	0.099
260.700	-21.686	0.099
260.800	-15.936	0.099
260.900	-3.442	0.099
261.000	-13.884	0.099
261.100	-1.811	0.099
261.200	1.872	0.099
261.300	-11.931	0.099
261.400	3.223	0.099
261.500	-12.326	0.099
261.600	-24.149	0.099
261.700	-14.259	0.099
261.800	-7.032	0.099
261.900	-5.146	0.099
262.000	4.159	0.099
262.100	-14.202	0.099
262.200	-0.990	0.099
262.300	-11.871	0.099
262.400	12.387	0.099
262.500	-5.121	0.099
262.600	-9.949	0.099
262.700	-9.899	0.099
262.800	4.084	0.099
262.900	2.325	0.099
263.000	-11.815	0.099
263.100	-5.209	0.099
263.200	-13.598	0.099
263.300	0.476	0.099
263.400	-11.043	0.099
263.500	-3.364	0.099
263.600	-7.168	0.099
263.700	-3.906	0.099
263.800	-1.850	0.099
263.900	6.130	0.099
264.000	3.878	0.099
264.100	0.650	0.099
264.200	2.407	0.099
264.300	-8.444	0.099
264.400	0.513	0.099
264.500	-14.577	0.099
264.600	-12.663	0.099
264.700	-12.546	0.099
264.800	-8.038	0.099
264.900	7.213	0.099
265.000	-6.486	0.099
265.100	9.445	0.099
265.200	-4.239	0.099
265.300	-9.618	0.099
265.400	-10.092	0.099
265.500	-1.390	0.099
265.600	-17.025	0.099
265.700	-5.205	0.099
265.800	11.122	0.099
265.900	-10.458	0.099
266.000	-2.778	0.099
266.100	-3.454	0.099
266.200	-8.832	0.099
266.300	-1.837	0.099
266.400	-5.672	0.099
266.500	-5.037	0.099
266.600	-3.294	0.099
266.700	-13.082	0.099
266.800	-5.898	0.099
266.900	-0.764	0.099
267.000	-14.830	0.099
267.100	-12.636	0.099
267.200	-8.824	0.099
267.300	-1.451	0.099
267.400	-5.261	0.099
267.500	-4.019	0.099
267.600	-14.591	0.099
267.700	-3.251	0.099
267.800	7.232	0.099
267.900	-4.165	0.099
268.000	-3.575	0.099
268.100	-15.853	0.099
268.200	-27.820	0.099
268.300	-2.741	0.099
268.400	-0.931	0.099
268.500	-19.032	0.099
268.600	-4.627	0.099
268.700	-25.234	0.099
268.800	-6.872	0.099
268.900	2.178	0.099
269.000	-1.358	0.099
269.100	-5.943	0.099
269.200	4.822	0.099
269.300	-1.537	0.099
269.400	-11.260	0.099
269.500	-16.981	0.099
269.600	-5.904	0.099
269.700	-5.356	0.099
269.800	-17.832	0.099
269.900	-11.424	0.099
270.000	-2.538	0.099
270.100	8.377	0.099
270.200	-13.179	0.099
270.300	3.550	0.099
270.400	-18.419	0.099
270.500	-7.505	0.099
270.600	-7.604	0.099
270.700	-10.631	0.099
270.800	-5.998	0.099
270.900	-18.247	0.099
271.000	-17.387	0.099
271.100	-5.698	0.099
271.200	-9.923	0.099
271.300	-4.644	0.099
271.400	-7.693	0.099
271.500	-4.386	0.099
271.600	3.510	0.099
271.700	-13.353	0.099
271.800	-11.182	0.099
271.900	-5.562	0.099
272.000	-7.062	0.099
272.100	-3.836	0.099
272.200	-8.469	0.099
272.300	0.694	0.099
272.400	11.260	0.099
272.500	-7.770	0.099
272.600	-8.775	0.099
272.700	-6.396	0.099
272.800	-4.658	0.099
272.900	-3.563	0.099
273.000	-1.276	0.099
273.100	-12.458	0.099
273.200	-10.433	0.099
273.300	-15.125	0.099
273.400	-7.214	0.099
273.500	-9.166	0.099
273.600	-17.284	0.099
273.700	-7.164	0.099
273.800	-16.652	0.099
273.900	-3.267	0.099
274.000	-0.144	0.099
274.100	-6.810	0.099
274.200	-11.746	0.099
274.300	-4.215	0.099
274.400	7.538	0.099
274.500	-15.549	0.099
274.600	-16.721	0.099
274.700	-4.974	0.099
274.800	-18.659	0.099
274.900	-2.960	0.099
275.000	-7.165	0.099
275.100	-9.734	0.099
275.200	-8.613	0.099
275.300	-0.434	0.099
275.400	-1.987	0.099
275.500	-6.987	0.099
275.600	-5.130	0.099
275.700	8.450	0.099
275.800	-6.449	0.099
275.900	-17.266	0.099
276.000	-0.062	0.099
276.100	-9.765	0.099
276.200	11.680	0.099
276.300	-3.837	0.099
276.400	-1.854	0.099
276.500	-8.494	0.099
276.600	-8.493	0.099
276.700	1.308	0.099
276.800	-4.444	0.099
276.900	3.897	0.099
277.000	-2.506	0.099
277.100	2.417	0.099
277.200	-6.895	0.099
277.300	-10.463	0.099
277.400	-11.461	0.099
277.500	-4.491	0.099
277.600	1.531	0.099
277.700	-7.104	0.099
277.800	-15.253	0.099
277.900	3.619	0.099
278.000	7.091	0.099
278.100	2.493	0.099
278.200	-3.091	0.099
278.300	3.928	0.099
278.400	5.391	0.099
278.500	-8.879	0.099
278.600	3.070	0.099
278.700	4.660	0.099
278.800	-10.694	0.099
278.900	-6.461	0.099
279.000	-1.506	0.099
279.100	-16.158	0.099
279.200	-11.392	0.099
279.300	-6.683	0.099
279.400	-0.366	0.099
279.500	4.607	0.099
279.600	4.195	0.099
279.700	1.836	0.099
279.800	-16.936	0.099
279.900	-4.560	0.099
280.000	-4.598	0.099
280.100	-15.819	0.099
280.200	-15.439	0.099
280.300	-5.129	0.099
280.400	-19.794	0.099
280.500	6.727	0.099
280.600	-1.989	0.099
280.700	-16.904	0.099
280.800	-4.272	0.099
280.900	-9.286	0.099
281.000	2.999	0.099
281.100	10.076	0.099
281.200	0.023	0.099
281.300	-4.080	0.099
281.400	-15.319	0.099
281.500	-0.381	0.099
281.600	-19.662	0.099
281.700	2.169	0.099
281.800	-0.505	0.099
281.900	-13.302	0.099
282.000	-16.388	0.099
282.100	-0.645	0.099
282.200	-10.374	0.099
282.300	-4.489	0.099
282.400	-11.198	0.099
282.500	-0.854	0.099
282.600	-6.221	0.099
282.700	-9.887	0.099
282.800	-10.183	0.099
282.900	-6.922	0.099
283.000	-5.112	0.099
283.100	-5.952	0.099
283.200	-7.602	0.099
283.300	-2.616	0.099
283.400	-3.132	0.099
283.500	-6.230	0.099
283.600	3.728	0.099
283.700	-5.697	0.099
283.800	-11.804	0.099
283.900	-9.274	0.099
284.000	6.499	0.099
284.100	-3.084	0.099
284.200	-4.925	0.099
284.300	-20.627	0.099
284.400	10.104	0.099
284.500	-6.917	0.099
284.600	-8.346	0.099
284.700	-19.794	0.099
284.800	16.386	0.099
284.900	-7.315	0.099
285.000	-7.089	0.099
285.100	-1.796	0.099
285.200	-6.343	0.099
285.300	-6.871	0.099
285.400	1.783	0.099
285.500	-2.736	0.099
285.600	-7.798	0.099
285.700	-7.468	0.099
285.800	0.583	0.099
285.900	-19.807	0.099
286.000	-2.292	0.099
286.100	-14.480	0.099
286.200	-10.786	0.099
286.300	4.389	0.099
286.400	-21.110	0.099
286.500	3.904	0.099
286.600	-19.635	0.099
286.700	6.227	0.099
286.800	-4.446	0.099
286.900	2.702	0.099
287.000	-4.725	0.099
287.100	-1.190	0.099
287.200	-6.684	0.099
287.300	-17.513	0.099
287.400	-4.049	0.099
287.500	-17.880	0.099
287.600	-4.804	0.099
287.700	-11.257	0.099
287.800	-14.772	0.099
287.900	-3.052	0.099
288.000	-5.229	0.099
288.100	-0.126	0.099
288.200	-14.684	0.099
288.300	-6.676	0.099
288.400	-3.898	0.099
288.500	-0.757	0.099
288.600	-4.082	0.099
288.700	4.419	0.099
288.800	-20.262	0.099
288.900	-1.234	0.099
289.000	-0.557	0.099
289.100	-7.815	0.099
289.200	3.028	0.099
289.300	-4.860	0.099
289.400	-4.873	0.099
289.500	-9.313	0.099
289.600	-12.734	0.099
289.700	-7.236	0.099
289.800	-4.292	0.099
289.900	4.030	0.099
290.000	-7.715	0.099
290.100	5.656	0.099
290.200	-8.711	0.099
290.300	-12.251	0.099
290.400	13.537	0.099
290.500	-4.111	0.099
290.600	-4.607	0.099
290.700	15.531	0.099
290.800	-16.503	0.099
290.900	-8.147	0.099
291.000	13.561	0.099
291.100	-4.628	0.099
291.200	-8.558	0.099
291.300	-11.794	0.099
291.400	9.295	0.099
291.500	-6.134	0.099
291.600	5.501	0.099
291.700	-20.352	0.099
291.800	-1.649	0.099
291.900	1.065	0.099
292.000	-6.149	0.099
292.100	2.879	0.099
292.200	-3.625	0.099
292.300	-5.007	0.099
292.400	-0.735	0.099
292.500	-4.905	0.099
292.600	-12.846	0.099
292.700	-16.222	0.099
292.800	2.437	0.099
292.900	-3.795	0.099
293.000	-1.926	0.099
293.100	-0.651	0.099
293.200	4.085	0.099
293.300	-16.190	0.099
293.400	1.733	0.099
293.500	-13.674	0.099
293.600	-3.764	0.099
293.700	-0.173	0.099
293.800	-4.926	0.099
293.900	-4.481	0.099
294.000	-3.540	0.099
294.100	-14.577	0.099
294.200	-10.896	0.099
294.300	-15.129	0.099
294.400	-1.482	0.099
294.500	3.466	0.099
294.600	-20.736	0.099
294.700	-13.172	0.099
294.800	0.567	0.099
294.900	-6.078	0.099
295.000	-5.771	0.099
295.100	1.889	0.099
295.200	-6.818	0.099
295.300	-7.717	0.099
295.400	3.114	0.099
295.500	-4.048	0.099
295.600	-6.871	0.099
295.700	-9.966	0.099
295.800	-1.528	0.099
295.900	-12.605	0.099
296.000	-4.974	0.099
296.100	1.490	0.099
296.200	-8.895	0.099
296.300	-5.139	0.099
296.400	-15.563	0.099
296.500	13.773	0.099
296.600	-18.775	0.099
296.700	7.144	0.099
296.800	-0.382	0.099
296.900	2.726	0.099
297.000	-4.855	0.099
297.100	-4.171	0.099
297.200	-10.864	0.099
297.300	-7.765	0.099
297.400	-1.053	0.099
297.500	-10.928	0.099
297.600	-9.382	0.099
297.700	9.830	0.099
297.800	6.301	0.099
297.900	4.658	0.099
298.000	6.885	0.099
298.100	-11.755	0.099
298.200	-7.046	0.099
298.300	-10.734	0.099
298.400	-3.652	0.099
298.500	1.827	0.099
298.600	-3.100	0.099
298.700	-8.300	0.099
298.800	-4.201	0.099
298.900	-7.412	0.099
299.000	-8.271	0.099
299.100	-3.733	0.099
299.200	4.907	0.099
299.300	13.307	0.099
299.400	-3.260	0.099
299.500	-12.903	0.099
299.600	-2.402	0.099
299.700	-5.486	0.099
299.800	-2.531	0.099
299.900	-17.397	0.099
300.000	-9.517	0.099
300.100	-4.496	0.099
300.200	3.786	0.099
300.300	-27.833	0.099
300.400	3.657	0.099
300.500	-18.229	0.099
300.600	-6.090	0.099
300.700	-6.455	0.099
300.800	-4.826	0.099
300.900	0.666	0.099
301.000	9.278	0.099
301.100	-13.151	0.099
301.200	6.707	0.099
301.300	-3.366	0.099
301.400	-6.963	0.099
301.500	4.344	0.099
301.600	-7.394	0.099
301.700	-8.965	0.099
301.800	-12.988	0.099
301.900	-2.254	0.099
302.000	-5.660	0.099
302.100	-7.632	0.099
302.200	-2.266	0.099
302.300	10.469	0.099
302.400	3.258	0.099
302.500	-19.485	0.099
302.600	-1.491	0.099
302.700	-16.144	0.099
302.800	-24.834	0.099
302.900	4.417	0.099
303.000	1.231	0.099
303.100	-7.179	0.099
303.200	-4.958	0.099
303.300	-7.488	0.099
303.400	1.791	0.099
303.500	-2.140	0.099
303.600	10.482	0.099
303.700	-7.786	0.099
303.800	1.138	0.099
303.900	-7.178	0.099
304.000	-3.985	0.099
304.100	-19.239	0.099
304.200	-5.914	0.099
304.300	6.097	0.099
304.400	-16.110	0.099
304.500	13.541	0.099
304.600	10.777	0.099
304.700	5.751	0.099
304.800	-3.657	0.099
304.900	-5.914	0.099
305.000	0.003	0.099
305.100	3.331	0.099
305.200	0.093	0.099
305.300	3.086	0.099
305.400	-5.040	0.099
305.500	-0.727	0.099
305.600	-18.147	0.099
305.700	14.718	0.099
305.800	-4.591	0.099
305.900	-6.543	0.099
306.000	-4.308	0.099
306.100	-4.142	0.099
306.200	-5.912	0.099
306.300	-2.439	0.099
306.400	8.826	0.099
306.500	1.117	0.099
306.600	0.551	0.099
306.700	6.174	0.099
306.800	-15.157	0.099
306.900	-5.034	0.099
307.000	-7.685	0.099
307.100	3.965	0.099
307.200	-5.356	0.099
307.300	-11.514	0.099
307.400	-6.752	0.099
307.500	-0.802	0.099
307.600	-11.837	0.099
307.700	-5.765	0.099
307.800	-5.577	0.099
307.900	-2.948	0.099
308.000	5.561	0.099
308.100	-9.233	0.099
308.200	-9.961	0.099
308.300	-7.091	0.099
308.400	-6.279	0.099
308.500	0.729	0.099
308.600	3.436	0.099
308.700	-6.215	0.099
308.800	-10.269	0.099
308.900	-6.297	0.099
309.000	-6.229	0.099
309.100	12.575	0.099
309.200	-9.540	0.099
309.300	-7.767	0.099
309.400	-6.302	0.099
309.500	-0.988	0.099
309.600	-11.421	0.099
309.700	-7.105	0.099
309.800	4.045	0.099
309.900	-8.604	0.099
310.000	2.706	0.099
310.100	-6.665	0.099
310.200	-9.809	0.099
310.300	1.367	0.099
310.400	7.952	0.099
310.500	-8.044	0.099
310.600	7.318	0.099
310.700	-8.436	0.099
310.800	-6.585	0.099
310.900	-16.919	0.099
311.000	-5.746	0.099
311.100	-9.960	0.099
311.200	5.324	0.099
311.300	-5.134	0.099
311.400	-7.520	0.099
311.500	-6.790	0.099
311.600	-7.206	0.099
311.700	-5.055	0.099
311.800	-13.153	0.099
311.900	4.826	0.099
312.000	7.010	0.099
312.100	-1.165	0.099
312.200	-5.519	0.099
312.300	-15.677	0.099
312.400	4.853	0.099
312.500	-8.627	0.099
312.600	-8.621	0.099
312.700	-0.764	0.099
312.800	-7.696	0.099
312.900	-6.430	0.099
313.000	5.161	0.099
313.100	-4.917	0.099
313.200	-4.305	0.099
313.300	-10.545	0.099
313.400	18.283	0.099
313.500	-2.240	0.099
313.600	-5.609	0.099
313.700	8.885	0.099
313.800	-2.480	0.099
313.900	0.675	0.099
314.000	13.709	0.099
314.100	-11.531	0.099
314.200	9.296	0.099
314.300	5.392	0.099
314.400	3.519	0.099
314.500	-2.033	0.099
314.600	12.306	0.099
314.700	-11.596	0.099
314.800	6.104	0.099
314.900	-5.510	0.099
315.000	-4.473	0.099
315.100	-8.237	0.099
315.200	-14.248	0.099
315.300	-4.908	0.099
315.400	23.746	0.099
315.500	-9.040	0.099
315.600	0.997	0.099
315.700	-2.338	0.099
315.800	7.488	0.099
315.900	2.158	0.099
316.000	0.534	0.099
316.100	-17.482	0.099
316.200	3.844	0.099
316.300	7.849	0.099
316.400	8.142	0.099
316.500	-16.218	0.099
316.600	-6.606	0.099
316.700	-7.610	0.099
316.800	-10.750	0.099
316.900	-8.383	0.099
317.000	0.886	0.099
317.100	-3.885	0.099
317.200	3.003	0.099
317.300	11.152	0.099
317.400	0.672	0.099
317.500	2.457	0.099
317.600	-5.597	0.099
317.700	-16.027	0.099
317.800	-17.220	0.099
317.900	5.306	0.099
318.000	4.295	0.099
318.100	2.225	0.099
318.200	-3.887	0.099
318.300	-2.369	0.099
318.400	-0.100	0.099
318.500	-3.418	0.099
318.600	-17.344	0.099
318.700	2.703	0.099
318.800	6.583	0.099
318.900	-24.278	0.099
319.000	-6.546	0.099
319.100	-15.743	0.099
319.200	2.972	0.099
319.300	-6.063	0.099
319.400	-2.155	0.099
319.500	8.231	0.099
319.600	-0.720	0.099
319.700	-4.268	0.099
319.800	-0.892	0.099
319.900	2.991	0.099
320.000	-8.715	0.099
320.100	-9.646	0.099
320.200	-4.697	0.099
320.300	-1.837	0.099
320.400	-3.882	0.099
320.500	-3.638	0.099
320.600	-3.661	0.099
320.700	-12.912	0.099
320.800	-3.456	0.099
320.900	0.392	0.099
321.000	-11.910	0.099
321.100	6.152	0.099
321.200	-12.449	0.099
321.300	-0.480	0.099
321.400	-12.195	0.099
321.500	-3.839	0.099
321.600	-9.617	0.099
321.700	-5.336	0.099
321.800	8.603	0.099
321.900	-8.266	0.099
322.000	-8.369	0.099
322.100	6.915	0.099
322.200	5.441	0.099
322.300	-5.878	0.099
322.400	0.087	0.099
322.500	-4.958	0.099
322.600	-0.884	0.099
322.700	-25.427	0.099
322.800	0.694	0.099
322.900	-11.797	0.099
323.000	9.155	0.099
323.100	16.701	0.099
323.200	0.580	0.099
323.300	1.169	0.099
323.400	-1.505	0.099
323.500	-5.351	0.099
323.600	0.350	0.099
323.700	-10.857	0.099
323.800	-0.755	0.099
323.900	-19.290	0.099
324.000	-7.677	0.099
324.100	3.371	0.099
324.200	-2.627	0.099
324.300	-9.203	0.099
324.400	10.244	0.099
324.500	0.045	0.099
324.600	-5.727	0.099
324.700	3.460	0.099
324.800	-12.287	0.099
324.900	6.520	0.099
325.000	14.909	0.099
325.100	5.732	0.099
325.200	-5.864	0.099
325.300	-2.468	0.099
325.400	-7.334	0.099
325.500	7.488	0.099
325.600	-11.077	0.099
325.700	0.024	0.099
325.800	-4.896	0.099
325.900	-1.331	0.099
326.000	18.351	0.099
326.100	-0.334	0.099
326.200	5.428	0.099
326.300	0.358	0.099
326.400	-2.517	0.099
326.500	-7.490	0.099
326.600	2.534	0.099
326.700	-11.337	0.099
326.800	7.161	0.099
326.900	9.549	0.099
327.000	-8.391	0.099
327.100	4.388	0.099
327.200	5.929	0.099
327.300	6.565	0.099
327.400	-16.939	0.099
327.500	-3.096	0.099
327.600	-0.772	0.099
327.700	6.742	0.099
327.800	5.872	0.099
327.900	-0.353	0.099
328.000	-8.247	0.099
328.100	12.042	0.099
328.200	-11.974	0.099
328.300	5.677	0.099
328.400	1.542	0.099
328.500	-8.166	0.099
328.600	9.430	0.099
328.700	6.631	0.099
328.800	-16.782	0.099
328.900	-1.043	0.099
329.000	8.372	0.099
329.100	-1.570	0.099
329.200	-5.397	0.099
329.300	-11.129	0.099
329.400	-1.425	0.099
329.500	-4.927	0.099
329.600	-5.048	0.099
329.700	1.906	0.099
329.800	-1.105	0.099
329.900	-5.806	0.099
330.000	17.458	0.099
330.100	-1.853	0.099
330.200	6.035	0.099
330.300	-6.081	0.099
330.400	0.941	0.099
330.500	-0.685	0.099
330.600	17.511	0.099
330.700	10.688	0.099
330.800	27.983	0.099
330.900	23.958	0.099
331.000	22.593	0.099
331.100	13.081	0.099
331.200	14.891	0.099
331.300	38.113	0.099
331.400	14.519	0.099
331.500	40.534	0.099
331.600	23.163	0.099
331.700	15.718	0.099
331.800	51.905	0.099
331.900	17.920	0.099
332.000	35.003	0.099
332.100	21.348	0.099
332.200	24.125	0.099
332.300	33.624	0.099
332.400	24.736	0.099
332.500	34.789	0.099
332.600	40.888	0.099
332.700	37.962	0.099
332.800	42.827	0.099
332.900	30.610	0.099
333.000	44.303	0.099
333.100	25.726	0.099
333.200	17.759	0.099
333.300	16.077	0.099
333.400	25.733	0.099
333.500	32.172	0.099
333.600	25.187	0.099
333.700	24.685	0.099
333.800	31.617	0.099
333.900	14.855	0.099
334.000	27.240	0.099
334.100	32.594	0.099
334.200	26.130	0.099
334.300	32.906	0.099
334.400	17.461	0.099
334.500	18.041	0.099
334.600	22.605	0.099
334.700	28.056	0.099
334.800	24.602	0.099
334.900	33.936	0.099
335.000	35.760	0.099
335.100	24.823	0.099
335.200	32.155	0.099
335.300	22.308	0.099
335.400	21.476	0.099
335.500	16.115	0.099
335.600	32.996	0.099
335.700	31.811	0.099
335.800	27.823	0.099
335.900	20.539	0.099
336.000	22.483	0.099
336.100	22.640	0.099
336.200	11.964	0.099
336.300	16.292	0.099
336.400	22.601	0.099
336.500	17.597	0.099
336.600	24.319	0.099
336.700	34.662	0.099
336.800	20.105	0.099
336.900	21.221	0.099
337.000	34.763	0.099
337.100	22.251	0.099
337.200	27.477	0.099
337.300	31.873	0.099
337.400	39.350	0.099
337.500	21.208	0.099
337.600	37.057	0.099
337.700	27.374	0.099
337.800	10.600	0.099
337.900	27.593	0.099
338.000	18.371	0.099
338.100	34.066	0.099
338.200	7.171	0.099
338.300	15.730	0.099
338.400	24.182	0.099
338.500	16.251	0.099
338.600	37.595	0.099
338.700	27.643	0.099
338.800	25.898	0.099
338.900	30.628	0.099
339.000	28.744	0.099
339.100	30.925	0.099
339.200	-1.099	0.099
339.300	29.850	0.099
339.400	24.280	0.099
339.500	23.425	0.099
339.600	34.207	0.099
339.700	34.108	0.099
339.800	35.983	0.099
339.900	40.792	0.099
340.000	20.346	0.099
340.100	28.094	0.099
340.200	22.497	0.099
340.300	41.886	0.099
340.400	28.035	0.099
340.500	34.459	0.099
340.600	25.998	0.099
340.700	30.537	0.099
340.800	22.051	0.099
340.900	26.612	0.099
341.000	30.386	0.099
341.100	29.847	0.099
341.200	28.488	0.099
341.300	26.105	0.099
341.400	25.231	0.099
341.500	30.143	0.099
341.600	27.676	0.099
341.700	32.244	0.099
341.800	40.904	0.099
341.900	24.908	0.099
342.000	24.943	0.099
342.100	37.726	0.099
342.200	25.060	0.099
342.300	35.379	0.099
342.400	42.487	0.099
342.500	39.581	0.099
342.600	28.374	0.099
342.700	22.941	0.099
342.800	26.717	0.099
342.900	18.750	0.099
343.000	17.695	0.099
343.100	38.545	0.099
343.200	22.562	0.099
343.300	18.388	0.099
343.400	29.403	0.099
343.500	41.492	0.099
343.600	25.733	0.099
343.700	15.887	0.099
343.800	21.769	0.099
343.900	39.533	0.099
344.000	30.888	0.099
344.100	34.624	0.099
344.200	34.856	0.099
344.300	31.671	0.099
344.400	19.588	0.099
344.500	40.122	0.099
344.600	37.340	0.099
344.700	30.860	0.099
344.800	27.875	0.099
344.900	38.851	0.099
345.000	32.410	0.099
345.100	34.287	0.099
345.200	26.114	0.099
345.300	44.934	0.099
345.400	32.117	0.099
345.500	36.390	0.099
345.600	14.371	0.099
345.700	29.520	0.099
345.800	36.250	0.099
345.900	40.750	0.099
346.000	29.508	0.099
346.100	31.690	0.099
346.200	40.383	0.099
346.300	36.979	0.099
346.400	29.700	0.099
346.500	39.491	0.099
346.600	30.364	0.099
346.700	22.859	0.099
346.800	25.411	0.099
346.900	37.153	0.099
347.000	27.793	0.099
347.100	24.797	0.099
347.200	30.912	0.099
347.300	29.267	0.099
347.400	21.226	0.099
347.500	24.690	0.099
347.600	30.454	0.099
347.700	24.278	0.099
347.800	19.975	0.099
347.900	35.009	0.099
348.000	30.111	0.099
348.100	57.874	0.099
348.200	20.834	0.099
348.300	24.305	0.099
348.400	36.994	0.099
348.500	37.407	0.099
348.600	33.187	0.099
348.700	49.763	0.099
348.800	35.901	0.099
348.900	15.454	0.099
349.000	30.708	0.099
349.100	36.093	0.099
349.200	12.954	0.099
349.300	28.009	0.099
349.400	29.027	0.099
349.500	37.197	0.099
349.600	23.608	0.099
349.700	29.562	0.099
349.800	14.771	0.099
349.900	8.217	0.099
350.000	35.377	0.099
350.100	25.762	0.099
350.200	31.344	0.099
350.300	35.701	0.099
350.400	33.666	0.099
350.500	24.478	0.099
350.600	29.303	0.099
350.700	24.390	0.099
350.800	23.327	0.099
350.900	25.716	0.099
351.000	23.993	0.099
351.100	28.131	0.099
351.200	31.873	0.099
351.300	25.746	0.099
351.400	27.667	0.099
351.500	32.168	0.099
351.600	29.612	0.099
351.700	37.038	0.099
351.800	23.459	0.099
351.900	33.043	0.099
352.000	38.795	0.099
352.100	22.527	0.099
352.200	26.124	0.099
352.300	25.040	0.099
352.400	26.237	0.099
352.500	41.698	0.099
352.600	22.666	0.099
352.700	31.873	0.099
352.800	31.620	0.099
352.900	24.586	0.099
353.000	27.986	0.099
353.100	17.198	0.099
353.200	27.040	0.099
353.300	24.813	0.099
353.400	40.068	0.099
353.500	15.693	0.099
353.600	33.748	0.099
353.700	23.236	0.099
353.800	15.508	0.099
353.900	28.484	0.099
354.000	28.786	0.099
354.100	26.753	0.099
354.200	24.376	0.099
354.300	17.717	0.099
354.400	15.154	0.099
354.500	26.100	0.099
354.600	24.855	0.099
354.700	29.032	0.099
354.800	19.868	0.099
354.900	12.157	0.099
355.000	20.421	0.099
355.100	32.082	0.099
355.200	4.754	0.099
355.300	39.745	0.099
355.400	26.517	0.099
355.500	26.113	0.099
355.600	26.905	0.099
355.700	26.208	0.099
355.800	30.767	0.099
355.900	25.144	0.099
356.000	18.491	0.099
356.100	18.560	0.099
356.200	34.680	0.099
356.300	19.655	0.099
356.400	24.500	0.099
356.500	32.523	0.099
356.600	13.415	0.099
356.700	16.064	0.099
356.800	25.284	0.099
356.900	23.860	0.099
357.000	14.410	0.099
357.100	28.508	0.099
357.200	13.668	0.099
357.300	29.931	0.099
357.400	17.601	0.099
357.500	23.149	0.099
357.600	31.752	0.099
357.700	30.422	0.099
357.800	21.282	0.099
357.900	9.754	0.099
358.000	24.772	0.099
358.100	26.513	0.099
358.200	19.431	0.099
358.300	3.676	0.099
358.400	18.961	0.099
358.500	16.308	0.099
358.600	27.143	0.099
358.700	53.964	0.099
358.800	10.938	0.099
358.900	22.270	0.099
359.000	22.425	0.099
359.100	13.386	0.099
359.200	24.943	0.099
359.300	20.296	0.099
359.400	30.507	0.099
359.500	21.151	0.099
359.600	25.731	0.099
359.700	31.136	0.099
359.800	17.704	0.099
359.900	20.011	0.099
360.000	27.021	0.099
360.100	16.673	0.099
360.200	19.273	0.099
360.300	24.627	0.099
360.400	23.395	0.099
360.500	13.225	0.099
360.600	25.800	0.099
360.700	32.492	0.099
360.800	19.046	0.099
360.900	8.481	0.099
361.000	22.382	0.099
361.100	8.200	0.099
361.200	28.224	0.099
361.300	15.813	0.099
361.400	16.699	0.099
361.500	37.351	0.099
361.600	15.015	0.099
361.700	28.531	0.099
361.800	30.229	0.099
361.900	22.537	0.099
362.000	30.366	0.099
362.100	12.515	0.099
362.200	20.763	0.099
362.300	21.436	0.099
362.400	32.372	0.099
362.500	32.011	0.099
362.600	14.437	0.099
362.700	16.690	0.099
362.800	17.935	0.099
362.900	12.899	0.099
363.000	27.562	0.099
363.100	22.525	0.099
363.200	22.773	0.099
363.300	22.136	0.099
363.400	24.658	0.099
363.500	16.839	0.099
363.600	19.727	0.099
363.700	20.478	0.099
363.800	31.017	0.099
363.900	15.171	0.099
364.000	19.774	0.099
364.100	27.049	0.099
364.200	17.831	0.099
364.300	27.988	0.099
364.400	24.199	0.099
364.500	21.742	0.099
364.600	44.765	0.099
364.700	25.470	0.099
364.800	36.389	0.099
364.900	20.125	0.099
365.000	34.209	0.099
365.100	10.621	0.099
365.200	23.713	0.099
365.300	18.365	0.099
365.400	16.807	0.099
365.500	16.084	0.099
365.600	6.994	0.099
365.700	15.052	0.099
365.800	28.784	0.099
365.900	21.779	0.099
366.000	22.829	0.099
366.100	30.892	0.099
366.200	24.544	0.099
366.300	32.331	0.099
366.400	15.374	0.099
366.500	31.282	0.099
366.600	24.161	0.099
366.700	25.388	0.099
366.800	29.012	0.099
366.900	11.673	0.099
367.000	9.324	0.099
367.100	11.008	0.099
367.200	30.736	0.099
367.300	27.162	0.099
367.400	21.921	0.099
367.500	21.719	0.099
367.600	9.539	0.099
367.700	17.893	0.099
367.800	26.029	0.099
367.900	30.690	0.099
368.000	20.704	0.099
368.100	17.582	0.099
368.200	22.783	0.099
368.300	11.777	0.099
368.400	18.921	0.099
368.500	26.336	0.099
368.600	25.045	0.099
368.700	27.527	0.099
368.800	10.558	0.099
368.900	23.226	0.099
369.000	29.762	0.099
369.100	12.126	0.099
369.200	8.881	0.099
369.300	11.554	0.099
369.400	30.461	0.099
369.500	15.068	0.099
369.600	19.809	0.099
369.700	13.273	0.099
369.800	25.254	0.099
369.900	17.418	0.099
370.000	29.478	0.099
370.100	26.520	0.099
370.200	25.697	0.099
370.300	21.380	0.099
370.400	25.209	0.099
370.500	20.181	0.099
370.600	18.032	0.099
370.700	23.556	0.099
370.800	24.296	0.099
370.900	32.074	0.099
371.000	18.284	0.099
371.100	34.347	0.099
371.200	23.263	0.099
371.300	20.803	0.099
371.400	18.500	0.099
371.500	22.718	0.099
371.600	17.563	0.099
371.700	23.721	0.099
371.800	18.140	0.099
371.900	25.698	0.099
372.000	12.854	0.099
372.100	15.419	0.099
372.200	14.078	0.099
372.300	30.811	0.099
372.400	11.684	0.099
372.500	24.479	0.099
372.600	19.503	0.099
372.700	17.614	0.099
372.800	22.829	0.099
372.900	25.211	0.099
373.000	24.701	0.099
373.100	14.127	0.099
373.200	17.045	0.099
373.300	23.345	0.099
373.400	31.148	0.099
373.500	22.921	0.099
373.600	26.886	0.099
373.700	13.919	0.099
373.800	16.466	0.099
373.900	9.616	0.099
374.000	17.217	0.099
374.100	16.629	0.099
374.200	17.454	0.099
374.300	10.993	0.099
374.400	26.953	0.099
374.500	20.168	0.099
374.600	16.364	0.099
374.700	21.271	0.099
374.800	17.647	0.099
374.900	27.112	0.099
375.000	15.566	0.099
375.100	18.054	0.099
375.200	24.627	0.099
375.300	20.861	0.099
375.400	26.265	0.099
375.500	9.401	0.099
375.600	17.257	0.099
375.700	25.715	0.099
375.800	13.880	0.099
375.900	20.975	0.099
376.000	4.767	0.099
376.100	26.513	0.099
376.200	21.781	0.099
376.300	6.376	0.099
376.400	22.260	0.099
376.500	20.009	0.099
376.600	24.234	0.099
376.700	16.258	0.099
376.800	13.982	0.099
376.900	16.453	0.099
377.000	17.171	0.099
377.100	22.694	0.099
377.200	15.410	0.099
377.300	19.540	0.099
377.400	23.111	0.099
377.500	22.845	0.099
377.600	19.672	0.099
377.700	20.390	0.099
377.800	11.381	0.099
377.900	34.667	0.099
378.000	19.328	0.099
378.100	23.481	0.099
378.200	15.374	0.099
378.300	17.080	0.099
378.400	18.585	0.099
378.500	37.250	0.099
378.600	25.214	0.099
378.700	32.036	0.099
378.800	22.486	0.099
378.900	34.909	0.099
379.000	26.847	0.099
379.100	22.617	0.099
379.200	30.468	0.099
379.300	22.559	0.099
379.400	14.822	0.099
379.500	11.937	0.099
379.600	15.246	0.099
379.700	31.031	0.099
379.800	36.447	0.099
379.900	31.668	0.099
380.000	21.442	0.099
380.100	25.720	0.099
380.200	8.556	0.099
380.300	19.943	0.099
380.400	13.175	0.099
380.500	35.104	0.099
380.600	32.253	0.099
380.700	38.201	0.099
380.800	22.578	0.099
380.900	28.714	0.099
381.000	18.182	0.099
381.100	28.325	0.099
381.200	24.023	0.099
381.300	23.048	0.099
381.400	21.492	0.099
381.500	17.146	0.099
381.600	14.321	0.099
381.700	10.973	0.099
381.800	17.214	0.099
381.900	15.941	0.099
382.000	48.925	0.099
382.100	23.467	0.099
382.200	24.313	0.099
382.300	23.832	0.099
382.400	23.960	0.099
382.500	24.169	0.099
382.600	13.969	0.099
382.700	30.377	0.099
382.800	23.528	0.099
382.900	24.848	0.099
383.000	24.694	0.099
383.100	12.225	0.099
383.200	36.709	0.099
383.300	28.180	0.099
383.400	18.022	0.099
383.500	17.642	0.099
383.600	14.909	0.099
383.700	29.434	0.099
383.800	31.899	0.099
383.900	21.256	0.099
384.000	12.603	0.099
384.100	20.719	0.099
384.200	23.596	0.099
384.300	15.674	0.099
384.400	29.764	0.099
384.500	19.758	0.099
384.600	20.966	0.099
384.700	34.715	0.099
384.800	19.929	0.099
384.900	18.364	0.099
385.000	31.590	0.099
385.100	8.427	0.099
385.200	21.376	0.099
385.300	23.247	0.099
385.400	20.088	0.099
385.500	17.422	0.099
385.600	17.828	0.099
385.700	21.867	0.099
385.800	13.094	0.099
385.900	9.741	0.099
386.000	22.358	0.099
386.100	23.013	0.099
386.200	27.261	0.099
386.300	27.639	0.099
386.400	8.019	0.099
386.500	22.597	0.099
386.600	10.075	0.099
386.700	30.168	0.099
386.800	9.207	0.099
386.900	30.748	0.099
387.000	7.265	0.099
387.100	19.942	0.099
387.200	12.618	0.099
387.300	13.329	0.099
387.400	27.933	0.099
387.500	15.424	0.099
387.600	28.942	0.099
387.700	14.828	0.099
387.800	13.301	0.099
387.900	10.900	0.099
388.000	9.887	0.099
388.100	22.751	0.099
388.200	13.918	0.099
388.300	20.145	0.099
388.400	12.888	0.099
388.500	22.430	0.099
388.600	19.293	0.099
388.700	13.067	0.099
388.800	10.228	0.099
388.900	18.581	0.099
389.000	18.162	0.099
389.100	26.515	0.099
389.200	12.137	0.099
389.300	19.120	0.099
389.400	22.437	0.099
389.500	31.907	0.099
389.600	11.667	0.099
389.700	12.545	0.099
389.800	19.941	0.099
389.900	10.848	0.099
390.000	17.785	0.099
390.100	27.518	0.099
390.200	14.830	0.099
390.300	19.168	0.099
390.400	11.165	0.099
390.500	6.087	0.099
390.600	13.597	0.099
390.700	3.659	0.099
390.800	-1.678	0.099
390.900	9.784	0.099
391.000	-0.991	0.099
391.100	-3.019	0.099
391.200	-6.469	0.099
391.300	-16.547	0.099
391.400	-12.735	0.099
391.500	-15.369	0.099
391.600	-14.538	0.099
391.700	-22.237	0.099
391.800	-30.822	0.099
391.900	-32.617	0.099
392.000	-33.584	0.099
392.100	-26.816	0.099
392.200	-18.467	0.099
392.300	-28.990	0.099
392.400	-36.887	0.099
392.500	-34.823	0.099
392.600	-35.694	0.099
392.700	-42.501	0.099
392.800	-38.974	0.099
392.900	-49.224	0.099
393.000	-37.971	0.099
393.100	-26.449	0.099
393.200	-38.752	0.099
393.300	-43.020	0.099
393.400	-56.935	0.099
393.500	-48.077	0.099
393.600	-46.007	0.099
393.700	-48.976	0.099
393.800	-42.392	0.099
393.900	-55.801	0.099
394.000	-45.926	0.099
394.100	-41.150	0.099
394.200	-58.417	0.099
394.300	-37.947	0.099
394.400	-42.731	0.099
394.500	-52.159	0.099
394.600	-44.233	0.099
394.700	-47.529	0.099
394.800	-45.104	0.099
394.900	-51.323	0.099
395.000	-34.938	0.099
395.100	-48.266	0.099
395.200	-36.449	0.099
395.300	-44.867	0.099
395.400	-45.851	0.099
395.500	-44.776	0.099
395.600	-47.361	0.099
395.700	-42.777	0.099
395.800	-27.673	0.099
395.900	-32.715	0.099
396.000	-41.600	0.099
396.100	-26.294	0.099
396.200	-40.731	0.099
396.300	-44.041	0.099
396.400	-51.825	0.099
396.500	-26.513	0.099
396.600	-37.418	0.099
396.700	-38.185	0.099
396.800	-23.651	0.099
396.900	-37.125	0.099
397.000	-30.450	0.099
397.100	-27.163	0.099
397.200	-26.302	0.099
397.300	-24.507	0.099
397.400	-40.881	0.099
397.500	-29.949	0.099
397.600	-27.674	0.099
397.700	-23.834	0.099
397.800	-25.390	0.099
397.900	-21.359	0.099
398.000	-37.276	0.099
398.100	-18.458	0.099
398.200	-17.449	0.099
398.300	-24.473	0.099
398.400	-23.784	0.099
398.500	-17.595	0.099
398.600	-21.400	0.099
398.700	-22.143	0.099
398.800	-24.693	0.099
398.900	-13.422	0.099
399.000	-23.523	0.099
399.100	-31.310	0.099
399.200	-26.531	0.099
399.300	-18.640	0.099
399.400	-23.488	0.099
399.500	-14.602	0.099
399.600	-9.163	0.099
399.700	-33.250	0.099
399.800	-12.362	0.099
399.900	-9.253	0.099
400.000	-18.708	0.099
400.100	-10.220	0.099
400.200	-15.927	0.099
400.300	-26.306	0.099
400.400	-16.857	0.099
400.500	-18.564	0.099
400.600	-11.714	0.099
400.700	-6.818	0.099
400.800	-1.456	0.099
400.900	-9.147	0.099
401.000	-33.166	0.099
401.100	-5.180	0.099
401.200	-19.772	0.099
401.300	-7.357	0.099
401.400	1.454	0.099
401.500	-6.984	0.099
401.600	-21.010	0.099
401.700	-14.871	0.099
401.800	-9.995	0.099
401.900	-19.405	0.099
402.000	-8.520	0.099
402.100	-26.543	0.099
402.200	-17.385	0.099
402.300	-14.875	0.099
402.400	6.697	0.099
402.500	-5.700	0.099
402.600	-9.095	0.099
402.700	-8.171	0.099
402.800	-18.718	0.099
402.900	-26.125	0.099
403.000	-7.540	0.099
403.100	-7.747	0.099
403.200	-22.187	0.099
403.300	-12.665	0.099
403.400	-3.191	0.099
403.500	-5.556	0.099
403.600	-10.156	0.099
403.700	5.173	0.099
403.800	-8.607	0.099
403.900	-4.176	0.099
404.000	-8.418	0.099
404.100	-22.869	0.099
404.200	-10.722	0.099
404.300	-4.058	0.099
404.400	-7.429	0.099
404.500	-25.687	0.099
404.600	-5.096	0.099
404.700	-0.383	0.099
404.800	-1.680	0.099
404.900	-8.406	0.099
405.000	-12.156	0.099
405.100	-9.094	0.099
405.200	-14.477	0.099
405.300	-10.241	0.099
405.400	-14.033	0.099
405.500	-14.250	0.099
405.600	-0.048	0.099
405.700	-14.836	0.099
405.800	-17.358	0.099
405.900	-6.658	0.099
406.000	-20.893	0.099
406.100	-12.945	0.099
406.200	2.449	0.099
406.300	-7.732	0.099
406.400	-5.099	0.099
406.500	-1.191	0.099
406.600	-16.754	0.099
406.700	1.100	0.099
406.800	-13.410	0.099
406.900	-9.016	0.099
407.000	-7.053	0.099
407.100	-11.915	0.099
407.200	-17.549	0.099
407.300	-15.469	0.099
407.400	0.157	0.099
407.500	-6.592	0.099
407.600	-13.479	0.099
407.700	3.642	0.099
407.800	-7.025	0.099
407.900	-4.278	0.099
408.000	-14.822	0.099
408.100	-19.017	0.099
408.200	-20.315	0.099
408.300	-6.787	0.099
408.400	-14.674	0.099
408.500	-6.889	0.099
408.600	0.632	0.099
408.700	-21.515	0.099
408.800	-19.894	0.099
408.900	-7.533	0.099
409.000	-10.305	0.099
409.100	-8.647	0.099
409.200	-24.031	0.099
409.300	-7.795	0.099
409.400	-3.785	0.099
409.500	-12.524	0.099
409.600	1.209	0.099
409.700	1.661	0.099
409.800	-5.305	0.099
409.900	-21.931	0.099
410.000	3.635	0.099
410.100	-8.956	0.099
410.200	-8.273	0.099
410.300	-8.148	0.099
410.400	-7.427	0.099
410.500	-7.908	0.099
410.600	-0.421	0.099
410.700	-0.969	0.099
410.800	-11.995	0.099
410.900	-2.604	0.099
411.000	-8.950	0.099
411.100	-0.374	0.099
411.200	-13.845	0.099
411.300	-9.549	0.099
411.400	-8.723	0.099
411.500	-4.387	0.099
411.600	-17.474	0.099
411.700	-1.568	0.099
411.800	16.146	0.099
411.900	-17.713	0.099
412.000	-7.946	0.099
412.100	-9.515	0.099
412.200	-1.358	0.099
412.300	-2.335	0.099
412.400	-5.019	0.099
412.500	5.149	0.099
412.600	-20.779	0.099
412.700	-1.787	0.099
412.800	-7.465	0.099
412.900	-10.056	0.099
413.000	0.911	0.099
413.100	-9.947	0.099
413.200	0.527	0.099
413.300	-18.185	0.099
413.400	-11.236	0.099
413.500	-5.938	0.099
413.600	0.364	0.099
413.700	2.153	0.099
413.800	-8.667	0.099
413.900	-9.781	0.099
414.000	-1.702	0.099
414.100	-20.328	0.099
414.200	-5.025	0.099
414.300	-9.479	0.099
414.400	-8.382	0.099
414.500	-15.104	0.099
414.600	-5.336	0.099
414.700	-6.551	0.099
414.800	-6.591	0.099
414.900	-7.785	0.099
415.000	4.212	0.099
415.100	-10.721	0.099
415.200	-9.793	0.099
415.300	-7.246	0.099
415.400	-15.872	0.099
415.500	-6.511	0.099
415.600	-14.815	0.099
415.700	-12.773	0.099
415.800	-10.897	0.099
415.900	-2.588	0.099
416.000	-1.549	0.099
416.100	0.142	0.099
416.200	-2.228	0.099
416.300	-11.272	0.099
416.400	-11.135	0.099
416.500	-13.728	0.099
416.600	0.016	0.099
416.700	-18.012	0.099
416.800	-19.554	0.099
416.900	-16.770	0.099
417.000	-8.281	0.099
417.100	-15.899	0.099
417.200	-3.816	0.099
417.300	1.355	0.099
417.400	-19.048	0.099
417.500	-7.233	0.099
417.600	-15.877	0.099
417.700	-20.017	0.099
417.800	-2.114	0.099
417.900	-5.123	0.099
418.000	-20.197	0.099
418.100	-15.755	0.099
418.200	-9.431	0.099
418.300	-2.414	0.099
418.400	-6.390	0.099
418.500	-20.259	0.099
418.600	-14.106	0.099
418.700	-13.056	0.099
418.800	-0.542	0.099
418.900	-7.686	0.099
419.000	-14.692	0.099
419.100	-5.829	0.099
419.200	-14.010	0.099
419.300	-6.055	0.099
419.400	-7.267	0.099
419.500	2.313	0.099
419.600	-8.988	0.099
419.700	-9.469	0.099
419.800	-14.492	0.099
419.900	-10.954	0.099
420.000	-10.322	0.099
420.100	-27.077	0.099
420.200	-14.699	0.099
420.300	-5.036	0.099
420.400	-11.353	0.099
420.500	-4.903	0.099
420.600	-40.106	0.099
420.700	1.185	0.099
420.800	-0.330	0.099
420.900	-19.233	0.099
421.000	-3.010	0.099
421.100	-10.485	0.099
421.200	-6.091	0.099
421.300	-10.368	0.099
421.400	-7.717	0.099
421.500	-10.141	0.099
421.600	-6.225	0.099
421.700	-7.400	0.099
421.800	-11.824	0.099
421.900	-8.021	0.099
422.000	-14.835	0.099
422.100	-7.356	0.099
422.200	3.753	0.099
422.300	-8.487	0.099
422.400	-19.593	0.099
422.500	-13.465	0.099
422.600	10.207	0.099
422.700	-13.441	0.099
422.800	-9.199	0.099
422.900	3.373	0.099
423.000	2.424	0.099
423.100	-26.895	0.099
423.200	0.384	0.099
423.300	6.541	0.099
423.400	-0.092	0.099
423.500	-6.613	0.099
423.600	-2.182	0.099
423.700	-22.098	0.099
423.800	-1.732	0.099
423.900	-0.657	0.099
424.000	3.780	0.099
424.100	-5.903	0.099
424.200	1.141	0.099
424.300	-9.848	0.099
424.400	-23.924	0.099
424.500	-18.956	0.099
424.600	-11.246	0.099
424.700	-6.754	0.099
424.800	3.856	0.099
424.900	-8.256	0.099
425.000	-10.104	0.099
425.100	4.486	0.099
425.200	1.483	0.099
425.300	-3.245	0.099
425.400	-14.892	0.099
425.500	-13.911	0.099
425.600	-3.361	0.099
425.700	-7.836	0.099
425.800	-18.007	0.099
425.900	-6.316	0.099
426.000	-10.730	0.099
426.100	-11.152	0.099
426.200	0.102	0.099
426.300	1.556	0.099
426.400	-12.726	0.099
426.500	-6.397	0.099
426.600	1.910	0.099
426.700	-8.246	0.099
426.800	-13.863	0.099
426.900	-16.386	0.099
427.000	-8.168	0.099
427.100	-9.825	0.099
427.200	-6.452	0.099
427.300	-12.067	0.099
427.400	-19.915	0.099
427.500	6.960	0.099
427.600	-7.358	0.099
427.700	-3.777	0.099
427.800	-2.935	0.099
427.900	-17.011	0.099
428.000	-11.349	0.099
428.100	-3.792	0.099
428.200	-10.676	0.099
428.300	-7.718	0.099
428.400	0.670	0.099
428.500	-0.582	0.099
428.600	-6.715	0.099
428.700	3.335	0.099
428.800	-18.783	0.099
428.900	-18.587	0.099
429.000	4.118	0.099
429.100	-3.845	0.099
429.200	-12.978	0.099
429.300	0.067	0.099
429.400	-3.757	0.099
429.500	-17.697	0.099
429.600	-2.165	0.099
429.700	-6.257	0.099
429.800	-11.972	0.099
429.900	6.128	0.099
430.000	10.516	0.099
430.100	-4.422	0.099
430.200	6.396	0.099
430.300	-8.118	0.099
430.400	-8.181	0.099
430.500	-4.678	0.099
430.600	-8.323	0.099
430.700	-6.960	0.099
430.800	-19.791	0.099
430.900	-24.165	0.099
431.000	-5.570	0.099
431.100	-3.381	0.099
431.200	-8.037	0.099
431.300	-12.929	0.099
431.400	-8.927	0.099
431.500	-16.715	0.099
431.600	-4.471	0.099
431.700	-1.292	0.099
431.800	-2.989	0.099
431.900	-9.630	0.099
432.000	-6.352	0.099
432.100	-1.301	0.099
432.200	-19.793	0.099
432.300	-14.937	0.099
432.400	-9.756	0.099
432.500	4.608	0.099
432.600	-16.858	0.099
432.700	-4.647	0.099
432.800	-7.145	0.099
432.900	-9.362	0.099
433.000	-5.639	0.099
433.100	0.338	0.099
433.200	-17.455	0.099
433.300	1.900	0.099
433.400	-3.745	0.099
433.500	-8.756	0.099
433.600	-15.364	0.099
433.700	13.566	0.099
433.800	-4.508	0.099
433.900	1.709	0.099
434.000	-5.144	0.099
434.100	14.052	0.099
434.200	4.962	0.099
434.300	-8.257	0.099
434.400	-5.667	0.099
434.500	-18.852	0.099
434.600	-12.373	0.099
434.700	-4.188	0.099
434.800	-4.428	0.099
434.900	-7.718	0.099
435.000	-2.583	0.099
435.100	-0.290	0.099
435.200	-3.009	0.099
435.300	-15.639	0.099
435.400	-4.539	0.099
435.500	-14.819	0.099
435.600	-16.039	0.099
435.700	-7.964	0.099
435.800	-18.050	0.099
435.900	-10.222	0.099
436.000	-15.732	0.099
436.100	5.329	0.099
436.200	-17.349	0.099
436.300	-5.214	0.099
436.400	-10.070	0.099
436.500	12.192	0.099
436.600	-4.005	0.099
436.700	-10.049	0.099
436.800	-7.260	0.099
436.900	-9.893	0.099
437.000	7.189	0.099
437.100	-10.507	0.099
437.200	0.854	0.099
437.300	7.328	0.099
437.400	0.727	0.099
437.500	-2.985	0.099
437.600	1.648	0.099
437.700	0.069	0.099
437.800	-13.615	0.099
437.900	-6.303	0.099
438.000	-3.975	0.099
438.100	-5.483	0.099
438.200	-11.828	0.099
438.300	-10.231	0.099
438.400	-2.055	0.099
438.500	-1.482	0.099
438.600	-23.730	0.099
438.700	-4.080	0.099
438.800	-26.435	0.099
438.900	-0.735	0.099
439.000	-2.599	0.099
439.100	-6.904	0.099
439.200	-8.797	0.099
439.300	-1.504	0.099
439.400	-6.485	0.099
439.500	-11.424	0.099
439.600	-9.006	0.099
439.700	6.157	0.099
439.800	1.665	0.099
439.900	-4.632	0.099
440.000	-21.307	0.099
440.100	-5.218	0.099
440.200	-8.090	0.099
440.300	-7.065	0.099
440.400	-1.552	0.099
440.500	-1.277	0.099
440.600	16.692	0.099
440.700	-4.682	0.099
440.800	4.682	0.099
440.900	-5.059	0.099
441.000	4.996	0.099
441.100	-27.613	0.099
441.200	-13.899	0.099
441.300	-9.173	0.099
441.400	3.914	0.099
441.500	10.413	0.099
441.600	-11.264	0.099
441.700	-14.195	0.099
441.800	-17.224	0.099
441.900	-3.629	0.099
442.000	-12.483	0.099
442.100	-2.477	0.099
442.200	-0.587	0.099
442.300	-13.229	0.099
442.400	2.434	0.099
442.500	-10.610	0.099
442.600	-19.348	0.099
442.700	-1.931	0.099
442.800	-2.258	0.099
442.900	-5.259	0.099
443.000	-4.594	0.099
443.100	1.432	0.099
443.200	-1.939	0.099
443.300	1.122	0.099
443.400	-2.541	0.099
443.500	-5.516	0.099
443.600	3.888	0.099
443.700	-6.793	0.099
443.800	-8.988	0.099
443.900	-8.288	0.099
444.000	-7.473	0.099
444.100	-12.732	0.099
444.200	-12.127	0.099
444.300	-4.853	0.099
444.400	-12.128	0.099
444.500	1.610	0.099
444.600	-9.279	0.099
444.700	-3.687	0.099
444.800	12.110	0.099
444.900	0.613	0.099
445.000	-9.324	0.099
445.100	-9.647	0.099
445.200	-6.174	0.099
445.300	6.434	0.099
445.400	-3.704	0.099
445.500	-2.204	0.099
445.600	-13.153	0.099
445.700	6.025	0.099
445.800	-10.165	0.099
445.900	0.851	0.099
446.000	-13.587	0.099
446.100	-23.218	0.099
446.200	1.712	0.099
446.300	-6.709	0.099
446.400	-11.030	0.099
446.500	1.407	0.099
446.600	2.742	0.099
446.700	-8.544	0.099
446.800	-8.743	0.099
446.900	-14.423	0.099
447.000	-3.916	0.099
447.100	-3.410	0.099
447.200	0.248	0.099
447.300	2.125	0.099
447.400	-1.951	0.099
447.500	-10.504	0.099
447.600	-6.460	0.099
447.700	-9.780	0.099
447.800	-6.728	0.099
447.900	-6.620	0.099
448.000	-2.931	0.099
448.100	2.923	0.099
448.200	-4.931	0.099
448.300	-3.365	0.099
448.400	-17.469	0.099
448.500	1.544	0.099
448.600	-16.641	0.099
448.700	-5.798	0.099
448.800	4.201	0.099
448.900	-7.593	0.099
449.000	-8.181	0.099
449.100	1.511	0.099
449.200	-0.986	0.099
449.300	-0.302	0.099
449.400	-10.115	0.099
449.500	-7.210	0.099
449.600	-6.744	0.099
449.700	1.856	0.099
449.800	-5.262	0.099
449.900	-1.819	0.099
450.000	-10.584	0.099
450.100	-6.654	0.099
450.200	-10.059	0.099
450.300	-3.751	0.099
450.400	-0.962	0.099
450.500	-6.346	0.099
450.600	5.433	0.099
450.700	8.970	0.099
450.800	-14.972	0.099
450.900	-3.040	0.099
451.000	-8.853	0.099
451.100	-3.271	0.099
451.200	1.266	0.099
451.300	-5.886	0.099
451.400	-15.197	0.099
451.500	-4.702	0.099
451.600	-1.459	0.099
451.700	-2.829	0.099
451.800	-4.270	0.099
451.900	-7.706	0.099
452.000	-17.654	0.099
452.100	-7.271	0.099
452.200	7.539	0.099
452.300	5.950	0.099
452.400	-23.720	0.099
452.500	4.753	0.099
452.600	-21.802	0.099
452.700	2.163	0.099
452.800	-5.370	0.099
452.900	-14.884	0.099
453.000	-19.153	0.099
453.100	4.646	0.099
453.200	-9.125	0.099
453.300	9.443	0.099
453.400	0.335	0.099
453.500	-23.013	0.099
453.600	-6.287	0.099
453.700	-14.813	0.099
453.800	-7.816	0.099
453.900	-5.452	0.099
454.000	9.331	0.099
454.100	2.082	0.099
454.200	-1.525	0.099
454.300	13.560	0.099
454.400	-24.737	0.099
454.500	-2.338	0.099
454.600	-9.746	0.099
454.700	-10.303	0.099
454.800	2.926	0.099
454.900	-8.602	0.099
455.000	-12.447	0.099
455.100	-5.973	0.099
455.200	-1.514	0.099
455.300	-22.296	0.099
455.400	-5.856	0.099
455.500	-5.169	0.099
455.600	-1.904	0.099
455.700	-1.653	0.099
455.800	-6.967	0.099
455.900	-12.010	0.099
456.000	3.048	0.099
456.100	-0.493	0.099
456.200	-9.421	0.099
456.300	1.180	0.099
456.400	-8.535	0.099
456.500	-13.772	0.099
456.600	-7.693	0.099
456.700	-1.730	0.099
456.800	3.524	0.099
456.900	-11.103	0.099
457.000	-3.732	0.099
457.100	-13.429	0.099
457.200	-5.931	0.099
457.300	4.187	0.099
457.400	4.195	0.099
457.500	5.612	0.099
457.600	-4.246	0.099
457.700	2.453	0.099
457.800	-11.132	0.099
457.900	-7.344	0.099
458.000	-14.723	0.099
458.100	3.697	0.099
458.200	4.209	0.099
458.300	1.760	0.099
458.400	-11.929	0.099
458.500	4.327	0.099
458.600	-12.360	0.099
458.700	-1.515	0.099
458.800	-10.687	0.099
458.900	-2.469	0.099
459.000	-4.160	0.099
459.100	-12.403	0.099
459.200	1.185	0.099
459.300	-5.281	0.099
459.400	-6.566	0.099
459.500	2.162	0.099
459.600	-14.648	0.099
459.700	-5.159	0.099
459.800	-7.311	0.099
459.900	-5.507	0.099
460.000	-14.823	0.099
460.100	6.070	0.099
460.200	-7.960	0.099
460.300	-4.772	0.099
460.400	-13.204	0.099
460.500	2.046	0.099
460.600	3.556	0.099
460.700	-21.788	0.099
460.800	-0.296	0.099
460.900	-4.313	0.099
461.000	-4.556	0.099
461.100	-21.745	0.099
461.200	-10.070	0.099
461.300	-7.909	0.099
461.400	-3.114	0.099
461.500	-14.906	0.099
461.600	4.171	0.099
461.700	-4.061	0.099
461.800	0.217	0.099
461.900	-22.859	0.099
462.000	-1.384	0.099
462.100	-6.313	0.099
462.200	12.151	0.099
462.300	1.544	0.099
462.400	-18.743	0.099
462.500	-20.596	0.099
462.600	-4.183	0.099
462.700	-3.671	0.099
462.800	-2.991	0.099
462.900	-5.340	0.099
463.000	-0.938	0.099
463.100	-7.211	0.099
463.200	-2.217	0.099
463.300	-9.403	0.099
463.400	0.207	0.099
463.500	-1.935	0.099
463.600	-3.014	0.099
463.700	-0.928	0.099
463.800	-19.465	0.099
463.900	-6.981	0.099
464.000	-4.585	0.099
464.100	-0.762	0.099
464.200	2.499	0.099
464.300	-5.224	0.099
464.400	-12.883	0.099
464.500	8.986	0.099
464.600	2.601	0.099
464.700	-10.420	0.099
464.800	-0.568	0.099
464.900	3.881	0.099
465.000	7.949	0.099
465.100	-8.108	0.099
465.200	5.548	0.099
465.300	-7.955	0.099
465.400	-7.090	0.099
465.500	-4.191	0.099
465.600	-3.208	0.099
465.700	-18.535	0.099
465.800	-11.092	0.099
465.900	-2.212	0.099
466.000	-0.553	0.099
466.100	-0.495	0.099
466.200	-0.056	0.099
466.300	-1.893	0.099
466.400	-10.357	0.099
466.500	-1.806	0.099
466.600	-6.801	0.099
466.700	3.027	0.099
466.800	-2.702	0.099
466.900	-6.182	0.099
467.000	7.057	0.099
467.100	3.776	0.099
467.200	4.450	0.099
467.300	-9.360	0.099
467.400	2.710	0.099
467.500	-10.303	0.099
467.600	2.561	0.099
467.700	-12.794	0.099
467.800	-5.113	0.099
467.900	-8.107	0.099
468.000	6.636	0.099
468.100	-9.726	0.099
468.200	10.854	0.099
468.300	-8.792	0.099
468.400	-9.012	0.099
468.500	1.179	0.099
468.600	8.740	0.099
468.700	6.332	0.099
468.800	-3.746	0.099
468.900	-7.187	0.099
469.000	-3.205	0.099
469.100	-9.078	0.099
469.200	-5.826	0.099
469.300	-2.826	0.099
469.400	-0.222	0.099
469.500	-5.434	0.099
469.600	-2.189	0.099
469.700	-9.825	0.099
469.800	-1.185	0.099
469.900	-25.703	0.099
470.000	-6.859	0.099
470.100	-30.746	0.099
470.200	15.323	0.099
470.300	9.297	0.099
470.400	-19.446	0.099
470.500	4.649	0.099
470.600	-15.320	0.099
470.700	5.051	0.099
470.800	-9.489	0.099
470.900	-1.397	0.099
471.000	-10.815	0.099
471.100	1.702	0.099
471.200	-17.510	0.099
471.300	7.580	0.099
471.400	-5.529	0.099
471.500	-0.266	0.099
471.600	-14.339	0.099
471.700	-8.879	0.099
471.800	-7.034	0.099
471.900	1.204	0.099
472.000	-3.607	0.099
472.100	4.594	0.099
472.200	-6.151	0.099
472.300	-5.693	0.099
472.400	-20.333	0.099
472.500	-8.065	0.099
472.600	0.815	0.099
472.700	0.946	0.099
472.800	-7.048	0.099
472.900	3.913	0.099
473.000	3.781	0.099
473.100	-10.894	0.099
473.200	-6.349	0.099
473.300	-35.953	0.099
473.400	-1.840	0.099
473.500	0.032	0.099
473.600	8.974	0.099
473.700	-17.114	0.099
473.800	-5.346	0.099
473.900	-0.974	0.099
474.000	-11.846	0.099
474.100	10.924	0.099
474.200	-0.103	0.099
474.300	0.073	0.099
474.400	-7.600	0.099
474.500	-2.496	0.099
474.600	4.166	0.099
474.700	-2.382	0.099
474.800	-0.439	0.099
474.900	1.104	0.099
475.000	-14.077	0.099
475.100	-9.986	0.099
475.200	-9.817	0.099
475.300	-12.403	0.099
475.400	-1.337	0.099
475.500	4.049	0.099
475.600	7.472	0.099
475.700	-5.600	0.099
475.800	1.860	0.099
475.900	-4.776	0.099
476.000	7.357	0.099
476.100	10.996	0.099
476.200	3.886	0.099
476.300	4.045	0.099
476.400	1.408	0.099
476.500	-4.663	0.099
476.600	-0.286	0.099
476.700	-10.340	0.099
476.800	-1.432	0.099
476.900	-1.794	0.099
477.000	-5.525	0.099
477.100	-3.255	0.099
477.200	10.651	0.099
477.300	-6.453	0.099
477.400	-5.906	0.099
477.500	15.445	0.099
477.600	-10.527	0.099
477.700	5.200	0.099
477.800	-11.637	0.099
477.900	-5.512	0.099
478.000	-16.677	0.099
478.100	10.939	0.099
478.200	8.158	0.099
478.300	0.808	0.099
478.400	-12.932	0.099
478.500	3.241	0.099
478.600	3.733	0.099
478.700	11.110	0.099
478.800	-9.779	0.099
478.900	-7.800	0.099
479.000	7.137	0.099
479.100	6.346	0.099
479.200	-1.139	0.099
479.300	-14.907	0.099
479.400	-0.966	0.099
479.500	1.967	0.099
479.600	0.013	0.099
479.700	3.693	0.099
479.800	-0.695	0.099
479.900	-0.715	0.099
480.000	-5.570	0.099
480.100	-12.911	0.099
480.200	-3.034	0.099
480.300	-4.133	0.099
480.400	-12.649	0.099
480.500	13.695	0.099
480.600	-1.519	0.099
480.700	8.271	0.099
480.800	1.375	0.099
480.900	32.285	0.099
481.000	25.115	0.099
481.100	19.375	0.099
481.200	32.454	0.099
481.300	31.146	0.099
481.400	37.601	0.099
481.500	26.270	0.099
481.600	34.547	0.099
481.700	24.434	0.099
481.800	28.387	0.099
481.900	33.935	0.099
482.000	16.141	0.099
482.100	35.718	0.099
482.200	20.775	0.099
482.300	26.243	0.099
482.400	34.697	0.099
482.500	30.318	0.099
482.600	25.510	0.099
482.700	36.888	0.099
482.800	30.942	0.099
482.900	35.825	0.099
483.000	37.555	0.099
483.100	29.784	0.099
483.200	23.883	0.099
483.300	28.359	0.099
483.400	35.333	0.099
483.500	10.346	0.099
483.600	26.521	0.099
483.700	26.931	0.099
483.800	22.982	0.099
483.900	19.750	0.099
484.000	23.528	0.099
484.100	33.152	0.099
484.200	23.858	0.099
484.300	33.694	0.099
484.400	19.249	0.099
484.500	39.455	0.099
484.600	20.048	0.099
484.700	18.242	0.099
484.800	20.380	0.099
484.900	24.558	0.099
485.000	29.309	0.099
485.100	34.179	0.099
485.200	32.182	0.099
485.300	28.533	0.099
485.400	18.160	0.099
485.500	17.839	0.099
485.600	28.010	0.099
485.700	20.864	0.099
485.800	21.431	0.099
485.900	20.651	0.099
486.000	26.131	0.099
486.100	21.535	0.099
486.200	27.064	0.099
486.300	30.592	0.099
486.400	11.647	0.099
486.500	20.248	0.099
486.600	17.343	0.099
486.700	14.317	0.099
486.800	14.353	0.099
486.900	16.808	0.099
487.000	15.679	0.099
487.100	21.640	0.099
487.200	14.045	0.099
487.300	27.889	0.099
487.400	26.917	0.099
487.500	26.322	0.099
487.600	19.215	0.099
487.700	10.491	0.099
487.800	27.167	0.099
487.900	11.459	0.099
488.000	33.604	0.099
488.100	20.355	0.099
488.200	34.439	0.099
488.300	17.503	0.099
488.400	17.321	0.099
488.500	16.466	0.099
488.600	26.838	0.099
488.700	11.218	0.099
488.800	20.706	0.099
488.900	24.861	0.099
489.000	24.234	0.099
489.100	26.337	0.099
489.200	26.293	0.099
489.300	18.677	0.099
489.400	14.094	0.099
489.500	20.869	0.099
489.600	21.614	0.099
489.700	17.202	0.099
489.800	43.053	0.099
489.900	23.027	0.099
490.000	13.223	0.099
490.100	16.773	0.099
490.200	24.745	0.099
490.300	23.794	0.099
490.400	28.124	0.099
490.500	28.077	0.099
490.600	25.001	0.099
490.700	34.817	0.099
490.800	17.701	0.099
490.900	10.471	0.099
491.000	33.683	0.099
491.100	28.968	0.099
491.200	22.720	0.099
491.300	26.849	0.099
491.400	18.861	0.099
491.500	29.689	0.099
491.600	18.598	0.099
491.700	26.556	0.099
491.800	28.065	0.099
491.900	32.217	0.099
492.000	18.703	0.099
492.100	31.041	0.099
492.200	38.640	0.099
492.300	27.647	0.099
492.400	43.492	0.099
492.500	18.506	0.099
492.600	31.960	0.099
492.700	32.974	0.099
492.800	22.596	0.099
492.900	27.865	0.099
493.000	25.698	0.099
493.100	39.980	0.099
493.200	24.871	0.099
493.300	26.953	0.099
493.400	29.247	0.099
493.500	41.627	0.099
493.600	31.376	0.099
493.700	21.750	0.099
493.800	26.654	0.099
493.900	21.906	0.099
494.000	39.803	0.099
494.100	23.425	0.099
494.200	32.857	0.099
494.300	32.549	0.099
494.400	25.868	0.099
494.500	22.916	0.099
494.600	23.614	0.099
494.700	23.824	0.099
494.800	29.638	0.099
494.900	20.213	0.099
495.000	32.126	0.099
495.100	30.989	0.099
495.200	21.165	0.099
495.300	28.434	0.099
495.400	19.316	0.099
495.500	31.950	0.099
495.600	23.978	0.099
495.700	34.312	0.099
495.800	15.181	0.099
495.900	30.323	0.099
496.000	19.016	0.099
496.100	29.627	0.099
496.200	21.459	0.099
496.300	33.780	0.099
496.400	21.452	0.099
496.500	35.096	0.099
496.600	28.707	0.099
496.700	25.708	0.099
496.800	13.394	0.099
496.900	27.621	0.099
497.000	39.808	0.099
497.100	26.986	0.099
497.200	24.779	0.099
497.300	25.294	0.099
497.400	28.207	0.099
497.500	22.219	0.099
497.600	35.450	0.099
497.700	30.193	0.099
497.800	22.050	0.099
497.900	37.431	0.099
498.000	44.717	0.099
498.100	15.927	0.099
498.200	26.633	0.099
498.300	27.376	0.099
498.400	43.033	0.099
498.500	25.850	0.099
498.600	37.035	0.099
498.700	23.903	0.099
498.800	26.676	0.099
498.900	32.932	0.099
499.000	25.202	0.099
499.100	21.957	0.099
499.200	38.117	0.099
499.300	28.371	0.099
499.400	23.282	0.099
499.500	31.398	0.099
499.600	35.964	0.099
499.700	30.119	0.099
499.800	35.922	0.099
499.900	33.031	0.099
500.000	25.969	0.099
500.100	18.370	0.099
500.200	22.974	0.099
500.300	18.774	0.099
500.400	22.639	0.099
500.500	26.871	0.099
500.600	33.949	0.099
500.700	23.234	0.099
500.800	27.789	0.099
500.900	31.029	0.099
501.000	21.071	0.099
501.100	29.350	0.099
501.200	43.524	0.099
501.300	30.829	0.099
501.400	19.965	0.099
501.500	22.311	0.099
501.600	46.151	0.099
501.700	34.119	0.099
501.800	19.815	0.099
501.900	32.467	0.099
502.000	19.132	0.099
502.100	32.428	0.099
502.200	28.242	0.099
502.300	37.273	0.099
502.400	24.743	0.099
502.500	39.290	0.099
502.600	25.848	0.099
502.700	30.127	0.099
502.800	22.139	0.099
502.900	36.273	0.099
503.000	24.754	0.099
503.100	16.750	0.099
503.200	21.612	0.099
503.300	36.780	0.099
503.400	28.966	0.099
503.500	18.362	0.099
503.600	17.136	0.099
503.700	29.377	0.099
503.800	22.628	0.099
503.900	18.174	0.099
504.000	21.857	0.099
504.100	39.663	0.099
504.200	27.190	0.099
504.300	11.045	0.099
504.400	30.553	0.099
504.500	27.524	0.099
504.600	27.970	0.099
504.700	24.324	0.099
504.800	28.186	0.099
504.900	21.688	0.099
505.000	16.597	0.099
505.100	33.544	0.099
505.200	19.561	0.099
505.300	25.824	0.099
505.400	21.815	0.099
505.500	15.262	0.099
505.600	34.819	0.099
505.700	30.787	0.099
505.800	32.771	0.099
505.900	43.042	0.099
506.000	18.742	0.099
506.100	24.511	0.099
506.200	19.571	0.099
506.300	24.672	0.099
506.400	27.148	0.099
506.500	20.401	0.099
506.600	39.484	0.099
506.700	31.062	0.099
506.800	30.213	0.099
506.900	32.246	0.099
507.000	12.787	0.099
507.100	39.763	0.099
507.200	32.409	0.099
507.300	28.248	0.099
507.400	14.735	0.099
507.500	33.881	0.099
507.600	23.493	0.099
507.700	21.380	0.099
507.800	34.451	0.099
507.900	27.710	0.099
508.000	24.652	0.099
508.100	21.568	0.099
508.200	31.194	0.099
508.300	26.252	0.099
508.400	27.712	0.099
508.500	32.569	0.099
508.600	26.089	0.099
508.700	26.712	0.099
508.800	29.211	0.099
508.900	4.716	0.099
509.000	29.994	0.099
509.100	27.462	0.099
509.200	40.861	0.099
509.300	25.183	0.099
509.400	19.659	0.099
509.500	33.386	0.099
509.600	19.595	0.099
509.700	25.463	0.099
509.800	25.809	0.099
509.900	32.476	0.099
510.000	24.809	0.099
510.100	30.818	0.099
510.200	42.150	0.099
510.300	24.334	0.099
510.400	35.412	0.099
510.500	22.295	0.099
510.600	17.479	0.099
510.700	38.766	0.099
510.800	25.128	0.099
510.900	26.614	0.099
511.000	26.163	0.099
511.100	28.262	0.099
511.200	10.875	0.099
511.300	27.912	0.099
511.400	17.900	0.099
511.500	21.488	0.099
511.600	23.878	0.099
511.700	23.454	0.099
511.800	8.263	0.099
511.900	20.340	0.099
512.000	21.288	0.099
512.100	21.548	0.099
512.200	37.121	0.099
512.300	21.505	0.099
512.400	23.809	0.099
512.500	8.915	0.099
512.600	35.520	0.099
512.700	24.822	0.099
512.800	24.786	0.099
512.900	23.977	0.099
513.000	10.245	0.099
513.100	38.672	0.099
513.200	8.186	0.099
513.300	-8.647	0.099
513.400	29.034	0.099
513.500	17.010	0.099
513.600	30.739	0.099
513.700	26.060	0.099
513.800	23.769	0.099
513.900	16.047	0.099
514.000	25.573	0.099
514.100	24.007	0.099
514.200	16.647	0.099
514.300	28.756	0.099
514.400	17.405	0.099
514.500	28.724	0.099
514.600	31.279	0.099
514.700	17.099	0.099
514.800	20.961	0.099
514.900	23.828	0.099
515.000	32.941	0.099
515.100	15.942	0.099
515.200	12.212	0.099
515.300	15.512	0.099
515.400	25.857	0.099
515.500	37.174	0.099
515.600	36.413	0.099
515.700	21.593	0.099
515.800	18.182	0.099
515.900	23.848	0.099
516.000	15.314	0.099
516.100	28.235	0.099
516.200	29.721	0.099
516.300	23.779	0.099
516.400	18.650	0.099
516.500	29.124	0.099
516.600	16.789	0.099
516.700	27.675	0.099
516.800	21.646	0.099
516.900	19.857	0.099
517.000	12.834	0.099
517.100	33.455	0.099
517.200	28.977	0.099
517.300	15.892	0.099
517.400	32.530	0.099
517.500	13.184	0.099
517.600	18.077	0.099
517.700	22.722	0.099
517.800	17.601	0.099
517.900	31.995	0.099
518.000	2.866	0.099
518.100	28.882	0.099
518.200	11.309	0.099
518.300	17.068	0.099
518.400	26.512	0.099
518.500	25.042	0.099
518.600	27.906	0.099
518.700	20.657	0.099
518.800	23.172	0.099
518.900	16.477	0.099
519.000	28.687	0.099
519.100	28.806	0.099
519.200	19.515	0.099
519.300	19.393	0.099
519.400	19.686	0.099
519.500	24.215	0.099
519.600	28.696	0.099
519.700	20.569	0.099
519.800	24.739	0.099
519.900	24.880	0.099
520.000	21.894	0.099
520.100	24.435	0.099
520.200	19.218	0.099
520.300	23.512	0.099
520.400	27.124	0.099
520.500	20.560	0.099
520.600	8.346	0.099
520.700	21.678	0.099
520.800	22.933	0.099
520.900	9.334	0.099
521.000	27.044	0.099
521.100	23.811	0.099
521.200	12.474	0.099
521.300	18.139	0.099
521.400	15.985	0.099
521.500	25.242	0.099
521.600	38.925	0.099
521.700	25.897	0.099
521.800	28.778	0.099
521.900	16.504	0.099
522.000	19.035	0.099
522.100	27.943	0.099
522.200	19.658	0.099
522.300	18.683	0.099
522.400	24.465	0.099
522.500	27.731	0.099
522.600	22.654	0.099
522.700	30.077	0.099
522.800	25.752	0.099
522.900	14.321	0.099
523.000	24.191	0.099
523.100	16.407	0.099
523.200	30.390	0.099
523.300	21.317	0.099
523.400	11.580	0.099
523.500	30.695	0.099
523.600	10.330	0.099
523.700	16.756	0.099
523.800	11.381	0.099
523.900	18.672	0.099
524.000	12.894	0.099
524.100	29.841	0.099
524.200	17.724	0.099
524.300	18.876	0.099
524.400	17.656	0.099
524.500	27.779	0.099
524.600	10.789	0.099
524.700	3.958	0.099
524.800	48.502	0.099
524.900	24.275	0.099
525.000	19.348	0.099
525.100	32.706	0.099
525.200	17.136	0.099
525.300	20.794	0.099
525.400	20.090	0.099
525.500	25.673	0.099
525.600	6.866	0.099
525.700	22.157	0.099
525.800	26.137	0.099
525.900	18.525	0.099
526.000	13.859	0.099
526.100	20.676	0.099
526.200	15.678	0.099
526.300	23.162	0.099
526.400	19.733	0.099
526.500	16.551	0.099
526.600	18.334	0.099
526.700	34.987	0.099
526.800	21.164	0.099
526.900	13.687	0.099
527.000	25.349	0.099
527.100	22.159	0.099
527.200	22.783	0.099
527.300	8.759	0.099
527.400	35.073	0.099
527.500	21.135	0.099
527.600	14.305	0.099
527.700	27.708	0.099
527.800	10.403	0.099
527.900	23.311	0.099
528.000	33.192	0.099
528.100	36.966	0.099
528.200	10.149	0.099
528.300	8.100	0.099
528.400	17.258	0.099
528.500	24.067	0.099
528.600	14.956	0.099
528.700	20.886	0.099
528.800	27.677	0.099
528.900	6.291	0.099
529.000	32.902	0.099
529.100	27.756	0.099
529.200	25.697	0.099
529.300	26.011	0.099
529.400	22.776	0.099
529.500	25.329	0.099
529.600	16.741	0.099
529.700	10.497	0.099
529.800	36.404	0.099
529.900	18.926	0.099
530.000	12.602	0.099
530.100	16.790	0.099
530.200	37.020	0.099
530.300	19.305	0.099
530.400	21.108	0.099
530.500	25.978	0.099
530.600	27.295	0.099
530.700	19.988	0.099
530.800	18.029	0.099
530.900	21.633	0.099
531.000	14.005	0.099
531.100	26.162	0.099
531.200	16.823	0.099
531.300	15.097	0.099
531.400	31.989	0.099
531.500	19.025	0.099
531.600	31.096	0.099
531.700	23.794	0.099
531.800	19.362	0.099
531.900	12.364	0.099
532.000	29.497	0.099
532.100	16.485	0.099
532.200	25.106	0.099
532.300	32.928	0.099
532.400	18.104	0.100
532.500	27.068	0.099
532.600	24.276	0.099
532.700	17.031	0.099
532.800	19.992	0.099
532.900	14.513	0.099
533.000	32.823	0.099
533.100	8.497	0.099
533.200	19.463	0.099
533.300	19.383	0.099
533.400	15.291	0.099
533.500	24.387	0.099
533.600	19.036	0.099
533.700	12.077	0.099
533.800	25.079	0.099
533.900	7.298	0.099
534.000	12.129	0.099
534.100	21.476	0.099
534.200	4.287	0.099
534.300	22.278	0.099
534.400	19.849	0.099
534.500	31.422	0.099
534.600	15.205	0.099
534.700	10.942	0.099
534.800	9.471	0.099
534.900	23.112	0.099
535.000	23.504	0.099
535.100	21.420	0.099
535.200	5.333	0.099
535.300	13.840	0.099
535.400	24.050	0.099
535.500	18.006	0.099
535.600	16.510	0.099
535.700	40.433	0.099
535.800	24.688	0.099
535.900	18.883	0.099
536.000	5.964	0.099
536.100	14.349	0.099
536.200	26.428	0.099
536.300	11.088	0.099
536.400	10.901	0.099
536.500	23.848	0.099
536.600	21.832	0.099
536.700	3.992	0.099
536.800	30.018	0.099
536.900	19.307	0.099
537.000	13.761	0.099
537.100	19.607	0.099
537.200	15.202	0.099
537.300	22.078	0.099
537.400	30.229	0.099
537.500	2.658	0.099
537.600	18.037	0.099
537.700	15.364	0.099
537.800	19.938	0.099
537.900	22.207	0.099
538.000	16.765	0.099
538.100	17.743	0.099
538.200	22.005	0.099
538.300	13.818	0.099
538.400	14.006	0.099
538.500	16.369	0.099
538.600	16.062	0.099
538.700	17.105	0.099
538.800	15.528	0.100
538.900	11.357	0.099
539.000	15.444	0.099
539.100	12.553	0.099
539.200	6.715	0.099
539.300	19.232	0.099
539.400	22.129	0.099
539.500	30.306	0.099
539.600	31.055	0.099
539.700	26.963	0.099
539.800	22.617	0.099
539.900	26.406	0.099
540.000	22.297	0.099
540.100	13.070	0.099
540.200	35.669	0.099
540.300	17.048	0.099
540.400	15.175	0.099
540.500	4.405	0.099
540.600	15.241	0.099
540.700	-3.405	0.099
540.800	1.974	0.099
540.900	-8.731	0.099
541.000	-0.558	0.099
541.100	-1.772	0.099
541.200	-10.907	0.099
541.300	-11.875	0.099
541.400	-22.535	0.099
541.500	-27.695	0.099
541.600	-25.957	0.099
541.700	-26.712	0.099
541.800	-35.436	0.099
541.900	-21.159	0.099
542.000	-40.990	0.099
542.100	-36.439	0.099
542.200	-35.808	0.099
542.300	-48.955	0.099
542.400	-47.796	0.099
542.500	-39.720	0.099
542.600	-41.135	0.099
542.700	-22.866	0.099
542.800	-50.788	0.099
542.900	-41.121	0.099
543.000	-32.910	0.099
543.100	-47.003	0.099
543.200	-53.051	0.099
543.300	-29.795	0.099
543.400	-46.970	0.099
543.500	-53.990	0.099
543.600	-48.580	0.099
543.700	-54.084	0.099
543.800	-40.892	0.099
543.900	-53.400	0.099
544.000	-66.054	0.099
544.100	-42.170	0.099
544.200	-45.863	0.099
544.300	-71.044	0.099
544.400	-44.370	0.099
544.500	-54.984	0.099
544.600	-37.610	0.099
544.700	-46.569	0.099
544.800	-47.877	0.099
544.900	-51.080	0.099
545.000	-42.199	0.099
545.100	-59.535	0.099
545.200	-32.500	0.099
545.300	-37.929	0.099
545.400	-38.503	0.099
545.500	-45.097	0.099
545.600	-45.118	0.099
545.700	-44.925	0.099
545.800	-44.043	0.099
545.900	-32.924	0.099
546.000	-26.495	0.099
546.100	-46.793	0.099
546.200	-36.098	0.099
546.300	-37.037	0.099
546.400	-41.152	0.099
546.500	-40.251	0.099
546.600	-37.129	0.099
546.700	-31.068	0.099
546.800	-29.202	0.099
546.900	-23.191	0.099
547.000	-36.268	0.099
547.100	-25.298	0.099
547.200	-38.833	0.099
547.300	-27.177	0.099
547.400	-25.438	0.099
547.500	-24.645	0.099
547.600	-23.943	0.099
547.700	-25.783	0.099
547.800	-35.406	0.099
547.900	-32.737	0.099
548.000	-43.391	0.099
548.100	-19.023	0.099
548.200	-22.413	0.099
548.300	-25.185	0.099
548.400	-28.723	0.099
548.500	-29.938	0.099
548.600	-18.067	0.099
548.700	-23.854	0.099
548.800	-12.819	0.099
548.900	-13.153	0.099
549.000	-15.483	0.099
549.100	-11.079	0.099
549.200	-29.160	0.099
549.300	-30.295	0.099
549.400	-17.291	0.099
549.500	-18.295	0.099
549.600	-12.124	0.099
549.700	-10.842	0.099
549.800	-15.966	0.099
549.900	-2.626	0.099
550.000	-24.416	0.099
550.100	-13.091	0.099
550.200	-11.961	0.099
550.300	-10.491	0.099
550.400	-12.041	0.099
550.500	-18.346	0.099
550.600	-18.842	0.099
550.700	-20.698	0.099
550.800	2.102	0.099
550.900	-30.338	0.099
551.000	-17.203	0.099
551.100	-18.354	0.099
551.200	-19.399	0.099
551.300	-8.562	0.099
551.400	-35.296	0.099
551.500	-10.163	0.099
551.600	-17.687	0.099
551.700	-24.767	0.099
551.800	-9.181	0.099
551.900	-8.454	0.099
552.000	-15.190	0.099
552.100	-18.857	0.099
552.200	-9.696	0.099
552.300	-7.368	0.099
552.400	-15.255	0.099
552.500	-20.681	0.099
552.600	-22.288	0.099
552.700	-17.481	0.099
552.800	-15.528	0.099
552.900	2.081	0.099
553.000	1.738	0.099
553.100	-6.033	0.099
553.200	-23.930	0.099
553.300	-14.481	0.099
553.400	-14.108	0.099
553.500	-17.397	0.099
553.600	-14.822	0.099
553.700	0.765	0.099
553.800	-5.840	0.099
553.900	-18.585	0.099
554.000	-21.545	0.099
554.100	-35.511	0.099
554.200	-7.227	0.099
554.300	-20.343	0.099
554.400	-6.184	0.099
554.500	-12.671	0.099
554.600	-20.087	0.099
554.700	-7.173	0.099
554.800	-3.938	0.099
554.900	-13.727	0.099
555.000	-19.423	0.099
555.100	1.391	0.099
555.200	-23.423	0.099
555.300	-8.395	0.099
555.400	-17.131	0.099
555.500	-13.296	0.099
555.600	-14.543	0.099
555.700	-2.520	0.099
555.800	0.377	0.099
555.900	-14.608	0.099
556.000	-15.442	0.099
556.100	-12.189	0.099
556.200	2.282	0.099
556.300	-10.399	0.099
556.400	-3.239	0.099
556.500	-14.411	0.099
556.600	-6.279	0.099
556.700	-2.517	0.099
556.800	-11.962	0.099
556.900	-12.113	0.099
557.000	-8.275	0.099
557.100	-25.383	0.099
557.200	13.973	0.099
557.300	-8.032	0.099
557.400	15.591	0.099
557.500	-12.007	0.099
557.600	-10.332	0.099
557.700	-19.001	0.099
557.800	-17.031	0.099
557.900	3.651	0.099
558.000	6.674	0.099
558.100	-5.431	0.099
558.200	-27.111	0.099
558.300	-9.325	0.099
558.400	-23.960	0.099
558.500	-9.929	0.099
558.600	-13.463	0.099
558.700	-11.098	0.099
558.800	-19.229	0.099
558.900	-11.163	0.099
559.000	-14.617	0.099
559.100	-8.979	0.099
559.200	-10.609	0.099
559.300	-12.830	0.099
559.400	-12.712	0.099
559.500	-14.994	0.099
559.600	-12.151	0.099
559.700	-16.555	0.099
559.800	-11.602	0.099
559.900	-13.139	0.099
560.000	-7.558	0.099
560.100	-16.419	0.099
560.200	-9.343	0.099
560.300	-8.762	0.099
560.400	-23.315	0.099
560.500	-0.113	0.099
560.600	-7.376	0.099
560.700	5.348	0.099
560.800	-31.378	0.099
560.900	3.606	0.099
561.000	-5.432	0.099
561.100	-14.338	0.099
561.200	-8.144	0.099
561.300	-16.087	0.099
561.400	-16.866	0.099
561.500	-19.536	0.099
561.600	-8.622	0.099
561.700	-7.436	0.099
561.800	-16.249	0.099
561.900	-25.920	0.099
562.000	0.345	0.099
562.100	-15.682	0.099
562.200	-28.599	0.099
562.300	-0.691	0.099
562.400	-11.800	0.099
562.500	-6.282	0.099
562.600	-18.305	0.099
562.700	-4.303	0.099
562.800	-5.940	0.099
562.900	-9.833	0.099
563.000	-19.668	0.099
563.100	-14.023	0.099
563.200	0.761	0.099
563.300	-10.446	0.099
563.400	-12.711	0.099
563.500	-5.653	0.099
563.600	3.720	0.099
563.700	-10.786	0.099
563.800	-23.597	0.099
563.900	-17.145	0.099
564.000	-18.067	0.099
564.100	-1.402	0.099
564.200	-12.867	0.099
564.300	-12.682	0.099
564.400	-13.474	0.099
564.500	-9.095	0.099
564.600	-11.102	0.099
564.700	1.099	0.099
564.800	-12.602	0.099
564.900	-14.752	0.099
565.000	-0.318	0.099
565.100	-9.051	0.099
565.200	7.596	0.099
565.300	-19.044	0.099
565.400	-5.316	0.099
565.500	-0.024	0.099
565.600	-17.777	0.099
565.700	-1.772	0.099
565.800	-19.455	0.099
565.900	-25.300	0.099
566.000	-2.051	0.099
566.100	-12.764	0.099
566.200	-8.295	0.099
566.300	1.336	0.099
566.400	-28.339	0.099
566.500	-2.292	0.099
566.600	-9.519	0.099
566.700	-4.386	0.099
566.800	-11.324	0.099
566.900	3.916	0.099
567.000	-19.184	0.099
567.100	-15.404	0.099
567.200	-21.224	0.099
567.300	-6.713	0.099
567.400	-11.411	0.099
567.500	3.314	0.099
567.600	-6.924	0.099
567.700	-13.539	0.099
567.800	-14.507	0.099
567.900	-0.322	0.099
568.000	-7.355	0.099
568.100	-12.698	0.099
568.200	-11.954	0.099
568.300	-7.736	0.099
568.400	-4.221	0.099
568.500	-2.163	0.099
568.600	-1.427	0.099
568.700	-16.945	0.099
568.800	-4.373	0.099
568.900	-5.367	0.099
569.000	-21.884	0.099
569.100	-4.475	0.099
569.200	-4.852	0.099
569.300	-13.724	0.099
569.400	-16.291	0.099
569.500	-6.582	0.099
569.600	-2.848	0.099
569.700	-4.751	0.099
569.800	-24.549	0.099
569.900	-19.329	0.099
570.000	5.349	0.099
570.100	-10.464	0.099
570.200	-13.882	0.099
570.300	-3.068	0.099
570.400	-8.825	0.099
570.500	-0.827	0.099
570.600	-14.126	0.099
570.700	-16.105	0.099
570.800	-7.378	0.099
570.900	-7.682	0.099
571.000	-13.096	0.099
571.100	-11.346	0.099
571.200	-5.816	0.099
571.300	-2.550	0.099
571.400	-21.986	0.099
571.500	-4.996	0.099
571.600	-9.347	0.099
571.700	-4.892	0.099
571.800	-7.212	0.099
571.900	-17.589	0.099
572.000	-6.684	0.099
572.100	0.134	0.099
572.200	-20.628	0.099
572.300	-2.130	0.099
572.400	0.858	0.099
572.500	-6.294	0.099
572.600	1.204	0.099
572.700	-11.816	0.099
572.800	-13.663	0.099
572.900	-16.811	0.099
573.000	-3.954	0.099
573.100	-22.082	0.099
573.200	-12.953	0.099
573.300	-16.426	0.099
573.400	10.489	0.099
573.500	-3.360	0.099
573.600	-5.953	0.099
573.700	-3.912	0.099
573.800	-10.703	0.099
573.900	-26.859	0.099
574.000	-17.747	0.099
574.100	-8.093	0.099
574.200	-12.904	0.099
574.300	-1.767	0.099
574.400	-10.899	0.099
574.500	1.898	0.099
574.600	-6.408	0.099
574.700	-14.635	0.099
574.800	-10.357	0.099
574.900	-17.680	0.099
575.000	-4.887	0.099
575.100	-9.386	0.099
575.200	-9.532	0.099
575.300	9.501	0.099
575.400	-9.225	0.099
575.500	-25.166	0.099
575.600	-1.884	0.099
575.700	-9.792	0.099
575.800	-12.923	0.099
575.900	-13.968	0.099
576.000	-15.959	0.099
576.100	-17.107	0.099
576.200	-9.226	0.099
576.300	-20.905	0.099
576.400	-2.143	0.099
576.500	-4.486	0.099
576.600	-17.718	0.099
576.700	-14.225	0.099
576.800	-6.841	0.099
576.900	-13.055	0.099
577.000	-4.830	0.099
577.100	-20.536	0.099
577.200	-8.614	0.099
577.300	-3.577	0.099
577.400	-2.164	0.099
577.500	-7.786	0.099
577.600	-9.163	0.099
577.700	-3.808	0.099
577.800	2.885	0.099
577.900	-3.824	0.099
578.000	-0.406	0.099
578.100	-16.695	0.099
578.200	-15.354	0.099
578.300	-13.410	0.099
578.400	-11.948	0.099
578.500	10.818	0.099
578.600	-3.303	0.099
578.700	-9.869	0.099
578.800	0.097	0.099
578.900	-2.726	0.099
579.000	-10.182	0.099
579.100	-0.962	0.099
579.200	2.409	0.099
579.300	-10.762	0.099
579.400	-13.464	0.099
579.500	-6.775	0.099
579.600	-2.704	0.099
579.700	-6.419	0.099
579.800	-25.823	0.099
579.900	4.507	0.099
580.000	-15.671	0.099
580.100	-10.636	0.099
580.200	-2.640	0.099
580.300	-6.243	0.099
580.400	-2.022	0.099
580.500	-7.634	0.099
580.600	-13.346	0.099
580.700	-9.185	0.099
580.800	-12.373	0.099
580.900	-9.283	0.099
581.000	-2.761	0.099
581.100	-23.783	0.099
581.200	5.755	0.099
581.300	1.518	0.099
581.400	-12.316	0.099
581.500	6.014	0.099
581.600	-9.329	0.099
581.700	-8.593	0.099
581.800	-1.708	0.099
581.900	-11.537	0.099
582.000	7.894	0.099
582.100	-7.222	0.099
582.200	-19.111	0.099
582.300	1.678	0.099
582.400	1.393	0.099
582.500	-13.004	0.099
582.600	-3.049	0.099
582.700	-4.197	0.099
582.800	-14.837	0.099
582.900	-10.811	0.099
583.000	-2.263	0.099
583.100	-5.110	0.099
583.200	-20.252	0.099
583.300	-11.406	0.099
583.400	-12.714	0.099
583.500	-0.958	0.099
583.600	-5.119	0.099
583.700	-19.379	0.099
583.800	-13.899	0.099
583.900	-13.461	0.099
584.000	-7.295	0.099
584.100	-9.659	0.099
584.200	-0.118	0.099
584.300	-6.757	0.099
584.400	-7.686	0.099
584.500	-11.494	0.099
584.600	-12.053	0.099
584.700	8.199	0.099
584.800	-4.915	0.099
584.900	-18.584	0.099
585.000	-9.416	0.099
585.100	-4.137	0.099
585.200	-6.272	0.099
585.300	-5.851	0.099
585.400	-0.962	0.099
585.500	-15.755	0.099
585.600	-6.206	0.099
585.700	7.803	0.099
585.800	-10.859	0.099
585.900	4.332	0.099
586.000	-11.565	0.099
586.100	-6.043	0.099
586.200	5.681	0.099
586.300	-5.363	0.099
586.400	-5.334	0.099
586.500	-1.851	0.099
586.600	-12.327	0.099
586.700	-8.525	0.099
586.800	3.650	0.099
586.900	6.767	0.099
587.000	-16.313	0.099
587.100	-9.516	0.099
587.200	-4.731	0.099
587.300	-10.766	0.099
587.400	-16.569	0.099
587.500	9.075	0.099
587.600	-13.191	0.099
587.700	-8.931	0.099
587.800	-1.904	0.099
587.900	-5.415	0.099
588.000	-12.299	0.099
588.100	-9.815	0.099
588.200	-4.092	0.099
588.300	-10.110	0.099
588.400	-4.021	0.099
588.500	-24.232	0.099
588.600	4.500	0.099
588.700	-8.534	0.099
588.800	-20.362	0.099
588.900	2.990	0.099
589.000	-10.313	0.099
589.100	9.674	0.099
589.200	-14.686	0.099
589.300	-15.732	0.099
589.400	-4.915	0.099
589.500	-14.228	0.099
589.600	-21.269	0.099
589.700	-5.818	0.099
589.800	-4.201	0.099
589.900	-20.384	0.099
590.000	-1.581	0.099
590.100	-2.819	0.099
590.200	-3.401	0.099
590.300	-22.642	0.099
590.400	-3.396	0.099
590.500	-7.056	0.099
590.600	-4.761	0.099
590.700	10.603	0.099
590.800	-17.078	0.099
590.900	-13.259	0.099
591.000	2.465	0.099
591.100	-19.184	0.099
591.200	0.270	0.099
591.300	-19.291	0.099
591.400	-8.602	0.099
591.500	-4.661	0.099
591.600	8.338	0.099
591.700	-10.267	0.099
591.800	-14.275	0.099
591.900	0.025	0.099
592.000	-1.657	0.099
592.100	-14.648	0.099
592.200	-10.643	0.099
592.300	-3.608	0.099
592.400	3.635	0.099
592.500	-2.688	0.099
592.600	2.315	0.099
592.700	-7.793	0.099
592.800	-4.820	0.099
592.900	-10.074	0.099
593.000	-2.981	0.099
593.100	-14.891	0.099
593.200	-0.757	0.099
593.300	-16.032	0.099
593.400	-15.587	0.099
593.500	-3.119	0.099
593.600	-12.440	0.099
593.700	-1.902	0.099
593.800	-4.006	0.099
593.900	-6.692	0.099
594.000	8.086	0.099
594.100	-2.593	0.099
594.200	-16.290	0.099
594.300	-9.839	0.099
594.400	1.308	0.099
594.500	-1.914	0.099
594.600	-0.641	0.099
594.700	-6.016	0.099
594.800	-21.041	0.099
594.900	3.386	0.099
595.000	4.161	0.099
595.100	-5.828	0.099
595.200	-0.699	0.099
595.300	-10.513	0.099
595.400	-12.581	0.099
595.500	-1.065	0.099
595.600	-6.407	0.099
595.700	2.371	0.099
595.800	0.622	0.099
595.900	0.515	0.099
596.000	-6.566	0.099
596.100	-2.181	0.099
596.200	-2.037	0.099
596.300	-13.154	0.099
596.400	-13.544	0.099
596.500	6.542	0.099
596.600	-7.868	0.099
596.700	-7.236	0.099
596.800	-3.973	0.099
596.900	-16.755	0.099
597.000	-17.463	0.099
597.100	5.342	0.099
597.200	-15.002	0.099
597.300	-1.659	0.099
597.400	-5.090	0.099
597.500	-8.601	0.099
597.600	-21.077	0.099
597.700	-12.895	0.099
597.800	-12.126	0.099
597.900	-15.930	0.099
598.000	-5.484	0.099
598.100	-5.446	0.099
598.200	-8.606	0.099
598.300	-2.488	0.099
598.400	-8.292	0.099
598.500	-15.423	0.099
598.600	-2.901	0.099
598.700	-10.370	0.099
598.800	-8.617	0.099
598.900	-7.943	0.099
599.000	3.149	0.099
599.100	-9.790	0.099
599.200	-3.388	0.099
599.300	-12.702	0.099
599.400	-5.209	0.099
599.500	-6.063	0.099
599.600	3.924	0.099
599.700	0.074	0.099
599.800	-9.686	0.099
599.900	1.433	0.099
600.000	-2.012	0.099
600.100	-12.272	0.099
600.200	-5.970	0.099
600.300	-19.382	0.099
600.400	0.502	0.099
600.500	-13.955	0.099
600.600	-9.966	0.099
600.700	-4.000	0.099
600.800	-1.120	0.099
600.900	-18.055	0.099
601.000	-10.659	0.099
601.100	-6.955	0.099
601.200	-11.639	0.099
601.300	-1.168	0.099
601.400	-10.626	0.099
601.500	-10.275	0.099
601.600	3.106	0.099
601.700	-14.912	0.099
601.800	-6.736	0.099
601.900	-14.435	0.099
602.000	-4.192	0.099
602.100	-2.711	0.099
602.200	-8.426	0.099
602.300	-7.705	0.099
602.400	-16.943	0.099
602.500	-0.106	0.099
602.600	-2.188	0.099
602.700	-6.999	0.099
602.800	-10.099	0.099
602.900	-6.992	0.099
603.000	-8.812	0.099
603.100	-17.098	0.099
603.200	-14.107	0.099
603.300	1.161	0.099
603.400	0.728	0.099
603.500	-9.350	0.099
603.600	-17.163	0.099
603.700	-4.410	0.099
603.800	-9.741	0.099
603.900	-13.099	0.099
604.000	-5.635	0.099
604.100	-1.462	0.099
604.200	-4.042	0.099
604.300	-2.078	0.099
604.400	-11.374	0.099
604.500	-0.341	0.099
604.600	-12.501	0.099
604.700	-5.849	0.099
604.800	-11.077	0.099
604.900	-12.841	0.099
605.000	-17.497	0.099
605.100	-10.044	0.099
605.200	-15.180	0.099
605.300	0.455	0.099
605.400	0.904	0.099
605.500	-9.698	0.099
605.600	-10.654	0.099
605.700	-10.190	0.099
605.800	-13.253	0.099
605.900	-5.999	0.099
606.000	-14.974	0.099
606.100	-8.067	0.099
606.200	-1.236	0.099
606.300	-6.993	0.099
606.400	7.492	0.099
606.500	-7.491	0.099
606.600	-8.012	0.099
606.700	-1.008	0.099
606.800	-5.509	0.099
606.900	-9.137	0.099
607.000	-13.587	0.099
607.100	5.378	0.099
607.200	-15.704	0.099
607.300	-2.197	0.099
607.400	-4.977	0.099
607.500	-4.190	0.099
607.600	-8.960	0.099
607.700	-5.877	0.099
607.800	-4.327	0.099
607.900	-3.545	0.099
608.000	-6.465	0.099
608.100	-4.441	0.099
608.200	-14.185	0.099
608.300	8.102	0.099
608.400	-12.043	0.099
608.500	-7.364	0.099
608.600	-16.082	0.099
608.700	-3.411	0.099
608.800	-9.296	0.099
608.900	0.509	0.099
609.000	-9.302	0.099
609.100	-3.000	0.099
609.200	-3.469	0.099
609.300	-1.418	0.099
609.400	1.018	0.099
609.500	-12.252	0.099
609.600	-14.110	0.099
609.700	4.103	0.099
609.800	-11.216	0.099
609.900	2.842	0.099
610.000	-14.337	0.099
610.100	-16.649	0.099
610.200	7.715	0.099
610.300	-4.369	0.099
610.400	-11.301	0.099
610.500	-5.740	0.099
610.600	-4.433	0.099
610.700	-17.661	0.099
610.800	-5.728	0.099
610.900	1.328	0.099
611.000	-2.072	0.099
611.100	18.898	0.099
611.200	-0.105	0.099
611.300	-1.133	0.099
611.400	-15.310	0.099
611.500	2.925	0.099
611.600	-0.852	0.099
611.700	-4.668	0.099
611.800	-11.595	0.099
611.900	-12.196	0.099
612.000	1.796	0.099
612.100	3.617	0.099
612.200	-8.449	0.099
612.300	-14.963	0.099
612.400	-2.955	0.099
612.500	-6.352	0.099
612.600	-14.440	0.099
612.700	-1.645	0.099
612.800	-5.354	0.099
612.900	-12.931	0.099
613.000	-3.694	0.099
613.100	-1.633	0.099
613.200	3.421	0.099
613.300	-10.291	0.099
613.400	-4.097	0.099
613.500	-18.943	0.099
613.600	0.463	0.099
613.700	1.692	0.099
613.800	-8.513	0.099
613.900	-26.009	0.099
614.000	-6.633	0.099
614.100	3.828	0.099
614.200	-8.953	0.099
614.300	-12.282	0.099
614.400	-11.708	0.099
614.500	2.918	0.099
614.600	-4.981	0.099
614.700	-0.222	0.099
614.800	-11.732	0.099
614.900	-5.269	0.099
615.000	-2.364	0.099
615.100	-4.120	0.099
615.200	-0.811	0.099
615.300	-18.008	0.099
615.400	-6.532	0.099
615.500	-8.907	0.099
615.600	1.545	0.099
615.700	-6.940	0.099
615.800	-11.251	0.099
615.900	-15.875	0.099
616.000	-3.583	0.099
616.100	1.063	0.099
616.200	0.423	0.099
616.300	2.967	0.099
616.400	-7.051	0.099
616.500	-12.501	0.099
616.600	-16.861	0.099
616.700	0.088	0.099
616.800	-16.639	0.099
616.900	-6.205	0.099
617.000	-6.612	0.099
617.100	-13.349	0.099
617.200	-18.331	0.099
617.300	-10.745	0.099
617.400	4.215	0.099
617.500	-15.525	0.099
617.600	-4.928	0.099
617.700	-10.685	0.099
617.800	-10.357	0.099
617.900	-3.695	0.099
618.000	-1.999	0.099
618.100	5.085	0.099
618.200	-10.200	0.099
618.300	-3.274	0.099
618.400	-4.137	0.099
618.500	-16.747	0.099
618.600	-13.969	0.099
618.700	-16.731	0.099
618.800	-6.084	0.099
618.900	-1.893	0.099
619.000	-12.358	0.099
619.100	6.962	0.099
619.200	-2.493	0.099
619.300	-10.898	0.099
619.400	-1.827	0.099
619.500	3.615	0.099
619.600	7.575	0.099
619.700	-10.693	0.099
619.800	4.928	0.099
619.900	1.028	0.099
620.000	-9.404	0.099
620.100	-13.759	0.099
620.200	-8.776	0.099
620.300	-16.030	0.099
620.400	-13.481	0.099
620.500	-12.512	0.099
620.600	-11.034	0.099
620.700	-0.539	0.099
620.800	-1.905	0.099
620.900	-8.781	0.099
621.000	-7.848	0.099
621.100	-13.129	0.099
621.200	-5.992	0.099
621.300	-5.255	0.099
621.400	3.492	0.099
621.500	8.552	0.099
621.600	-2.850	0.099
621.700	-7.651	0.099
621.800	-3.274	0.099
621.900	-13.027	0.099
622.000	-2.015	0.099
622.100	-1.385	0.099
622.200	9.204	0.099
622.300	-11.908	0.099
622.400	6.002	0.099
622.500	1.666	0.099
622.600	-12.675	0.099
622.700	-5.521	0.099
622.800	0.768	0.099
622.900	-6.135	0.099
623.000	-15.421	0.099
623.100	-4.888	0.099
623.200	-8.501	0.099
623.300	-4.407	0.099
623.400	-3.491	0.099
623.500	-19.959	0.099
623.600	10.014	0.099
623.700	4.880	0.099
623.800	-14.390	0.099
623.900	-7.294	0.099
624.000	-1.696	0.099
624.100	-14.330	0.099
624.200	-2.268	0.099
624.300	-8.350	0.099
624.400	-17.889	0.099
624.500	3.153	0.099
624.600	-6.142	0.099
624.700	-1.068	0.099
624.800	-6.933	0.099
624.900	-2.793	0.099
625.000	-2.332	0.099
625.100	-5.883	0.099
625.200	-9.364	0.099
625.300	-5.016	0.099
625.400	-7.406	0.099
625.500	-10.142	0.099
625.600	1.467	0.099
625.700	-4.481	0.099
625.800	-4.603	0.099
625.900	-9.173	0.099
626.000	1.986	0.099
626.100	-4.373	0.099
626.200	-12.319	0.099
626.300	-12.416	0.099
626.400	-12.933	0.099
626.500	-20.832	0.099
626.600	-1.336	0.099
626.700	-13.839	0.099
626.800	-28.843	0.099
626.900	-18.420	0.099
627.000	-0.680	0.099
627.100	3.199	0.099
627.200	-7.993	0.099
627.300	-20.264	0.099
627.400	-0.429	0.099
627.500	-4.735	0.099
627.600	-6.252	0.099
627.700	-7.380	0.099
627.800	7.573	0.099
627.900	2.595	0.099
628.000	-8.536	0.099
628.100	12.959	0.099
628.200	2.957	0.099
628.300	-11.987	0.099
628.400	-10.872	0.099
628.500	2.007	0.099
628.600	-20.443	0.099
628.700	-7.098	0.099
628.800	-11.153	0.099
628.900	-10.915	0.099
629.000	-8.471	0.099
629.100	10.919	0.099
629.200	-4.345	0.099
629.300	-7.453	0.099
629.400	-5.105	0.099
629.500	-10.530	0.099
629.600	-4.114	0.099
629.700	-8.172	0.099
629.800	-6.520	0.099
629.900	-9.803	0.099
630.000	1.824	0.099
630.100	-2.013	0.099
630.200	-12.003	0.099
630.300	-7.573	0.099
630.400	-7.763	0.099
630.500	-0.920	0.099
630.600	13.206	0.099
630.700	25.195	0.099
630.800	6.011	0.099
630.900	-1.781	0.099
631.000	26.852	0.099
631.100	1.904	0.099
631.200	18.444	0.099
631.300	16.349	0.099
631.400	31.575	0.099
631.500	34.094	0.099
631.600	20.920	0.099
631.700	30.843	0.099
631.800	24.988	0.099
631.900	34.096	0.099
632.000	39.009	0.099
632.100	25.304	0.099
632.200	32.306	0.099
632.300	35.222	0.099
632.400	31.473	0.099
632.500	29.540	0.099
632.600	47.930	0.099
632.700	35.097	0.099
632.800	40.202	0.099
632.900	28.938	0.099
633.000	26.825	0.099
633.100	29.579	0.099
633.200	50.029	0.099
633.300	41.690	0.099
633.400	30.182	0.099
633.500	23.601	0.099
633.600	26.826	0.099
633.700	32.668	0.099
633.800	18.700	0.099
633.900	23.377	0.099
634.000	34.029	0.099
634.100	22.141	0.099
634.200	30.749	0.099
634.300	25.865	0.099
634.400	25.329	0.099
634.500	25.529	0.099
634.600	26.436	0.099
634.700	31.215	0.099
634.800	27.697	0.099
634.900	24.626	0.099
635.000	41.624	0.099
635.100	18.578	0.099
635.200	18.869	0.099
635.300	28.555	0.099
635.400	22.161	0.099
635.500	12.870	0.099
635.600	23.104	0.099
635.700	21.012	0.100
635.800	27.185	0.100
635.900	12.547	0.099
636.000	11.071	0.100
636.100	21.217	0.100
636.200	19.080	0.099
636.300	26.273	0.100
636.400	8.627	0.100
636.500	20.061	0.100
636.600	16.536	0.100
636.700	19.649	0.100
636.800	21.414	0.100
636.900	12.188	0.100
637.000	19.880	0.100
637.100	21.823	0.100
637.200	20.930	0.100
637.300	13.823	0.100
637.400	19.789	0.100
637.500	23.473	0.100
637.600	27.072	0.100
637.700	18.095	0.100
637.800	24.582	0.100
637.900	16.347	0.100
638.000	28.787	0.100
638.100	21.223	0.100
638.200	33.153	0.100
638.300	18.782	0.100
638.400	23.546	0.100
638.500	29.160	0.100
638.600	27.422	0.100
638.700	12.643	0.100
638.800	17.886	0.100
638.900	9.720	0.100
639.000	23.474	0.100
639.100	15.650	0.100
639.200	24.220	0.100
639.300	23.781	0.100
639.400	31.554	0.100
639.500	18.912	0.100
639.600	43.709	0.100
639.700	25.670	0.100
639.800	19.097	0.100
639.900	-3.841	0.100
640.000	25.152	0.100
640.100	25.914	0.100
640.200	34.294	0.100
640.300	19.975	0.100
640.400	22.333	0.100
640.500	28.172	0.100
640.600	12.112	0.100
640.700	32.904	0.100
640.800	36.825	0.100
640.900	21.045	0.100
641.000	32.065	0.100
641.100	14.757	0.100
641.200	31.164	0.100
641.300	23.143	0.100
641.400	17.865	0.100
641.500	25.628	0.100
641.600	25.876	0.100
641.700	9.239	0.100
641.800	25.128	0.100
641.900	19.610	0.100
642.000	47.366	0.100
642.100	24.457	0.100
642.200	20.962	0.100
642.300	8.716	0.100
642.400	24.951	0.100
642.500	18.374	0.100
642.600	36.020	0.100
642.700	21.612	0.100
642.800	25.688	0.100
642.900	9.801	0.100
643.000	32.031	0.100
643.100	25.149	0.100
643.200	28.139	0.100
643.300	39.609	0.100
643.400	24.158	0.100
643.500	29.270	0.100
643.600	23.439	0.100
643.700	24.078	0.100
643.800	31.181	0.100
643.900	22.405	0.100
644.000	31.517	0.100
644.100	41.001	0.100
644.200	20.989	0.100
644.300	37.511	0.100
644.400	20.412	0.100
644.500	22.788	0.100
644.600	12.585	0.100
644.700	26.717	0.100
644.800	9.067	0.100
644.900	31.491	0.100
645.000	19.191	0.100
645.100	25.090	0.100
645.200	27.595	0.100
645.300	20.098	0.100
645.400	31.933	0.100
645.500	22.971	0.100
645.600	19.133	0.100
645.700	32.936	0.100
645.800	24.190	0.100
645.900	20.749	0.100
646.000	25.211	0.100
646.100	14.782	0.100
646.200	20.771	0.100
646.300	32.234	0.100
646.400	27.134	0.100
646.500	31.819	0.100
646.600	27.702	0.100
646.700	16.021	0.100
646.800	33.502	0.100
646.900	24.268	0.100
647.000	33.378	0.100
647.100	14.344	0.100
647.200	46.009	0.100
647.300	44.643	0.100
647.400	20.504	0.100
647.500	38.298	0.100
647.600	26.967	0.100
647.700	28.337	0.100
647.800	30.015	0.100
647.900	18.557	0.100
648.000	25.787	0.100
648.100	12.354	0.100
648.200	24.299	0.100
648.300	42.730	0.100
648.400	10.771	0.100
648.500	40.527	0.100
648.600	36.042	0.100
648.700	17.179	0.100
648.800	27.096	0.100
648.900	46.187	0.100
649.000	27.018	0.100
649.100	31.355	0.100
649.200	27.129	0.100
649.300	29.516	0.100
649.400	26.434	0.100
649.500	21.558	0.100
649.600	27.800	0.100
649.700	33.778	0.100
649.800	29.140	0.100
649.900	14.347	0.100
650.000	29.458	0.100
650.100	33.655	0.100
650.200	31.249	0.100
650.300	14.612	0.100
650.400	30.747	0.100
650.500	22.125	0.100
650.600	28.348	0.100
650.700	23.493	0.100
650.800	24.119	0.100
650.900	29.953	0.100
651.000	34.746	0.100
651.100	24.205	0.100
651.200	37.618	0.100
651.300	24.873	0.100
651.400	22.163	0.100
651.500	26.514	0.100
651.600	24.199	0.100
651.700	26.878	0.100
651.800	27.826	0.100
651.900	21.869	0.100
652.000	20.792	0.100
652.100	30.306	0.100
652.200	47.154	0.100
652.300	20.802	0.100
652.400	14.979	0.100
652.500	19.215	0.100
652.600	40.931	0.100
652.700	7.992	0.100
652.800	20.030	0.100
652.900	18.048	0.100
653.000	17.429	0.100
653.100	29.280	0.100
653.200	26.846	0.100
653.300	34.424	0.100
653.400	27.447	0.100
653.500	7.619	0.100
653.600	42.298	0.100
653.700	13.776	0.100
653.800	28.742	0.100
653.900	15.224	0.100
654.000	19.982	0.100
654.100	25.261	0.100
654.200	30.403	0.100
654.300	25.650	0.100
654.400	9.854	0.100
654.500	9.635	0.100
654.600	30.306	0.100
654.700	29.775	0.100
654.800	36.402	0.100
654.900	30.937	0.100
655.000	36.403	0.100
655.100	27.334	0.100
655.200	18.290	0.100
655.300	27.271	0.100
655.400	14.243	0.100
655.500	35.625	0.100
655.600	24.177	0.100
655.700	18.516	0.100
655.800	27.716	0.100
655.900	31.201	0.100
656.000	26.233	0.100
656.100	28.867	0.100
656.200	17.634	0.100
656.300	12.037	0.100
656.400	21.968	0.099
656.500	24.010	0.099
656.600	22.377	0.099
656.700	36.037	0.099
656.800	15.900	0.099
656.900	30.203	0.099
657.000	28.581	0.099
657.100	21.517	0.099
657.200	29.485	0.099
657.300	18.461	0.099
657.400	20.923	0.099
657.500	29.848	0.099
657.600	28.101	0.099
657.700	18.659	0.099
657.800	33.613	0.099
657.900	35.152	0.099
658.000	23.760	0.099
658.100	20.682	0.099
658.200	32.674	0.099
658.300	28.400	0.099
658.400	6.112	0.099
658.500	30.706	0.099
658.600	20.401	0.099
658.700	30.251	0.099
658.800	19.536	0.099
658.900	27.002	0.099
659.000	22.740	0.099
659.100	16.085	0.099
659.200	16.644	0.099
659.300	15.645	0.099
659.400	8.748	0.099
659.500	36.549	0.099
659.600	23.422	0.099
659.700	28.760	0.099
659.800	26.473	0.099
659.900	25.593	0.099
660.000	31.053	0.099
660.100	14.052	0.099
660.200	28.230	0.099
660.300	29.470	0.099
660.400	14.046	0.099
660.500	24.557	0.099
660.600	10.184	0.099
660.700	24.833	0.099
660.800	18.621	0.099
660.900	31.832	0.099
661.000	24.809	0.099
661.100	17.937	0.099
661.200	27.268	0.099
661.300	24.741	0.099
661.400	17.808	0.099
661.500	28.725	0.099
661.600	35.863	0.099
661.700	23.372	0.099
661.800	27.828	0.099
661.900	32.229	0.099
662.000	28.607	0.099
662.100	27.943	0.099
662.200	7.258	0.099
662.300	15.726	0.099
662.400	21.637	0.099
662.500	21.536	0.099
662.600	25.412	0.099
662.700	28.308	0.099
662.800	32.068	0.099
662.900	37.416	0.099
663.000	26.591	0.099
663.100	40.840	0.099
663.200	39.011	0.099
663.300	27.505	0.099
663.400	14.074	0.099
663.500	17.791	0.099
663.600	19.151	0.099
663.700	32.287	0.099
663.800	20.057	0.099
663.900	22.722	0.099
664.000	26.745	0.099
664.100	18.650	0.099
664.200	17.820	0.099
664.300	21.942	0.099
664.400	15.702	0.099
664.500	16.992	0.099
664.600	36.671	0.099
664.700	30.066	0.099
664.800	28.137	0.099
664.900	25.911	0.099
665.000	26.735	0.099
665.100	17.686	0.099
665.200	26.693	0.099
665.300	17.466	0.099
665.400	11.593	0.099
665.500	17.467	0.099
665.600	16.033	0.099
665.700	21.723	0.099
665.800	29.206	0.099
665.900	15.733	0.099
666.000	24.077	0.099
666.100	29.860	0.099
666.200	20.910	0.099
666.300	20.863	0.099
666.400	35.085	0.099
666.500	31.041	0.099
666.600	29.244	0.099
666.700	30.104	0.099
666.800	13.212	0.099
666.900	0.946	0.099
667.000	28.459	0.099
667.100	28.406	0.099
667.200	30.910	0.099
667.300	26.045	0.099
667.400	20.820	0.099
667.500	38.995	0.099
667.600	14.920	0.099
667.700	10.362	0.099
667.800	27.061	0.099
667.900	25.962	0.099
668.000	18.475	0.099
668.100	22.283	0.099
668.200	22.813	0.099
668.300	27.112	0.099
668.400	12.794	0.099
668.500	28.843	0.099
668.600	16.960	0.099
668.700	17.280	0.099
668.800	27.654	0.099
668.900	13.076	0.099
669.000	24.671	0.099
669.100	8.920	0.099
669.200	24.714	0.099
669.300	22.744	0.099
669.400	9.231	0.099
669.500	16.455	0.099
669.600	9.231	0.099
669.700	20.611	0.099
669.800	21.667	0.099
669.900	18.210	0.099
670.000	28.767	0.099
670.100	22.310	0.099
670.200	27.377	0.099
670.300	27.624	0.099
670.400	29.156	0.099
670.500	12.775	0.099
670.600	20.811	0.099
670.700	28.361	0.099
670.800	18.792	0.099
670.900	23.764	0.099
671.000	16.311	0.099
671.100	13.873	0.099
671.200	14.681	0.099
671.300	22.753	0.099
671.400	36.622	0.099
671.500	25.895	0.099
671.600	24.302	0.099
671.700	14.572	0.099
671.800	21.708	0.099
671.900	22.206	0.099
672.000	16.273	0.099
672.100	22.332	0.099
672.200	30.037	0.099
672.300	28.265	0.099
672.400	16.479	0.099
672.500	30.010	0.099
672.600	29.583	0.099
672.700	17.208	0.099
672.800	31.030	0.099
672.900	10.509	0.099
673.000	26.231	0.099
673.100	23.197	0.099
673.200	29.924	0.099
673.300	12.696	0.099
673.400	42.357	0.099
673.500	14.777	0.099
673.600	31.254	0.099
673.700	7.861	0.099
673.800	41.530	0.099
673.900	21.469	0.099
674.000	20.528	0.099
674.100	35.945	0.099
674.200	28.848	0.099
674.300	12.273	0.099
674.400	16.851	0.099
674.500	32.210	0.099
674.600	20.661	0.099
674.700	31.053	0.099
674.800	6.630	0.099
674.900	15.324	0.099
675.000	17.837	0.099
675.100	30.663	0.099
675.200	5.923	0.099
675.300	19.630	0.099
675.400	19.669	0.099
675.500	25.911	0.099
675.600	36.923	0.099
675.700	24.934	0.099
675.800	21.227	0.099
675.900	25.778	0.099
676.000	25.498	0.099
676.100	13.859	0.099
676.200	14.161	0.099
676.300	21.119	0.099
676.400	18.369	0.099
676.500	25.145	0.099
676.600	15.266	0.099
676.700	26.687	0.099
676.800	29.418	0.099
676.900	20.126	0.099
677.000	14.411	0.099
677.100	19.648	0.099
677.200	18.190	0.099
677.300	13.561	0.099
677.400	22.536	0.099
677.500	25.827	0.099
677.600	20.765	0.099
677.700	23.134	0.099
677.800	25.991	0.099
677.900	32.831	0.099
678.000	9.938	0.099
678.100	22.004	0.099
678.200	33.155	0.099
678.300	22.384	0.099
678.400	31.482	0.099
678.500	13.818	0.099
678.600	22.120	0.099
678.700	37.043	0.099
678.800	30.658	0.099
678.900	20.173	0.099
679.000	23.598	0.099
679.100	27.167	0.099
679.200	20.390	0.099
679.300	22.321	0.099
679.400	17.208	0.099
679.500	31.945	0.099
679.600	19.938	0.099
679.700	11.561	0.099
679.800	21.477	0.099
679.900	19.421	0.099
680.000	22.499	0.099
680.100	23.419	0.099
680.200	20.610	0.099
680.300	18.303	0.099
680.400	21.001	0.099
680.500	23.198	0.099
680.600	18.672	0.099
680.700	13.340	0.099
680.800	19.308	0.099
680.900	15.556	0.099
681.000	30.408	0.099
681.100	12.935	0.099
681.200	25.698	0.099
681.300	5.507	0.099
681.400	14.988	0.099
681.500	13.657	0.099
681.600	12.551	0.099
681.700	17.317	0.099
681.800	16.231	0.099
681.900	14.546	0.099
682.000	10.372	0.099
682.100	14.916	0.099
682.200	10.181	0.099
682.300	13.384	0.099
682.400	29.817	0.099
682.500	13.623	0.099
682.600	15.678	0.099
682.700	9.376	0.099
682.800	17.059	0.099
682.900	15.401	0.099
683.000	30.466	0.099
683.100	17.117	0.099
683.200	30.086	0.099
683.300	21.393	0.099
683.400	14.744	0.099
683.500	4.477	0.099
683.600	34.661	0.099
683.700	13.949	0.099
683.800	26.996	0.099
683.900	23.780	0.099
684.000	9.532	0.099
684.100	30.405	0.099
684.200	16.055	0.099
684.300	18.986	0.099
684.400	23.726	0.099
684.500	16.860	0.099
684.600	34.009	0.099
684.700	21.912	0.099
684.800	13.244	0.099
684.900	29.675	0.099
685.000	17.648	0.099
685.100	8.096	0.099
685.200	14.231	0.099
685.300	18.246	0.099
685.400	20.498	0.099
685.500	22.215	0.099
685.600	22.511	0.099
685.700	17.531	0.099
685.800	21.823	0.099
685.900	19.330	0.099
686.000	19.455	0.099
686.100	19.266	0.099
686.200	32.673	0.099
686.300	15.784	0.099
686.400	29.341	0.099
686.500	26.059	0.099
686.600	28.741	0.099
686.700	15.628	0.099
686.800	20.704	0.099
686.900	15.520	0.099
687.000	10.658	0.099
687.100	18.997	0.099
687.200	29.190	0.099
687.300	7.557	0.099
687.400	18.589	0.099
687.500	26.528	0.099
687.600	28.003	0.099
687.700	27.129	0.099
687.800	18.534	0.099
687.900	29.521	0.099
688.000	18.992	0.099
688.100	12.335	0.099
688.200	14.072	0.099
688.300	16.770	0.099
688.400	5.595	0.099
688.500	23.232	0.099
688.600	8.558	0.099
688.700	21.809	0.099
688.800	22.887	0.099
688.900	35.251	0.099
689.000	14.431	0.099
689.100	21.123	0.099
689.200	25.432	0.099
689.300	13.467	0.099
689.400	20.830	0.099
689.500	22.905	0.099
689.600	12.216	0.099
689.700	20.885	0.099
689.800	5.856	0.099
689.900	21.839	0.099
690.000	23.062	0.099
690.100	19.984	0.099
690.200	21.494	0.099
690.300	20.963	0.099
690.400	23.239	0.099
690.500	2.190	0.099
690.600	0.153	0.099
690.700	9.960	0.099
690.800	13.961	0.099
690.900	-9.171	0.099
691.000	0.552	0.099
691.100	-0.722	0.099
691.200	-29.436	0.099
691.300	-18.963	0.099
691.400	-21.831	0.099
691.500	-13.366	0.099
691.600	-27.708	0.099
691.700	-27.042	0.099
691.800	-29.199	0.099
691.900	-35.548	0.099
692.000	-39.387	0.099
692.100	-34.254	0.099
692.200	-28.044	0.099
692.300	-28.229	0.099
692.400	-50.372	0.099
692.500	-27.296	0.099
692.600	-47.895	0.099
692.700	-30.954	0.099
692.800	-62.943	0.099
692.900	-47.444	0.099
693.000	-37.184	0.099
693.100	-42.179	0.099
693.200	-42.921	0.099
693.300	-43.264	0.099
693.400	-44.485	0.099
693.500	-56.606	0.099
693.600	-54.469	0.099
693.700	-62.359	0.099
693.800	-54.235	0.099
693.900	-61.071	0.099
694.000	-57.876	0.099
694.100	-68.622	0.099
694.200	-42.790	0.099
694.300	-49.137	0.099
694.400	-56.019	0.099
694.500	-46.115	0.099
694.600	-51.772	0.099
694.700	-54.687	0.099
694.800	-46.196	0.099
694.900	-46.406	0.099
695.000	-50.652	0.099
695.100	-49.976	0.099
695.200	-49.883	0.099
695.300	-37.026	0.099
695.400	-34.294	0.099
695.500	-44.562	0.099
695.600	-41.409	0.099
695.700	-35.083	0.099
695.800	-44.471	0.099
695.900	-38.059	0.099
696.000	-33.159	0.099
696.100	-28.971	0.099
696.200	-41.047	0.099
696.300	-32.316	0.099
696.400	-50.795	0.099
696.500	-26.494	0.099
696.600	-41.839	0.099
696.700	-55.344	0.099
696.800	-39.078	0.099
696.900	-32.597	0.099
697.000	-29.599	0.099
697.100	-27.306	0.099
697.200	-29.966	0.099
697.300	-33.746	0.099
697.400	-22.430	0.099
697.500	-28.318	0.099
697.600	-26.777	0.099
697.700	-14.254	0.099
697.800	-24.773	0.099
697.900	-31.361	0.099
698.000	-26.738	0.099
698.100	-36.599	0.099
698.200	-33.705	0.099
698.300	-38.196	0.099
698.400	-17.230	0.099
698.500	-30.975	0.099
698.600	-21.798	0.099
698.700	-25.309	0.099
698.800	-26.898	0.099
698.900	-20.145	0.099
699.000	-32.685	0.099
699.100	-21.069	0.099
699.200	-25.443	0.099
699.300	-4.372	0.099
699.400	-23.246	0.099
699.500	-17.255	0.099
699.600	-20.733	0.099
699.700	-3.586	0.099
699.800	-27.548	0.099
699.900	2.320	0.099
700.000	-22.681	0.099
700.100	-22.202	0.099
700.200	-20.248	0.099
700.300	-23.315	0.099
700.400	-22.170	0.099
700.500	-13.052	0.099
700.600	-13.326	0.099
700.700	-9.272	0.099
700.800	-23.468	0.099
700.900	-17.998	0.099
701.000	-11.583	0.099
701.100	-15.811	0.099
701.200	-11.364	0.099
701.300	-16.441	0.099
701.400	-16.033	0.099
701.500	-24.081	0.099
701.600	-18.855	0.099
701.700	-1.465	0.099
701.800	-11.702	0.099
701.900	-20.129	0.099
702.000	-17.716	0.099
702.100	-12.256	0.099
702.200	-14.804	0.099
702.300	-13.505	0.099
702.400	-10.801	0.099
702.500	8.576	0.099
702.600	-14.255	0.099
702.700	-5.417	0.099
702.800	-13.738	0.099
702.900	-10.990	0.099
703.000	0.882	0.099
703.100	-14.967	0.099
703.200	-5.292	0.099
703.300	-16.586	0.099
703.400	-10.326	0.099
703.500	-20.447	0.099
703.600	-13.523	0.099
703.700	-16.199	0.099
703.800	-9.887	0.099
703.900	-7.179	0.099
704.000	-11.639	0.099
704.100	-19.866	0.099
704.200	-15.016	0.099
704.300	-16.720	0.099
704.400	-5.929	0.099
704.500	-1.110	0.099
704.600	-17.782	0.099
704.700	-13.001	0.099
704.800	-27.653	0.099
704.900	-26.354	0.099
705.000	-12.600	0.099
705.100	-5.521	0.099
705.200	-0.733	0.099
705.300	-4.369	0.099
705.400	-17.363	0.099
705.500	-14.069	0.099
705.600	-15.093	0.099
705.700	-10.680	0.099
705.800	-18.032	0.099
705.900	-19.018	0.099
706.000	-11.749	0.099
706.100	-14.322	0.099
706.200	-4.279	0.099
706.300	-14.081	0.099
706.400	-18.031	0.099
706.500	-15.501	0.099
706.600	-0.156	0.099
706.700	-12.817	0.099
706.800	-18.844	0.099
706.900	-8.202	0.099
707.000	-21.913	0.099
707.100	-16.571	0.099
707.200	-3.894	0.099
707.300	-12.506	0.099
707.400	-11.222	0.099
707.500	-9.471	0.099
707.600	-26.109	0.099
707.700	-21.274	0.099
707.800	-11.403	0.099
707.900	-10.671	0.099
708.000	-16.683	0.099
708.100	-13.595	0.099
708.200	-9.184	0.099
708.300	-15.962	0.099
708.400	-20.962	0.099
708.500	-14.760	0.099
708.600	-16.104	0.099
708.700	-4.846	0.099
708.800	-20.472	0.099
708.900	-9.239	0.099
709.000	-10.055	0.099
709.100	-11.689	0.099
709.200	-0.839	0.099
709.300	-11.640	0.099
709.400	-5.462	0.099
709.500	-1.039	0.099
709.600	-10.359	0.099
709.700	-13.494	0.099
709.800	-5.719	0.099
709.900	0.395	0.099
710.000	-26.032	0.099
710.100	-13.644	0.099
710.200	-4.356	0.099
710.300	-17.863	0.099
710.400	-23.367	0.099
710.500	-12.719	0.099
710.600	-12.070	0.099
710.700	-1.068	0.099
710.800	-0.777	0.099
710.900	-5.146	0.099
711.000	-3.375	0.099
711.100	-1.001	0.099
711.200	-15.387	0.099
711.300	-15.978	0.099
711.400	-10.173	0.099
711.500	-8.740	0.099
711.600	3.847	0.099
711.700	-4.051	0.099
711.800	-28.683	0.099
711.900	-14.557	0.099
712.000	-29.341	0.099
712.100	-23.917	0.099
712.200	-0.852	0.099
712.300	6.300	0.099
712.400	-28.636	0.099
712.500	-15.860	0.099
712.600	-6.556	0.099
712.700	-4.064	0.099
712.800	-9.862	0.099
712.900	-3.421	0.099
713.000	-5.851	0.099
713.100	-15.623	0.099
713.200	-7.214	0.099
713.300	-9.602	0.099
713.400	-21.180	0.099
713.500	-0.579	0.099
713.600	-0.071	0.099
713.700	-10.878	0.099
713.800	-10.838	0.099
713.900	-13.324	0.099
714.000	-17.753	0.099
714.100	-15.328	0.099
714.200	-10.525	0.099
714.300	-9.407	0.099
714.400	-25.095	0.099
714.500	-14.404	0.099
714.600	-25.551	0.099
714.700	-14.587	0.099
714.800	-20.170	0.099
714.900	-19.023	0.099
715.000	-0.538	0.099
715.100	-5.669	0.099
715.200	-6.187	0.099
715.300	-2.607	0.099
715.400	-17.958	0.099
715.500	-23.008	0.099
715.600	-12.372	0.099
715.700	-15.190	0.099
715.800	-17.378	0.099
715.900	-4.660	0.099
716.000	-8.300	0.099
716.100	-7.861	0.099
716.200	-19.257	0.099
716.300	-12.731	0.099
716.400	-25.613	0.099
716.500	-12.584	0.099
716.600	-7.942	0.099
716.700	-22.972	0.099
716.800	-10.679	0.099
716.900	-15.724	0.099
717.000	-10.780	0.099
717.100	-16.928	0.099
717.200	-5.291	0.099
717.300	-12.687	0.099
717.400	-3.967	0.099
717.500	-9.437	0.099
717.600	-13.849	0.099
717.700	2.281	0.099
717.800	-16.898	0.099
717.900	12.531	0.099
718.000	-16.583	0.099
718.100	-8.626	0.099
718.200	0.067	0.099
718.300	-15.712	0.099
718.400	-13.825	0.099
718.500	-4.446	0.099
718.600	-21.488	0.099
718.700	-10.968	0.099
718.800	-10.969	0.099
718.900	4.302	0.099
719.000	-6.944	0.099
719.100	-22.551	0.099
719.200	9.795	0.099
719.300	6.642	0.099
719.400	-17.058	0.099
719.500	-15.160	0.099
719.600	-10.971	0.099
719.700	-11.715	0.099
719.800	-7.301	0.099
719.900	-2.211	0.099
720.000	-4.039	0.099
720.100	-14.244	0.099
720.200	-18.741	0.099
720.300	-10.429	0.099
720.400	-23.056	0.099
720.500	2.033	0.099
720.600	-23.565	0.099
720.700	2.979	0.099
720.800	-15.720	0.099
720.900	-11.774	0.099
721.000	-15.606	0.099
721.100	1.544	0.099
721.200	-10.080	0.099
721.300	-1.987	0.099
721.400	-15.197	0.099
721.500	-9.715	0.099
721.600	-30.693	0.099
721.700	-20.135	0.099
721.800	-6.285	0.099
721.900	-2.243	0.099
722.000	-7.882	0.099
722.100	-7.761	0.099
722.200	-25.255	0.099
722.300	-0.724	0.099
722.400	-0.563	0.099
722.500	-6.727	0.099
722.600	-10.949	0.099
722.700	-8.096	0.099
722.800	-16.288	0.099
722.900	-9.306	0.099
723.000	-8.996	0.099
723.100	-17.646	0.099
723.200	-11.570	0.099
723.300	-5.883	0.099
723.400	-13.229	0.099
723.500	-13.059	0.099
723.600	-3.997	0.099
723.700	-10.395	0.099
723.800	-8.405	0.099
723.900	-18.375	0.099
724.000	-5.314	0.099
724.100	-10.019	0.099
724.200	-18.548	0.099
724.300	-4.426	0.099
724.400	-2.822	0.099
724.500	-12.952	0.099
724.600	-16.207	0.099
724.700	-0.814	0.099
724.800	-8.776	0.099
724.900	-14.844	0.099
725.000	-4.333	0.099
725.100	-9.758	0.099
725.200	-25.562	0.099
725.300	5.032	0.099
725.400	-0.724	0.099
725.500	-5.078	0.099
725.600	-12.209	0.099
725.700	-6.756	0.099
725.800	-20.178	0.099
725.900	-5.506	0.099
726.000	-8.451	0.099
726.100	-17.879	0.099
726.200	9.410	0.099
726.300	-7.290	0.099
726.400	-23.979	0.099
726.500	0.163	0.099
726.600	-0.837	0.099
726.700	-19.393	0.099
726.800	-3.718	0.099
726.900	-2.591	0.099
727.000	-16.133	0.099
727.100	-2.252	0.099
727.200	-10.819	0.099
727.300	-8.863	0.099
727.400	-22.867	0.099
727.500	-8.985	0.099
727.600	-8.173	0.099
727.700	-9.266	0.099
727.800	-4.543	0.099
727.900	-12.879	0.099
728.000	-18.139	0.099
728.100	-5.266	0.099
728.200	-6.366	0.099
728.300	-13.546	0.099
728.400	-10.577	0.099
728.500	-1.246	0.099
728.600	-26.953	0.099
728.700	-20.634	0.099
728.800	-20.645	0.099
728.900	-11.717	0.099
729.000	-4.059	0.099
729.100	-18.182	0.099
729.200	-7.127	0.099
729.300	-2.158	0.099
729.400	-19.094	0.099
729.500	10.166	0.099
729.600	-20.396	0.099
729.700	5.228	0.099
729.800	9.704	0.099
729.900	10.476	0.099
730.000	-17.133	0.099
730.100	-3.585	0.099
730.200	-10.429	0.099
730.300	-15.807	0.099
730.400	-18.175	0.099
730.500	-15.125	0.099
730.600	-15.604	0.099
730.700	-12.147	0.099
730.800	-4.118	0.099
730.900	4.216	0.099
731.000	1.037	0.099
731.100	-21.956	0.099
731.200	-4.985	0.099
731.300	-14.326	0.099
731.400	-10.683	0.099
731.500	-9.880	0.099
731.600	-10.447	0.099
731.700	-10.070	0.099
731.800	-12.105	0.099
731.900	-7.684	0.099
732.000	-2.373	0.099
732.100	-18.763	0.099
732.200	-4.749	0.099
732.300	7.837	0.099
732.400	-25.357	0.099
732.500	-8.996	0.099
732.600	2.277	0.099
732.700	-5.847	0.099
732.800	-7.193	0.099
732.900	-12.145	0.099
733.000	-4.711	0.099
733.100	-13.574	0.099
733.200	-9.195	0.099
733.300	-9.114	0.099
733.400	-18.230	0.099
733.500	-3.879	0.099
733.600	-11.360	0.099
733.700	-11.494	0.099
733.800	-3.085	0.099
733.900	-10.791	0.099
734.000	0.322	0.099
734.100	-10.342	0.099
734.200	-7.459	0.099
734.300	-15.988	0.099
734.400	-14.895	0.099
734.500	-7.503	0.099
734.600	-14.798	0.099
734.700	-13.061	0.099
734.800	-8.131	0.099
734.900	-12.392	0.099
735.000	-7.370	0.099
735.100	-4.543	0.099
735.200	-9.944	0.099
735.300	-3.197	0.099
735.400	-29.798	0.099
735.500	3.319	0.099
735.600	-25.970	0.099
735.700	4.140	0.099
735.800	-22.007	0.099
735.900	-12.722	0.099
736.000	-2.089	0.099
736.100	-10.882	0.099
736.200	-19.369	0.099
736.300	-25.415	0.099
736.400	0.092	0.099
736.500	-0.880	0.099
736.600	-9.067	0.099
736.700	4.185	0.099
736.800	-6.811	0.099
736.900	-5.569	0.099
737.000	-15.692	0.099
737.100	-8.841	0.099
737.200	-9.394	0.099
737.300	-15.658	0.099
737.400	-9.067	0.099
737.500	-28.250	0.099
737.600	-22.076	0.099
737.700	-13.892	0.099
737.800	-3.178	0.099
737.900	-7.288	0.099
738.000	5.784	0.099
738.100	-3.686	0.099
738.200	-4.190	0.099
738.300	-10.665	0.099
738.400	-10.215	0.099
738.500	-7.085	0.099
738.600	-10.300	0.099
738.700	-4.295	0.099
738.800	-18.358	0.099
738.900	-8.457	0.099
739.000	-10.914	0.099
739.100	-7.816	0.099
739.200	-1.761	0.099
739.300	7.012	0.099
739.400	-14.136	0.099
739.500	-0.622	0.099
739.600	-7.302	0.099
739.700	-14.950	0.099
739.800	-2.855	0.099
739.900	5.252	0.099
740.000	-0.642	0.099
740.100	-8.311	0.099
740.200	-14.049	0.099
740.300	-9.041	0.099
740.400	-16.202	0.099
740.500	-4.877	0.099
740.600	-4.439	0.099
740.700	-18.689	0.099
740.800	-11.182	0.099
740.900	-6.097	0.099
741.000	-1.792	0.099
741.100	-5.271	0.099
741.200	-16.037	0.099
741.300	6.885	0.099
741.400	-7.676	0.099
741.500	-4.987	0.099
741.600	10.282	0.099
741.700	-1.063	0.099
741.800	-19.109	0.099
741.900	-15.216	0.099
742.000	9.465	0.099
742.100	-4.941	0.099
742.200	-27.007	0.099
742.300	-11.782	0.099
742.400	11.412	0.099
742.500	-10.992	0.099
742.600	-8.812	0.099
742.700	4.716	0.099
742.800	-4.687	0.099
742.900	-9.761	0.099
743.000	-8.295	0.099
743.100	-4.743	0.099
743.200	-10.108	0.099
743.300	-0.386	0.099
743.400	-4.306	0.099
743.500	6.492	0.099
743.600	-7.117	0.099
743.700	-15.560	0.099
743.800	-28.571	0.099
743.900	-1.991	0.099
744.000	-20.974	0.099
744.100	5.104	0.099
744.200	-8.106	0.099
744.300	1.060	0.099
744.400	-6.085	0.099
744.500	-16.375	0.099
744.600	-7.812	0.099
744.700	-10.495	0.099
744.800	-8.535	0.099
744.900	-12.683	0.099
745.000	-9.756	0.099
745.100	-11.287	0.099
745.200	-7.908	0.099
745.300	-1.541	0.099
745.400	4.327	0.099
745.500	-12.533	0.099
745.600	-10.405	0.099
745.700	-4.462	0.099
745.800	-17.320	0.099
745.900	-2.575	0.099
746.000	-7.694	0.099
746.100	-13.236	0.099
746.200	-6.931	0.099
746.300	-2.568	0.099
746.400	-11.057	0.099
746.500	-14.498	0.099
746.600	-12.501	0.099
746.700	7.963	0.099
746.800	-0.182	0.099
746.900	-18.732	0.099
747.000	-10.632	0.099
747.100	-3.655	0.099
747.200	-0.914	0.099
747.300	-8.586	0.099
747.400	-21.866	0.099
747.500	-8.811	0.099
747.600	-2.351	0.099
747.700	3.528	0.099
747.800	-6.805	0.099
747.900	-24.317	0.099
748.000	2.489	0.099
748.100	-11.885	0.099
748.200	-17.445	0.099
748.300	8.152	0.099
748.400	-4.365	0.099
748.500	-15.320	0.099
748.600	-18.403	0.099
748.700	10.806	0.099
748.800	-9.869	0.099
748.900	-3.147	0.099
749.000	4.517	0.099
749.100	-6.587	0.099
749.200	2.060	0.099
749.300	-15.970	0.099
749.400	4.065	0.099
749.500	-19.078	0.099
749.600	11.151	0.099
749.700	6.467	0.099
749.800	-16.773	0.099
749.900	1.250	0.099
750.000	-16.688	0.099
750.100	-9.458	0.099
750.200	-8.549	0.099
750.300	-2.757	0.099
750.400	6.648	0.099
750.500	0.776	0.099
750.600	-25.178	0.099
750.700	-4.188	0.099
750.800	0.443	0.099
750.900	-9.837	0.099
751.000	4.129	0.099
751.100	3.599	0.099
751.200	6.635	0.099
751.300	-7.924	0.099
751.400	-13.890	0.099
751.500	-6.995	0.099
751.600	3.055	0.099
751.700	-7.808	0.099
751.800	10.974	0.099
751.900	-4.447	0.099
752.000	-9.284	0.099
752.100	0.721	0.099
752.200	-14.177	0.099
752.300	-5.959	0.099
752.400	2.143	0.099
752.500	-14.306	0.099
752.600	-1.389	0.099
752.700	-3.311	0.099
752.800	-9.503	0.099
752.900	-12.931	0.099
753.000	-16.177	0.099
753.100	0.178	0.099
753.200	-20.630	0.099
753.300	-8.973	0.099
753.400	-18.006	0.099
753.500	-20.533	0.099
753.600	-11.300	0.099
753.700	-2.147	0.099
753.800	-7.588	0.099
753.900	1.348	0.099
754.000	-13.862	0.099
754.100	-1.158	0.099
754.200	-10.848	0.099
754.300	-4.282	0.099
754.400	-12.250	0.099
754.500	-10.825	0.099
754.600	4.020	0.099
754.700	-6.665	0.099
754.800	-4.714	0.099
754.900	-6.092	0.099
755.000	-2.303	0.099
755.100	-8.871	0.099
755.200	-8.885	0.099
755.300	0.759	0.099
755.400	-8.254	0.099
755.500	-3.392	0.099
755.600	7.181	0.099
755.700	-2.636	0.099
755.800	-1.297	0.099
755.900	-9.568	0.099
756.000	-9.455	0.099
756.100	-6.326	0.099
756.200	-10.389	0.099
756.300	-4.583	0.099
756.400	-8.785	0.099
756.500	-5.069	0.099
756.600	-7.232	0.099
756.700	-12.907	0.099
756.800	0.435	0.099
756.900	3.107	0.099
757.000	-1.966	0.099
757.100	-10.851	0.099
757.200	-7.011	0.099
757.300	-8.212	0.099
757.400	-2.507	0.099
757.500	-5.481	0.099
757.600	3.067	0.099
757.700	-19.442	0.099
757.800	-8.364	0.099
757.900	-5.544	0.099
758.000	0.918	0.099
758.100	-6.632	0.099
758.200	-0.105	0.099
758.300	2.354	0.099
758.400	1.938	0.099
758.500	14.325	0.099
758.600	-11.419	0.099
758.700	-16.033	0.099
758.800	3.429	0.099
758.900	0.087	0.099
759.000	-9.874	0.099
759.100	-11.026	0.099
759.200	-9.393	0.099
759.300	-0.072	0.099
759.400	10.036	0.099
759.500	-12.348	0.099
759.600	6.712	0.099
759.700	-5.474	0.099
759.800	2.350	0.099
759.900	-6.096	0.099
760.000	-1.074	0.099
760.100	-4.591	0.099
760.200	-5.735	0.099
760.300	16.682	0.099
760.400	-5.379	0.099
760.500	-12.940	0.099
760.600	-12.584	0.099
760.700	13.169	0.099
760.800	1.124	0.099
760.900	-9.176	0.099
761.000	-9.410	0.099
761.100	-9.086	0.099
761.200	-5.817	0.099
761.300	6.039	0.099
761.400	-13.751	0.099
761.500	1.727	0.099
761.600	-3.280	0.099
761.700	-2.945	0.099
761.800	-8.817	0.099
761.900	-3.797	0.099
762.000	-16.796	0.099
762.100	9.682	0.099
762.200	0.489	0.099
762.300	0.453	0.099
762.400	-9.910	0.099
762.500	-33.270	0.099
762.600	2.493	0.099
762.700	-3.788	0.099
762.800	-7.734	0.099
762.900	-0.874	0.099
763.000	-10.103	0.099
763.100	-0.202	0.099
763.200	-9.021	0.099
763.300	-4.856	0.099
763.400	-11.196	0.099
763.500	-9.113	0.099
763.600	-5.396	0.099
763.700	-14.951	0.099
763.800	-9.269	0.099
763.900	11.118	0.099
764.000	-4.144	0.099
764.100	-1.163	0.099
764.200	-4.638	0.099
764.300	-10.704	0.099
764.400	-8.285	0.099
764.500	-11.939	0.099
764.600	-4.908	0.099
764.700	0.865	0.099
764.800	-8.903	0.099
764.900	-11.996	0.099
765.000	-7.640	0.099
765.100	-2.059	0.099
765.200	-12.388	0.099
765.300	-9.618	0.099
765.400	1.558	0.099
765.500	-14.070	0.099
765.600	-2.438	0.099
765.700	-19.563	0.099
765.800	-4.176	0.099
765.900	-1.510	0.099
766.000	-1.729	0.099
766.100	-2.555	0.099
766.200	-19.678	0.099
766.300	-0.901	0.099
766.400	0.082	0.099
766.500	-5.015	0.099
766.600	-4.949	0.099
766.700	1.287	0.099
766.800	-11.109	0.099
766.900	-0.121	0.099
767.000	-1.472	0.099
767.100	10.404	0.099
767.200	-1.600	0.099
767.300	-3.700	0.099
767.400	6.862	0.099
767.500	-12.408	0.099
767.600	8.333	0.099
767.700	1.065	0.099
767.800	2.721	0.099
767.900	0.805	0.099
768.000	2.351	0.099
768.100	-8.390	0.099
768.200	-26.854	0.099
768.300	-5.598	0.099
768.400	-3.471	0.099
768.500	-9.078	0.099
768.600	-12.708	0.099
768.700	0.591	0.099
768.800	-11.180	0.099
768.900	-8.385	0.099
769.000	-2.986	0.099
769.100	-10.689	0.099
769.200	9.031	0.099
769.300	-4.577	0.099
769.400	1.703	0.099
769.500	3.601	0.099
769.600	-3.711	0.099
769.700	-17.501	0.099
769.800	-12.474	0.099
769.900	-1.774	0.099
770.000	-3.976	0.099
770.100	-5.923	0.099
770.200	4.485	0.099
770.300	-6.419	0.099
770.400	4.861	0.099
770.500	-10.292	0.099
770.600	-8.114	0.099
770.700	-9.560	0.099
770.800	-6.385	0.099
770.900	-13.984	0.099
771.000	-4.386	0.099
771.100	-2.864	0.099
771.200	-4.946	0.099
771.300	2.140	0.099
771.400	-8.684	0.099
771.500	-4.266	0.099
771.600	-9.249	0.099
771.700	2.826	0.099
771.800	5.224	0.099
771.900	-9.983	0.099
772.000	-18.630	0.099
772.100	2.125	0.099
772.200	6.397	0.099
772.300	-2.051	0.099
772.400	-10.482	0.099
772.500	-8.115	0.099
772.600	6.290	0.099
772.700	-5.225	0.099
772.800	-0.895	0.099
772.900	-4.695	0.099
773.000	-8.270	0.099
773.100	-1.351	0.099
773.200	12.271	0.099
773.300	-10.381	0.099
773.400	-0.379	0.099
773.500	-4.259	0.099
773.600	-6.722	0.099
773.700	6.438	0.099
773.800	12.321	0.099
773.900	-3.877	0.099
774.000	-22.443	0.099
774.100	2.889	0.099
774.200	-7.643	0.099
774.300	-14.156	0.099
774.400	-16.758	0.099
774.500	-5.012	0.099
774.600	5.887	0.099
774.700	-0.188	0.099
774.800	-6.740	0.099
774.900	4.090	0.099
775.000	-11.453	0.099
775.100	4.999	0.099
775.200	2.824	0.099
775.300	-0.587	0.099
775.400	-7.701	0.099
775.500	1.771	0.099
775.600	9.623	0.099
775.700	-2.779	0.099
775.800	-8.203	0.099
775.900	-0.059	0.099
776.000	-8.573	0.099
776.100	-2.830	0.099
776.200	-2.432	0.099
776.300	-2.426	0.099
776.400	-0.514	0.099
776.500	-12.492	0.099
776.600	7.485	0.099
776.700	7.559	0.099
776.800	-11.079	0.099
776.900	-14.389	0.099
777.000	14.324	0.099
777.100	-2.750	0.099
777.200	-6.685	0.099
777.300	-6.714	0.099
777.400	-6.189	0.099
777.500	-8.639	0.099
777.600	4.853	0.099
777.700	-3.240	0.099
777.800	1.235	0.099
777.900	-20.746	0.099
778.000	-4.860	0.099
778.100	-7.968	0.099
778.200	-7.771	0.099
778.300	-7.399	0.099
778.400	1.886	0.099
778.500	-2.198	0.099
778.600	-5.490	0.099
778.700	0.491	0.099
778.800	-10.138	0.099
778.900	-0.083	0.099
779.000	11.509	0.099
779.100	-16.338	0.099
779.200	-3.232	0.099
779.300	-6.137	0.099
779.400	1.302	0.099
779.500	2.182	0.099
779.600	-6.941	0.099
779.700	-13.097	0.099
779.800	4.290	0.099
779.900	-7.858	0.099
780.000	-3.810	0.099
780.100	-7.009	0.099
780.200	1.835	0.099
780.300	9.554	0.099
780.400	-15.260	0.099
780.500	11.040	0.099
780.600	2.306	0.099
780.700	4.286	0.099
780.800	13.826	0.099
780.900	18.248	0.099
781.000	22.431	0.099
781.100	15.185	0.099
781.200	5.169	0.099
781.300	30.670	0.099
781.400	12.998	0.099
781.500	33.678	0.099
781.600	23.527	0.099
781.700	29.483	0.099
781.800	21.670	0.099
781.900	39.433	0.099
782.000	27.751	0.099
782.100	47.738	0.099
782.200	32.281	0.099
782.300	27.048	0.099
782.400	18.588	0.099
782.500	28.778	0.099
782.600	26.942	0.099
782.700	32.456	0.099
782.800	29.836	0.099
782.900	27.886	0.099
783.000	47.962	0.099
783.100	38.915	0.099
783.200	10.948	0.099
783.300	26.592	0.099
783.400	24.561	0.099
783.500	15.401	0.099
783.600	34.580	0.099
783.700	27.650	0.099
783.800	33.074	0.099
783.900	23.332	0.099
784.000	22.784	0.099
784.100	31.809	0.099
784.200	22.564	0.099
784.300	32.344	0.099
784.400	24.001	0.099
784.500	10.231	0.099
784.600	19.486	0.099
784.700	25.872	0.099
784.800	21.483	0.099
784.900	18.629	0.099
785.000	18.425	0.099
785.100	24.701	0.099
785.200	25.852	0.099
785.300	15.276	0.099
785.400	7.053	0.099
785.500	18.795	0.099
785.600	6.516	0.099
785.700	22.666	0.099
785.800	17.378	0.099
785.900	15.149	0.099
786.000	4.844	0.099
786.100	21.098	0.099
786.200	15.141	0.099
786.300	24.910	0.099
786.400	22.441	0.099
786.500	17.561	0.099
786.600	15.690	0.099
786.700	14.839	0.099
786.800	18.855	0.099
786.900	5.846	0.099
787.000	16.701	0.099
787.100	16.798	0.099
787.200	7.229	0.099
787.300	23.824	0.099
787.400	17.638	0.099
787.500	16.103	0.099
787.600	10.220	0.099
787.700	18.740	0.099
787.800	18.232	0.099
787.900	23.185	0.099
788.000	18.734	0.099
788.100	13.158	0.099
788.200	24.546	0.099
788.300	25.975	0.099
788.400	20.198	0.099
788.500	16.646	0.099
788.600	17.514	0.099
788.700	36.102	0.099
788.800	35.915	0.099
788.900	12.294	0.099
789.000	20.384	0.099
789.100	34.069	0.099
789.200	25.855	0.099
789.300	16.253	0.099
789.400	11.690	0.099
789.500	36.669	0.099
789.600	27.783	0.099
789.700	26.344	0.099
789.800	22.124	0.099
789.900	19.646	0.099
790.000	13.235	0.099
790.100	24.715	0.099
790.200	19.949	0.099
790.300	27.195	0.099
790.400	20.196	0.099
790.500	25.550	0.099
790.600	20.736	0.099
790.700	19.756	0.099
790.800	27.419	0.099
790.900	40.164	0.099
791.000	33.153	0.099
791.100	26.627	0.099
791.200	31.950	0.099
791.300	19.165	0.099
791.400	32.767	0.099
791.500	33.555	0.099
791.600	14.053	0.099
791.700	27.919	0.099
791.800	50.771	0.099
791.900	11.119	0.099
792.000	33.630	0.099
792.100	29.192	0.099
792.200	18.495	0.099
792.300	19.409	0.099
792.400	34.244	0.099
792.500	37.135	0.099
792.600	32.603	0.099
792.700	21.726	0.099
792.800	24.471	0.099
792.900	23.118	0.099
793.000	12.339	0.099
793.100	25.829	0.099
793.200	25.583	0.099
793.300	25.001	0.099
793.400	10.112	0.099
793.500	38.078	0.099
793.600	35.062	0.099
793.700	22.461	0.099
793.800	21.207	0.099
793.900	20.107	0.099
794.000	8.692	0.099
794.100	32.501	0.099
794.200	27.162	0.099
794.300	27.334	0.099
794.400	27.173	0.099
794.500	27.249	0.099
794.600	23.951	0.099
794.700	26.706	0.099
794.800	26.807	0.099
794.900	33.238	0.099
795.000	42.097	0.099
795.100	28.530	0.099
795.200	26.193	0.099
795.300	26.807	0.099
795.400	23.326	0.099
795.500	27.604	0.099
795.600	13.813	0.099
795.700	33.445	0.099
795.800	30.375	0.099
795.900	33.528	0.099
796.000	42.339	0.099
796.100	27.177	0.099
796.200	34.989	0.099
796.300	23.928	0.099
796.400	35.512	0.099
796.500	32.765	0.099
796.600	30.834	0.099
796.700	36.880	0.099
796.800	21.591	0.099
796.900	37.305	0.099
797.000	34.664	0.099
797.100	19.927	0.099
797.200	28.430	0.099
797.300	31.119	0.099
797.400	23.931	0.099
797.500	31.584	0.099
797.600	11.582	0.099
797.700	27.211	0.099
797.800	14.311	0.099
797.900	32.781	0.099
798.000	43.105	0.099
798.100	38.522	0.099
798.200	17.217	0.099
798.300	42.061	0.099
798.400	25.208	0.099
798.500	24.602	0.099
798.600	41.203	0.099
798.700	23.981	0.099
798.800	31.748	0.099
798.900	15.957	0.099
799.000	27.922	0.099
799.100	29.011	0.099
799.200	26.705	0.099
799.300	25.099	0.099
799.400	31.151	0.099
799.500	29.958	0.099
799.600	28.528	0.099
799.700	29.525	0.099
799.800	8.441	0.099
799.900	20.404	0.099
800.000	30.124	0.099
