time /s	I /nA	E /V
0.100	-8.523	0.099
0.200	-5.664	0.099
0.300	-5.287	0.099
0.400	7.181	0.099
0.500	5.043	0.099
0.600	-2.702	0.099
0.700	11.903	0.099
0.800	-9.437	0.099
0.900	-10.275	0.099
1.000	-2.806	0.099
1.100	-0.809	0.099
1.200	26.785	0.099
1.300	-0.664	0.099
1.400	-2.684	0.099
1.500	4.767	0.099
1.600	-6.699	0.099
1.700	-4.375	0.099
1.800	-4.634	0.099
1.900	4.552	0.099
2.000	-3.856	0.099
2.100	5.280	0.099
2.200	4.711	0.099
2.300	-1.670	0.099
2.400	0.171	0.099
2.500	3.775	0.099
2.600	-11.000	0.099
2.700	4.858	0.099
2.800	2.232	0.099
2.900	-3.150	0.099
3.000	-4.577	0.099
3.100	0.330	0.099
3.200	-0.652	0.099
3.300	-8.525	0.099
3.400	4.912	0.099
3.500	-0.197	0.099
3.600	-4.106	0.099
3.700	-0.057	0.099
3.800	-17.279	0.099
3.900	8.500	0.099
4.000	-2.193	0.099
4.100	-11.165	0.099
4.200	18.358	0.099
4.300	2.588	0.099
4.400	-0.205	0.099
4.500	-6.911	0.099
4.600	1.179	0.099
4.700	-3.197	0.099
4.800	-8.649	0.099
4.900	-7.960	0.099
5.000	-14.213	0.099
5.100	12.421	0.099
5.200	-3.712	0.099
5.300	-2.813	0.099
5.400	6.891	0.099
5.500	2.106	0.099
5.600	-15.660	0.099
5.700	10.578	0.099
5.800	7.281	0.099
5.900	1.943	0.099
6.000	-7.701	0.099
6.100	4.839	0.099
6.200	-7.123	0.099
6.300	-0.726	0.099
6.400	-6.303	0.099
6.500	2.998	0.099
6.600	-3.839	0.099
6.700	-12.774	0.099
6.800	-3.287	0.099
6.900	-18.228	0.099
7.000	-7.671	0.099
7.100	-4.357	0.099
7.200	6.483	0.099
7.300	-5.351	0.099
7.400	20.419	0.099
7.500	-15.011	0.099
7.600	-3.087	0.099
7.700	-25.355	0.099
7.800	5.182	0.099
7.900	-4.122	0.099
8.000	2.828	0.099
8.100	6.054	0.099
8.200	-4.226	0.099
8.300	-5.169	0.099
8.400	-8.331	0.099
8.500	4.048	0.099
8.600	-6.003	0.099
8.700	6.743	0.099
8.800	3.304	0.099
8.900	-4.563	0.099
9.000	2.540	0.099
9.100	-3.147	0.099
9.200	5.802	0.099
9.300	1.632	0.099
9.400	-2.795	0.099
9.500	-17.600	0.099
9.600	-8.051	0.099
9.700	-5.735	0.099
9.800	-4.119	0.099
9.900	3.478	0.099
10.000	-0.728	0.099
10.100	-11.198	0.099
10.200	4.283	0.099
10.300	-0.330	0.099
10.400	-13.346	0.099
10.500	-1.903	0.099
10.600	-5.490	0.099
10.700	7.453	0.099
10.800	-8.822	0.099
10.900	3.230	0.099
11.000	8.358	0.099
11.100	-6.589	0.099
11.200	-2.085	0.099
11.300	4.720	0.099
11.400	-1.695	0.099
11.500	-0.281	0.099
11.600	-6.721	0.099
11.700	-6.503	0.099
11.800	-3.698	0.099
11.900	-8.337	0.099
12.000	12.073	0.099
12.100	-8.248	0.099
12.200	-2.086	0.099
12.300	16.610	0.099
12.400	-6.703	0.099
12.500	0.677	0.099
12.600	-11.925	0.099
12.700	-8.815	0.099
12.800	-16.974	0.099
12.900	3.849	0.099
13.000	-1.524	0.099
13.100	-3.797	0.099
13.200	-7.768	0.099
13.300	-4.561	0.099
13.400	-0.742	0.099
13.500	-14.617	0.099
13.600	-0.073	0.099
13.700	-4.411	0.099
13.800	5.928	0.099
13.900	-10.927	0.099
14.000	-2.508	0.099
14.100	2.216	0.099
14.200	-1.966	0.099
14.300	-8.319	0.099
14.400	2.818	0.099
14.500	-6.007	0.099
14.600	2.595	0.099
14.700	-8.787	0.099
14.800	1.441	0.099
14.900	-2.413	0.099
15.000	6.881	0.099
15.100	-8.849	0.099
15.200	-7.531	0.099
15.300	-7.239	0.099
15.400	8.141	0.099
15.500	-11.406	0.099
15.600	-2.851	0.099
15.700	-4.022	0.099
15.800	4.340	0.099
15.900	-9.151	0.099
16.000	-3.446	0.099
16.100	-7.561	0.099
16.200	-7.325	0.099
16.300	0.574	0.099
16.400	10.860	0.099
16.500	-11.920	0.099
16.600	-18.224	0.099
16.700	-7.130	0.099
16.800	-4.088	0.099
16.900	-7.699	0.099
17.000	8.963	0.099
17.100	-4.030	0.099
17.200	3.204	0.099
17.300	10.825	0.099
17.400	-8.280	0.099
17.500	-15.654	0.099
17.600	5.260	0.099
17.700	-16.165	0.099
17.800	-3.295	0.099
17.900	3.746	0.099
18.000	6.750	0.099
18.100	3.726	0.099
18.200	-0.412	0.099
18.300	-23.953	0.099
18.400	1.072	0.099
18.500	-7.537	0.099
18.600	-2.962	0.099
18.700	-1.524	0.099
18.800	-2.733	0.099
18.900	-16.825	0.099
19.000	-0.902	0.099
19.100	-0.373	0.099
19.200	-5.782	0.099
19.300	-4.948	0.099
19.400	2.808	0.099
19.500	-16.414	0.099
19.600	3.289	0.099
19.700	7.703	0.099
19.800	6.439	0.099
19.900	-13.496	0.099
20.000	1.549	0.099
20.100	3.783	0.099
20.200	2.314	0.099
20.300	-13.532	0.099
20.400	1.814	0.099
20.500	-3.098	0.099
20.600	-11.780	0.099
20.700	3.617	0.099
20.800	-9.881	0.099
20.900	1.252	0.099
21.000	8.772	0.099
21.100	-1.541	0.100
21.200	-3.232	0.099
21.300	-4.140	0.099
21.400	2.596	0.099
21.500	15.270	0.099
21.600	-7.774	0.099
21.700	-8.686	0.099
21.800	4.915	0.099
21.900	0.020	0.099
22.000	-3.296	0.099
22.100	6.211	0.099
22.200	6.559	0.099
22.300	8.381	0.099
22.400	-10.642	0.099
22.500	0.607	0.099
22.600	-0.145	0.099
22.700	-7.546	0.099
22.800	12.669	0.099
22.900	6.760	0.099
23.000	2.434	0.099
23.100	3.419	0.099
23.200	15.565	0.099
23.300	9.613	0.099
23.400	9.465	0.099
23.500	2.215	0.099
23.600	8.414	0.099
23.700	-3.874	0.099
23.800	-6.838	0.099
23.900	-10.271	0.099
24.000	-1.758	0.099
24.100	4.615	0.099
24.200	3.408	0.099
24.300	-10.380	0.099
24.400	-3.274	0.099
24.500	-3.845	0.099
24.600	-5.149	0.099
24.700	-7.754	0.099
24.800	-5.197	0.099
24.900	-3.652	0.099
25.000	-5.407	0.099
25.100	2.810	0.099
25.200	-6.494	0.099
25.300	12.223	0.099
25.400	-9.108	0.099
25.500	7.127	0.099
25.600	6.642	0.099
25.700	-19.574	0.099
25.800	10.977	0.099
25.900	-3.096	0.099
26.000	12.980	0.099
26.100	3.236	0.099
26.200	2.188	0.099
26.300	-2.385	0.099
26.400	6.501	0.099
26.500	9.797	0.099
26.600	3.221	0.099
26.700	11.583	0.099
26.800	0.564	0.099
26.900	-0.152	0.099
27.000	5.370	0.099
27.100	-4.056	0.099
27.200	-7.443	0.099
27.300	-5.008	0.099
27.400	4.187	0.099
27.500	2.281	0.099
27.600	-9.210	0.099
27.700	-1.315	0.099
27.800	-0.372	0.099
27.900	-2.163	0.099
28.000	4.007	0.099
28.100	-9.501	0.099
28.200	-5.484	0.099
28.300	-3.222	0.099
28.400	-0.085	0.099
28.500	2.763	0.099
28.600	-8.909	0.099
28.700	-18.978	0.099
28.800	3.742	0.099
28.900	-4.315	0.099
29.000	8.299	0.099
29.100	-0.131	0.099
29.200	-5.829	0.099
29.300	-2.491	0.099
29.400	-0.024	0.099
29.500	12.240	0.099
29.600	-3.651	0.099
29.700	-1.477	0.099
29.800	5.830	0.099
29.900	2.126	0.099
30.000	17.435	0.099
30.100	6.173	0.099
30.200	18.988	0.099
30.300	10.752	0.099
30.400	22.368	0.099
30.500	17.588	0.099
30.600	27.134	0.099
30.700	23.055	0.099
30.800	21.701	0.099
30.900	19.410	0.099
31.000	23.078	0.099
31.100	28.051	0.099
31.200	20.056	0.099
31.300	15.245	0.099
31.400	16.883	0.099
31.500	18.750	0.099
31.600	34.081	0.099
31.700	28.525	0.099
31.800	30.428	0.099
31.900	23.982	0.099
32.000	35.129	0.099
32.100	28.704	0.099
32.200	32.498	0.099
32.300	21.168	0.099
32.400	25.554	0.099
32.500	15.755	0.099
32.600	15.072	0.099
32.700	23.162	0.099
32.800	19.775	0.099
32.900	23.471	0.099
33.000	21.167	0.099
33.100	26.459	0.099
33.200	14.770	0.099
33.300	38.427	0.099
33.400	20.990	0.099
33.500	21.681	0.099
33.600	16.691	0.099
33.700	21.153	0.099
33.800	20.426	0.099
33.900	17.751	0.099
34.000	19.614	0.099
34.100	13.171	0.099
34.200	12.367	0.099
34.300	6.131	0.099
34.400	20.731	0.099
34.500	18.908	0.099
34.600	14.372	0.099
34.700	-3.247	0.099
34.800	28.269	0.099
34.900	17.057	0.099
35.000	20.555	0.099
35.100	11.137	0.099
35.200	9.448	0.099
35.300	16.667	0.099
35.400	9.829	0.099
35.500	12.197	0.099
35.600	7.057	0.099
35.700	14.719	0.099
35.800	3.645	0.099
35.900	-2.708	0.099
36.000	9.828	0.099
36.100	24.124	0.099
36.200	15.822	0.099
36.300	16.819	0.099
36.400	7.798	0.099
36.500	8.811	0.099
36.600	10.078	0.099
36.700	12.667	0.099
36.800	13.458	0.099
36.900	0.366	0.099
37.000	15.044	0.099
37.100	10.159	0.099
37.200	9.441	0.099
37.300	8.250	0.099
37.400	6.309	0.099
37.500	12.362	0.099
37.600	6.284	0.099
37.700	6.597	0.099
37.800	19.985	0.099
37.900	7.674	0.099
38.000	14.235	0.099
38.100	18.354	0.099
38.200	9.719	0.099
38.300	-6.221	0.099
38.400	5.143	0.099
38.500	13.338	0.099
38.600	15.497	0.099
38.700	-2.752	0.099
38.800	14.967	0.099
38.900	19.156	0.099
39.000	11.763	0.099
39.100	16.016	0.099
39.200	18.773	0.099
39.300	12.740	0.099
39.400	17.778	0.099
39.500	15.901	0.099
39.600	15.254	0.099
39.700	-5.291	0.099
39.800	4.382	0.099
39.900	8.375	0.099
40.000	23.988	0.099
40.100	16.034	0.099
40.200	9.739	0.099
40.300	4.506	0.099
40.400	18.131	0.099
40.500	5.788	0.099
40.600	9.813	0.099
40.700	10.400	0.099
40.800	4.408	0.099
40.900	21.258	0.099
41.000	27.352	0.099
41.100	11.424	0.099
41.200	14.130	0.099
41.300	22.771	0.099
41.400	14.605	0.099
41.500	15.201	0.099
41.600	19.658	0.099
41.700	9.363	0.099
41.800	9.217	0.099
41.900	11.315	0.099
42.000	10.512	0.099
42.100	16.672	0.099
42.200	6.821	0.099
42.300	24.791	0.099
42.400	9.044	0.099
42.500	9.808	0.099
42.600	12.545	0.099
42.700	13.412	0.099
42.800	22.382	0.099
42.900	28.238	0.099
43.000	7.000	0.099
43.100	-3.538	0.099
43.200	16.598	0.099
43.300	8.125	0.099
43.400	5.935	0.099
43.500	11.846	0.099
43.600	14.574	0.099
43.700	23.618	0.099
43.800	25.000	0.099
43.900	11.913	0.099
44.000	14.555	0.099
44.100	17.240	0.099
44.200	15.993	0.099
44.300	7.365	0.099
44.400	14.051	0.099
44.500	19.368	0.099
44.600	8.680	0.099
44.700	6.163	0.099
44.800	19.892	0.099
44.900	33.018	0.099
45.000	8.457	0.099
45.100	25.750	0.099
45.200	7.847	0.099
45.300	1.225	0.099
45.400	11.092	0.099
45.500	18.653	0.099
45.600	20.501	0.099
45.700	17.452	0.099
45.800	13.161	0.099
45.900	16.726	0.099
46.000	17.571	0.099
46.100	7.686	0.099
46.200	21.187	0.099
46.300	19.293	0.099
46.400	15.575	0.099
46.500	20.623	0.099
46.600	23.197	0.099
46.700	26.461	0.099
46.800	11.917	0.099
46.900	22.525	0.099
47.000	6.738	0.099
47.100	14.599	0.099
47.200	17.910	0.099
47.300	29.399	0.099
47.400	6.597	0.099
47.500	11.290	0.099
47.600	24.559	0.099
47.700	10.676	0.099
47.800	20.451	0.099
47.900	19.931	0.099
48.000	14.892	0.099
48.100	21.840	0.099
48.200	15.035	0.099
48.300	24.432	0.099
48.400	8.049	0.099
48.500	13.859	0.099
48.600	22.109	0.099
48.700	13.961	0.099
48.800	14.335	0.099
48.900	10.982	0.099
49.000	3.141	0.099
49.100	24.332	0.099
49.200	10.623	0.099
49.300	17.465	0.099
49.400	16.881	0.099
49.500	14.637	0.099
49.600	15.421	0.099
49.700	12.237	0.099
49.800	4.497	0.099
49.900	14.332	0.099
50.000	-0.133	0.099
50.100	17.578	0.099
50.200	12.401	0.099
50.300	20.154	0.099
50.400	15.113	0.099
50.500	15.200	0.099
50.600	21.126	0.099
50.700	8.904	0.099
50.800	20.786	0.099
50.900	9.365	0.099
51.000	22.393	0.099
51.100	17.181	0.099
51.200	5.341	0.099
51.300	8.300	0.099
51.400	31.368	0.099
51.500	-0.758	0.099
51.600	7.467	0.099
51.700	4.996	0.099
51.800	27.195	0.099
51.900	15.494	0.099
52.000	3.812	0.099
52.100	17.291	0.099
52.200	4.393	0.099
52.300	11.287	0.099
52.400	19.484	0.099
52.500	26.383	0.099
52.600	13.795	0.099
52.700	5.334	0.099
52.800	20.193	0.099
52.900	22.736	0.099
53.000	12.299	0.099
53.100	9.026	0.099
53.200	9.670	0.099
53.300	17.717	0.099
53.400	11.709	0.099
53.500	19.469	0.099
53.600	18.876	0.099
53.700	10.616	0.099
53.800	10.820	0.099
53.900	15.920	0.099
54.000	20.178	0.099
54.100	10.399	0.099
54.200	8.074	0.099
54.300	8.320	0.099
54.400	6.585	0.099
54.500	16.751	0.099
54.600	25.886	0.099
54.700	13.731	0.099
54.800	9.000	0.099
54.900	22.460	0.099
55.000	6.710	0.099
55.100	19.570	0.099
55.200	14.638	0.099
55.300	6.491	0.099
55.400	14.529	0.099
55.500	15.329	0.099
55.600	7.605	0.099
55.700	11.446	0.099
55.800	3.853	0.099
55.900	1.242	0.099
56.000	15.833	0.099
56.100	21.319	0.099
56.200	-3.485	0.099
56.300	10.012	0.099
56.400	15.595	0.099
56.500	15.703	0.099
56.600	12.015	0.099
56.700	24.544	0.099
56.800	6.376	0.099
56.900	0.621	0.099
57.000	7.217	0.099
57.100	21.335	0.099
57.200	15.884	0.099
57.300	10.758	0.099
57.400	22.887	0.099
57.500	17.204	0.099
57.600	8.076	0.099
57.700	18.830	0.099
57.800	12.251	0.099
57.900	16.728	0.099
58.000	29.040	0.099
58.100	14.849	0.099
58.200	21.225	0.099
58.300	23.885	0.099
58.400	18.243	0.099
58.500	2.141	0.099
58.600	8.261	0.099
58.700	33.862	0.099
58.800	2.973	0.099
58.900	26.353	0.099
59.000	12.295	0.099
59.100	23.757	0.099
59.200	7.855	0.099
59.300	10.601	0.099
59.400	8.489	0.099
59.500	9.666	0.099
59.600	13.574	0.099
59.700	13.254	0.099
59.800	5.816	0.099
59.900	14.113	0.099
60.000	-1.461	0.099
60.100	22.884	0.099
60.200	6.942	0.099
60.300	9.217	0.099
60.400	3.849	0.099
60.500	14.654	0.099
60.600	18.136	0.099
60.700	17.624	0.099
60.800	3.489	0.099
60.900	11.394	0.099
61.000	28.030	0.099
61.100	15.064	0.099
61.200	12.847	0.099
61.300	5.645	0.099
61.400	12.486	0.099
61.500	26.875	0.099
61.600	13.754	0.099
61.700	20.652	0.099
61.800	15.083	0.099
61.900	20.269	0.099
62.000	15.368	0.099
62.100	25.874	0.099
62.200	-0.988	0.099
62.300	14.531	0.099
62.400	13.613	0.099
62.500	14.326	0.099
62.600	14.894	0.099
62.700	20.669	0.099
62.800	10.094	0.099
62.900	16.487	0.099
63.000	26.343	0.099
63.100	0.170	0.099
63.200	18.036	0.099
63.300	5.717	0.099
63.400	7.771	0.099
63.500	23.403	0.099
63.600	16.025	0.099
63.700	16.163	0.099
63.800	12.128	0.099
63.900	16.925	0.099
64.000	19.633	0.099
64.100	15.342	0.099
64.200	9.272	0.099
64.300	11.869	0.099
64.400	8.478	0.099
64.500	11.328	0.099
64.600	15.338	0.099
64.700	22.123	0.099
64.800	15.572	0.099
64.900	8.384	0.099
65.000	21.336	0.099
65.100	26.526	0.099
65.200	25.192	0.099
65.300	-4.886	0.099
65.400	18.977	0.099
65.500	12.815	0.099
65.600	25.653	0.099
65.700	14.723	0.099
65.800	14.305	0.099
65.900	16.519	0.099
66.000	13.374	0.099
66.100	14.529	0.099
66.200	10.685	0.099
66.300	21.211	0.099
66.400	18.749	0.099
66.500	15.972	0.099
66.600	15.769	0.099
66.700	7.447	0.099
66.800	12.486	0.099
66.900	5.914	0.099
67.000	15.247	0.099
67.100	27.507	0.099
67.200	-12.170	0.099
67.300	31.190	0.099
67.400	19.816	0.099
67.500	2.985	0.099
67.600	11.965	0.099
67.700	22.548	0.099
67.800	14.494	0.099
67.900	17.142	0.099
68.000	14.120	0.099
68.100	16.093	0.099
68.200	10.304	0.099
68.300	19.675	0.099
68.400	18.431	0.099
68.500	16.302	0.099
68.600	20.800	0.099
68.700	21.183	0.099
68.800	20.313	0.099
68.900	15.040	0.099
69.000	5.673	0.099
69.100	21.885	0.099
69.200	16.222	0.099
69.300	1.609	0.099
69.400	6.043	0.099
69.500	9.136	0.099
69.600	18.963	0.099
69.700	17.295	0.099
69.800	14.204	0.099
69.900	11.669	0.099
70.000	15.645	0.099
70.100	27.014	0.099
70.200	9.540	0.099
70.300	12.584	0.099
70.400	14.879	0.099
70.500	9.869	0.099
70.600	16.344	0.099
70.700	12.416	0.099
70.800	14.938	0.099
70.900	16.406	0.099
71.000	15.575	0.099
71.100	11.749	0.099
71.200	13.132	0.099
71.300	9.038	0.099
71.400	19.946	0.099
71.500	17.261	0.099
71.600	20.056	0.099
71.700	26.921	0.099
71.800	23.916	0.099
71.900	20.975	0.099
72.000	15.474	0.099
72.100	21.536	0.099
72.200	21.267	0.099
72.300	1.711	0.099
72.400	10.337	0.099
72.500	15.483	0.099
72.600	21.072	0.099
72.700	16.103	0.099
72.800	24.250	0.099
72.900	29.861	0.099
73.000	9.698	0.099
73.100	15.317	0.099
73.200	19.611	0.099
73.300	19.601	0.099
73.400	5.034	0.099
73.500	8.364	0.099
73.600	18.640	0.099
73.700	12.721	0.099
73.800	9.088	0.099
73.900	18.832	0.099
74.000	4.209	0.099
74.100	19.490	0.099
74.200	22.206	0.099
74.300	8.700	0.099
74.400	29.718	0.099
74.500	13.895	0.099
74.600	14.234	0.099
74.700	12.029	0.099
74.800	7.001	0.099
74.900	12.880	0.099
75.000	9.543	0.099
75.100	4.022	0.099
75.200	11.396	0.099
75.300	11.412	0.099
75.400	16.413	0.099
75.500	22.784	0.099
75.600	7.681	0.099
75.700	14.231	0.099
75.800	19.242	0.099
75.900	13.484	0.099
76.000	18.765	0.099
76.100	19.861	0.099
76.200	13.047	0.099
76.300	17.092	0.099
76.400	13.505	0.099
76.500	20.364	0.099
76.600	14.418	0.099
76.700	6.053	0.099
76.800	0.787	0.099
76.900	13.432	0.099
77.000	28.667	0.099
77.100	15.279	0.099
77.200	15.074	0.099
77.300	17.606	0.099
77.400	19.745	0.099
77.500	2.752	0.099
77.600	11.845	0.099
77.700	20.844	0.099
77.800	11.037	0.099
77.900	9.656	0.099
78.000	25.522	0.099
78.100	14.463	0.099
78.200	10.129	0.099
78.300	8.317	0.099
78.400	6.727	0.099
78.500	26.753	0.099
78.600	3.421	0.099
78.700	11.059	0.099
78.800	25.912	0.099
78.900	10.240	0.099
79.000	7.407	0.099
79.100	12.921	0.099
79.200	11.589	0.099
79.300	27.578	0.099
79.400	19.250	0.099
79.500	3.418	0.099
79.600	18.590	0.099
79.700	5.252	0.099
79.800	17.410	0.099
79.900	22.334	0.099
80.000	21.736	0.099
80.100	14.046	0.099
80.200	10.420	0.099
80.300	21.891	0.099
80.400	19.892	0.099
80.500	17.500	0.099
80.600	14.667	0.099
80.700	2.973	0.099
80.800	9.072	0.099
80.900	12.270	0.099
81.000	14.727	0.099
81.100	16.699	0.099
81.200	23.358	0.099
81.300	25.077	0.099
81.400	25.221	0.099
81.500	20.047	0.099
81.600	2.941	0.099
81.700	10.138	0.099
81.800	14.988	0.099
81.900	12.892	0.099
82.000	14.962	0.099
82.100	18.121	0.099
82.200	21.410	0.099
82.300	12.040	0.099
82.400	17.113	0.099
82.500	13.265	0.099
82.600	14.285	0.099
82.700	27.940	0.099
82.800	18.168	0.099
82.900	20.591	0.099
83.000	14.595	0.099
83.100	24.169	0.099
83.200	19.479	0.099
83.300	5.334	0.099
83.400	7.733	0.099
83.500	-0.226	0.099
83.600	9.510	0.099
83.700	13.283	0.099
83.800	15.309	0.099
83.900	25.401	0.099
84.000	5.535	0.099
84.100	11.916	0.099
84.200	28.516	0.099
84.300	9.374	0.099
84.400	15.674	0.099
84.500	11.677	0.099
84.600	16.420	0.099
84.700	15.632	0.099
84.800	13.487	0.099
84.900	15.716	0.099
85.000	11.050	0.099
85.100	20.669	0.099
85.200	4.587	0.099
85.300	14.223	0.099
85.400	23.058	0.099
85.500	7.712	0.099
85.600	20.590	0.099
85.700	15.120	0.099
85.800	9.971	0.099
85.900	24.091	0.099
86.000	14.145	0.099
86.100	21.850	0.099
86.200	8.993	0.099
86.300	16.660	0.099
86.400	14.580	0.099
86.500	2.899	0.099
86.600	8.956	0.099
86.700	24.821	0.099
86.800	11.926	0.099
86.900	30.128	0.099
87.000	14.910	0.099
87.100	16.439	0.099
87.200	13.234	0.099
87.300	16.685	0.099
87.400	5.430	0.099
87.500	10.060	0.099
87.600	14.767	0.099
87.700	14.662	0.099
87.800	25.568	0.099
87.900	15.503	0.099
88.000	12.483	0.099
88.100	21.351	0.099
88.200	10.848	0.099
88.300	14.515	0.099
88.400	10.209	0.099
88.500	23.705	0.099
88.600	6.348	0.099
88.700	3.272	0.099
88.800	12.321	0.099
88.900	9.069	0.099
89.000	9.906	0.099
89.100	15.031	0.099
89.200	19.628	0.099
89.300	11.222	0.099
89.400	14.403	0.099
89.500	17.104	0.099
89.600	6.583	0.099
89.700	12.445	0.099
89.800	12.005	0.099
89.900	-2.479	0.099
90.000	9.175	0.099
90.100	22.214	0.099
90.200	-4.651	0.099
90.300	9.028	0.099
90.400	-3.475	0.099
90.500	5.202	0.099
90.600	11.881	0.099
90.700	-1.771	0.099
90.800	-4.571	0.099
90.900	-13.142	0.099
91.000	2.058	0.099
91.100	-17.292	0.099
91.200	-18.901	0.099
91.300	3.583	0.099
91.400	-9.966	0.099
91.500	-23.387	0.099
91.600	3.757	0.099
91.700	-18.198	0.099
91.800	-10.058	0.099
91.900	2.057	0.099
92.000	-10.881	0.099
92.100	-17.724	0.099
92.200	-22.761	0.099
92.300	-13.014	0.099
92.400	1.351	0.099
92.500	-6.866	0.099
92.600	-16.300	0.099
92.700	-13.905	0.099
92.800	-9.448	0.099
92.900	-39.768	0.099
93.000	-14.575	0.099
93.100	-8.926	0.099
93.200	-12.796	0.099
93.300	-14.589	0.099
93.400	-12.503	0.099
93.500	2.692	0.099
93.600	-11.252	0.099
93.700	0.649	0.099
93.800	-5.809	0.099
93.900	2.918	0.099
94.000	-17.199	0.099
94.100	-10.623	0.099
94.200	-15.765	0.099
94.300	-14.269	0.099
94.400	1.967	0.099
94.500	-15.552	0.099
94.600	2.732	0.099
94.700	4.676	0.099
94.800	-5.868	0.099
94.900	-14.275	0.099
95.000	3.718	0.099
95.100	-13.013	0.099
95.200	-15.329	0.099
95.300	-6.480	0.099
95.400	-5.133	0.099
95.500	2.149	0.099
95.600	5.598	0.099
95.700	-8.010	0.099
95.800	-15.030	0.099
95.900	-11.163	0.099
96.000	-11.843	0.099
96.100	-2.970	0.099
96.200	-6.880	0.099
96.300	-3.303	0.099
96.400	-7.853	0.099
96.500	5.404	0.099
96.600	-18.223	0.099
96.700	2.623	0.099
96.800	2.252	0.099
96.900	-1.029	0.099
97.000	-9.882	0.099
97.100	-5.227	0.099
97.200	-12.127	0.099
97.300	-16.066	0.099
97.400	-3.120	0.099
97.500	-6.291	0.099
97.600	-8.029	0.099
97.700	8.978	0.099
97.800	-2.541	0.099
97.900	-2.541	0.099
98.000	-2.395	0.099
98.100	-1.366	0.099
98.200	-16.027	0.099
98.300	0.069	0.099
98.400	-7.246	0.099
98.500	-7.407	0.099
98.600	-10.791	0.099
98.700	0.310	0.099
98.800	-4.081	0.099
98.900	-4.841	0.099
99.000	2.373	0.099
99.100	2.070	0.099
99.200	2.040	0.099
99.300	-1.003	0.099
99.400	-14.481	0.099
99.500	3.462	0.099
99.600	-2.540	0.099
99.700	-9.883	0.099
99.800	-12.808	0.099
99.900	-3.870	0.099
100.000	-6.241	0.099
100.100	3.203	0.099
100.200	-6.779	0.099
100.300	-5.682	0.099
100.400	15.054	0.099
100.500	1.957	0.099
100.600	-1.341	0.099
100.700	8.373	0.099
100.800	0.274	0.099
100.900	-9.162	0.099
101.000	-2.059	0.099
101.100	-6.249	0.099
101.200	-8.979	0.099
101.300	13.860	0.099
101.400	0.077	0.099
101.500	-0.643	0.099
101.600	7.768	0.099
101.700	-3.517	0.099
101.800	-17.470	0.099
101.900	3.615	0.099
102.000	-10.707	0.099
102.100	2.651	0.099
102.200	-19.426	0.099
102.300	6.675	0.099
102.400	-8.522	0.099
102.500	2.503	0.099
102.600	-8.976	0.099
102.700	-15.680	0.099
102.800	0.485	0.099
102.900	-5.910	0.099
103.000	16.193	0.099
103.100	12.595	0.099
103.200	-5.193	0.099
103.300	-2.391	0.099
103.400	-3.756	0.099
103.500	-3.729	0.099
103.600	-5.609	0.099
103.700	13.960	0.099
103.800	-12.890	0.099
103.900	-4.800	0.099
104.000	-10.165	0.099
104.100	-9.663	0.099
104.200	-2.914	0.099
104.300	-3.476	0.099
104.400	11.327	0.099
104.500	-0.257	0.099
104.600	-6.516	0.099
104.700	-4.214	0.099
104.800	10.293	0.099
104.900	-9.496	0.099
105.000	-1.943	0.099
105.100	1.893	0.099
105.200	3.052	0.099
105.300	-13.408	0.099
105.400	-5.697	0.099
105.500	16.275	0.099
105.600	-2.916	0.099
105.700	-6.003	0.099
105.800	-0.884	0.099
105.900	-4.891	0.099
106.000	-11.242	0.099
106.100	-5.294	0.099
106.200	5.983	0.099
106.300	-7.262	0.099
106.400	11.047	0.099
106.500	1.028	0.099
106.600	-3.964	0.099
106.700	-12.268	0.099
106.800	-11.235	0.099
106.900	-5.728	0.099
107.000	1.504	0.099
107.100	1.451	0.099
107.200	-4.205	0.099
107.300	5.444	0.099
107.400	1.145	0.099
107.500	-5.538	0.099
107.600	5.857	0.099
107.700	-12.256	0.099
107.800	-5.030	0.099
107.900	-10.249	0.099
108.000	-1.754	0.099
108.100	-1.178	0.099
108.200	7.326	0.099
108.300	-7.790	0.099
108.400	-3.619	0.099
108.500	-10.852	0.099
108.600	11.891	0.099
108.700	2.094	0.099
108.800	-3.792	0.099
108.900	1.924	0.099
109.000	-2.671	0.099
109.100	-9.145	0.099
109.200	-3.271	0.099
109.300	1.519	0.099
109.400	-0.431	0.099
109.500	1.346	0.099
109.600	-5.849	0.099
109.700	-6.936	0.099
109.800	8.214	0.099
109.900	1.517	0.099
110.000	-1.256	0.099
110.100	12.766	0.099
110.200	-27.907	0.099
110.300	12.103	0.099
110.400	11.915	0.099
110.500	-1.551	0.099
110.600	-14.816	0.099
110.700	-0.200	0.099
110.800	-21.815	0.099
110.900	-11.724	0.099
111.000	-0.547	0.099
111.100	-2.539	0.099
111.200	-9.481	0.099
111.300	-4.408	0.099
111.400	-14.842	0.099
111.500	1.121	0.099
111.600	-2.691	0.099
111.700	3.932	0.099
111.800	1.345	0.099
111.900	3.371	0.099
112.000	-5.002	0.099
112.100	-13.313	0.099
112.200	6.024	0.099
112.300	-7.394	0.099
112.400	-1.381	0.099
112.500	3.302	0.099
112.600	-8.865	0.099
112.700	-0.279	0.099
112.800	-11.041	0.099
112.900	-9.360	0.099
113.000	-5.971	0.099
113.100	-7.713	0.099
113.200	-0.137	0.099
113.300	-1.518	0.099
113.400	-6.353	0.099
113.500	6.435	0.099
113.600	5.922	0.099
113.700	-4.164	0.099
113.800	-11.793	0.099
113.900	-7.472	0.099
114.000	-8.370	0.099
114.100	-11.909	0.099
114.200	-7.113	0.099
114.300	-6.516	0.099
114.400	-18.395	0.099
114.500	2.351	0.099
114.600	-13.959	0.099
114.700	8.073	0.099
114.800	5.482	0.099
114.900	-14.768	0.099
115.000	-2.496	0.099
115.100	6.579	0.099
115.200	-11.146	0.099
115.300	-6.099	0.099
115.400	2.003	0.099
115.500	5.986	0.099
115.600	-19.554	0.099
115.700	-6.273	0.099
115.800	-1.571	0.099
115.900	-8.499	0.099
116.000	-14.948	0.099
116.100	-8.011	0.099
116.200	-6.275	0.099
116.300	3.003	0.099
116.400	-12.339	0.099
116.500	-3.568	0.099
116.600	-19.076	0.099
116.700	-6.858	0.099
116.800	5.105	0.099
116.900	3.412	0.099
117.000	6.992	0.099
117.100	2.036	0.099
117.200	-7.737	0.099
117.300	-7.796	0.099
117.400	-5.427	0.099
117.500	-7.529	0.099
117.600	-5.269	0.099
117.700	-15.376	0.099
117.800	-4.676	0.099
117.900	-3.689	0.099
118.000	-11.640	0.099
118.100	-4.376	0.099
118.200	8.963	0.099
118.300	-6.207	0.099
118.400	-18.851	0.099
118.500	-10.895	0.099
118.600	-0.313	0.099
118.700	-0.470	0.099
118.800	-6.796	0.099
118.900	-8.233	0.099
119.000	-8.715	0.099
119.100	-5.989	0.099
119.200	-6.914	0.099
119.300	-3.242	0.099
119.400	-13.759	0.099
119.500	-4.326	0.099
119.600	-18.078	0.099
119.700	-5.668	0.099
119.800	-10.514	0.099
119.900	-11.094	0.099
120.000	-11.342	0.099
120.100	-2.776	0.099
120.200	6.045	0.099
120.300	-11.931	0.099
120.400	-2.695	0.099
120.500	7.989	0.099
120.600	-26.399	0.099
120.700	-3.523	0.099
120.800	2.661	0.099
120.900	-11.446	0.099
121.000	0.684	0.099
121.100	-20.561	0.099
121.200	-2.341	0.099
121.300	-8.727	0.099
121.400	-4.734	0.099
121.500	-5.168	0.099
121.600	-9.883	0.099
121.700	-9.315	0.099
121.800	-7.151	0.099
121.900	-4.514	0.099
122.000	3.423	0.099
122.100	-11.409	0.099
122.200	0.664	0.099
122.300	-12.874	0.099
122.400	-9.460	0.099
122.500	-11.727	0.099
122.600	2.128	0.099
122.700	-11.439	0.099
122.800	-14.656	0.099
122.900	-6.821	0.099
123.000	-0.919	0.099
123.100	-9.421	0.099
123.200	-5.643	0.099
123.300	-11.042	0.099
123.400	-11.258	0.099
123.500	-15.331	0.099
123.600	-2.237	0.099
123.700	-0.778	0.099
123.800	-1.276	0.099
123.900	-12.449	0.099
124.000	-3.064	0.099
124.100	-10.445	0.099
124.200	-1.107	0.099
124.300	-8.150	0.099
124.400	0.456	0.099
124.500	-4.573	0.099
124.600	-8.173	0.099
124.700	-17.637	0.099
124.800	-5.239	0.099
124.900	-5.397	0.099
125.000	1.064	0.099
125.100	-11.838	0.099
125.200	-11.673	0.099
125.300	-3.424	0.099
125.400	-4.929	0.099
125.500	-4.218	0.099
125.600	-10.272	0.099
125.700	-38.503	0.099
125.800	-7.513	0.099
125.900	-3.518	0.099
126.000	4.140	0.099
126.100	-7.491	0.099
126.200	5.432	0.099
126.300	0.589	0.099
126.400	-8.657	0.099
126.500	-9.945	0.099
126.600	-8.693	0.099
126.700	-9.076	0.099
126.800	-9.320	0.099
126.900	-19.360	0.099
127.000	-7.928	0.099
127.100	-25.550	0.099
127.200	-0.959	0.099
127.300	-21.703	0.099
127.400	-15.707	0.099
127.500	-2.948	0.099
127.600	-2.996	0.099
127.700	-23.439	0.099
127.800	-8.718	0.099
127.900	-13.129	0.099
128.000	-21.380	0.099
128.100	-0.252	0.099
128.200	0.113	0.099
128.300	-13.921	0.099
128.400	-12.053	0.099
128.500	-14.025	0.099
128.600	-9.009	0.099
128.700	-2.315	0.099
128.800	-10.071	0.099
128.900	-4.149	0.099
129.000	2.510	0.099
129.100	-14.145	0.099
129.200	-1.759	0.099
129.300	-9.055	0.099
129.400	-7.299	0.099
129.500	-5.249	0.099
129.600	-7.432	0.099
129.700	6.474	0.099
129.800	-7.409	0.099
129.900	-8.299	0.099
130.000	7.946	0.099
130.100	-19.400	0.099
130.200	1.565	0.099
130.300	2.998	0.099
130.400	-15.156	0.099
130.500	-10.360	0.099
130.600	-19.700	0.099
130.700	-3.431	0.099
130.800	-24.316	0.099
130.900	-4.751	0.099
131.000	5.824	0.099
131.100	-7.928	0.099
131.200	3.600	0.099
131.300	-7.733	0.099
131.400	-12.280	0.099
131.500	-18.027	0.099
131.600	-18.647	0.099
131.700	-8.171	0.099
131.800	-15.289	0.099
131.900	-2.160	0.099
132.000	-22.513	0.099
132.100	11.920	0.099
132.200	-16.018	0.099
132.300	-0.935	0.099
132.400	2.294	0.099
132.500	-12.571	0.099
132.600	-5.592	0.099
132.700	-1.601	0.099
132.800	-28.914	0.099
132.900	0.254	0.099
133.000	-11.537	0.099
133.100	-1.367	0.099
133.200	-0.794	0.099
133.300	-6.263	0.099
133.400	-6.962	0.099
133.500	-3.274	0.099
133.600	-16.309	0.099
133.700	-8.955	0.099
133.800	-9.828	0.099
133.900	4.141	0.099
134.000	-4.883	0.099
134.100	-23.928	0.099
134.200	0.470	0.099
134.300	-7.641	0.099
134.400	3.454	0.099
134.500	-11.289	0.099
134.600	-0.401	0.099
134.700	-11.213	0.099
134.800	11.227	0.099
134.900	-11.570	0.099
135.000	-10.959	0.099
135.100	-18.068	0.099
135.200	-6.068	0.099
135.300	-7.060	0.099
135.400	-9.474	0.099
135.500	-8.863	0.099
135.600	-5.731	0.099
135.700	-5.945	0.099
135.800	-1.860	0.099
135.900	-12.764	0.099
136.000	-12.526	0.099
136.100	-16.690	0.099
136.200	-25.566	0.099
136.300	5.526	0.099
136.400	-16.179	0.099
136.500	-5.057	0.099
136.600	2.757	0.099
136.700	-7.511	0.099
136.800	-12.557	0.099
136.900	-3.776	0.099
137.000	-12.195	0.099
137.100	-6.485	0.099
137.200	3.445	0.099
137.300	-8.665	0.099
137.400	-1.514	0.099
137.500	-21.814	0.099
137.600	5.880	0.099
137.700	-3.394	0.099
137.800	-31.446	0.099
137.900	-9.729	0.099
138.000	-0.915	0.099
138.100	-2.868	0.099
138.200	-5.441	0.099
138.300	-9.320	0.099
138.400	-1.319	0.099
138.500	-19.127	0.099
138.600	3.436	0.099
138.700	-7.270	0.099
138.800	-23.059	0.099
138.900	-12.618	0.099
139.000	-8.293	0.099
139.100	-5.244	0.099
139.200	-3.190	0.099
139.300	-7.457	0.099
139.400	-8.729	0.099
139.500	-16.958	0.099
139.600	-12.507	0.099
139.700	7.960	0.099
139.800	-7.580	0.099
139.900	-6.955	0.099
140.000	-0.217	0.099
140.100	-5.009	0.099
140.200	-3.950	0.099
140.300	6.025	0.099
140.400	-10.770	0.099
140.500	-2.648	0.099
140.600	-8.482	0.099
140.700	-1.233	0.099
140.800	-7.417	0.099
140.900	-4.699	0.099
141.000	-13.550	0.099
141.100	-11.212	0.099
141.200	-14.131	0.099
141.300	-18.891	0.099
141.400	-10.685	0.099
141.500	-11.689	0.099
141.600	1.505	0.099
141.700	-13.185	0.099
141.800	-10.132	0.099
141.900	-20.001	0.099
142.000	6.256	0.099
142.100	-8.486	0.100
142.200	-16.039	0.099
142.300	-5.456	0.099
142.400	-3.175	0.099
142.500	7.544	0.099
142.600	-23.394	0.099
142.700	-4.006	0.099
142.800	-5.053	0.099
142.900	4.549	0.099
143.000	-8.761	0.099
143.100	-1.578	0.099
143.200	-1.296	0.099
143.300	-2.801	0.099
143.400	-6.964	0.099
143.500	-5.583	0.099
143.600	-2.298	0.099
143.700	1.752	0.099
143.800	-21.386	0.099
143.900	-5.667	0.099
144.000	-4.753	0.099
144.100	-13.815	0.099
144.200	-6.466	0.099
144.300	-14.538	0.099
144.400	-9.129	0.099
144.500	0.436	0.099
144.600	1.720	0.099
144.700	0.493	0.099
144.800	-9.445	0.099
144.900	-16.896	0.099
145.000	-12.483	0.099
145.100	12.378	0.099
145.200	-10.918	0.099
145.300	2.531	0.099
145.400	-0.206	0.099
145.500	0.405	0.099
145.600	-21.837	0.099
145.700	12.368	0.099
145.800	-11.095	0.099
145.900	11.133	0.099
146.000	-3.936	0.099
146.100	-1.674	0.099
146.200	2.828	0.099
146.300	-21.971	0.099
146.400	-9.598	0.099
146.500	5.024	0.099
146.600	-4.120	0.099
146.700	-3.998	0.099
146.800	5.605	0.099
146.900	-3.074	0.099
147.000	4.211	0.099
147.100	1.338	0.099
147.200	-12.498	0.099
147.300	-10.029	0.099
147.400	8.264	0.099
147.500	1.035	0.099
147.600	-19.007	0.099
147.700	-13.987	0.099
147.800	-5.371	0.099
147.900	4.287	0.099
148.000	5.166	0.099
148.100	0.518	0.099
148.200	-6.702	0.099
148.300	-4.834	0.099
148.400	-10.323	0.099
148.500	-4.796	0.099
148.600	0.264	0.099
148.700	-1.935	0.099
148.800	-7.553	0.099
148.900	-1.427	0.099
149.000	-6.687	0.099
149.100	9.565	0.099
149.200	4.984	0.099
149.300	-3.248	0.099
149.400	-8.874	0.099
149.500	1.535	0.099
149.600	3.900	0.099
149.700	-6.393	0.099
149.800	1.352	0.099
149.900	-12.304	0.099
150.000	10.543	0.099
150.100	5.180	0.099
150.200	9.870	0.099
150.300	-6.166	0.099
150.400	-3.558	0.099
150.500	-17.976	0.099
150.600	-2.038	0.099
150.700	-6.260	0.099
150.800	9.000	0.099
150.900	-6.273	0.099
151.000	-7.654	0.099
151.100	0.043	0.099
151.200	-20.566	0.099
151.300	-8.905	0.099
151.400	-4.661	0.099
151.500	-2.813	0.099
151.600	-11.309	0.099
151.700	-10.792	0.099
151.800	-0.973	0.099
151.900	-6.263	0.099
152.000	-11.350	0.099
152.100	-1.941	0.099
152.200	2.802	0.099
152.300	-2.868	0.099
152.400	-3.439	0.099
152.500	-11.602	0.099
152.600	-16.694	0.099
152.700	3.865	0.099
152.800	-9.870	0.099
152.900	-8.228	0.099
153.000	9.844	0.099
153.100	-2.237	0.099
153.200	-1.838	0.099
153.300	-14.009	0.099
153.400	-5.345	0.099
153.500	1.435	0.099
153.600	4.271	0.099
153.700	-4.945	0.099
153.800	-9.450	0.099
153.900	4.768	0.099
154.000	6.605	0.099
154.100	-8.963	0.099
154.200	-8.787	0.099
154.300	-8.132	0.099
154.400	-5.281	0.099
154.500	-3.547	0.099
154.600	-2.939	0.099
154.700	-11.854	0.099
154.800	-7.317	0.099
154.900	-8.483	0.099
155.000	-9.316	0.099
155.100	5.021	0.099
155.200	-2.374	0.099
155.300	-15.148	0.099
155.400	1.244	0.099
155.500	-14.090	0.099
155.600	-3.262	0.099
155.700	-6.404	0.099
155.800	-3.579	0.099
155.900	-12.466	0.099
156.000	-0.414	0.099
156.100	-3.991	0.099
156.200	-6.962	0.099
156.300	-18.237	0.099
156.400	-11.004	0.099
156.500	-3.648	0.099
156.600	-3.852	0.099
156.700	4.526	0.099
156.800	7.945	0.099
156.900	-1.950	0.099
157.000	-23.257	0.099
157.100	1.110	0.099
157.200	-13.011	0.099
157.300	-6.499	0.099
157.400	-17.860	0.099
157.500	6.549	0.099
157.600	-4.815	0.099
157.700	-6.138	0.099
157.800	-4.289	0.099
157.900	-3.770	0.099
158.000	2.126	0.099
158.100	0.835	0.099
158.200	-4.596	0.099
158.300	-18.667	0.099
158.400	-7.577	0.099
158.500	-5.217	0.099
158.600	-16.263	0.099
158.700	-15.628	0.099
158.800	-2.059	0.099
158.900	-6.126	0.099
159.000	1.530	0.099
159.100	-9.825	0.099
159.200	-1.243	0.099
159.300	-5.742	0.099
159.400	-14.828	0.099
159.500	-12.088	0.099
159.600	-3.100	0.099
159.700	-15.633	0.099
159.800	6.150	0.099
159.900	-19.863	0.099
160.000	-4.143	0.099
160.100	-21.648	0.099
160.200	-8.919	0.099
160.300	-6.458	0.099
160.400	-1.693	0.099
160.500	-12.639	0.099
160.600	4.164	0.099
160.700	-8.496	0.099
160.800	0.572	0.099
160.900	-12.386	0.099
161.000	-2.979	0.099
161.100	-5.359	0.099
161.200	0.110	0.099
161.300	1.073	0.099
161.400	7.045	0.099
161.500	3.808	0.099
161.600	-12.987	0.099
161.700	0.593	0.099
161.800	-15.881	0.099
161.900	5.829	0.099
162.000	5.759	0.099
162.100	-0.436	0.099
162.200	0.875	0.099
162.300	-3.534	0.099
162.400	-4.316	0.099
162.500	-8.549	0.099
162.600	-0.354	0.099
162.700	-1.227	0.099
162.800	-2.968	0.099
162.900	1.801	0.099
163.000	9.825	0.099
163.100	-5.251	0.099
163.200	-4.379	0.099
163.300	-0.233	0.099
163.400	1.546	0.099
163.500	-12.576	0.099
163.600	-9.987	0.099
163.700	0.992	0.099
163.800	1.022	0.099
163.900	0.419	0.099
164.000	-4.906	0.099
164.100	5.278	0.099
164.200	-9.808	0.099
164.300	15.018	0.099
164.400	-9.354	0.099
164.500	-12.623	0.099
164.600	-7.974	0.099
164.700	-5.052	0.099
164.800	6.097	0.099
164.900	-8.583	0.099
165.000	6.827	0.099
165.100	10.549	0.099
165.200	-10.639	0.099
165.300	-5.697	0.099
165.400	-1.214	0.099
165.500	-3.025	0.099
165.600	1.430	0.099
165.700	11.091	0.099
165.800	0.659	0.099
165.900	-8.551	0.099
166.000	-11.669	0.099
166.100	6.470	0.099
166.200	-7.703	0.099
166.300	-7.233	0.099
166.400	-13.874	0.099
166.500	-10.972	0.099
166.600	2.328	0.099
166.700	14.871	0.099
166.800	-15.103	0.099
166.900	-11.247	0.099
167.000	-14.766	0.099
167.100	-6.538	0.099
167.200	1.464	0.099
167.300	-10.842	0.099
167.400	-12.365	0.099
167.500	10.781	0.099
167.600	-9.044	0.099
167.700	-12.175	0.099
167.800	-1.474	0.099
167.900	-1.299	0.099
168.000	-5.632	0.099
168.100	-8.988	0.099
168.200	9.134	0.099
168.300	3.933	0.099
168.400	-11.960	0.099
168.500	-4.557	0.099
168.600	-4.399	0.099
168.700	-17.872	0.099
168.800	-10.613	0.099
168.900	-3.562	0.099
169.000	-11.931	0.099
169.100	-5.109	0.099
169.200	-11.442	0.099
169.300	-9.065	0.099
169.400	-5.701	0.099
169.500	-3.924	0.099
169.600	-3.471	0.099
169.700	0.135	0.099
169.800	-14.296	0.099
169.900	1.207	0.099
170.000	-8.438	0.099
170.100	-6.218	0.099
170.200	5.789	0.099
170.300	-5.433	0.099
170.400	6.104	0.099
170.500	-10.627	0.099
170.600	-0.106	0.099
170.700	-16.899	0.099
170.800	-0.069	0.099
170.900	-4.897	0.099
171.000	-4.649	0.099
171.100	-7.955	0.099
171.200	-5.356	0.099
171.300	-2.057	0.099
171.400	-13.358	0.099
171.500	2.332	0.099
171.600	-5.750	0.099
171.700	-5.917	0.099
171.800	-9.130	0.099
171.900	-15.719	0.099
172.000	-8.096	0.099
172.100	-0.200	0.099
172.200	-11.166	0.099
172.300	-12.379	0.099
172.400	-7.222	0.099
172.500	-8.001	0.099
172.600	-3.872	0.099
172.700	-3.743	0.099
172.800	-1.313	0.099
172.900	1.477	0.099
173.000	-0.165	0.099
173.100	9.718	0.099
173.200	-7.531	0.099
173.300	-8.133	0.099
173.400	-15.382	0.099
173.500	-1.265	0.099
173.600	10.172	0.099
173.700	5.597	0.099
173.800	-5.369	0.099
173.900	-1.715	0.099
174.000	-16.149	0.099
174.100	-3.027	0.099
174.200	-0.435	0.099
174.300	-1.265	0.099
174.400	-8.539	0.099
174.500	-12.472	0.099
174.600	10.684	0.099
174.700	-1.686	0.099
174.800	0.900	0.099
174.900	-12.025	0.099
175.000	-7.168	0.099
175.100	-10.275	0.099
175.200	6.041	0.099
175.300	-11.651	0.099
175.400	-0.053	0.099
175.500	-5.049	0.099
175.600	-15.935	0.099
175.700	10.765	0.099
175.800	-5.140	0.099
175.900	5.218	0.099
176.000	-5.968	0.099
176.100	-11.063	0.099
176.200	-6.940	0.099
176.300	-8.503	0.099
176.400	-6.411	0.099
176.500	-5.021	0.099
176.600	-6.713	0.099
176.700	10.751	0.099
176.800	-2.773	0.099
176.900	4.002	0.099
177.000	-8.453	0.099
177.100	2.906	0.099
177.200	4.557	0.099
177.300	-4.709	0.099
177.400	-16.217	0.099
177.500	4.511	0.099
177.600	-2.974	0.099
177.700	-0.317	0.099
177.800	-5.914	0.099
177.900	-1.370	0.099
178.000	-14.997	0.099
178.100	-7.955	0.099
178.200	-13.998	0.099
178.300	6.126	0.099
178.400	-6.993	0.099
178.500	-1.920	0.099
178.600	-11.483	0.099
178.700	-9.089	0.099
178.800	-3.341	0.099
178.900	4.352	0.099
179.000	-2.663	0.099
179.100	0.419	0.099
179.200	5.075	0.099
179.300	-14.924	0.099
179.400	16.207	0.099
179.500	-8.887	0.099
179.600	-9.912	0.099
179.700	-6.726	0.099
179.800	17.233	0.099
179.900	0.033	0.099
180.000	11.274	0.099
180.100	19.678	0.099
180.200	11.764	0.099
180.300	10.310	0.099
180.400	16.613	0.099
180.500	0.695	0.099
180.600	9.962	0.099
180.700	28.619	0.099
180.800	36.577	0.099
180.900	21.509	0.099
181.000	26.974	0.099
181.100	22.351	0.099
181.200	19.158	0.099
181.300	29.187	0.099
181.400	18.371	0.099
181.500	23.509	0.099
181.600	17.520	0.099
181.700	12.599	0.099
181.800	22.944	0.099
181.900	25.096	0.099
182.000	31.472	0.099
182.100	25.891	0.099
182.200	27.190	0.099
182.300	15.592	0.099
182.400	30.420	0.099
182.500	23.485	0.099
182.600	29.049	0.099
182.700	31.590	0.099
182.800	23.360	0.099
182.900	20.085	0.099
183.000	26.170	0.099
183.100	13.017	0.099
183.200	18.509	0.099
183.300	36.956	0.099
183.400	12.651	0.099
183.500	26.534	0.099
183.600	16.082	0.099
183.700	31.817	0.099
183.800	7.385	0.099
183.900	36.523	0.099
184.000	34.172	0.099
184.100	22.362	0.099
184.200	18.718	0.099
184.300	22.921	0.099
184.400	13.016	0.099
184.500	23.627	0.099
184.600	20.820	0.099
184.700	12.064	0.099
184.800	21.240	0.099
184.900	20.870	0.099
185.000	25.670	0.099
185.100	27.921	0.099
185.200	16.699	0.099
185.300	8.563	0.099
185.400	16.233	0.099
185.500	14.983	0.099
185.600	16.395	0.099
185.700	9.043	0.099
185.800	19.437	0.099
185.900	14.743	0.099
186.000	18.318	0.099
186.100	19.504	0.099
186.200	10.155	0.099
186.300	16.159	0.099
186.400	4.585	0.099
186.500	26.326	0.099
186.600	15.174	0.099
186.700	10.249	0.099
186.800	9.938	0.099
186.900	10.467	0.099
187.000	31.998	0.099
187.100	21.940	0.099
187.200	17.803	0.099
187.300	12.330	0.099
187.400	19.366	0.099
187.500	14.775	0.099
187.600	21.438	0.099
187.700	23.962	0.099
187.800	22.563	0.099
187.900	7.184	0.099
188.000	16.404	0.099
188.100	19.045	0.099
188.200	23.610	0.099
188.300	11.433	0.099
188.400	17.676	0.099
188.500	17.821	0.099
188.600	20.179	0.099
188.700	6.492	0.099
188.800	26.156	0.099
188.900	22.140	0.099
189.000	9.182	0.099
189.100	10.350	0.099
189.200	16.653	0.099
189.300	2.690	0.099
189.400	11.669	0.099
189.500	28.552	0.099
189.600	32.450	0.099
189.700	24.647	0.099
189.800	15.407	0.099
189.900	12.463	0.099
190.000	17.262	0.099
190.100	18.378	0.099
190.200	15.760	0.099
190.300	21.304	0.099
190.400	17.738	0.099
190.500	23.400	0.099
190.600	9.441	0.099
190.700	16.880	0.099
190.800	17.216	0.099
190.900	24.229	0.099
191.000	21.959	0.099
191.100	18.441	0.099
191.200	19.415	0.099
191.300	11.977	0.099
191.400	12.617	0.099
191.500	17.409	0.099
191.600	15.033	0.099
191.700	12.398	0.099
191.800	14.194	0.099
191.900	19.565	0.099
192.000	23.305	0.099
192.100	6.029	0.099
192.200	21.503	0.099
192.300	21.927	0.099
192.400	22.424	0.099
192.500	26.611	0.099
192.600	10.616	0.099
192.700	15.606	0.099
192.800	15.151	0.099
192.900	27.107	0.099
193.000	25.056	0.099
193.100	16.568	0.099
193.200	17.537	0.099
193.300	25.706	0.099
193.400	24.124	0.099
193.500	24.974	0.099
193.600	15.294	0.099
193.700	20.991	0.099
193.800	36.638	0.099
193.900	28.682	0.099
194.000	20.041	0.099
194.100	18.003	0.099
194.200	23.983	0.099
194.300	18.668	0.099
194.400	23.437	0.099
194.500	16.931	0.099
194.600	26.929	0.099
194.700	15.129	0.099
194.800	23.833	0.099
194.900	17.606	0.099
195.000	27.012	0.099
195.100	18.456	0.099
195.200	27.973	0.099
195.300	25.862	0.099
195.400	12.281	0.099
195.500	21.941	0.099
195.600	25.836	0.099
195.700	8.643	0.099
195.800	35.643	0.099
195.900	27.657	0.099
196.000	18.331	0.099
196.100	23.181	0.099
196.200	17.420	0.099
196.300	16.860	0.099
196.400	19.404	0.099
196.500	27.114	0.099
196.600	19.781	0.099
196.700	13.358	0.099
196.800	27.844	0.099
196.900	18.441	0.099
197.000	22.493	0.099
197.100	2.290	0.099
197.200	24.540	0.099
197.300	37.736	0.099
197.400	23.306	0.099
197.500	18.637	0.099
197.600	19.559	0.099
197.700	18.917	0.099
197.800	13.149	0.099
197.900	42.505	0.099
198.000	20.714	0.099
198.100	32.975	0.099
198.200	25.432	0.099
198.300	7.354	0.099
198.400	16.671	0.099
198.500	11.302	0.099
198.600	19.797	0.099
198.700	27.241	0.099
198.800	28.708	0.099
198.900	30.601	0.099
199.000	19.184	0.099
199.100	9.334	0.099
199.200	19.716	0.099
199.300	28.230	0.099
199.400	27.640	0.099
199.500	27.327	0.099
199.600	25.535	0.099
199.700	10.748	0.099
199.800	18.731	0.099
199.900	22.974	0.099
200.000	31.862	0.099
200.100	18.350	0.099
200.200	8.869	0.099
200.300	33.313	0.099
200.400	40.327	0.099
200.500	30.252	0.099
200.600	14.963	0.099
200.700	27.205	0.099
200.800	25.177	0.099
200.900	26.301	0.099
201.000	24.494	0.099
201.100	23.885	0.099
201.200	12.902	0.099
201.300	28.586	0.099
201.400	22.020	0.099
201.500	25.651	0.099
201.600	16.085	0.099
201.700	12.359	0.099
201.800	25.948	0.099
201.900	23.772	0.099
202.000	30.851	0.099
202.100	20.058	0.099
202.200	22.474	0.099
202.300	25.424	0.099
202.400	30.426	0.099
202.500	12.817	0.099
202.600	21.417	0.099
202.700	17.086	0.099
202.800	27.274	0.099
202.900	26.244	0.099
203.000	24.667	0.099
203.100	27.433	0.099
203.200	20.071	0.099
203.300	3.291	0.099
203.400	14.786	0.099
203.500	21.547	0.099
203.600	25.497	0.099
203.700	5.898	0.099
203.800	21.667	0.099
203.900	26.155	0.099
204.000	21.323	0.099
204.100	34.329	0.099
204.200	25.184	0.099
204.300	22.683	0.099
204.400	15.927	0.099
204.500	10.408	0.099
204.600	28.060	0.099
204.700	-0.579	0.099
204.800	12.774	0.099
204.900	17.747	0.099
205.000	18.086	0.099
205.100	16.684	0.099
205.200	8.021	0.099
205.300	10.159	0.099
205.400	23.952	0.099
205.500	39.625	0.099
205.600	22.994	0.099
205.700	21.472	0.099
205.800	17.321	0.099
205.900	13.705	0.099
206.000	26.743	0.099
206.100	34.271	0.099
206.200	25.620	0.099
206.300	29.225	0.099
206.400	1.990	0.099
206.500	20.656	0.099
206.600	25.612	0.099
206.700	9.299	0.099
206.800	28.295	0.099
206.900	19.079	0.099
207.000	15.373	0.099
207.100	15.971	0.099
207.200	10.606	0.099
207.300	16.042	0.099
207.400	21.611	0.099
207.500	29.042	0.099
207.600	20.189	0.099
207.700	18.662	0.099
207.800	18.856	0.099
207.900	12.043	0.099
208.000	26.586	0.099
208.100	9.611	0.099
208.200	11.385	0.099
208.300	20.828	0.099
208.400	23.756	0.099
208.500	17.553	0.099
208.600	29.200	0.099
208.700	14.808	0.099
208.800	28.156	0.099
208.900	19.800	0.099
209.000	11.000	0.099
209.100	19.669	0.099
209.200	27.481	0.099
209.300	14.509	0.099
209.400	10.698	0.099
209.500	21.901	0.099
209.600	16.637	0.099
209.700	21.403	0.099
209.800	19.789	0.099
209.900	20.242	0.099
210.000	12.875	0.099
210.100	22.991	0.099
210.200	9.996	0.099
210.300	18.167	0.099
210.400	20.972	0.099
210.500	25.140	0.099
210.600	26.011	0.099
210.700	18.859	0.099
210.800	9.983	0.099
210.900	4.370	0.099
211.000	26.580	0.099
211.100	25.094	0.099
211.200	19.478	0.099
211.300	17.521	0.099
211.400	2.669	0.099
211.500	21.685	0.099
211.600	18.484	0.099
211.700	18.048	0.099
211.800	19.733	0.099
211.900	16.064	0.099
212.000	27.937	0.099
212.100	24.254	0.099
212.200	26.333	0.099
212.300	6.737	0.099
212.400	8.873	0.099
212.500	25.465	0.099
212.600	17.423	0.099
212.700	25.699	0.099
212.800	23.256	0.099
212.900	28.420	0.099
213.000	15.581	0.099
213.100	25.147	0.099
213.200	19.273	0.099
213.300	13.991	0.099
213.400	22.177	0.099
213.500	21.071	0.099
213.600	17.244	0.099
213.700	5.059	0.099
213.800	26.386	0.099
213.900	12.670	0.099
214.000	20.508	0.099
214.100	24.849	0.099
214.200	17.072	0.099
214.300	19.145	0.099
214.400	14.219	0.099
214.500	25.347	0.099
214.600	24.855	0.099
214.700	22.970	0.099
214.800	14.123	0.099
214.900	16.228	0.099
215.000	20.690	0.099
215.100	26.067	0.099
215.200	20.082	0.099
215.300	11.142	0.099
215.400	16.738	0.099
215.500	13.427	0.099
215.600	21.359	0.099
215.700	11.551	0.099
215.800	13.561	0.099
215.900	25.551	0.099
216.000	17.202	0.099
216.100	18.724	0.099
216.200	1.287	0.099
216.300	27.001	0.099
216.400	21.923	0.099
216.500	4.037	0.099
216.600	26.150	0.099
216.700	20.821	0.099
216.800	11.653	0.099
216.900	17.758	0.099
217.000	12.747	0.099
217.100	10.226	0.099
217.200	1.547	0.099
217.300	28.282	0.099
217.400	11.208	0.099
217.500	20.914	0.099
217.600	14.311	0.099
217.700	20.700	0.099
217.800	26.090	0.099
217.900	31.496	0.099
218.000	22.349	0.099
218.100	25.309	0.099
218.200	15.452	0.099
218.300	5.045	0.099
218.400	14.310	0.099
218.500	24.225	0.099
218.600	19.449	0.099
218.700	22.033	0.099
218.800	11.901	0.099
218.900	22.118	0.099
219.000	16.745	0.099
219.100	13.298	0.099
219.200	13.077	0.099
219.300	22.556	0.099
219.400	11.307	0.099
219.500	16.118	0.099
219.600	0.330	0.099
219.700	42.286	0.099
219.800	8.870	0.099
219.900	21.635	0.099
220.000	14.937	0.099
220.100	23.654	0.099
220.200	18.944	0.099
220.300	17.468	0.099
220.400	13.757	0.099
220.500	17.044	0.099
220.600	31.819	0.099
220.700	7.327	0.099
220.800	10.646	0.099
220.900	21.896	0.099
221.000	21.679	0.099
221.100	17.871	0.099
221.200	11.457	0.099
221.300	15.193	0.099
221.400	15.266	0.099
221.500	12.063	0.099
221.600	13.023	0.099
221.700	13.475	0.099
221.800	30.117	0.099
221.900	3.147	0.099
222.000	31.647	0.099
222.100	12.278	0.099
222.200	10.378	0.099
222.300	23.061	0.099
222.400	25.517	0.099
222.500	16.046	0.099
222.600	6.853	0.099
222.700	23.446	0.099
222.800	31.512	0.099
222.900	9.111	0.099
223.000	9.856	0.099
223.100	18.076	0.099
223.200	3.261	0.099
223.300	14.248	0.099
223.400	11.945	0.099
223.500	17.220	0.099
223.600	-4.190	0.099
223.700	22.343	0.099
223.800	24.720	0.099
223.900	12.252	0.099
224.000	7.990	0.099
224.100	29.409	0.099
224.200	9.696	0.099
224.300	8.458	0.099
224.400	15.051	0.099
224.500	22.677	0.099
224.600	10.115	0.099
224.700	23.452	0.099
224.800	24.314	0.099
224.900	15.436	0.099
225.000	18.845	0.099
225.100	9.340	0.099
225.200	10.128	0.099
225.300	17.378	0.099
225.400	20.596	0.099
225.500	5.088	0.099
225.600	21.320	0.099
225.700	11.555	0.099
225.800	3.710	0.099
225.900	8.784	0.099
226.000	23.567	0.099
226.100	13.516	0.099
226.200	10.279	0.099
226.300	24.589	0.099
226.400	11.721	0.099
226.500	6.543	0.099
226.600	13.417	0.099
226.700	15.137	0.099
226.800	9.949	0.099
226.900	20.935	0.099
227.000	19.792	0.099
227.100	18.566	0.099
227.200	16.709	0.099
227.300	9.410	0.099
227.400	25.479	0.099
227.500	8.976	0.099
227.600	13.212	0.099
227.700	14.747	0.099
227.800	19.340	0.099
227.900	22.719	0.099
228.000	31.547	0.099
228.100	23.004	0.099
228.200	25.234	0.099
228.300	15.674	0.099
228.400	13.224	0.099
228.500	21.275	0.099
228.600	17.310	0.099
228.700	23.224	0.099
228.800	17.790	0.099
228.900	13.355	0.099
229.000	18.773	0.099
229.100	5.106	0.099
229.200	0.399	0.099
229.300	15.534	0.099
229.400	8.853	0.099
229.500	11.161	0.099
229.600	13.977	0.099
229.700	2.285	0.099
229.800	9.506	0.099
229.900	9.022	0.099
230.000	28.978	0.099
230.100	25.825	0.099
230.200	13.732	0.099
230.300	19.516	0.099
230.400	26.801	0.099
230.500	23.037	0.099
230.600	16.287	0.099
230.700	-2.093	0.099
230.800	14.616	0.099
230.900	26.290	0.099
231.000	14.823	0.099
231.100	30.889	0.099
231.200	11.378	0.099
231.300	13.891	0.099
231.400	4.314	0.099
231.500	6.364	0.099
231.600	22.109	0.099
231.700	19.789	0.099
231.800	-2.079	0.099
231.900	10.229	0.099
232.000	17.078	0.099
232.100	12.101	0.099
232.200	9.726	0.099
232.300	15.091	0.099
232.400	10.681	0.099
232.500	18.165	0.099
232.600	17.299	0.099
232.700	17.518	0.099
232.800	18.276	0.099
232.900	-2.524	0.099
233.000	8.625	0.099
233.100	24.941	0.099
233.200	28.707	0.099
233.300	13.293	0.099
233.400	20.005	0.099
233.500	14.349	0.099
233.600	10.697	0.099
233.700	15.770	0.099
233.800	22.717	0.099
233.900	5.777	0.099
234.000	17.850	0.099
234.100	17.087	0.099
234.200	20.399	0.099
234.300	17.537	0.099
234.400	12.560	0.099
234.500	17.950	0.099
234.600	10.937	0.099
234.700	9.094	0.099
234.800	18.602	0.099
234.900	1.150	0.099
235.000	22.742	0.099
235.100	14.769	0.099
235.200	24.592	0.099
235.300	17.741	0.099
235.400	25.380	0.099
235.500	5.368	0.099
235.600	16.770	0.099
235.700	15.405	0.099
235.800	17.807	0.099
235.900	19.213	0.099
236.000	20.352	0.099
236.100	12.108	0.099
236.200	9.944	0.099
236.300	21.447	0.099
236.400	17.673	0.099
236.500	14.922	0.099
236.600	8.266	0.099
236.700	12.005	0.099
236.800	26.091	0.099
236.900	2.324	0.099
237.000	15.399	0.099
237.100	-2.523	0.099
237.200	27.217	0.099
237.300	8.194	0.099
237.400	1.141	0.099
237.500	8.176	0.099
237.600	16.608	0.099
237.700	24.847	0.099
237.800	11.481	0.099
237.900	11.465	0.099
238.000	27.938	0.099
238.100	20.213	0.099
238.200	22.471	0.099
238.300	21.691	0.099
238.400	6.010	0.099
238.500	16.340	0.099
238.600	16.401	0.099
238.700	21.102	0.099
238.800	9.472	0.099
238.900	32.240	0.099
239.000	7.236	0.099
239.100	18.596	0.099
239.200	13.353	0.099
239.300	22.024	0.099
239.400	14.541	0.099
239.500	12.380	0.099
239.600	28.523	0.099
239.700	6.485	0.099
239.800	10.127	0.099
239.900	12.307	0.099
240.000	9.213	0.099
240.100	-3.891	0.100
240.200	15.154	0.099
240.300	1.894	0.099
240.400	-8.165	0.100
240.500	-2.267	0.100
240.600	-13.079	0.099
240.700	1.010	0.100
240.800	-9.672	0.100
240.900	-6.734	0.100
241.000	-2.528	0.100
241.100	-22.809	0.100
241.200	-14.654	0.100
241.300	-6.222	0.100
241.400	-3.747	0.100
241.500	-9.301	0.100
241.600	-8.037	0.100
241.700	4.745	0.100
241.800	-16.140	0.100
241.900	-28.020	0.100
242.000	-3.968	0.100
242.100	-1.714	0.100
242.200	-11.230	0.100
242.300	-20.298	0.100
242.400	-14.776	0.100
242.500	-14.052	0.100
242.600	-19.040	0.100
242.700	-11.975	0.100
242.800	-18.698	0.100
242.900	-18.217	0.100
243.000	-5.466	0.100
243.100	-8.796	0.100
243.200	-17.106	0.100
243.300	-10.926	0.100
243.400	-5.010	0.100
243.500	-15.614	0.100
243.600	-19.002	0.100
243.700	-15.797	0.100
243.800	-24.854	0.100
243.900	-4.142	0.100
244.000	-13.413	0.100
244.100	-28.343	0.100
244.200	-14.794	0.100
244.300	-18.923	0.100
244.400	-18.957	0.100
244.500	-26.666	0.100
244.600	-5.734	0.100
244.700	-11.280	0.100
244.800	-12.689	0.100
244.900	-16.165	0.100
245.000	-7.221	0.100
245.100	-15.608	0.100
245.200	-27.896	0.100
245.300	-16.252	0.100
245.400	-14.007	0.100
245.500	-13.426	0.100
245.600	-30.453	0.100
245.700	-15.081	0.100
245.800	-12.466	0.100
245.900	-20.910	0.100
246.000	-12.865	0.100
246.100	3.375	0.100
246.200	-2.012	0.100
246.300	-18.802	0.100
246.400	-30.497	0.100
246.500	-12.539	0.100
246.600	-11.537	0.100
246.700	-17.384	0.100
246.800	-33.712	0.100
246.900	-8.445	0.100
247.000	-16.420	0.100
247.100	-9.706	0.100
247.200	-5.990	0.100
247.300	-10.234	0.100
247.400	-6.276	0.100
247.500	-25.249	0.100
247.600	-9.862	0.100
247.700	-10.490	0.100
247.800	5.286	0.100
247.900	-19.478	0.100
248.000	-6.397	0.100
248.100	-3.291	0.100
248.200	-10.794	0.100
248.300	-16.682	0.100
248.400	-5.667	0.100
248.500	-5.624	0.100
248.600	-1.730	0.100
248.700	-7.000	0.100
248.800	-9.778	0.100
248.900	-1.386	0.100
249.000	-8.567	0.100
249.100	-3.789	0.100
249.200	0.287	0.100
249.300	-8.384	0.100
249.400	-2.528	0.100
249.500	-5.161	0.100
249.600	-3.183	0.100
249.700	-11.284	0.100
249.800	-14.009	0.100
249.900	-11.725	0.100
250.000	-6.304	0.100
250.100	-4.417	0.100
250.200	-5.017	0.100
250.300	-17.008	0.100
250.400	-5.617	0.100
250.500	-8.311	0.100
250.600	-4.873	0.100
250.700	-8.455	0.100
250.800	-20.820	0.100
250.900	-4.680	0.100
251.000	-13.189	0.100
251.100	-5.073	0.100
251.200	-2.275	0.100
251.300	-10.167	0.100
251.400	-13.933	0.100
251.500	-9.166	0.100
251.600	-11.904	0.100
251.700	-4.961	0.100
251.800	1.041	0.100
251.900	-12.157	0.100
252.000	-10.075	0.100
252.100	-7.635	0.100
252.200	-11.775	0.100
252.300	-16.401	0.100
252.400	-3.400	0.100
252.500	-12.703	0.100
252.600	1.340	0.100
252.700	-6.169	0.100
252.800	-5.055	0.100
252.900	-9.204	0.100
253.000	-8.784	0.100
253.100	-4.715	0.100
253.200	-13.907	0.100
253.300	-3.033	0.100
253.400	-9.636	0.100
253.500	-8.549	0.100
253.600	0.064	0.100
253.700	-11.250	0.100
253.800	-9.061	0.100
253.900	-8.418	0.100
254.000	-0.735	0.100
254.100	-1.647	0.100
254.200	-4.741	0.100
254.300	-18.091	0.100
254.400	-8.935	0.100
254.500	-4.343	0.100
254.600	-17.928	0.100
254.700	0.650	0.100
254.800	-6.894	0.100
254.900	-9.579	0.100
255.000	-2.713	0.100
255.100	-11.755	0.100
255.200	0.562	0.100
255.300	-27.102	0.100
255.400	-1.456	0.100
255.500	4.319	0.100
255.600	2.894	0.100
255.700	-1.189	0.100
255.800	-21.425	0.100
255.900	-8.434	0.100
256.000	-17.107	0.100
256.100	-2.972	0.100
256.200	-1.287	0.100
256.300	-6.377	0.100
256.400	-6.403	0.100
256.500	-16.748	0.100
256.600	-5.182	0.100
256.700	-9.519	0.100
256.800	-10.647	0.100
256.900	-5.166	0.100
257.000	-19.932	0.100
257.100	-13.560	0.100
257.200	-13.893	0.100
257.300	-2.299	0.100
257.400	-0.705	0.100
257.500	-10.484	0.100
257.600	-9.954	0.100
257.700	-18.071	0.100
257.800	1.713	0.100
257.900	-7.378	0.100
258.000	-10.586	0.100
258.100	-5.297	0.100
258.200	-8.349	0.100
258.300	-20.120	0.100
258.400	1.990	0.100
258.500	-20.394	0.100
258.600	-13.944	0.100
258.700	-3.906	0.100
258.800	-5.492	0.100
258.900	-6.444	0.100
259.000	-7.261	0.100
259.100	-12.947	0.100
259.200	2.564	0.100
259.300	-14.820	0.100
259.400	-30.060	0.100
259.500	-6.149	0.100
259.600	3.640	0.100
259.700	-6.899	0.100
259.800	1.379	0.100
259.900	5.063	0.100
260.000	4.524	0.100
260.100	-13.642	0.100
260.200	-12.759	0.100
260.300	8.698	0.100
260.400	-8.129	0.100
260.500	-2.236	0.100
260.600	-9.669	0.100
260.700	-3.979	0.099
260.800	-14.306	0.099
260.900	6.498	0.099
261.000	-6.817	0.099
261.100	-3.983	0.099
261.200	-4.804	0.099
261.300	-13.160	0.099
261.400	-0.784	0.099
261.500	-9.616	0.099
261.600	-17.534	0.099
261.700	-15.326	0.099
261.800	-12.085	0.099
261.900	-5.140	0.099
262.000	-11.456	0.099
262.100	-19.817	0.099
262.200	-20.646	0.099
262.300	7.749	0.099
262.400	-10.481	0.099
262.500	-9.979	0.099
262.600	1.601	0.099
262.700	-10.423	0.099
262.800	-9.314	0.099
262.900	0.007	0.099
263.000	-8.826	0.099
263.100	-8.680	0.099
263.200	-3.806	0.099
263.300	-3.636	0.099
263.400	1.829	0.099
263.500	-21.746	0.099
263.600	-21.760	0.099
263.700	-8.167	0.099
263.800	3.391	0.099
263.900	5.848	0.099
264.000	0.503	0.099
264.100	-8.847	0.099
264.200	-13.682	0.099
264.300	-14.588	0.099
264.400	-15.504	0.099
264.500	-12.046	0.099
264.600	0.513	0.099
264.700	-1.245	0.099
264.800	-9.613	0.099
264.900	-19.330	0.099
265.000	-6.786	0.099
265.100	3.268	0.099
265.200	0.776	0.099
265.300	-4.669	0.099
265.400	-3.209	0.099
265.500	-13.313	0.099
265.600	-8.466	0.099
265.700	-10.120	0.099
265.800	-1.089	0.099
265.900	-7.846	0.099
266.000	-7.654	0.099
266.100	-7.682	0.099
266.200	-10.598	0.099
266.300	-15.346	0.099
266.400	-11.151	0.099
266.500	-10.144	0.099
266.600	-25.712	0.099
266.700	-11.208	0.099
266.800	-3.920	0.099
266.900	-13.397	0.099
267.000	-11.282	0.099
267.100	-26.817	0.099
267.200	-14.585	0.099
267.300	-1.951	0.099
267.400	-13.924	0.099
267.500	-12.806	0.099
267.600	-24.726	0.099
267.700	-14.675	0.099
267.800	-17.096	0.099
267.900	-2.004	0.099
268.000	-18.963	0.099
268.100	-10.813	0.099
268.200	3.409	0.099
268.300	-8.857	0.099
268.400	-2.297	0.099
268.500	-0.765	0.099
268.600	-12.688	0.099
268.700	-5.766	0.099
268.800	-1.150	0.099
268.900	-3.465	0.099
269.000	-16.907	0.099
269.100	-5.671	0.099
269.200	-16.139	0.099
269.300	-7.477	0.099
269.400	-14.755	0.099
269.500	-23.563	0.099
269.600	-11.160	0.099
269.700	-11.398	0.099
269.800	-11.009	0.099
269.900	-18.851	0.099
270.000	-8.941	0.099
270.100	-4.245	0.099
270.200	-14.891	0.099
270.300	-16.787	0.099
270.400	-8.316	0.099
270.500	-6.399	0.099
270.600	-16.192	0.099
270.700	-2.476	0.099
270.800	-17.725	0.099
270.900	-12.543	0.099
271.000	-10.101	0.099
271.100	-0.019	0.099
271.200	-15.248	0.099
271.300	-10.274	0.099
271.400	-13.848	0.099
271.500	-5.626	0.099
271.600	-17.500	0.099
271.700	-3.406	0.099
271.800	-7.458	0.099
271.900	-8.599	0.099
272.000	-9.023	0.099
272.100	-8.948	0.099
272.200	-11.488	0.099
272.300	-6.661	0.099
272.400	-9.456	0.099
272.500	-15.573	0.099
272.600	-4.239	0.099
272.700	-8.878	0.099
272.800	-9.927	0.099
272.900	-16.325	0.099
273.000	-13.214	0.099
273.100	-3.940	0.099
273.200	-14.447	0.099
273.300	-12.430	0.099
273.400	-19.053	0.099
273.500	2.251	0.099
273.600	-0.078	0.099
273.700	-20.747	0.099
273.800	-10.349	0.099
273.900	-8.455	0.099
274.000	-20.188	0.099
274.100	3.153	0.099
274.200	-9.706	0.099
274.300	-12.556	0.099
274.400	-10.987	0.099
274.500	-9.417	0.099
274.600	-6.255	0.099
274.700	-2.947	0.099
274.800	-3.855	0.099
274.900	-5.295	0.099
275.000	-32.893	0.099
275.100	-19.912	0.099
275.200	-17.308	0.099
275.300	2.182	0.099
275.400	-13.810	0.099
275.500	-7.096	0.099
275.600	-1.821	0.099
275.700	-22.540	0.099
275.800	8.282	0.099
275.900	-16.222	0.099
276.000	-7.288	0.099
276.100	-15.750	0.099
276.200	-5.713	0.099
276.300	-8.121	0.099
276.400	-6.994	0.099
276.500	-9.015	0.099
276.600	-8.989	0.099
276.700	-11.518	0.099
276.800	5.269	0.099
276.900	-11.754	0.099
277.000	-3.144	0.099
277.100	-13.990	0.099
277.200	-5.773	0.099
277.300	-24.913	0.099
277.400	-21.789	0.099
277.500	-5.094	0.099
277.600	-6.312	0.099
277.700	-16.039	0.099
277.800	-1.593	0.099
277.900	-8.773	0.099
278.000	-6.671	0.099
278.100	-11.088	0.099
278.200	-17.064	0.099
278.300	-9.439	0.099
278.400	-12.489	0.099
278.500	-6.332	0.099
278.600	-2.805	0.099
278.700	3.130	0.099
278.800	-20.544	0.099
278.900	-13.381	0.099
279.000	-6.007	0.099
279.100	-3.848	0.099
279.200	-4.972	0.099
279.300	-12.143	0.099
279.400	0.578	0.099
279.500	-17.528	0.099
279.600	-20.207	0.099
279.700	-16.456	0.099
279.800	0.855	0.099
279.900	-6.609	0.099
280.000	-11.137	0.099
280.100	0.603	0.099
280.200	-11.177	0.099
280.300	-12.171	0.099
280.400	-9.242	0.099
280.500	-3.900	0.099
280.600	-12.482	0.099
280.700	-20.574	0.099
280.800	-16.333	0.099
280.900	-7.765	0.099
281.000	-7.074	0.099
281.100	-13.076	0.099
281.200	-2.053	0.099
281.300	-11.767	0.099
281.400	5.489	0.099
281.500	-5.917	0.099
281.600	-26.596	0.099
281.700	-5.158	0.099
281.800	-11.965	0.099
281.900	-16.867	0.099
282.000	-7.844	0.099
282.100	-21.169	0.099
282.200	-13.249	0.099
282.300	-6.511	0.099
282.400	-4.151	0.099
282.500	0.744	0.099
282.600	-16.568	0.099
282.700	-7.543	0.099
282.800	-12.519	0.099
282.900	-6.083	0.099
283.000	-11.089	0.099
283.100	-13.612	0.099
283.200	-8.163	0.099
283.300	-8.975	0.099
283.400	-17.048	0.099
283.500	-2.561	0.099
283.600	-13.736	0.099
283.700	-16.210	0.099
283.800	1.573	0.099
283.900	-6.653	0.099
284.000	-7.926	0.099
284.100	-7.281	0.099
284.200	-6.511	0.099
284.300	-16.233	0.099
284.400	-7.796	0.099
284.500	-0.636	0.099
284.600	-2.924	0.099
284.700	-14.576	0.099
284.800	-17.412	0.099
284.900	-22.667	0.099
285.000	-7.284	0.099
285.100	-13.693	0.099
285.200	0.078	0.099
285.300	-11.042	0.099
285.400	-14.671	0.099
285.500	-4.366	0.099
285.600	-7.958	0.099
285.700	-11.193	0.099
285.800	-16.313	0.099
285.900	-5.017	0.099
286.000	-9.545	0.099
286.100	-10.905	0.099
286.200	-6.450	0.099
286.300	-20.769	0.099
286.400	-9.398	0.099
286.500	-9.266	0.099
286.600	-12.709	0.099
286.700	-7.055	0.099
286.800	-13.710	0.099
286.900	-9.232	0.099
287.000	-12.443	0.099
287.100	-24.739	0.099
287.200	0.093	0.099
287.300	-4.976	0.099
287.400	-8.894	0.099
287.500	2.851	0.099
287.600	-7.947	0.099
287.700	-13.346	0.099
287.800	-1.740	0.099
287.900	-2.161	0.099
288.000	-5.764	0.099
288.100	-0.138	0.099
288.200	-6.511	0.099
288.300	-7.081	0.099
288.400	-20.685	0.099
288.500	-5.326	0.099
288.600	-0.558	0.099
288.700	-10.797	0.099
288.800	0.695	0.099
288.900	-24.079	0.099
289.000	6.572	0.099
289.100	-8.718	0.099
289.200	-11.493	0.099
289.300	-12.969	0.099
289.400	-15.422	0.099
289.500	-8.011	0.099
289.600	-5.297	0.099
289.700	-3.301	0.099
289.800	-8.699	0.099
289.900	-4.032	0.099
290.000	-6.797	0.099
290.100	-5.551	0.099
290.200	5.095	0.099
290.300	-1.522	0.099
290.400	-9.403	0.099
290.500	5.710	0.099
290.600	-6.215	0.099
290.700	1.923	0.099
290.800	-5.607	0.099
290.900	1.187	0.099
291.000	-15.681	0.099
291.100	-3.824	0.099
291.200	-8.511	0.099
291.300	-22.625	0.099
291.400	2.361	0.099
291.500	-13.556	0.099
291.600	0.695	0.099
291.700	-4.596	0.099
291.800	0.906	0.099
291.900	-20.636	0.099
292.000	-1.627	0.099
292.100	-12.266	0.099
292.200	-7.834	0.099
292.300	-0.393	0.099
292.400	-18.106	0.099
292.500	13.578	0.099
292.600	-4.157	0.099
292.700	-5.701	0.099
292.800	-6.308	0.099
292.900	-7.146	0.099
293.000	-6.882	0.099
293.100	-11.694	0.099
293.200	-8.607	0.099
293.300	-11.464	0.099
293.400	-3.804	0.099
293.500	-9.131	0.099
293.600	-8.084	0.099
293.700	-5.229	0.099
293.800	-17.012	0.099
293.900	0.365	0.099
294.000	-18.500	0.099
294.100	2.974	0.099
294.200	-14.853	0.099
294.300	-6.127	0.099
294.400	0.624	0.099
294.500	4.722	0.099
294.600	-5.214	0.099
294.700	-1.415	0.099
294.800	-8.228	0.099
294.900	-34.172	0.099
295.000	-2.398	0.099
295.100	-27.580	0.099
295.200	-10.652	0.099
295.300	-0.018	0.099
295.400	-0.548	0.099
295.500	12.395	0.099
295.600	-6.922	0.099
295.700	6.652	0.099
295.800	1.867	0.099
295.900	-11.007	0.099
296.000	4.789	0.099
296.100	-5.096	0.099
296.200	-0.466	0.099
296.300	-9.869	0.099
296.400	-8.587	0.099
296.500	2.748	0.099
296.600	-1.120	0.099
296.700	0.190	0.099
296.800	0.166	0.099
296.900	-17.519	0.099
297.000	2.832	0.099
297.100	-12.377	0.099
297.200	23.650	0.099
297.300	-14.881	0.099
297.400	0.418	0.099
297.500	0.398	0.099
297.600	-6.973	0.099
297.700	-14.402	0.099
297.800	-1.734	0.099
297.900	-5.519	0.099
298.000	-14.104	0.099
298.100	-4.375	0.099
298.200	4.878	0.099
298.300	4.244	0.099
298.400	0.509	0.099
298.500	-10.568	0.099
298.600	-2.066	0.099
298.700	-3.273	0.099
298.800	-3.011	0.099
298.900	-25.532	0.099
299.000	-6.026	0.099
299.100	-14.503	0.099
299.200	-10.795	0.099
299.300	-13.484	0.099
299.400	-3.756	0.099
299.500	-10.275	0.099
299.600	-0.576	0.099
299.700	-10.312	0.099
299.800	-3.560	0.099
299.900	-7.685	0.099
300.000	4.256	0.099
300.100	-13.061	0.099
300.200	-5.400	0.099
300.300	-2.961	0.099
300.400	-6.758	0.099
300.500	-3.723	0.099
300.600	3.814	0.099
300.700	-10.349	0.099
300.800	-19.048	0.099
300.900	-3.102	0.099
301.000	-6.403	0.099
301.100	-4.308	0.099
301.200	3.965	0.099
301.300	-13.535	0.099
301.400	-1.503	0.099
301.500	-2.384	0.099
301.600	-10.076	0.099
301.700	8.708	0.099
301.800	-4.504	0.099
301.900	-8.888	0.099
302.000	0.602	0.099
302.100	-18.453	0.099
302.200	4.387	0.099
302.300	-13.288	0.099
302.400	-5.214	0.099
302.500	-3.678	0.099
302.600	-4.525	0.099
302.700	-5.433	0.099
302.800	-1.037	0.099
302.900	-3.203	0.099
303.000	-2.585	0.099
303.100	-5.174	0.099
303.200	-5.637	0.099
303.300	-9.412	0.099
303.400	4.258	0.099
303.500	7.858	0.099
303.600	-14.595	0.099
303.700	-9.415	0.099
303.800	-0.509	0.099
303.900	-7.132	0.099
304.000	3.052	0.099
304.100	-27.804	0.099
304.200	-6.474	0.099
304.300	10.951	0.099
304.400	-9.590	0.099
304.500	-6.668	0.099
304.600	-9.957	0.099
304.700	-3.945	0.099
304.800	-12.163	0.099
304.900	-1.740	0.099
305.000	-7.588	0.099
305.100	-14.204	0.099
305.200	-1.977	0.099
305.300	3.564	0.099
305.400	-0.053	0.099
305.500	-8.212	0.099
305.600	-2.675	0.099
305.700	2.362	0.099
305.800	-1.071	0.099
305.900	-0.850	0.099
306.000	19.520	0.099
306.100	-17.150	0.099
306.200	-2.732	0.099
306.300	4.371	0.099
306.400	-6.014	0.099
306.500	3.006	0.099
306.600	-11.296	0.099
306.700	-6.732	0.099
306.800	1.472	0.099
306.900	-10.788	0.099
307.000	-14.092	0.099
307.100	-14.194	0.099
307.200	-14.219	0.099
307.300	-20.891	0.099
307.400	-5.353	0.099
307.500	2.899	0.099
307.600	-2.767	0.099
307.700	-3.291	0.099
307.800	4.805	0.099
307.900	0.210	0.099
308.000	-17.416	0.099
308.100	-9.733	0.099
308.200	-2.852	0.099
308.300	-5.813	0.099
308.400	-4.865	0.099
308.500	-13.831	0.099
308.600	-2.577	0.099
308.700	11.635	0.099
308.800	2.400	0.099
308.900	-14.105	0.099
309.000	13.775	0.099
309.100	-0.321	0.099
309.200	-6.411	0.099
309.300	-14.732	0.099
309.400	-6.163	0.099
309.500	-5.679	0.099
309.600	-1.101	0.099
309.700	0.698	0.099
309.800	-2.528	0.099
309.900	-23.014	0.099
310.000	-11.064	0.099
310.100	-16.008	0.099
310.200	-10.073	0.099
310.300	4.449	0.099
310.400	-4.462	0.099
310.500	-14.364	0.099
310.600	-7.998	0.099
310.700	4.526	0.099
310.800	-1.510	0.099
310.900	-12.328	0.099
311.000	-11.158	0.099
311.100	-7.401	0.099
311.200	-0.326	0.099
311.300	-4.832	0.099
311.400	5.046	0.099
311.500	1.071	0.099
311.600	-5.980	0.099
311.700	0.218	0.099
311.800	9.814	0.099
311.900	-8.677	0.099
312.000	7.062	0.099
312.100	-8.822	0.099
312.200	-8.067	0.099
312.300	-8.165	0.099
312.400	-0.775	0.099
312.500	-15.032	0.099
312.600	-5.192	0.099
312.700	-1.168	0.099
312.800	1.139	0.099
312.900	2.975	0.099
313.000	-4.818	0.099
313.100	-11.466	0.099
313.200	-4.741	0.099
313.300	15.013	0.099
313.400	-10.692	0.099
313.500	-5.651	0.099
313.600	-4.504	0.099
313.700	-22.833	0.099
313.800	6.103	0.099
313.900	-8.724	0.099
314.000	-1.300	0.099
314.100	5.323	0.099
314.200	2.836	0.099
314.300	-7.846	0.099
314.400	-7.602	0.099
314.500	-4.668	0.099
314.600	6.937	0.099
314.700	4.921	0.099
314.800	-4.172	0.099
314.900	5.553	0.099
315.000	-7.703	0.099
315.100	-5.573	0.099
315.200	-5.290	0.099
315.300	-11.488	0.099
315.400	-3.611	0.099
315.500	-4.646	0.099
315.600	-2.487	0.099
315.700	-16.575	0.099
315.800	-15.067	0.099
315.900	-11.470	0.099
316.000	0.187	0.099
316.100	-4.015	0.099
316.200	3.153	0.099
316.300	-9.210	0.099
316.400	-13.391	0.099
316.500	7.456	0.099
316.600	7.235	0.099
316.700	-16.401	0.099
316.800	-4.819	0.099
316.900	-2.693	0.099
317.000	-1.492	0.099
317.100	-3.388	0.099
317.200	-1.409	0.099
317.300	22.145	0.099
317.400	-5.517	0.099
317.500	-11.806	0.099
317.600	-6.381	0.099
317.700	6.228	0.099
317.800	-7.842	0.099
317.900	-11.239	0.099
318.000	2.416	0.099
318.100	-6.073	0.099
318.200	-6.510	0.099
318.300	13.220	0.099
318.400	-7.922	0.099
318.500	-11.255	0.099
318.600	1.849	0.099
318.700	-8.244	0.099
318.800	-0.065	0.099
318.900	-9.839	0.099
319.000	1.014	0.099
319.100	-21.706	0.099
319.200	-15.681	0.099
319.300	-9.959	0.099
319.400	-6.342	0.099
319.500	-14.225	0.099
319.600	-12.936	0.099
319.700	0.447	0.099
319.800	-7.057	0.099
319.900	-8.003	0.099
320.000	-2.117	0.099
320.100	-13.961	0.099
320.200	-8.844	0.099
320.300	1.318	0.099
320.400	-6.796	0.099
320.500	-3.202	0.099
320.600	-3.843	0.099
320.700	-13.120	0.099
320.800	-4.861	0.099
320.900	0.296	0.099
321.000	4.677	0.099
321.100	-3.296	0.099
321.200	8.008	0.099
321.300	1.644	0.099
321.400	-2.676	0.099
321.500	-12.315	0.099
321.600	-11.495	0.099
321.700	-1.024	0.099
321.800	-16.310	0.099
321.900	-1.754	0.099
322.000	0.870	0.099
322.100	-7.054	0.099
322.200	3.297	0.099
322.300	4.639	0.099
322.400	-8.592	0.099
322.500	-16.902	0.099
322.600	-2.515	0.099
322.700	-7.015	0.099
322.800	4.341	0.099
322.900	-12.230	0.099
323.000	-4.976	0.099
323.100	1.856	0.099
323.200	-9.535	0.099
323.300	-4.682	0.099
323.400	-0.440	0.099
323.500	-0.201	0.099
323.600	1.123	0.099
323.700	7.063	0.099
323.800	-18.974	0.099
323.900	-9.838	0.099
324.000	9.287	0.099
324.100	9.652	0.099
324.200	1.174	0.099
324.300	-11.660	0.099
324.400	-2.730	0.099
324.500	-10.494	0.099
324.600	13.574	0.099
324.700	-11.403	0.099
324.800	-9.434	0.099
324.900	-6.857	0.099
325.000	6.251	0.099
325.100	-0.170	0.099
325.200	-12.775	0.099
325.300	5.516	0.099
325.400	-11.769	0.099
325.500	-2.609	0.099
325.600	-9.587	0.099
325.700	-2.731	0.099
325.800	-17.842	0.099
325.900	2.814	0.099
326.000	3.398	0.099
326.100	-8.053	0.099
326.200	15.575	0.099
326.300	1.466	0.099
326.400	-3.072	0.099
326.500	-8.537	0.099
326.600	-0.233	0.099
326.700	0.272	0.099
326.800	4.604	0.099
326.900	4.987	0.099
327.000	-17.733	0.099
327.100	-9.317	0.099
327.200	-0.926	0.099
327.300	-14.315	0.099
327.400	1.964	0.099
327.500	-7.549	0.099
327.600	-5.970	0.099
327.700	-11.159	0.099
327.800	1.877	0.099
327.900	5.340	0.099
328.000	-11.435	0.099
328.100	-1.573	0.099
328.200	-5.220	0.099
328.300	-6.264	0.099
328.400	-7.541	0.099
328.500	0.472	0.099
328.600	-10.295	0.099
328.700	2.508	0.099
328.800	-6.315	0.099
328.900	-14.984	0.099
329.000	-2.537	0.099
329.100	-12.256	0.099
329.200	-7.201	0.099
329.300	9.031	0.099
329.400	-1.537	0.099
329.500	-8.604	0.099
329.600	-12.478	0.099
329.700	3.036	0.099
329.800	-1.103	0.099
329.900	2.500	0.099
330.000	16.902	0.099
330.100	11.032	0.099
330.200	-7.421	0.099
330.300	23.113	0.099
330.400	22.620	0.099
330.500	26.034	0.099
330.600	11.505	0.099
330.700	23.696	0.099
330.800	36.302	0.099
330.900	43.150	0.099
331.000	12.828	0.099
331.100	26.049	0.099
331.200	25.454	0.099
331.300	29.065	0.099
331.400	11.928	0.099
331.500	21.247	0.099
331.600	12.702	0.099
331.700	39.592	0.099
331.800	20.067	0.099
331.900	21.826	0.099
332.000	34.243	0.099
332.100	40.355	0.099
332.200	19.742	0.099
332.300	40.216	0.099
332.400	33.393	0.099
332.500	19.224	0.099
332.600	15.675	0.099
332.700	29.188	0.099
332.800	35.846	0.099
332.900	20.836	0.099
333.000	27.325	0.099
333.100	20.286	0.099
333.200	11.533	0.099
333.300	24.002	0.099
333.400	24.277	0.099
333.500	9.931	0.099
333.600	25.981	0.099
333.700	13.217	0.099
333.800	26.802	0.099
333.900	3.690	0.099
334.000	31.194	0.099
334.100	27.037	0.099
334.200	10.086	0.099
334.300	20.003	0.099
334.400	12.906	0.099
334.500	29.305	0.099
334.600	0.011	0.099
334.700	14.243	0.099
334.800	22.822	0.099
334.900	4.701	0.099
335.000	23.989	0.099
335.100	4.562	0.099
335.200	6.760	0.099
335.300	11.143	0.099
335.400	32.575	0.099
335.500	11.960	0.099
335.600	27.668	0.099
335.700	21.610	0.099
335.800	12.365	0.099
335.900	16.421	0.099
336.000	5.562	0.099
336.100	15.850	0.099
336.200	5.971	0.099
336.300	20.733	0.099
336.400	6.470	0.099
336.500	32.850	0.099
336.600	12.305	0.099
336.700	14.156	0.099
336.800	18.427	0.099
336.900	25.007	0.099
337.000	21.838	0.099
337.100	20.839	0.099
337.200	3.240	0.099
337.300	13.484	0.099
337.400	21.833	0.099
337.500	13.639	0.099
337.600	20.295	0.099
337.700	22.705	0.099
337.800	17.197	0.099
337.900	20.144	0.099
338.000	23.876	0.099
338.100	4.797	0.099
338.200	10.710	0.099
338.300	16.320	0.099
338.400	26.086	0.099
338.500	23.304	0.099
338.600	14.448	0.099
338.700	22.231	0.099
338.800	34.117	0.099
338.900	19.428	0.099
339.000	26.539	0.099
339.100	38.254	0.099
339.200	23.503	0.099
339.300	29.387	0.099
339.400	17.664	0.099
339.500	10.690	0.099
339.600	27.145	0.099
339.700	22.273	0.099
339.800	26.123	0.099
339.900	30.563	0.099
340.000	20.980	0.099
340.100	23.967	0.099
340.200	18.950	0.099
340.300	14.272	0.099
340.400	14.568	0.099
340.500	24.909	0.099
340.600	27.496	0.099
340.700	28.080	0.099
340.800	25.230	0.099
340.900	27.303	0.099
341.000	21.679	0.099
341.100	17.128	0.099
341.200	18.072	0.099
341.300	19.896	0.099
341.400	30.811	0.099
341.500	31.999	0.099
341.600	25.506	0.099
341.700	24.018	0.099
341.800	24.862	0.099
341.900	29.940	0.099
342.000	23.676	0.099
342.100	25.514	0.099
342.200	19.180	0.099
342.300	23.980	0.099
342.400	12.633	0.099
342.500	18.488	0.099
342.600	30.964	0.099
342.700	35.834	0.099
342.800	24.702	0.099
342.900	24.923	0.099
343.000	30.270	0.099
343.100	3.937	0.099
343.200	26.530	0.099
343.300	23.071	0.099
343.400	39.962	0.099
343.500	23.563	0.099
343.600	21.511	0.099
343.700	27.919	0.099
343.800	14.336	0.099
343.900	19.230	0.099
344.000	46.469	0.099
344.100	26.349	0.099
344.200	26.781	0.099
344.300	31.866	0.099
344.400	22.550	0.099
344.500	27.306	0.099
344.600	16.423	0.099
344.700	28.100	0.099
344.800	33.291	0.099
344.900	34.273	0.099
345.000	34.260	0.099
345.100	21.940	0.099
345.200	20.261	0.099
345.300	26.417	0.099
345.400	39.572	0.099
345.500	28.235	0.099
345.600	27.123	0.099
345.700	31.927	0.099
345.800	25.459	0.099
345.900	14.561	0.099
346.000	25.747	0.099
346.100	24.238	0.099
346.200	27.078	0.099
346.300	28.794	0.099
346.400	16.243	0.099
346.500	30.451	0.099
346.600	33.498	0.099
346.700	22.447	0.099
346.800	20.530	0.099
346.900	21.328	0.099
347.000	32.010	0.099
347.100	23.215	0.099
347.200	25.255	0.099
347.300	15.723	0.099
347.400	36.379	0.099
347.500	21.645	0.099
347.600	30.229	0.099
347.700	13.558	0.099
347.800	15.144	0.099
347.900	33.537	0.099
348.000	16.847	0.099
348.100	25.283	0.099
348.200	32.756	0.099
348.300	26.098	0.099
348.400	25.374	0.099
348.500	18.580	0.099
348.600	31.757	0.099
348.700	10.262	0.099
348.800	21.533	0.099
348.900	37.385	0.099
349.000	25.343	0.099
349.100	32.552	0.099
349.200	26.830	0.099
349.300	24.808	0.099
349.400	19.099	0.099
349.500	27.910	0.099
349.600	41.141	0.099
349.700	18.892	0.099
349.800	23.252	0.099
349.900	18.258	0.099
350.000	25.349	0.099
350.100	27.078	0.099
350.200	31.659	0.099
350.300	21.286	0.099
350.400	12.592	0.099
350.500	31.668	0.099
350.600	26.502	0.099
350.700	8.890	0.099
350.800	15.541	0.099
350.900	23.987	0.099
351.000	16.096	0.099
351.100	24.914	0.099
351.200	23.152	0.099
351.300	26.668	0.099
351.400	23.764	0.099
351.500	16.189	0.099
351.600	15.040	0.099
351.700	27.478	0.099
351.800	23.491	0.099
351.900	29.847	0.099
352.000	31.662	0.099
352.100	27.111	0.099
352.200	23.326	0.099
352.300	33.982	0.099
352.400	15.268	0.099
352.500	22.984	0.099
352.600	24.348	0.099
352.700	10.913	0.099
352.800	5.588	0.099
352.900	21.733	0.099
353.000	52.899	0.099
353.100	27.910	0.099
353.200	20.181	0.099
353.300	8.946	0.099
353.400	24.000	0.099
353.500	40.629	0.099
353.600	15.525	0.099
353.700	29.241	0.099
353.800	34.180	0.099
353.900	15.588	0.099
354.000	16.319	0.099
354.100	25.484	0.099
354.200	24.799	0.099
354.300	13.918	0.099
354.400	10.421	0.099
354.500	22.631	0.099
354.600	24.621	0.099
354.700	29.955	0.099
354.800	10.486	0.099
354.900	33.191	0.099
355.000	18.666	0.099
355.100	23.763	0.099
355.200	26.739	0.099
355.300	35.012	0.099
355.400	26.387	0.099
355.500	31.491	0.099
355.600	23.285	0.099
355.700	15.335	0.099
355.800	20.739	0.099
355.900	3.419	0.099
356.000	26.087	0.099
356.100	22.704	0.099
356.200	22.322	0.099
356.300	29.189	0.099
356.400	15.312	0.099
356.500	28.032	0.099
356.600	17.212	0.099
356.700	20.175	0.099
356.800	13.054	0.099
356.900	30.382	0.099
357.000	16.902	0.099
357.100	21.231	0.099
357.200	27.442	0.099
357.300	17.509	0.099
357.400	29.625	0.099
357.500	14.195	0.099
357.600	17.462	0.099
357.700	22.417	0.099
357.800	16.463	0.099
357.900	16.324	0.099
358.000	11.262	0.099
358.100	24.807	0.099
358.200	23.073	0.099
358.300	37.967	0.099
358.400	27.359	0.099
358.500	15.617	0.099
358.600	12.779	0.099
358.700	24.642	0.099
358.800	20.993	0.099
358.900	22.314	0.099
359.000	22.743	0.099
359.100	16.460	0.099
359.200	27.095	0.099
359.300	28.005	0.099
359.400	29.379	0.099
359.500	10.410	0.099
359.600	21.639	0.099
359.700	24.907	0.099
359.800	25.813	0.099
359.900	21.011	0.099
360.000	29.562	0.099
360.100	28.857	0.099
360.200	25.822	0.099
360.300	10.756	0.099
360.400	13.347	0.099
360.500	8.261	0.099
360.600	26.478	0.099
360.700	22.173	0.099
360.800	13.202	0.099
360.900	35.507	0.099
361.000	25.079	0.099
361.100	30.042	0.099
361.200	7.796	0.099
361.300	23.890	0.099
361.400	14.268	0.099
361.500	16.806	0.099
361.600	28.882	0.099
361.700	15.092	0.099
361.800	13.765	0.099
361.900	20.402	0.099
362.000	25.411	0.099
362.100	16.471	0.099
362.200	21.111	0.099
362.300	19.793	0.099
362.400	27.273	0.099
362.500	18.736	0.099
362.600	14.865	0.099
362.700	9.859	0.099
362.800	31.593	0.099
362.900	21.881	0.099
363.000	19.207	0.099
363.100	19.133	0.099
363.200	20.643	0.099
363.300	8.765	0.099
363.400	16.797	0.099
363.500	20.091	0.099
363.600	4.415	0.099
363.700	12.873	0.099
363.800	17.276	0.099
363.900	3.921	0.099
364.000	35.234	0.099
364.100	25.903	0.099
364.200	10.847	0.099
364.300	18.184	0.099
364.400	15.802	0.099
364.500	27.259	0.099
364.600	28.007	0.099
364.700	16.799	0.099
364.800	18.148	0.099
364.900	7.527	0.099
365.000	37.280	0.099
365.100	24.972	0.099
365.200	13.720	0.099
365.300	26.846	0.099
365.400	14.361	0.099
365.500	12.926	0.099
365.600	7.742	0.099
365.700	25.280	0.099
365.800	12.935	0.099
365.900	11.806	0.099
366.000	32.703	0.099
366.100	13.039	0.099
366.200	9.812	0.099
366.300	22.954	0.099
366.400	3.625	0.099
366.500	23.299	0.099
366.600	16.104	0.099
366.700	7.530	0.099
366.800	16.615	0.099
366.900	25.827	0.099
367.000	12.213	0.099
367.100	9.027	0.099
367.200	29.195	0.099
367.300	18.764	0.099
367.400	20.157	0.099
367.500	15.851	0.099
367.600	24.967	0.099
367.700	22.450	0.099
367.800	12.886	0.099
367.900	30.190	0.099
368.000	10.873	0.099
368.100	15.272	0.099
368.200	28.323	0.099
368.300	25.005	0.099
368.400	32.983	0.099
368.500	21.007	0.099
368.600	14.493	0.099
368.700	12.548	0.099
368.800	25.959	0.099
368.900	18.385	0.099
369.000	14.253	0.099
369.100	18.812	0.099
369.200	10.404	0.099
369.300	15.287	0.099
369.400	21.387	0.099
369.500	10.257	0.099
369.600	-0.180	0.099
369.700	21.446	0.099
369.800	22.143	0.099
369.900	8.829	0.099
370.000	31.761	0.099
370.100	23.966	0.099
370.200	18.769	0.099
370.300	25.839	0.099
370.400	14.499	0.099
370.500	14.791	0.099
370.600	14.965	0.099
370.700	10.373	0.099
370.800	14.586	0.099
370.900	24.502	0.099
371.000	17.307	0.099
371.100	15.170	0.099
371.200	11.061	0.099
371.300	23.405	0.099
371.400	13.674	0.099
371.500	22.184	0.099
371.600	18.132	0.099
371.700	11.913	0.099
371.800	12.953	0.099
371.900	28.104	0.099
372.000	24.671	0.099
372.100	16.093	0.099
372.200	11.914	0.099
372.300	27.403	0.099
372.400	34.782	0.099
372.500	25.423	0.099
372.600	5.718	0.099
372.700	16.853	0.099
372.800	27.726	0.099
372.900	14.927	0.099
373.000	15.020	0.099
373.100	21.177	0.099
373.200	19.330	0.099
373.300	17.766	0.099
373.400	17.814	0.099
373.500	6.470	0.099
373.600	22.634	0.099
373.700	44.764	0.099
373.800	21.301	0.099
373.900	10.663	0.099
374.000	17.673	0.099
374.100	36.289	0.099
374.200	28.378	0.099
374.300	13.037	0.099
374.400	19.914	0.099
374.500	18.602	0.099
374.600	23.834	0.099
374.700	7.053	0.099
374.800	27.823	0.099
374.900	20.194	0.099
375.000	20.994	0.099
375.100	14.644	0.099
375.200	2.299	0.099
375.300	15.031	0.099
375.400	10.137	0.099
375.500	19.914	0.099
375.600	15.298	0.099
375.700	19.036	0.099
375.800	17.071	0.099
375.900	7.483	0.099
376.000	21.754	0.099
376.100	13.466	0.099
376.200	24.333	0.099
376.300	-0.181	0.099
376.400	26.797	0.099
376.500	12.886	0.099
376.600	-1.520	0.099
376.700	21.010	0.099
376.800	13.278	0.099
376.900	9.572	0.099
377.000	8.171	0.099
377.100	11.641	0.099
377.200	14.350	0.099
377.300	22.142	0.099
377.400	9.923	0.099
377.500	-1.570	0.099
377.600	17.118	0.099
377.700	14.897	0.099
377.800	22.341	0.099
377.900	19.950	0.099
378.000	14.558	0.099
378.100	24.490	0.099
378.200	14.737	0.099
378.300	22.163	0.099
378.400	8.700	0.099
378.500	5.471	0.099
378.600	18.040	0.099
378.700	24.023	0.099
378.800	20.651	0.099
378.900	24.479	0.099
379.000	15.145	0.099
379.100	14.157	0.099
379.200	19.419	0.099
379.300	21.648	0.099
379.400	18.995	0.099
379.500	30.280	0.099
379.600	12.916	0.099
379.700	6.598	0.099
379.800	15.693	0.099
379.900	18.219	0.099
380.000	25.745	0.099
380.100	18.871	0.099
380.200	23.108	0.099
380.300	21.333	0.099
380.400	27.521	0.099
380.500	8.962	0.099
380.600	7.975	0.099
380.700	25.262	0.099
380.800	22.674	0.099
380.900	0.686	0.099
381.000	18.069	0.099
381.100	7.534	0.099
381.200	18.838	0.099
381.300	12.455	0.099
381.400	23.318	0.099
381.500	21.699	0.099
381.600	18.962	0.099
381.700	20.778	0.099
381.800	17.985	0.099
381.900	23.338	0.099
382.000	20.594	0.099
382.100	11.192	0.099
382.200	2.425	0.099
382.300	27.392	0.099
382.400	14.593	0.099
382.500	-2.633	0.099
382.600	6.092	0.099
382.700	25.991	0.099
382.800	30.938	0.099
382.900	17.993	0.099
383.000	15.689	0.099
383.100	10.688	0.099
383.200	29.784	0.099
383.300	20.639	0.099
383.400	11.934	0.099
383.500	17.538	0.099
383.600	18.191	0.099
383.700	16.700	0.099
383.800	23.118	0.099
383.900	10.400	0.099
384.000	21.511	0.099
384.100	13.855	0.099
384.200	19.868	0.099
384.300	10.379	0.099
384.400	15.658	0.099
384.500	18.338	0.099
384.600	22.513	0.099
384.700	13.279	0.099
384.800	25.108	0.099
384.900	21.880	0.099
385.000	20.150	0.099
385.100	17.541	0.099
385.200	29.419	0.099
385.300	11.406	0.099
385.400	17.008	0.099
385.500	40.587	0.099
385.600	10.325	0.099
385.700	14.749	0.099
385.800	26.893	0.099
385.900	19.492	0.099
386.000	26.681	0.099
386.100	24.314	0.099
386.200	17.084	0.099
386.300	14.589	0.099
386.400	5.927	0.099
386.500	18.756	0.099
386.600	23.670	0.099
386.700	8.700	0.099
386.800	27.772	0.099
386.900	19.961	0.099
387.000	24.745	0.099
387.100	8.916	0.099
387.200	12.821	0.099
387.300	15.054	0.099
387.400	13.683	0.099
387.500	9.927	0.099
387.600	30.846	0.099
387.700	3.996	0.099
387.800	-0.086	0.099
387.900	14.523	0.099
388.000	17.064	0.099
388.100	4.284	0.099
388.200	14.673	0.099
388.300	17.061	0.099
388.400	21.300	0.099
388.500	25.582	0.099
388.600	14.318	0.099
388.700	16.952	0.099
388.800	18.072	0.099
388.900	15.501	0.099
389.000	23.338	0.099
389.100	13.687	0.099
389.200	16.017	0.099
389.300	22.228	0.099
389.400	21.113	0.099
389.500	19.406	0.099
389.600	13.468	0.099
389.700	26.155	0.099
389.800	5.854	0.099
389.900	4.907	0.099
390.000	12.222	0.099
390.100	6.834	0.099
390.200	7.537	0.099
390.300	10.631	0.099
390.400	-8.364	0.099
390.500	-1.814	0.099
390.600	-7.169	0.099
390.700	-10.796	0.099
390.800	-5.556	0.099
390.900	-22.616	0.099
391.000	-9.310	0.099
391.100	-21.845	0.099
391.200	-12.258	0.099
391.300	-9.327	0.099
391.400	-13.285	0.099
391.500	-18.276	0.099
391.600	-15.224	0.099
391.700	-18.511	0.099
391.800	-10.651	0.099
391.900	-8.317	0.099
392.000	-20.696	0.099
392.100	-25.158	0.099
392.200	-19.227	0.099
392.300	-25.587	0.099
392.400	-17.308	0.099
392.500	-16.710	0.099
392.600	-18.308	0.099
392.700	-13.395	0.099
392.800	-12.681	0.099
392.900	-27.808	0.099
393.000	-13.374	0.099
393.100	-5.224	0.099
393.200	-18.459	0.099
393.300	-9.447	0.099
393.400	-28.510	0.099
393.500	-5.539	0.099
393.600	-20.239	0.099
393.700	-27.604	0.099
393.800	-17.323	0.099
393.900	-4.155	0.099
394.000	-8.843	0.099
394.100	-2.908	0.099
394.200	-15.579	0.099
394.300	-23.229	0.099
394.400	-20.477	0.099
394.500	-11.917	0.099
394.600	-4.005	0.099
394.700	-12.762	0.099
394.800	-8.986	0.099
394.900	-15.859	0.099
395.000	-4.225	0.099
395.100	-12.347	0.099
395.200	-12.525	0.099
395.300	-10.621	0.099
395.400	-19.867	0.099
395.500	-22.363	0.099
395.600	-21.284	0.099
395.700	-22.527	0.099
395.800	-8.690	0.099
395.900	-21.287	0.099
396.000	-8.988	0.099
396.100	-11.850	0.099
396.200	-14.501	0.099
396.300	-12.753	0.099
396.400	-16.630	0.099
396.500	-12.914	0.099
396.600	-7.016	0.099
396.700	-20.330	0.099
396.800	-10.231	0.099
396.900	-9.136	0.099
397.000	-19.605	0.099
397.100	-25.851	0.099
397.200	-14.926	0.099
397.300	-10.045	0.099
397.400	-11.679	0.099
397.500	-12.066	0.099
397.600	-12.102	0.099
397.700	-11.592	0.099
397.800	-15.816	0.099
397.900	-17.312	0.099
398.000	-15.195	0.099
398.100	-15.251	0.099
398.200	-11.878	0.099
398.300	-11.239	0.099
398.400	-9.184	0.099
398.500	-0.586	0.099
398.600	-9.778	0.099
398.700	-15.579	0.099
398.800	1.128	0.099
398.900	0.624	0.099
399.000	-10.546	0.099
399.100	-12.122	0.099
399.200	1.615	0.099
399.300	-8.607	0.099
399.400	-5.375	0.099
399.500	-8.176	0.099
399.600	-10.792	0.099
399.700	-5.194	0.099
399.800	-5.875	0.099
399.900	-10.476	0.099
400.000	-16.838	0.099
400.100	1.760	0.099
400.200	-18.379	0.099
400.300	-5.635	0.099
400.400	-5.438	0.099
400.500	-27.810	0.099
400.600	-0.791	0.099
400.700	-3.231	0.099
400.800	-6.168	0.099
400.900	-7.484	0.099
401.000	-18.017	0.099
401.100	-4.627	0.099
401.200	-8.151	0.099
401.300	-9.877	0.099
401.400	-22.358	0.099
401.500	3.351	0.099
401.600	-6.922	0.099
401.700	-1.601	0.099
401.800	-12.865	0.099
401.900	-5.438	0.099
402.000	-6.868	0.099
402.100	0.428	0.099
402.200	-14.925	0.099
402.300	7.417	0.099
402.400	-10.915	0.099
402.500	-11.599	0.099
402.600	-6.011	0.099
402.700	-2.711	0.099
402.800	-9.415	0.099
402.900	-10.164	0.099
403.000	7.672	0.099
403.100	-3.807	0.099
403.200	-12.954	0.099
403.300	-8.700	0.099
403.400	-4.259	0.099
403.500	-14.958	0.099
403.600	-12.525	0.099
403.700	-15.234	0.099
403.800	-20.100	0.099
403.900	-12.499	0.099
404.000	-1.979	0.099
404.100	-22.036	0.099
404.200	-3.391	0.099
404.300	-16.253	0.099
404.400	-16.980	0.099
404.500	-20.470	0.099
404.600	-5.401	0.099
404.700	-13.667	0.099
404.800	-23.218	0.099
404.900	2.615	0.099
405.000	-2.409	0.099
405.100	-16.548	0.099
405.200	-0.667	0.099
405.300	-8.229	0.099
405.400	-12.400	0.099
405.500	0.050	0.099
405.600	-3.273	0.099
405.700	0.662	0.099
405.800	-10.914	0.099
405.900	-16.520	0.099
406.000	-13.005	0.099
406.100	-18.709	0.099
406.200	5.918	0.099
406.300	-16.499	0.099
406.400	-12.671	0.099
406.500	-18.246	0.099
406.600	-2.446	0.099
406.700	2.677	0.099
406.800	-15.817	0.099
406.900	-4.812	0.099
407.000	-17.852	0.099
407.100	-3.345	0.099
407.200	-13.278	0.099
407.300	-7.700	0.099
407.400	-12.783	0.099
407.500	-8.779	0.099
407.600	-2.041	0.099
407.700	-5.674	0.099
407.800	-12.595	0.099
407.900	-22.229	0.099
408.000	4.125	0.099
408.100	-12.536	0.099
408.200	-6.121	0.099
408.300	-8.351	0.099
408.400	3.450	0.099
408.500	-2.566	0.099
408.600	-11.298	0.099
408.700	-19.621	0.099
408.800	-22.745	0.099
408.900	-13.069	0.099
409.000	-24.601	0.099
409.100	1.438	0.099
409.200	-1.264	0.099
409.300	-7.382	0.099
409.400	5.719	0.099
409.500	-17.648	0.099
409.600	-14.672	0.099
409.700	-5.403	0.099
409.800	9.870	0.099
409.900	-9.296	0.099
410.000	-13.678	0.099
410.100	10.610	0.099
410.200	-22.551	0.099
410.300	7.167	0.099
410.400	-0.317	0.099
410.500	1.557	0.099
410.600	-16.958	0.099
410.700	-14.289	0.099
410.800	-18.736	0.099
410.900	-14.137	0.099
411.000	-17.025	0.099
411.100	-12.389	0.099
411.200	-4.986	0.099
411.300	-12.249	0.099
411.400	5.545	0.099
411.500	0.434	0.099
411.600	-10.855	0.099
411.700	-15.760	0.099
411.800	-14.509	0.099
411.900	4.936	0.099
412.000	-24.562	0.099
412.100	-4.136	0.099
412.200	-18.252	0.099
412.300	-6.618	0.099
412.400	11.312	0.099
412.500	-17.269	0.099
412.600	-14.498	0.099
412.700	-19.936	0.099
412.800	-2.917	0.099
412.900	-18.282	0.099
413.000	-11.354	0.099
413.100	-3.605	0.099
413.200	-8.733	0.099
413.300	-12.167	0.099
413.400	-26.386	0.099
413.500	-27.302	0.099
413.600	2.929	0.099
413.700	-0.975	0.099
413.800	-3.201	0.099
413.900	-13.040	0.099
414.000	-1.666	0.099
414.100	7.082	0.099
414.200	-11.105	0.099
414.300	-11.451	0.099
414.400	-11.729	0.099
414.500	3.251	0.099
414.600	-23.749	0.099
414.700	-5.325	0.099
414.800	-24.279	0.099
414.900	-12.910	0.099
415.000	-10.022	0.099
415.100	-6.415	0.099
415.200	-14.049	0.099
415.300	-13.753	0.099
415.400	-22.733	0.099
415.500	-8.155	0.099
415.600	-12.674	0.099
415.700	-6.362	0.099
415.800	-11.078	0.099
415.900	-19.256	0.099
416.000	-4.592	0.099
416.100	-11.366	0.099
416.200	-8.951	0.099
416.300	-8.376	0.099
416.400	-10.950	0.099
416.500	-11.930	0.099
416.600	-11.291	0.099
416.700	-2.625	0.099
416.800	-8.665	0.099
416.900	-7.151	0.099
417.000	-9.928	0.099
417.100	0.502	0.099
417.200	-10.430	0.099
417.300	-12.451	0.099
417.400	-13.908	0.099
417.500	-15.628	0.099
417.600	-0.133	0.099
417.700	1.195	0.099
417.800	-9.758	0.099
417.900	-15.218	0.099
418.000	-8.283	0.099
418.100	1.635	0.099
418.200	-2.080	0.099
418.300	-14.906	0.099
418.400	-15.424	0.099
418.500	-13.230	0.099
418.600	-11.645	0.099
418.700	-14.149	0.099
418.800	-15.041	0.099
418.900	-16.307	0.099
419.000	-12.843	0.099
419.100	-18.009	0.099
419.200	-14.094	0.099
419.300	-12.407	0.099
419.400	-4.910	0.099
419.500	-23.183	0.099
419.600	-3.528	0.099
419.700	-7.893	0.099
419.800	-8.141	0.099
419.900	-26.491	0.099
420.000	-10.272	0.099
420.100	-7.561	0.099
420.200	-5.461	0.099
420.300	-10.367	0.099
420.400	-10.830	0.099
420.500	-2.985	0.099
420.600	-7.929	0.099
420.700	-5.618	0.099
420.800	-12.846	0.099
420.900	-13.455	0.099
421.000	-16.489	0.099
421.100	-9.467	0.099
421.200	-15.951	0.099
421.300	-21.712	0.099
421.400	-19.622	0.099
421.500	-24.235	0.099
421.600	-14.991	0.099
421.700	2.620	0.099
421.800	-15.631	0.099
421.900	-3.723	0.099
422.000	-6.241	0.099
422.100	-16.179	0.099
422.200	-12.467	0.099
422.300	-17.485	0.099
422.400	-14.223	0.099
422.500	-14.996	0.099
422.600	-17.808	0.099
422.700	2.711	0.099
422.800	-7.879	0.099
422.900	-12.708	0.099
423.000	-14.826	0.099
423.100	-4.828	0.099
423.200	5.016	0.099
423.300	-12.750	0.099
423.400	-14.726	0.099
423.500	-10.345	0.099
423.600	-11.706	0.099
423.700	-14.931	0.099
423.800	-13.907	0.099
423.900	-1.244	0.099
424.000	-3.215	0.099
424.100	-22.489	0.099
424.200	-10.431	0.099
424.300	-3.349	0.099
424.400	-10.452	0.099
424.500	-21.953	0.099
424.600	-0.313	0.099
424.700	-12.051	0.099
424.800	-14.080	0.099
424.900	-6.869	0.099
425.000	-15.761	0.099
425.100	-0.425	0.099
425.200	5.065	0.099
425.300	-11.474	0.099
425.400	-14.413	0.099
425.500	-1.540	0.099
425.600	-13.387	0.099
425.700	-15.139	0.099
425.800	-18.341	0.099
425.900	-12.804	0.099
426.000	-15.217	0.099
426.100	-11.471	0.099
426.200	-7.355	0.099
426.300	-7.851	0.099
426.400	-8.037	0.099
426.500	-4.543	0.099
426.600	-5.938	0.099
426.700	-16.634	0.099
426.800	-16.336	0.099
426.900	-9.408	0.099
427.000	-16.475	0.099
427.100	-9.549	0.099
427.200	-8.403	0.099
427.300	0.311	0.099
427.400	-13.567	0.099
427.500	-8.839	0.099
427.600	0.052	0.099
427.700	-14.375	0.099
427.800	-12.981	0.099
427.900	-15.665	0.099
428.000	-9.168	0.099
428.100	-11.574	0.099
428.200	3.463	0.099
428.300	-13.079	0.099
428.400	-11.872	0.099
428.500	-11.896	0.099
428.600	-5.736	0.099
428.700	-1.430	0.099
428.800	-21.077	0.099
428.900	-6.447	0.099
429.000	-7.889	0.099
429.100	-15.728	0.099
429.200	-6.106	0.099
429.300	-7.620	0.099
429.400	-9.624	0.099
429.500	-11.532	0.099
429.600	-2.616	0.099
429.700	-12.068	0.099
429.800	-10.757	0.099
429.900	-1.778	0.099
430.000	-9.711	0.099
430.100	-8.739	0.099
430.200	-10.824	0.099
430.300	-13.333	0.099
430.400	-8.070	0.099
430.500	-15.955	0.099
430.600	-19.682	0.099
430.700	-2.309	0.099
430.800	11.231	0.099
430.900	-10.864	0.099
431.000	-8.501	0.099
431.100	-2.707	0.099
431.200	-41.071	0.099
431.300	-14.414	0.099
431.400	-14.319	0.099
431.500	-10.342	0.099
431.600	-3.128	0.099
431.700	-8.370	0.099
431.800	-22.476	0.099
431.900	-5.214	0.099
432.000	-3.330	0.099
432.100	-15.646	0.099
432.200	-7.708	0.099
432.300	-17.811	0.099
432.400	-14.033	0.099
432.500	-13.110	0.099
432.600	-7.616	0.099
432.700	-8.786	0.099
432.800	-6.516	0.099
432.900	-7.328	0.099
433.000	-4.473	0.099
433.100	-20.230	0.099
433.200	-7.857	0.099
433.300	-10.884	0.099
433.400	-5.812	0.099
433.500	-2.159	0.099
433.600	-20.829	0.099
433.700	-24.740	0.099
433.800	-16.050	0.099
433.900	-14.633	0.099
434.000	7.677	0.099
434.100	-4.928	0.099
434.200	0.305	0.099
434.300	-16.492	0.099
434.400	-4.869	0.099
434.500	-13.737	0.099
434.600	-9.310	0.099
434.700	-14.761	0.099
434.800	-12.220	0.099
434.900	-3.237	0.099
435.000	-11.463	0.099
435.100	-13.471	0.099
435.200	-10.547	0.099
435.300	-15.003	0.099
435.400	-17.059	0.099
435.500	-12.368	0.099
435.600	-8.505	0.099
435.700	-2.935	0.099
435.800	-8.368	0.099
435.900	1.526	0.099
436.000	-11.605	0.099
436.100	-12.731	0.099
436.200	-4.638	0.099
436.300	-15.201	0.099
436.400	-8.476	0.099
436.500	-13.838	0.099
436.600	-2.227	0.099
436.700	-8.194	0.099
436.800	-3.479	0.099
436.900	-29.570	0.099
437.000	-14.310	0.099
437.100	-18.592	0.099
437.200	4.905	0.099
437.300	-7.862	0.099
437.400	-3.044	0.099
437.500	-12.979	0.099
437.600	-3.342	0.099
437.700	-6.822	0.099
437.800	-10.233	0.099
437.900	-13.762	0.099
438.000	-16.700	0.099
438.100	-5.726	0.099
438.200	-1.309	0.099
438.300	-5.958	0.099
438.400	-17.862	0.099
438.500	-11.239	0.099
438.600	-7.143	0.099
438.700	-16.113	0.099
438.800	-14.838	0.099
438.900	-16.125	0.099
439.000	-8.732	0.099
439.100	-1.536	0.099
439.200	0.573	0.099
439.300	-7.443	0.099
439.400	-11.852	0.099
439.500	-28.032	0.099
439.600	-4.379	0.099
439.700	-9.468	0.099
439.800	-6.029	0.099
439.900	-9.418	0.099
440.000	-4.566	0.099
440.100	-0.640	0.099
440.200	-7.191	0.099
440.300	-6.523	0.099
440.400	-8.403	0.099
440.500	5.082	0.099
440.600	-24.272	0.099
440.700	-11.266	0.099
440.800	-22.461	0.099
440.900	-4.980	0.099
441.000	-6.989	0.099
441.100	-8.850	0.099
441.200	-1.040	0.099
441.300	-17.545	0.099
441.400	-3.172	0.099
441.500	-6.055	0.099
441.600	-4.759	0.099
441.700	-1.261	0.099
441.800	-8.228	0.099
441.900	-7.078	0.099
442.000	-2.060	0.099
442.100	-27.823	0.099
442.200	-8.577	0.099
442.300	-5.486	0.099
442.400	-0.173	0.099
442.500	-3.128	0.099
442.600	-3.491	0.099
442.700	-10.897	0.099
442.800	-7.246	0.099
442.900	8.621	0.099
443.000	-4.493	0.099
443.100	-7.823	0.099
443.200	-1.855	0.099
443.300	-9.079	0.099
443.400	1.761	0.099
443.500	-15.438	0.099
443.600	-7.326	0.099
443.700	-11.101	0.099
443.800	-4.281	0.099
443.900	-11.491	0.099
444.000	-5.185	0.099
444.100	-0.842	0.099
444.200	-6.655	0.099
444.300	-6.341	0.099
444.400	5.480	0.099
444.500	-12.626	0.099
444.600	-10.611	0.099
444.700	-1.574	0.099
444.800	-24.902	0.099
444.900	-15.836	0.099
445.000	-1.383	0.099
445.100	3.562	0.099
445.200	-16.255	0.099
445.300	-19.433	0.099
445.400	6.976	0.099
445.500	7.734	0.099
445.600	-9.251	0.099
445.700	-14.877	0.099
445.800	-11.707	0.099
445.900	-28.817	0.099
446.000	6.840	0.099
446.100	-8.960	0.099
446.200	-9.527	0.099
446.300	-10.706	0.099
446.400	8.052	0.099
446.500	-4.577	0.099
446.600	-6.910	0.099
446.700	5.329	0.099
446.800	-5.453	0.099
446.900	-24.778	0.099
447.000	-3.160	0.099
447.100	-2.241	0.099
447.200	-0.998	0.099
447.300	-19.563	0.099
447.400	-17.567	0.099
447.500	-3.016	0.099
447.600	-12.117	0.099
447.700	0.711	0.099
447.800	-14.313	0.099
447.900	4.575	0.099
448.000	-15.421	0.099
448.100	-7.058	0.099
448.200	-11.514	0.099
448.300	2.190	0.099
448.400	-8.948	0.099
448.500	5.543	0.099
448.600	4.268	0.099
448.700	0.216	0.099
448.800	-20.997	0.099
448.900	-16.438	0.099
449.000	0.493	0.099
449.100	-5.889	0.099
449.200	-10.141	0.099
449.300	-1.576	0.099
449.400	-5.749	0.099
449.500	4.475	0.099
449.600	-14.689	0.099
449.700	-3.047	0.099
449.800	12.221	0.099
449.900	-0.245	0.099
450.000	-14.350	0.099
450.100	-11.827	0.099
450.200	-21.837	0.099
450.300	-18.911	0.099
450.400	-8.048	0.099
450.500	-13.922	0.099
450.600	-6.924	0.099
450.700	-15.370	0.099
450.800	-10.607	0.099
450.900	-14.296	0.099
451.000	-0.051	0.099
451.100	-14.481	0.099
451.200	-12.406	0.099
451.300	0.434	0.099
451.400	-6.206	0.099
451.500	-15.888	0.099
451.600	1.514	0.099
451.700	-16.689	0.099
451.800	-3.825	0.099
451.900	6.452	0.099
452.000	-3.947	0.099
452.100	0.987	0.099
452.200	0.110	0.099
452.300	-3.997	0.099
452.400	4.293	0.099
452.500	-13.594	0.099
452.600	-8.465	0.099
452.700	-4.338	0.099
452.800	-0.505	0.099
452.900	-15.144	0.099
453.000	5.245	0.099
453.100	-17.863	0.099
453.200	-3.958	0.099
453.300	0.915	0.099
453.400	-2.472	0.099
453.500	4.758	0.099
453.600	6.697	0.099
453.700	-1.332	0.099
453.800	-25.751	0.099
453.900	-12.884	0.099
454.000	13.653	0.099
454.100	-3.065	0.099
454.200	-9.988	0.099
454.300	-7.694	0.099
454.400	-5.441	0.099
454.500	-8.180	0.099
454.600	-7.168	0.099
454.700	-3.526	0.099
454.800	-7.973	0.099
454.900	-0.502	0.099
455.000	-3.531	0.099
455.100	-19.313	0.099
455.200	-7.756	0.099
455.300	-14.318	0.099
455.400	1.476	0.099
455.500	6.401	0.099
455.600	-6.574	0.099
455.700	-12.262	0.099
455.800	-10.219	0.099
455.900	-5.306	0.099
456.000	-5.916	0.099
456.100	7.119	0.099
456.200	-8.382	0.099
456.300	1.295	0.099
456.400	-5.275	0.099
456.500	-7.595	0.099
456.600	-7.368	0.099
456.700	-10.943	0.099
456.800	-11.408	0.099
456.900	-10.851	0.099
457.000	1.780	0.099
457.100	-27.334	0.099
457.200	-0.984	0.099
457.300	-6.074	0.099
457.400	-5.424	0.099
457.500	8.438	0.099
457.600	-5.004	0.099
457.700	-10.357	0.099
457.800	-17.982	0.099
457.900	-5.794	0.099
458.000	-5.427	0.099
458.100	22.445	0.099
458.200	-0.321	0.099
458.300	-8.252	0.099
458.400	-10.787	0.099
458.500	-13.231	0.099
458.600	-13.799	0.099
458.700	1.801	0.099
458.800	-4.751	0.099
458.900	-7.821	0.099
459.000	-2.542	0.099
459.100	-12.923	0.099
459.200	1.091	0.099
459.300	-24.191	0.099
459.400	-2.581	0.099
459.500	-20.163	0.099
459.600	-5.831	0.099
459.700	-1.795	0.099
459.800	-4.581	0.099
459.900	-8.246	0.099
460.000	-2.550	0.099
460.100	-8.263	0.099
460.200	1.270	0.099
460.300	-4.033	0.099
460.400	-7.839	0.099
460.500	-10.744	0.099
460.600	-4.564	0.099
460.700	4.993	0.099
460.800	-21.047	0.099
460.900	-14.736	0.099
461.000	4.639	0.099
461.100	2.898	0.099
461.200	-6.488	0.099
461.300	-2.247	0.099
461.400	-6.284	0.099
461.500	-15.131	0.099
461.600	-5.267	0.099
461.700	-18.674	0.099
461.800	-8.849	0.099
461.900	-8.995	0.099
462.000	-11.425	0.099
462.100	-12.981	0.099
462.200	-13.222	0.099
462.300	-2.652	0.099
462.400	-2.040	0.099
462.500	-3.428	0.099
462.600	1.774	0.099
462.700	-3.983	0.099
462.800	-6.291	0.099
462.900	-8.966	0.099
463.000	-5.887	0.099
463.100	-4.212	0.099
463.200	-4.850	0.099
463.300	2.078	0.099
463.400	-3.026	0.099
463.500	-14.105	0.099
463.600	-10.266	0.099
463.700	3.259	0.099
463.800	-11.279	0.099
463.900	-19.587	0.099
464.000	2.634	0.099
464.100	8.617	0.099
464.200	4.588	0.099
464.300	-16.305	0.099
464.400	4.401	0.099
464.500	8.237	0.099
464.600	-2.853	0.099
464.700	-13.927	0.099
464.800	-10.369	0.099
464.900	12.330	0.099
465.000	-4.633	0.099
465.100	4.511	0.099
465.200	-1.327	0.099
465.300	-2.057	0.099
465.400	-11.193	0.099
465.500	-3.937	0.099
465.600	-3.771	0.099
465.700	-5.757	0.099
465.800	-7.250	0.099
465.900	0.615	0.099
466.000	3.156	0.099
466.100	-1.041	0.099
466.200	-1.594	0.099
466.300	-4.509	0.099
466.400	-0.855	0.099
466.500	-2.608	0.099
466.600	2.147	0.099
466.700	-3.004	0.099
466.800	-5.665	0.099
466.900	-7.421	0.099
467.000	-3.404	0.099
467.100	-9.991	0.099
467.200	4.040	0.099
467.300	-13.105	0.099
467.400	-3.723	0.099
467.500	-7.055	0.099
467.600	8.345	0.099
467.700	-7.257	0.099
467.800	2.299	0.099
467.900	5.041	0.099
468.000	-14.877	0.099
468.100	0.720	0.099
468.200	-9.975	0.099
468.300	-9.847	0.099
468.400	-2.052	0.099
468.500	-5.849	0.099
468.600	-5.751	0.099
468.700	-13.118	0.099
468.800	3.930	0.099
468.900	-5.662	0.099
469.000	7.131	0.099
469.100	2.946	0.099
469.200	-2.695	0.099
469.300	6.229	0.099
469.400	-13.217	0.099
469.500	-14.028	0.099
469.600	-15.141	0.099
469.700	11.662	0.099
469.800	-7.593	0.099
469.900	-3.283	0.099
470.000	-1.948	0.099
470.100	-1.158	0.099
470.200	1.874	0.099
470.300	-6.192	0.099
470.400	-3.120	0.099
470.500	-5.639	0.099
470.600	-21.999	0.099
470.700	8.680	0.099
470.800	-3.954	0.099
470.900	-7.064	0.099
471.000	-0.368	0.099
471.100	-13.322	0.099
471.200	-9.105	0.099
471.300	-6.095	0.099
471.400	-6.928	0.099
471.500	7.441	0.099
471.600	-10.954	0.099
471.700	9.923	0.099
471.800	-8.002	0.099
471.900	-2.792	0.099
472.000	8.926	0.099
472.100	-3.591	0.099
472.200	-3.285	0.099
472.300	-15.827	0.099
472.400	-4.404	0.099
472.500	-25.922	0.099
472.600	5.708	0.099
472.700	14.207	0.099
472.800	-3.508	0.099
472.900	-7.042	0.099
473.000	-4.762	0.099
473.100	-14.030	0.099
473.200	-0.724	0.099
473.300	-11.186	0.099
473.400	2.494	0.099
473.500	-13.601	0.099
473.600	-7.719	0.099
473.700	-6.323	0.099
473.800	-9.633	0.099
473.900	4.392	0.099
474.000	-6.348	0.099
474.100	3.202	0.099
474.200	-6.604	0.099
474.300	-2.090	0.099
474.400	-9.901	0.099
474.500	3.665	0.099
474.600	-6.643	0.099
474.700	-15.564	0.099
474.800	1.045	0.099
474.900	-0.866	0.099
475.000	4.668	0.099
475.100	0.561	0.099
475.200	4.740	0.099
475.300	-7.741	0.099
475.400	6.308	0.099
475.500	-1.131	0.099
475.600	-2.254	0.099
475.700	-8.230	0.099
475.800	-3.285	0.099
475.900	-5.729	0.099
476.000	4.300	0.099
476.100	-6.477	0.099
476.200	2.513	0.099
476.300	8.498	0.099
476.400	-11.126	0.099
476.500	-4.768	0.099
476.600	11.215	0.099
476.700	-7.281	0.099
476.800	-1.200	0.099
476.900	3.470	0.099
477.000	-6.240	0.099
477.100	-10.641	0.099
477.200	-11.849	0.099
477.300	-1.346	0.099
477.400	-2.692	0.099
477.500	-4.723	0.099
477.600	6.308	0.099
477.700	-2.172	0.099
477.800	-5.883	0.099
477.900	-17.595	0.099
478.000	-8.768	0.099
478.100	-2.640	0.099
478.200	-15.442	0.099
478.300	11.599	0.099
478.400	5.357	0.099
478.500	-19.202	0.099
478.600	-8.590	0.099
478.700	2.909	0.099
478.800	4.623	0.099
478.900	-0.004	0.099
479.000	-2.698	0.099
479.100	-7.904	0.099
479.200	-4.279	0.099
479.300	-10.236	0.099
479.400	-17.570	0.099
479.500	1.887	0.099
479.600	-0.499	0.099
479.700	-16.569	0.099
479.800	-10.815	0.099
479.900	-11.546	0.099
480.000	4.494	0.099
480.100	11.374	0.099
480.200	6.689	0.099
480.300	16.593	0.099
480.400	12.985	0.099
480.500	19.471	0.099
480.600	29.686	0.099
480.700	38.699	0.099
480.800	30.537	0.099
480.900	26.693	0.099
481.000	26.930	0.099
481.100	41.701	0.099
481.200	36.633	0.099
481.300	23.937	0.099
481.400	24.538	0.099
481.500	42.838	0.099
481.600	23.341	0.099
481.700	26.248	0.099
481.800	31.590	0.099
481.900	32.107	0.099
482.000	27.511	0.099
482.100	16.724	0.099
482.200	44.688	0.099
482.300	17.167	0.099
482.400	28.354	0.099
482.500	39.549	0.099
482.600	39.552	0.099
482.700	29.630	0.099
482.800	11.882	0.099
482.900	15.286	0.099
483.000	26.212	0.099
483.100	30.593	0.099
483.200	10.305	0.099
483.300	34.827	0.099
483.400	13.639	0.099
483.500	33.812	0.099
483.600	11.113	0.099
483.700	31.769	0.099
483.800	32.493	0.099
483.900	29.905	0.099
484.000	25.236	0.099
484.100	20.926	0.099
484.200	20.525	0.099
484.300	24.209	0.099
484.400	24.435	0.099
484.500	27.042	0.099
484.600	18.430	0.099
484.700	26.965	0.099
484.800	29.165	0.099
484.900	33.540	0.099
485.000	27.041	0.099
485.100	23.793	0.099
485.200	16.204	0.099
485.300	31.635	0.099
485.400	16.346	0.099
485.500	18.043	0.099
485.600	33.816	0.099
485.700	21.888	0.099
485.800	9.999	0.099
485.900	23.456	0.099
486.000	13.044	0.099
486.100	17.472	0.099
486.200	29.776	0.099
486.300	12.074	0.099
486.400	24.146	0.099
486.500	15.503	0.099
486.600	20.813	0.099
486.700	22.245	0.099
486.800	16.593	0.099
486.900	29.204	0.099
487.000	11.918	0.099
487.100	-3.968	0.099
487.200	13.443	0.099
487.300	14.802	0.099
487.400	17.969	0.099
487.500	20.118	0.099
487.600	19.012	0.099
487.700	4.726	0.099
487.800	13.740	0.099
487.900	12.028	0.099
488.000	22.600	0.099
488.100	29.412	0.099
488.200	39.616	0.099
488.300	25.704	0.099
488.400	25.181	0.099
488.500	20.654	0.099
488.600	30.128	0.099
488.700	20.565	0.099
488.800	24.829	0.099
488.900	29.246	0.099
489.000	20.523	0.099
489.100	34.003	0.099
489.200	15.503	0.099
489.300	21.818	0.099
489.400	19.992	0.099
489.500	28.408	0.099
489.600	23.704	0.099
489.700	18.057	0.099
489.800	27.649	0.099
489.900	21.690	0.099
490.000	14.658	0.099
490.100	23.738	0.099
490.200	31.420	0.099
490.300	9.629	0.099
490.400	22.552	0.099
490.500	30.061	0.099
490.600	19.901	0.099
490.700	36.952	0.099
490.800	21.780	0.099
490.900	12.576	0.099
491.000	28.712	0.099
491.100	29.364	0.099
491.200	37.450	0.099
491.300	24.464	0.099
491.400	32.719	0.099
491.500	22.566	0.099
491.600	32.599	0.099
491.700	28.473	0.099
491.800	38.546	0.099
491.900	44.249	0.099
492.000	27.521	0.099
492.100	32.490	0.099
492.200	31.268	0.099
492.300	34.325	0.099
492.400	23.670	0.099
492.500	28.154	0.099
492.600	41.792	0.099
492.700	44.365	0.099
492.800	37.067	0.099
492.900	42.020	0.099
493.000	16.348	0.099
493.100	27.488	0.099
493.200	46.942	0.099
493.300	38.828	0.099
493.400	34.041	0.099
493.500	19.995	0.099
493.600	35.226	0.099
493.700	33.392	0.099
493.800	28.197	0.099
493.900	43.357	0.099
494.000	39.094	0.099
494.100	37.123	0.099
494.200	41.047	0.099
494.300	41.430	0.099
494.400	22.947	0.099
494.500	32.764	0.099
494.600	48.933	0.099
494.700	24.641	0.099
494.800	32.953	0.099
494.900	56.466	0.099
495.000	40.275	0.099
495.100	38.791	0.099
495.200	47.229	0.099
495.300	36.545	0.099
495.400	40.678	0.099
495.500	48.557	0.099
495.600	37.801	0.099
495.700	38.291	0.099
495.800	38.341	0.099
495.900	39.524	0.099
496.000	55.508	0.099
496.100	54.650	0.099
496.200	52.097	0.099
496.300	43.311	0.099
496.400	37.894	0.099
496.500	51.619	0.099
496.600	43.502	0.099
496.700	42.450	0.099
496.800	42.973	0.099
496.900	31.521	0.099
497.000	58.687	0.099
497.100	60.943	0.099
497.200	47.155	0.099
497.300	48.897	0.099
497.400	44.439	0.099
497.500	29.445	0.099
497.600	51.781	0.099
497.700	56.561	0.099
497.800	56.584	0.099
497.900	52.012	0.099
498.000	41.897	0.099
498.100	60.368	0.099
498.200	57.921	0.099
498.300	55.813	0.099
498.400	54.197	0.099
498.500	52.737	0.099
498.600	63.592	0.099
498.700	52.322	0.099
498.800	54.208	0.099
498.900	65.737	0.099
499.000	61.751	0.099
499.100	57.121	0.099
499.200	63.844	0.099
499.300	56.723	0.099
499.400	56.047	0.099
499.500	62.614	0.099
499.600	62.787	0.099
499.700	67.424	0.099
499.800	67.503	0.099
499.900	68.102	0.099
500.000	74.498	0.099
500.100	73.761	0.099
500.200	63.740	0.099
500.300	61.272	0.099
500.400	63.623	0.099
500.500	98.054	0.099
500.600	68.875	0.099
500.700	78.603	0.099
500.800	73.997	0.099
500.900	82.163	0.099
501.000	92.432	0.099
501.100	57.248	0.099
501.200	70.712	0.099
501.300	55.068	0.099
501.400	66.926	0.099
501.500	66.306	0.099
501.600	72.158	0.099
501.700	77.161	0.099
501.800	76.713	0.099
501.900	68.501	0.099
502.000	64.675	0.099
502.100	74.571	0.099
502.200	77.466	0.099
502.300	68.205	0.099
502.400	72.798	0.099
502.500	71.670	0.099
502.600	79.991	0.099
502.700	70.333	0.099
502.800	59.921	0.099
502.900	72.209	0.099
503.000	75.930	0.099
503.100	69.433	0.099
503.200	71.258	0.099
503.300	61.404	0.099
503.400	64.216	0.099
503.500	68.078	0.099
503.600	69.397	0.099
503.700	52.919	0.099
503.800	62.894	0.099
503.900	62.986	0.099
504.000	59.817	0.099
504.100	51.933	0.099
504.200	50.130	0.099
504.300	56.867	0.099
504.400	51.868	0.099
504.500	53.188	0.099
504.600	54.064	0.099
504.700	50.565	0.099
504.800	57.466	0.099
504.900	47.048	0.099
505.000	45.922	0.099
505.100	40.193	0.099
505.200	33.111	0.099
505.300	36.851	0.099
505.400	51.515	0.099
505.500	34.408	0.099
505.600	30.602	0.099
505.700	44.909	0.099
505.800	22.182	0.099
505.900	39.401	0.099
506.000	27.755	0.099
506.100	50.459	0.099
506.200	40.830	0.099
506.300	42.501	0.099
506.400	42.463	0.099
506.500	36.821	0.099
506.600	33.755	0.099
506.700	27.260	0.099
506.800	30.876	0.099
506.900	27.391	0.099
507.000	23.271	0.099
507.100	34.812	0.099
507.200	19.307	0.099
507.300	25.484	0.099
507.400	40.072	0.099
507.500	33.767	0.099
507.600	29.384	0.099
507.700	32.664	0.099
507.800	24.981	0.099
507.900	32.896	0.099
508.000	27.128	0.099
508.100	26.407	0.099
508.200	19.395	0.099
508.300	27.246	0.099
508.400	44.526	0.099
508.500	27.706	0.099
508.600	32.865	0.099
508.700	22.924	0.099
508.800	22.759	0.099
508.900	29.065	0.099
509.000	22.468	0.099
509.100	29.222	0.099
509.200	29.396	0.099
509.300	23.129	0.099
509.400	32.955	0.099
509.500	18.750	0.099
509.600	36.714	0.099
509.700	29.363	0.099
509.800	19.542	0.099
509.900	14.116	0.099
510.000	29.392	0.099
510.100	22.363	0.099
510.200	29.432	0.099
510.300	19.909	0.099
510.400	22.401	0.099
510.500	22.733	0.099
510.600	23.406	0.099
510.700	28.111	0.099
510.800	21.809	0.099
510.900	32.538	0.099
511.000	23.720	0.099
511.100	5.187	0.099
511.200	27.387	0.099
511.300	17.385	0.099
511.400	20.117	0.099
511.500	24.440	0.099
511.600	25.125	0.099
511.700	24.604	0.099
511.800	28.979	0.099
511.900	8.910	0.099
512.000	13.829	0.099
512.100	30.677	0.099
512.200	18.744	0.099
512.300	20.868	0.099
512.400	20.214	0.099
512.500	18.368	0.099
512.600	23.472	0.099
512.700	24.444	0.099
512.800	24.680	0.099
512.900	11.492	0.099
513.000	15.851	0.099
513.100	13.877	0.099
513.200	42.087	0.099
513.300	28.597	0.099
513.400	16.964	0.099
513.500	23.737	0.099
513.600	14.402	0.099
513.700	26.613	0.099
513.800	23.176	0.099
513.900	33.577	0.099
514.000	22.176	0.099
514.100	13.498	0.099
514.200	23.433	0.099
514.300	14.538	0.099
514.400	4.137	0.099
514.500	30.644	0.099
514.600	15.491	0.099
514.700	20.342	0.099
514.800	23.319	0.099
514.900	36.120	0.099
515.000	15.828	0.099
515.100	14.809	0.099
515.200	22.730	0.099
515.300	18.055	0.099
515.400	16.929	0.099
515.500	16.885	0.099
515.600	21.962	0.099
515.700	21.968	0.099
515.800	9.143	0.099
515.900	14.946	0.099
516.000	21.773	0.099
516.100	15.673	0.099
516.200	24.566	0.099
516.300	19.736	0.099
516.400	17.386	0.099
516.500	29.487	0.099
516.600	19.789	0.099
516.700	15.585	0.099
516.800	19.268	0.099
516.900	16.416	0.099
517.000	22.744	0.099
517.100	31.192	0.099
517.200	13.807	0.099
517.300	10.750	0.099
517.400	15.981	0.099
517.500	32.152	0.099
517.600	27.817	0.099
517.700	22.346	0.099
517.800	16.746	0.099
517.900	29.299	0.099
518.000	14.268	0.099
518.100	29.455	0.099
518.200	18.646	0.099
518.300	23.016	0.099
518.400	20.882	0.099
518.500	13.261	0.099
518.600	14.728	0.099
518.700	6.298	0.099
518.800	32.239	0.099
518.900	8.360	0.099
519.000	14.433	0.099
519.100	11.081	0.099
519.200	19.087	0.099
519.300	22.685	0.099
519.400	20.446	0.099
519.500	13.982	0.099
519.600	21.397	0.099
519.700	22.791	0.099
519.800	15.138	0.099
519.900	16.724	0.099
520.000	25.532	0.099
520.100	26.588	0.099
520.200	20.012	0.099
520.300	18.960	0.099
520.400	25.813	0.099
520.500	19.920	0.099
520.600	20.283	0.099
520.700	7.338	0.099
520.800	7.126	0.099
520.900	14.922	0.099
521.000	20.143	0.099
521.100	10.298	0.099
521.200	26.780	0.099
521.300	-3.411	0.099
521.400	15.187	0.099
521.500	27.688	0.099
521.600	17.291	0.099
521.700	23.263	0.099
521.800	21.664	0.099
521.900	23.396	0.099
522.000	19.428	0.099
522.100	16.684	0.099
522.200	19.987	0.099
522.300	10.826	0.099
522.400	8.759	0.099
522.500	18.392	0.099
522.600	27.761	0.099
522.700	13.259	0.099
522.800	22.048	0.099
522.900	20.566	0.099
523.000	26.073	0.099
523.100	18.066	0.099
523.200	17.373	0.099
523.300	12.338	0.099
523.400	13.438	0.099
523.500	17.425	0.099
523.600	16.718	0.099
523.700	19.671	0.099
523.800	18.971	0.099
523.900	18.274	0.099
524.000	12.184	0.099
524.100	19.038	0.099
524.200	8.054	0.099
524.300	20.367	0.099
524.400	26.547	0.099
524.500	24.734	0.099
524.600	20.187	0.099
524.700	20.738	0.099
524.800	32.739	0.099
524.900	18.335	0.099
525.000	23.547	0.099
525.100	14.812	0.099
525.200	24.111	0.099
525.300	15.076	0.099
525.400	17.403	0.099
525.500	8.624	0.099
525.600	23.177	0.099
525.700	26.475	0.099
525.800	8.572	0.099
525.900	-1.118	0.099
526.000	22.642	0.099
526.100	12.603	0.099
526.200	27.896	0.099
526.300	30.405	0.099
526.400	12.861	0.099
526.500	17.696	0.099
526.600	9.245	0.099
526.700	17.920	0.099
526.800	28.897	0.099
526.900	17.365	0.099
527.000	11.789	0.099
527.100	22.214	0.099
527.200	16.451	0.099
527.300	19.510	0.099
527.400	11.478	0.099
527.500	18.401	0.099
527.600	-1.292	0.099
527.700	23.145	0.099
527.800	12.289	0.099
527.900	13.647	0.099
528.000	19.990	0.099
528.100	38.461	0.099
528.200	11.979	0.099
528.300	20.056	0.099
528.400	21.255	0.099
528.500	20.948	0.099
528.600	19.417	0.099
528.700	6.999	0.099
528.800	17.076	0.099
528.900	17.022	0.099
529.000	12.857	0.099
529.100	8.974	0.099
529.200	18.633	0.099
529.300	17.790	0.099
529.400	7.022	0.099
529.500	10.816	0.099
529.600	15.505	0.099
529.700	12.228	0.099
529.800	19.442	0.099
529.900	6.751	0.099
530.000	14.902	0.099
530.100	13.132	0.099
530.200	10.071	0.099
530.300	32.773	0.099
530.400	23.792	0.099
530.500	13.114	0.099
530.600	18.813	0.099
530.700	13.272	0.099
530.800	14.187	0.099
530.900	20.263	0.099
531.000	18.915	0.099
531.100	7.215	0.099
531.200	17.862	0.099
531.300	2.063	0.099
531.400	19.217	0.099
531.500	4.198	0.099
531.600	12.403	0.099
531.700	14.202	0.099
531.800	13.256	0.099
531.900	16.718	0.099
532.000	34.454	0.099
532.100	22.612	0.099
532.200	9.870	0.099
532.300	4.417	0.099
532.400	12.952	0.099
532.500	10.716	0.099
532.600	20.791	0.099
532.700	0.912	0.099
532.800	20.990	0.099
532.900	19.286	0.099
533.000	11.989	0.099
533.100	16.098	0.099
533.200	7.377	0.099
533.300	20.304	0.099
533.400	10.016	0.099
533.500	12.571	0.099
533.600	33.439	0.099
533.700	11.981	0.099
533.800	7.668	0.099
533.900	16.494	0.099
534.000	1.720	0.099
534.100	26.411	0.099
534.200	8.301	0.099
534.300	15.640	0.099
534.400	20.883	0.099
534.500	10.436	0.099
534.600	7.474	0.099
534.700	3.206	0.099
534.800	19.051	0.099
534.900	6.898	0.099
535.000	12.358	0.099
535.100	20.189	0.099
535.200	26.888	0.099
535.300	13.420	0.099
535.400	27.772	0.099
535.500	20.688	0.099
535.600	17.023	0.099
535.700	19.067	0.099
535.800	3.032	0.099
535.900	18.426	0.099
536.000	20.842	0.099
536.100	23.524	0.099
536.200	25.998	0.099
536.300	8.214	0.099
536.400	12.089	0.099
536.500	21.082	0.099
536.600	19.719	0.099
536.700	22.689	0.099
536.800	24.843	0.099
536.900	23.144	0.099
537.000	2.168	0.099
537.100	25.444	0.099
537.200	21.843	0.099
537.300	31.025	0.099
537.400	25.532	0.099
537.500	24.688	0.099
537.600	22.288	0.099
537.700	19.060	0.099
537.800	6.054	0.099
537.900	44.683	0.099
538.000	22.166	0.099
538.100	20.984	0.099
538.200	23.632	0.099
538.300	3.796	0.099
538.400	14.990	0.099
538.500	24.575	0.099
538.600	-0.977	0.099
538.700	24.363	0.099
538.800	8.667	0.099
538.900	25.301	0.099
539.000	9.573	0.099
539.100	23.697	0.099
539.200	24.210	0.099
539.300	9.582	0.099
539.400	23.590	0.099
539.500	12.980	0.099
539.600	7.111	0.099
539.700	20.975	0.099
539.800	14.598	0.099
539.900	16.246	0.099
540.000	23.467	0.099
540.100	5.559	0.099
540.200	-7.740	0.099
540.300	4.671	0.099
540.400	10.828	0.099
540.500	-21.191	0.099
540.600	-6.279	0.099
540.700	4.119	0.099
540.800	-16.746	0.099
540.900	10.176	0.099
541.000	1.760	0.099
541.100	-19.490	0.099
541.200	-10.136	0.099
541.300	-1.264	0.099
541.400	-12.385	0.099
541.500	-23.705	0.099
541.600	-1.733	0.099
541.700	-12.423	0.099
541.800	-18.968	0.099
541.900	-17.130	0.099
542.000	-25.298	0.099
542.100	-9.100	0.099
542.200	-19.299	0.099
542.300	-11.170	0.099
542.400	-15.722	0.099
542.500	-3.389	0.099
542.600	-1.782	0.099
542.700	-20.105	0.099
542.800	-9.710	0.099
542.900	-13.887	0.099
543.000	-19.279	0.099
543.100	-16.483	0.099
543.200	-24.925	0.099
543.300	-17.644	0.099
543.400	-15.632	0.099
543.500	-21.630	0.099
543.600	-8.543	0.099
543.700	-19.030	0.099
543.800	-19.954	0.099
543.900	-23.739	0.099
544.000	-14.892	0.099
544.100	-6.528	0.099
544.200	-24.437	0.099
544.300	-17.431	0.099
544.400	-24.409	0.099
544.500	-25.452	0.099
544.600	-20.011	0.099
544.700	-21.152	0.099
544.800	-10.715	0.099
544.900	-10.817	0.099
545.000	-31.930	0.099
545.100	-10.691	0.099
545.200	-28.106	0.099
545.300	-32.621	0.099
545.400	-15.692	0.099
545.500	-17.695	0.099
545.600	-20.403	0.099
545.700	-16.545	0.099
545.800	-19.469	0.099
545.900	-37.105	0.099
546.000	-14.955	0.099
546.100	-13.830	0.099
546.200	-13.742	0.099
546.300	-16.043	0.099
546.400	-16.903	0.099
546.500	-16.577	0.099
546.600	-11.768	0.099
546.700	-16.567	0.099
546.800	-21.888	0.099
546.900	-18.036	0.099
547.000	-22.551	0.099
547.100	-25.277	0.099
547.200	-7.420	0.099
547.300	-24.844	0.099
547.400	-3.598	0.099
547.500	-8.689	0.099
547.600	-9.261	0.099
547.700	-15.603	0.099
547.800	-19.726	0.099
547.900	-19.520	0.099
548.000	-16.140	0.099
548.100	-18.385	0.099
548.200	-4.390	0.099
548.300	-10.228	0.099
548.400	-16.628	0.099
548.500	-17.574	0.099
548.600	-20.004	0.099
548.700	-6.005	0.099
548.800	-22.729	0.099
548.900	4.576	0.099
549.000	-15.147	0.099
549.100	-5.576	0.099
549.200	-15.152	0.099
549.300	1.587	0.099
549.400	-7.280	0.099
549.500	-14.383	0.099
549.600	-8.635	0.099
549.700	-1.300	0.099
549.800	-5.230	0.099
549.900	-17.080	0.099
550.000	-4.840	0.099
550.100	-15.256	0.099
550.200	-8.497	0.099
550.300	-7.693	0.099
550.400	-16.556	0.099
550.500	-23.611	0.099
550.600	-3.776	0.099
550.700	-18.533	0.099
550.800	-16.137	0.099
550.900	-10.343	0.099
551.000	-6.358	0.099
551.100	-1.643	0.099
551.200	-0.279	0.099
551.300	-0.476	0.099
551.400	-12.528	0.099
551.500	-11.440	0.099
551.600	-25.419	0.099
551.700	-5.705	0.099
551.800	-11.112	0.099
551.900	-0.637	0.099
552.000	-8.078	0.099
552.100	-12.436	0.099
552.200	-18.059	0.099
552.300	-4.172	0.099
552.400	-17.661	0.099
552.500	3.231	0.099
552.600	-9.023	0.099
552.700	-25.367	0.099
552.800	2.986	0.099
552.900	-18.454	0.099
553.000	-10.489	0.099
553.100	-13.128	0.099
553.200	-2.282	0.099
553.300	-6.618	0.099
553.400	-18.299	0.099
553.500	-16.390	0.099
553.600	-14.744	0.099
553.700	0.807	0.099
553.800	-19.595	0.099
553.900	-23.782	0.099
554.000	3.858	0.099
554.100	-14.288	0.099
554.200	-11.346	0.099
554.300	-16.107	0.099
554.400	-7.817	0.099
554.500	-10.501	0.099
554.600	-11.080	0.099
554.700	-5.348	0.099
554.800	-1.208	0.099
554.900	-12.642	0.099
555.000	-2.445	0.099
555.100	0.404	0.099
555.200	-15.824	0.099
555.300	-12.226	0.099
555.400	-16.220	0.099
555.500	-16.528	0.099
555.600	-12.906	0.099
555.700	-10.566	0.099
555.800	-7.405	0.099
555.900	-11.570	0.099
556.000	-12.405	0.099
556.100	-18.183	0.099
556.200	-6.216	0.099
556.300	-14.428	0.099
556.400	-10.516	0.099
556.500	-12.102	0.099
556.600	-4.940	0.099
556.700	6.922	0.099
556.800	-5.617	0.099
556.900	-6.329	0.099
557.000	-10.147	0.099
557.100	-9.115	0.099
557.200	-6.338	0.099
557.300	-17.051	0.099
557.400	-4.759	0.099
557.500	-4.464	0.099
557.600	-1.092	0.099
557.700	-14.508	0.099
557.800	-6.247	0.099
557.900	-12.182	0.099
558.000	-10.688	0.099
558.100	-12.329	0.099
558.200	-7.267	0.099
558.300	-12.390	0.099
558.400	-6.016	0.099
558.500	-12.306	0.099
558.600	-4.830	0.099
558.700	0.715	0.099
558.800	-10.897	0.099
558.900	-9.272	0.099
559.000	-8.942	0.099
559.100	-18.881	0.099
559.200	-17.673	0.099
559.300	-14.850	0.099
559.400	-7.099	0.099
559.500	-10.529	0.099
559.600	-6.082	0.099
559.700	-2.132	0.099
559.800	-5.494	0.099
559.900	-6.827	0.099
560.000	-3.079	0.099
560.100	-13.573	0.099
560.200	-20.081	0.099
560.300	-10.490	0.099
560.400	-15.040	0.099
560.500	-8.967	0.099
560.600	-13.596	0.099
560.700	-7.718	0.099
560.800	-17.671	0.099
560.900	-10.452	0.099
561.000	-12.709	0.099
561.100	5.368	0.099
561.200	-6.854	0.099
561.300	-11.695	0.099
561.400	-10.371	0.099
561.500	0.335	0.099
561.600	-5.234	0.099
561.700	-15.920	0.099
561.800	-1.024	0.099
561.900	-13.988	0.099
562.000	-12.187	0.099
562.100	-18.263	0.099
562.200	-24.073	0.099
562.300	-19.816	0.099
562.400	-1.954	0.099
562.500	1.654	0.099
562.600	-15.739	0.099
562.700	-21.160	0.099
562.800	-8.058	0.099
562.900	-14.622	0.099
563.000	2.190	0.099
563.100	-12.164	0.099
563.200	-19.122	0.099
563.300	-13.238	0.099
563.400	-15.474	0.099
563.500	-27.325	0.099
563.600	-17.456	0.099
563.700	-15.379	0.099
563.800	-8.869	0.099
563.900	-18.650	0.099
564.000	-12.761	0.099
564.100	-14.534	0.099
564.200	7.425	0.099
564.300	-12.119	0.099
564.400	-17.833	0.099
564.500	-7.888	0.099
564.600	-20.566	0.099
564.700	-8.932	0.099
564.800	-14.196	0.099
564.900	4.687	0.099
565.000	-10.571	0.099
565.100	-9.349	0.099
565.200	-13.694	0.099
565.300	-17.512	0.099
565.400	-21.978	0.099
565.500	-6.294	0.099
565.600	-6.990	0.099
565.700	-8.726	0.099
565.800	-11.801	0.099
565.900	-6.176	0.099
566.000	-7.080	0.099
566.100	-12.617	0.099
566.200	-11.807	0.099
566.300	-10.898	0.099
566.400	-23.977	0.099
566.500	-22.980	0.099
566.600	-18.172	0.099
566.700	-10.877	0.099
566.800	-15.873	0.099
566.900	-17.899	0.099
567.000	1.610	0.099
567.100	-5.151	0.099
567.200	-16.823	0.099
567.300	-2.888	0.099
567.400	-9.203	0.099
567.500	-6.852	0.099
567.600	-19.841	0.099
567.700	3.787	0.099
567.800	-19.197	0.099
567.900	-12.466	0.099
568.000	0.760	0.099
568.100	-18.005	0.099
568.200	-16.264	0.099
568.300	-23.038	0.099
568.400	-7.399	0.099
568.500	1.619	0.099
568.600	-10.319	0.099
568.700	-20.852	0.099
568.800	-26.304	0.099
568.900	-3.060	0.099
569.000	-1.899	0.099
569.100	-10.921	0.099
569.200	-14.794	0.099
569.300	-9.707	0.099
569.400	-5.819	0.099
569.500	-10.584	0.099
569.600	-13.246	0.099
569.700	-10.026	0.099
569.800	-4.465	0.099
569.900	-10.865	0.099
570.000	-6.193	0.099
570.100	-9.901	0.099
570.200	-19.107	0.099
570.300	-22.053	0.099
570.400	-5.914	0.099
570.500	-10.477	0.099
570.600	-15.307	0.099
570.700	-8.772	0.099
570.800	-19.670	0.099
570.900	-1.937	0.099
571.000	-12.611	0.099
571.100	-3.655	0.099
571.200	-4.760	0.099
571.300	-17.048	0.099
571.400	-14.313	0.099
571.500	-8.415	0.099
571.600	-10.831	0.099
571.700	-7.186	0.100
571.800	-14.843	0.099
571.900	-20.961	0.099
572.000	-6.223	0.099
572.100	-8.419	0.099
572.200	-25.661	0.099
572.300	-15.898	0.099
572.400	-10.573	0.099
572.500	-18.158	0.099
572.600	-12.479	0.099
572.700	-7.937	0.099
572.800	-9.637	0.099
572.900	-8.740	0.099
573.000	-2.150	0.099
573.100	-17.992	0.099
573.200	-13.015	0.099
573.300	-9.593	0.099
573.400	-14.359	0.099
573.500	-13.765	0.099
573.600	-24.661	0.099
573.700	-12.222	0.099
573.800	-11.329	0.099
573.900	-10.659	0.099
574.000	-8.676	0.099
574.100	-15.435	0.099
574.200	6.750	0.099
574.300	-16.539	0.099
574.400	-15.569	0.099
574.500	-13.453	0.099
574.600	-12.620	0.099
574.700	-16.750	0.099
574.800	-15.223	0.099
574.900	-21.703	0.099
575.000	-14.623	0.099
575.100	-14.024	0.099
575.200	-14.533	0.099
575.300	-8.068	0.099
575.400	-3.062	0.099
575.500	-20.149	0.099
575.600	-10.520	0.099
575.700	-15.202	0.099
575.800	-6.005	0.099
575.900	-16.043	0.099
576.000	-12.975	0.099
576.100	-16.593	0.099
576.200	-9.782	0.099
576.300	-6.908	0.099
576.400	-16.811	0.099
576.500	-6.561	0.099
576.600	-13.859	0.099
576.700	-12.064	0.099
576.800	-1.445	0.099
576.900	-14.166	0.099
577.000	-17.658	0.099
577.100	-11.526	0.099
577.200	-10.074	0.099
577.300	-18.349	0.099
577.400	-27.113	0.099
577.500	-7.250	0.099
577.600	-3.629	0.099
577.700	-16.265	0.099
577.800	-2.144	0.099
577.900	-16.033	0.099
578.000	5.190	0.099
578.100	-16.120	0.099
578.200	-19.295	0.099
578.300	-7.560	0.099
578.400	-23.366	0.099
578.500	-15.467	0.099
578.600	-22.963	0.099
578.700	-12.090	0.099
578.800	-11.332	0.099
578.900	-11.660	0.099
579.000	-3.877	0.099
579.100	-11.295	0.099
579.200	-16.722	0.099
579.300	3.955	0.099
579.400	-18.651	0.099
579.500	-2.434	0.099
579.600	-6.363	0.099
579.700	-20.843	0.099
579.800	-6.035	0.099
579.900	-15.327	0.099
580.000	-10.218	0.099
580.100	-20.118	0.099
580.200	-4.132	0.099
580.300	-4.424	0.099
580.400	-13.906	0.099
580.500	-47.055	0.099
580.600	-2.956	0.099
580.700	-2.434	0.099
580.800	-15.766	0.099
580.900	-6.978	0.099
581.000	-7.545	0.099
581.100	-8.091	0.099
581.200	-14.314	0.099
581.300	-21.013	0.099
581.400	-12.860	0.099
581.500	-5.838	0.099
581.600	-6.869	0.099
581.700	1.601	0.099
581.800	-19.207	0.099
581.900	-13.761	0.099
582.000	-3.558	0.099
582.100	-9.495	0.099
582.200	-10.057	0.099
582.300	-11.983	0.099
582.400	-5.249	0.099
582.500	-15.362	0.099
582.600	-12.263	0.099
582.700	-4.414	0.099
582.800	-10.152	0.099
582.900	-17.703	0.099
583.000	-4.179	0.099
583.100	-2.105	0.099
583.200	-12.672	0.099
583.300	-30.803	0.099
583.400	-4.325	0.099
583.500	-16.694	0.099
583.600	-26.793	0.099
583.700	-11.030	0.099
583.800	-11.709	0.099
583.900	-8.493	0.099
584.000	-25.243	0.099
584.100	-10.482	0.099
584.200	-5.740	0.099
584.300	-11.481	0.099
584.400	-5.637	0.099
584.500	-6.545	0.099
584.600	12.010	0.099
584.700	-12.436	0.099
584.800	-12.320	0.099
584.900	2.196	0.099
585.000	-19.442	0.099
585.100	7.811	0.099
585.200	-18.356	0.099
585.300	-10.627	0.099
585.400	-2.334	0.099
585.500	7.331	0.099
585.600	-7.960	0.099
585.700	-9.913	0.099
585.800	-6.457	0.099
585.900	-6.047	0.099
586.000	2.494	0.099
586.100	-0.900	0.099
586.200	1.984	0.099
586.300	-13.852	0.099
586.400	-9.592	0.099
586.500	-0.679	0.099
586.600	-14.938	0.099
586.700	-23.431	0.099
586.800	-22.198	0.099
586.900	-0.221	0.099
587.000	-7.717	0.099
587.100	-10.972	0.099
587.200	-1.085	0.099
587.300	-15.476	0.099
587.400	-7.985	0.099
587.500	-7.582	0.099
587.600	-11.628	0.099
587.700	-7.543	0.099
587.800	3.586	0.099
587.900	-20.182	0.099
588.000	-4.578	0.099
588.100	-1.201	0.099
588.200	-8.733	0.099
588.300	-9.704	0.099
588.400	-13.663	0.099
588.500	-16.878	0.099
588.600	-21.151	0.099
588.700	-0.378	0.099
588.800	-22.306	0.099
588.900	-12.854	0.099
589.000	-9.644	0.099
589.100	5.760	0.099
589.200	1.054	0.099
589.300	-9.185	0.099
589.400	-20.749	0.099
589.500	-7.112	0.099
589.600	-4.111	0.099
589.700	-6.811	0.099
589.800	-6.558	0.099
589.900	-3.733	0.099
590.000	-11.570	0.099
590.100	-2.930	0.099
590.200	-28.087	0.099
590.300	-4.795	0.099
590.400	-9.481	0.099
590.500	-17.031	0.099
590.600	-11.178	0.099
590.700	-5.257	0.099
590.800	-3.503	0.099
590.900	-12.274	0.099
591.000	-14.279	0.099
591.100	-15.065	0.099
591.200	-5.821	0.099
591.300	-1.612	0.099
591.400	-6.716	0.099
591.500	-9.329	0.099
591.600	-7.544	0.099
591.700	-19.974	0.099
591.800	-0.091	0.099
591.900	-15.257	0.099
592.000	-14.922	0.099
592.100	-11.596	0.099
592.200	-15.904	0.099
592.300	-5.087	0.099
592.400	-26.135	0.099
592.500	-3.948	0.099
592.600	-18.685	0.099
592.700	-3.769	0.099
592.800	-23.795	0.099
592.900	13.582	0.099
593.000	-10.709	0.099
593.100	-12.344	0.099
593.200	-2.117	0.099
593.300	-4.507	0.099
593.400	-9.576	0.099
593.500	0.072	0.099
593.600	-33.982	0.099
593.700	-10.248	0.099
593.800	-15.495	0.099
593.900	5.473	0.099
594.000	1.965	0.099
594.100	-24.804	0.099
594.200	2.895	0.099
594.300	-3.856	0.099
594.400	-0.540	0.099
594.500	-16.047	0.099
594.600	-11.742	0.099
594.700	-9.565	0.099
594.800	-8.466	0.099
594.900	-17.593	0.099
595.000	1.886	0.099
595.100	-4.510	0.099
595.200	-11.532	0.099
595.300	-9.401	0.099
595.400	-1.078	0.099
595.500	-2.091	0.099
595.600	-5.285	0.099
595.700	-4.902	0.099
595.800	-12.442	0.099
595.900	-6.504	0.099
596.000	-15.359	0.099
596.100	-14.908	0.099
596.200	-0.819	0.099
596.300	-4.330	0.099
596.400	-27.014	0.099
596.500	0.969	0.099
596.600	-9.211	0.099
596.700	-26.199	0.099
596.800	1.690	0.099
596.900	-22.821	0.099
597.000	1.587	0.099
597.100	-18.979	0.099
597.200	-13.987	0.099
597.300	-9.846	0.099
597.400	-8.834	0.099
597.500	-13.584	0.099
597.600	6.526	0.099
597.700	5.845	0.099
597.800	-8.698	0.099
597.900	-0.469	0.099
598.000	-9.659	0.099
598.100	-3.226	0.099
598.200	-7.810	0.099
598.300	-14.835	0.099
598.400	-0.157	0.099
598.500	-17.499	0.099
598.600	-2.254	0.099
598.700	-3.384	0.099
598.800	8.382	0.099
598.900	-10.888	0.099
599.000	12.472	0.099
599.100	-24.655	0.099
599.200	-11.833	0.099
599.300	-0.847	0.099
599.400	-9.618	0.099
599.500	-12.291	0.099
599.600	-9.684	0.099
599.700	-21.582	0.099
599.800	-6.919	0.099
599.900	-3.802	0.099
600.000	-19.490	0.099
600.100	-8.129	0.099
600.200	-7.769	0.099
600.300	-11.261	0.099
600.400	-7.659	0.099
600.500	-15.218	0.099
600.600	-7.065	0.099
600.700	-8.150	0.099
600.800	9.151	0.099
600.900	5.166	0.099
601.000	-9.477	0.099
601.100	-11.287	0.099
601.200	-9.538	0.099
601.300	-2.538	0.099
601.400	4.893	0.099
601.500	-11.908	0.099
601.600	-0.628	0.099
601.700	4.387	0.099
601.800	-3.708	0.099
601.900	-13.192	0.099
602.000	-10.874	0.099
602.100	-9.026	0.099
602.200	-10.230	0.099
602.300	0.957	0.099
602.400	-13.032	0.099
602.500	-14.613	0.099
602.600	-1.268	0.099
602.700	-15.566	0.099
602.800	-12.655	0.099
602.900	-16.207	0.099
603.000	1.621	0.099
603.100	-4.572	0.099
603.200	-1.838	0.099
603.300	-3.590	0.099
603.400	-3.566	0.099
603.500	-12.434	0.099
603.600	-5.569	0.099
603.700	-15.978	0.099
603.800	-7.185	0.099
603.900	-13.663	0.099
604.000	6.524	0.099
604.100	0.656	0.099
604.200	-16.381	0.099
604.300	-6.521	0.099
604.400	-13.331	0.099
604.500	-3.723	0.099
604.600	-5.533	0.099
604.700	-7.824	0.099
604.800	-19.172	0.099
604.900	-11.488	0.099
605.000	-12.713	0.099
605.100	-14.987	0.099
605.200	-2.550	0.099
605.300	-11.878	0.099
605.400	-10.592	0.099
605.500	1.167	0.099
605.600	4.707	0.099
605.700	-6.047	0.099
605.800	-13.318	0.099
605.900	-3.831	0.099
606.000	-4.366	0.099
606.100	-2.017	0.099
606.200	4.863	0.099
606.300	-2.296	0.099
606.400	2.286	0.099
606.500	-22.232	0.099
606.600	-12.115	0.099
606.700	-7.647	0.099
606.800	-1.553	0.099
606.900	-9.422	0.099
607.000	-6.815	0.099
607.100	-9.173	0.099
607.200	0.125	0.099
607.300	0.991	0.099
607.400	-5.369	0.099
607.500	-18.979	0.099
607.600	-10.344	0.099
607.700	-1.998	0.099
607.800	3.201	0.099
607.900	-5.238	0.099
608.000	-9.058	0.099
608.100	-6.243	0.099
608.200	-9.373	0.099
608.300	-16.153	0.099
608.400	-0.793	0.099
608.500	-7.006	0.099
608.600	-7.492	0.099
608.700	-14.339	0.099
608.800	-9.255	0.099
608.900	0.144	0.099
609.000	-5.892	0.099
609.100	-7.549	0.099
609.200	-6.452	0.099
609.300	-7.669	0.099
609.400	-14.405	0.099
609.500	-3.594	0.099
609.600	-4.789	0.099
609.700	-3.695	0.099
609.800	-14.901	0.099
609.900	-9.501	0.099
610.000	-16.968	0.099
610.100	8.646	0.099
610.200	-11.372	0.099
610.300	-9.258	0.099
610.400	-6.748	0.099
610.500	-1.237	0.099
610.600	3.344	0.099
610.700	-9.627	0.099
610.800	-16.574	0.099
610.900	-14.022	0.099
611.000	-27.279	0.099
611.100	-2.875	0.099
611.200	-24.221	0.099
611.300	10.775	0.099
611.400	-2.848	0.099
611.500	-21.942	0.099
611.600	-1.734	0.099
611.700	-14.226	0.099
611.800	-16.927	0.099
611.900	-0.044	0.099
612.000	4.538	0.099
612.100	-7.877	0.099
612.200	-10.837	0.099
612.300	-9.217	0.099
612.400	-6.312	0.099
612.500	0.003	0.099
612.600	-2.984	0.099
612.700	-8.370	0.099
612.800	-16.015	0.099
612.900	-6.976	0.099
613.000	-13.949	0.099
613.100	0.513	0.099
613.200	-7.739	0.099
613.300	-1.685	0.099
613.400	-2.466	0.099
613.500	-3.427	0.099
613.600	2.018	0.099
613.700	-1.351	0.099
613.800	-6.103	0.099
613.900	1.696	0.099
614.000	7.524	0.099
614.100	4.974	0.099
614.200	0.858	0.099
614.300	-4.525	0.099
614.400	-6.906	0.099
614.500	-4.391	0.099
614.600	-6.153	0.099
614.700	-11.962	0.099
614.800	-3.794	0.099
614.900	-13.706	0.099
615.000	-9.423	0.099
615.100	0.967	0.099
615.200	-10.307	0.099
615.300	-11.132	0.099
615.400	-3.207	0.099
615.500	2.425	0.099
615.600	-14.989	0.099
615.700	-4.700	0.099
615.800	-13.866	0.099
615.900	-23.125	0.099
616.000	3.285	0.099
616.100	-5.763	0.099
616.200	6.813	0.099
616.300	-14.109	0.099
616.400	12.923	0.099
616.500	-12.054	0.099
616.600	-18.981	0.099
616.700	-1.860	0.099
616.800	-6.869	0.099
616.900	-10.138	0.099
617.000	0.101	0.099
617.100	-11.320	0.099
617.200	-20.735	0.099
617.300	0.014	0.099
617.400	-18.908	0.099
617.500	-10.166	0.099
617.600	5.701	0.099
617.700	-11.113	0.099
617.800	-10.924	0.099
617.900	-5.029	0.099
618.000	-7.061	0.099
618.100	3.278	0.099
618.200	-16.472	0.099
618.300	-10.247	0.099
618.400	6.092	0.099
618.500	-3.516	0.099
618.600	-1.222	0.099
618.700	-2.422	0.099
618.800	-13.045	0.099
618.900	-3.629	0.099
619.000	11.228	0.099
619.100	-4.476	0.099
619.200	-13.429	0.099
619.300	-4.784	0.099
619.400	3.975	0.099
619.500	-7.982	0.099
619.600	-0.751	0.099
619.700	-7.505	0.099
619.800	-19.174	0.099
619.900	-8.428	0.099
620.000	-0.984	0.099
620.100	-2.313	0.099
620.200	6.956	0.099
620.300	-4.267	0.099
620.400	3.162	0.099
620.500	-9.207	0.099
620.600	-20.384	0.099
620.700	6.650	0.099
620.800	-8.158	0.099
620.900	-10.997	0.099
621.000	-5.405	0.099
621.100	-1.809	0.099
621.200	-8.678	0.099
621.300	3.086	0.099
621.400	-3.116	0.099
621.500	-8.694	0.099
621.600	-12.505	0.099
621.700	13.220	0.099
621.800	-5.806	0.099
621.900	-3.957	0.099
622.000	-9.263	0.099
622.100	-15.286	0.099
622.200	7.692	0.099
622.300	-6.378	0.099
622.400	-9.733	0.099
622.500	-8.674	0.099
622.600	-5.663	0.099
622.700	-0.949	0.099
622.800	-11.303	0.099
622.900	-10.199	0.099
623.000	-5.613	0.099
623.100	-3.825	0.099
623.200	-1.908	0.099
623.300	3.204	0.099
623.400	-4.668	0.099
623.500	-3.043	0.099
623.600	1.361	0.099
623.700	-3.129	0.099
623.800	1.716	0.099
623.900	-3.184	0.099
624.000	-3.398	0.099
624.100	5.455	0.099
624.200	-16.167	0.099
624.300	-6.722	0.099
624.400	0.489	0.099
624.500	-7.647	0.099
624.600	3.243	0.099
624.700	-3.343	0.099
624.800	-11.651	0.099
624.900	-0.739	0.099
625.000	-11.713	0.099
625.100	-14.097	0.099
625.200	14.180	0.099
625.300	10.766	0.099
625.400	9.364	0.099
625.500	-6.463	0.099
625.600	-13.828	0.099
625.700	-0.992	0.099
625.800	-4.157	0.099
625.900	4.002	0.099
626.000	-8.712	0.099
626.100	3.389	0.099
626.200	-15.564	0.099
626.300	-3.900	0.099
626.400	4.081	0.099
626.500	-6.369	0.099
626.600	-10.488	0.099
626.700	-5.352	0.099
626.800	-8.947	0.099
626.900	1.692	0.099
627.000	-8.084	0.099
627.100	0.357	0.099
627.200	-13.343	0.099
627.300	-3.977	0.099
627.400	-9.103	0.099
627.500	-3.975	0.099
627.600	-6.544	0.099
627.700	-13.389	0.099
627.800	-0.961	0.099
627.900	0.170	0.099
628.000	-14.456	0.099
628.100	-14.122	0.099
628.200	-1.273	0.099
628.300	-6.934	0.099
628.400	-9.452	0.099
628.500	-7.406	0.099
628.600	-0.616	0.099
628.700	7.795	0.099
628.800	-2.517	0.099
628.900	6.972	0.099
629.000	-10.866	0.099
629.100	-5.458	0.099
629.200	-10.646	0.099
629.300	13.738	0.099
629.400	-14.536	0.099
629.500	8.562	0.099
629.600	5.042	0.099
629.700	-4.314	0.099
629.800	-4.792	0.099
629.900	-1.987	0.099
630.000	11.254	0.099
630.100	13.436	0.099
630.200	8.204	0.099
630.300	10.493	0.099
630.400	7.501	0.099
630.500	15.646	0.099
630.600	19.358	0.099
630.700	32.166	0.099
630.800	28.850	0.099
630.900	29.696	0.099
631.000	31.743	0.099
631.100	31.998	0.099
631.200	26.303	0.099
631.300	23.014	0.099
631.400	48.734	0.099
631.500	35.248	0.099
631.600	18.955	0.099
631.700	29.163	0.099
631.800	33.034	0.099
631.900	34.773	0.099
632.000	39.363	0.099
632.100	17.462	0.099
632.200	7.126	0.099
632.300	34.727	0.099
632.400	17.611	0.099
632.500	16.922	0.099
632.600	34.953	0.099
632.700	25.392	0.099
632.800	32.146	0.099
632.900	31.919	0.099
633.000	13.492	0.099
633.100	27.956	0.099
633.200	36.903	0.099
633.300	25.759	0.099
633.400	32.149	0.099
633.500	32.892	0.099
633.600	33.013	0.099
633.700	21.106	0.099
633.800	30.387	0.099
633.900	22.198	0.099
634.000	38.473	0.099
634.100	26.532	0.099
634.200	12.595	0.099
634.300	14.560	0.099
634.400	4.703	0.099
634.500	23.163	0.099
634.600	36.358	0.099
634.700	15.165	0.099
634.800	33.340	0.099
634.900	35.028	0.099
635.000	30.091	0.099
635.100	9.592	0.099
635.200	21.829	0.099
635.300	22.915	0.099
635.400	5.219	0.099
635.500	19.500	0.099
635.600	24.171	0.099
635.700	14.542	0.099
635.800	6.259	0.099
635.900	24.276	0.099
636.000	21.787	0.099
636.100	19.575	0.099
636.200	6.522	0.099
636.300	14.084	0.099
636.400	15.878	0.099
636.500	12.998	0.099
636.600	30.625	0.099
636.700	26.793	0.099
636.800	19.889	0.099
636.900	21.020	0.099
637.000	18.723	0.099
637.100	24.131	0.099
637.200	1.423	0.099
637.300	11.161	0.099
637.400	11.566	0.099
637.500	9.915	0.099
637.600	14.933	0.099
637.700	19.804	0.099
637.800	24.226	0.099
637.900	20.665	0.099
638.000	16.671	0.099
638.100	11.830	0.099
638.200	4.270	0.099
638.300	22.584	0.099
638.400	25.288	0.099
638.500	19.693	0.099
638.600	11.513	0.099
638.700	41.467	0.099
638.800	22.618	0.099
638.900	3.949	0.099
639.000	28.601	0.099
639.100	9.482	0.099
639.200	23.508	0.099
639.300	29.895	0.099
639.400	22.049	0.099
639.500	27.190	0.099
639.600	18.877	0.099
639.700	26.714	0.099
639.800	20.552	0.099
639.900	22.578	0.099
640.000	14.653	0.099
640.100	25.808	0.099
640.200	21.354	0.099
640.300	21.340	0.099
640.400	26.503	0.099
640.500	24.079	0.099
640.600	33.880	0.099
640.700	23.408	0.099
640.800	15.230	0.099
640.900	22.262	0.099
641.000	30.578	0.099
641.100	22.037	0.099
641.200	21.259	0.099
641.300	29.483	0.099
641.400	35.878	0.099
641.500	33.060	0.099
641.600	17.258	0.099
641.700	28.067	0.099
641.800	26.157	0.099
641.900	16.800	0.099
642.000	26.672	0.099
642.100	21.020	0.099
642.200	25.110	0.099
642.300	15.823	0.099
642.400	35.007	0.099
642.500	25.806	0.099
642.600	35.498	0.099
642.700	24.142	0.099
642.800	21.766	0.099
642.900	19.333	0.099
643.000	13.969	0.099
643.100	16.228	0.099
643.200	15.092	0.099
643.300	26.552	0.099
643.400	13.149	0.099
643.500	25.887	0.099
643.600	30.344	0.099
643.700	12.007	0.099
643.800	33.955	0.099
643.900	17.837	0.099
644.000	12.905	0.099
644.100	23.765	0.099
644.200	29.673	0.099
644.300	21.642	0.099
644.400	16.618	0.099
644.500	26.411	0.099
644.600	23.461	0.099
644.700	29.182	0.099
644.800	26.332	0.099
644.900	27.568	0.099
645.000	17.439	0.099
645.100	16.356	0.099
645.200	14.059	0.099
645.300	23.063	0.099
645.400	24.903	0.099
645.500	9.041	0.099
645.600	21.799	0.099
645.700	18.092	0.099
645.800	27.542	0.099
645.900	22.436	0.099
646.000	29.600	0.099
646.100	15.083	0.099
646.200	17.285	0.099
646.300	13.609	0.099
646.400	22.688	0.099
646.500	23.165	0.099
646.600	18.638	0.099
646.700	15.781	0.099
646.800	19.234	0.099
646.900	7.524	0.099
647.000	22.167	0.099
647.100	8.338	0.099
647.200	23.911	0.099
647.300	25.216	0.099
647.400	26.593	0.099
647.500	27.199	0.099
647.600	28.865	0.099
647.700	24.402	0.099
647.800	32.813	0.099
647.900	30.398	0.099
648.000	32.617	0.099
648.100	29.140	0.099
648.200	33.942	0.099
648.300	30.169	0.099
648.400	15.201	0.099
648.500	30.028	0.099
648.600	16.189	0.099
648.700	40.202	0.099
648.800	26.323	0.099
648.900	33.499	0.099
649.000	31.633	0.099
649.100	20.057	0.099
649.200	31.315	0.099
649.300	32.873	0.099
649.400	29.530	0.099
649.500	33.860	0.099
649.600	15.555	0.099
649.700	19.505	0.099
649.800	29.895	0.099
649.900	26.356	0.099
650.000	22.558	0.099
650.100	21.855	0.099
650.200	27.926	0.099
650.300	22.784	0.099
650.400	16.415	0.099
650.500	41.359	0.099
650.600	19.775	0.099
650.700	24.996	0.099
650.800	17.812	0.099
650.900	28.435	0.099
651.000	32.528	0.099
651.100	15.812	0.099
651.200	13.583	0.099
651.300	29.882	0.099
651.400	22.706	0.099
651.500	22.243	0.099
651.600	19.583	0.099
651.700	23.333	0.099
651.800	16.299	0.099
651.900	15.543	0.099
652.000	29.798	0.099
652.100	19.181	0.099
652.200	25.606	0.099
652.300	13.279	0.099
652.400	24.756	0.099
652.500	22.499	0.099
652.600	28.600	0.099
652.700	23.655	0.099
652.800	33.846	0.099
652.900	32.671	0.099
653.000	24.703	0.099
653.100	45.190	0.099
653.200	32.108	0.099
653.300	22.581	0.099
653.400	20.618	0.099
653.500	21.440	0.099
653.600	25.554	0.099
653.700	23.345	0.099
653.800	19.594	0.099
653.900	17.687	0.099
654.000	13.066	0.099
654.100	18.005	0.099
654.200	35.183	0.099
654.300	26.187	0.099
654.400	24.970	0.099
654.500	25.264	0.099
654.600	14.532	0.099
654.700	19.637	0.099
654.800	14.287	0.099
654.900	23.450	0.099
655.000	48.436	0.099
655.100	23.477	0.099
655.200	34.074	0.099
655.300	39.141	0.099
655.400	18.680	0.099
655.500	24.323	0.099
655.600	20.556	0.099
655.700	25.752	0.099
655.800	28.189	0.099
655.900	25.192	0.099
656.000	24.475	0.099
656.100	9.387	0.099
656.200	19.126	0.099
656.300	25.499	0.099
656.400	18.178	0.099
656.500	24.274	0.099
656.600	29.802	0.099
656.700	39.248	0.099
656.800	19.268	0.099
656.900	23.630	0.099
657.000	34.564	0.099
657.100	18.779	0.099
657.200	19.368	0.099
657.300	9.350	0.099
657.400	16.006	0.099
657.500	21.455	0.099
657.600	16.816	0.099
657.700	16.287	0.099
657.800	18.504	0.099
657.900	19.907	0.099
658.000	21.193	0.099
658.100	20.365	0.099
658.200	15.308	0.099
658.300	41.081	0.099
658.400	20.763	0.099
658.500	24.261	0.099
658.600	16.305	0.099
658.700	20.681	0.099
658.800	30.453	0.099
658.900	30.726	0.099
659.000	26.018	0.099
659.100	20.625	0.099
659.200	20.399	0.099
659.300	25.245	0.099
659.400	29.833	0.099
659.500	11.227	0.099
659.600	27.200	0.099
659.700	26.621	0.099
659.800	22.356	0.099
659.900	16.911	0.099
660.000	10.158	0.099
660.100	15.232	0.099
660.200	29.899	0.099
660.300	18.971	0.099
660.400	24.169	0.099
660.500	21.238	0.099
660.600	16.630	0.099
660.700	16.975	0.099
660.800	19.955	0.099
660.900	29.441	0.099
661.000	27.243	0.099
661.100	12.022	0.099
661.200	21.344	0.099
661.300	15.751	0.099
661.400	13.917	0.099
661.500	12.782	0.099
661.600	25.752	0.099
661.700	16.513	0.099
661.800	15.807	0.099
661.900	18.817	0.099
662.000	9.697	0.099
662.100	29.022	0.099
662.200	14.075	0.099
662.300	11.402	0.099
662.400	14.206	0.099
662.500	14.860	0.099
662.600	22.165	0.099
662.700	17.551	0.099
662.800	12.381	0.099
662.900	3.598	0.099
663.000	26.392	0.099
663.100	20.307	0.099
663.200	24.828	0.099
663.300	11.596	0.099
663.400	21.300	0.099
663.500	9.987	0.099
663.600	18.660	0.099
663.700	19.833	0.099
663.800	24.413	0.099
663.900	22.081	0.099
664.000	25.856	0.099
664.100	16.604	0.099
664.200	21.278	0.099
664.300	11.011	0.099
664.400	13.041	0.099
664.500	22.194	0.099
664.600	18.167	0.099
664.700	31.596	0.099
664.800	13.317	0.099
664.900	15.869	0.099
665.000	42.480	0.099
665.100	17.314	0.099
665.200	12.341	0.099
665.300	25.259	0.099
665.400	25.241	0.099
665.500	19.169	0.099
665.600	27.384	0.099
665.700	19.009	0.099
665.800	25.705	0.099
665.900	22.826	0.099
666.000	19.768	0.099
666.100	12.995	0.099
666.200	25.057	0.099
666.300	15.484	0.099
666.400	13.209	0.099
666.500	24.289	0.099
666.600	20.314	0.099
666.700	22.475	0.099
666.800	14.057	0.099
666.900	8.663	0.099
667.000	26.659	0.099
667.100	19.336	0.099
667.200	13.075	0.099
667.300	19.571	0.099
667.400	18.328	0.099
667.500	7.481	0.099
667.600	18.279	0.099
667.700	20.283	0.099
667.800	31.034	0.099
667.900	10.822	0.099
668.000	20.439	0.099
668.100	20.354	0.099
668.200	8.489	0.099
668.300	26.449	0.099
668.400	24.014	0.099
668.500	19.486	0.099
668.600	3.068	0.099
668.700	15.316	0.099
668.800	26.019	0.099
668.900	13.437	0.099
669.000	14.217	0.099
669.100	10.444	0.099
669.200	19.487	0.099
669.300	11.518	0.099
669.400	25.610	0.099
669.500	11.173	0.099
669.600	13.329	0.099
669.700	14.949	0.099
669.800	23.771	0.099
669.900	26.043	0.099
670.000	17.718	0.099
670.100	13.573	0.099
670.200	33.517	0.099
670.300	14.303	0.099
670.400	24.059	0.099
670.500	19.476	0.099
670.600	22.439	0.099
670.700	37.981	0.099
670.800	13.646	0.099
670.900	30.390	0.099
671.000	8.275	0.099
671.100	7.600	0.099
671.200	11.463	0.099
671.300	20.224	0.099
671.400	18.563	0.099
671.500	13.828	0.099
671.600	30.573	0.099
671.700	19.799	0.099
671.800	14.215	0.099
671.900	23.760	0.099
672.000	24.287	0.099
672.100	23.204	0.099
672.200	30.511	0.099
672.300	14.928	0.099
672.400	27.861	0.099
672.500	11.927	0.099
672.600	19.484	0.099
672.700	26.659	0.099
672.800	18.515	0.099
672.900	25.174	0.099
673.000	21.802	0.099
673.100	21.207	0.099
673.200	23.585	0.099
673.300	8.759	0.099
673.400	14.716	0.099
673.500	22.420	0.099
673.600	8.078	0.099
673.700	19.346	0.099
673.800	19.925	0.099
673.900	14.584	0.099
674.000	19.410	0.099
674.100	21.911	0.099
674.200	14.994	0.099
674.300	22.676	0.099
674.400	21.665	0.099
674.500	18.754	0.099
674.600	24.119	0.099
674.700	10.013	0.099
674.800	16.341	0.099
674.900	20.495	0.099
675.000	15.776	0.099
675.100	21.608	0.099
675.200	21.368	0.099
675.300	32.630	0.099
675.400	20.340	0.099
675.500	8.279	0.099
675.600	18.220	0.099
675.700	22.629	0.099
675.800	18.945	0.099
675.900	2.836	0.099
676.000	29.439	0.099
676.100	15.812	0.099
676.200	9.329	0.099
676.300	12.070	0.099
676.400	16.614	0.099
676.500	21.899	0.099
676.600	10.564	0.099
676.700	24.645	0.099
676.800	24.117	0.099
676.900	17.763	0.099
677.000	20.358	0.099
677.100	15.264	0.099
677.200	14.078	0.099
677.300	15.125	0.099
677.400	11.506	0.099
677.500	24.831	0.099
677.600	23.619	0.099
677.700	25.495	0.099
677.800	17.962	0.099
677.900	9.058	0.099
678.000	26.950	0.099
678.100	15.054	0.099
678.200	20.550	0.099
678.300	11.715	0.099
678.400	14.323	0.099
678.500	19.759	0.099
678.600	29.372	0.099
678.700	19.629	0.099
678.800	22.069	0.099
678.900	22.554	0.099
679.000	8.805	0.099
679.100	19.947	0.099
679.200	35.290	0.099
679.300	10.125	0.099
679.400	3.531	0.099
679.500	23.922	0.099
679.600	23.898	0.099
679.700	22.447	0.099
679.800	18.485	0.099
679.900	26.927	0.099
680.000	18.190	0.099
680.100	17.188	0.099
680.200	14.524	0.099
680.300	19.192	0.099
680.400	8.301	0.099
680.500	18.836	0.099
680.600	22.265	0.099
680.700	15.160	0.099
680.800	18.552	0.099
680.900	27.373	0.099
681.000	23.730	0.099
681.100	14.719	0.099
681.200	19.618	0.099
681.300	23.405	0.099
681.400	14.399	0.099
681.500	25.299	0.099
681.600	2.534	0.099
681.700	31.266	0.099
681.800	6.151	0.099
681.900	9.513	0.099
682.000	30.763	0.099
682.100	15.083	0.099
682.200	14.468	0.099
682.300	1.470	0.099
682.400	27.799	0.099
682.500	13.286	0.099
682.600	29.583	0.099
682.700	19.748	0.099
682.800	21.171	0.099
682.900	21.040	0.099
683.000	21.898	0.099
683.100	18.910	0.099
683.200	17.098	0.099
683.300	7.975	0.099
683.400	28.505	0.099
683.500	17.819	0.099
683.600	19.105	0.099
683.700	13.272	0.099
683.800	5.483	0.099
683.900	35.412	0.099
684.000	10.485	0.099
684.100	12.486	0.099
684.200	32.123	0.099
684.300	8.661	0.099
684.400	14.156	0.099
684.500	9.920	0.099
684.600	23.699	0.099
684.700	30.858	0.099
684.800	22.259	0.099
684.900	9.703	0.099
685.000	26.626	0.099
685.100	20.731	0.099
685.200	17.793	0.099
685.300	17.975	0.099
685.400	19.059	0.099
685.500	23.796	0.099
685.600	22.573	0.099
685.700	14.926	0.099
685.800	19.696	0.099
685.900	7.669	0.099
686.000	26.843	0.099
686.100	6.967	0.099
686.200	29.162	0.099
686.300	13.726	0.099
686.400	9.733	0.099
686.500	15.942	0.099
686.600	22.698	0.099
686.700	17.503	0.099
686.800	16.376	0.099
686.900	20.503	0.099
687.000	9.827	0.099
687.100	5.273	0.099
687.200	11.189	0.099
687.300	18.643	0.099
687.400	16.087	0.099
687.500	14.715	0.099
687.600	19.256	0.099
687.700	7.597	0.099
687.800	30.850	0.099
687.900	14.757	0.099
688.000	15.970	0.099
688.100	26.249	0.099
688.200	15.792	0.099
688.300	28.929	0.099
688.400	19.540	0.099
688.500	23.148	0.099
688.600	11.931	0.099
688.700	7.177	0.099
688.800	21.460	0.099
688.900	12.711	0.099
689.000	25.117	0.099
689.100	25.407	0.099
689.200	5.037	0.099
689.300	25.387	0.099
689.400	17.640	0.099
689.500	14.357	0.099
689.600	26.873	0.099
689.700	23.007	0.099
689.800	26.850	0.099
689.900	14.006	0.099
690.000	25.343	0.099
690.100	10.811	0.099
690.200	-2.785	0.099
690.300	-5.559	0.099
690.400	13.000	0.099
690.500	1.109	0.099
690.600	-14.528	0.099
690.700	-6.159	0.099
690.800	-12.090	0.099
690.900	-12.360	0.099
691.000	8.529	0.099
691.100	-18.065	0.099
691.200	-17.285	0.099
691.300	-15.399	0.099
691.400	-13.034	0.099
691.500	-3.777	0.099
691.600	-15.511	0.099
691.700	-18.246	0.099
691.800	-17.070	0.099
691.900	-14.508	0.099
692.000	-25.484	0.099
692.100	-21.695	0.099
692.200	-8.399	0.099
692.300	-19.614	0.099
692.400	-14.593	0.099
692.500	-26.215	0.099
692.600	-21.621	0.099
692.700	-18.251	0.099
692.800	-16.140	0.099
692.900	-18.147	0.099
693.000	-15.864	0.099
693.100	-27.695	0.099
693.200	-17.762	0.099
693.300	-18.260	0.099
693.400	-23.603	0.099
693.500	-27.349	0.099
693.600	-27.994	0.099
693.700	-25.083	0.099
693.800	-15.177	0.099
693.900	-14.508	0.099
694.000	-20.776	0.099
694.100	-30.667	0.099
694.200	-25.690	0.099
694.300	-21.976	0.099
694.400	-20.285	0.099
694.500	-24.935	0.099
694.600	-24.347	0.099
694.700	-11.567	0.099
694.800	-36.831	0.099
694.900	-12.531	0.099
695.000	-25.359	0.099
695.100	-18.812	0.099
695.200	-18.656	0.099
695.300	-15.014	0.099
695.400	-33.942	0.099
695.500	-6.253	0.099
695.600	-26.921	0.099
695.700	-28.119	0.099
695.800	-25.952	0.099
695.900	-12.411	0.099
696.000	-15.836	0.099
696.100	-12.928	0.099
696.200	-27.387	0.099
696.300	-22.709	0.099
696.400	-28.869	0.099
696.500	-19.257	0.099
696.600	-4.603	0.099
696.700	-13.202	0.099
696.800	-15.539	0.099
696.900	-20.074	0.099
697.000	-25.163	0.099
697.100	-14.815	0.099
697.200	-9.233	0.099
697.300	-10.116	0.099
697.400	-31.202	0.099
697.500	-11.640	0.099
697.600	1.140	0.099
697.700	-17.301	0.099
697.800	-13.348	0.099
697.900	-19.095	0.099
698.000	-5.023	0.099
698.100	-33.419	0.099
698.200	-10.940	0.099
698.300	-7.556	0.099
698.400	-4.751	0.099
698.500	-4.678	0.099
698.600	-9.455	0.099
698.700	-16.308	0.099
698.800	-21.626	0.099
698.900	-17.284	0.099
699.000	-3.362	0.099
699.100	-7.366	0.099
699.200	-10.906	0.099
699.300	-0.932	0.099
699.400	-19.670	0.099
699.500	-18.620	0.099
699.600	-35.578	0.099
699.700	-19.076	0.099
699.800	-5.865	0.099
699.900	5.294	0.099
700.000	0.582	0.099
700.100	-11.535	0.099
700.200	-12.023	0.099
700.300	-28.536	0.099
700.400	-19.349	0.099
700.500	-22.204	0.099
700.600	5.806	0.099
700.700	-2.499	0.099
700.800	-3.136	0.099
700.900	-1.646	0.099
701.000	-11.513	0.099
701.100	-5.703	0.099
701.200	-14.280	0.099
701.300	-23.798	0.099
701.400	-7.332	0.099
701.500	-11.398	0.099
701.600	-0.560	0.099
701.700	3.801	0.099
701.800	-13.373	0.099
701.900	-20.523	0.100
702.000	-4.402	0.099
702.100	-9.425	0.099
702.200	-26.257	0.099
702.300	-7.881	0.100
702.400	-14.005	0.099
702.500	-10.746	0.099
702.600	-9.364	0.099
702.700	-13.146	0.099
702.800	-12.048	0.099
702.900	-17.330	0.099
703.000	3.752	0.099
703.100	-22.386	0.099
703.200	-9.950	0.099
703.300	-4.259	0.099
703.400	-16.913	0.099
703.500	-15.243	0.099
703.600	1.066	0.099
703.700	-3.607	0.099
703.800	-11.440	0.099
703.900	-15.259	0.099
704.000	-15.958	0.099
704.100	2.114	0.099
704.200	-25.825	0.099
704.300	-12.704	0.099
704.400	-14.226	0.099
704.500	6.446	0.099
704.600	1.616	0.099
704.700	-5.575	0.100
704.800	-25.534	0.099
704.900	-2.886	0.099
705.000	-31.709	0.099
705.100	-9.430	0.099
705.200	2.961	0.099
705.300	-2.213	0.099
705.400	-31.683	0.099
705.500	-4.732	0.099
705.600	18.911	0.099
705.700	2.077	0.099
705.800	-2.178	0.099
705.900	-23.175	0.099
706.000	-3.793	0.099
706.100	-5.119	0.099
706.200	-6.054	0.099
706.300	-5.061	0.099
706.400	-24.771	0.099
706.500	-11.053	0.099
706.600	-19.605	0.099
706.700	-10.728	0.099
706.800	3.041	0.099
706.900	5.317	0.099
707.000	-18.591	0.099
707.100	-12.748	0.099
707.200	-12.115	0.099
707.300	-13.444	0.099
707.400	-9.978	0.099
707.500	-7.492	0.100
707.600	-7.740	0.099
707.700	-20.191	0.099
707.800	-17.743	0.099
707.900	-12.667	0.099
708.000	-18.073	0.099
708.100	-21.126	0.099
708.200	-3.887	0.099
708.300	-14.041	0.099
708.400	-18.142	0.099
708.500	-12.441	0.099
708.600	-23.911	0.099
708.700	-20.878	0.099
708.800	-11.928	0.099
708.900	6.770	0.099
709.000	-13.245	0.099
709.100	7.918	0.099
709.200	-11.631	0.100
709.300	3.697	0.099
709.400	-6.972	0.099
709.500	-10.974	0.099
709.600	-8.541	0.099
709.700	-12.347	0.099
709.800	-2.441	0.100
709.900	-5.966	0.099
710.000	-2.337	0.099
710.100	-13.005	0.099
710.200	-14.789	0.099
710.300	-14.072	0.099
710.400	-14.762	0.099
710.500	-1.248	0.100
710.600	-24.902	0.099
710.700	-2.394	0.099
710.800	-26.108	0.099
710.900	4.948	0.099
711.000	-8.747	0.099
711.100	-11.148	0.099
711.200	-0.893	0.099
711.300	-13.685	0.099
711.400	-12.851	0.099
711.500	-6.591	0.099
711.600	-16.364	0.099
711.700	-16.711	0.099
711.800	0.356	0.099
711.900	0.687	0.099
712.000	-25.239	0.099
712.100	-15.009	0.099
712.200	-22.439	0.099
712.300	-17.044	0.099
712.400	2.080	0.099
712.500	-19.972	0.099
712.600	11.664	0.099
712.700	-4.839	0.099
712.800	-4.572	0.099
712.900	-27.502	0.099
713.000	-24.102	0.099
713.100	-11.251	0.099
713.200	-14.147	0.099
713.300	-16.424	0.099
713.400	-10.709	0.099
713.500	-20.492	0.099
713.600	-9.684	0.099
713.700	-10.752	0.099
713.800	-15.652	0.099
713.900	2.772	0.099
714.000	-2.770	0.099
714.100	-14.325	0.099
714.200	-14.049	0.099
714.300	-7.645	0.099
714.400	-7.262	0.099
714.500	-1.289	0.099
714.600	-15.475	0.099
714.700	-12.549	0.099
714.800	-11.234	0.099
714.900	-21.626	0.099
715.000	-9.886	0.099
715.100	-13.855	0.099
715.200	4.230	0.100
715.300	-16.704	0.099
715.400	-19.092	0.099
715.500	-20.371	0.099
715.600	-0.030	0.099
715.700	-22.599	0.099
715.800	-12.336	0.099
715.900	-6.250	0.099
716.000	-9.686	0.099
716.100	0.351	0.099
716.200	-22.476	0.099
716.300	-13.742	0.099
716.400	-13.780	0.099
716.500	-21.245	0.099
716.600	-10.330	0.099
716.700	-6.525	0.099
716.800	-8.884	0.099
716.900	-13.661	0.099
717.000	-13.126	0.099
717.100	-19.055	0.099
717.200	-8.697	0.099
717.300	-2.725	0.099
717.400	-18.640	0.099
717.500	-4.085	0.099
717.600	-15.694	0.099
717.700	-3.514	0.099
717.800	-13.949	0.099
717.900	-9.340	0.099
718.000	-17.193	0.099
718.100	-12.156	0.099
718.200	-16.857	0.099
718.300	-15.466	0.099
718.400	-10.546	0.100
718.500	1.514	0.099
718.600	2.071	0.099
718.700	-17.833	0.099
718.800	-20.831	0.099
718.900	-8.108	0.099
719.000	-9.673	0.099
719.100	-12.863	0.099
719.200	-3.452	0.099
719.300	-17.303	0.099
719.400	-9.925	0.100
719.500	-13.396	0.099
719.600	-15.304	0.099
719.700	-17.713	0.099
719.800	-12.848	0.100
719.900	-6.620	0.099
720.000	-2.341	0.099
720.100	-11.671	0.099
720.200	-13.673	0.099
720.300	-12.312	0.099
720.400	-3.884	0.099
720.500	-16.937	0.099
720.600	-15.640	0.099
720.700	-5.125	0.099
720.800	-9.792	0.099
720.900	-11.725	0.099
721.000	-11.246	0.099
721.100	-15.786	0.099
721.200	-23.875	0.099
721.300	-5.166	0.099
721.400	-13.678	0.099
721.500	-19.851	0.099
721.600	-19.591	0.099
721.700	-1.783	0.099
721.800	-20.922	0.099
721.900	-0.199	0.099
722.000	-21.538	0.099
722.100	-11.221	0.099
722.200	-9.141	0.099
722.300	-16.467	0.099
722.400	-6.226	0.099
722.500	-12.331	0.099
722.600	-23.875	0.099
722.700	-10.966	0.099
722.800	-16.438	0.099
722.900	-19.203	0.100
723.000	-12.086	0.099
723.100	-4.973	0.099
723.200	-11.203	0.099
723.300	-17.881	0.099
723.400	-10.571	0.099
723.500	-8.045	0.100
723.600	-15.173	0.099
723.700	-17.362	0.099
723.800	-14.447	0.099
723.900	-13.831	0.099
724.000	-17.788	0.099
724.100	-10.023	0.099
724.200	-14.068	0.099
724.300	-10.039	0.099
724.400	-19.440	0.099
724.500	-9.415	0.099
724.600	-13.206	0.099
724.700	-13.348	0.099
724.800	-10.726	0.099
724.900	7.782	0.099
725.000	-23.297	0.099
725.100	-14.516	0.099
725.200	-9.457	0.099
725.300	-8.867	0.099
725.400	-15.549	0.099
725.500	-13.148	0.099
725.600	-0.553	0.099
725.700	-9.410	0.099
725.800	-21.651	0.099
725.900	-20.475	0.099
726.000	-18.923	0.099
726.100	3.847	0.099
726.200	-14.248	0.099
726.300	-17.659	0.099
726.400	-3.968	0.099
726.500	-9.712	0.099
726.600	-20.513	0.099
726.700	-11.484	0.099
726.800	-9.665	0.100
726.900	1.699	0.099
727.000	-0.290	0.099
727.100	-4.712	0.099
727.200	-15.249	0.099
727.300	-8.771	0.099
727.400	-11.345	0.099
727.500	6.231	0.099
727.600	-12.354	0.099
727.700	-7.326	0.100
727.800	-12.135	0.099
727.900	-9.048	0.099
728.000	-22.253	0.100
728.100	-19.983	0.099
728.200	-10.230	0.099
728.300	-16.316	0.099
728.400	-16.884	0.099
728.500	-9.285	0.099
728.600	1.118	0.099
728.700	-5.654	0.099
728.800	0.835	0.099
728.900	-18.784	0.100
729.000	-9.683	0.099
729.100	-18.265	0.100
729.200	-12.785	0.099
729.300	-17.067	0.099
729.400	-27.902	0.099
729.500	-7.707	0.099
729.600	-22.847	0.099
729.700	-10.633	0.099
729.800	1.782	0.099
729.900	-15.103	0.099
730.000	-4.954	0.099
730.100	-8.349	0.099
730.200	-18.682	0.099
730.300	-12.279	0.099
730.400	-3.506	0.099
730.500	-6.151	0.099
730.600	-18.039	0.099
730.700	-17.804	0.099
730.800	-15.273	0.099
730.900	-8.355	0.099
731.000	-8.998	0.099
731.100	-6.632	0.099
731.200	-2.445	0.099
731.300	-2.100	0.099
731.400	-13.454	0.099
731.500	-21.982	0.099
731.600	-10.604	0.099
731.700	-14.020	0.099
731.800	-2.355	0.099
731.900	-6.077	0.099
732.000	0.721	0.099
732.100	-31.584	0.099
732.200	-9.535	0.099
732.300	-6.023	0.099
732.400	-9.337	0.099
732.500	-22.506	0.099
732.600	-22.447	0.099
732.700	-17.736	0.099
732.800	4.605	0.100
732.900	-11.943	0.099
733.000	-15.960	0.099
733.100	-11.269	0.099
733.200	-8.099	0.099
733.300	-17.970	0.099
733.400	0.091	0.099
733.500	-20.819	0.099
733.600	-6.933	0.099
733.700	-7.978	0.100
733.800	-9.825	0.099
733.900	-12.747	0.100
734.000	-29.748	0.099
734.100	1.147	0.099
734.200	-33.023	0.099
734.300	-17.277	0.099
734.400	-4.054	0.099
734.500	-15.591	0.100
734.600	-16.715	0.099
734.700	-3.983	0.099
734.800	-22.799	0.099
734.900	-10.799	0.099
735.000	-9.905	0.099
735.100	-17.421	0.099
735.200	-7.295	0.100
735.300	-3.524	0.099
735.400	-13.853	0.099
735.500	-10.947	0.099
735.600	-6.801	0.100
735.700	-8.857	0.099
735.800	3.696	0.100
735.900	-9.384	0.099
736.000	-15.366	0.099
736.100	-8.847	0.099
736.200	6.772	0.099
736.300	-3.519	0.099
736.400	-6.349	0.099
736.500	-7.369	0.099
736.600	-19.982	0.099
736.700	-12.693	0.099
736.800	-2.693	0.099
736.900	-7.863	0.099
737.000	5.563	0.099
737.100	-10.775	0.099
737.200	-11.004	0.099
737.300	-8.067	0.099
737.400	-1.391	0.099
737.500	-18.333	0.099
737.600	-12.310	0.100
737.700	-8.945	0.099
737.800	-17.838	0.099
737.900	-4.767	0.100
738.000	-0.571	0.099
738.100	-9.246	0.099
738.200	-3.595	0.099
738.300	-7.799	0.099
738.400	-7.350	0.099
738.500	-3.324	0.099
738.600	-8.001	0.099
738.700	-8.222	0.100
738.800	-20.755	0.099
738.900	-5.452	0.099
739.000	-19.360	0.099
739.100	-6.391	0.099
739.200	-8.473	0.099
739.300	-0.255	0.099
739.400	-10.483	0.099
739.500	-9.944	0.099
739.600	-16.022	0.099
739.700	2.219	0.099
739.800	-5.150	0.099
739.900	-11.540	0.099
740.000	-20.747	0.099
740.100	-6.532	0.099
740.200	-6.184	0.099
740.300	-23.121	0.099
740.400	8.990	0.099
740.500	-14.703	0.099
740.600	-15.106	0.099
740.700	-3.257	0.099
740.800	-9.279	0.099
740.900	-22.467	0.099
741.000	-3.433	0.099
741.100	-20.520	0.099
741.200	-6.873	0.099
741.300	-9.506	0.099
741.400	-5.914	0.099
741.500	-4.294	0.099
741.600	-2.803	0.100
741.700	-25.260	0.099
741.800	3.224	0.099
741.900	-1.730	0.099
742.000	-8.883	0.099
742.100	-1.686	0.099
742.200	-3.246	0.099
742.300	-14.043	0.099
742.400	-18.937	0.099
742.500	-3.918	0.099
742.600	2.142	0.099
742.700	-15.041	0.099
742.800	-18.517	0.099
742.900	3.003	0.099
743.000	-7.811	0.099
743.100	5.633	0.099
743.200	-6.590	0.099
743.300	-2.610	0.099
743.400	-3.972	0.099
743.500	-10.554	0.099
743.600	-3.590	0.099
743.700	-24.073	0.099
743.800	-18.017	0.099
743.900	-3.448	0.099
744.000	-6.358	0.099
744.100	-8.736	0.099
744.200	-4.195	0.099
744.300	-11.686	0.099
744.400	2.021	0.099
744.500	-23.074	0.099
744.600	-5.629	0.099
744.700	-14.189	0.099
744.800	-9.757	0.099
744.900	-11.264	0.100
745.000	2.974	0.099
745.100	-6.854	0.099
745.200	-0.509	0.099
745.300	-3.233	0.099
745.400	-12.636	0.099
745.500	-8.365	0.099
745.600	-25.969	0.099
745.700	-6.294	0.099
745.800	-6.246	0.099
745.900	-1.941	0.099
746.000	-7.716	0.100
746.100	-6.131	0.099
746.200	4.323	0.099
746.300	-7.503	0.099
746.400	4.126	0.099
746.500	-11.015	0.099
746.600	-9.008	0.099
746.700	-2.922	0.099
746.800	-12.575	0.099
746.900	6.790	0.099
747.000	5.371	0.099
747.100	-9.222	0.099
747.200	9.135	0.100
747.300	-4.854	0.100
747.400	-13.218	0.099
747.500	-7.598	0.099
747.600	-6.686	0.099
747.700	3.895	0.099
747.800	-0.999	0.099
747.900	-4.577	0.099
748.000	-6.633	0.099
748.100	-10.283	0.099
748.200	-17.774	0.099
748.300	-11.608	0.099
748.400	1.997	0.099
748.500	-13.433	0.099
748.600	6.383	0.099
748.700	-25.526	0.099
748.800	-14.428	0.099
748.900	-11.785	0.099
749.000	-4.323	0.099
749.100	0.748	0.099
749.200	-1.247	0.099
749.300	-12.847	0.099
749.400	-11.877	0.099
749.500	-6.985	0.099
749.600	-9.982	0.099
749.700	-3.956	0.099
749.800	-5.972	0.099
749.900	0.229	0.099
750.000	-11.004	0.099
750.100	-5.991	0.099
750.200	-3.704	0.099
750.300	-12.883	0.099
750.400	-16.738	0.099
750.500	-11.022	0.099
750.600	-2.139	0.099
750.700	-16.864	0.099
750.800	-1.053	0.099
750.900	-7.431	0.099
751.000	-14.462	0.099
751.100	8.823	0.099
751.200	1.965	0.099
751.300	-4.212	0.099
751.400	-27.394	0.099
751.500	-0.239	0.099
751.600	-12.373	0.099
751.700	0.644	0.099
751.800	-4.644	0.099
751.900	3.718	0.099
752.000	-11.995	0.099
752.100	-11.286	0.099
752.200	-4.988	0.099
752.300	-13.403	0.099
752.400	-7.560	0.100
752.500	0.348	0.099
752.600	-4.705	0.099
752.700	-3.109	0.099
752.800	-16.637	0.099
752.900	-3.889	0.099
753.000	-8.824	0.099
753.100	-5.170	0.099
753.200	-1.645	0.099
753.300	-1.741	0.099
753.400	-18.532	0.099
753.500	-12.425	0.099
753.600	-6.360	0.099
753.700	-7.805	0.099
753.800	-0.722	0.099
753.900	-17.176	0.099
754.000	-3.461	0.099
754.100	-5.381	0.099
754.200	-4.499	0.099
754.300	-9.902	0.099
754.400	-8.829	0.099
754.500	-0.145	0.099
754.600	-16.596	0.099
754.700	-19.969	0.099
754.800	-14.419	0.099
754.900	-7.402	0.099
755.000	-5.067	0.099
755.100	11.286	0.099
755.200	-14.291	0.099
755.300	-5.805	0.099
755.400	-6.554	0.099
755.500	1.359	0.099
755.600	-2.065	0.099
755.700	-12.784	0.099
755.800	-3.900	0.099
755.900	3.015	0.099
756.000	-13.882	0.099
756.100	-6.404	0.099
756.200	-2.431	0.099
756.300	-7.838	0.099
756.400	-4.458	0.099
756.500	-14.313	0.099
756.600	-8.705	0.099
756.700	-2.738	0.099
756.800	-5.448	0.099
756.900	2.987	0.099
757.000	-10.316	0.099
757.100	-24.742	0.099
757.200	4.830	0.099
757.300	-11.855	0.099
757.400	-3.307	0.099
757.500	1.230	0.099
757.600	-4.615	0.099
757.700	-7.963	0.099
757.800	-1.708	0.099
757.900	0.751	0.099
758.000	-17.217	0.099
758.100	-4.399	0.099
758.200	-4.140	0.099
758.300	-3.339	0.099
758.400	-9.611	0.099
758.500	-7.172	0.099
758.600	-6.480	0.099
758.700	-0.342	0.099
758.800	8.712	0.099
758.900	-13.267	0.099
759.000	-10.741	0.099
759.100	-10.609	0.099
759.200	-7.486	0.099
759.300	-13.316	0.100
759.400	3.717	0.099
759.500	-10.981	0.099
759.600	-4.761	0.099
759.700	-2.114	0.099
759.800	-5.002	0.099
759.900	-0.909	0.099
760.000	2.076	0.099
760.100	-0.955	0.099
760.200	-2.515	0.099
760.300	-12.528	0.099
760.400	-23.920	0.099
760.500	6.282	0.099
760.600	4.463	0.099
760.700	-14.093	0.099
760.800	-0.207	0.099
760.900	-19.642	0.099
761.000	-14.794	0.099
761.100	-8.695	0.099
761.200	0.024	0.099
761.300	-8.379	0.099
761.400	-21.506	0.099
761.500	-4.154	0.099
761.600	-8.134	0.099
761.700	-0.917	0.099
761.800	-21.475	0.099
761.900	-7.413	0.099
762.000	1.392	0.099
762.100	1.731	0.099
762.200	-21.290	0.099
762.300	11.285	0.099
762.400	-14.062	0.099
762.500	-0.070	0.099
762.600	-1.390	0.099
762.700	-8.521	0.099
762.800	0.221	0.099
762.900	-7.062	0.099
763.000	-8.465	0.099
763.100	-5.411	0.099
763.200	-0.004	0.099
763.300	-5.383	0.099
763.400	-2.858	0.099
763.500	-19.230	0.099
763.600	-6.303	0.099
763.700	3.293	0.099
763.800	-5.540	0.099
763.900	-2.008	0.099
764.000	0.386	0.099
764.100	-5.906	0.099
764.200	-10.006	0.099
764.300	-8.627	0.099
764.400	1.976	0.099
764.500	-5.710	0.099
764.600	-6.006	0.099
764.700	-0.354	0.099
764.800	-21.476	0.099
764.900	-1.900	0.099
765.000	5.567	0.099
765.100	-7.717	0.099
765.200	-14.693	0.099
765.300	-2.576	0.099
765.400	-12.739	0.099
765.500	-6.566	0.099
765.600	-1.402	0.099
765.700	-7.209	0.099
765.800	-1.496	0.099
765.900	3.215	0.099
766.000	10.492	0.099
766.100	-7.059	0.099
766.200	-17.597	0.099
766.300	7.516	0.099
766.400	-11.496	0.099
766.500	-6.965	0.099
766.600	-4.737	0.099
766.700	2.171	0.099
766.800	-1.371	0.099
766.900	-10.022	0.099
767.000	-14.228	0.099
767.100	1.261	0.099
767.200	-14.283	0.099
767.300	-12.337	0.099
767.400	2.156	0.099
767.500	-7.842	0.099
767.600	-10.103	0.099
767.700	-8.273	0.099
767.800	-11.617	0.099
767.900	-13.138	0.099
768.000	-4.796	0.099
768.100	-7.629	0.099
768.200	12.902	0.099
768.300	-10.603	0.099
768.400	-1.404	0.099
768.500	-16.546	0.099
768.600	-1.097	0.099
768.700	-7.680	0.099
768.800	-4.817	0.099
768.900	-2.483	0.099
769.000	-11.392	0.099
769.100	-1.758	0.099
769.200	-7.680	0.099
769.300	-5.559	0.099
769.400	-17.461	0.099
769.500	-2.031	0.099
769.600	-4.416	0.099
769.700	-11.670	0.099
769.800	-2.949	0.099
769.900	-7.688	0.099
770.000	-9.013	0.099
770.100	-14.252	0.099
770.200	-4.843	0.099
770.300	-7.156	0.099
770.400	-2.742	0.099
770.500	5.073	0.099
770.600	-13.405	0.099
770.700	-6.881	0.099
770.800	-5.290	0.099
770.900	-17.225	0.099
771.000	-7.817	0.099
771.100	-6.921	0.099
771.200	-16.584	0.099
771.300	1.661	0.099
771.400	-0.914	0.099
771.500	-8.185	0.099
771.600	-16.358	0.099
771.700	-24.394	0.099
771.800	-6.799	0.099
771.900	-0.123	0.099
772.000	-2.641	0.099
772.100	-5.809	0.099
772.200	-10.640	0.099
772.300	-17.050	0.099
772.400	-4.862	0.099
772.500	4.438	0.099
772.600	-18.710	0.099
772.700	-2.766	0.099
772.800	-4.084	0.099
772.900	-7.122	0.099
773.000	-2.910	0.099
773.100	-6.516	0.099
773.200	6.076	0.099
773.300	1.909	0.099
773.400	0.978	0.099
773.500	-0.535	0.099
773.600	1.604	0.099
773.700	8.185	0.099
773.800	9.793	0.099
773.900	-5.013	0.099
774.000	9.617	0.099
774.100	2.945	0.099
774.200	-12.266	0.099
774.300	-13.102	0.099
774.400	-3.879	0.099
774.500	-2.714	0.099
774.600	-3.952	0.099
774.700	-18.754	0.099
774.800	5.518	0.099
774.900	6.815	0.099
775.000	8.870	0.099
775.100	5.070	0.099
775.200	-6.300	0.099
775.300	-9.206	0.099
775.400	-10.008	0.099
775.500	-6.707	0.099
775.600	-10.179	0.099
775.700	-1.450	0.099
775.800	-2.308	0.099
775.900	0.524	0.099
776.000	-8.570	0.099
776.100	0.496	0.099
776.200	3.193	0.099
776.300	-9.735	0.099
776.400	-7.358	0.099
776.500	-15.042	0.099
776.600	-12.068	0.099
776.700	-3.323	0.099
776.800	-11.833	0.099
776.900	0.498	0.099
777.000	7.715	0.099
777.100	-6.921	0.099
777.200	-4.515	0.099
777.300	-3.576	0.099
777.400	-4.113	0.099
777.500	6.828	0.099
777.600	-7.781	0.099
777.700	-6.889	0.099
777.800	-5.217	0.099
777.900	-5.276	0.099
778.000	-4.306	0.099
778.100	-19.946	0.099
778.200	-2.255	0.099
778.300	-4.669	0.099
778.400	-4.140	0.099
778.500	-5.737	0.099
778.600	-12.834	0.099
778.700	-0.613	0.099
778.800	-2.453	0.099
778.900	-9.515	0.099
779.000	1.612	0.099
779.100	-7.403	0.099
779.200	-4.089	0.099
779.300	-20.004	0.099
779.400	-0.577	0.099
779.500	-14.090	0.099
779.600	-7.445	0.099
779.700	9.297	0.099
779.800	-5.747	0.099
779.900	-1.010	0.099
780.000	15.809	0.099
780.100	-8.116	0.099
780.200	15.310	0.099
780.300	30.023	0.099
780.400	8.840	0.099
780.500	24.974	0.099
780.600	14.167	0.099
780.700	31.346	0.099
780.800	22.335	0.099
780.900	36.871	0.099
781.000	40.626	0.099
781.100	16.139	0.099
781.200	34.625	0.099
781.300	27.775	0.099
781.400	31.923	0.099
781.500	32.868	0.099
781.600	37.408	0.099
781.700	41.129	0.099
781.800	27.368	0.099
781.900	25.390	0.099
782.000	30.176	0.099
782.100	38.577	0.099
782.200	29.540	0.099
782.300	42.595	0.099
782.400	33.192	0.099
782.500	33.574	0.099
782.600	32.903	0.099
782.700	22.665	0.099
782.800	31.538	0.099
782.900	24.005	0.099
783.000	23.481	0.099
783.100	41.415	0.099
783.200	35.539	0.099
783.300	28.079	0.099
783.400	20.326	0.099
783.500	22.062	0.099
783.600	20.597	0.099
783.700	23.380	0.099
783.800	20.344	0.099
783.900	23.709	0.099
784.000	14.408	0.099
784.100	36.518	0.099
784.200	14.305	0.099
784.300	15.537	0.099
784.400	16.427	0.099
784.500	29.198	0.099
784.600	30.629	0.099
784.700	27.358	0.099
784.800	16.265	0.099
784.900	26.234	0.099
785.000	32.829	0.099
785.100	31.343	0.099
785.200	20.637	0.099
785.300	12.490	0.099
785.400	24.872	0.099
785.500	30.617	0.099
785.600	12.911	0.099
785.700	8.589	0.099
785.800	14.663	0.099
785.900	15.965	0.099
786.000	21.073	0.099
786.100	14.061	0.099
786.200	18.913	0.099
786.300	9.251	0.099
786.400	21.810	0.099
786.500	3.896	0.099
786.600	19.649	0.099
786.700	33.004	0.099
786.800	15.012	0.099
786.900	3.868	0.099
787.000	26.881	0.099
787.100	26.193	0.099
787.200	4.211	0.099
787.300	12.707	0.099
787.400	29.810	0.099
787.500	18.826	0.099
787.600	26.100	0.099
787.700	19.861	0.099
787.800	30.344	0.099
787.900	12.098	0.099
788.000	13.804	0.099
788.100	22.522	0.099
788.200	20.047	0.099
788.300	36.159	0.099
788.400	19.750	0.099
788.500	38.099	0.099
788.600	14.723	0.099
788.700	30.666	0.099
788.800	20.955	0.099
788.900	19.409	0.099
789.000	21.375	0.099
789.100	13.233	0.099
789.200	22.954	0.099
789.300	34.787	0.099
789.400	22.060	0.099
789.500	24.842	0.099
789.600	3.919	0.099
789.700	30.408	0.099
789.800	19.091	0.099
789.900	21.661	0.099
790.000	41.049	0.099
790.100	29.390	0.099
790.200	29.640	0.099
790.300	21.692	0.099
790.400	18.301	0.099
790.500	25.141	0.099
790.600	31.285	0.099
790.700	19.676	0.099
790.800	29.693	0.099
790.900	18.537	0.099
791.000	13.154	0.099
791.100	25.026	0.099
791.200	22.332	0.099
791.300	16.531	0.099
791.400	28.533	0.099
791.500	36.454	0.099
791.600	28.287	0.099
791.700	24.712	0.099
791.800	38.637	0.099
791.900	21.496	0.099
792.000	14.282	0.099
792.100	9.985	0.099
792.200	28.882	0.099
792.300	32.179	0.099
792.400	15.696	0.099
792.500	27.497	0.099
792.600	21.011	0.099
792.700	25.452	0.099
792.800	22.668	0.099
792.900	22.947	0.099
793.000	28.314	0.099
793.100	23.345	0.099
793.200	16.872	0.099
793.300	28.287	0.099
793.400	30.010	0.099
793.500	25.264	0.099
793.600	22.966	0.099
793.700	23.030	0.099
793.800	30.361	0.099
793.900	8.384	0.099
794.000	34.820	0.099
794.100	26.776	0.099
794.200	30.042	0.099
794.300	28.389	0.099
794.400	4.418	0.099
794.500	41.361	0.099
794.600	18.432	0.099
794.700	32.672	0.099
794.800	29.851	0.099
794.900	31.135	0.099
795.000	19.064	0.099
795.100	29.304	0.099
795.200	16.564	0.099
795.300	18.337	0.099
795.400	18.768	0.099
795.500	18.678	0.099
795.600	11.724	0.099
795.700	13.750	0.099
795.800	32.993	0.099
795.900	25.642	0.099
796.000	25.954	0.099
796.100	38.222	0.099
796.200	23.670	0.099
796.300	22.885	0.099
796.400	19.362	0.099
796.500	33.695	0.099
796.600	4.294	0.099
796.700	28.928	0.099
796.800	27.418	0.099
796.900	24.660	0.099
797.000	17.474	0.099
797.100	19.610	0.099
797.200	31.911	0.099
797.300	24.365	0.099
797.400	17.472	0.099
797.500	28.104	0.099
797.600	33.390	0.099
797.700	27.459	0.099
797.800	22.189	0.099
797.900	22.577	0.099
798.000	22.700	0.099
798.100	16.892	0.099
798.200	29.521	0.099
798.300	23.089	0.099
798.400	26.370	0.099
798.500	18.020	0.099
798.600	17.019	0.099
798.700	29.587	0.099
798.800	24.767	0.099
798.900	26.740	0.099
799.000	24.724	0.099
799.100	26.451	0.099
799.200	11.528	0.099
799.300	26.684	0.099
799.400	27.589	0.099
799.500	14.328	0.099
799.600	19.742	0.099
799.700	19.119	0.099
799.800	18.796	0.099
799.900	30.123	0.099
800.000	37.462	0.099
