time /s	I /nA	E /V
0.100	-4.501	0.100
0.200	-8.535	0.100
0.300	17.809	0.100
0.400	-3.828	0.100
0.500	-0.945	0.100
0.600	-14.171	0.100
0.700	-2.087	0.100
0.800	-15.952	0.100
0.900	-5.540	0.100
1.000	0.169	0.100
1.100	6.376	0.100
1.200	-6.483	0.100
1.300	-2.896	0.100
1.400	-6.758	0.100
1.500	-12.934	0.100
1.600	-8.323	0.100
1.700	-12.816	0.100
1.800	-19.399	0.100
1.900	3.051	0.100
2.000	-9.321	0.100
2.100	3.686	0.100
2.200	-25.391	0.100
2.300	1.983	0.100
2.400	-14.677	0.100
2.500	-5.800	0.100
2.600	2.720	0.100
2.700	-7.258	0.100
2.800	-1.638	0.100
2.900	-0.608	0.100
3.000	11.416	0.100
3.100	0.071	0.100
3.200	-10.537	0.100
3.300	12.730	0.100
3.400	-3.932	0.100
3.500	-0.350	0.100
3.600	-2.317	0.100
3.700	-10.827	0.100
3.800	0.696	0.100
3.900	4.442	0.100
4.000	-5.900	0.100
4.100	8.745	0.100
4.200	-6.483	0.100
4.300	1.206	0.100
4.400	12.407	0.100
4.500	1.317	0.100
4.600	-3.155	0.100
4.700	-10.557	0.100
4.800	3.852	0.100
4.900	1.639	0.100
5.000	-2.524	0.100
5.100	-4.465	0.100
5.200	2.371	0.100
5.300	-0.325	0.100
5.400	-10.852	0.100
5.500	11.267	0.100
5.600	1.780	0.100
5.700	-3.399	0.100
5.800	-8.766	0.100
5.900	4.705	0.100
6.000	-1.859	0.100
6.100	2.202	0.100
6.200	-5.743	0.100
6.300	2.385	0.100
6.400	8.532	0.100
6.500	2.650	0.100
6.600	-8.504	0.100
6.700	-4.516	0.100
6.800	2.375	0.100
6.900	-1.182	0.100
7.000	4.307	0.100
7.100	-0.231	0.100
7.200	8.264	0.100
7.300	-0.917	0.100
7.400	-3.064	0.100
7.500	-3.363	0.100
7.600	0.719	0.100
7.700	-9.628	0.100
7.800	6.067	0.100
7.900	-0.482	0.100
8.000	11.053	0.100
8.100	-11.919	0.100
8.200	7.312	0.100
8.300	-0.711	0.100
8.400	-1.078	0.100
8.500	18.201	0.100
8.600	0.934	0.100
8.700	4.671	0.100
8.800	6.212	0.100
8.900	-2.130	0.100
9.000	10.334	0.100
9.100	0.798	0.100
9.200	4.442	0.100
9.300	-11.758	0.100
9.400	-2.101	0.100
9.500	5.714	0.100
9.600	1.908	0.100
9.700	4.242	0.100
9.800	-7.471	0.100
9.900	-16.132	0.100
10.000	15.087	0.100
10.100	6.380	0.100
10.200	10.470	0.100
10.300	4.700	0.100
10.400	-1.871	0.100
10.500	-5.108	0.100
10.600	8.319	0.100
10.700	-1.480	0.100
10.800	0.022	0.100
10.900	6.762	0.100
11.000	-5.481	0.100
11.100	-2.021	0.100
11.200	12.306	0.100
11.300	2.541	0.100
11.400	1.296	0.100
11.500	5.095	0.100
11.600	-2.031	0.100
11.700	-1.791	0.100
11.800	-1.873	0.100
11.900	-2.816	0.100
12.000	0.937	0.100
12.100	0.400	0.100
12.200	-6.559	0.100
12.300	-1.627	0.100
12.400	-7.111	0.100
12.500	-18.325	0.100
12.600	-6.568	0.100
12.700	-12.738	0.100
12.800	4.550	0.100
12.900	-8.561	0.100
13.000	2.624	0.100
13.100	-1.540	0.100
13.200	1.533	0.100
13.300	4.582	0.100
13.400	-6.536	0.100
13.500	8.069	0.100
13.600	-6.236	0.100
13.700	-8.416	0.100
13.800	-0.916	0.100
13.900	0.115	0.100
14.000	9.408	0.100
14.100	-1.133	0.100
14.200	-4.339	0.100
14.300	-7.594	0.100
14.400	8.233	0.100
14.500	2.150	0.100
14.600	-14.427	0.100
14.700	-3.127	0.100
14.800	-8.936	0.100
14.900	-1.198	0.100
15.000	-8.099	0.100
15.100	1.617	0.100
15.200	-0.919	0.100
15.300	-2.330	0.100
15.400	4.705	0.100
15.500	10.405	0.100
15.600	-8.198	0.100
15.700	-1.324	0.100
15.800	-6.062	0.100
15.900	9.341	0.100
16.000	-0.864	0.100
16.100	-18.637	0.100
16.200	6.685	0.100
16.300	-4.477	0.100
16.400	-8.078	0.100
16.500	-4.253	0.100
16.600	4.948	0.100
16.700	-3.885	0.100
16.800	-8.941	0.100
16.900	17.231	0.100
17.000	6.958	0.100
17.100	-9.790	0.100
17.200	7.844	0.100
17.300	-10.277	0.100
17.400	-6.846	0.100
17.500	2.099	0.100
17.600	-2.595	0.100
17.700	7.359	0.100
17.800	1.522	0.100
17.900	7.771	0.100
18.000	-11.784	0.100
18.100	2.561	0.100
18.200	-5.216	0.100
18.300	5.389	0.100
18.400	-9.154	0.100
18.500	-1.526	0.100
18.600	-2.229	0.100
18.700	-7.146	0.100
18.800	1.279	0.100
18.900	4.203	0.100
19.000	4.208	0.100
19.100	18.505	0.100
19.200	-4.814	0.100
19.300	3.680	0.100
19.400	-6.355	0.100
19.500	7.499	0.100
19.600	7.670	0.100
19.700	1.513	0.100
19.800	-11.123	0.100
19.900	5.613	0.100
20.000	18.887	0.100
20.100	-0.575	0.100
20.200	-6.052	0.100
20.300	-5.894	0.100
20.400	3.606	0.100
20.500	-3.340	0.100
20.600	7.591	0.100
20.700	-5.050	0.100
20.800	-9.164	0.100
20.900	2.435	0.100
21.000	0.020	0.100
21.100	-11.533	0.100
21.200	19.080	0.100
21.300	-3.999	0.100
21.400	7.607	0.100
21.500	-3.701	0.100
21.600	-5.471	0.100
21.700	-1.666	0.100
21.800	-11.521	0.100
21.900	-8.213	0.100
22.000	13.697	0.100
22.100	-10.583	0.100
22.200	-4.851	0.100
22.300	-6.194	0.100
22.400	5.048	0.100
22.500	-17.196	0.100
22.600	3.991	0.100
22.700	-4.998	0.100
22.800	-15.263	0.100
22.900	8.316	0.100
23.000	1.444	0.100
23.100	-7.646	0.100
23.200	-7.926	0.100
23.300	3.550	0.100
23.400	-9.520	0.100
23.500	6.195	0.100
23.600	6.402	0.100
23.700	14.121	0.100
23.800	-2.636	0.100
23.900	-12.076	0.100
24.000	-4.029	0.100
24.100	-6.390	0.100
24.200	-9.680	0.100
24.300	1.392	0.100
24.400	6.456	0.100
24.500	-0.587	0.100
24.600	-10.663	0.100
24.700	0.224	0.100
24.800	5.473	0.099
24.900	5.960	0.100
25.000	-4.323	0.099
25.100	2.800	0.099
25.200	-4.213	0.100
25.300	-1.236	0.100
25.400	4.111	0.099
25.500	-3.009	0.100
25.600	-12.254	0.100
25.700	1.784	0.100
25.800	1.212	0.099
25.900	-8.348	0.099
26.000	-1.864	0.099
26.100	0.747	0.099
26.200	2.801	0.099
26.300	2.129	0.099
26.400	-7.417	0.099
26.500	-2.340	0.099
26.600	-12.492	0.100
26.700	4.204	0.100
26.800	-3.378	0.100
26.900	-7.433	0.100
27.000	2.793	0.099
27.100	-1.828	0.099
27.200	-19.365	0.099
27.300	4.674	0.099
27.400	2.297	0.099
27.500	8.622	0.099
27.600	1.346	0.099
27.700	-0.212	0.099
27.800	-5.488	0.099
27.900	-3.328	0.099
28.000	0.966	0.099
28.100	-4.761	0.099
28.200	-16.747	0.099
28.300	-1.936	0.099
28.400	7.090	0.099
28.500	-4.485	0.099
28.600	-10.276	0.099
28.700	-8.636	0.099
28.800	3.881	0.099
28.900	-7.199	0.099
29.000	-4.958	0.099
29.100	7.231	0.099
29.200	-8.083	0.099
29.300	-0.022	0.099
29.400	12.607	0.099
29.500	-3.564	0.099
29.600	0.944	0.099
29.700	-9.190	0.099
29.800	-1.937	0.099
29.900	9.907	0.099
30.000	16.177	0.099
30.100	20.456	0.099
30.200	17.330	0.099
30.300	33.171	0.099
30.400	18.813	0.099
30.500	12.400	0.099
30.600	25.272	0.099
30.700	19.703	0.099
30.800	33.405	0.099
30.900	21.494	0.099
31.000	35.838	0.099
31.100	13.660	0.099
31.200	30.452	0.099
31.300	24.808	0.099
31.400	27.629	0.099
31.500	32.772	0.099
31.600	18.325	0.099
31.700	22.159	0.099
31.800	30.922	0.099
31.900	30.225	0.099
32.000	31.457	0.099
32.100	24.750	0.099
32.200	31.018	0.099
32.300	24.200	0.099
32.400	33.942	0.099
32.500	25.481	0.099
32.600	34.968	0.099
32.700	18.676	0.099
32.800	24.216	0.099
32.900	22.373	0.099
33.000	22.184	0.099
33.100	9.046	0.099
33.200	35.159	0.099
33.300	28.468	0.099
33.400	23.985	0.099
33.500	8.978	0.099
33.600	8.089	0.099
33.700	32.318	0.099
33.800	12.245	0.099
33.900	27.791	0.099
34.000	21.744	0.099
34.100	18.757	0.099
34.200	28.698	0.099
34.300	5.977	0.099
34.400	29.068	0.099
34.500	22.438	0.099
34.600	11.969	0.099
34.700	18.371	0.099
34.800	14.813	0.099
34.900	31.638	0.099
35.000	5.689	0.099
35.100	24.016	0.099
35.200	17.458	0.099
35.300	20.700	0.099
35.400	18.952	0.099
35.500	19.916	0.099
35.600	10.029	0.099
35.700	25.978	0.099
35.800	18.743	0.099
35.900	19.601	0.099
36.000	16.975	0.099
36.100	15.455	0.099
36.200	25.890	0.099
36.300	25.799	0.099
36.400	15.147	0.099
36.500	26.765	0.099
36.600	26.210	0.099
36.700	19.468	0.099
36.800	22.988	0.099
36.900	21.264	0.099
37.000	19.471	0.099
37.100	13.982	0.099
37.200	0.223	0.099
37.300	15.451	0.099
37.400	22.869	0.099
37.500	13.257	0.099
37.600	30.258	0.099
37.700	29.987	0.099
37.800	24.995	0.099
37.900	21.833	0.099
38.000	19.017	0.099
38.100	19.254	0.099
38.200	15.748	0.099
38.300	23.733	0.099
38.400	16.242	0.099
38.500	35.864	0.099
38.600	34.696	0.099
38.700	17.864	0.099
38.800	20.687	0.099
38.900	23.678	0.099
39.000	28.543	0.099
39.100	12.558	0.099
39.200	11.956	0.099
39.300	18.955	0.099
39.400	31.655	0.099
39.500	28.395	0.099
39.600	18.457	0.099
39.700	8.167	0.099
39.800	28.749	0.099
39.900	22.244	0.099
40.000	19.984	0.099
40.100	17.771	0.099
40.200	21.763	0.099
40.300	21.379	0.099
40.400	3.446	0.099
40.500	23.316	0.099
40.600	23.952	0.099
40.700	21.968	0.099
40.800	26.205	0.099
40.900	31.713	0.099
41.000	20.474	0.099
41.100	20.862	0.099
41.200	25.879	0.099
41.300	20.672	0.099
41.400	17.447	0.099
41.500	27.336	0.099
41.600	28.859	0.099
41.700	23.298	0.099
41.800	33.928	0.099
41.900	27.603	0.099
42.000	32.545	0.099
42.100	34.892	0.099
42.200	25.231	0.099
42.300	34.586	0.099
42.400	23.704	0.099
42.500	30.399	0.099
42.600	15.548	0.099
42.700	16.889	0.099
42.800	13.531	0.099
42.900	21.975	0.099
43.000	8.464	0.099
43.100	26.135	0.099
43.200	22.315	0.099
43.300	22.541	0.099
43.400	32.583	0.099
43.500	9.295	0.099
43.600	33.593	0.099
43.700	6.934	0.099
43.800	23.009	0.099
43.900	23.346	0.099
44.000	26.479	0.099
44.100	26.604	0.099
44.200	22.257	0.099
44.300	16.218	0.099
44.400	43.898	0.099
44.500	30.723	0.099
44.600	39.597	0.099
44.700	15.597	0.099
44.800	22.920	0.099
44.900	29.181	0.099
45.000	24.418	0.099
45.100	28.425	0.099
45.200	23.512	0.099
45.300	18.691	0.099
45.400	36.444	0.099
45.500	26.346	0.099
45.600	21.238	0.099
45.700	26.481	0.099
45.800	34.384	0.099
45.900	18.113	0.099
46.000	24.941	0.099
46.100	26.385	0.099
46.200	18.013	0.099
46.300	27.696	0.099
46.400	28.895	0.099
46.500	24.884	0.099
46.600	22.713	0.099
46.700	14.327	0.099
46.800	29.981	0.099
46.900	15.230	0.099
47.000	27.793	0.099
47.100	25.598	0.099
47.200	35.483	0.099
47.300	20.513	0.099
47.400	19.975	0.100
47.500	20.143	0.099
47.600	28.377	0.099
47.700	33.974	0.099
47.800	10.807	0.099
47.900	27.357	0.100
48.000	25.846	0.099
48.100	16.331	0.099
48.200	31.230	0.100
48.300	24.654	0.100
48.400	9.551	0.099
48.500	19.931	0.099
48.600	29.271	0.099
48.700	20.228	0.099
48.800	35.161	0.099
48.900	21.004	0.099
49.000	14.429	0.099
49.100	19.123	0.099
49.200	23.181	0.099
49.300	31.903	0.099
49.400	22.271	0.099
49.500	44.404	0.099
49.600	10.266	0.099
49.700	25.194	0.099
49.800	8.236	0.099
49.900	20.939	0.099
50.000	12.708	0.099
50.100	22.333	0.099
50.200	29.732	0.099
50.300	11.504	0.099
50.400	16.968	0.099
50.500	19.268	0.099
50.600	21.983	0.099
50.700	13.623	0.099
50.800	21.746	0.099
50.900	19.963	0.099
51.000	22.880	0.099
51.100	14.307	0.099
51.200	14.665	0.099
51.300	19.071	0.099
51.400	33.510	0.099
51.500	20.429	0.099
51.600	9.676	0.099
51.700	13.694	0.099
51.800	36.456	0.099
51.900	22.285	0.099
52.000	29.066	0.099
52.100	14.102	0.099
52.200	22.416	0.099
52.300	13.436	0.099
52.400	7.408	0.099
52.500	17.272	0.099
52.600	7.962	0.099
52.700	29.523	0.099
52.800	6.579	0.099
52.900	28.095	0.099
53.000	28.954	0.099
53.100	14.715	0.099
53.200	19.681	0.099
53.300	18.243	0.099
53.400	0.413	0.099
53.500	30.310	0.099
53.600	24.539	0.099
53.700	12.991	0.099
53.800	22.582	0.099
53.900	9.104	0.099
54.000	15.119	0.099
54.100	22.701	0.099
54.200	11.225	0.099
54.300	19.057	0.099
54.400	34.729	0.099
54.500	16.591	0.099
54.600	8.353	0.099
54.700	9.095	0.099
54.800	13.822	0.099
54.900	13.970	0.099
55.000	13.674	0.099
55.100	16.613	0.099
55.200	13.689	0.099
55.300	13.028	0.099
55.400	25.441	0.099
55.500	13.862	0.099
55.600	20.169	0.099
55.700	22.456	0.099
55.800	21.813	0.099
55.900	26.538	0.099
56.000	18.679	0.099
56.100	13.222	0.099
56.200	21.847	0.099
56.300	7.525	0.099
56.400	38.643	0.099
56.500	19.832	0.099
56.600	16.307	0.099
56.700	21.732	0.099
56.800	13.098	0.099
56.900	11.296	0.099
57.000	20.218	0.099
57.100	18.931	0.099
57.200	24.851	0.099
57.300	17.386	0.099
57.400	26.425	0.099
57.500	9.192	0.099
57.600	11.429	0.099
57.700	15.816	0.099
57.800	19.450	0.099
57.900	19.599	0.099
58.000	18.623	0.099
58.100	19.497	0.099
58.200	15.462	0.099
58.300	4.630	0.099
58.400	10.529	0.099
58.500	26.743	0.099
58.600	5.553	0.099
58.700	12.185	0.099
58.800	17.441	0.099
58.900	18.923	0.099
59.000	15.489	0.099
59.100	21.551	0.099
59.200	12.759	0.099
59.300	22.955	0.099
59.400	9.028	0.099
59.500	4.937	0.099
59.600	15.201	0.099
59.700	13.489	0.099
59.800	34.529	0.099
59.900	16.955	0.099
60.000	29.514	0.099
60.100	10.981	0.099
60.200	16.201	0.099
60.300	21.096	0.099
60.400	11.623	0.099
60.500	24.837	0.099
60.600	26.621	0.099
60.700	35.492	0.099
60.800	13.453	0.099
60.900	7.885	0.099
61.000	7.896	0.099
61.100	11.908	0.099
61.200	13.951	0.099
61.300	26.333	0.099
61.400	27.807	0.099
61.500	3.838	0.099
61.600	13.773	0.099
61.700	22.491	0.099
61.800	33.780	0.099
61.900	13.182	0.099
62.000	10.268	0.099
62.100	19.302	0.099
62.200	3.069	0.099
62.300	7.696	0.099
62.400	16.994	0.099
62.500	7.984	0.099
62.600	9.718	0.099
62.700	18.118	0.099
62.800	8.665	0.099
62.900	19.426	0.099
63.000	20.540	0.099
63.100	25.828	0.099
63.200	27.233	0.099
63.300	14.108	0.099
63.400	9.321	0.099
63.500	27.631	0.099
63.600	3.820	0.099
63.700	10.168	0.099
63.800	5.539	0.099
63.900	26.414	0.099
64.000	9.974	0.099
64.100	21.306	0.099
64.200	-14.164	0.099
64.300	28.857	0.099
64.400	16.222	0.099
64.500	18.731	0.099
64.600	20.246	0.099
64.700	0.085	0.099
64.800	12.262	0.099
64.900	16.853	0.099
65.000	1.613	0.099
65.100	22.732	0.099
65.200	5.783	0.099
65.300	15.634	0.099
65.400	20.859	0.099
65.500	11.473	0.099
65.600	11.114	0.099
65.700	14.215	0.099
65.800	6.904	0.099
65.900	5.922	0.099
66.000	14.762	0.099
66.100	-1.526	0.099
66.200	21.938	0.099
66.300	16.937	0.099
66.400	-2.473	0.099
66.500	1.753	0.099
66.600	23.212	0.099
66.700	18.606	0.099
66.800	15.862	0.099
66.900	17.535	0.099
67.000	11.569	0.099
67.100	11.096	0.099
67.200	14.808	0.099
67.300	-6.384	0.099
67.400	8.618	0.099
67.500	13.641	0.099
67.600	24.913	0.099
67.700	17.588	0.099
67.800	15.761	0.099
67.900	13.344	0.099
68.000	1.045	0.099
68.100	20.449	0.099
68.200	13.415	0.099
68.300	15.446	0.099
68.400	15.571	0.099
68.500	12.815	0.099
68.600	27.997	0.099
68.700	16.505	0.099
68.800	7.201	0.099
68.900	27.055	0.099
69.000	25.143	0.099
69.100	9.455	0.099
69.200	9.868	0.099
69.300	6.164	0.099
69.400	25.073	0.099
69.500	10.899	0.099
69.600	11.770	0.099
69.700	13.614	0.099
69.800	11.985	0.099
69.900	18.302	0.099
70.000	5.080	0.099
70.100	18.735	0.099
70.200	19.279	0.099
70.300	8.757	0.099
70.400	11.605	0.099
70.500	27.801	0.099
70.600	6.909	0.099
70.700	5.815	0.099
70.800	-6.187	0.099
70.900	8.317	0.099
71.000	10.656	0.099
71.100	15.954	0.099
71.200	15.259	0.099
71.300	16.133	0.099
71.400	3.357	0.099
71.500	8.917	0.099
71.600	8.036	0.099
71.700	19.018	0.099
71.800	16.838	0.099
71.900	18.417	0.099
72.000	25.004	0.099
72.100	13.304	0.099
72.200	12.958	0.099
72.300	3.308	0.099
72.400	23.580	0.099
72.500	5.645	0.099
72.600	14.954	0.099
72.700	18.188	0.099
72.800	11.052	0.099
72.900	6.802	0.099
73.000	12.783	0.099
73.100	19.169	0.099
73.200	8.723	0.099
73.300	20.735	0.099
73.400	18.931	0.099
73.500	13.839	0.099
73.600	8.202	0.099
73.700	7.707	0.099
73.800	9.692	0.099
73.900	25.341	0.099
74.000	19.901	0.099
74.100	31.462	0.099
74.200	15.689	0.099
74.300	26.831	0.099
74.400	14.456	0.099
74.500	24.514	0.099
74.600	13.681	0.099
74.700	14.800	0.099
74.800	11.791	0.099
74.900	-0.702	0.099
75.000	9.119	0.099
75.100	19.359	0.099
75.200	20.147	0.099
75.300	2.038	0.099
75.400	-0.174	0.099
75.500	-2.309	0.099
75.600	23.299	0.099
75.700	22.863	0.099
75.800	22.939	0.099
75.900	5.315	0.099
76.000	35.504	0.099
76.100	10.717	0.099
76.200	31.154	0.099
76.300	11.997	0.099
76.400	18.240	0.099
76.500	13.815	0.099
76.600	17.624	0.099
76.700	11.214	0.099
76.800	0.444	0.099
76.900	14.030	0.099
77.000	22.982	0.099
77.100	17.443	0.099
77.200	1.783	0.099
77.300	20.953	0.099
77.400	21.708	0.099
77.500	11.221	0.099
77.600	10.915	0.099
77.700	7.258	0.099
77.800	13.649	0.099
77.900	30.567	0.099
78.000	18.029	0.099
78.100	7.377	0.099
78.200	21.845	0.099
78.300	8.642	0.099
78.400	12.770	0.099
78.500	24.263	0.099
78.600	21.613	0.099
78.700	-1.672	0.099
78.800	23.429	0.099
78.900	11.198	0.099
79.000	-5.071	0.099
79.100	11.329	0.099
79.200	16.013	0.099
79.300	19.794	0.099
79.400	16.523	0.099
79.500	13.952	0.099
79.600	16.791	0.099
79.700	13.361	0.099
79.800	9.922	0.099
79.900	7.067	0.099
80.000	8.927	0.099
80.100	12.600	0.099
80.200	18.045	0.099
80.300	16.004	0.099
80.400	5.661	0.099
80.500	19.894	0.099
80.600	7.551	0.099
80.700	26.805	0.099
80.800	8.380	0.099
80.900	11.630	0.099
81.000	21.494	0.099
81.100	10.607	0.099
81.200	11.144	0.099
81.300	26.614	0.099
81.400	15.778	0.099
81.500	4.573	0.099
81.600	10.235	0.099
81.700	20.199	0.099
81.800	22.285	0.099
81.900	17.228	0.099
82.000	11.809	0.099
82.100	15.497	0.099
82.200	5.557	0.099
82.300	7.529	0.099
82.400	10.861	0.099
82.500	12.446	0.099
82.600	19.077	0.099
82.700	20.893	0.099
82.800	9.768	0.099
82.900	8.574	0.099
83.000	18.584	0.099
83.100	14.049	0.099
83.200	14.991	0.099
83.300	8.310	0.099
83.400	9.171	0.099
83.500	10.086	0.099
83.600	18.964	0.099
83.700	12.842	0.099
83.800	12.847	0.099
83.900	25.450	0.099
84.000	9.666	0.099
84.100	14.258	0.099
84.200	11.352	0.099
84.300	18.664	0.099
84.400	19.341	0.099
84.500	5.931	0.099
84.600	10.771	0.099
84.700	15.532	0.099
84.800	23.081	0.099
84.900	15.154	0.099
85.000	15.429	0.099
85.100	9.056	0.099
85.200	8.674	0.099
85.300	18.307	0.099
85.400	35.724	0.099
85.500	2.342	0.099
85.600	16.753	0.099
85.700	26.795	0.099
85.800	5.301	0.099
85.900	15.996	0.099
86.000	22.201	0.099
86.100	16.234	0.099
86.200	15.287	0.099
86.300	9.812	0.099
86.400	3.033	0.099
86.500	21.058	0.099
86.600	17.694	0.099
86.700	-4.174	0.099
86.800	14.226	0.099
86.900	11.017	0.099
87.000	15.207	0.099
87.100	17.029	0.099
87.200	10.476	0.099
87.300	15.274	0.099
87.400	15.564	0.099
87.500	20.989	0.099
87.600	11.816	0.099
87.700	12.069	0.099
87.800	12.420	0.099
87.900	24.053	0.099
88.000	0.791	0.099
88.100	20.059	0.099
88.200	4.439	0.099
88.300	14.828	0.099
88.400	4.771	0.099
88.500	6.532	0.099
88.600	19.718	0.099
88.700	9.316	0.099
88.800	17.030	0.099
88.900	9.730	0.099
89.000	16.785	0.099
89.100	12.042	0.099
89.200	6.309	0.099
89.300	25.252	0.099
89.400	5.649	0.099
89.500	2.217	0.099
89.600	8.598	0.099
89.700	13.869	0.099
89.800	5.652	0.099
89.900	0.977	0.099
90.000	-4.507	0.099
90.100	-7.162	0.099
90.200	19.418	0.099
90.300	-2.725	0.099
90.400	2.708	0.099
90.500	-8.415	0.099
90.600	-14.617	0.099
90.700	-12.174	0.099
90.800	-9.364	0.099
90.900	-17.178	0.099
91.000	5.761	0.099
91.100	-17.225	0.099
91.200	1.102	0.099
91.300	-14.061	0.099
91.400	-16.862	0.099
91.500	-14.596	0.099
91.600	-29.233	0.099
91.700	-13.070	0.099
91.800	-23.730	0.099
91.900	-23.835	0.099
92.000	-30.646	0.099
92.100	-28.278	0.099
92.200	-20.823	0.099
92.300	-26.394	0.099
92.400	-24.626	0.099
92.500	-28.273	0.099
92.600	-24.847	0.099
92.700	-32.590	0.099
92.800	-38.950	0.099
92.900	-37.330	0.099
93.000	-26.259	0.099
93.100	-34.805	0.099
93.200	-25.978	0.099
93.300	-31.764	0.099
93.400	-28.643	0.099
93.500	-37.966	0.099
93.600	-31.471	0.099
93.700	-28.300	0.099
93.800	-19.826	0.099
93.900	-25.247	0.099
94.000	-15.780	0.099
94.100	-16.354	0.099
94.200	-20.387	0.099
94.300	-28.536	0.099
94.400	-17.680	0.099
94.500	-39.644	0.099
94.600	-19.041	0.099
94.700	-21.053	0.099
94.800	-23.827	0.099
94.900	-39.329	0.099
95.000	-12.063	0.099
95.100	-16.332	0.099
95.200	-24.692	0.099
95.300	-26.870	0.099
95.400	-11.898	0.099
95.500	-29.787	0.099
95.600	-21.131	0.099
95.700	-23.990	0.099
95.800	-32.455	0.099
95.900	-13.983	0.099
96.000	-6.208	0.099
96.100	-25.752	0.099
96.200	-5.051	0.099
96.300	-22.335	0.099
96.400	-16.155	0.099
96.500	-24.214	0.099
96.600	-19.768	0.099
96.700	-19.225	0.099
96.800	-8.478	0.099
96.900	-12.060	0.099
97.000	-23.219	0.099
97.100	-12.667	0.099
97.200	-17.277	0.099
97.300	-15.775	0.099
97.400	-14.471	0.099
97.500	-15.448	0.099
97.600	-19.443	0.099
97.700	-32.148	0.099
97.800	-8.616	0.099
97.900	-2.995	0.099
98.000	-9.915	0.099
98.100	-14.174	0.099
98.200	-10.337	0.099
98.300	-6.962	0.099
98.400	-8.296	0.099
98.500	-20.062	0.099
98.600	-9.631	0.099
98.700	-9.749	0.099
98.800	-8.120	0.099
98.900	-18.022	0.099
99.000	11.763	0.099
99.100	-18.559	0.099
99.200	5.317	0.099
99.300	-16.372	0.099
99.400	-8.768	0.099
99.500	-6.494	0.099
99.600	-1.466	0.099
99.700	-7.255	0.099
99.800	-7.733	0.099
99.900	-22.653	0.099
100.000	-12.118	0.099
100.100	-5.605	0.099
100.200	-8.696	0.099
100.300	-7.888	0.099
100.400	0.147	0.099
100.500	-1.786	0.099
100.600	-15.669	0.099
100.700	-0.419	0.099
100.800	-6.342	0.099
100.900	-4.569	0.099
101.000	2.473	0.099
101.100	-24.642	0.099
101.200	-0.179	0.099
101.300	-0.719	0.099
101.400	-6.981	0.099
101.500	0.276	0.099
101.600	-9.868	0.099
101.700	5.917	0.099
101.800	3.865	0.099
101.900	4.937	0.099
102.000	0.893	0.099
102.100	0.650	0.099
102.200	6.799	0.099
102.300	-1.189	0.099
102.400	-8.617	0.099
102.500	-3.546	0.099
102.600	-14.162	0.099
102.700	-7.312	0.099
102.800	2.070	0.099
102.900	-0.727	0.099
103.000	0.869	0.099
103.100	-6.523	0.099
103.200	-21.163	0.099
103.300	-8.612	0.099
103.400	-4.284	0.099
103.500	-8.139	0.099
103.600	-13.075	0.099
103.700	1.018	0.099
103.800	5.491	0.099
103.900	-17.035	0.099
104.000	9.754	0.099
104.100	-2.883	0.099
104.200	-3.787	0.099
104.300	-9.543	0.099
104.400	-9.745	0.099
104.500	-1.122	0.099
104.600	-12.777	0.099
104.700	-4.815	0.099
104.800	0.648	0.099
104.900	-17.968	0.099
105.000	4.320	0.099
105.100	-3.405	0.099
105.200	-15.173	0.099
105.300	20.646	0.099
105.400	-2.437	0.099
105.500	3.575	0.099
105.600	-1.455	0.099
105.700	4.292	0.099
105.800	-3.738	0.099
105.900	-2.533	0.099
106.000	4.556	0.099
106.100	-18.685	0.099
106.200	4.500	0.099
106.300	-5.373	0.099
106.400	-0.655	0.099
106.500	-3.399	0.099
106.600	-15.553	0.099
106.700	-1.321	0.099
106.800	-0.203	0.099
106.900	-0.086	0.099
107.000	1.676	0.099
107.100	-1.718	0.099
107.200	-15.484	0.099
107.300	-14.315	0.099
107.400	-7.912	0.099
107.500	4.241	0.099
107.600	1.875	0.099
107.700	-28.439	0.099
107.800	-4.018	0.099
107.900	-4.599	0.099
108.000	4.127	0.099
108.100	-10.464	0.099
108.200	-20.052	0.099
108.300	-10.209	0.099
108.400	3.603	0.099
108.500	-7.923	0.099
108.600	-7.465	0.099
108.700	-11.842	0.099
108.800	4.970	0.099
108.900	3.098	0.099
109.000	-4.682	0.099
109.100	1.511	0.099
109.200	0.419	0.099
109.300	1.417	0.099
109.400	-2.698	0.099
109.500	-23.880	0.099
109.600	-3.247	0.099
109.700	3.569	0.099
109.800	-8.178	0.099
109.900	12.033	0.099
110.000	-0.128	0.099
110.100	-5.707	0.099
110.200	-16.152	0.099
110.300	12.065	0.099
110.400	3.027	0.099
110.500	-4.398	0.099
110.600	0.149	0.099
110.700	-1.330	0.099
110.800	-4.370	0.099
110.900	-7.213	0.099
111.000	-11.830	0.099
111.100	-1.398	0.099
111.200	2.333	0.099
111.300	5.601	0.099
111.400	2.786	0.099
111.500	-12.585	0.099
111.600	-15.520	0.099
111.700	13.504	0.099
111.800	-22.019	0.099
111.900	-0.963	0.099
112.000	-4.590	0.099
112.100	-1.480	0.099
112.200	-22.014	0.099
112.300	5.523	0.099
112.400	2.439	0.099
112.500	-4.112	0.099
112.600	-0.509	0.099
112.700	-1.231	0.099
112.800	-5.116	0.099
112.900	-6.765	0.099
113.000	8.157	0.099
113.100	-4.908	0.099
113.200	-10.183	0.099
113.300	-1.966	0.099
113.400	-13.026	0.099
113.500	-1.182	0.099
113.600	-1.585	0.099
113.700	2.692	0.099
113.800	-13.979	0.099
113.900	-6.350	0.099
114.000	-1.977	0.099
114.100	-13.586	0.099
114.200	-7.893	0.099
114.300	-9.240	0.099
114.400	5.152	0.099
114.500	-3.647	0.099
114.600	12.617	0.099
114.700	-3.096	0.099
114.800	-8.700	0.099
114.900	-1.505	0.099
115.000	-13.078	0.099
115.100	-17.457	0.099
115.200	-1.043	0.099
115.300	4.886	0.099
115.400	-12.120	0.099
115.500	1.581	0.099
115.600	-5.630	0.099
115.700	-10.387	0.099
115.800	-5.506	0.099
115.900	-0.270	0.099
116.000	-0.940	0.099
116.100	6.595	0.099
116.200	-13.663	0.099
116.300	-5.863	0.099
116.400	-12.173	0.099
116.500	-9.355	0.099
116.600	5.248	0.099
116.700	2.504	0.099
116.800	-23.227	0.099
116.900	1.383	0.099
117.000	-8.174	0.099
117.100	-3.747	0.099
117.200	-7.367	0.099
117.300	-9.258	0.099
117.400	-13.646	0.099
117.500	-9.878	0.099
117.600	5.927	0.099
117.700	1.618	0.099
117.800	-6.685	0.099
117.900	-8.541	0.099
118.000	-20.892	0.099
118.100	-10.232	0.099
118.200	-2.393	0.099
118.300	-9.874	0.099
118.400	-15.059	0.099
118.500	-14.975	0.099
118.600	-4.940	0.099
118.700	-6.101	0.099
118.800	-6.305	0.099
118.900	9.406	0.099
119.000	-20.047	0.099
119.100	-10.739	0.099
119.200	0.010	0.099
119.300	-1.160	0.099
119.400	-1.271	0.099
119.500	0.323	0.099
119.600	-6.385	0.099
119.700	-12.235	0.099
119.800	-13.752	0.099
119.900	-2.090	0.099
120.000	-14.242	0.099
120.100	2.548	0.099
120.200	-12.823	0.099
120.300	-7.886	0.099
120.400	-4.234	0.099
120.500	-13.821	0.099
120.600	-10.948	0.099
120.700	-13.963	0.099
120.800	-16.659	0.099
120.900	-0.640	0.099
121.000	-1.591	0.099
121.100	8.439	0.099
121.200	-4.825	0.099
121.300	0.948	0.099
121.400	7.098	0.099
121.500	-5.580	0.099
121.600	-0.618	0.099
121.700	-4.396	0.099
121.800	-13.620	0.099
121.900	-5.252	0.099
122.000	-5.795	0.099
122.100	8.092	0.099
122.200	-1.349	0.099
122.300	-12.553	0.099
122.400	-22.190	0.099
122.500	-10.754	0.099
122.600	3.649	0.099
122.700	-8.547	0.099
122.800	-6.489	0.099
122.900	-0.941	0.099
123.000	-7.038	0.099
123.100	-6.035	0.099
123.200	-4.656	0.099
123.300	-2.859	0.099
123.400	-1.404	0.099
123.500	-0.786	0.099
123.600	-6.788	0.099
123.700	-24.367	0.099
123.800	1.730	0.099
123.900	-16.674	0.099
124.000	0.109	0.099
124.100	-20.283	0.099
124.200	10.937	0.099
124.300	-5.139	0.099
124.400	-20.020	0.099
124.500	0.509	0.099
124.600	-0.613	0.099
124.700	-10.673	0.099
124.800	-9.333	0.099
124.900	-5.271	0.099
125.000	0.995	0.099
125.100	-5.551	0.099
125.200	-11.525	0.099
125.300	-25.168	0.099
125.400	-6.363	0.099
125.500	0.275	0.099
125.600	-5.258	0.099
125.700	-7.378	0.099
125.800	-5.709	0.099
125.900	-3.873	0.099
126.000	-20.178	0.099
126.100	-8.305	0.099
126.200	7.180	0.099
126.300	-7.564	0.099
126.400	-22.234	0.099
126.500	2.613	0.099
126.600	-20.059	0.099
126.700	-0.254	0.099
126.800	-13.509	0.099
126.900	-6.594	0.099
127.000	6.191	0.099
127.100	-17.577	0.099
127.200	-6.037	0.099
127.300	-7.856	0.099
127.400	-13.617	0.099
127.500	-2.960	0.099
127.600	0.496	0.099
127.700	-3.042	0.099
127.800	-2.224	0.099
127.900	-12.826	0.099
128.000	-5.124	0.099
128.100	-2.529	0.099
128.200	-11.088	0.099
128.300	-13.660	0.099
128.400	-2.213	0.099
128.500	-0.829	0.099
128.600	-15.137	0.099
128.700	-17.715	0.099
128.800	-3.473	0.099
128.900	19.787	0.099
129.000	2.522	0.099
129.100	0.465	0.099
129.200	-20.040	0.099
129.300	-12.260	0.099
129.400	-18.317	0.099
129.500	-4.107	0.099
129.600	-13.633	0.099
129.700	-9.490	0.099
129.800	5.358	0.099
129.900	2.342	0.099
130.000	-11.055	0.099
130.100	-10.570	0.099
130.200	0.439	0.099
130.300	-10.071	0.099
130.400	-8.092	0.099
130.500	-6.836	0.099
130.600	-26.675	0.099
130.700	-4.391	0.099
130.800	-5.064	0.099
130.900	-17.069	0.099
131.000	-9.455	0.099
131.100	0.227	0.099
131.200	-2.876	0.099
131.300	-15.384	0.099
131.400	-2.092	0.099
131.500	-9.777	0.099
131.600	3.196	0.099
131.700	-12.314	0.099
131.800	-10.808	0.099
131.900	-14.413	0.099
132.000	-2.286	0.099
132.100	-20.877	0.099
132.200	7.976	0.099
132.300	-5.133	0.099
132.400	-7.896	0.099
132.500	-17.784	0.099
132.600	-11.661	0.099
132.700	-11.840	0.099
132.800	-9.014	0.099
132.900	-11.069	0.099
133.000	-6.019	0.099
133.100	-10.743	0.099
133.200	-3.435	0.099
133.300	-5.010	0.099
133.400	-15.878	0.099
133.500	-18.975	0.099
133.600	-3.481	0.099
133.700	-2.104	0.099
133.800	-12.914	0.099
133.900	-2.808	0.099
134.000	-9.143	0.099
134.100	-20.107	0.099
134.200	14.601	0.099
134.300	-1.879	0.099
134.400	-15.250	0.099
134.500	-2.684	0.099
134.600	-7.770	0.099
134.700	-20.147	0.099
134.800	-5.457	0.099
134.900	-17.174	0.099
135.000	-5.168	0.099
135.100	-4.373	0.099
135.200	-7.988	0.099
135.300	-11.424	0.099
135.400	-9.741	0.099
135.500	-10.614	0.099
135.600	-6.304	0.099
135.700	-5.945	0.099
135.800	-17.966	0.099
135.900	-18.412	0.099
136.000	-6.274	0.099
136.100	-18.646	0.099
136.200	-16.569	0.099
136.300	4.047	0.099
136.400	-12.909	0.099
136.500	-2.988	0.099
136.600	-20.428	0.099
136.700	2.062	0.099
136.800	-15.661	0.099
136.900	-8.237	0.099
137.000	-4.358	0.099
137.100	-12.413	0.099
137.200	-11.154	0.099
137.300	-10.214	0.099
137.400	-5.728	0.099
137.500	3.732	0.099
137.600	-17.321	0.099
137.700	3.330	0.099
137.800	-6.959	0.099
137.900	-4.777	0.099
138.000	-4.529	0.099
138.100	-1.144	0.099
138.200	-1.220	0.099
138.300	-6.713	0.099
138.400	-9.804	0.099
138.500	-19.379	0.099
138.600	-5.466	0.099
138.700	6.074	0.099
138.800	-14.104	0.099
138.900	-26.374	0.099
139.000	3.405	0.099
139.100	-10.870	0.099
139.200	-3.204	0.099
139.300	-11.998	0.099
139.400	10.565	0.099
139.500	-13.827	0.099
139.600	-0.309	0.099
139.700	-6.342	0.099
139.800	0.070	0.099
139.900	-1.016	0.099
140.000	-5.444	0.099
140.100	-12.999	0.099
140.200	-4.271	0.099
140.300	-1.135	0.099
140.400	-0.793	0.099
140.500	-13.772	0.099
140.600	-7.057	0.099
140.700	-14.793	0.099
140.800	-3.894	0.099
140.900	-4.151	0.099
141.000	-4.019	0.099
141.100	-6.557	0.099
141.200	-17.321	0.099
141.300	0.801	0.099
141.400	-3.832	0.099
141.500	-2.126	0.099
141.600	-10.430	0.099
141.700	-12.538	0.099
141.800	-2.462	0.099
141.900	-7.085	0.099
142.000	-4.443	0.099
142.100	-5.625	0.099
142.200	-16.057	0.099
142.300	3.466	0.099
142.400	-3.192	0.099
142.500	-3.936	0.099
142.600	-1.782	0.099
142.700	-5.797	0.099
142.800	-6.238	0.099
142.900	-4.472	0.099
143.000	1.637	0.099
143.100	-15.072	0.099
143.200	-4.310	0.099
143.300	-0.833	0.099
143.400	-10.208	0.099
143.500	-9.799	0.099
143.600	0.999	0.099
143.700	-5.532	0.099
143.800	3.270	0.099
143.900	-14.832	0.099
144.000	3.307	0.099
144.100	-9.709	0.099
144.200	12.492	0.099
144.300	-10.060	0.099
144.400	-7.978	0.099
144.500	-4.605	0.099
144.600	-5.876	0.099
144.700	-7.370	0.099
144.800	-13.578	0.099
144.900	-0.754	0.099
145.000	3.695	0.099
145.100	-0.477	0.099
145.200	-17.017	0.099
145.300	-14.388	0.099
145.400	-17.056	0.099
145.500	-10.103	0.099
145.600	-3.655	0.099
145.700	-8.617	0.099
145.800	-19.206	0.099
145.900	-10.604	0.099
146.000	-15.398	0.099
146.100	-15.771	0.099
146.200	-14.256	0.099
146.300	1.487	0.099
146.400	5.230	0.099
146.500	-10.044	0.099
146.600	-0.534	0.099
146.700	-0.362	0.099
146.800	-3.318	0.099
146.900	-6.194	0.099
147.000	-8.878	0.099
147.100	1.269	0.099
147.200	-1.140	0.099
147.300	-5.358	0.099
147.400	-2.612	0.099
147.500	-9.905	0.099
147.600	-5.362	0.099
147.700	-9.244	0.099
147.800	-5.681	0.099
147.900	-13.480	0.099
148.000	-13.841	0.099
148.100	-9.157	0.099
148.200	-14.499	0.099
148.300	-9.163	0.099
148.400	-9.173	0.099
148.500	3.048	0.099
148.600	3.370	0.099
148.700	-4.952	0.099
148.800	-14.139	0.099
148.900	-21.047	0.099
149.000	-5.975	0.099
149.100	-18.538	0.099
149.200	-1.693	0.099
149.300	-9.168	0.099
149.400	4.656	0.099
149.500	-8.706	0.099
149.600	-17.007	0.099
149.700	-0.510	0.099
149.800	-10.241	0.099
149.900	-11.058	0.099
150.000	-7.762	0.099
150.100	1.041	0.099
150.200	-28.457	0.099
150.300	-16.352	0.099
150.400	-2.377	0.099
150.500	-6.633	0.099
150.600	-0.149	0.099
150.700	-10.661	0.099
150.800	-9.365	0.099
150.900	1.224	0.099
151.000	-0.922	0.099
151.100	-7.693	0.099
151.200	-10.087	0.099
151.300	-6.291	0.099
151.400	-2.060	0.099
151.500	-5.824	0.099
151.600	-9.850	0.099
151.700	-2.725	0.099
151.800	-5.064	0.099
151.900	-22.136	0.099
152.000	-14.038	0.099
152.100	-10.566	0.099
152.200	-3.839	0.099
152.300	-9.227	0.099
152.400	-11.177	0.099
152.500	-1.590	0.099
152.600	-2.659	0.099
152.700	-9.612	0.099
152.800	-3.821	0.099
152.900	-9.719	0.099
153.000	-16.458	0.099
153.100	-14.170	0.099
153.200	-3.603	0.099
153.300	-0.453	0.099
153.400	-0.823	0.099
153.500	-3.868	0.099
153.600	-1.978	0.099
153.700	-0.388	0.099
153.800	-5.225	0.099
153.900	-10.962	0.099
154.000	-13.893	0.099
154.100	7.853	0.099
154.200	-2.728	0.099
154.300	-6.533	0.099
154.400	-5.494	0.099
154.500	-0.635	0.099
154.600	-15.416	0.099
154.700	-4.923	0.099
154.800	-14.214	0.099
154.900	-14.270	0.099
155.000	-8.108	0.099
155.100	3.280	0.099
155.200	-18.364	0.099
155.300	-2.059	0.099
155.400	-4.515	0.099
155.500	-5.791	0.099
155.600	-9.528	0.099
155.700	0.909	0.099
155.800	-9.393	0.099
155.900	-1.041	0.099
156.000	-16.197	0.099
156.100	-1.990	0.099
156.200	0.177	0.099
156.300	-20.272	0.099
156.400	-10.554	0.099
156.500	6.935	0.099
156.600	5.778	0.099
156.700	2.305	0.099
156.800	3.825	0.099
156.900	-2.746	0.099
157.000	-3.087	0.099
157.100	-8.093	0.099
157.200	-8.040	0.099
157.300	4.161	0.099
157.400	-9.912	0.099
157.500	-0.145	0.099
157.600	-9.366	0.099
157.700	-3.918	0.099
157.800	-4.349	0.099
157.900	2.027	0.099
158.000	-5.500	0.099
158.100	-3.259	0.099
158.200	-3.926	0.099
158.300	-6.898	0.099
158.400	-12.819	0.099
158.500	-12.410	0.099
158.600	-2.536	0.099
158.700	-19.182	0.099
158.800	-2.309	0.099
158.900	1.560	0.099
159.000	-3.280	0.099
159.100	-2.793	0.099
159.200	-6.148	0.099
159.300	5.048	0.099
159.400	1.728	0.099
159.500	1.267	0.099
159.600	0.944	0.099
159.700	-10.280	0.099
159.800	-4.584	0.099
159.900	-4.687	0.099
160.000	-20.363	0.099
160.100	-9.266	0.099
160.200	-3.170	0.099
160.300	-14.890	0.099
160.400	-7.705	0.099
160.500	-7.465	0.099
160.600	-6.128	0.099
160.700	-9.349	0.099
160.800	6.736	0.099
160.900	-0.380	0.099
161.000	-9.095	0.099
161.100	-20.460	0.099
161.200	-2.549	0.099
161.300	11.229	0.099
161.400	1.465	0.099
161.500	-6.399	0.099
161.600	-13.206	0.099
161.700	-0.863	0.099
161.800	-15.282	0.099
161.900	-19.712	0.099
162.000	-3.251	0.099
162.100	-3.517	0.099
162.200	-11.860	0.099
162.300	-6.771	0.099
162.400	-3.144	0.099
162.500	4.493	0.099
162.600	-8.560	0.099
162.700	1.936	0.099
162.800	4.000	0.099
162.900	-1.967	0.099
163.000	-15.999	0.099
163.100	-2.806	0.099
163.200	-4.151	0.099
163.300	2.208	0.099
163.400	-5.877	0.099
163.500	-13.845	0.099
163.600	-27.730	0.099
163.700	0.666	0.099
163.800	-10.969	0.099
163.900	-6.635	0.099
164.000	-10.383	0.099
164.100	-7.970	0.099
164.200	5.195	0.099
164.300	0.406	0.099
164.400	0.027	0.099
164.500	-4.724	0.099
164.600	-18.589	0.099
164.700	-3.106	0.099
164.800	-17.096	0.099
164.900	-14.698	0.099
165.000	-8.999	0.099
165.100	-3.946	0.099
165.200	-0.158	0.099
165.300	7.763	0.099
165.400	7.152	0.099
165.500	-12.307	0.099
165.600	-10.721	0.099
165.700	-11.734	0.099
165.800	6.112	0.099
165.900	-10.866	0.099
166.000	3.927	0.099
166.100	-11.786	0.099
166.200	-10.614	0.099
166.300	9.477	0.099
166.400	-3.675	0.099
166.500	-0.193	0.099
166.600	-4.355	0.099
166.700	-9.447	0.099
166.800	2.416	0.099
166.900	15.199	0.099
167.000	1.831	0.099
167.100	-2.727	0.099
167.200	-4.201	0.099
167.300	-20.182	0.099
167.400	5.673	0.099
167.500	-3.372	0.099
167.600	-2.274	0.099
167.700	-2.509	0.099
167.800	-5.300	0.099
167.900	-0.216	0.099
168.000	-2.885	0.099
168.100	-8.214	0.099
168.200	-2.076	0.099
168.300	-6.237	0.099
168.400	-11.654	0.099
168.500	-5.364	0.099
168.600	-18.797	0.099
168.700	-0.563	0.099
168.800	2.713	0.099
168.900	11.143	0.099
169.000	5.412	0.099
169.100	-1.977	0.099
169.200	-6.020	0.099
169.300	-11.952	0.099
169.400	1.240	0.099
169.500	-4.658	0.099
169.600	0.581	0.099
169.700	-0.973	0.099
169.800	-4.924	0.099
169.900	-8.809	0.099
170.000	-6.390	0.099
170.100	0.411	0.099
170.200	0.649	0.099
170.300	-7.415	0.099
170.400	-3.985	0.099
170.500	-15.894	0.099
170.600	4.863	0.099
170.700	-4.948	0.099
170.800	-4.844	0.099
170.900	0.406	0.099
171.000	0.538	0.099
171.100	7.503	0.099
171.200	-11.372	0.099
171.300	6.024	0.099
171.400	6.847	0.099
171.500	1.629	0.099
171.600	-5.501	0.099
171.700	-12.202	0.099
171.800	16.153	0.099
171.900	-1.664	0.099
172.000	-3.603	0.099
172.100	4.068	0.099
172.200	-0.073	0.099
172.300	14.849	0.099
172.400	-3.500	0.099
172.500	9.804	0.099
172.600	-6.194	0.099
172.700	2.910	0.099
172.800	-8.162	0.099
172.900	7.612	0.099
173.000	-3.894	0.099
173.100	-2.092	0.099
173.200	-3.061	0.099
173.300	-3.248	0.099
173.400	-14.214	0.099
173.500	2.584	0.099
173.600	10.581	0.099
173.700	-1.431	0.099
173.800	4.340	0.099
173.900	-12.398	0.099
174.000	-1.465	0.099
174.100	4.836	0.099
174.200	-8.974	0.099
174.300	-2.275	0.099
174.400	3.163	0.099
174.500	-12.870	0.099
174.600	7.565	0.099
174.700	-8.744	0.099
174.800	11.024	0.099
174.900	-8.898	0.099
175.000	-9.162	0.099
175.100	-5.867	0.099
175.200	5.916	0.099
175.300	-5.416	0.099
175.400	2.449	0.099
175.500	6.425	0.099
175.600	-0.576	0.099
175.700	-8.844	0.099
175.800	-17.228	0.099
175.900	-12.271	0.099
176.000	-4.961	0.099
176.100	-11.183	0.099
176.200	-10.539	0.099
176.300	-3.864	0.099
176.400	-10.206	0.099
176.500	0.463	0.099
176.600	6.801	0.099
176.700	-2.849	0.099
176.800	7.968	0.099
176.900	15.397	0.099
177.000	7.690	0.099
177.100	4.625	0.099
177.200	-15.865	0.099
177.300	-6.435	0.099
177.400	-13.711	0.099
177.500	-2.357	0.099
177.600	4.468	0.099
177.700	5.139	0.099
177.800	-6.759	0.099
177.900	8.876	0.099
178.000	-5.478	0.099
178.100	-8.327	0.099
178.200	-15.260	0.099
178.300	-0.896	0.099
178.400	-15.017	0.099
178.500	-6.358	0.099
178.600	-3.488	0.099
178.700	-8.577	0.099
178.800	8.785	0.099
178.900	-3.528	0.099
179.000	-3.182	0.099
179.100	-2.245	0.099
179.200	-9.168	0.099
179.300	0.865	0.099
179.400	-7.154	0.099
179.500	1.236	0.099
179.600	12.037	0.099
179.700	-12.632	0.099
179.800	5.441	0.099
179.900	16.165	0.099
180.000	4.374	0.099
180.100	12.576	0.099
180.200	19.901	0.099
180.300	10.135	0.099
180.400	22.630	0.099
180.500	36.433	0.099
180.600	29.794	0.099
180.700	23.534	0.099
180.800	21.391	0.099
180.900	9.865	0.099
181.000	36.351	0.099
181.100	28.138	0.099
181.200	25.041	0.099
181.300	27.127	0.099
181.400	27.850	0.099
181.500	26.875	0.099
181.600	28.225	0.099
181.700	22.067	0.099
181.800	27.479	0.099
181.900	17.883	0.099
182.000	31.174	0.099
182.100	19.128	0.099
182.200	22.374	0.099
182.300	37.423	0.099
182.400	15.225	0.099
182.500	36.146	0.099
182.600	10.827	0.099
182.700	30.549	0.099
182.800	28.746	0.099
182.900	37.012	0.099
183.000	16.405	0.099
183.100	28.401	0.099
183.200	14.979	0.099
183.300	37.612	0.099
183.400	12.662	0.099
183.500	19.082	0.099
183.600	30.666	0.099
183.700	25.603	0.099
183.800	20.420	0.099
183.900	20.063	0.099
184.000	4.673	0.099
184.100	29.681	0.099
184.200	20.001	0.099
184.300	3.283	0.099
184.400	24.938	0.099
184.500	18.117	0.099
184.600	25.164	0.099
184.700	7.792	0.099
184.800	27.878	0.099
184.900	15.188	0.099
185.000	19.934	0.099
185.100	16.465	0.099
185.200	15.349	0.099
185.300	22.945	0.099
185.400	14.733	0.099
185.500	24.461	0.099
185.600	15.615	0.099
185.700	24.284	0.099
185.800	18.434	0.099
185.900	16.843	0.099
186.000	34.490	0.099
186.100	22.824	0.099
186.200	18.191	0.099
186.300	18.328	0.099
186.400	21.243	0.099
186.500	26.086	0.099
186.600	17.077	0.099
186.700	21.554	0.099
186.800	12.942	0.099
186.900	11.135	0.099
187.000	21.764	0.099
187.100	14.105	0.099
187.200	20.622	0.099
187.300	19.205	0.099
187.400	12.176	0.099
187.500	11.622	0.099
187.600	24.236	0.099
187.700	16.012	0.099
187.800	17.803	0.099
187.900	24.630	0.099
188.000	25.393	0.099
188.100	25.302	0.099
188.200	20.914	0.099
188.300	26.580	0.099
188.400	23.970	0.099
188.500	24.884	0.099
188.600	16.755	0.099
188.700	20.359	0.099
188.800	29.538	0.099
188.900	20.496	0.099
189.000	35.556	0.099
189.100	25.707	0.099
189.200	22.355	0.099
189.300	36.485	0.099
189.400	22.462	0.099
189.500	27.182	0.099
189.600	31.376	0.099
189.700	24.341	0.099
189.800	33.140	0.099
189.900	26.129	0.099
190.000	28.904	0.099
190.100	23.328	0.099
190.200	18.865	0.099
190.300	27.932	0.099
190.400	23.417	0.099
190.500	17.201	0.099
190.600	36.728	0.099
190.700	24.940	0.099
190.800	24.501	0.099
190.900	30.010	0.099
191.000	31.346	0.099
191.100	37.607	0.099
191.200	8.900	0.099
191.300	18.252	0.099
191.400	19.535	0.099
191.500	25.273	0.099
191.600	25.507	0.099
191.700	9.519	0.099
191.800	32.772	0.099
191.900	17.513	0.099
192.000	31.665	0.099
192.100	39.885	0.099
192.200	27.438	0.099
192.300	31.939	0.099
192.400	28.299	0.099
192.500	30.769	0.099
192.600	23.465	0.099
192.700	31.303	0.099
192.800	35.516	0.099
192.900	38.262	0.099
193.000	24.269	0.099
193.100	40.083	0.099
193.200	28.238	0.099
193.300	22.017	0.099
193.400	34.456	0.099
193.500	32.117	0.099
193.600	22.041	0.099
193.700	30.793	0.099
193.800	24.531	0.099
193.900	27.655	0.099
194.000	27.382	0.099
194.100	42.304	0.099
194.200	18.351	0.099
194.300	22.356	0.099
194.400	30.424	0.099
194.500	32.401	0.099
194.600	34.903	0.099
194.700	30.885	0.099
194.800	29.648	0.099
194.900	29.501	0.099
195.000	29.813	0.099
195.100	27.382	0.099
195.200	34.050	0.099
195.300	28.673	0.099
195.400	25.342	0.099
195.500	34.964	0.099
195.600	21.509	0.099
195.700	29.542	0.099
195.800	22.488	0.099
195.900	32.435	0.099
196.000	24.687	0.099
196.100	26.670	0.099
196.200	23.918	0.099
196.300	31.113	0.099
196.400	25.607	0.099
196.500	18.897	0.099
196.600	36.968	0.099
196.700	35.154	0.099
196.800	26.044	0.099
196.900	19.244	0.099
197.000	24.529	0.099
197.100	36.973	0.099
197.200	29.982	0.099
197.300	33.841	0.099
197.400	29.750	0.099
197.500	21.059	0.099
197.600	27.584	0.099
197.700	31.814	0.099
197.800	23.101	0.099
197.900	23.859	0.099
198.000	29.770	0.099
198.100	19.648	0.099
198.200	26.981	0.099
198.300	31.287	0.099
198.400	32.730	0.099
198.500	10.594	0.099
198.600	38.015	0.099
198.700	29.345	0.099
198.800	16.154	0.099
198.900	29.874	0.099
199.000	12.562	0.099
199.100	30.988	0.099
199.200	31.666	0.099
199.300	20.054	0.099
199.400	22.677	0.099
199.500	37.175	0.099
199.600	27.766	0.099
199.700	20.291	0.099
199.800	47.482	0.099
199.900	21.184	0.099
200.000	34.386	0.099
200.100	18.443	0.099
200.200	3.012	0.099
200.300	25.120	0.099
200.400	19.405	0.099
200.500	26.093	0.099
200.600	30.900	0.099
200.700	26.266	0.099
200.800	20.541	0.099
200.900	17.644	0.099
201.000	24.122	0.099
201.100	32.802	0.099
201.200	21.664	0.099
201.300	24.892	0.099
201.400	33.567	0.099
201.500	-0.812	0.099
201.600	27.012	0.099
201.700	29.335	0.099
201.800	22.538	0.099
201.900	28.566	0.099
202.000	25.890	0.099
202.100	32.485	0.099
202.200	27.883	0.099
202.300	36.254	0.099
202.400	29.048	0.099
202.500	29.786	0.099
202.600	19.306	0.099
202.700	20.807	0.099
202.800	25.125	0.099
202.900	26.228	0.099
203.000	14.567	0.099
203.100	20.815	0.099
203.200	21.121	0.099
203.300	24.234	0.099
203.400	21.428	0.099
203.500	17.647	0.099
203.600	26.053	0.099
203.700	29.459	0.099
203.800	25.186	0.099
203.900	20.268	0.099
204.000	19.031	0.099
204.100	21.683	0.099
204.200	12.417	0.099
204.300	19.926	0.099
204.400	17.630	0.099
204.500	25.168	0.099
204.600	36.456	0.099
204.700	24.657	0.099
204.800	28.113	0.099
204.900	40.110	0.099
205.000	28.883	0.099
205.100	35.108	0.099
205.200	23.103	0.099
205.300	13.710	0.099
205.400	16.533	0.099
205.500	29.595	0.099
205.600	30.399	0.099
205.700	18.613	0.099
205.800	37.295	0.099
205.900	8.630	0.099
206.000	32.119	0.099
206.100	19.149	0.099
206.200	20.702	0.099
206.300	37.264	0.099
206.400	27.646	0.099
206.500	25.126	0.099
206.600	35.506	0.099
206.700	44.060	0.099
206.800	26.140	0.099
206.900	38.780	0.099
207.000	22.902	0.099
207.100	29.286	0.099
207.200	22.972	0.099
207.300	28.397	0.099
207.400	27.032	0.099
207.500	8.367	0.099
207.600	10.785	0.099
207.700	11.900	0.099
207.800	21.820	0.099
207.900	16.673	0.099
208.000	22.348	0.099
208.100	11.948	0.099
208.200	14.339	0.099
208.300	36.370	0.099
208.400	26.643	0.099
208.500	20.717	0.099
208.600	18.806	0.099
208.700	35.533	0.099
208.800	6.370	0.099
208.900	28.969	0.099
209.000	22.830	0.099
209.100	13.895	0.099
209.200	16.754	0.099
209.300	14.381	0.099
209.400	17.460	0.099
209.500	28.034	0.099
209.600	14.738	0.099
209.700	22.141	0.099
209.800	31.283	0.099
209.900	15.234	0.099
210.000	3.067	0.099
210.100	28.519	0.099
210.200	27.428	0.099
210.300	11.208	0.099
210.400	25.584	0.099
210.500	14.216	0.099
210.600	10.571	0.099
210.700	24.695	0.099
210.800	10.841	0.099
210.900	30.857	0.099
211.000	11.306	0.099
211.100	24.556	0.099
211.200	21.744	0.099
211.300	12.660	0.099
211.400	28.056	0.099
211.500	23.189	0.099
211.600	30.930	0.099
211.700	20.422	0.099
211.800	27.096	0.099
211.900	11.851	0.099
212.000	23.629	0.099
212.100	24.225	0.099
212.200	28.929	0.099
212.300	29.023	0.099
212.400	13.989	0.099
212.500	16.312	0.099
212.600	20.293	0.099
212.700	13.147	0.099
212.800	20.289	0.099
212.900	20.835	0.099
213.000	22.687	0.099
213.100	15.275	0.099
213.200	27.347	0.099
213.300	13.761	0.099
213.400	22.536	0.099
213.500	31.563	0.099
213.600	23.933	0.099
213.700	25.160	0.099
213.800	16.774	0.099
213.900	20.987	0.099
214.000	25.821	0.099
214.100	10.651	0.099
214.200	18.581	0.099
214.300	21.756	0.099
214.400	15.637	0.099
214.500	15.950	0.099
214.600	31.247	0.099
214.700	18.400	0.099
214.800	21.833	0.099
214.900	12.858	0.099
215.000	16.854	0.099
215.100	10.726	0.099
215.200	26.012	0.099
215.300	15.074	0.099
215.400	30.150	0.099
215.500	18.481	0.099
215.600	33.044	0.099
215.700	23.483	0.099
215.800	21.445	0.099
215.900	19.595	0.099
216.000	21.993	0.099
216.100	20.647	0.099
216.200	12.408	0.099
216.300	21.680	0.099
216.400	2.789	0.099
216.500	17.042	0.099
216.600	25.428	0.099
216.700	13.814	0.099
216.800	17.296	0.099
216.900	9.484	0.099
217.000	24.044	0.099
217.100	24.656	0.099
217.200	28.079	0.099
217.300	21.375	0.099
217.400	19.149	0.099
217.500	8.353	0.099
217.600	16.655	0.099
217.700	17.557	0.099
217.800	19.692	0.099
217.900	18.208	0.099
218.000	13.884	0.099
218.100	13.951	0.099
218.200	23.210	0.099
218.300	23.384	0.099
218.400	23.866	0.099
218.500	24.787	0.099
218.600	6.723	0.099
218.700	5.972	0.099
218.800	18.180	0.099
218.900	15.435	0.099
219.000	8.607	0.099
219.100	8.430	0.099
219.200	21.622	0.099
219.300	26.759	0.099
219.400	23.445	0.099
219.500	15.084	0.099
219.600	10.985	0.099
219.700	17.276	0.099
219.800	10.328	0.099
219.900	21.846	0.099
220.000	22.322	0.099
220.100	11.709	0.099
220.200	18.700	0.099
220.300	8.186	0.099
220.400	30.890	0.099
220.500	16.497	0.099
220.600	20.451	0.099
220.700	26.030	0.099
220.800	18.643	0.099
220.900	16.571	0.099
221.000	23.970	0.099
221.100	28.168	0.099
221.200	15.679	0.099
221.300	1.299	0.099
221.400	21.235	0.099
221.500	29.586	0.099
221.600	17.816	0.099
221.700	23.086	0.099
221.800	26.428	0.099
221.900	22.200	0.099
222.000	24.964	0.099
222.100	3.709	0.099
222.200	11.823	0.099
222.300	22.227	0.099
222.400	15.719	0.099
222.500	19.120	0.099
222.600	23.314	0.099
222.700	6.697	0.099
222.800	15.227	0.099
222.900	13.756	0.099
223.000	13.958	0.099
223.100	26.141	0.099
223.200	17.170	0.099
223.300	23.644	0.099
223.400	18.270	0.099
223.500	20.388	0.099
223.600	17.628	0.099
223.700	21.204	0.099
223.800	11.965	0.099
223.900	23.111	0.099
224.000	33.243	0.099
224.100	16.803	0.099
224.200	15.322	0.099
224.300	22.327	0.099
224.400	27.444	0.099
224.500	22.228	0.099
224.600	30.323	0.099
224.700	15.734	0.099
224.800	22.785	0.099
224.900	20.438	0.099
225.000	25.375	0.099
225.100	-8.114	0.099
225.200	15.979	0.099
225.300	15.404	0.099
225.400	25.472	0.099
225.500	19.900	0.099
225.600	23.974	0.099
225.700	18.386	0.099
225.800	26.698	0.099
225.900	10.186	0.099
226.000	25.327	0.099
226.100	21.719	0.099
226.200	17.009	0.099
226.300	32.402	0.099
226.400	-1.301	0.099
226.500	25.663	0.099
226.600	20.931	0.099
226.700	11.611	0.099
226.800	11.034	0.099
226.900	28.133	0.099
227.000	34.131	0.099
227.100	33.053	0.099
227.200	18.563	0.099
227.300	4.161	0.099
227.400	21.906	0.099
227.500	22.620	0.099
227.600	17.181	0.099
227.700	26.956	0.099
227.800	27.803	0.099
227.900	25.393	0.099
228.000	26.912	0.099
228.100	30.585	0.099
228.200	26.575	0.099
228.300	28.454	0.099
228.400	24.172	0.099
228.500	7.723	0.099
228.600	3.498	0.099
228.700	26.989	0.099
228.800	19.110	0.099
228.900	30.138	0.099
229.000	20.312	0.099
229.100	15.918	0.099
229.200	23.441	0.099
229.300	12.393	0.099
229.400	26.714	0.099
229.500	10.172	0.099
229.600	21.470	0.099
229.700	24.889	0.099
229.800	18.138	0.099
229.900	10.552	0.099
230.000	26.396	0.099
230.100	21.150	0.099
230.200	14.099	0.099
230.300	13.610	0.099
230.400	16.165	0.099
230.500	9.318	0.099
230.600	15.930	0.099
230.700	16.646	0.099
230.800	16.478	0.099
230.900	17.415	0.099
231.000	25.461	0.099
231.100	25.659	0.099
231.200	17.563	0.099
231.300	24.368	0.099
231.400	8.821	0.099
231.500	12.813	0.099
231.600	14.949	0.099
231.700	16.061	0.099
231.800	12.822	0.099
231.900	29.679	0.099
232.000	11.512	0.099
232.100	16.718	0.099
232.200	24.629	0.099
232.300	14.538	0.099
232.400	10.471	0.099
232.500	15.643	0.099
232.600	21.487	0.099
232.700	7.437	0.099
232.800	22.049	0.099
232.900	13.618	0.099
233.000	16.446	0.099
233.100	21.556	0.099
233.200	13.292	0.099
233.300	19.643	0.099
233.400	18.963	0.099
233.500	24.827	0.099
233.600	13.639	0.099
233.700	25.701	0.099
233.800	11.786	0.099
233.900	15.828	0.099
234.000	15.606	0.099
234.100	20.541	0.099
234.200	30.294	0.099
234.300	1.532	0.099
234.400	24.055	0.099
234.500	13.372	0.099
234.600	7.914	0.099
234.700	13.795	0.099
234.800	26.179	0.099
234.900	23.743	0.099
235.000	18.585	0.099
235.100	18.648	0.099
235.200	14.403	0.099
235.300	8.259	0.099
235.400	24.194	0.099
235.500	24.172	0.099
235.600	18.107	0.099
235.700	24.166	0.099
235.800	16.632	0.099
235.900	17.546	0.099
236.000	14.758	0.099
236.100	29.559	0.099
236.200	19.891	0.099
236.300	14.757	0.099
236.400	8.089	0.099
236.500	25.316	0.099
236.600	14.146	0.099
236.700	19.273	0.099
236.800	17.260	0.099
236.900	24.684	0.099
237.000	15.407	0.099
237.100	25.565	0.099
237.200	26.346	0.099
237.300	13.364	0.099
237.400	18.383	0.099
237.500	3.855	0.099
237.600	8.671	0.099
237.700	9.916	0.099
237.800	27.379	0.099
237.900	24.972	0.099
238.000	12.283	0.099
238.100	20.477	0.099
238.200	16.719	0.099
238.300	14.278	0.099
238.400	17.575	0.099
238.500	3.383	0.099
238.600	32.509	0.099
238.700	12.077	0.099
238.800	13.267	0.099
238.900	17.602	0.099
239.000	10.742	0.099
239.100	1.061	0.099
239.200	13.833	0.099
239.300	36.002	0.099
239.400	21.433	0.099
239.500	22.370	0.099
239.600	8.117	0.099
239.700	20.602	0.099
239.800	14.805	0.099
239.900	6.155	0.099
240.000	6.943	0.099
240.100	10.950	0.099
240.200	1.228	0.099
240.300	5.573	0.099
240.400	10.494	0.099
240.500	-10.594	0.099
240.600	2.763	0.099
240.700	-6.413	0.099
240.800	-15.383	0.099
240.900	0.793	0.099
241.000	-11.603	0.099
241.100	-30.163	0.099
241.200	-18.226	0.099
241.300	-5.705	0.099
241.400	-22.032	0.099
241.500	-22.672	0.099
241.600	-30.026	0.099
241.700	-18.353	0.099
241.800	-25.165	0.099
241.900	-27.627	0.099
242.000	-23.523	0.099
242.100	-23.454	0.099
242.200	-39.115	0.099
242.300	-18.826	0.099
242.400	-37.046	0.099
242.500	-19.752	0.099
242.600	-36.499	0.099
242.700	-31.318	0.099
242.800	-29.113	0.099
242.900	-32.668	0.099
243.000	-43.699	0.099
243.100	-17.940	0.099
243.200	-34.856	0.099
243.300	-31.959	0.099
243.400	-15.853	0.099
243.500	-40.582	0.099
243.600	-13.485	0.099
243.700	-32.255	0.099
243.800	-42.000	0.099
243.900	-36.269	0.099
244.000	-23.585	0.099
244.100	-24.259	0.099
244.200	-34.764	0.099
244.300	-22.999	0.099
244.400	-30.214	0.099
244.500	-5.522	0.099
244.600	-19.825	0.099
244.700	-33.268	0.099
244.800	-28.222	0.099
244.900	-31.097	0.099
245.000	-24.774	0.099
245.100	-41.286	0.099
245.200	-25.759	0.099
245.300	-15.003	0.099
245.400	-30.952	0.099
245.500	-14.681	0.099
245.600	-11.319	0.099
245.700	-23.352	0.099
245.800	-26.802	0.099
245.900	-27.115	0.099
246.000	-2.553	0.099
246.100	-32.019	0.099
246.200	-18.163	0.099
246.300	-24.982	0.099
246.400	-15.425	0.099
246.500	-15.006	0.099
246.600	-22.748	0.099
246.700	-11.102	0.099
246.800	-10.112	0.099
246.900	-7.905	0.099
247.000	-11.417	0.099
247.100	-17.427	0.099
247.200	-21.406	0.099
247.300	-13.156	0.099
247.400	-26.106	0.099
247.500	2.500	0.099
247.600	-17.522	0.099
247.700	-16.689	0.099
247.800	-16.721	0.099
247.900	-19.291	0.099
248.000	-18.401	0.099
248.100	-24.479	0.099
248.200	-9.098	0.099
248.300	-16.293	0.099
248.400	-9.551	0.099
248.500	5.774	0.099
248.600	-26.386	0.099
248.700	-13.289	0.099
248.800	5.531	0.099
248.900	-15.390	0.099
249.000	-16.832	0.099
249.100	-15.321	0.099
249.200	-8.841	0.099
249.300	-6.674	0.099
249.400	-14.880	0.099
249.500	-19.962	0.099
249.600	-10.132	0.099
249.700	-7.798	0.099
249.800	-0.653	0.099
249.900	-11.481	0.099
250.000	-8.150	0.099
250.100	-4.400	0.099
250.200	-18.259	0.099
250.300	-15.037	0.099
250.400	-24.944	0.099
250.500	-10.956	0.099
250.600	-7.675	0.099
250.700	-15.749	0.099
250.800	14.243	0.099
250.900	-9.420	0.099
251.000	-2.748	0.099
251.100	-10.473	0.099
251.200	-9.136	0.099
251.300	-20.782	0.099
251.400	-20.077	0.099
251.500	-7.700	0.099
251.600	-6.410	0.099
251.700	-9.696	0.099
251.800	1.436	0.099
251.900	-3.088	0.099
252.000	-7.234	0.099
252.100	-16.435	0.099
252.200	-5.689	0.099
252.300	-10.578	0.099
252.400	1.458	0.099
252.500	-12.875	0.099
252.600	-9.403	0.099
252.700	-6.050	0.099
252.800	-11.906	0.099
252.900	-15.667	0.099
253.000	-15.140	0.099
253.100	-15.055	0.099
253.200	-6.618	0.099
253.300	-9.761	0.099
253.400	-4.021	0.099
253.500	-16.250	0.099
253.600	-9.297	0.099
253.700	-19.211	0.099
253.800	-5.663	0.099
253.900	-5.647	0.099
254.000	-6.922	0.099
254.100	-13.633	0.099
254.200	-7.223	0.099
254.300	-16.307	0.099
254.400	-10.017	0.099
254.500	-2.290	0.099
254.600	-18.570	0.099
254.700	-13.559	0.099
254.800	-3.509	0.099
254.900	5.252	0.099
255.000	-5.469	0.099
255.100	-18.988	0.099
255.200	-13.328	0.099
255.300	-5.989	0.099
255.400	-5.308	0.099
255.500	-13.457	0.099
255.600	5.698	0.099
255.700	-8.777	0.099
255.800	-7.153	0.099
255.900	-2.497	0.099
256.000	-5.392	0.099
256.100	5.187	0.099
256.200	-12.779	0.099
256.300	-18.978	0.099
256.400	-17.961	0.099
256.500	-3.667	0.099
256.600	-5.557	0.099
256.700	-13.124	0.099
256.800	-3.282	0.099
256.900	-26.435	0.099
257.000	-1.875	0.099
257.100	-4.025	0.099
257.200	-7.893	0.099
257.300	-9.133	0.099
257.400	-4.924	0.099
257.500	-12.808	0.099
257.600	-16.948	0.099
257.700	-8.933	0.099
257.800	1.091	0.099
257.900	-9.752	0.099
258.000	-12.648	0.099
258.100	-4.406	0.099
258.200	-8.943	0.099
258.300	-5.801	0.099
258.400	-14.959	0.099
258.500	-7.857	0.099
258.600	-13.809	0.099
258.700	-3.665	0.099
258.800	-10.698	0.099
258.900	-5.032	0.099
259.000	-14.718	0.099
259.100	-10.305	0.099
259.200	-8.519	0.099
259.300	-4.345	0.099
259.400	-25.821	0.099
259.500	-17.303	0.099
259.600	3.955	0.099
259.700	-13.910	0.099
259.800	-15.361	0.099
259.900	-9.669	0.099
260.000	0.532	0.099
260.100	-18.595	0.099
260.200	-8.212	0.099
260.300	9.529	0.099
260.400	-14.130	0.099
260.500	-18.247	0.099
260.600	-20.434	0.099
260.700	-9.665	0.099
260.800	5.003	0.099
260.900	-26.880	0.099
261.000	-3.943	0.099
261.100	-12.680	0.099
261.200	-6.937	0.099
261.300	-4.133	0.099
261.400	-0.185	0.099
261.500	-7.827	0.099
261.600	-21.828	0.099
261.700	-14.753	0.099
261.800	-18.788	0.099
261.900	-11.262	0.099
262.000	-14.106	0.099
262.100	-9.609	0.099
262.200	-3.912	0.099
262.300	-8.800	0.099
262.400	-4.821	0.099
262.500	-17.805	0.099
262.600	-0.596	0.099
262.700	-4.811	0.099
262.800	-19.578	0.099
262.900	0.226	0.099
263.000	-13.352	0.099
263.100	-9.531	0.099
263.200	-15.467	0.099
263.300	-13.766	0.099
263.400	-4.648	0.099
263.500	-12.747	0.099
263.600	-13.333	0.099
263.700	-18.192	0.099
263.800	-23.500	0.099
263.900	-16.608	0.099
264.000	15.263	0.099
264.100	-6.845	0.099
264.200	-15.167	0.099
264.300	-22.034	0.099
264.400	-3.976	0.099
264.500	-16.978	0.099
264.600	2.016	0.099
264.700	-7.511	0.099
264.800	-6.483	0.099
264.900	-5.182	0.099
265.000	-15.342	0.099
265.100	-3.102	0.099
265.200	-13.237	0.099
265.300	-15.423	0.099
265.400	-13.500	0.099
265.500	-4.216	0.099
265.600	-5.446	0.099
265.700	-7.077	0.099
265.800	-21.231	0.099
265.900	-7.583	0.099
266.000	-23.719	0.099
266.100	-8.708	0.099
266.200	-6.932	0.099
266.300	-12.219	0.099
266.400	-16.405	0.099
266.500	-10.186	0.099
266.600	-12.359	0.099
266.700	-12.402	0.099
266.800	-4.563	0.099
266.900	-2.445	0.099
267.000	-8.569	0.099
267.100	-14.847	0.099
267.200	-13.813	0.099
267.300	-25.830	0.099
267.400	0.968	0.099
267.500	-11.407	0.099
267.600	-7.222	0.099
267.700	-12.618	0.099
267.800	-24.699	0.099
267.900	0.478	0.099
268.000	-5.483	0.099
268.100	-16.917	0.099
268.200	-3.263	0.099
268.300	4.096	0.099
268.400	-5.286	0.099
268.500	-14.213	0.099
268.600	-10.576	0.099
268.700	12.213	0.099
268.800	-5.573	0.099
268.900	-14.826	0.099
269.000	-0.532	0.099
269.100	-15.271	0.099
269.200	-10.248	0.099
269.300	-12.787	0.099
269.400	-12.061	0.099
269.500	-9.665	0.099
269.600	-3.427	0.099
269.700	4.336	0.099
269.800	-18.885	0.099
269.900	-4.057	0.099
270.000	-9.243	0.099
270.100	-17.623	0.099
270.200	-6.857	0.099
270.300	-7.455	0.099
270.400	-3.306	0.099
270.500	-21.259	0.099
270.600	-6.795	0.099
270.700	-19.429	0.099
270.800	-4.144	0.099
270.900	-17.147	0.099
271.000	-16.748	0.099
271.100	-7.458	0.099
271.200	-2.871	0.099
271.300	4.311	0.099
271.400	-17.870	0.099
271.500	-18.395	0.099
271.600	-21.113	0.099
271.700	-8.986	0.099
271.800	-13.450	0.099
271.900	-1.260	0.099
272.000	-1.367	0.099
272.100	-16.295	0.099
272.200	-13.571	0.099
272.300	-4.583	0.099
272.400	-6.022	0.099
272.500	-8.710	0.099
272.600	-12.216	0.099
272.700	0.187	0.099
272.800	-14.015	0.099
272.900	-15.486	0.099
273.000	-9.467	0.099
273.100	-5.141	0.099
273.200	-15.962	0.099
273.300	-11.496	0.099
273.400	-10.964	0.099
273.500	-15.533	0.099
273.600	-8.332	0.099
273.700	-12.504	0.099
273.800	-6.849	0.099
273.900	-1.713	0.099
274.000	-21.753	0.099
274.100	-14.646	0.099
274.200	-8.209	0.099
274.300	5.518	0.099
274.400	-18.188	0.099
274.500	-4.745	0.099
274.600	8.279	0.099
274.700	10.970	0.099
274.800	-21.720	0.099
274.900	-28.192	0.099
275.000	-7.829	0.099
275.100	-9.144	0.099
275.200	-8.620	0.099
275.300	-11.338	0.099
275.400	-19.802	0.099
275.500	0.767	0.099
275.600	-12.376	0.099
275.700	-14.296	0.099
275.800	1.347	0.099
275.900	4.269	0.099
276.000	-14.091	0.099
276.100	-9.994	0.099
276.200	-6.630	0.099
276.300	-18.745	0.099
276.400	-14.523	0.099
276.500	-1.107	0.099
276.600	-8.366	0.099
276.700	-13.182	0.099
276.800	-10.496	0.099
276.900	-16.968	0.099
277.000	-15.309	0.099
277.100	-24.265	0.099
277.200	-10.899	0.099
277.300	-7.182	0.099
277.400	-17.290	0.099
277.500	-16.728	0.099
277.600	-11.874	0.099
277.700	-5.266	0.099
277.800	-20.473	0.099
277.900	-18.405	0.099
278.000	-16.438	0.099
278.100	-7.106	0.099
278.200	-16.546	0.099
278.300	-13.029	0.099
278.400	-12.020	0.099
278.500	-1.469	0.099
278.600	-19.804	0.099
278.700	-6.189	0.099
278.800	-14.610	0.099
278.900	-9.713	0.099
279.000	2.260	0.099
279.100	1.681	0.099
279.200	-9.418	0.099
279.300	-21.721	0.099
279.400	-5.752	0.099
279.500	1.860	0.099
279.600	-1.615	0.099
279.700	-2.670	0.099
279.800	-10.833	0.099
279.900	-7.044	0.099
280.000	-3.503	0.099
280.100	-25.109	0.099
280.200	-3.861	0.099
280.300	-16.247	0.099
280.400	-16.732	0.099
280.500	6.689	0.099
280.600	-16.571	0.099
280.700	-1.638	0.099
280.800	-9.861	0.099
280.900	-12.590	0.099
281.000	-6.523	0.099
281.100	-2.995	0.099
281.200	-13.444	0.099
281.300	-9.424	0.099
281.400	-7.038	0.099
281.500	-0.217	0.099
281.600	-3.564	0.099
281.700	-8.300	0.099
281.800	-5.635	0.099
281.900	-2.652	0.099
282.000	6.540	0.099
282.100	-13.059	0.099
282.200	-5.819	0.099
282.300	-2.146	0.099
282.400	-3.073	0.099
282.500	-18.256	0.099
282.600	4.198	0.099
282.700	-14.697	0.099
282.800	-0.405	0.099
282.900	-3.161	0.099
283.000	-9.668	0.099
283.100	0.451	0.099
283.200	-2.773	0.099
283.300	-5.180	0.099
283.400	1.693	0.099
283.500	-9.827	0.099
283.600	8.454	0.099
283.700	-12.201	0.099
283.800	-16.141	0.099
283.900	-6.994	0.099
284.000	-1.786	0.099
284.100	-6.019	0.099
284.200	-3.626	0.099
284.300	-12.658	0.099
284.400	-8.349	0.099
284.500	-12.536	0.099
284.600	-18.178	0.099
284.700	-9.954	0.099
284.800	-4.384	0.099
284.900	-26.097	0.099
285.000	0.831	0.099
285.100	-24.843	0.099
285.200	-3.424	0.099
285.300	-9.206	0.099
285.400	3.400	0.099
285.500	-10.174	0.099
285.600	-15.342	0.099
285.700	-0.060	0.099
285.800	-11.703	0.099
285.900	-3.126	0.099
286.000	-12.471	0.099
286.100	-30.049	0.099
286.200	-9.181	0.099
286.300	-15.974	0.099
286.400	-17.673	0.099
286.500	-0.753	0.099
286.600	-21.648	0.099
286.700	-1.541	0.099
286.800	-8.517	0.099
286.900	-10.002	0.099
287.000	-2.165	0.099
287.100	-30.424	0.099
287.200	1.988	0.099
287.300	-7.846	0.099
287.400	-3.365	0.099
287.500	5.566	0.099
287.600	-15.417	0.099
287.700	-4.910	0.099
287.800	-4.510	0.099
287.900	-0.681	0.099
288.000	-2.431	0.099
288.100	-9.606	0.099
288.200	-12.736	0.099
288.300	-8.251	0.099
288.400	-4.456	0.099
288.500	-9.449	0.099
288.600	-2.965	0.099
288.700	-9.803	0.099
288.800	1.463	0.099
288.900	-10.733	0.099
289.000	-4.146	0.099
289.100	-21.135	0.099
289.200	-16.949	0.099
289.300	-2.486	0.099
289.400	-1.733	0.099
289.500	-10.378	0.099
289.600	2.903	0.099
289.700	-10.427	0.099
289.800	-9.366	0.099
289.900	3.078	0.099
290.000	-8.139	0.099
290.100	-4.969	0.099
290.200	-1.894	0.099
290.300	-5.076	0.099
290.400	-3.727	0.099
290.500	-2.164	0.099
290.600	-16.010	0.099
290.700	-7.919	0.099
290.800	-5.951	0.099
290.900	-2.579	0.099
291.000	-2.110	0.099
291.100	-10.549	0.099
291.200	-10.621	0.099
291.300	-8.190	0.099
291.400	-3.813	0.099
291.500	-16.898	0.099
291.600	-8.045	0.099
291.700	-1.000	0.099
291.800	1.704	0.099
291.900	-6.766	0.099
292.000	8.298	0.099
292.100	-16.591	0.099
292.200	1.618	0.099
292.300	-5.281	0.099
292.400	-6.757	0.099
292.500	2.675	0.099
292.600	-6.289	0.099
292.700	2.986	0.099
292.800	-13.591	0.099
292.900	-12.560	0.099
293.000	-1.941	0.099
293.100	-19.763	0.099
293.200	-6.469	0.099
293.300	1.818	0.099
293.400	-8.001	0.099
293.500	-5.561	0.099
293.600	-11.270	0.099
293.700	-11.049	0.099
293.800	-5.994	0.099
293.900	-11.733	0.099
294.000	-8.016	0.099
294.100	-13.660	0.099
294.200	-9.924	0.099
294.300	-8.903	0.099
294.400	5.079	0.099
294.500	-2.780	0.099
294.600	-4.047	0.099
294.700	-3.052	0.099
294.800	-6.218	0.099
294.900	-5.721	0.099
295.000	-14.506	0.099
295.100	-16.237	0.099
295.200	-0.717	0.099
295.300	1.493	0.099
295.400	-6.078	0.099
295.500	-0.537	0.099
295.600	-11.414	0.099
295.700	0.050	0.099
295.800	-0.123	0.099
295.900	-5.647	0.099
296.000	-8.164	0.099
296.100	-1.890	0.099
296.200	0.067	0.099
296.300	1.192	0.099
296.400	-2.577	0.099
296.500	-22.530	0.099
296.600	-2.494	0.099
296.700	17.576	0.099
296.800	-25.858	0.099
296.900	-12.024	0.099
297.000	-3.897	0.099
297.100	-14.401	0.099
297.200	-16.421	0.099
297.300	-5.616	0.099
297.400	-12.880	0.099
297.500	0.840	0.099
297.600	-5.097	0.099
297.700	-7.019	0.099
297.800	-13.714	0.099
297.900	8.728	0.099
298.000	-8.941	0.099
298.100	-18.199	0.099
298.200	5.532	0.099
298.300	0.108	0.099
298.400	-2.655	0.099
298.500	-10.684	0.099
298.600	-30.889	0.099
298.700	-11.880	0.099
298.800	-0.882	0.099
298.900	-6.494	0.099
299.000	-3.018	0.099
299.100	-16.717	0.099
299.200	-2.221	0.099
299.300	-9.343	0.099
299.400	-15.547	0.099
299.500	-6.335	0.099
299.600	-8.742	0.099
299.700	-11.681	0.099
299.800	4.730	0.099
299.900	-7.047	0.099
300.000	11.905	0.099
300.100	-8.899	0.099
300.200	-7.896	0.099
300.300	-12.576	0.099
300.400	-1.504	0.099
300.500	-10.764	0.099
300.600	-15.813	0.099
300.700	-8.906	0.099
300.800	-7.708	0.099
300.900	-7.387	0.099
301.000	1.067	0.099
301.100	-3.679	0.099
301.200	-15.190	0.099
301.300	0.331	0.099
301.400	-4.291	0.099
301.500	-6.655	0.099
301.600	4.363	0.099
301.700	-0.892	0.099
301.800	-20.696	0.099
301.900	-7.779	0.099
302.000	-6.807	0.099
302.100	-1.912	0.099
302.200	-7.341	0.099
302.300	-11.375	0.099
302.400	-4.746	0.099
302.500	-7.830	0.099
302.600	-18.840	0.099
302.700	5.039	0.099
302.800	-12.870	0.099
302.900	-0.605	0.099
303.000	-7.857	0.099
303.100	2.669	0.099
303.200	0.853	0.099
303.300	-8.519	0.099
303.400	-1.953	0.099
303.500	1.918	0.099
303.600	-3.334	0.099
303.700	-18.029	0.099
303.800	-19.109	0.099
303.900	-4.498	0.099
304.000	-10.127	0.099
304.100	-25.651	0.099
304.200	-8.529	0.099
304.300	-2.414	0.099
304.400	0.048	0.099
304.500	-11.005	0.099
304.600	-2.724	0.099
304.700	-13.532	0.099
304.800	-10.095	0.099
304.900	-4.091	0.099
305.000	2.208	0.099
305.100	6.979	0.099
305.200	-7.978	0.099
305.300	-7.705	0.099
305.400	-15.953	0.099
305.500	-2.615	0.099
305.600	-14.574	0.099
305.700	-5.070	0.099
305.800	-12.934	0.099
305.900	-9.728	0.099
306.000	-10.191	0.099
306.100	-3.478	0.099
306.200	-8.863	0.099
306.300	-22.653	0.099
306.400	-15.026	0.099
306.500	-16.982	0.099
306.600	5.319	0.099
306.700	-9.145	0.099
306.800	0.622	0.099
306.900	-10.700	0.099
307.000	-8.699	0.099
307.100	-9.139	0.099
307.200	-0.468	0.099
307.300	-7.557	0.099
307.400	-10.444	0.099
307.500	-3.243	0.099
307.600	-17.416	0.099
307.700	15.604	0.099
307.800	-15.276	0.099
307.900	-12.734	0.099
308.000	-11.203	0.099
308.100	-2.094	0.099
308.200	-3.132	0.099
308.300	-1.867	0.099
308.400	-12.674	0.099
308.500	-7.305	0.099
308.600	-10.483	0.099
308.700	3.550	0.099
308.800	-11.833	0.099
308.900	-5.634	0.099
309.000	-8.210	0.099
309.100	5.111	0.099
309.200	-4.869	0.099
309.300	-17.194	0.099
309.400	-3.623	0.099
309.500	-12.915	0.099
309.600	-7.163	0.099
309.700	-6.505	0.099
309.800	-0.419	0.099
309.900	-12.811	0.099
310.000	-3.355	0.099
310.100	-2.033	0.099
310.200	-18.036	0.099
310.300	-13.052	0.099
310.400	-15.712	0.099
310.500	13.150	0.099
310.600	-2.797	0.099
310.700	-10.986	0.099
310.800	-6.664	0.099
310.900	-11.689	0.099
311.000	-14.326	0.099
311.100	-8.103	0.099
311.200	-3.582	0.099
311.300	-6.174	0.099
311.400	1.361	0.099
311.500	-12.863	0.099
311.600	-0.366	0.099
311.700	-10.171	0.099
311.800	0.819	0.099
311.900	13.355	0.099
312.000	6.733	0.099
312.100	5.527	0.099
312.200	1.444	0.099
312.300	-6.100	0.099
312.400	-19.177	0.099
312.500	-8.611	0.099
312.600	-14.333	0.099
312.700	-1.068	0.099
312.800	4.343	0.099
312.900	-1.148	0.099
313.000	-18.822	0.099
313.100	-6.261	0.099
313.200	4.752	0.099
313.300	-1.554	0.099
313.400	-5.250	0.099
313.500	-17.007	0.099
313.600	5.632	0.099
313.700	-3.308	0.099
313.800	-15.803	0.099
313.900	2.715	0.099
314.000	-10.077	0.099
314.100	-0.901	0.099
314.200	-4.424	0.099
314.300	-2.708	0.099
314.400	-15.913	0.099
314.500	-7.485	0.099
314.600	7.157	0.099
314.700	-1.495	0.099
314.800	-6.859	0.099
314.900	-0.917	0.099
315.000	-17.069	0.099
315.100	0.925	0.099
315.200	-4.728	0.099
315.300	-5.138	0.099
315.400	-9.900	0.099
315.500	-12.660	0.099
315.600	-20.844	0.099
315.700	-0.748	0.099
315.800	-13.157	0.099
315.900	-7.315	0.099
316.000	11.329	0.099
316.100	-9.064	0.099
316.200	-2.932	0.099
316.300	-2.098	0.099
316.400	-11.520	0.099
316.500	-1.666	0.099
316.600	3.793	0.099
316.700	-11.744	0.099
316.800	-2.945	0.099
316.900	2.311	0.099
317.000	8.005	0.099
317.100	-13.344	0.099
317.200	-1.300	0.099
317.300	-8.634	0.099
317.400	-8.668	0.099
317.500	8.344	0.099
317.600	2.218	0.099
317.700	1.356	0.099
317.800	0.020	0.099
317.900	-6.185	0.099
318.000	-9.311	0.099
318.100	-18.884	0.099
318.200	-10.065	0.099
318.300	1.090	0.099
318.400	-15.155	0.099
318.500	-0.664	0.099
318.600	0.118	0.099
318.700	-10.800	0.099
318.800	-5.440	0.099
318.900	2.386	0.099
319.000	-11.404	0.099
319.100	4.647	0.099
319.200	-0.001	0.099
319.300	2.505	0.099
319.400	-2.521	0.099
319.500	1.242	0.099
319.600	-8.038	0.099
319.700	5.488	0.099
319.800	-13.350	0.099
319.900	-5.684	0.099
320.000	-3.974	0.099
320.100	0.423	0.099
320.200	-8.028	0.099
320.300	3.344	0.099
320.400	3.031	0.099
320.500	-20.897	0.099
320.600	9.883	0.099
320.700	-7.555	0.099
320.800	-6.252	0.099
320.900	1.353	0.099
321.000	-3.680	0.099
321.100	-2.090	0.099
321.200	-1.604	0.099
321.300	-23.797	0.099
321.400	-4.293	0.099
321.500	-4.607	0.099
321.600	-2.280	0.099
321.700	-2.622	0.099
321.800	-1.908	0.099
321.900	-10.651	0.099
322.000	-7.094	0.099
322.100	4.152	0.099
322.200	-4.569	0.099
322.300	-9.508	0.099
322.400	-20.743	0.099
322.500	2.039	0.099
322.600	-6.075	0.099
322.700	-9.135	0.099
322.800	4.362	0.099
322.900	8.285	0.099
323.000	9.768	0.099
323.100	2.802	0.099
323.200	-9.102	0.099
323.300	-5.389	0.099
323.400	4.142	0.099
323.500	-6.931	0.099
323.600	-2.947	0.099
323.700	-5.493	0.099
323.800	-14.138	0.099
323.900	2.297	0.099
324.000	-2.984	0.099
324.100	-3.443	0.099
324.200	-2.839	0.099
324.300	-1.128	0.099
324.400	-5.791	0.099
324.500	-11.107	0.099
324.600	-23.953	0.099
324.700	-10.547	0.099
324.800	-11.946	0.099
324.900	-12.495	0.099
325.000	-3.354	0.099
325.100	1.918	0.099
325.200	-7.105	0.099
325.300	-8.990	0.099
325.400	-13.601	0.099
325.500	-15.862	0.099
325.600	0.700	0.099
325.700	-6.294	0.099
325.800	0.313	0.099
325.900	0.844	0.099
326.000	-2.691	0.099
326.100	-11.169	0.099
326.200	-12.263	0.099
326.300	2.228	0.099
326.400	-7.619	0.099
326.500	-5.012	0.099
326.600	-14.935	0.099
326.700	0.983	0.099
326.800	-14.155	0.099
326.900	-11.753	0.099
327.000	6.801	0.099
327.100	-0.642	0.099
327.200	-7.515	0.099
327.300	9.130	0.099
327.400	-17.194	0.099
327.500	4.073	0.099
327.600	-2.394	0.099
327.700	-6.509	0.099
327.800	2.393	0.099
327.900	4.271	0.099
328.000	14.436	0.099
328.100	-9.908	0.099
328.200	-0.224	0.099
328.300	-4.711	0.099
328.400	1.521	0.099
328.500	4.444	0.099
328.600	-1.768	0.099
328.700	-4.072	0.099
328.800	0.756	0.099
328.900	-9.437	0.099
329.000	-7.765	0.099
329.100	-4.271	0.099
329.200	-14.576	0.099
329.300	-4.132	0.099
329.400	-0.990	0.099
329.500	-2.930	0.099
329.600	3.879	0.099
329.700	-3.718	0.099
329.800	9.527	0.099
329.900	8.289	0.099
330.000	3.034	0.099
330.100	31.433	0.099
330.200	14.085	0.099
330.300	13.357	0.099
330.400	29.592	0.099
330.500	30.480	0.099
330.600	19.608	0.099
330.700	27.167	0.099
330.800	29.660	0.099
330.900	40.461	0.099
331.000	30.913	0.099
331.100	32.196	0.099
331.200	16.353	0.099
331.300	33.271	0.099
331.400	14.640	0.099
331.500	27.479	0.099
331.600	25.494	0.099
331.700	26.317	0.099
331.800	15.516	0.099
331.900	24.698	0.099
332.000	33.688	0.099
332.100	35.605	0.099
332.200	24.637	0.099
332.300	28.019	0.099
332.400	14.818	0.099
332.500	25.795	0.099
332.600	23.693	0.099
332.700	16.340	0.099
332.800	22.422	0.099
332.900	13.117	0.099
333.000	26.237	0.099
333.100	22.173	0.099
333.200	42.541	0.099
333.300	31.191	0.099
333.400	23.301	0.099
333.500	19.057	0.099
333.600	23.336	0.099
333.700	13.100	0.099
333.800	26.723	0.099
333.900	24.322	0.099
334.000	31.274	0.099
334.100	28.043	0.099
334.200	25.839	0.099
334.300	26.507	0.099
334.400	11.759	0.099
334.500	14.932	0.099
334.600	25.323	0.099
334.700	28.943	0.099
334.800	18.386	0.099
334.900	15.246	0.099
335.000	16.408	0.099
335.100	7.887	0.099
335.200	18.293	0.099
335.300	18.772	0.099
335.400	21.017	0.099
335.500	22.858	0.099
335.600	15.314	0.099
335.700	7.998	0.099
335.800	16.955	0.099
335.900	14.727	0.099
336.000	19.417	0.099
336.100	16.851	0.099
336.200	20.328	0.099
336.300	19.431	0.099
336.400	16.603	0.099
336.500	20.952	0.099
336.600	21.939	0.099
336.700	11.611	0.099
336.800	27.210	0.099
336.900	18.640	0.099
337.000	9.751	0.099
337.100	15.984	0.099
337.200	15.532	0.099
337.300	17.922	0.099
337.400	24.496	0.099
337.500	20.743	0.099
337.600	8.572	0.099
337.700	37.084	0.099
337.800	2.413	0.099
337.900	24.558	0.099
338.000	24.453	0.099
338.100	20.680	0.099
338.200	26.500	0.099
338.300	11.217	0.099
338.400	24.139	0.099
338.500	19.475	0.099
338.600	30.781	0.099
338.700	22.168	0.099
338.800	27.487	0.099
338.900	29.250	0.099
339.000	22.952	0.099
339.100	26.658	0.099
339.200	28.881	0.099
339.300	31.750	0.099
339.400	28.840	0.099
339.500	36.180	0.099
339.600	20.665	0.099
339.700	29.424	0.099
339.800	26.594	0.099
339.900	26.042	0.099
340.000	33.398	0.099
340.100	12.864	0.099
340.200	19.315	0.099
340.300	38.046	0.099
340.400	29.079	0.099
340.500	24.857	0.099
340.600	34.350	0.099
340.700	23.447	0.099
340.800	17.250	0.099
340.900	45.088	0.099
341.000	22.129	0.099
341.100	17.334	0.099
341.200	38.592	0.099
341.300	26.444	0.099
341.400	15.770	0.099
341.500	30.858	0.099
341.600	21.227	0.099
341.700	26.327	0.099
341.800	28.597	0.099
341.900	14.825	0.099
342.000	25.434	0.099
342.100	32.750	0.099
342.200	30.605	0.099
342.300	31.696	0.099
342.400	14.216	0.099
342.500	10.637	0.099
342.600	34.051	0.099
342.700	14.766	0.099
342.800	12.885	0.099
342.900	39.723	0.099
343.000	22.993	0.099
343.100	27.444	0.099
343.200	18.602	0.099
343.300	37.852	0.099
343.400	25.362	0.099
343.500	2.753	0.099
343.600	31.058	0.099
343.700	27.568	0.099
343.800	32.799	0.099
343.900	25.919	0.099
344.000	32.933	0.099
344.100	27.164	0.099
344.200	27.708	0.099
344.300	35.420	0.099
344.400	30.567	0.099
344.500	18.882	0.099
344.600	36.914	0.099
344.700	33.921	0.099
344.800	33.635	0.099
344.900	16.631	0.099
345.000	32.286	0.099
345.100	26.225	0.099
345.200	29.705	0.099
345.300	25.869	0.099
345.400	25.338	0.099
345.500	16.872	0.099
345.600	14.499	0.099
345.700	32.210	0.099
345.800	35.283	0.099
345.900	28.913	0.099
346.000	38.903	0.099
346.100	14.480	0.099
346.200	5.151	0.099
346.300	44.119	0.099
346.400	16.949	0.099
346.500	36.104	0.099
346.600	28.215	0.099
346.700	22.390	0.099
346.800	24.952	0.099
346.900	16.452	0.099
347.000	29.578	0.099
347.100	31.697	0.099
347.200	25.270	0.099
347.300	18.578	0.099
347.400	30.913	0.099
347.500	32.444	0.099
347.600	32.343	0.099
347.700	27.701	0.099
347.800	26.910	0.099
347.900	35.218	0.099
348.000	25.135	0.099
348.100	14.399	0.099
348.200	23.679	0.099
348.300	23.281	0.099
348.400	36.325	0.099
348.500	26.198	0.099
348.600	32.704	0.099
348.700	32.403	0.099
348.800	30.741	0.099
348.900	13.657	0.099
349.000	27.003	0.099
349.100	18.041	0.099
349.200	24.884	0.099
349.300	22.839	0.099
349.400	25.726	0.099
349.500	29.537	0.099
349.600	14.441	0.099
349.700	30.057	0.099
349.800	26.827	0.099
349.900	14.348	0.099
350.000	28.773	0.099
350.100	17.549	0.099
350.200	18.878	0.099
350.300	16.786	0.099
350.400	31.143	0.099
350.500	30.706	0.099
350.600	33.026	0.099
350.700	30.905	0.099
350.800	16.467	0.099
350.900	20.899	0.099
351.000	21.852	0.099
351.100	32.468	0.099
351.200	13.290	0.099
351.300	31.089	0.099
351.400	15.255	0.099
351.500	37.550	0.099
351.600	24.103	0.099
351.700	13.137	0.099
351.800	36.294	0.099
351.900	27.001	0.099
352.000	23.777	0.099
352.100	39.374	0.099
352.200	26.746	0.099
352.300	3.464	0.099
352.400	22.350	0.099
352.500	31.031	0.099
352.600	19.633	0.099
352.700	23.143	0.099
352.800	8.274	0.099
352.900	21.275	0.099
353.000	23.550	0.099
353.100	26.804	0.099
353.200	13.241	0.099
353.300	26.318	0.099
353.400	33.258	0.099
353.500	22.610	0.099
353.600	20.881	0.099
353.700	18.582	0.099
353.800	18.292	0.099
353.900	25.976	0.099
354.000	22.895	0.099
354.100	32.093	0.099
354.200	15.080	0.099
354.300	28.601	0.099
354.400	29.988	0.099
354.500	19.690	0.099
354.600	24.890	0.099
354.700	35.828	0.099
354.800	33.269	0.099
354.900	14.763	0.099
355.000	19.554	0.099
355.100	27.518	0.099
355.200	24.522	0.099
355.300	22.008	0.099
355.400	40.341	0.099
355.500	37.295	0.099
355.600	36.360	0.099
355.700	25.401	0.099
355.800	27.578	0.099
355.900	18.107	0.099
356.000	31.652	0.099
356.100	21.207	0.099
356.200	15.558	0.099
356.300	36.519	0.099
356.400	24.544	0.099
356.500	36.977	0.099
356.600	20.964	0.099
356.700	31.592	0.099
356.800	29.458	0.099
356.900	23.562	0.099
357.000	18.559	0.099
357.100	44.307	0.099
357.200	14.566	0.099
357.300	24.366	0.099
357.400	32.237	0.099
357.500	17.538	0.099
357.600	19.350	0.099
357.700	19.224	0.099
357.800	13.982	0.099
357.900	20.011	0.099
358.000	14.834	0.099
358.100	11.587	0.099
358.200	23.132	0.099
358.300	8.926	0.099
358.400	27.902	0.099
358.500	28.140	0.099
358.600	26.302	0.099
358.700	29.219	0.099
358.800	22.360	0.099
358.900	14.646	0.099
359.000	15.449	0.099
359.100	28.811	0.099
359.200	23.537	0.099
359.300	16.835	0.099
359.400	20.279	0.099
359.500	37.855	0.099
359.600	28.011	0.099
359.700	28.267	0.099
359.800	13.489	0.099
359.900	24.113	0.099
360.000	26.223	0.099
360.100	10.392	0.099
360.200	25.341	0.099
360.300	19.689	0.099
360.400	24.898	0.099
360.500	19.872	0.099
360.600	26.698	0.099
360.700	29.144	0.099
360.800	25.415	0.099
360.900	25.456	0.099
361.000	29.847	0.099
361.100	21.153	0.099
361.200	20.005	0.099
361.300	40.143	0.099
361.400	16.258	0.099
361.500	30.643	0.099
361.600	30.239	0.099
361.700	30.894	0.099
361.800	19.157	0.099
361.900	17.427	0.099
362.000	41.568	0.099
362.100	15.050	0.099
362.200	27.696	0.099
362.300	15.294	0.099
362.400	22.217	0.099
362.500	25.312	0.099
362.600	28.021	0.099
362.700	30.150	0.099
362.800	14.000	0.099
362.900	38.268	0.099
363.000	37.831	0.099
363.100	19.772	0.099
363.200	14.700	0.099
363.300	34.471	0.099
363.400	26.646	0.099
363.500	24.288	0.099
363.600	25.992	0.099
363.700	17.332	0.099
363.800	22.810	0.099
363.900	16.593	0.099
364.000	22.601	0.099
364.100	24.413	0.099
364.200	26.572	0.099
364.300	21.524	0.099
364.400	18.348	0.099
364.500	31.577	0.099
364.600	34.504	0.099
364.700	9.309	0.099
364.800	20.985	0.099
364.900	22.797	0.099
365.000	10.253	0.099
365.100	34.502	0.099
365.200	19.371	0.099
365.300	13.128	0.099
365.400	23.774	0.099
365.500	20.929	0.099
365.600	11.514	0.099
365.700	24.732	0.099
365.800	20.936	0.099
365.900	27.960	0.099
366.000	28.845	0.099
366.100	19.005	0.099
366.200	9.842	0.099
366.300	19.910	0.099
366.400	22.826	0.099
366.500	9.655	0.099
366.600	8.464	0.099
366.700	15.217	0.099
366.800	26.380	0.099
366.900	10.924	0.099
367.000	7.182	0.099
367.100	21.606	0.099
367.200	9.535	0.099
367.300	19.313	0.099
367.400	22.366	0.099
367.500	24.012	0.099
367.600	8.815	0.099
367.700	35.966	0.099
367.800	13.268	0.099
367.900	21.675	0.099
368.000	25.452	0.099
368.100	6.127	0.099
368.200	15.744	0.099
368.300	10.378	0.099
368.400	27.764	0.099
368.500	15.642	0.099
368.600	20.678	0.099
368.700	14.955	0.099
368.800	16.332	0.099
368.900	18.201	0.099
369.000	27.123	0.099
369.100	5.611	0.099
369.200	22.732	0.099
369.300	9.390	0.099
369.400	26.562	0.099
369.500	17.722	0.099
369.600	23.927	0.099
369.700	24.450	0.099
369.800	14.783	0.099
369.900	3.268	0.099
370.000	23.326	0.099
370.100	17.728	0.099
370.200	13.823	0.099
370.300	28.257	0.099
370.400	29.123	0.099
370.500	38.513	0.099
370.600	22.613	0.099
370.700	18.555	0.099
370.800	23.948	0.099
370.900	22.725	0.099
371.000	31.713	0.099
371.100	14.032	0.099
371.200	22.326	0.099
371.300	14.362	0.099
371.400	10.656	0.099
371.500	22.023	0.099
371.600	12.836	0.099
371.700	16.958	0.099
371.800	24.189	0.099
371.900	29.709	0.099
372.000	32.421	0.099
372.100	20.628	0.099
372.200	28.862	0.099
372.300	9.644	0.099
372.400	11.042	0.099
372.500	14.346	0.099
372.600	13.306	0.099
372.700	29.309	0.099
372.800	13.005	0.099
372.900	33.566	0.099
373.000	22.920	0.099
373.100	18.254	0.099
373.200	12.992	0.099
373.300	21.105	0.099
373.400	22.828	0.099
373.500	30.408	0.099
373.600	27.418	0.099
373.700	10.632	0.099
373.800	13.777	0.099
373.900	18.625	0.099
374.000	7.402	0.099
374.100	21.921	0.099
374.200	24.454	0.099
374.300	18.051	0.099
374.400	9.730	0.099
374.500	17.894	0.099
374.600	32.573	0.099
374.700	17.525	0.099
374.800	26.203	0.099
374.900	22.683	0.099
375.000	23.887	0.099
375.100	19.376	0.099
375.200	22.393	0.099
375.300	11.157	0.099
375.400	13.460	0.100
375.500	25.546	0.099
375.600	14.508	0.099
375.700	24.190	0.099
375.800	29.287	0.099
375.900	11.821	0.099
376.000	17.770	0.099
376.100	27.990	0.099
376.200	23.790	0.099
376.300	25.645	0.099
376.400	22.811	0.099
376.500	11.525	0.099
376.600	15.039	0.099
376.700	16.443	0.099
376.800	24.213	0.099
376.900	29.654	0.099
377.000	20.413	0.099
377.100	21.274	0.099
377.200	-7.426	0.099
377.300	13.297	0.099
377.400	14.258	0.099
377.500	15.072	0.099
377.600	18.530	0.099
377.700	16.201	0.099
377.800	13.473	0.099
377.900	43.457	0.099
378.000	5.462	0.099
378.100	22.947	0.099
378.200	20.298	0.099
378.300	18.903	0.099
378.400	14.502	0.099
378.500	9.526	0.099
378.600	21.453	0.099
378.700	16.741	0.099
378.800	13.962	0.099
378.900	13.915	0.099
379.000	12.134	0.099
379.100	12.337	0.099
379.200	12.386	0.100
379.300	10.900	0.099
379.400	19.184	0.100
379.500	20.909	0.099
379.600	22.334	0.099
379.700	18.638	0.099
379.800	11.420	0.099
379.900	30.115	0.099
380.000	19.037	0.099
380.100	19.041	0.099
380.200	9.971	0.099
380.300	17.684	0.099
380.400	28.265	0.099
380.500	18.153	0.099
380.600	6.452	0.099
380.700	11.094	0.099
380.800	11.920	0.099
380.900	30.101	0.099
381.000	6.494	0.099
381.100	36.076	0.099
381.200	9.984	0.099
381.300	26.806	0.099
381.400	12.415	0.099
381.500	23.131	0.099
381.600	17.915	0.099
381.700	15.219	0.099
381.800	11.056	0.099
381.900	27.947	0.099
382.000	24.643	0.099
382.100	7.073	0.099
382.200	14.273	0.099
382.300	15.341	0.099
382.400	14.338	0.099
382.500	37.571	0.099
382.600	11.026	0.099
382.700	29.880	0.099
382.800	25.824	0.099
382.900	19.560	0.099
383.000	29.027	0.099
383.100	14.666	0.099
383.200	13.134	0.099
383.300	28.301	0.099
383.400	13.742	0.099
383.500	16.804	0.099
383.600	25.672	0.099
383.700	18.975	0.099
383.800	14.784	0.099
383.900	22.982	0.099
384.000	15.351	0.099
384.100	17.980	0.099
384.200	19.328	0.099
384.300	14.804	0.099
384.400	12.168	0.099
384.500	21.188	0.099
384.600	21.175	0.099
384.700	23.231	0.099
384.800	18.915	0.099
384.900	12.009	0.099
385.000	18.437	0.099
385.100	20.548	0.099
385.200	21.165	0.099
385.300	17.789	0.099
385.400	36.133	0.099
385.500	15.323	0.099
385.600	12.767	0.099
385.700	28.132	0.099
385.800	31.819	0.099
385.900	12.147	0.099
386.000	16.219	0.099
386.100	17.602	0.099
386.200	16.399	0.099
386.300	20.395	0.099
386.400	22.747	0.099
386.500	29.379	0.099
386.600	14.356	0.099
386.700	24.828	0.099
386.800	38.486	0.099
386.900	18.116	0.099
387.000	24.185	0.099
387.100	15.580	0.099
387.200	20.351	0.099
387.300	8.997	0.099
387.400	16.882	0.099
387.500	13.171	0.099
387.600	23.678	0.099
387.700	26.277	0.099
387.800	4.263	0.099
387.900	27.036	0.099
388.000	14.425	0.099
388.100	11.233	0.099
388.200	27.070	0.099
388.300	19.229	0.099
388.400	20.924	0.099
388.500	17.980	0.099
388.600	33.665	0.099
388.700	10.325	0.099
388.800	10.963	0.099
388.900	33.615	0.099
389.000	19.053	0.099
389.100	16.378	0.099
389.200	11.851	0.099
389.300	24.571	0.099
389.400	18.602	0.099
389.500	6.137	0.099
389.600	14.889	0.099
389.700	21.975	0.099
389.800	15.173	0.099
389.900	13.926	0.099
390.000	12.083	0.099
390.100	8.647	0.099
390.200	2.395	0.099
390.300	-0.087	0.099
390.400	-4.549	0.099
390.500	-14.039	0.099
390.600	-2.740	0.099
390.700	-14.008	0.099
390.800	-9.954	0.099
390.900	-14.954	0.099
391.000	-18.000	0.099
391.100	-14.722	0.099
391.200	-16.603	0.099
391.300	-9.219	0.099
391.400	-15.117	0.099
391.500	-25.004	0.099
391.600	-29.623	0.099
391.700	-24.977	0.099
391.800	-21.064	0.099
391.900	-41.216	0.099
392.000	-34.643	0.099
392.100	-15.959	0.099
392.200	-40.220	0.099
392.300	-32.778	0.099
392.400	-35.069	0.099
392.500	-23.941	0.099
392.600	-32.385	0.099
392.700	-33.976	0.099
392.800	-32.590	0.099
392.900	-33.244	0.099
393.000	-37.340	0.099
393.100	-39.118	0.099
393.200	-24.421	0.099
393.300	-37.952	0.099
393.400	-30.240	0.099
393.500	-36.045	0.099
393.600	-32.211	0.099
393.700	-21.717	0.099
393.800	-30.584	0.099
393.900	-23.242	0.099
394.000	-35.284	0.099
394.100	-36.219	0.099
394.200	-26.184	0.099
394.300	-43.440	0.099
394.400	-29.015	0.099
394.500	-39.547	0.099
394.600	-43.226	0.099
394.700	-44.123	0.099
394.800	-28.418	0.099
394.900	-34.740	0.099
395.000	-2.893	0.099
395.100	-27.141	0.099
395.200	-22.584	0.099
395.300	-15.716	0.099
395.400	-29.546	0.099
395.500	-29.923	0.099
395.600	-17.975	0.099
395.700	-19.935	0.099
395.800	-30.701	0.099
395.900	-20.443	0.099
396.000	-17.061	0.099
396.100	-31.850	0.099
396.200	-17.963	0.099
396.300	-25.156	0.099
396.400	-22.831	0.099
396.500	-27.455	0.099
396.600	-16.951	0.099
396.700	-21.329	0.099
396.800	-30.285	0.099
396.900	-23.628	0.099
397.000	-16.885	0.099
397.100	-22.850	0.099
397.200	-15.385	0.099
397.300	-18.949	0.099
397.400	-13.621	0.099
397.500	-24.604	0.099
397.600	-7.932	0.099
397.700	-15.734	0.099
397.800	-14.798	0.099
397.900	-20.080	0.099
398.000	-12.018	0.099
398.100	-19.169	0.099
398.200	-22.022	0.099
398.300	-16.402	0.099
398.400	-17.440	0.099
398.500	-12.069	0.099
398.600	0.769	0.099
398.700	-14.680	0.099
398.800	-22.498	0.099
398.900	-33.550	0.099
399.000	-10.181	0.099
399.100	-6.848	0.099
399.200	-22.031	0.099
399.300	-7.320	0.099
399.400	-7.977	0.099
399.500	-14.053	0.099
399.600	-9.294	0.099
399.700	-12.801	0.099
399.800	-7.944	0.099
399.900	-28.719	0.099
400.000	-3.608	0.099
400.100	-16.300	0.099
400.200	-15.747	0.099
400.300	-15.909	0.099
400.400	-7.411	0.099
400.500	-2.219	0.099
400.600	-20.557	0.099
400.700	-12.726	0.099
400.800	-18.879	0.099
400.900	0.139	0.099
401.000	-18.137	0.099
401.100	-8.468	0.099
401.200	-16.031	0.099
401.300	-25.809	0.099
401.400	-9.260	0.099
401.500	-17.817	0.099
401.600	-24.094	0.099
401.700	-8.177	0.099
401.800	-2.304	0.099
401.900	-8.188	0.099
402.000	0.402	0.099
402.100	-20.584	0.099
402.200	-2.238	0.099
402.300	-19.061	0.099
402.400	-2.834	0.099
402.500	-10.067	0.099
402.600	-19.131	0.099
402.700	-7.855	0.099
402.800	-14.530	0.099
402.900	-8.227	0.099
403.000	-23.822	0.099
403.100	-33.551	0.099
403.200	-7.242	0.099
403.300	-7.684	0.099
403.400	-12.879	0.099
403.500	-6.108	0.099
403.600	-9.431	0.099
403.700	-14.394	0.099
403.800	-9.518	0.099
403.900	6.020	0.099
404.000	-20.648	0.099
404.100	-18.254	0.099
404.200	-5.728	0.099
404.300	-7.296	0.099
404.400	1.350	0.099
404.500	-21.585	0.099
404.600	-14.171	0.099
404.700	-8.241	0.099
404.800	-7.183	0.099
404.900	-9.368	0.099
405.000	-2.305	0.099
405.100	-21.157	0.099
405.200	-11.613	0.099
405.300	-10.326	0.099
405.400	0.446	0.099
405.500	-15.934	0.099
405.600	-10.915	0.099
405.700	-14.424	0.099
405.800	-20.261	0.099
405.900	-12.153	0.099
406.000	-14.299	0.099
406.100	-7.025	0.099
406.200	-25.276	0.099
406.300	-11.354	0.099
406.400	-16.649	0.099
406.500	-17.209	0.099
406.600	-4.135	0.099
406.700	-6.041	0.099
406.800	-15.999	0.099
406.900	-12.721	0.099
407.000	-16.697	0.099
407.100	-9.534	0.099
407.200	-7.820	0.099
407.300	-12.512	0.099
407.400	-19.977	0.099
407.500	-4.923	0.099
407.600	-8.531	0.099
407.700	-16.586	0.099
407.800	4.103	0.099
407.900	-14.132	0.099
408.000	-5.321	0.099
408.100	-17.883	0.099
408.200	-12.874	0.099
408.300	-6.976	0.099
408.400	-9.665	0.099
408.500	-4.540	0.099
408.600	-16.926	0.099
408.700	-12.049	0.099
408.800	-21.123	0.099
408.900	-20.283	0.099
409.000	-10.418	0.099
409.100	-8.120	0.099
409.200	-25.439	0.099
409.300	-4.683	0.099
409.400	1.240	0.099
409.500	-21.188	0.099
409.600	-12.137	0.099
409.700	-26.807	0.099
409.800	-18.910	0.099
409.900	-7.815	0.099
410.000	-21.376	0.099
410.100	-5.811	0.099
410.200	-26.647	0.099
410.300	-6.494	0.099
410.400	-13.287	0.099
410.500	-22.414	0.099
410.600	-8.455	0.099
410.700	-12.506	0.099
410.800	-18.766	0.099
410.900	-2.823	0.099
411.000	-7.705	0.099
411.100	-21.024	0.099
411.200	4.704	0.099
411.300	-1.919	0.099
411.400	-9.964	0.099
411.500	-5.562	0.099
411.600	-11.264	0.099
411.700	-13.179	0.099
411.800	-6.018	0.099
411.900	-6.131	0.099
412.000	-12.711	0.099
412.100	-6.997	0.099
412.200	0.196	0.099
412.300	-1.903	0.099
412.400	-14.860	0.099
412.500	-13.865	0.099
412.600	-24.437	0.099
412.700	-6.073	0.099
412.800	-8.413	0.099
412.900	-16.713	0.099
413.000	-10.352	0.099
413.100	-4.413	0.099
413.200	1.857	0.099
413.300	-7.962	0.099
413.400	2.411	0.099
413.500	-19.108	0.099
413.600	-12.675	0.099
413.700	-18.149	0.099
413.800	-9.089	0.099
413.900	-17.325	0.099
414.000	4.731	0.099
414.100	-13.801	0.099
414.200	-16.967	0.099
414.300	-9.841	0.099
414.400	-5.608	0.099
414.500	-16.022	0.099
414.600	-10.609	0.099
414.700	-18.710	0.099
414.800	-9.949	0.099
414.900	-14.469	0.099
415.000	10.146	0.099
415.100	-9.384	0.099
415.200	-6.154	0.099
415.300	4.466	0.099
415.400	-6.602	0.099
415.500	-6.004	0.099
415.600	-17.827	0.099
415.700	0.533	0.099
415.800	-4.358	0.099
415.900	-16.328	0.099
416.000	-4.974	0.099
416.100	-21.288	0.099
416.200	-8.777	0.099
416.300	-14.110	0.099
416.400	-14.726	0.099
416.500	-10.486	0.099
416.600	-11.575	0.099
416.700	-27.662	0.099
416.800	-11.346	0.099
416.900	-16.026	0.099
417.000	-14.604	0.099
417.100	-9.705	0.099
417.200	-3.904	0.099
417.300	-9.360	0.099
417.400	-20.221	0.099
417.500	-16.376	0.099
417.600	6.357	0.099
417.700	-5.715	0.099
417.800	-13.144	0.099
417.900	11.193	0.099
418.000	-13.844	0.099
418.100	-12.525	0.099
418.200	-13.142	0.099
418.300	-10.473	0.099
418.400	-5.586	0.099
418.500	-10.724	0.099
418.600	-11.406	0.099
418.700	-3.254	0.099
418.800	-21.546	0.099
418.900	-24.285	0.099
419.000	-8.352	0.099
419.100	-13.272	0.099
419.200	-8.140	0.099
419.300	-24.554	0.099
419.400	-9.614	0.099
419.500	-34.051	0.099
419.600	-12.984	0.099
419.700	-3.116	0.099
419.800	-17.277	0.099
419.900	-6.471	0.099
420.000	-15.506	0.099
420.100	-24.994	0.099
420.200	-10.950	0.099
420.300	-9.922	0.099
420.400	-11.518	0.099
420.500	-16.675	0.099
420.600	3.815	0.099
420.700	-12.043	0.099
420.800	-22.806	0.099
420.900	-11.219	0.099
421.000	-21.928	0.099
421.100	-22.633	0.099
421.200	-18.092	0.099
421.300	-8.972	0.099
421.400	-21.266	0.099
421.500	-0.092	0.099
421.600	2.194	0.099
421.700	-17.912	0.099
421.800	-19.924	0.099
421.900	-15.990	0.099
422.000	-10.365	0.099
422.100	-19.291	0.099
422.200	-3.004	0.099
422.300	10.057	0.099
422.400	-2.320	0.099
422.500	-14.682	0.099
422.600	-10.273	0.099
422.700	-9.259	0.099
422.800	-17.065	0.099
422.900	1.627	0.099
423.000	-14.582	0.099
423.100	-12.138	0.099
423.200	-18.218	0.099
423.300	-19.599	0.099
423.400	-10.541	0.099
423.500	-9.243	0.099
423.600	-11.442	0.099
423.700	-20.740	0.099
423.800	-27.649	0.099
423.900	-11.196	0.099
424.000	-11.594	0.099
424.100	-5.507	0.099
424.200	-13.935	0.099
424.300	-15.779	0.099
424.400	-17.721	0.099
424.500	0.517	0.099
424.600	-24.805	0.099
424.700	-21.644	0.099
424.800	-11.046	0.099
424.900	-17.895	0.099
425.000	-5.549	0.099
425.100	-14.587	0.099
425.200	-12.194	0.099
425.300	-13.354	0.099
425.400	-12.810	0.099
425.500	-12.844	0.099
425.600	-10.035	0.099
425.700	-0.621	0.099
425.800	-2.826	0.099
425.900	-7.576	0.099
426.000	-7.463	0.099
426.100	-2.830	0.099
426.200	-3.991	0.099
426.300	-11.877	0.099
426.400	-1.702	0.099
426.500	-13.844	0.099
426.600	-29.310	0.099
426.700	-15.342	0.099
426.800	1.277	0.099
426.900	1.724	0.099
427.000	-0.064	0.099
427.100	2.873	0.099
427.200	-13.129	0.099
427.300	-1.643	0.099
427.400	-12.620	0.099
427.500	-8.932	0.099
427.600	-7.800	0.099
427.700	-33.369	0.099
427.800	-9.180	0.099
427.900	4.992	0.099
428.000	-6.415	0.099
428.100	-14.183	0.099
428.200	-1.143	0.099
428.300	-9.068	0.099
428.400	-16.066	0.099
428.500	-13.765	0.099
428.600	-4.060	0.099
428.700	-15.303	0.099
428.800	-12.770	0.099
428.900	-16.146	0.099
429.000	-3.630	0.099
429.100	-10.525	0.099
429.200	-4.954	0.099
429.300	-11.035	0.099
429.400	-9.813	0.099
429.500	-30.732	0.099
429.600	-0.403	0.099
429.700	3.897	0.099
429.800	-1.934	0.099
429.900	-12.559	0.099
430.000	-36.281	0.099
430.100	3.578	0.099
430.200	-10.632	0.099
430.300	0.512	0.099
430.400	-1.338	0.099
430.500	-7.258	0.099
430.600	-15.750	0.099
430.700	5.753	0.099
430.800	-12.996	0.099
430.900	4.777	0.099
431.000	-15.554	0.099
431.100	6.136	0.099
431.200	-10.653	0.099
431.300	-15.934	0.099
431.400	-19.953	0.099
431.500	-3.621	0.099
431.600	-12.786	0.099
431.700	-7.463	0.099
431.800	-19.966	0.099
431.900	-11.544	0.099
432.000	5.368	0.099
432.100	-18.998	0.099
432.200	-14.146	0.099
432.300	-10.221	0.099
432.400	-8.329	0.099
432.500	-13.465	0.099
432.600	-0.733	0.099
432.700	1.461	0.099
432.800	-13.898	0.099
432.900	-6.506	0.099
433.000	-1.227	0.099
433.100	-12.347	0.099
433.200	-39.786	0.099
433.300	-9.270	0.099
433.400	-8.893	0.099
433.500	-28.148	0.099
433.600	4.653	0.099
433.700	-8.989	0.099
433.800	-8.063	0.099
433.900	7.301	0.099
434.000	-10.156	0.099
434.100	6.648	0.099
434.200	-14.097	0.099
434.300	-5.201	0.099
434.400	-9.770	0.099
434.500	-8.657	0.099
434.600	-18.612	0.099
434.700	-9.921	0.099
434.800	-6.261	0.099
434.900	-2.768	0.099
435.000	-10.506	0.099
435.100	-3.874	0.099
435.200	-11.165	0.099
435.300	-6.938	0.099
435.400	-27.113	0.099
435.500	-18.286	0.099
435.600	-28.556	0.099
435.700	-5.912	0.099
435.800	1.340	0.099
435.900	-13.183	0.099
436.000	-16.321	0.099
436.100	-14.744	0.099
436.200	-9.955	0.099
436.300	-14.216	0.099
436.400	-4.294	0.099
436.500	-0.953	0.099
436.600	2.570	0.099
436.700	-10.933	0.099
436.800	-8.714	0.099
436.900	-15.293	0.099
437.000	-17.549	0.099
437.100	-2.108	0.099
437.200	-14.591	0.099
437.300	9.679	0.099
437.400	-10.627	0.099
437.500	-7.816	0.099
437.600	-20.452	0.099
437.700	-5.691	0.099
437.800	-4.024	0.099
437.900	-11.749	0.099
438.000	-16.845	0.099
438.100	-8.783	0.099
438.200	5.215	0.099
438.300	-27.131	0.099
438.400	-12.175	0.099
438.500	-9.201	0.099
438.600	-7.141	0.099
438.700	-2.683	0.099
438.800	-11.825	0.099
438.900	-12.221	0.099
439.000	-5.951	0.099
439.100	-6.175	0.099
439.200	12.225	0.099
439.300	-15.899	0.099
439.400	-14.998	0.099
439.500	1.057	0.099
439.600	-22.223	0.099
439.700	-8.549	0.099
439.800	-20.092	0.099
439.900	-3.895	0.099
440.000	-15.167	0.099
440.100	2.025	0.099
440.200	-18.934	0.099
440.300	5.167	0.099
440.400	-3.055	0.099
440.500	-9.934	0.099
440.600	-11.077	0.099
440.700	-4.493	0.099
440.800	-14.194	0.099
440.900	-2.878	0.099
441.000	2.108	0.099
441.100	-11.044	0.099
441.200	-2.073	0.099
441.300	-10.037	0.099
441.400	-8.957	0.099
441.500	-12.572	0.099
441.600	-12.822	0.099
441.700	-7.141	0.099
441.800	-6.415	0.099
441.900	-13.326	0.099
442.000	-10.126	0.099
442.100	-19.374	0.099
442.200	-3.706	0.099
442.300	-16.336	0.099
442.400	-11.920	0.099
442.500	-18.876	0.099
442.600	-24.594	0.099
442.700	8.834	0.099
442.800	-8.582	0.099
442.900	-5.718	0.099
443.000	-8.616	0.099
443.100	-13.069	0.099
443.200	-4.697	0.099
443.300	-3.461	0.099
443.400	-20.375	0.099
443.500	2.061	0.099
443.600	-17.803	0.099
443.700	-4.580	0.099
443.800	-17.562	0.099
443.900	-7.614	0.099
444.000	-11.747	0.099
444.100	-2.821	0.099
444.200	5.777	0.099
444.300	-18.108	0.099
444.400	3.381	0.099
444.500	-0.071	0.099
444.600	-15.081	0.099
444.700	-1.114	0.099
444.800	-7.395	0.099
444.900	-10.195	0.099
445.000	-12.426	0.099
445.100	-19.095	0.099
445.200	-10.503	0.099
445.300	-14.245	0.099
445.400	-7.788	0.099
445.500	-22.033	0.099
445.600	-10.064	0.099
445.700	-4.648	0.099
445.800	-10.150	0.099
445.900	6.720	0.099
446.000	-13.904	0.099
446.100	-14.491	0.099
446.200	-10.135	0.099
446.300	2.819	0.099
446.400	-11.419	0.099
446.500	-7.219	0.099
446.600	-6.028	0.099
446.700	-14.505	0.099
446.800	-14.081	0.099
446.900	-7.229	0.099
447.000	-12.217	0.099
447.100	-0.658	0.099
447.200	-14.151	0.099
447.300	-3.963	0.099
447.400	-11.019	0.099
447.500	-9.958	0.099
447.600	-8.917	0.099
447.700	-10.079	0.099
447.800	-4.295	0.099
447.900	-19.716	0.099
448.000	-3.240	0.099
448.100	-7.314	0.099
448.200	0.547	0.099
448.300	-20.154	0.099
448.400	-5.222	0.099
448.500	-5.067	0.099
448.600	-3.936	0.099
448.700	-10.987	0.099
448.800	-2.015	0.099
448.900	-10.653	0.099
449.000	10.022	0.099
449.100	-9.274	0.099
449.200	-2.974	0.099
449.300	-12.326	0.099
449.400	1.756	0.099
449.500	2.958	0.099
449.600	-10.821	0.099
449.700	-3.726	0.099
449.800	-6.555	0.099
449.900	-12.840	0.099
450.000	-8.330	0.099
450.100	-4.022	0.099
450.200	-11.177	0.099
450.300	-1.514	0.099
450.400	-5.211	0.099
450.500	1.668	0.099
450.600	-7.522	0.099
450.700	-4.511	0.099
450.800	-2.538	0.099
450.900	-9.946	0.099
451.000	-2.271	0.099
451.100	-1.364	0.099
451.200	-6.647	0.099
451.300	-1.643	0.099
451.400	-9.008	0.099
451.500	-0.563	0.099
451.600	-3.485	0.099
451.700	0.232	0.099
451.800	0.639	0.099
451.900	-4.686	0.099
452.000	-23.160	0.099
452.100	-11.117	0.099
452.200	-19.610	0.099
452.300	-4.953	0.099
452.400	5.312	0.099
452.500	-0.632	0.099
452.600	-5.788	0.099
452.700	-1.615	0.099
452.800	-6.363	0.099
452.900	-8.321	0.099
453.000	2.040	0.099
453.100	-5.699	0.099
453.200	-13.696	0.099
453.300	-8.819	0.099
453.400	-8.311	0.099
453.500	-23.756	0.099
453.600	-0.808	0.099
453.700	1.142	0.099
453.800	-7.872	0.099
453.900	-9.129	0.099
454.000	-14.416	0.099
454.100	-3.160	0.099
454.200	-20.671	0.099
454.300	-12.090	0.099
454.400	-3.771	0.099
454.500	-5.356	0.099
454.600	-10.355	0.099
454.700	-8.822	0.099
454.800	2.654	0.099
454.900	-20.913	0.099
455.000	-24.092	0.099
455.100	-4.553	0.099
455.200	-10.253	0.099
455.300	-4.347	0.099
455.400	-12.304	0.099
455.500	-1.321	0.099
455.600	0.656	0.099
455.700	-10.785	0.099
455.800	-2.657	0.099
455.900	6.816	0.099
456.000	14.132	0.099
456.100	-4.152	0.099
456.200	-2.000	0.099
456.300	-19.349	0.099
456.400	-5.993	0.099
456.500	-12.191	0.099
456.600	15.461	0.099
456.700	-6.991	0.099
456.800	-2.770	0.099
456.900	-1.548	0.099
457.000	-5.448	0.099
457.100	-3.306	0.099
457.200	-3.317	0.099
457.300	-14.939	0.099
457.400	-13.322	0.099
457.500	-6.557	0.099
457.600	-18.470	0.099
457.700	-0.504	0.099
457.800	-1.079	0.099
457.900	-11.000	0.099
458.000	6.035	0.099
458.100	-25.546	0.099
458.200	9.339	0.099
458.300	-8.464	0.099
458.400	-10.708	0.099
458.500	-9.522	0.099
458.600	-8.395	0.099
458.700	4.727	0.099
458.800	-14.821	0.099
458.900	-0.689	0.099
459.000	-3.283	0.099
459.100	-3.462	0.099
459.200	-8.740	0.099
459.300	-7.797	0.099
459.400	-8.715	0.099
459.500	0.712	0.099
459.600	-12.862	0.099
459.700	-11.362	0.099
459.800	-9.956	0.099
459.900	-0.601	0.099
460.000	-4.244	0.099
460.100	-10.437	0.099
460.200	2.686	0.099
460.300	10.573	0.099
460.400	-14.437	0.099
460.500	0.232	0.099
460.600	-15.581	0.099
460.700	1.300	0.099
460.800	-2.025	0.099
460.900	-11.105	0.099
461.000	-4.420	0.099
461.100	-0.591	0.099
461.200	-8.503	0.099
461.300	-16.898	0.099
461.400	-7.738	0.099
461.500	-3.213	0.099
461.600	2.084	0.099
461.700	-10.523	0.099
461.800	0.369	0.099
461.900	-5.383	0.099
462.000	-2.628	0.099
462.100	3.138	0.099
462.200	-13.521	0.099
462.300	-5.917	0.099
462.400	2.391	0.099
462.500	-6.856	0.099
462.600	-11.216	0.099
462.700	0.318	0.099
462.800	0.857	0.099
462.900	3.830	0.099
463.000	-5.483	0.099
463.100	-4.312	0.099
463.200	7.819	0.099
463.300	-7.460	0.099
463.400	3.742	0.099
463.500	-1.800	0.099
463.600	-3.894	0.099
463.700	-16.511	0.099
463.800	-1.320	0.099
463.900	-1.288	0.099
464.000	-23.698	0.099
464.100	-3.703	0.099
464.200	7.053	0.099
464.300	-10.429	0.099
464.400	-5.668	0.099
464.500	-10.698	0.099
464.600	-0.274	0.099
464.700	-21.537	0.099
464.800	11.910	0.099
464.900	-11.658	0.099
465.000	-5.685	0.099
465.100	1.418	0.099
465.200	0.069	0.099
465.300	-15.591	0.099
465.400	-11.529	0.099
465.500	-6.982	0.099
465.600	-6.734	0.099
465.700	-7.178	0.099
465.800	-0.901	0.099
465.900	-1.373	0.099
466.000	-10.876	0.099
466.100	-1.113	0.099
466.200	-0.213	0.099
466.300	0.374	0.099
466.400	-3.327	0.099
466.500	-8.708	0.099
466.600	4.937	0.099
466.700	-10.453	0.099
466.800	-6.180	0.099
466.900	-8.882	0.099
467.000	-16.968	0.099
467.100	-17.013	0.099
467.200	-10.622	0.099
467.300	3.106	0.099
467.400	-10.702	0.099
467.500	-21.530	0.099
467.600	-1.343	0.099
467.700	-8.742	0.099
467.800	-18.937	0.099
467.900	-8.893	0.099
468.000	1.620	0.099
468.100	1.441	0.099
468.200	1.800	0.099
468.300	-22.024	0.099
468.400	-12.285	0.099
468.500	3.289	0.099
468.600	-4.702	0.099
468.700	-9.138	0.099
468.800	-4.374	0.099
468.900	-7.968	0.099
469.000	-0.826	0.099
469.100	-3.561	0.099
469.200	-2.221	0.099
469.300	2.768	0.099
469.400	-8.955	0.099
469.500	0.208	0.099
469.600	11.323	0.099
469.700	-11.153	0.099
469.800	-6.874	0.099
469.900	-1.458	0.099
470.000	2.902	0.099
470.100	3.866	0.099
470.200	-7.250	0.099
470.300	-3.409	0.099
470.400	-17.215	0.099
470.500	1.072	0.099
470.600	-16.323	0.099
470.700	9.492	0.099
470.800	0.357	0.099
470.900	-12.125	0.099
471.000	-3.956	0.099
471.100	-3.334	0.099
471.200	-15.287	0.099
471.300	0.118	0.099
471.400	-12.507	0.099
471.500	-5.619	0.099
471.600	-10.087	0.099
471.700	-7.236	0.099
471.800	4.521	0.099
471.900	2.636	0.099
472.000	-12.878	0.099
472.100	1.298	0.099
472.200	4.095	0.099
472.300	-16.168	0.099
472.400	2.004	0.099
472.500	0.000	0.099
472.600	1.804	0.099
472.700	0.752	0.099
472.800	-9.054	0.099
472.900	-1.330	0.099
473.000	-16.721	0.099
473.100	4.333	0.099
473.200	-19.033	0.099
473.300	3.791	0.099
473.400	-5.194	0.099
473.500	7.115	0.099
473.600	-14.306	0.099
473.700	-3.303	0.099
473.800	-5.453	0.099
473.900	-0.291	0.099
474.000	-15.246	0.099
474.100	-8.856	0.099
474.200	5.389	0.099
474.300	-12.073	0.099
474.400	-0.892	0.099
474.500	-14.114	0.099
474.600	-2.740	0.099
474.700	-3.411	0.099
474.800	-10.809	0.099
474.900	3.789	0.099
475.000	-4.893	0.099
475.100	-6.137	0.099
475.200	-14.369	0.099
475.300	-3.138	0.099
475.400	-5.869	0.099
475.500	-2.387	0.099
475.600	-6.275	0.099
475.700	6.432	0.099
475.800	-1.665	0.099
475.900	-1.685	0.099
476.000	-1.920	0.099
476.100	-9.516	0.099
476.200	-0.912	0.099
476.300	0.683	0.099
476.400	3.360	0.099
476.500	-1.106	0.099
476.600	-0.626	0.099
476.700	6.247	0.099
476.800	3.515	0.099
476.900	-18.225	0.099
477.000	-8.358	0.099
477.100	-7.084	0.099
477.200	4.193	0.099
477.300	10.774	0.099
477.400	-13.304	0.099
477.500	-5.730	0.099
477.600	-3.060	0.099
477.700	-15.460	0.099
477.800	-13.861	0.099
477.900	-3.797	0.099
478.000	5.056	0.099
478.100	0.070	0.099
478.200	-3.367	0.099
478.300	-8.409	0.099
478.400	-10.990	0.099
478.500	-19.307	0.099
478.600	-3.397	0.099
478.700	-3.777	0.099
478.800	-3.857	0.099
478.900	-3.776	0.099
479.000	7.051	0.099
479.100	0.048	0.099
479.200	-4.784	0.099
479.300	13.226	0.099
479.400	3.920	0.099
479.500	-16.231	0.099
479.600	5.495	0.099
479.700	-10.948	0.099
479.800	13.791	0.099
479.900	12.660	0.099
480.000	1.176	0.099
480.100	-3.924	0.099
480.200	15.094	0.099
480.300	14.187	0.099
480.400	18.506	0.099
480.500	41.229	0.099
480.600	24.850	0.099
480.700	37.856	0.099
480.800	29.868	0.099
480.900	8.024	0.099
481.000	26.846	0.099
481.100	22.983	0.099
481.200	27.435	0.099
481.300	29.692	0.099
481.400	29.606	0.099
481.500	34.286	0.099
481.600	11.725	0.099
481.700	30.606	0.099
481.800	28.973	0.099
481.900	30.152	0.099
482.000	26.992	0.099
482.100	37.667	0.099
482.200	10.258	0.099
482.300	43.834	0.099
482.400	21.277	0.099
482.500	27.251	0.099
482.600	18.181	0.099
482.700	8.106	0.099
482.800	21.536	0.099
482.900	21.078	0.099
483.000	31.256	0.099
483.100	31.395	0.099
483.200	20.043	0.099
483.300	20.820	0.099
483.400	20.499	0.099
483.500	28.245	0.099
483.600	17.389	0.099
483.700	21.257	0.099
483.800	22.567	0.099
483.900	16.627	0.099
484.000	19.676	0.099
484.100	24.378	0.099
484.200	24.449	0.099
484.300	23.935	0.099
484.400	20.166	0.099
484.500	14.493	0.099
484.600	24.417	0.099
484.700	18.241	0.099
484.800	10.519	0.099
484.900	21.973	0.099
485.000	28.957	0.099
485.100	15.780	0.099
485.200	11.869	0.099
485.300	28.775	0.099
485.400	21.819	0.099
485.500	18.741	0.099
485.600	10.436	0.099
485.700	18.587	0.099
485.800	19.979	0.099
485.900	20.379	0.099
486.000	16.159	0.099
486.100	18.247	0.099
486.200	18.852	0.099
486.300	24.035	0.099
486.400	23.290	0.099
486.500	18.331	0.099
486.600	12.568	0.099
486.700	17.314	0.099
486.800	7.888	0.099
486.900	18.038	0.099
487.000	22.324	0.099
487.100	16.309	0.099
487.200	23.614	0.099
487.300	18.634	0.099
487.400	15.867	0.099
487.500	15.939	0.099
487.600	21.185	0.099
487.700	47.958	0.099
487.800	22.611	0.099
487.900	12.288	0.099
488.000	17.699	0.099
488.100	6.578	0.099
488.200	17.098	0.099
488.300	7.324	0.099
488.400	18.160	0.099
488.500	13.541	0.099
488.600	30.289	0.099
488.700	18.034	0.099
488.800	19.243	0.099
488.900	17.257	0.099
489.000	16.740	0.099
489.100	10.452	0.099
489.200	23.188	0.099
489.300	18.554	0.099
489.400	16.459	0.099
489.500	14.198	0.099
489.600	29.983	0.099
489.700	17.949	0.099
489.800	23.758	0.099
489.900	26.436	0.099
490.000	25.410	0.099
490.100	19.894	0.099
490.200	13.744	0.099
490.300	27.055	0.099
490.400	25.624	0.099
490.500	19.597	0.099
490.600	25.702	0.099
490.700	29.397	0.099
490.800	25.989	0.099
490.900	0.174	0.099
491.000	35.253	0.099
491.100	27.033	0.099
491.200	9.623	0.099
491.300	14.156	0.099
491.400	18.158	0.099
491.500	20.110	0.099
491.600	27.754	0.099
491.700	21.503	0.099
491.800	24.989	0.099
491.900	34.210	0.099
492.000	24.285	0.099
492.100	27.637	0.099
492.200	30.258	0.099
492.300	27.713	0.099
492.400	17.635	0.099
492.500	20.878	0.099
492.600	37.350	0.099
492.700	31.702	0.099
492.800	25.644	0.099
492.900	16.020	0.099
493.000	18.889	0.099
493.100	19.713	0.099
493.200	28.787	0.099
493.300	32.006	0.099
493.400	36.966	0.099
493.500	22.096	0.099
493.600	30.900	0.099
493.700	26.209	0.099
493.800	19.194	0.099
493.900	33.075	0.099
494.000	26.622	0.099
494.100	31.134	0.099
494.200	25.306	0.099
494.300	18.491	0.099
494.400	29.572	0.099
494.500	19.250	0.099
494.600	27.742	0.099
494.700	46.205	0.099
494.800	21.474	0.099
494.900	10.857	0.099
495.000	18.963	0.099
495.100	15.226	0.099
495.200	14.571	0.099
495.300	23.519	0.099
495.400	24.774	0.099
495.500	19.046	0.099
495.600	22.029	0.099
495.700	39.638	0.099
495.800	23.468	0.099
495.900	27.180	0.099
496.000	34.226	0.099
496.100	30.908	0.099
496.200	41.654	0.099
496.300	24.144	0.099
496.400	16.234	0.099
496.500	15.633	0.099
496.600	31.091	0.099
496.700	24.753	0.099
496.800	31.901	0.099
496.900	31.321	0.099
497.000	16.552	0.099
497.100	8.203	0.099
497.200	19.458	0.099
497.300	27.036	0.099
497.400	28.560	0.099
497.500	30.515	0.099
497.600	12.353	0.099
497.700	19.512	0.099
497.800	31.718	0.099
497.900	30.505	0.099
498.000	25.224	0.099
498.100	18.128	0.099
498.200	28.744	0.099
498.300	19.212	0.099
498.400	24.072	0.099
498.500	33.618	0.099
498.600	15.469	0.099
498.700	20.501	0.099
498.800	19.907	0.099
498.900	34.876	0.099
499.000	21.204	0.099
499.100	17.558	0.099
499.200	14.807	0.099
499.300	18.726	0.099
499.400	31.895	0.099
499.500	22.583	0.099
499.600	36.467	0.099
499.700	26.488	0.099
499.800	32.117	0.099
499.900	18.472	0.099
500.000	33.830	0.099
500.100	17.194	0.099
500.200	24.360	0.099
500.300	22.326	0.099
500.400	27.558	0.099
500.500	31.563	0.099
500.600	30.152	0.099
500.700	12.860	0.099
500.800	23.754	0.099
500.900	34.315	0.099
501.000	28.006	0.099
501.100	24.293	0.099
501.200	21.929	0.099
501.300	19.035	0.099
501.400	28.411	0.099
501.500	31.220	0.099
501.600	1.095	0.099
501.700	14.886	0.099
501.800	20.899	0.100
501.900	35.900	0.099
502.000	34.056	0.099
502.100	22.026	0.099
502.200	24.286	0.100
502.300	29.338	0.099
502.400	36.360	0.099
502.500	34.354	0.099
502.600	25.312	0.099
502.700	25.555	0.099
502.800	20.010	0.099
502.900	24.684	0.099
503.000	35.886	0.099
503.100	24.053	0.099
503.200	23.361	0.099
503.300	23.384	0.099
503.400	21.605	0.099
503.500	16.341	0.099
503.600	13.834	0.099
503.700	21.291	0.099
503.800	29.585	0.099
503.900	26.107	0.099
504.000	27.033	0.099
504.100	12.176	0.099
504.200	29.515	0.099
504.300	34.765	0.099
504.400	28.602	0.099
504.500	29.057	0.099
504.600	21.830	0.099
504.700	18.860	0.099
504.800	31.508	0.099
504.900	26.566	0.099
505.000	28.130	0.099
505.100	21.977	0.099
505.200	25.226	0.100
505.300	22.560	0.099
505.400	24.912	0.099
505.500	18.296	0.099
505.600	14.899	0.099
505.700	31.626	0.099
505.800	18.431	0.099
505.900	16.518	0.099
506.000	17.922	0.099
506.100	18.170	0.099
506.200	27.579	0.099
506.300	34.447	0.099
506.400	20.468	0.099
506.500	21.899	0.099
506.600	19.294	0.099
506.700	26.167	0.099
506.800	21.730	0.099
506.900	33.277	0.099
507.000	20.841	0.099
507.100	20.577	0.099
507.200	20.823	0.099
507.300	22.940	0.099
507.400	26.185	0.099
507.500	18.123	0.099
507.600	19.034	0.099
507.700	21.370	0.099
507.800	15.588	0.099
507.900	14.836	0.099
508.000	35.659	0.099
508.100	23.393	0.099
508.200	23.525	0.099
508.300	18.585	0.099
508.400	32.732	0.099
508.500	11.114	0.099
508.600	27.930	0.099
508.700	28.401	0.099
508.800	28.661	0.099
508.900	12.007	0.099
509.000	22.872	0.099
509.100	17.599	0.099
509.200	20.987	0.099
509.300	21.230	0.099
509.400	29.749	0.099
509.500	19.418	0.099
509.600	17.812	0.099
509.700	23.347	0.099
509.800	11.854	0.099
509.900	24.403	0.099
510.000	28.634	0.099
510.100	14.060	0.099
510.200	22.305	0.099
510.300	24.028	0.099
510.400	24.819	0.099
510.500	21.082	0.099
510.600	16.141	0.099
510.700	37.528	0.099
510.800	22.558	0.099
510.900	29.703	0.099
511.000	26.898	0.099
511.100	17.341	0.099
511.200	23.732	0.099
511.300	11.708	0.099
511.400	20.678	0.099
511.500	27.065	0.099
511.600	23.698	0.099
511.700	20.727	0.099
511.800	19.102	0.099
511.900	39.572	0.099
512.000	22.167	0.099
512.100	14.521	0.099
512.200	25.119	0.099
512.300	13.218	0.099
512.400	20.534	0.099
512.500	7.171	0.099
512.600	8.965	0.099
512.700	24.443	0.099
512.800	25.019	0.099
512.900	17.878	0.099
513.000	30.417	0.099
513.100	17.952	0.099
513.200	24.873	0.099
513.300	15.632	0.099
513.400	21.870	0.099
513.500	14.694	0.099
513.600	15.231	0.099
513.700	13.790	0.099
513.800	20.498	0.099
513.900	22.381	0.099
514.000	35.222	0.099
514.100	21.867	0.099
514.200	14.257	0.099
514.300	20.143	0.099
514.400	18.091	0.099
514.500	22.149	0.099
514.600	22.044	0.099
514.700	22.217	0.099
514.800	22.016	0.099
514.900	12.259	0.099
515.000	31.751	0.099
515.100	12.536	0.099
515.200	16.855	0.099
515.300	32.416	0.099
515.400	24.808	0.099
515.500	16.531	0.099
515.600	19.952	0.099
515.700	21.888	0.099
515.800	15.063	0.099
515.900	12.898	0.099
516.000	18.980	0.099
516.100	44.608	0.099
516.200	22.802	0.099
516.300	12.878	0.099
516.400	20.696	0.099
516.500	19.262	0.099
516.600	19.103	0.099
516.700	12.543	0.099
516.800	28.702	0.099
516.900	20.968	0.099
517.000	13.834	0.099
517.100	22.056	0.099
517.200	-2.666	0.099
517.300	29.581	0.099
517.400	21.462	0.099
517.500	40.147	0.099
517.600	32.752	0.099
517.700	13.859	0.099
517.800	18.135	0.099
517.900	32.746	0.099
518.000	15.824	0.099
518.100	17.722	0.099
518.200	21.632	0.099
518.300	17.760	0.099
518.400	20.044	0.099
518.500	15.846	0.099
518.600	11.349	0.099
518.700	26.300	0.099
518.800	6.596	0.099
518.900	22.050	0.099
519.000	19.511	0.099
519.100	27.133	0.099
519.200	9.107	0.099
519.300	11.879	0.099
519.400	21.305	0.099
519.500	12.741	0.099
519.600	26.163	0.099
519.700	21.018	0.099
519.800	27.282	0.099
519.900	16.863	0.099
520.000	19.508	0.099
520.100	15.518	0.099
520.200	19.345	0.099
520.300	25.389	0.099
520.400	22.418	0.099
520.500	12.901	0.099
520.600	13.207	0.099
520.700	14.801	0.099
520.800	14.914	0.099
520.900	23.955	0.099
521.000	35.884	0.099
521.100	15.585	0.099
521.200	7.469	0.099
521.300	19.879	0.099
521.400	17.917	0.099
521.500	10.999	0.099
521.600	0.236	0.099
521.700	16.606	0.099
521.800	28.344	0.099
521.900	21.976	0.099
522.000	18.336	0.099
522.100	13.867	0.099
522.200	20.792	0.099
522.300	21.769	0.099
522.400	17.387	0.099
522.500	34.744	0.099
522.600	14.358	0.099
522.700	5.439	0.099
522.800	-0.027	0.099
522.900	33.199	0.099
523.000	30.156	0.099
523.100	16.180	0.099
523.200	20.477	0.099
523.300	21.537	0.099
523.400	12.279	0.099
523.500	20.755	0.099
523.600	13.141	0.099
523.700	28.888	0.099
523.800	5.696	0.099
523.900	24.885	0.099
524.000	25.567	0.099
524.100	37.777	0.099
524.200	16.257	0.099
524.300	18.104	0.099
524.400	10.517	0.099
524.500	23.450	0.099
524.600	16.998	0.099
524.700	27.062	0.099
524.800	13.912	0.099
524.900	16.401	0.099
525.000	26.176	0.099
525.100	21.295	0.099
525.200	28.359	0.099
525.300	15.046	0.099
525.400	16.880	0.099
525.500	17.407	0.099
525.600	20.010	0.099
525.700	24.354	0.099
525.800	4.438	0.099
525.900	23.174	0.099
526.000	31.753	0.099
526.100	23.078	0.099
526.200	24.366	0.099
526.300	21.503	0.099
526.400	16.343	0.099
526.500	11.142	0.099
526.600	24.716	0.099
526.700	28.260	0.099
526.800	17.717	0.099
526.900	18.670	0.099
527.000	15.585	0.099
527.100	16.448	0.099
527.200	22.981	0.099
527.300	17.126	0.099
527.400	7.329	0.099
527.500	29.831	0.099
527.600	23.864	0.099
527.700	28.506	0.099
527.800	15.914	0.099
527.900	25.329	0.099
528.000	14.634	0.099
528.100	17.187	0.099
528.200	12.932	0.099
528.300	13.066	0.099
528.400	24.459	0.099
528.500	18.810	0.099
528.600	13.606	0.099
528.700	21.383	0.099
528.800	23.303	0.099
528.900	14.000	0.099
529.000	12.035	0.099
529.100	9.704	0.099
529.200	15.563	0.099
529.300	21.736	0.099
529.400	12.453	0.099
529.500	12.338	0.099
529.600	19.025	0.099
529.700	16.540	0.099
529.800	27.092	0.099
529.900	12.231	0.099
530.000	22.760	0.099
530.100	13.452	0.099
530.200	23.767	0.099
530.300	8.823	0.099
530.400	14.421	0.099
530.500	21.147	0.099
530.600	29.518	0.099
530.700	17.820	0.099
530.800	11.352	0.099
530.900	25.720	0.099
531.000	15.363	0.099
531.100	14.547	0.099
531.200	19.508	0.099
531.300	13.301	0.099
531.400	23.780	0.099
531.500	23.317	0.099
531.600	15.232	0.099
531.700	15.978	0.099
531.800	27.964	0.099
531.900	17.162	0.099
532.000	30.490	0.099
532.100	30.397	0.099
532.200	2.381	0.099
532.300	13.248	0.099
532.400	21.878	0.099
532.500	18.603	0.099
532.600	14.136	0.099
532.700	19.539	0.099
532.800	15.482	0.099
532.900	28.004	0.099
533.000	19.297	0.099
533.100	23.607	0.099
533.200	21.943	0.099
533.300	18.590	0.099
533.400	12.713	0.099
533.500	30.704	0.099
533.600	12.638	0.099
533.700	25.675	0.099
533.800	-3.011	0.099
533.900	24.361	0.099
534.000	23.893	0.099
534.100	23.755	0.099
534.200	3.627	0.099
534.300	21.887	0.099
534.400	19.282	0.099
534.500	25.073	0.099
534.600	30.303	0.099
534.700	12.991	0.099
534.800	8.144	0.099
534.900	33.284	0.099
535.000	26.970	0.099
535.100	17.293	0.099
535.200	14.937	0.099
535.300	25.401	0.099
535.400	18.877	0.099
535.500	12.406	0.099
535.600	13.717	0.099
535.700	31.168	0.099
535.800	24.730	0.099
535.900	14.427	0.099
536.000	31.305	0.099
536.100	25.549	0.099
536.200	30.734	0.099
536.300	38.831	0.099
536.400	25.412	0.099
536.500	14.037	0.099
536.600	12.848	0.099
536.700	33.272	0.099
536.800	25.814	0.099
536.900	13.811	0.099
537.000	25.011	0.099
537.100	9.690	0.099
537.200	15.487	0.099
537.300	25.856	0.099
537.400	21.138	0.099
537.500	26.527	0.099
537.600	13.623	0.099
537.700	15.796	0.099
537.800	20.458	0.099
537.900	41.703	0.099
538.000	19.899	0.099
538.100	15.346	0.099
538.200	22.992	0.099
538.300	16.032	0.099
538.400	20.171	0.099
538.500	17.914	0.099
538.600	18.765	0.099
538.700	29.521	0.099
538.800	19.256	0.099
538.900	22.793	0.099
539.000	24.642	0.099
539.100	18.107	0.099
539.200	15.069	0.099
539.300	25.819	0.099
539.400	19.474	0.099
539.500	16.240	0.099
539.600	23.617	0.099
539.700	13.682	0.099
539.800	16.620	0.099
539.900	9.123	0.099
540.000	14.141	0.099
540.100	17.010	0.099
540.200	5.492	0.099
540.300	-5.751	0.099
540.400	-3.985	0.099
540.500	3.921	0.099
540.600	-0.780	0.099
540.700	-3.462	0.099
540.800	-26.639	0.099
540.900	-8.043	0.099
541.000	-13.558	0.099
541.100	-3.554	0.099
541.200	-35.644	0.099
541.300	-19.747	0.099
541.400	-26.042	0.099
541.500	-26.373	0.099
541.600	-22.950	0.099
541.700	-42.033	0.099
541.800	-25.751	0.099
541.900	-36.049	0.099
542.000	-37.088	0.099
542.100	-38.828	0.099
542.200	-37.816	0.099
542.300	-25.167	0.099
542.400	-30.079	0.099
542.500	-28.698	0.099
542.600	-26.478	0.099
542.700	-48.722	0.099
542.800	-30.046	0.099
542.900	-38.434	0.099
543.000	-34.525	0.099
543.100	-39.347	0.099
543.200	-24.631	0.099
543.300	-34.929	0.099
543.400	-29.907	0.099
543.500	-42.134	0.099
543.600	-38.153	0.099
543.700	-49.819	0.099
543.800	-36.904	0.099
543.900	-41.715	0.099
544.000	-30.274	0.099
544.100	-24.202	0.099
544.200	-30.010	0.099
544.300	-41.706	0.099
544.400	-27.296	0.099
544.500	-33.285	0.099
544.600	-22.112	0.099
544.700	-33.559	0.099
544.800	-33.783	0.099
544.900	-24.573	0.099
545.000	-31.780	0.099
545.100	-11.083	0.099
545.200	-23.340	0.099
545.300	-39.036	0.099
545.400	-51.308	0.099
545.500	-25.471	0.099
545.600	-33.477	0.099
545.700	-30.660	0.099
545.800	-21.396	0.099
545.900	-22.108	0.099
546.000	-22.911	0.099
546.100	-19.035	0.099
546.200	-22.088	0.099
546.300	-45.951	0.099
546.400	-16.436	0.099
546.500	-21.179	0.099
546.600	-26.020	0.099
546.700	-15.872	0.099
546.800	-31.068	0.099
546.900	-17.399	0.099
547.000	-17.342	0.099
547.100	-25.835	0.099
547.200	-26.316	0.099
547.300	-15.756	0.099
547.400	-22.775	0.099
547.500	-16.267	0.099
547.600	-15.808	0.099
547.700	-19.173	0.099
547.800	-26.574	0.099
547.900	-16.442	0.099
548.000	-7.754	0.099
548.100	-28.630	0.099
548.200	-20.296	0.099
548.300	-30.487	0.099
548.400	-10.163	0.099
548.500	-13.962	0.099
548.600	-9.250	0.099
548.700	-18.704	0.099
548.800	-18.048	0.099
548.900	-14.259	0.099
549.000	-5.878	0.099
549.100	-21.598	0.099
549.200	-21.507	0.099
549.300	-37.822	0.099
549.400	-13.656	0.099
549.500	-22.762	0.099
549.600	-5.828	0.099
549.700	-6.019	0.099
549.800	-9.752	0.099
549.900	-13.744	0.099
550.000	-22.584	0.099
550.100	-15.936	0.099
550.200	-6.482	0.099
550.300	-22.380	0.099
550.400	-6.821	0.099
550.500	-28.599	0.099
550.600	-0.122	0.099
550.700	-7.826	0.099
550.800	-26.762	0.099
550.900	-14.868	0.099
551.000	-0.895	0.099
551.100	-7.854	0.099
551.200	-12.683	0.099
551.300	-16.421	0.099
551.400	-9.265	0.099
551.500	3.378	0.099
551.600	-12.670	0.099
551.700	-25.172	0.099
551.800	-14.299	0.099
551.900	-18.935	0.099
552.000	-7.780	0.099
552.100	-14.704	0.099
552.200	-4.497	0.099
552.300	-28.034	0.099
552.400	-15.110	0.099
552.500	3.091	0.099
552.600	-11.369	0.099
552.700	-22.851	0.099
552.800	-10.456	0.099
552.900	-3.945	0.099
553.000	0.011	0.099
553.100	-15.975	0.099
553.200	-9.484	0.099
553.300	-10.965	0.099
553.400	-7.413	0.099
553.500	-14.056	0.099
553.600	-16.303	0.099
553.700	-21.169	0.099
553.800	-15.367	0.099
553.900	-9.821	0.099
554.000	1.205	0.099
554.100	-5.150	0.099
554.200	-8.293	0.099
554.300	1.879	0.099
554.400	-21.408	0.099
554.500	0.198	0.099
554.600	-7.577	0.099
554.700	-13.579	0.099
554.800	-12.448	0.099
554.900	-8.848	0.099
555.000	-8.959	0.099
555.100	-14.813	0.099
555.200	-12.701	0.099
555.300	-8.386	0.099
555.400	-13.906	0.099
555.500	-32.703	0.099
555.600	-8.827	0.099
555.700	-12.145	0.099
555.800	-9.443	0.099
555.900	-14.601	0.099
556.000	-7.672	0.099
556.100	-25.853	0.099
556.200	3.494	0.099
556.300	-13.053	0.099
556.400	-22.880	0.099
556.500	-13.340	0.099
556.600	-16.667	0.099
556.700	-18.559	0.099
556.800	-5.745	0.099
556.900	-11.433	0.099
557.000	-23.897	0.099
557.100	3.376	0.099
557.200	-17.405	0.099
557.300	-24.150	0.099
557.400	-5.057	0.099
557.500	-9.171	0.099
557.600	-10.867	0.099
557.700	-14.096	0.099
557.800	-10.665	0.099
557.900	-18.096	0.099
558.000	-19.499	0.099
558.100	-26.169	0.099
558.200	-17.935	0.099
558.300	-7.371	0.099
558.400	-17.542	0.099
558.500	-24.849	0.099
558.600	-9.502	0.099
558.700	-15.318	0.099
558.800	-17.074	0.099
558.900	-19.472	0.099
559.000	-8.645	0.099
559.100	-4.989	0.099
559.200	-19.556	0.099
559.300	-3.155	0.099
559.400	-11.146	0.099
559.500	-18.937	0.099
559.600	-20.038	0.099
559.700	-12.237	0.099
559.800	-11.140	0.099
559.900	-4.849	0.099
560.000	-16.668	0.099
560.100	-32.759	0.099
560.200	-6.652	0.099
560.300	-10.728	0.099
560.400	-9.395	0.099
560.500	-21.039	0.099
560.600	-17.799	0.099
560.700	-11.959	0.099
560.800	-17.154	0.099
560.900	-17.563	0.099
561.000	-12.300	0.099
561.100	-2.814	0.099
561.200	-17.830	0.099
561.300	-15.045	0.099
561.400	-9.518	0.099
561.500	-16.997	0.099
561.600	-5.848	0.099
561.700	-19.297	0.099
561.800	-14.332	0.099
561.900	-4.272	0.099
562.000	-14.826	0.099
562.100	-6.354	0.099
562.200	-19.453	0.099
562.300	-9.325	0.099
562.400	-4.764	0.099
562.500	3.152	0.099
562.600	-20.332	0.099
562.700	-4.791	0.099
562.800	-11.068	0.099
562.900	-18.637	0.099
563.000	-19.557	0.099
563.100	-5.267	0.099
563.200	-19.543	0.099
563.300	-3.747	0.099
563.400	-22.212	0.099
563.500	-18.663	0.099
563.600	-4.402	0.099
563.700	-1.834	0.099
563.800	-4.189	0.099
563.900	-19.509	0.099
564.000	-4.403	0.099
564.100	-18.242	0.099
564.200	-7.838	0.099
564.300	-26.262	0.099
564.400	-7.990	0.099
564.500	-1.570	0.099
564.600	-1.282	0.099
564.700	-6.365	0.099
564.800	-5.309	0.099
564.900	-18.962	0.099
565.000	-9.450	0.099
565.100	-5.848	0.099
565.200	-15.048	0.099
565.300	-5.674	0.099
565.400	-12.147	0.099
565.500	-19.552	0.099
565.600	-8.779	0.099
565.700	-23.390	0.099
565.800	-19.074	0.099
565.900	-18.247	0.099
566.000	-1.822	0.099
566.100	-18.573	0.099
566.200	-13.160	0.099
566.300	-0.279	0.099
566.400	-20.994	0.099
566.500	-2.935	0.099
566.600	14.953	0.099
566.700	-23.765	0.099
566.800	-16.170	0.099
566.900	-16.600	0.099
567.000	-6.743	0.099
567.100	-14.391	0.099
567.200	-17.760	0.099
567.300	-21.050	0.099
567.400	-9.160	0.099
567.500	-17.906	0.099
567.600	-24.121	0.099
567.700	-7.900	0.099
567.800	-21.214	0.099
567.900	-13.279	0.099
568.000	-8.025	0.099
568.100	-1.322	0.099
568.200	-2.564	0.099
568.300	-12.279	0.099
568.400	-10.609	0.099
568.500	-14.775	0.099
568.600	-11.871	0.099
568.700	-11.469	0.099
568.800	-3.779	0.099
568.900	-24.573	0.099
569.000	-11.407	0.099
569.100	-6.837	0.099
569.200	-11.238	0.099
569.300	-20.888	0.099
569.400	-5.453	0.099
569.500	-5.815	0.099
569.600	-7.282	0.099
569.700	-22.206	0.099
569.800	-23.665	0.099
569.900	-17.576	0.099
570.000	-3.591	0.099
570.100	-10.158	0.099
570.200	-9.961	0.099
570.300	-14.663	0.099
570.400	-18.522	0.099
570.500	-9.153	0.099
570.600	-11.129	0.099
570.700	-23.577	0.099
570.800	-13.394	0.099
570.900	-12.035	0.099
571.000	-19.644	0.099
571.100	-16.670	0.099
571.200	-5.206	0.099
571.300	-24.439	0.099
571.400	-27.312	0.099
571.500	-20.693	0.099
571.600	-13.319	0.099
571.700	-23.562	0.099
571.800	-6.322	0.099
571.900	-1.859	0.099
572.000	-8.059	0.099
572.100	-19.397	0.099
572.200	-5.621	0.099
572.300	-12.444	0.099
572.400	-31.767	0.099
572.500	-10.288	0.099
572.600	-12.671	0.099
572.700	-27.756	0.099
572.800	-16.193	0.099
572.900	-6.387	0.099
573.000	-1.654	0.099
573.100	-7.294	0.099
573.200	-9.881	0.099
573.300	-5.684	0.099
573.400	-5.670	0.099
573.500	-11.419	0.099
573.600	-9.077	0.099
573.700	-24.205	0.099
573.800	-9.737	0.099
573.900	-9.868	0.099
574.000	-12.294	0.099
574.100	-16.714	0.099
574.200	-11.927	0.099
574.300	-1.755	0.099
574.400	4.342	0.099
574.500	-13.945	0.099
574.600	-14.588	0.099
574.700	8.227	0.099
574.800	-9.352	0.099
574.900	-6.069	0.099
575.000	-12.980	0.099
575.100	-6.833	0.099
575.200	-17.929	0.099
575.300	-7.556	0.099
575.400	-7.102	0.099
575.500	-3.497	0.099
575.600	-6.641	0.099
575.700	-12.608	0.099
575.800	-8.135	0.099
575.900	-10.435	0.099
576.000	-14.863	0.099
576.100	-9.731	0.099
576.200	-2.570	0.099
576.300	-1.840	0.099
576.400	-16.646	0.099
576.500	-12.991	0.099
576.600	-14.174	0.099
576.700	-10.098	0.099
576.800	-28.668	0.099
576.900	8.508	0.099
577.000	-7.585	0.099
577.100	-7.082	0.099
577.200	-20.349	0.099
577.300	-8.166	0.099
577.400	-9.101	0.099
577.500	-10.341	0.099
577.600	-12.573	0.099
577.700	-11.110	0.099
577.800	-5.106	0.099
577.900	-8.982	0.099
578.000	-8.151	0.099
578.100	-20.747	0.099
578.200	-18.141	0.099
578.300	-10.226	0.099
578.400	-3.873	0.099
578.500	3.817	0.099
578.600	-12.812	0.099
578.700	-26.781	0.099
578.800	-4.733	0.099
578.900	-7.647	0.099
579.000	-19.680	0.099
579.100	-0.108	0.099
579.200	-10.856	0.099
579.300	-5.136	0.099
579.400	-15.769	0.099
579.500	-0.773	0.099
579.600	-7.210	0.099
579.700	-21.229	0.099
579.800	-3.254	0.099
579.900	-14.492	0.099
580.000	-12.225	0.099
580.100	-16.085	0.099
580.200	-25.982	0.099
580.300	-10.119	0.099
580.400	-17.605	0.099
580.500	-16.113	0.099
580.600	-21.711	0.099
580.700	-12.038	0.099
580.800	3.879	0.099
580.900	-10.383	0.099
581.000	-12.579	0.099
581.100	-6.025	0.099
581.200	-21.945	0.099
581.300	-8.415	0.099
581.400	-9.405	0.099
581.500	-17.404	0.099
581.600	-11.134	0.099
581.700	-10.640	0.099
581.800	-24.886	0.099
581.900	-13.272	0.099
582.000	-10.454	0.099
582.100	-12.608	0.099
582.200	-25.139	0.099
582.300	-12.318	0.099
582.400	-16.954	0.099
582.500	-12.741	0.099
582.600	3.163	0.099
582.700	-7.137	0.099
582.800	-11.686	0.099
582.900	-10.329	0.099
583.000	-22.048	0.099
583.100	-6.689	0.099
583.200	-1.963	0.099
583.300	-15.013	0.099
583.400	-22.252	0.099
583.500	-21.971	0.099
583.600	-9.395	0.099
583.700	-11.295	0.099
583.800	-10.175	0.099
583.900	-9.099	0.099
584.000	-14.192	0.099
584.100	-7.068	0.099
584.200	-10.742	0.099
584.300	-32.115	0.099
584.400	0.457	0.099
584.500	-1.390	0.099
584.600	-5.988	0.099
584.700	-16.702	0.099
584.800	-13.488	0.099
584.900	-8.315	0.099
585.000	-19.278	0.099
585.100	-16.658	0.099
585.200	2.062	0.099
585.300	-5.046	0.099
585.400	-26.557	0.099
585.500	-7.689	0.099
585.600	-12.337	0.099
585.700	-8.894	0.099
585.800	-17.391	0.099
585.900	-8.709	0.099
586.000	-20.922	0.099
586.100	-19.617	0.099
586.200	-16.008	0.099
586.300	-6.961	0.099
586.400	-5.070	0.099
586.500	-9.510	0.099
586.600	-20.936	0.099
586.700	-11.325	0.099
586.800	-10.441	0.099
586.900	-5.560	0.099
587.000	-24.637	0.099
587.100	-20.090	0.099
587.200	-11.621	0.099
587.300	-20.115	0.099
587.400	-14.168	0.099
587.500	-18.466	0.099
587.600	4.362	0.099
587.700	-11.611	0.099
587.800	5.745	0.099
587.900	-11.122	0.099
588.000	-19.829	0.099
588.100	-2.213	0.099
588.200	-4.672	0.099
588.300	-4.310	0.099
588.400	-10.404	0.099
588.500	-9.363	0.099
588.600	-4.190	0.099
588.700	-10.380	0.099
588.800	-6.590	0.099
588.900	-9.587	0.099
589.000	1.902	0.099
589.100	-8.812	0.099
589.200	-16.873	0.099
589.300	-5.838	0.099
589.400	-6.033	0.099
589.500	-18.533	0.099
589.600	-7.951	0.099
589.700	-14.350	0.099
589.800	-10.278	0.099
589.900	-34.053	0.099
590.000	-12.703	0.099
590.100	-10.637	0.099
590.200	-6.431	0.099
590.300	-11.682	0.099
590.400	-20.648	0.099
590.500	-11.277	0.099
590.600	1.384	0.099
590.700	-20.798	0.099
590.800	-18.645	0.099
590.900	4.194	0.099
591.000	-8.889	0.099
591.100	-21.239	0.099
591.200	9.676	0.099
591.300	-8.925	0.099
591.400	-10.176	0.099
591.500	-14.827	0.099
591.600	-15.030	0.099
591.700	-13.614	0.099
591.800	-3.431	0.099
591.900	-10.025	0.099
592.000	-13.811	0.099
592.100	-4.084	0.099
592.200	-8.541	0.099
592.300	-0.701	0.099
592.400	-8.568	0.099
592.500	-9.546	0.099
592.600	0.429	0.099
592.700	-12.233	0.099
592.800	-16.007	0.099
592.900	-16.830	0.099
593.000	-8.317	0.099
593.100	-13.486	0.099
593.200	-13.058	0.099
593.300	-31.282	0.099
593.400	-3.169	0.099
593.500	-21.740	0.099
593.600	-12.977	0.099
593.700	-18.757	0.099
593.800	-19.029	0.099
593.900	-7.949	0.099
594.000	-6.859	0.099
594.100	-13.380	0.099
594.200	-7.678	0.099
594.300	8.269	0.099
594.400	-15.903	0.099
594.500	-8.218	0.099
594.600	-9.165	0.099
594.700	-4.675	0.099
594.800	-8.164	0.099
594.900	-6.678	0.099
595.000	-7.529	0.099
595.100	-8.566	0.099
595.200	-13.270	0.099
595.300	-3.369	0.099
595.400	-19.264	0.099
595.500	-9.255	0.099
595.600	0.202	0.099
595.700	-15.675	0.099
595.800	-6.000	0.099
595.900	-4.790	0.099
596.000	-1.342	0.099
596.100	-20.148	0.099
596.200	-11.503	0.099
596.300	0.988	0.099
596.400	-3.139	0.099
596.500	-9.779	0.099
596.600	-8.034	0.099
596.700	-12.781	0.099
596.800	-14.482	0.099
596.900	-9.902	0.099
597.000	-12.585	0.099
597.100	-4.867	0.099
597.200	-1.193	0.099
597.300	-8.713	0.099
597.400	-4.979	0.099
597.500	2.280	0.099
597.600	-10.547	0.099
597.700	-23.127	0.099
597.800	-21.690	0.099
597.900	8.765	0.099
598.000	-10.930	0.099
598.100	-2.610	0.099
598.200	-22.639	0.099
598.300	-8.819	0.099
598.400	-14.128	0.099
598.500	-4.688	0.099
598.600	-5.347	0.099
598.700	-8.616	0.099
598.800	-2.423	0.099
598.900	-15.829	0.099
599.000	-1.378	0.099
599.100	-15.020	0.099
599.200	-10.450	0.099
599.300	-0.415	0.099
599.400	-12.278	0.099
599.500	7.374	0.099
599.600	-18.272	0.099
599.700	6.883	0.099
599.800	-2.859	0.099
599.900	-2.083	0.099
600.000	10.506	0.099
600.100	-8.158	0.100
600.200	-4.675	0.099
600.300	-6.109	0.100
600.400	0.623	0.099
600.500	2.845	0.100
600.600	3.338	0.099
600.700	-12.004	0.099
600.800	-7.041	0.100
600.900	-13.261	0.100
601.000	-11.148	0.100
601.100	-18.496	0.099
601.200	-1.520	0.100
601.300	-4.778	0.100
601.400	-10.162	0.100
601.500	-4.632	0.100
601.600	-4.307	0.100
601.700	-7.551	0.100
601.800	-6.213	0.100
601.900	-6.368	0.100
602.000	-5.912	0.100
602.100	-1.392	0.100
602.200	-13.244	0.100
602.300	10.612	0.100
602.400	-14.911	0.100
602.500	-14.142	0.100
602.600	-11.804	0.100
602.700	-7.484	0.100
602.800	-1.558	0.100
602.900	1.745	0.100
603.000	-7.720	0.100
603.100	-13.456	0.100
603.200	1.689	0.100
603.300	-8.959	0.100
603.400	-8.275	0.100
603.500	-5.534	0.100
603.600	-22.363	0.100
603.700	-15.433	0.100
603.800	-8.164	0.100
603.900	-2.034	0.100
604.000	-17.033	0.100
604.100	-3.780	0.100
604.200	-4.216	0.100
604.300	-19.983	0.100
604.400	-32.893	0.100
604.500	-7.482	0.100
604.600	0.089	0.100
604.700	-0.383	0.100
604.800	-7.784	0.100
604.900	-5.435	0.100
605.000	-7.173	0.100
605.100	-4.971	0.100
605.200	-4.560	0.100
605.300	-12.939	0.100
605.400	-2.925	0.100
605.500	0.772	0.100
605.600	-5.702	0.100
605.700	-2.055	0.100
605.800	-1.369	0.100
605.900	-3.461	0.100
606.000	-21.232	0.100
606.100	-5.594	0.100
606.200	4.255	0.100
606.300	-5.739	0.100
606.400	-0.412	0.100
606.500	-4.420	0.100
606.600	-12.437	0.100
606.700	-15.306	0.100
606.800	1.927	0.100
606.900	-2.366	0.100
607.000	-6.076	0.100
607.100	2.792	0.100
607.200	-5.561	0.100
607.300	-3.176	0.100
607.400	-0.264	0.100
607.500	-14.530	0.100
607.600	1.976	0.100
607.700	-10.533	0.100
607.800	-8.749	0.100
607.900	9.875	0.100
608.000	-16.660	0.100
608.100	0.435	0.100
608.200	-12.633	0.100
608.300	-4.311	0.100
608.400	-3.285	0.100
608.500	-3.833	0.100
608.600	-8.635	0.100
608.700	-11.446	0.100
608.800	4.092	0.100
608.900	-5.829	0.100
609.000	-2.151	0.100
609.100	-19.421	0.100
609.200	-10.382	0.100
609.300	-16.515	0.100
609.400	-5.757	0.100
609.500	-9.485	0.100
609.600	-5.963	0.100
609.700	1.121	0.100
609.800	0.431	0.100
609.900	-5.243	0.100
610.000	-5.890	0.100
610.100	4.533	0.100
610.200	2.373	0.100
610.300	-9.518	0.100
610.400	-5.361	0.100
610.500	-5.687	0.100
610.600	-9.509	0.100
610.700	-0.436	0.100
610.800	-8.853	0.100
610.900	-0.299	0.100
611.000	-9.198	0.100
611.100	-2.992	0.100
611.200	2.373	0.100
611.300	0.239	0.100
611.400	-14.387	0.100
611.500	-9.119	0.100
611.600	-8.238	0.100
611.700	-11.319	0.100
611.800	-3.924	0.100
611.900	-10.458	0.100
612.000	-4.201	0.100
612.100	-18.610	0.100
612.200	-9.008	0.100
612.300	-4.254	0.100
612.400	-7.711	0.100
612.500	-10.707	0.100
612.600	-13.544	0.100
612.700	9.657	0.100
612.800	-7.076	0.100
612.900	-8.727	0.100
613.000	-10.868	0.100
613.100	-5.008	0.100
613.200	-18.883	0.100
613.300	-8.164	0.100
613.400	1.869	0.100
613.500	-1.611	0.100
613.600	-7.252	0.100
613.700	0.306	0.100
613.800	-18.336	0.100
613.900	-10.355	0.100
614.000	-6.616	0.100
614.100	-13.108	0.100
614.200	-2.668	0.100
614.300	0.510	0.100
614.400	-12.056	0.100
614.500	-11.143	0.100
614.600	-4.582	0.100
614.700	2.089	0.100
614.800	-13.224	0.100
614.900	1.489	0.100
615.000	10.406	0.100
615.100	7.146	0.100
615.200	-1.183	0.100
615.300	-2.139	0.100
615.400	-9.851	0.100
615.500	-5.543	0.100
615.600	-19.298	0.100
615.700	6.602	0.100
615.800	-0.249	0.100
615.900	-10.963	0.100
616.000	-3.172	0.100
616.100	-4.093	0.100
616.200	-19.377	0.100
616.300	-11.846	0.100
616.400	0.098	0.100
616.500	-16.328	0.100
616.600	-1.328	0.100
616.700	-1.911	0.100
616.800	-15.845	0.100
616.900	-11.549	0.100
617.000	3.106	0.100
617.100	12.048	0.100
617.200	-14.759	0.100
617.300	-11.540	0.100
617.400	-22.156	0.100
617.500	-7.185	0.100
617.600	-1.672	0.100
617.700	-11.383	0.100
617.800	-18.622	0.100
617.900	5.389	0.100
618.000	1.223	0.100
618.100	-14.189	0.100
618.200	-4.744	0.100
618.300	-6.851	0.100
618.400	7.601	0.100
618.500	-6.437	0.100
618.600	-12.247	0.100
618.700	-11.413	0.100
618.800	-2.940	0.100
618.900	-27.921	0.100
619.000	-1.373	0.100
619.100	-12.880	0.100
619.200	-4.841	0.100
619.300	-0.341	0.100
619.400	-11.073	0.100
619.500	-11.479	0.100
619.600	-5.440	0.100
619.700	-9.850	0.100
619.800	-9.385	0.100
619.900	-9.602	0.100
620.000	-13.963	0.100
620.100	1.378	0.100
620.200	-2.861	0.100
620.300	-13.367	0.100
620.400	-9.758	0.100
620.500	1.392	0.100
620.600	-0.166	0.100
620.700	-10.010	0.100
620.800	-9.496	0.100
620.900	-7.053	0.100
621.000	-10.159	0.100
621.100	15.209	0.100
621.200	-8.886	0.100
621.300	10.193	0.100
621.400	-4.035	0.100
621.500	3.666	0.100
621.600	-3.510	0.099
621.700	-14.034	0.099
621.800	-7.845	0.099
621.900	-14.142	0.099
622.000	-13.760	0.099
622.100	-4.479	0.099
622.200	-3.117	0.099
622.300	-0.524	0.099
622.400	-4.690	0.099
622.500	-14.399	0.099
622.600	-10.474	0.099
622.700	7.637	0.099
622.800	-14.886	0.099
622.900	11.107	0.099
623.000	6.286	0.099
623.100	-0.193	0.099
623.200	-3.243	0.099
623.300	2.575	0.099
623.400	-13.193	0.099
623.500	-14.465	0.099
623.600	-8.645	0.099
623.700	-9.135	0.099
623.800	-9.125	0.099
623.900	-9.233	0.099
624.000	-16.704	0.099
624.100	3.440	0.099
624.200	1.594	0.099
624.300	-21.855	0.099
624.400	-6.281	0.099
624.500	-11.019	0.099
624.600	-7.176	0.099
624.700	-5.621	0.099
624.800	-1.758	0.099
624.900	3.335	0.099
625.000	-8.296	0.099
625.100	-12.838	0.099
625.200	-9.645	0.099
625.300	-2.217	0.099
625.400	3.184	0.099
625.500	-9.996	0.099
625.600	-2.764	0.099
625.700	-1.189	0.099
625.800	-1.339	0.099
625.900	-14.668	0.099
626.000	15.741	0.099
626.100	-7.457	0.099
626.200	16.321	0.099
626.300	3.334	0.099
626.400	12.021	0.099
626.500	-7.593	0.099
626.600	-11.372	0.099
626.700	1.818	0.099
626.800	-5.170	0.099
626.900	-11.487	0.099
627.000	-8.388	0.099
627.100	-3.251	0.099
627.200	0.816	0.099
627.300	-9.266	0.099
627.400	-6.882	0.099
627.500	-18.147	0.099
627.600	-7.308	0.099
627.700	3.331	0.099
627.800	-1.740	0.099
627.900	3.205	0.099
628.000	4.126	0.099
628.100	-8.257	0.099
628.200	-10.241	0.099
628.300	7.190	0.099
628.400	-2.010	0.099
628.500	-2.917	0.099
628.600	-4.852	0.099
628.700	-9.126	0.099
628.800	-3.952	0.099
628.900	-12.915	0.099
629.000	9.625	0.099
629.100	-3.022	0.099
629.200	-13.866	0.099
629.300	-2.920	0.099
629.400	-2.090	0.099
629.500	-8.406	0.099
629.600	-4.574	0.099
629.700	-11.082	0.099
629.800	-1.087	0.099
629.900	4.678	0.099
630.000	12.680	0.099
630.100	23.486	0.099
630.200	13.315	0.099
630.300	18.434	0.099
630.400	30.838	0.099
630.500	18.352	0.099
630.600	25.134	0.099
630.700	16.300	0.099
630.800	25.949	0.099
630.900	33.106	0.099
631.000	24.906	0.099
631.100	28.915	0.099
631.200	15.571	0.099
631.300	25.714	0.099
631.400	39.051	0.099
631.500	26.910	0.099
631.600	34.428	0.099
631.700	14.204	0.099
631.800	29.139	0.099
631.900	30.445	0.099
632.000	36.037	0.099
632.100	10.164	0.099
632.200	42.064	0.099
632.300	42.741	0.099
632.400	24.418	0.099
632.500	34.858	0.099
632.600	27.141	0.099
632.700	30.743	0.099
632.800	26.500	0.099
632.900	25.414	0.099
633.000	18.413	0.099
633.100	40.098	0.099
633.200	29.489	0.099
633.300	23.685	0.099
633.400	19.746	0.099
633.500	25.711	0.099
633.600	25.287	0.099
633.700	30.433	0.099
633.800	18.938	0.099
633.900	25.621	0.099
634.000	25.552	0.099
634.100	21.838	0.099
634.200	19.571	0.099
634.300	5.305	0.099
634.400	16.826	0.099
634.500	6.105	0.099
634.600	24.752	0.099
634.700	21.667	0.099
634.800	30.918	0.099
634.900	25.298	0.099
635.000	15.416	0.099
635.100	20.742	0.099
635.200	35.186	0.099
635.300	20.593	0.099
635.400	19.768	0.099
635.500	23.663	0.099
635.600	21.120	0.099
635.700	8.552	0.099
635.800	35.575	0.099
635.900	4.527	0.099
636.000	29.500	0.099
636.100	10.969	0.099
636.200	18.683	0.099
636.300	10.783	0.099
636.400	12.048	0.099
636.500	17.896	0.099
636.600	1.979	0.099
636.700	13.701	0.099
636.800	12.432	0.099
636.900	9.989	0.099
637.000	3.913	0.099
637.100	24.641	0.099
637.200	22.291	0.099
637.300	34.550	0.099
637.400	18.425	0.099
637.500	10.584	0.099
637.600	11.059	0.099
637.700	23.495	0.099
637.800	20.024	0.099
637.900	35.103	0.099
638.000	23.439	0.099
638.100	3.054	0.099
638.200	22.792	0.099
638.300	8.831	0.099
638.400	7.478	0.099
638.500	18.771	0.099
638.600	34.148	0.099
638.700	15.223	0.099
638.800	28.126	0.099
638.900	13.999	0.099
639.000	6.599	0.099
639.100	17.456	0.099
639.200	15.700	0.099
639.300	27.872	0.099
639.400	21.034	0.099
639.500	23.457	0.099
639.600	18.570	0.099
639.700	21.229	0.099
639.800	23.913	0.099
639.900	39.883	0.099
640.000	15.567	0.099
640.100	21.232	0.099
640.200	19.375	0.099
640.300	22.613	0.099
640.400	19.950	0.099
640.500	28.128	0.099
640.600	17.839	0.099
640.700	10.667	0.099
640.800	34.164	0.099
640.900	21.544	0.099
641.000	25.842	0.099
641.100	34.484	0.099
641.200	38.368	0.099
641.300	17.008	0.099
641.400	30.029	0.099
641.500	20.136	0.099
641.600	24.330	0.099
641.700	25.100	0.099
641.800	21.091	0.099
641.900	7.860	0.099
642.000	11.039	0.099
642.100	1.496	0.099
642.200	23.611	0.099
642.300	29.971	0.099
642.400	20.559	0.099
642.500	27.938	0.099
642.600	17.597	0.099
642.700	19.335	0.099
642.800	16.011	0.099
642.900	28.851	0.099
643.000	28.352	0.099
643.100	25.728	0.099
643.200	26.286	0.099
643.300	32.451	0.099
643.400	15.991	0.099
643.500	20.761	0.099
643.600	18.731	0.099
643.700	22.876	0.099
643.800	20.644	0.099
643.900	15.313	0.099
644.000	18.780	0.099
644.100	29.821	0.099
644.200	38.169	0.099
644.300	15.802	0.099
644.400	19.938	0.099
644.500	18.662	0.099
644.600	23.913	0.099
644.700	25.539	0.099
644.800	27.826	0.099
644.900	19.307	0.099
645.000	24.964	0.099
645.100	29.663	0.099
645.200	18.643	0.099
645.300	18.965	0.099
645.400	17.918	0.099
645.500	24.837	0.099
645.600	23.404	0.099
645.700	6.868	0.099
645.800	34.585	0.099
645.900	29.643	0.099
646.000	25.243	0.099
646.100	15.932	0.099
646.200	20.725	0.099
646.300	24.944	0.099
646.400	27.901	0.099
646.500	15.974	0.099
646.600	22.464	0.099
646.700	27.904	0.099
646.800	12.402	0.099
646.900	27.573	0.099
647.000	23.337	0.099
647.100	11.582	0.099
647.200	21.610	0.099
647.300	23.961	0.099
647.400	23.549	0.099
647.500	13.328	0.099
647.600	19.775	0.099
647.700	29.430	0.099
647.800	18.623	0.099
647.900	19.209	0.099
648.000	17.350	0.099
648.100	13.081	0.099
648.200	28.414	0.099
648.300	24.060	0.099
648.400	15.202	0.099
648.500	32.908	0.099
648.600	33.486	0.099
648.700	20.419	0.099
648.800	43.269	0.099
648.900	30.764	0.099
649.000	23.554	0.099
649.100	35.650	0.099
649.200	15.251	0.099
649.300	27.601	0.099
649.400	30.062	0.099
649.500	12.582	0.099
649.600	26.108	0.099
649.700	34.103	0.099
649.800	10.157	0.099
649.900	30.171	0.099
650.000	21.891	0.099
650.100	29.325	0.099
650.200	21.500	0.099
650.300	20.141	0.099
650.400	31.697	0.099
650.500	16.366	0.099
650.600	30.547	0.099
650.700	13.310	0.099
650.800	32.092	0.099
650.900	28.368	0.099
651.000	27.007	0.099
651.100	25.807	0.099
651.200	19.844	0.099
651.300	21.704	0.099
651.400	23.549	0.099
651.500	30.444	0.099
651.600	30.658	0.099
651.700	36.069	0.099
651.800	28.744	0.099
651.900	23.026	0.099
652.000	35.571	0.099
652.100	8.161	0.099
652.200	33.348	0.099
652.300	27.455	0.099
652.400	29.992	0.099
652.500	31.252	0.099
652.600	42.438	0.099
652.700	7.943	0.099
652.800	26.347	0.099
652.900	34.262	0.099
653.000	16.254	0.099
653.100	26.392	0.099
653.200	28.341	0.099
653.300	29.722	0.099
653.400	34.686	0.099
653.500	22.454	0.099
653.600	24.618	0.099
653.700	24.270	0.099
653.800	10.619	0.099
653.900	37.425	0.099
654.000	21.524	0.099
654.100	18.449	0.099
654.200	28.025	0.099
654.300	28.587	0.099
654.400	28.707	0.099
654.500	29.465	0.099
654.600	24.922	0.099
654.700	21.069	0.099
654.800	13.363	0.099
654.900	34.679	0.099
655.000	19.294	0.099
655.100	33.186	0.099
655.200	24.587	0.099
655.300	24.497	0.099
655.400	23.943	0.099
655.500	33.850	0.099
655.600	17.022	0.099
655.700	21.026	0.099
655.800	27.555	0.099
655.900	40.042	0.099
656.000	21.051	0.099
656.100	15.206	0.099
656.200	28.673	0.099
656.300	33.300	0.099
656.400	26.267	0.099
656.500	20.411	0.099
656.600	28.123	0.099
656.700	26.191	0.099
656.800	29.370	0.099
656.900	26.689	0.099
657.000	26.720	0.099
657.100	23.897	0.099
657.200	24.513	0.099
657.300	18.017	0.099
657.400	24.485	0.099
657.500	17.928	0.099
657.600	32.693	0.099
657.700	26.818	0.099
657.800	21.213	0.099
657.900	21.349	0.099
658.000	31.126	0.099
658.100	24.549	0.099
658.200	7.658	0.099
658.300	20.727	0.099
658.400	25.879	0.099
658.500	19.304	0.099
658.600	23.487	0.099
658.700	22.129	0.099
658.800	25.206	0.099
658.900	20.760	0.099
659.000	16.940	0.099
659.100	32.662	0.099
659.200	1.912	0.099
659.300	17.925	0.099
659.400	13.815	0.099
659.500	25.677	0.099
659.600	15.577	0.099
659.700	33.326	0.099
659.800	21.241	0.099
659.900	3.906	0.099
660.000	32.210	0.099
660.100	35.348	0.099
660.200	25.061	0.099
660.300	34.364	0.099
660.400	35.688	0.099
660.500	1.787	0.099
660.600	12.924	0.099
660.700	22.105	0.099
660.800	26.980	0.099
660.900	37.607	0.099
661.000	24.680	0.099
661.100	34.555	0.099
661.200	19.429	0.099
661.300	4.547	0.099
661.400	15.799	0.099
661.500	13.717	0.099
661.600	21.798	0.099
661.700	10.743	0.099
661.800	16.205	0.099
661.900	41.103	0.099
662.000	10.599	0.099
662.100	22.261	0.099
662.200	30.476	0.099
662.300	11.892	0.099
662.400	26.527	0.099
662.500	13.595	0.099
662.600	19.350	0.099
662.700	19.509	0.099
662.800	14.578	0.099
662.900	22.767	0.099
663.000	28.173	0.099
663.100	16.787	0.099
663.200	26.092	0.099
663.300	6.745	0.099
663.400	35.028	0.099
663.500	10.444	0.099
663.600	17.469	0.099
663.700	30.518	0.099
663.800	8.450	0.099
663.900	15.231	0.099
664.000	8.966	0.099
664.100	16.250	0.099
664.200	27.356	0.099
664.300	20.019	0.099
664.400	16.959	0.099
664.500	15.461	0.099
664.600	29.539	0.099
664.700	20.068	0.099
664.800	25.385	0.099
664.900	24.838	0.099
665.000	20.988	0.099
665.100	13.882	0.099
665.200	4.973	0.099
665.300	25.272	0.099
665.400	7.873	0.099
665.500	22.702	0.099
665.600	30.972	0.099
665.700	14.056	0.099
665.800	25.057	0.099
665.900	34.187	0.099
666.000	35.124	0.099
666.100	17.402	0.099
666.200	16.604	0.099
666.300	7.490	0.099
666.400	24.710	0.099
666.500	16.132	0.099
666.600	11.442	0.099
666.700	14.905	0.099
666.800	3.997	0.099
666.900	8.729	0.099
667.000	24.809	0.099
667.100	1.313	0.099
667.200	27.014	0.099
667.300	10.879	0.099
667.400	15.971	0.099
667.500	29.171	0.099
667.600	37.731	0.099
667.700	16.737	0.099
667.800	31.776	0.099
667.900	30.847	0.099
668.000	22.706	0.099
668.100	26.217	0.099
668.200	20.955	0.099
668.300	9.699	0.099
668.400	25.464	0.099
668.500	17.376	0.099
668.600	27.154	0.099
668.700	17.561	0.099
668.800	12.236	0.099
668.900	27.424	0.099
669.000	16.132	0.099
669.100	20.588	0.099
669.200	26.569	0.099
669.300	4.374	0.099
669.400	29.376	0.099
669.500	21.045	0.099
669.600	27.592	0.099
669.700	20.554	0.099
669.800	23.752	0.099
669.900	-0.053	0.099
670.000	20.271	0.099
670.100	18.945	0.099
670.200	18.542	0.099
670.300	31.595	0.099
670.400	3.156	0.099
670.500	33.988	0.099
670.600	16.863	0.099
670.700	26.325	0.099
670.800	14.552	0.099
670.900	10.411	0.099
671.000	15.443	0.099
671.100	13.375	0.099
671.200	20.941	0.099
671.300	35.029	0.099
671.400	24.580	0.099
671.500	7.460	0.099
671.600	9.259	0.099
671.700	10.484	0.099
671.800	17.492	0.099
671.900	21.677	0.099
672.000	28.672	0.099
672.100	14.541	0.099
672.200	26.938	0.099
672.300	15.791	0.099
672.400	25.114	0.099
672.500	30.290	0.099
672.600	8.617	0.099
672.700	10.564	0.099
672.800	12.333	0.099
672.900	26.960	0.099
673.000	5.703	0.099
673.100	0.336	0.099
673.200	28.529	0.099
673.300	31.645	0.099
673.400	21.726	0.099
673.500	10.151	0.099
673.600	14.724	0.099
673.700	16.651	0.099
673.800	20.979	0.099
673.900	37.086	0.099
674.000	13.909	0.099
674.100	28.768	0.099
674.200	15.622	0.099
674.300	25.772	0.099
674.400	0.146	0.099
674.500	22.094	0.099
674.600	24.624	0.099
674.700	29.857	0.099
674.800	14.335	0.099
674.900	11.550	0.099
675.000	26.449	0.099
675.100	29.611	0.099
675.200	13.289	0.099
675.300	16.703	0.099
675.400	17.359	0.099
675.500	28.103	0.099
675.600	30.660	0.099
675.700	18.009	0.099
675.800	12.888	0.099
675.900	7.544	0.099
676.000	11.643	0.099
676.100	17.603	0.099
676.200	32.693	0.099
676.300	27.278	0.099
676.400	26.327	0.099
676.500	19.258	0.099
676.600	6.601	0.099
676.700	26.019	0.099
676.800	23.401	0.099
676.900	9.119	0.099
677.000	21.840	0.099
677.100	20.060	0.099
677.200	15.685	0.099
677.300	28.466	0.099
677.400	18.583	0.099
677.500	11.249	0.099
677.600	25.111	0.099
677.700	20.055	0.099
677.800	29.980	0.099
677.900	21.187	0.099
678.000	23.540	0.099
678.100	24.967	0.099
678.200	18.993	0.099
678.300	12.789	0.099
678.400	18.096	0.099
678.500	24.601	0.099
678.600	25.045	0.099
678.700	21.702	0.099
678.800	20.064	0.099
678.900	34.061	0.099
679.000	14.447	0.099
679.100	27.024	0.099
679.200	19.207	0.099
679.300	40.101	0.099
679.400	23.374	0.099
679.500	30.041	0.099
679.600	16.000	0.099
679.700	13.426	0.099
679.800	12.848	0.099
679.900	27.827	0.099
680.000	12.601	0.099
680.100	23.796	0.099
680.200	20.018	0.099
680.300	35.903	0.099
680.400	20.926	0.099
680.500	22.910	0.099
680.600	19.999	0.099
680.700	19.925	0.099
680.800	15.698	0.099
680.900	15.024	0.099
681.000	26.743	0.099
681.100	7.539	0.099
681.200	31.842	0.099
681.300	13.984	0.099
681.400	22.967	0.099
681.500	26.390	0.099
681.600	21.294	0.099
681.700	14.498	0.099
681.800	28.687	0.099
681.900	18.482	0.099
682.000	27.265	0.099
682.100	28.148	0.099
682.200	29.467	0.099
682.300	14.022	0.099
682.400	30.218	0.099
682.500	25.258	0.099
682.600	16.201	0.099
682.700	16.254	0.099
682.800	20.321	0.099
682.900	17.998	0.099
683.000	27.501	0.099
683.100	8.272	0.099
683.200	13.216	0.099
683.300	25.346	0.099
683.400	16.897	0.099
683.500	24.072	0.099
683.600	11.801	0.099
683.700	23.616	0.099
683.800	7.233	0.099
683.900	10.419	0.099
684.000	21.729	0.099
684.100	23.334	0.099
684.200	29.591	0.099
684.300	9.920	0.099
684.400	31.396	0.099
684.500	26.187	0.099
684.600	26.263	0.099
684.700	22.431	0.099
684.800	11.536	0.099
684.900	17.050	0.099
685.000	12.382	0.099
685.100	26.497	0.099
685.200	13.344	0.099
685.300	11.902	0.099
685.400	18.164	0.099
685.500	18.989	0.099
685.600	31.455	0.099
685.700	29.488	0.099
685.800	16.223	0.099
685.900	24.328	0.099
686.000	17.618	0.099
686.100	11.943	0.099
686.200	18.930	0.099
686.300	11.269	0.099
686.400	24.866	0.099
686.500	25.716	0.099
686.600	20.236	0.099
686.700	19.311	0.099
686.800	14.932	0.099
686.900	9.317	0.099
687.000	24.996	0.099
687.100	21.256	0.099
687.200	16.790	0.099
687.300	19.126	0.099
687.400	21.782	0.099
687.500	21.655	0.099
687.600	12.934	0.099
687.700	24.965	0.099
687.800	21.521	0.099
687.900	21.472	0.099
688.000	30.504	0.099
688.100	21.294	0.099
688.200	11.136	0.099
688.300	17.469	0.099
688.400	22.176	0.099
688.500	8.060	0.099
688.600	25.172	0.099
688.700	29.670	0.099
688.800	13.132	0.099
688.900	10.075	0.099
689.000	27.040	0.099
689.100	13.132	0.099
689.200	34.857	0.099
689.300	24.778	0.099
689.400	17.374	0.099
689.500	12.142	0.099
689.600	35.702	0.099
689.700	9.343	0.099
689.800	13.756	0.099
689.900	1.446	0.099
690.000	8.182	0.099
690.100	21.256	0.099
690.200	10.820	0.099
690.300	-1.848	0.099
690.400	-5.098	0.099
690.500	-8.601	0.099
690.600	-4.916	0.099
690.700	2.027	0.099
690.800	-3.829	0.099
690.900	-16.508	0.099
691.000	-15.298	0.099
691.100	-25.684	0.099
691.200	-19.192	0.099
691.300	-28.491	0.099
691.400	-26.169	0.099
691.500	-29.299	0.099
691.600	-38.123	0.099
691.700	-25.736	0.099
691.800	-24.248	0.099
691.900	-35.570	0.099
692.000	-39.862	0.099
692.100	-26.137	0.099
692.200	-36.736	0.099
692.300	-29.886	0.099
692.400	-26.211	0.099
692.500	-32.248	0.099
692.600	-40.365	0.099
692.700	-45.450	0.099
692.800	-38.756	0.099
692.900	-39.587	0.099
693.000	-32.102	0.099
693.100	-50.349	0.099
693.200	-24.485	0.099
693.300	-36.047	0.099
693.400	-26.839	0.099
693.500	-49.367	0.099
693.600	-47.513	0.099
693.700	-54.342	0.099
693.800	-34.356	0.099
693.900	-45.901	0.099
694.000	-27.590	0.099
694.100	-32.203	0.099
694.200	-28.854	0.099
694.300	-14.498	0.099
694.400	-35.426	0.099
694.500	-38.223	0.099
694.600	-25.793	0.099
694.700	-28.427	0.099
694.800	-27.842	0.099
694.900	-30.715	0.099
695.000	-22.961	0.099
695.100	-26.136	0.099
695.200	-14.159	0.099
695.300	-26.081	0.099
695.400	-33.042	0.099
695.500	-35.653	0.099
695.600	-21.359	0.099
695.700	-40.748	0.099
695.800	-23.772	0.099
695.900	-27.440	0.099
696.000	-39.731	0.099
696.100	-23.881	0.099
696.200	-19.814	0.099
696.300	-28.097	0.099
696.400	-36.921	0.099
696.500	-30.940	0.099
696.600	-23.945	0.099
696.700	-21.379	0.099
696.800	-15.647	0.099
696.900	-20.294	0.099
697.000	-30.362	0.099
697.100	-18.600	0.099
697.200	-22.547	0.099
697.300	-22.241	0.099
697.400	-22.576	0.099
697.500	-27.079	0.099
697.600	-13.292	0.099
697.700	-10.338	0.099
697.800	-24.010	0.099
697.900	-13.673	0.099
698.000	-20.925	0.099
698.100	-21.767	0.099
698.200	-18.922	0.099
698.300	-16.470	0.099
698.400	-17.018	0.099
698.500	-19.054	0.099
698.600	-23.648	0.099
698.700	-3.728	0.099
698.800	-17.805	0.099
698.900	-14.602	0.099
699.000	-21.381	0.099
699.100	-20.303	0.099
699.200	-10.375	0.099
699.300	-0.994	0.099
699.400	-16.998	0.099
699.500	-19.247	0.099
699.600	-2.466	0.099
699.700	-9.511	0.099
699.800	-17.607	0.099
699.900	-4.645	0.099
700.000	-10.609	0.099
700.100	-18.028	0.099
700.200	-18.605	0.099
700.300	-13.185	0.099
700.400	0.081	0.099
700.500	-14.357	0.099
700.600	-1.418	0.099
700.700	-20.350	0.099
700.800	-23.029	0.099
700.900	-14.002	0.099
701.000	-4.426	0.099
701.100	-18.983	0.099
701.200	-17.487	0.099
701.300	-24.730	0.099
701.400	-8.321	0.099
701.500	-7.229	0.099
701.600	-14.685	0.099
701.700	-3.774	0.099
701.800	-8.593	0.099
701.900	-14.516	0.099
702.000	-15.612	0.099
702.100	-23.584	0.099
702.200	-10.675	0.099
702.300	-18.829	0.099
702.400	-0.145	0.099
702.500	-20.055	0.099
702.600	1.880	0.099
702.700	-17.579	0.099
702.800	-19.901	0.099
702.900	-19.879	0.099
703.000	-6.585	0.099
703.100	-6.423	0.099
703.200	-12.827	0.099
703.300	-32.253	0.099
703.400	-9.850	0.099
703.500	-28.944	0.099
703.600	-27.729	0.099
703.700	-13.373	0.099
703.800	-10.262	0.099
703.900	-17.781	0.099
704.000	4.953	0.099
704.100	-20.621	0.099
704.200	-0.875	0.099
704.300	-8.108	0.099
704.400	-8.708	0.099
704.500	-9.973	0.099
704.600	-24.445	0.099
704.700	-18.566	0.099
704.800	-10.971	0.099
704.900	-14.401	0.099
705.000	-18.280	0.099
705.100	-2.676	0.099
705.200	-17.999	0.099
705.300	-12.831	0.099
705.400	-3.365	0.099
705.500	-14.288	0.099
705.600	-7.355	0.099
705.700	-25.054	0.099
705.800	1.584	0.099
705.900	-17.517	0.099
706.000	-12.253	0.099
706.100	-12.952	0.099
706.200	-16.496	0.099
706.300	-19.059	0.099
706.400	1.745	0.099
706.500	-10.515	0.099
706.600	-39.250	0.099
706.700	-8.743	0.099
706.800	-9.390	0.099
706.900	-21.798	0.099
707.000	-15.462	0.099
707.100	-5.699	0.099
707.200	-31.937	0.099
707.300	-22.596	0.099
707.400	-14.894	0.099
707.500	-6.854	0.099
707.600	-18.668	0.099
707.700	-10.056	0.099
707.800	-19.808	0.099
707.900	-24.963	0.099
708.000	-13.840	0.099
708.100	-13.426	0.099
708.200	-21.277	0.099
708.300	-14.473	0.099
708.400	-23.861	0.099
708.500	-23.797	0.099
708.600	-9.271	0.099
708.700	-7.294	0.099
708.800	-21.314	0.099
708.900	-15.282	0.099
709.000	-10.794	0.099
709.100	0.785	0.099
709.200	-31.738	0.099
709.300	-27.369	0.099
709.400	-17.314	0.099
709.500	-13.308	0.099
709.600	-27.312	0.099
709.700	-6.149	0.099
709.800	-17.913	0.099
709.900	-16.436	0.099
710.000	-2.161	0.099
710.100	-38.546	0.099
710.200	-22.032	0.099
710.300	-29.260	0.099
710.400	-10.170	0.099
710.500	-8.019	0.099
710.600	-20.603	0.099
710.700	-11.168	0.099
710.800	-6.931	0.099
710.900	-21.615	0.099
711.000	-8.774	0.099
711.100	-18.972	0.099
711.200	-22.191	0.099
711.300	-17.332	0.099
711.400	-9.826	0.099
711.500	-14.581	0.099
711.600	-11.838	0.099
711.700	-34.331	0.099
711.800	-24.731	0.099
711.900	-8.890	0.099
712.000	-11.811	0.099
712.100	-13.639	0.099
712.200	-7.469	0.099
712.300	2.594	0.099
712.400	-16.392	0.099
712.500	-23.502	0.099
712.600	-8.097	0.099
712.700	-18.923	0.099
712.800	-3.824	0.099
712.900	-10.901	0.099
713.000	-6.610	0.099
713.100	1.792	0.099
713.200	-5.308	0.099
713.300	-5.440	0.099
713.400	-10.008	0.099
713.500	-0.737	0.099
713.600	-13.630	0.099
713.700	-11.116	0.099
713.800	-4.781	0.099
713.900	-13.739	0.099
714.000	-20.565	0.099
714.100	-27.649	0.099
714.200	-16.713	0.099
714.300	-12.824	0.099
714.400	-8.658	0.099
714.500	-1.430	0.099
714.600	-21.206	0.099
714.700	-9.635	0.099
714.800	-11.133	0.099
714.900	-24.681	0.099
715.000	-9.294	0.099
715.100	-4.236	0.099
715.200	-18.508	0.099
715.300	-18.002	0.099
715.400	-12.976	0.099
715.500	-21.791	0.099
715.600	-6.249	0.099
715.700	-15.447	0.099
715.800	-12.424	0.099
715.900	-22.155	0.099
716.000	-39.735	0.099
716.100	-14.408	0.099
716.200	-9.123	0.099
716.300	-8.654	0.099
716.400	-13.175	0.099
716.500	-17.173	0.099
716.600	2.383	0.099
716.700	-1.738	0.099
716.800	-13.863	0.099
716.900	-11.406	0.099
717.000	-10.499	0.099
717.100	-12.796	0.099
717.200	-16.543	0.099
717.300	-22.451	0.099
717.400	-15.407	0.099
717.500	-11.784	0.099
717.600	-15.100	0.099
717.700	-21.152	0.099
717.800	-26.725	0.099
717.900	-18.650	0.099
718.000	-5.437	0.099
718.100	-15.192	0.099
718.200	-3.283	0.099
718.300	-18.560	0.099
718.400	-24.809	0.099
718.500	-8.924	0.099
718.600	-23.918	0.099
718.700	-30.450	0.099
718.800	-11.378	0.099
718.900	-8.056	0.099
719.000	-14.006	0.099
719.100	-12.652	0.099
719.200	-18.312	0.099
719.300	-20.575	0.099
719.400	-27.425	0.099
719.500	0.379	0.099
719.600	-9.930	0.099
719.700	-10.479	0.099
719.800	-17.865	0.099
719.900	-27.154	0.099
720.000	-14.431	0.099
720.100	-18.100	0.099
720.200	-15.947	0.099
720.300	-8.619	0.099
720.400	-12.236	0.099
720.500	-24.188	0.099
720.600	-14.379	0.099
720.700	-11.559	0.099
720.800	-17.274	0.099
720.900	-11.087	0.099
721.000	-6.779	0.099
721.100	-12.279	0.099
721.200	-6.837	0.099
721.300	-17.879	0.099
721.400	-3.070	0.099
721.500	-20.272	0.099
721.600	-14.506	0.099
721.700	-11.521	0.099
721.800	-12.787	0.099
721.900	0.342	0.099
722.000	-16.903	0.099
722.100	-19.685	0.099
722.200	-28.910	0.099
722.300	-12.090	0.099
722.400	-10.425	0.099
722.500	-8.448	0.099
722.600	-7.526	0.099
722.700	-1.145	0.099
722.800	-17.853	0.099
722.900	-5.727	0.099
723.000	-10.494	0.099
723.100	13.139	0.099
723.200	-11.696	0.099
723.300	-7.706	0.099
723.400	-16.732	0.099
723.500	-1.867	0.099
723.600	-7.815	0.099
723.700	-18.378	0.099
723.800	-15.496	0.099
723.900	-18.100	0.099
724.000	-24.014	0.099
724.100	-7.796	0.099
724.200	-19.565	0.099
724.300	-19.463	0.099
724.400	-4.480	0.099
724.500	-4.060	0.099
724.600	-13.275	0.099
724.700	-16.786	0.099
724.800	-15.994	0.099
724.900	-5.437	0.099
725.000	-2.386	0.099
725.100	-1.801	0.099
725.200	-9.592	0.099
725.300	-12.574	0.099
725.400	-17.014	0.099
725.500	-9.281	0.099
725.600	-12.755	0.099
725.700	-18.836	0.099
725.800	-21.688	0.099
725.900	-14.036	0.099
726.000	-10.755	0.099
726.100	-6.623	0.099
726.200	-25.232	0.099
726.300	-14.108	0.099
726.400	-24.125	0.099
726.500	-5.884	0.099
726.600	-20.085	0.099
726.700	-15.647	0.099
726.800	-14.127	0.099
726.900	-17.767	0.099
727.000	-5.149	0.099
727.100	-8.425	0.099
727.200	10.029	0.099
727.300	0.146	0.099
727.400	-1.664	0.099
727.500	-16.111	0.099
727.600	-9.058	0.099
727.700	-24.454	0.099
727.800	-7.488	0.099
727.900	-5.958	0.099
728.000	-5.914	0.099
728.100	-13.541	0.099
728.200	-19.552	0.099
728.300	-13.878	0.099
728.400	-11.731	0.099
728.500	-13.416	0.099
728.600	-0.685	0.099
728.700	-24.714	0.099
728.800	-9.951	0.099
728.900	-11.610	0.099
729.000	-6.651	0.099
729.100	-19.909	0.099
729.200	-6.930	0.099
729.300	-1.436	0.099
729.400	-18.072	0.099
729.500	-5.518	0.099
729.600	-23.962	0.099
729.700	-3.643	0.099
729.800	-5.888	0.099
729.900	-21.432	0.099
730.000	-16.583	0.099
730.100	-15.385	0.099
730.200	-0.740	0.099
730.300	-11.898	0.099
730.400	-10.686	0.099
730.500	-19.006	0.099
730.600	-8.473	0.099
730.700	-13.397	0.099
730.800	-6.663	0.099
730.900	-15.221	0.099
731.000	-15.867	0.099
731.100	-30.833	0.099
731.200	-13.582	0.099
731.300	-14.220	0.099
731.400	-10.424	0.099
731.500	-12.657	0.099
731.600	-3.054	0.099
731.700	-14.849	0.099
731.800	-9.492	0.099
731.900	-18.830	0.099
732.000	-27.758	0.099
732.100	-5.992	0.099
732.200	-24.490	0.099
732.300	-6.689	0.099
732.400	-9.797	0.099
732.500	-10.930	0.099
732.600	1.329	0.099
732.700	-19.512	0.099
732.800	-10.230	0.099
732.900	-9.778	0.099
733.000	-7.473	0.099
733.100	1.454	0.099
733.200	-12.435	0.099
733.300	-20.625	0.099
733.400	-12.356	0.099
733.500	-21.713	0.099
733.600	-12.097	0.099
733.700	-11.050	0.099
733.800	-13.455	0.099
733.900	-2.602	0.099
734.000	-9.832	0.099
734.100	-4.181	0.099
734.200	-27.587	0.099
734.300	-17.329	0.099
734.400	-4.502	0.099
734.500	-15.187	0.099
734.600	-13.042	0.099
734.700	-4.788	0.099
734.800	-22.121	0.099
734.900	3.119	0.099
735.000	-17.512	0.099
735.100	-15.045	0.099
735.200	-11.243	0.099
735.300	-12.374	0.099
735.400	-7.304	0.099
735.500	-16.500	0.099
735.600	-10.553	0.099
735.700	-6.797	0.099
735.800	12.900	0.099
735.900	-7.919	0.099
736.000	-1.209	0.099
736.100	-17.248	0.099
736.200	-24.335	0.099
736.300	-1.961	0.099
736.400	-13.741	0.099
736.500	-10.379	0.099
736.600	-14.727	0.099
736.700	-4.653	0.099
736.800	-10.694	0.099
736.900	-10.581	0.099
737.000	8.356	0.099
737.100	6.881	0.099
737.200	-12.695	0.099
737.300	-10.604	0.099
737.400	-8.379	0.099
737.500	-6.792	0.099
737.600	-13.501	0.099
737.700	-2.326	0.099
737.800	-11.023	0.099
737.900	-6.086	0.099
738.000	-8.692	0.099
738.100	-8.674	0.099
738.200	-10.164	0.099
738.300	-13.627	0.099
738.400	0.619	0.099
738.500	-24.063	0.099
738.600	-19.175	0.099
738.700	-2.624	0.099
738.800	5.222	0.099
738.900	-10.313	0.099
739.000	-11.754	0.099
739.100	-7.586	0.099
739.200	-1.131	0.099
739.300	-5.187	0.099
739.400	-19.205	0.099
739.500	-8.819	0.099
739.600	-13.993	0.099
739.700	-6.211	0.099
739.800	-20.195	0.099
739.900	-11.603	0.099
740.000	-12.415	0.099
740.100	-17.235	0.099
740.200	-15.469	0.099
740.300	-8.097	0.099
740.400	-8.319	0.099
740.500	-17.194	0.099
740.600	0.747	0.099
740.700	-6.433	0.099
740.800	-13.760	0.099
740.900	-12.703	0.099
741.000	-6.580	0.099
741.100	-22.789	0.099
741.200	-3.489	0.099
741.300	-8.487	0.099
741.400	-7.585	0.099
741.500	-10.859	0.099
741.600	-5.115	0.099
741.700	-14.450	0.099
741.800	-15.142	0.099
741.900	-0.112	0.099
742.000	-13.567	0.099
742.100	-14.283	0.099
742.200	-14.099	0.099
742.300	0.105	0.099
742.400	-13.321	0.099
742.500	-8.858	0.099
742.600	-10.534	0.099
742.700	-15.793	0.099
742.800	-15.910	0.099
742.900	-12.390	0.099
743.000	-7.664	0.099
743.100	-9.268	0.099
743.200	-9.434	0.099
743.300	-9.806	0.099
743.400	-10.519	0.099
743.500	-5.329	0.099
743.600	-1.466	0.099
743.700	0.380	0.099
743.800	5.666	0.099
743.900	-21.378	0.099
744.000	-12.387	0.099
744.100	-5.614	0.099
744.200	-11.485	0.099
744.300	-13.815	0.099
744.400	-13.629	0.099
744.500	-9.526	0.099
744.600	-9.035	0.099
744.700	5.543	0.099
744.800	4.089	0.099
744.900	-19.009	0.099
745.000	3.122	0.099
745.100	-25.387	0.099
745.200	-9.072	0.099
745.300	6.835	0.099
745.400	-2.271	0.099
745.500	-10.852	0.099
745.600	-5.706	0.099
745.700	-3.998	0.099
745.800	-4.493	0.099
745.900	-16.822	0.099
746.000	-0.445	0.099
746.100	-7.061	0.099
746.200	-11.953	0.099
746.300	-16.026	0.099
746.400	10.199	0.099
746.500	-24.300	0.099
746.600	-2.565	0.099
746.700	-4.289	0.099
746.800	-11.492	0.099
746.900	-3.841	0.099
747.000	7.332	0.099
747.100	-8.334	0.099
747.200	-1.209	0.099
747.300	-8.557	0.099
747.400	-12.017	0.099
747.500	-22.230	0.099
747.600	0.595	0.099
747.700	-11.352	0.099
747.800	-3.109	0.099
747.900	-18.442	0.099
748.000	-7.801	0.099
748.100	-15.492	0.099
748.200	-5.437	0.099
748.300	-10.720	0.099
748.400	-15.695	0.099
748.500	5.625	0.099
748.600	-34.561	0.099
748.700	-11.689	0.099
748.800	-5.435	0.099
748.900	-25.004	0.099
749.000	-14.155	0.099
749.100	-4.943	0.099
749.200	-2.452	0.099
749.300	-9.021	0.099
749.400	-9.712	0.099
749.500	-5.029	0.099
749.600	-3.356	0.099
749.700	-8.767	0.099
749.800	-0.087	0.099
749.900	-2.583	0.099
750.000	4.257	0.099
750.100	0.545	0.099
750.200	-5.763	0.099
750.300	4.124	0.099
750.400	-12.914	0.099
750.500	-7.022	0.099
750.600	0.299	0.099
750.700	-0.728	0.099
750.800	-15.430	0.099
750.900	2.044	0.099
751.000	-1.658	0.099
751.100	-11.335	0.099
751.200	-16.780	0.099
751.300	-2.757	0.099
751.400	-7.765	0.099
751.500	-3.929	0.099
751.600	-0.959	0.099
751.700	-7.143	0.099
751.800	-15.494	0.099
751.900	-13.510	0.099
752.000	-9.919	0.099
752.100	-2.072	0.099
752.200	16.739	0.099
752.300	5.557	0.099
752.400	-6.185	0.099
752.500	-10.307	0.099
752.600	-5.792	0.099
752.700	-16.567	0.099
752.800	-5.758	0.099
752.900	-22.085	0.099
753.000	13.303	0.099
753.100	-2.043	0.099
753.200	-5.217	0.099
753.300	-24.966	0.099
753.400	-10.766	0.099
753.500	-20.871	0.099
753.600	-2.976	0.099
753.700	-8.301	0.099
753.800	3.121	0.099
753.900	-15.847	0.099
754.000	-13.022	0.099
754.100	-5.834	0.099
754.200	1.954	0.099
754.300	-5.554	0.099
754.400	-11.012	0.099
754.500	-4.242	0.099
754.600	-0.046	0.099
754.700	-0.877	0.099
754.800	-2.190	0.099
754.900	-18.068	0.099
755.000	-9.251	0.099
755.100	0.627	0.099
755.200	5.383	0.099
755.300	-5.740	0.099
755.400	-6.847	0.099
755.500	-16.118	0.099
755.600	-11.246	0.099
755.700	-24.879	0.099
755.800	6.033	0.099
755.900	-10.912	0.099
756.000	-15.842	0.099
756.100	-16.038	0.099
756.200	5.028	0.099
756.300	-2.328	0.099
756.400	-4.547	0.099
756.500	-8.249	0.099
756.600	-6.713	0.099
756.700	-11.211	0.099
756.800	-9.485	0.099
756.900	-6.210	0.099
757.000	-2.693	0.099
757.100	0.922	0.099
757.200	-11.405	0.099
757.300	-12.256	0.099
757.400	-6.676	0.099
757.500	-10.248	0.099
757.600	-1.842	0.099
757.700	-13.172	0.099
757.800	-0.768	0.099
757.900	-2.023	0.099
758.000	-1.433	0.099
758.100	3.701	0.099
758.200	-17.445	0.099
758.300	-6.027	0.099
758.400	-13.367	0.099
758.500	-14.873	0.099
758.600	-3.408	0.099
758.700	-7.931	0.099
758.800	-7.104	0.099
758.900	-7.777	0.099
759.000	-2.861	0.099
759.100	6.543	0.099
759.200	-8.634	0.099
759.300	-9.678	0.099
759.400	-21.937	0.099
759.500	-5.402	0.099
759.600	-6.561	0.099
759.700	-17.127	0.099
759.800	-2.804	0.099
759.900	-4.079	0.099
760.000	-8.018	0.099
760.100	-14.649	0.099
760.200	-1.622	0.099
760.300	-5.826	0.099
760.400	-12.837	0.099
760.500	-2.759	0.099
760.600	-6.216	0.099
760.700	-9.203	0.099
760.800	-7.916	0.099
760.900	-3.665	0.099
761.000	-14.814	0.099
761.100	-16.006	0.099
761.200	-8.479	0.099
761.300	-5.631	0.099
761.400	4.679	0.099
761.500	-7.852	0.099
761.600	-15.443	0.099
761.700	-2.489	0.099
761.800	-1.200	0.099
761.900	-11.066	0.099
762.000	-10.673	0.099
762.100	-13.817	0.099
762.200	2.140	0.099
762.300	-12.685	0.099
762.400	-5.129	0.099
762.500	-7.369	0.099
762.600	-8.189	0.099
762.700	-5.383	0.099
762.800	-4.289	0.099
762.900	-5.748	0.099
763.000	4.770	0.099
763.100	-3.152	0.099
763.200	14.822	0.099
763.300	-7.756	0.099
763.400	4.260	0.099
763.500	-1.466	0.099
763.600	-13.753	0.099
763.700	-5.683	0.099
763.800	-12.913	0.099
763.900	6.102	0.099
764.000	-1.640	0.099
764.100	-9.318	0.099
764.200	-11.835	0.099
764.300	1.958	0.099
764.400	-3.829	0.099
764.500	-7.896	0.099
764.600	-7.722	0.099
764.700	-20.853	0.099
764.800	-3.059	0.099
764.900	-1.287	0.099
765.000	3.247	0.099
765.100	-6.295	0.099
765.200	4.658	0.099
765.300	-17.461	0.099
765.400	-5.799	0.099
765.500	-1.511	0.099
765.600	-5.981	0.099
765.700	-2.359	0.099
765.800	-11.738	0.099
765.900	-16.054	0.099
766.000	-3.802	0.099
766.100	-2.489	0.099
766.200	9.031	0.099
766.300	-9.553	0.099
766.400	17.161	0.099
766.500	-0.680	0.099
766.600	-11.941	0.099
766.700	-7.347	0.099
766.800	-24.141	0.099
766.900	9.844	0.099
767.000	-16.039	0.099
767.100	-8.252	0.099
767.200	-17.221	0.099
767.300	1.569	0.099
767.400	-6.938	0.099
767.500	-10.629	0.099
767.600	6.154	0.099
767.700	-1.032	0.099
767.800	-11.493	0.099
767.900	-17.977	0.099
768.000	-1.554	0.099
768.100	-4.487	0.099
768.200	0.549	0.099
768.300	9.547	0.099
768.400	-1.964	0.099
768.500	-19.023	0.099
768.600	-9.788	0.099
768.700	-11.742	0.099
768.800	-5.326	0.099
768.900	-8.650	0.099
769.000	-9.692	0.099
769.100	7.871	0.099
769.200	-11.311	0.099
769.300	-13.990	0.099
769.400	-9.907	0.099
769.500	-5.643	0.099
769.600	-9.881	0.099
769.700	1.889	0.099
769.800	3.730	0.099
769.900	-5.990	0.099
770.000	0.620	0.099
770.100	9.328	0.099
770.200	-16.175	0.099
770.300	-4.602	0.099
770.400	3.498	0.099
770.500	-4.144	0.099
770.600	-8.042	0.099
770.700	-6.809	0.099
770.800	-6.356	0.099
770.900	-5.744	0.099
771.000	-7.687	0.099
771.100	-2.276	0.099
771.200	-7.414	0.099
771.300	-9.235	0.099
771.400	1.888	0.099
771.500	-10.600	0.099
771.600	10.844	0.099
771.700	-13.917	0.099
771.800	-4.455	0.099
771.900	-4.946	0.099
772.000	4.578	0.099
772.100	-9.974	0.099
772.200	-7.646	0.099
772.300	1.200	0.099
772.400	-8.336	0.099
772.500	-10.733	0.099
772.600	-12.192	0.099
772.700	-10.187	0.099
772.800	1.975	0.099
772.900	-0.708	0.099
773.000	-4.086	0.099
773.100	-2.714	0.099
773.200	-16.213	0.099
773.300	1.533	0.099
773.400	-7.741	0.099
773.500	-2.254	0.099
773.600	-9.132	0.099
773.700	-7.554	0.099
773.800	1.975	0.099
773.900	-6.399	0.099
774.000	-1.911	0.099
774.100	0.994	0.099
774.200	-3.876	0.099
774.300	-12.408	0.099
774.400	0.219	0.099
774.500	-12.547	0.099
774.600	-2.292	0.099
774.700	-15.474	0.099
774.800	-4.761	0.099
774.900	-20.338	0.099
775.000	1.120	0.099
775.100	-6.899	0.099
775.200	4.485	0.099
775.300	0.192	0.099
775.400	3.419	0.099
775.500	-1.469	0.099
775.600	-6.785	0.099
775.700	-11.933	0.099
775.800	-13.714	0.099
775.900	-7.361	0.099
776.000	-11.807	0.099
776.100	-20.391	0.099
776.200	-4.551	0.099
776.300	-4.601	0.099
776.400	10.854	0.099
776.500	-5.392	0.099
776.600	-5.980	0.099
776.700	-12.651	0.099
776.800	-3.951	0.099
776.900	-0.836	0.099
777.000	-6.724	0.099
777.100	4.674	0.099
777.200	-15.403	0.099
777.300	-4.913	0.099
777.400	-15.257	0.099
777.500	4.975	0.099
777.600	-6.283	0.099
777.700	1.672	0.099
777.800	1.463	0.099
777.900	-5.674	0.099
778.000	10.186	0.099
778.100	-8.926	0.099
778.200	-10.560	0.099
778.300	-1.608	0.099
778.400	-2.160	0.099
778.500	-6.923	0.099
778.600	-0.842	0.099
778.700	-8.989	0.099
778.800	0.732	0.099
778.900	-2.331	0.099
779.000	-4.225	0.099
779.100	1.679	0.099
779.200	-0.078	0.099
779.300	-17.434	0.099
779.400	-11.121	0.099
779.500	-8.478	0.099
779.600	-13.233	0.099
779.700	-11.498	0.099
779.800	4.139	0.099
779.900	-0.617	0.099
780.000	13.733	0.099
780.100	7.905	0.099
780.200	-1.650	0.099
780.300	17.702	0.099
780.400	6.746	0.099
780.500	16.917	0.099
780.600	25.765	0.099
780.700	32.339	0.099
780.800	21.581	0.099
780.900	43.912	0.099
781.000	29.043	0.099
781.100	17.813	0.099
781.200	22.827	0.099
781.300	43.788	0.099
781.400	42.966	0.099
781.500	20.133	0.099
781.600	28.303	0.099
781.700	31.212	0.099
781.800	22.997	0.099
781.900	36.511	0.099
782.000	24.896	0.099
782.100	28.963	0.099
782.200	22.417	0.099
782.300	28.598	0.099
782.400	35.931	0.099
782.500	21.319	0.099
782.600	31.590	0.099
782.700	31.864	0.099
782.800	28.568	0.099
782.900	17.279	0.099
783.000	25.332	0.099
783.100	21.073	0.099
783.200	29.462	0.099
783.300	29.529	0.099
783.400	35.134	0.099
783.500	35.168	0.099
783.600	10.449	0.099
783.700	20.808	0.099
783.800	33.783	0.099
783.900	19.488	0.099
784.000	14.338	0.099
784.100	24.962	0.099
784.200	5.336	0.099
784.300	18.036	0.099
784.400	23.882	0.099
784.500	17.305	0.099
784.600	23.081	0.099
784.700	23.122	0.099
784.800	23.472	0.099
784.900	29.954	0.099
785.000	15.275	0.099
785.100	24.832	0.099
785.200	15.011	0.099
785.300	14.496	0.099
785.400	23.159	0.099
785.500	21.514	0.099
785.600	10.996	0.099
785.700	14.397	0.099
785.800	11.641	0.099
785.900	17.870	0.099
786.000	26.255	0.099
786.100	24.941	0.099
786.200	12.959	0.099
786.300	14.216	0.099
786.400	28.749	0.099
786.500	11.146	0.099
786.600	23.166	0.099
786.700	21.085	0.099
786.800	16.674	0.099
786.900	15.777	0.099
787.000	22.733	0.099
787.100	9.488	0.099
787.200	26.685	0.099
787.300	19.127	0.099
787.400	29.356	0.099
787.500	26.136	0.099
787.600	25.070	0.099
787.700	30.785	0.099
787.800	2.816	0.099
787.900	26.963	0.099
788.000	28.966	0.099
788.100	15.650	0.099
788.200	23.445	0.099
788.300	11.333	0.099
788.400	17.488	0.099
788.500	4.130	0.099
788.600	8.462	0.099
788.700	21.108	0.099
788.800	16.841	0.099
788.900	10.902	0.099
789.000	21.453	0.099
789.100	16.636	0.099
789.200	23.870	0.099
789.300	18.781	0.099
789.400	1.999	0.099
789.500	28.336	0.099
789.600	23.879	0.099
789.700	26.021	0.099
789.800	-1.782	0.099
789.900	22.383	0.099
790.000	26.094	0.099
790.100	23.431	0.099
790.200	9.447	0.099
790.300	17.542	0.099
790.400	24.218	0.099
790.500	39.267	0.099
790.600	16.747	0.099
790.700	16.873	0.099
790.800	18.722	0.099
790.900	29.995	0.099
791.000	22.429	0.099
791.100	31.651	0.099
791.200	31.070	0.099
791.300	17.648	0.099
791.400	23.486	0.099
791.500	19.161	0.099
791.600	9.326	0.099
791.700	35.730	0.099
791.800	15.324	0.099
791.900	2.887	0.099
792.000	20.275	0.099
792.100	9.929	0.099
792.200	14.299	0.099
792.300	12.872	0.099
792.400	9.720	0.099
792.500	20.146	0.099
792.600	7.584	0.099
792.700	27.508	0.099
792.800	14.862	0.099
792.900	18.377	0.099
793.000	22.259	0.099
793.100	17.771	0.099
793.200	31.349	0.099
793.300	18.961	0.099
793.400	13.046	0.099
793.500	24.130	0.099
793.600	34.519	0.099
793.700	23.594	0.099
793.800	35.121	0.099
793.900	20.565	0.099
794.000	22.397	0.099
794.100	16.932	0.099
794.200	19.165	0.099
794.300	14.218	0.099
794.400	31.087	0.099
794.500	20.566	0.099
794.600	26.748	0.099
794.700	22.482	0.099
794.800	29.718	0.099
794.900	9.543	0.099
795.000	26.239	0.099
795.100	27.600	0.099
795.200	30.008	0.099
795.300	29.791	0.099
795.400	11.520	0.099
795.500	17.885	0.099
795.600	11.282	0.099
795.700	22.629	0.099
795.800	22.320	0.099
795.900	26.951	0.099
796.000	14.290	0.099
796.100	21.822	0.099
796.200	-3.294	0.099
796.300	15.824	0.099
796.400	24.399	0.099
796.500	17.736	0.099
796.600	23.500	0.099
796.700	23.073	0.099
796.800	17.725	0.099
796.900	25.055	0.099
797.000	23.200	0.099
797.100	25.661	0.099
797.200	27.033	0.099
797.300	32.491	0.099
797.400	21.583	0.099
797.500	22.541	0.099
797.600	31.194	0.099
797.700	16.920	0.099
797.800	21.137	0.099
797.900	35.362	0.099
798.000	29.997	0.099
798.100	21.261	0.099
798.200	41.341	0.099
798.300	23.022	0.099
798.400	32.315	0.099
798.500	28.091	0.099
798.600	28.288	0.099
798.700	15.719	0.099
798.800	34.736	0.099
798.900	26.762	0.099
799.000	35.726	0.099
799.100	19.135	0.099
799.200	28.704	0.099
799.300	33.875	0.099
799.400	26.775	0.099
799.500	9.803	0.099
799.600	24.056	0.099
799.700	17.071	0.099
799.800	13.748	0.099
799.900	27.370	0.099
800.000	30.225	0.099
