time /s	I /nA	E /V
0.100	-0.549	0.099
0.200	4.299	0.099
0.300	5.088	0.099
0.400	-11.685	0.099
0.500	-10.205	0.099
0.600	2.386	0.099
0.700	-3.762	0.099
0.800	-0.835	0.099
0.900	0.329	0.099
1.000	-4.431	0.099
1.100	-19.684	0.099
1.200	2.954	0.099
1.300	8.579	0.099
1.400	-6.122	0.099
1.500	6.735	0.099
1.600	-2.935	0.099
1.700	-8.826	0.099
1.800	-0.829	0.099
1.900	-17.346	0.099
2.000	0.033	0.099
2.100	-15.563	0.099
2.200	0.276	0.099
2.300	-5.740	0.099
2.400	-14.724	0.099
2.500	-2.826	0.099
2.600	4.136	0.099
2.700	0.924	0.099
2.800	-0.967	0.099
2.900	0.602	0.099
3.000	-2.183	0.099
3.100	-5.350	0.099
3.200	-6.405	0.099
3.300	11.978	0.099
3.400	-8.262	0.099
3.500	-15.590	0.099
3.600	0.895	0.099
3.700	3.857	0.099
3.800	-10.939	0.099
3.900	0.574	0.099
4.000	-13.687	0.099
4.100	-5.340	0.099
4.200	4.465	0.099
4.300	0.089	0.099
4.400	-5.328	0.099
4.500	-9.842	0.099
4.600	-0.472	0.099
4.700	-0.077	0.099
4.800	0.050	0.099
4.900	2.230	0.099
5.000	-4.433	0.099
5.100	-15.071	0.099
5.200	-4.548	0.099
5.300	4.670	0.099
5.400	1.405	0.099
5.500	-12.194	0.099
5.600	-2.331	0.099
5.700	1.861	0.099
5.800	6.923	0.099
5.900	3.909	0.099
6.000	2.957	0.099
6.100	-5.555	0.099
6.200	3.635	0.099
6.300	-3.958	0.099
6.400	13.248	0.099
6.500	-0.560	0.099
6.600	-5.066	0.099
6.700	-7.876	0.099
6.800	-12.858	0.099
6.900	12.171	0.099
7.000	11.814	0.099
7.100	-9.786	0.099
7.200	-15.669	0.099
7.300	-2.362	0.099
7.400	-14.208	0.099
7.500	-5.861	0.099
7.600	12.501	0.099
7.700	6.928	0.099
7.800	8.136	0.099
7.900	-2.963	0.099
8.000	3.124	0.099
8.100	-10.967	0.099
8.200	9.833	0.099
8.300	-3.815	0.099
8.400	-0.904	0.099
8.500	-2.511	0.099
8.600	1.599	0.099
8.700	17.399	0.099
8.800	-5.346	0.099
8.900	7.338	0.099
9.000	11.624	0.099
9.100	7.739	0.099
9.200	6.913	0.099
9.300	9.986	0.099
9.400	0.155	0.099
9.500	-4.554	0.099
9.600	-3.418	0.099
9.700	-3.952	0.099
9.800	2.784	0.099
9.900	-9.096	0.099
10.000	8.589	0.099
10.100	-0.541	0.099
10.200	-10.203	0.099
10.300	-14.684	0.099
10.400	-3.911	0.099
10.500	3.327	0.099
10.600	-1.502	0.099
10.700	-3.685	0.099
10.800	-4.202	0.099
10.900	-12.943	0.099
11.000	5.136	0.099
11.100	-5.393	0.099
11.200	-9.006	0.099
11.300	6.375	0.099
11.400	7.647	0.099
11.500	-2.534	0.099
11.600	-4.968	0.099
11.700	-5.180	0.099
11.800	6.192	0.099
11.900	-4.631	0.099
12.000	-1.746	0.099
12.100	-5.869	0.099
12.200	-6.232	0.099
12.300	9.207	0.099
12.400	-3.142	0.099
12.500	6.847	0.099
12.600	-10.596	0.099
12.700	-13.544	0.099
12.800	-5.743	0.099
12.900	-8.674	0.099
13.000	7.192	0.099
13.100	8.204	0.099
13.200	-3.968	0.099
13.300	12.094	0.099
13.400	-4.171	0.099
13.500	3.554	0.099
13.600	1.891	0.099
13.700	-0.328	0.099
13.800	-0.046	0.099
13.900	14.380	0.099
14.000	-0.993	0.099
14.100	-4.315	0.099
14.200	-5.985	0.099
14.300	-6.828	0.099
14.400	-3.648	0.099
14.500	-13.039	0.099
14.600	6.241	0.099
14.700	3.134	0.099
14.800	-13.749	0.099
14.900	6.152	0.099
15.000	5.560	0.099
15.100	-2.463	0.099
15.200	-3.441	0.099
15.300	0.120	0.099
15.400	2.886	0.099
15.500	-11.147	0.099
15.600	-10.554	0.099
15.700	-1.350	0.099
15.800	-4.508	0.099
15.900	0.961	0.099
16.000	1.430	0.099
16.100	-15.019	0.099
16.200	-5.941	0.099
16.300	2.950	0.099
16.400	7.158	0.099
16.500	7.383	0.099
16.600	12.896	0.099
16.700	-7.389	0.099
16.800	6.848	0.099
16.900	-10.546	0.099
17.000	8.077	0.099
17.100	-17.658	0.099
17.200	7.835	0.099
17.300	3.208	0.099
17.400	-11.478	0.099
17.500	1.610	0.099
17.600	-6.821	0.099
17.700	-25.023	0.099
17.800	1.850	0.099
17.900	7.947	0.099
18.000	-1.860	0.099
18.100	9.133	0.099
18.200	4.872	0.099
18.300	4.323	0.099
18.400	2.014	0.099
18.500	-10.877	0.099
18.600	6.779	0.099
18.700	-10.296	0.099
18.800	-2.269	0.099
18.900	2.689	0.099
19.000	-5.338	0.099
19.100	-3.652	0.099
19.200	-3.828	0.099
19.300	-15.642	0.099
19.400	-4.847	0.099
19.500	-9.363	0.099
19.600	-10.893	0.099
19.700	12.679	0.099
19.800	-2.864	0.099
19.900	1.613	0.099
20.000	-1.009	0.099
20.100	-1.522	0.099
20.200	-22.241	0.099
20.300	-4.076	0.099
20.400	-3.615	0.099
20.500	-10.718	0.099
20.600	-1.096	0.099
20.700	4.529	0.099
20.800	-3.982	0.099
20.900	-0.751	0.099
21.000	-15.710	0.099
21.100	4.654	0.099
21.200	6.105	0.099
21.300	3.187	0.099
21.400	2.158	0.099
21.500	-8.901	0.099
21.600	-9.940	0.099
21.700	-9.238	0.099
21.800	7.742	0.099
21.900	5.237	0.099
22.000	-2.115	0.099
22.100	-0.743	0.099
22.200	-0.847	0.099
22.300	11.016	0.099
22.400	-4.983	0.099
22.500	4.853	0.099
22.600	-0.312	0.099
22.700	-1.565	0.099
22.800	-12.213	0.099
22.900	6.162	0.099
23.000	-8.481	0.099
23.100	-12.632	0.099
23.200	-1.643	0.099
23.300	-5.868	0.099
23.400	4.672	0.099
23.500	-5.956	0.099
23.600	-18.336	0.099
23.700	1.344	0.099
23.800	4.591	0.099
23.900	-8.226	0.099
24.000	-4.838	0.099
24.100	5.238	0.099
24.200	5.839	0.099
24.300	-8.198	0.099
24.400	5.877	0.099
24.500	-9.389	0.099
24.600	3.597	0.099
24.700	-9.103	0.099
24.800	5.205	0.099
24.900	0.636	0.099
25.000	-9.128	0.099
25.100	0.859	0.099
25.200	-0.639	0.099
25.300	-7.218	0.099
25.400	-8.579	0.099
25.500	-4.757	0.099
25.600	-2.778	0.099
25.700	-5.421	0.099
25.800	-12.097	0.099
25.900	-7.058	0.099
26.000	7.500	0.099
26.100	-9.159	0.099
26.200	-5.212	0.099
26.300	-10.110	0.099
26.400	-6.618	0.099
26.500	-4.936	0.099
26.600	-5.051	0.099
26.700	-10.069	0.099
26.800	-6.935	0.099
26.900	-2.267	0.099
27.000	-0.550	0.099
27.100	2.519	0.099
27.200	-8.276	0.099
27.300	-9.831	0.099
27.400	7.684	0.099
27.500	-20.498	0.099
27.600	21.595	0.099
27.700	0.032	0.099
27.800	-9.516	0.099
27.900	-24.085	0.099
28.000	0.364	0.099
28.100	0.575	0.099
28.200	1.289	0.099
28.300	-8.210	0.099
28.400	-4.035	0.099
28.500	1.996	0.099
28.600	-4.310	0.099
28.700	0.863	0.099
28.800	-14.140	0.099
28.900	-3.882	0.099
29.000	2.055	0.099
29.100	2.354	0.099
29.200	4.537	0.099
29.300	-8.859	0.099
29.400	-3.868	0.099
29.500	-10.859	0.099
29.600	-8.118	0.099
29.700	3.836	0.099
29.800	0.534	0.099
29.900	2.243	0.099
30.000	15.380	0.099
30.100	5.817	0.099
30.200	8.433	0.099
30.300	3.722	0.099
30.400	9.025	0.099
30.500	20.574	0.099
30.600	28.918	0.099
30.700	17.261	0.099
30.800	28.532	0.099
30.900	24.534	0.099
31.000	23.118	0.099
31.100	23.055	0.099
31.200	21.228	0.099
31.300	26.930	0.099
31.400	27.525	0.099
31.500	30.871	0.099
31.600	14.922	0.099
31.700	33.164	0.099
31.800	30.642	0.099
31.900	36.994	0.099
32.000	23.733	0.099
32.100	24.034	0.099
32.200	15.595	0.099
32.300	33.314	0.099
32.400	38.421	0.099
32.500	18.200	0.099
32.600	35.450	0.099
32.700	31.860	0.099
32.800	21.771	0.099
32.900	25.101	0.099
33.000	27.685	0.099
33.100	28.456	0.099
33.200	17.937	0.099
33.300	23.621	0.099
33.400	22.607	0.099
33.500	25.855	0.099
33.600	27.039	0.099
33.700	23.933	0.099
33.800	21.290	0.099
33.900	17.743	0.099
34.000	11.951	0.099
34.100	16.989	0.099
34.200	23.183	0.099
34.300	23.981	0.099
34.400	20.709	0.099
34.500	14.329	0.099
34.600	16.141	0.099
34.700	10.624	0.099
34.800	9.467	0.099
34.900	20.229	0.099
35.000	2.488	0.099
35.100	28.511	0.099
35.200	18.499	0.099
35.300	-1.503	0.099
35.400	17.372	0.099
35.500	11.513	0.099
35.600	14.737	0.099
35.700	13.939	0.099
35.800	11.334	0.099
35.900	3.690	0.099
36.000	16.452	0.099
36.100	22.340	0.099
36.200	19.647	0.099
36.300	7.506	0.099
36.400	6.396	0.099
36.500	17.047	0.099
36.600	-3.964	0.099
36.700	13.375	0.099
36.800	14.172	0.099
36.900	8.882	0.099
37.000	20.290	0.099
37.100	5.592	0.099
37.200	24.856	0.099
37.300	17.868	0.099
37.400	7.885	0.099
37.500	10.727	0.099
37.600	4.180	0.099
37.700	10.168	0.099
37.800	8.825	0.099
37.900	13.751	0.099
38.000	11.665	0.099
38.100	16.851	0.099
38.200	19.749	0.099
38.300	25.572	0.099
38.400	10.521	0.099
38.500	9.220	0.099
38.600	16.095	0.099
38.700	18.744	0.099
38.800	16.618	0.099
38.900	3.287	0.099
39.000	8.305	0.099
39.100	5.987	0.099
39.200	21.299	0.099
39.300	5.558	0.099
39.400	-3.826	0.099
39.500	6.442	0.099
39.600	16.529	0.099
39.700	4.360	0.099
39.800	17.029	0.099
39.900	13.992	0.099
40.000	8.759	0.099
40.100	8.095	0.099
40.200	8.037	0.099
40.300	12.961	0.099
40.400	10.122	0.099
40.500	-2.881	0.099
40.600	19.150	0.099
40.700	19.008	0.099
40.800	-2.298	0.099
40.900	22.330	0.099
41.000	17.105	0.099
41.100	2.429	0.099
41.200	18.946	0.099
41.300	13.096	0.099
41.400	-0.117	0.099
41.500	11.796	0.099
41.600	15.999	0.099
41.700	10.261	0.099
41.800	10.794	0.099
41.900	16.023	0.099
42.000	10.015	0.099
42.100	20.075	0.099
42.200	20.957	0.099
42.300	3.470	0.099
42.400	5.999	0.099
42.500	15.111	0.099
42.600	12.923	0.099
42.700	2.653	0.099
42.800	18.813	0.099
42.900	20.202	0.099
43.000	14.376	0.099
43.100	8.430	0.099
43.200	21.824	0.099
43.300	22.246	0.099
43.400	14.254	0.099
43.500	11.856	0.099
43.600	15.434	0.099
43.700	7.695	0.099
43.800	25.131	0.099
43.900	-0.118	0.099
44.000	14.438	0.099
44.100	7.228	0.099
44.200	13.784	0.099
44.300	15.744	0.099
44.400	12.488	0.099
44.500	14.368	0.099
44.600	16.754	0.099
44.700	5.299	0.099
44.800	5.414	0.099
44.900	19.122	0.099
45.000	24.061	0.099
45.100	11.150	0.099
45.200	20.316	0.099
45.300	19.789	0.099
45.400	10.874	0.099
45.500	17.970	0.099
45.600	12.734	0.099
45.700	34.905	0.099
45.800	20.456	0.099
45.900	3.326	0.099
46.000	12.592	0.099
46.100	17.485	0.099
46.200	18.724	0.099
46.300	28.352	0.099
46.400	12.198	0.099
46.500	7.171	0.099
46.600	23.216	0.099
46.700	16.475	0.099
46.800	20.415	0.099
46.900	28.497	0.099
47.000	24.393	0.099
47.100	13.717	0.099
47.200	3.225	0.099
47.300	16.091	0.099
47.400	-6.634	0.099
47.500	13.795	0.099
47.600	23.709	0.099
47.700	3.453	0.099
47.800	2.456	0.099
47.900	19.048	0.099
48.000	22.874	0.099
48.100	14.136	0.099
48.200	11.714	0.099
48.300	22.971	0.099
48.400	34.695	0.099
48.500	16.973	0.099
48.600	25.656	0.099
48.700	20.256	0.099
48.800	2.604	0.099
48.900	18.357	0.099
49.000	9.887	0.099
49.100	8.873	0.099
49.200	16.527	0.099
49.300	21.781	0.099
49.400	12.258	0.099
49.500	11.835	0.099
49.600	11.009	0.099
49.700	13.572	0.099
49.800	9.303	0.099
49.900	6.523	0.099
50.000	18.590	0.099
50.100	10.531	0.099
50.200	17.714	0.099
50.300	13.390	0.099
50.400	13.727	0.099
50.500	22.789	0.099
50.600	12.372	0.099
50.700	18.160	0.099
50.800	16.456	0.099
50.900	14.617	0.099
51.000	18.900	0.099
51.100	23.929	0.099
51.200	8.976	0.099
51.300	19.559	0.099
51.400	23.741	0.099
51.500	20.904	0.099
51.600	20.671	0.099
51.700	20.994	0.099
51.800	11.747	0.099
51.900	19.314	0.099
52.000	13.625	0.099
52.100	23.809	0.099
52.200	23.782	0.099
52.300	10.573	0.099
52.400	21.602	0.099
52.500	30.214	0.099
52.600	25.527	0.099
52.700	16.016	0.099
52.800	20.186	0.099
52.900	19.030	0.099
53.000	26.514	0.099
53.100	11.773	0.099
53.200	14.953	0.099
53.300	21.078	0.099
53.400	9.989	0.099
53.500	10.359	0.099
53.600	20.005	0.099
53.700	18.211	0.099
53.800	13.699	0.099
53.900	13.718	0.099
54.000	18.092	0.099
54.100	15.330	0.099
54.200	25.871	0.099
54.300	18.720	0.099
54.400	22.396	0.099
54.500	15.822	0.099
54.600	30.531	0.099
54.700	14.368	0.099
54.800	22.852	0.099
54.900	9.708	0.099
55.000	19.260	0.099
55.100	27.655	0.099
55.200	18.295	0.099
55.300	12.814	0.099
55.400	11.792	0.099
55.500	27.005	0.099
55.600	17.060	0.099
55.700	5.244	0.099
55.800	12.539	0.099
55.900	14.856	0.099
56.000	15.412	0.099
56.100	23.607	0.099
56.200	26.450	0.099
56.300	21.549	0.099
56.400	13.862	0.099
56.500	24.474	0.099
56.600	34.616	0.099
56.700	22.916	0.099
56.800	14.620	0.099
56.900	14.632	0.099
57.000	12.871	0.099
57.100	14.941	0.099
57.200	25.530	0.099
57.300	19.464	0.099
57.400	10.009	0.099
57.500	27.447	0.099
57.600	18.187	0.099
57.700	21.090	0.099
57.800	19.982	0.099
57.900	19.327	0.099
58.000	10.393	0.099
58.100	23.115	0.099
58.200	25.675	0.099
58.300	20.196	0.099
58.400	16.040	0.099
58.500	13.901	0.099
58.600	12.837	0.099
58.700	10.796	0.099
58.800	-1.969	0.099
58.900	20.320	0.099
59.000	30.805	0.099
59.100	16.510	0.099
59.200	7.951	0.099
59.300	31.347	0.099
59.400	3.136	0.099
59.500	29.371	0.099
59.600	7.772	0.099
59.700	13.835	0.099
59.800	15.826	0.099
59.900	29.681	0.099
60.000	12.534	0.099
60.100	30.218	0.099
60.200	17.336	0.099
60.300	8.418	0.099
60.400	33.467	0.099
60.500	10.902	0.099
60.600	26.073	0.099
60.700	13.124	0.099
60.800	29.202	0.099
60.900	18.643	0.099
61.000	30.446	0.099
61.100	19.042	0.099
61.200	18.133	0.099
61.300	32.178	0.099
61.400	20.384	0.099
61.500	11.583	0.099
61.600	-0.298	0.099
61.700	19.151	0.099
61.800	22.592	0.099
61.900	15.845	0.099
62.000	14.807	0.099
62.100	22.636	0.099
62.200	14.635	0.099
62.300	26.592	0.099
62.400	15.023	0.099
62.500	20.961	0.099
62.600	18.836	0.099
62.700	9.504	0.099
62.800	27.039	0.099
62.900	6.214	0.099
63.000	16.723	0.099
63.100	1.869	0.099
63.200	12.731	0.099
63.300	33.651	0.099
63.400	14.679	0.099
63.500	4.742	0.099
63.600	8.825	0.099
63.700	18.082	0.099
63.800	26.320	0.099
63.900	21.763	0.099
64.000	22.910	0.099
64.100	27.027	0.099
64.200	1.727	0.099
64.300	10.696	0.099
64.400	21.488	0.099
64.500	26.471	0.099
64.600	21.496	0.099
64.700	20.574	0.099
64.800	14.207	0.099
64.900	19.345	0.099
65.000	7.990	0.099
65.100	9.607	0.099
65.200	14.890	0.099
65.300	18.522	0.099
65.400	21.001	0.099
65.500	3.145	0.099
65.600	10.612	0.099
65.700	26.188	0.099
65.800	13.009	0.099
65.900	16.626	0.099
66.000	22.836	0.099
66.100	25.127	0.099
66.200	1.232	0.099
66.300	21.374	0.099
66.400	22.458	0.099
66.500	16.336	0.099
66.600	13.668	0.099
66.700	23.082	0.099
66.800	18.593	0.099
66.900	25.171	0.099
67.000	20.706	0.099
67.100	15.372	0.099
67.200	22.268	0.099
67.300	24.867	0.099
67.400	19.277	0.099
67.500	32.364	0.099
67.600	15.188	0.099
67.700	9.432	0.099
67.800	8.113	0.099
67.900	15.362	0.099
68.000	14.439	0.099
68.100	15.126	0.099
68.200	19.457	0.099
68.300	17.528	0.099
68.400	13.363	0.099
68.500	7.286	0.099
68.600	31.122	0.099
68.700	23.176	0.099
68.800	10.237	0.099
68.900	17.897	0.099
69.000	17.460	0.099
69.100	16.039	0.099
69.200	10.905	0.099
69.300	17.864	0.099
69.400	30.068	0.099
69.500	23.866	0.099
69.600	7.488	0.099
69.700	22.334	0.099
69.800	9.417	0.099
69.900	1.073	0.099
70.000	15.207	0.099
70.100	18.127	0.099
70.200	14.825	0.099
70.300	21.010	0.099
70.400	32.742	0.099
70.500	19.808	0.099
70.600	23.347	0.099
70.700	1.460	0.099
70.800	13.193	0.099
70.900	18.994	0.099
71.000	22.749	0.099
71.100	33.278	0.099
71.200	18.272	0.099
71.300	19.587	0.099
71.400	32.419	0.099
71.500	24.429	0.099
71.600	12.891	0.099
71.700	23.445	0.099
71.800	29.721	0.099
71.900	26.826	0.099
72.000	16.877	0.099
72.100	29.676	0.099
72.200	18.859	0.099
72.300	23.377	0.099
72.400	16.448	0.099
72.500	17.485	0.099
72.600	8.754	0.099
72.700	13.938	0.099
72.800	12.723	0.099
72.900	12.555	0.099
73.000	16.631	0.099
73.100	34.093	0.099
73.200	11.053	0.099
73.300	24.350	0.099
73.400	13.380	0.099
73.500	2.163	0.099
73.600	16.437	0.099
73.700	13.457	0.099
73.800	8.570	0.099
73.900	16.491	0.099
74.000	4.285	0.099
74.100	30.969	0.099
74.200	11.985	0.099
74.300	11.812	0.099
74.400	28.624	0.099
74.500	10.592	0.099
74.600	4.144	0.099
74.700	27.054	0.099
74.800	11.179	0.099
74.900	22.572	0.099
75.000	17.743	0.099
75.100	23.230	0.099
75.200	26.003	0.099
75.300	13.318	0.099
75.400	22.862	0.099
75.500	27.614	0.099
75.600	9.293	0.099
75.700	20.042	0.099
75.800	8.829	0.099
75.900	22.234	0.099
76.000	5.933	0.099
76.100	17.514	0.099
76.200	21.291	0.099
76.300	27.428	0.099
76.400	2.621	0.099
76.500	15.142	0.099
76.600	19.972	0.099
76.700	20.283	0.099
76.800	29.798	0.099
76.900	24.989	0.099
77.000	22.138	0.099
77.100	29.055	0.099
77.200	27.658	0.099
77.300	6.398	0.099
77.400	17.485	0.099
77.500	15.778	0.099
77.600	0.594	0.099
77.700	19.822	0.099
77.800	18.050	0.099
77.900	16.974	0.099
78.000	16.413	0.099
78.100	20.972	0.099
78.200	18.066	0.099
78.300	13.795	0.099
78.400	18.675	0.099
78.500	17.442	0.099
78.600	13.754	0.099
78.700	25.894	0.099
78.800	26.251	0.099
78.900	16.715	0.099
79.000	18.153	0.099
79.100	16.901	0.099
79.200	28.117	0.099
79.300	11.027	0.099
79.400	6.996	0.099
79.500	12.245	0.099
79.600	19.559	0.099
79.700	19.417	0.099
79.800	16.931	0.099
79.900	16.888	0.099
80.000	18.423	0.099
80.100	10.996	0.099
80.200	20.391	0.099
80.300	23.602	0.099
80.400	17.129	0.099
80.500	11.000	0.099
80.600	23.328	0.099
80.700	12.368	0.099
80.800	21.532	0.099
80.900	1.492	0.099
81.000	13.151	0.099
81.100	18.325	0.099
81.200	31.180	0.099
81.300	16.321	0.099
81.400	14.865	0.099
81.500	31.688	0.099
81.600	22.056	0.099
81.700	18.355	0.099
81.800	13.759	0.099
81.900	6.602	0.099
82.000	25.823	0.099
82.100	17.630	0.099
82.200	21.879	0.099
82.300	6.099	0.099
82.400	14.740	0.099
82.500	18.193	0.099
82.600	23.325	0.099
82.700	17.901	0.099
82.800	9.043	0.099
82.900	20.325	0.099
83.000	27.498	0.099
83.100	16.428	0.099
83.200	23.471	0.099
83.300	11.225	0.099
83.400	6.906	0.099
83.500	17.149	0.099
83.600	16.006	0.099
83.700	24.565	0.099
83.800	14.301	0.099
83.900	11.923	0.099
84.000	21.337	0.099
84.100	12.829	0.099
84.200	21.939	0.099
84.300	19.094	0.099
84.400	13.920	0.099
84.500	15.062	0.099
84.600	23.883	0.099
84.700	19.054	0.099
84.800	5.693	0.099
84.900	21.998	0.099
85.000	12.230	0.099
85.100	17.229	0.099
85.200	26.450	0.099
85.300	10.718	0.099
85.400	8.870	0.099
85.500	16.377	0.099
85.600	27.508	0.099
85.700	21.711	0.099
85.800	18.813	0.099
85.900	7.950	0.099
86.000	19.534	0.099
86.100	14.206	0.099
86.200	19.415	0.099
86.300	26.828	0.099
86.400	26.948	0.099
86.500	6.179	0.099
86.600	18.867	0.099
86.700	15.095	0.099
86.800	18.965	0.099
86.900	22.404	0.099
87.000	28.953	0.099
87.100	7.109	0.099
87.200	32.352	0.099
87.300	15.448	0.099
87.400	15.050	0.099
87.500	11.321	0.099
87.600	-4.716	0.099
87.700	24.559	0.099
87.800	18.583	0.099
87.900	-3.152	0.099
88.000	26.557	0.099
88.100	23.559	0.099
88.200	5.381	0.099
88.300	10.907	0.099
88.400	13.038	0.099
88.500	22.421	0.099
88.600	-2.529	0.099
88.700	19.331	0.099
88.800	14.824	0.099
88.900	25.768	0.099
89.000	21.991	0.099
89.100	14.970	0.099
89.200	34.128	0.099
89.300	28.433	0.099
89.400	16.439	0.099
89.500	23.488	0.099
89.600	13.055	0.099
89.700	7.406	0.099
89.800	16.164	0.099
89.900	16.167	0.099
90.000	10.008	0.099
90.100	12.813	0.099
90.200	26.935	0.099
90.300	10.548	0.099
90.400	4.674	0.099
90.500	3.344	0.099
90.600	-2.874	0.099
90.700	5.326	0.099
90.800	8.014	0.099
90.900	1.891	0.099
91.000	11.819	0.099
91.100	3.260	0.099
91.200	-15.084	0.099
91.300	-18.709	0.099
91.400	1.192	0.099
91.500	-16.734	0.099
91.600	-12.696	0.099
91.700	-16.294	0.099
91.800	-5.576	0.099
91.900	-12.082	0.099
92.000	-10.772	0.099
92.100	-5.886	0.099
92.200	-19.236	0.099
92.300	-17.754	0.099
92.400	-19.917	0.099
92.500	-23.497	0.099
92.600	-31.858	0.099
92.700	-9.650	0.099
92.800	-20.938	0.099
92.900	-14.223	0.099
93.000	-16.635	0.099
93.100	-23.210	0.099
93.200	-7.302	0.099
93.300	-17.808	0.099
93.400	-24.623	0.099
93.500	-16.280	0.099
93.600	-20.642	0.099
93.700	-30.968	0.099
93.800	-20.531	0.099
93.900	-26.686	0.099
94.000	-31.311	0.099
94.100	-9.127	0.099
94.200	-20.635	0.099
94.300	-18.752	0.099
94.400	-21.647	0.099
94.500	-20.930	0.099
94.600	-30.997	0.099
94.700	-22.473	0.099
94.800	-2.569	0.099
94.900	-20.038	0.099
95.000	-26.081	0.099
95.100	-14.805	0.099
95.200	-16.451	0.099
95.300	-11.917	0.099
95.400	-10.500	0.099
95.500	-24.074	0.099
95.600	-8.407	0.099
95.700	-7.169	0.099
95.800	-16.136	0.099
95.900	-1.402	0.099
96.000	-18.437	0.099
96.100	-27.498	0.099
96.200	-7.952	0.099
96.300	-17.662	0.099
96.400	-10.083	0.099
96.500	2.332	0.099
96.600	-17.758	0.099
96.700	0.493	0.099
96.800	-22.919	0.099
96.900	-13.349	0.099
97.000	-22.280	0.099
97.100	-18.319	0.099
97.200	-19.048	0.099
97.300	-5.920	0.099
97.400	-23.654	0.099
97.500	-16.359	0.099
97.600	-14.441	0.099
97.700	-2.767	0.099
97.800	-6.771	0.099
97.900	-20.001	0.099
98.000	-13.077	0.099
98.100	-11.889	0.099
98.200	-14.967	0.099
98.300	-1.633	0.099
98.400	-0.292	0.099
98.500	-10.607	0.099
98.600	-24.091	0.099
98.700	-11.711	0.099
98.800	-9.361	0.099
98.900	-9.668	0.099
99.000	-9.820	0.099
99.100	-3.305	0.099
99.200	-6.191	0.099
99.300	-4.119	0.099
99.400	-14.753	0.099
99.500	-10.862	0.099
99.600	-6.985	0.099
99.700	-0.218	0.099
99.800	-6.636	0.099
99.900	-8.997	0.099
100.000	-0.048	0.099
100.100	-3.109	0.099
100.200	-13.878	0.099
100.300	4.110	0.099
100.400	4.133	0.099
100.500	3.592	0.099
100.600	-7.381	0.099
100.700	5.246	0.099
100.800	-12.151	0.099
100.900	-6.332	0.099
101.000	-2.726	0.099
101.100	-3.096	0.099
101.200	2.027	0.099
101.300	-7.984	0.099
101.400	9.799	0.099
101.500	-8.864	0.099
101.600	-7.716	0.099
101.700	-14.598	0.099
101.800	-3.953	0.099
101.900	-10.585	0.099
102.000	-22.510	0.099
102.100	0.867	0.099
102.200	-8.179	0.099
102.300	-6.935	0.099
102.400	1.363	0.099
102.500	-0.880	0.099
102.600	-15.924	0.099
102.700	-6.057	0.099
102.800	1.721	0.099
102.900	-25.424	0.099
103.000	-2.215	0.099
103.100	1.596	0.099
103.200	-20.050	0.099
103.300	-2.413	0.099
103.400	-15.114	0.099
103.500	-10.181	0.099
103.600	-4.845	0.099
103.700	-17.611	0.099
103.800	6.371	0.099
103.900	-4.055	0.099
104.000	9.886	0.099
104.100	-7.219	0.099
104.200	-1.493	0.099
104.300	-3.655	0.099
104.400	-16.916	0.099
104.500	9.950	0.099
104.600	3.266	0.099
104.700	-10.229	0.099
104.800	-7.651	0.099
104.900	-7.868	0.099
105.000	-6.904	0.099
105.100	-1.187	0.099
105.200	-22.890	0.099
105.300	-4.022	0.099
105.400	-8.258	0.099
105.500	-6.846	0.099
105.600	7.316	0.099
105.700	-11.798	0.099
105.800	-12.710	0.099
105.900	-2.495	0.099
106.000	-2.184	0.099
106.100	-1.308	0.099
106.200	-4.345	0.099
106.300	-4.457	0.099
106.400	-1.353	0.099
106.500	0.874	0.099
106.600	-10.346	0.099
106.700	-9.907	0.099
106.800	9.814	0.099
106.900	-3.377	0.099
107.000	-8.433	0.099
107.100	-6.271	0.099
107.200	-6.027	0.099
107.300	-9.315	0.099
107.400	-2.154	0.099
107.500	-10.176	0.099
107.600	8.124	0.099
107.700	-5.789	0.099
107.800	-6.890	0.099
107.900	-2.897	0.099
108.000	-7.792	0.099
108.100	1.243	0.099
108.200	-25.800	0.099
108.300	-8.617	0.099
108.400	-10.531	0.099
108.500	9.141	0.099
108.600	2.693	0.099
108.700	-8.630	0.099
108.800	-10.904	0.099
108.900	-1.009	0.099
109.000	-3.906	0.099
109.100	0.105	0.099
109.200	-18.777	0.099
109.300	-0.442	0.099
109.400	-5.376	0.099
109.500	-19.759	0.099
109.600	-8.867	0.099
109.700	-10.326	0.099
109.800	-5.108	0.099
109.900	0.390	0.099
110.000	7.068	0.099
110.100	-9.791	0.099
110.200	-3.701	0.099
110.300	-12.440	0.099
110.400	-3.002	0.099
110.500	-7.464	0.099
110.600	-10.407	0.099
110.700	-6.383	0.099
110.800	11.066	0.099
110.900	-14.478	0.099
111.000	-11.521	0.099
111.100	-5.431	0.099
111.200	4.101	0.099
111.300	-14.003	0.099
111.400	-15.255	0.099
111.500	6.305	0.099
111.600	1.996	0.099
111.700	-4.564	0.099
111.800	-10.621	0.099
111.900	-7.910	0.099
112.000	-0.449	0.099
112.100	-10.772	0.099
112.200	-8.386	0.099
112.300	-12.728	0.099
112.400	-3.349	0.099
112.500	-7.671	0.099
112.600	-12.901	0.099
112.700	6.855	0.099
112.800	-15.987	0.099
112.900	-16.826	0.099
113.000	-5.111	0.099
113.100	6.741	0.099
113.200	-12.161	0.099
113.300	-13.359	0.099
113.400	-22.240	0.099
113.500	-21.267	0.099
113.600	-3.085	0.099
113.700	-2.828	0.099
113.800	-14.514	0.099
113.900	-2.464	0.099
114.000	-4.826	0.099
114.100	-7.111	0.099
114.200	-1.237	0.099
114.300	1.917	0.099
114.400	-8.169	0.099
114.500	-11.603	0.099
114.600	6.388	0.099
114.700	-0.624	0.099
114.800	-10.178	0.099
114.900	-3.053	0.099
115.000	10.318	0.099
115.100	-2.023	0.099
115.200	-20.642	0.099
115.300	-6.337	0.099
115.400	-2.244	0.099
115.500	3.446	0.099
115.600	-7.905	0.099
115.700	-12.462	0.099
115.800	0.329	0.099
115.900	1.428	0.099
116.000	-8.148	0.099
116.100	-16.245	0.099
116.200	-8.405	0.099
116.300	-17.627	0.099
116.400	-0.879	0.099
116.500	-6.326	0.099
116.600	-13.183	0.099
116.700	-12.062	0.099
116.800	-17.982	0.099
116.900	-0.205	0.099
117.000	-1.279	0.099
117.100	-24.341	0.099
117.200	-12.620	0.099
117.300	-7.981	0.099
117.400	-7.168	0.099
117.500	-7.293	0.099
117.600	-5.094	0.099
117.700	-27.951	0.099
117.800	-1.262	0.099
117.900	-2.657	0.099
118.000	-7.973	0.099
118.100	-6.119	0.099
118.200	19.080	0.099
118.300	-8.514	0.099
118.400	-3.522	0.099
118.500	12.446	0.099
118.600	-18.094	0.099
118.700	-17.039	0.099
118.800	-11.944	0.099
118.900	-4.873	0.099
119.000	-14.032	0.099
119.100	-0.301	0.099
119.200	-21.296	0.099
119.300	-7.982	0.099
119.400	-7.223	0.099
119.500	-0.453	0.099
119.600	-16.803	0.099
119.700	0.203	0.099
119.800	-5.669	0.099
119.900	-3.750	0.099
120.000	-6.524	0.099
120.100	1.737	0.099
120.200	-15.435	0.099
120.300	2.542	0.099
120.400	-11.651	0.099
120.500	-8.942	0.099
120.600	-3.796	0.099
120.700	-4.102	0.099
120.800	-15.196	0.099
120.900	-8.310	0.099
121.000	-18.697	0.099
121.100	-2.174	0.099
121.200	-7.120	0.099
121.300	-2.282	0.099
121.400	-19.250	0.099
121.500	4.473	0.099
121.600	-3.377	0.099
121.700	-11.826	0.099
121.800	-6.609	0.099
121.900	-8.364	0.099
122.000	4.727	0.099
122.100	-6.743	0.099
122.200	7.302	0.099
122.300	-5.669	0.099
122.400	-8.144	0.099
122.500	1.336	0.099
122.600	-10.111	0.099
122.700	-8.228	0.099
122.800	-6.943	0.099
122.900	-0.999	0.099
123.000	-11.477	0.099
123.100	-3.851	0.099
123.200	-1.935	0.099
123.300	-15.542	0.099
123.400	-8.041	0.099
123.500	3.688	0.099
123.600	-4.831	0.099
123.700	-22.609	0.099
123.800	-13.587	0.099
123.900	-6.086	0.099
124.000	-0.796	0.099
124.100	-3.787	0.099
124.200	-23.810	0.099
124.300	-13.464	0.099
124.400	-10.888	0.099
124.500	-3.441	0.099
124.600	-4.004	0.099
124.700	-9.531	0.099
124.800	-9.889	0.099
124.900	-3.076	0.099
125.000	-11.182	0.099
125.100	-7.770	0.099
125.200	-15.603	0.099
125.300	-0.707	0.099
125.400	-3.732	0.099
125.500	1.177	0.099
125.600	-18.787	0.099
125.700	-15.640	0.099
125.800	-16.317	0.099
125.900	-0.864	0.099
126.000	11.307	0.099
126.100	-14.363	0.099
126.200	-16.639	0.099
126.300	-10.547	0.099
126.400	-13.245	0.099
126.500	-9.119	0.099
126.600	-14.034	0.099
126.700	0.963	0.099
126.800	1.904	0.099
126.900	9.123	0.099
127.000	-0.568	0.099
127.100	-8.265	0.099
127.200	-7.257	0.099
127.300	-2.949	0.099
127.400	2.890	0.099
127.500	-4.528	0.099
127.600	-2.611	0.099
127.700	-0.618	0.099
127.800	-9.542	0.099
127.900	-8.291	0.099
128.000	4.329	0.099
128.100	-6.164	0.099
128.200	-8.629	0.099
128.300	-6.198	0.099
128.400	-3.324	0.099
128.500	-14.657	0.099
128.600	-7.794	0.099
128.700	-4.275	0.099
128.800	-2.065	0.099
128.900	-2.185	0.099
129.000	-8.714	0.099
129.100	-4.170	0.099
129.200	-6.928	0.099
129.300	-17.358	0.099
129.400	-5.748	0.099
129.500	-7.840	0.099
129.600	-4.424	0.099
129.700	-11.940	0.099
129.800	2.102	0.099
129.900	-18.501	0.099
130.000	-15.282	0.099
130.100	-17.607	0.099
130.200	3.205	0.099
130.300	-3.637	0.099
130.400	-11.284	0.099
130.500	4.110	0.099
130.600	4.883	0.099
130.700	-15.370	0.099
130.800	-10.333	0.099
130.900	-5.682	0.099
131.000	5.254	0.099
131.100	-11.312	0.099
131.200	1.277	0.099
131.300	-16.078	0.099
131.400	-7.549	0.099
131.500	-2.534	0.099
131.600	-8.995	0.099
131.700	-1.487	0.099
131.800	-9.151	0.099
131.900	1.845	0.099
132.000	-18.290	0.099
132.100	-10.517	0.099
132.200	-4.609	0.099
132.300	-5.254	0.099
132.400	2.506	0.099
132.500	-5.959	0.099
132.600	-1.235	0.099
132.700	-5.002	0.099
132.800	-6.541	0.099
132.900	-5.348	0.099
133.000	-15.200	0.099
133.100	-16.079	0.099
133.200	-14.499	0.099
133.300	-1.788	0.099
133.400	-10.683	0.099
133.500	-4.389	0.099
133.600	2.099	0.099
133.700	-1.462	0.099
133.800	-12.722	0.099
133.900	-7.491	0.099
134.000	-10.790	0.099
134.100	-1.538	0.099
134.200	-13.586	0.099
134.300	0.852	0.099
134.400	-3.065	0.099
134.500	-17.376	0.099
134.600	3.216	0.099
134.700	-8.393	0.099
134.800	-3.536	0.099
134.900	-17.961	0.099
135.000	6.925	0.099
135.100	-3.718	0.099
135.200	-13.921	0.099
135.300	10.057	0.099
135.400	-11.034	0.099
135.500	-19.387	0.099
135.600	-10.306	0.099
135.700	5.442	0.099
135.800	-11.686	0.099
135.900	9.716	0.099
136.000	-11.370	0.099
136.100	-18.693	0.099
136.200	-3.409	0.099
136.300	-10.205	0.099
136.400	1.090	0.099
136.500	-12.322	0.099
136.600	-3.345	0.099
136.700	-11.951	0.099
136.800	-12.421	0.099
136.900	-5.795	0.099
137.000	-9.807	0.099
137.100	-15.410	0.099
137.200	-11.185	0.099
137.300	-10.203	0.099
137.400	-1.467	0.099
137.500	-2.531	0.099
137.600	-12.914	0.099
137.700	-6.362	0.099
137.800	-4.659	0.099
137.900	-2.703	0.099
138.000	-8.334	0.099
138.100	1.372	0.099
138.200	-7.694	0.099
138.300	-0.675	0.099
138.400	-5.071	0.099
138.500	2.147	0.099
138.600	-11.450	0.099
138.700	-0.777	0.099
138.800	-9.502	0.099
138.900	-7.542	0.099
139.000	-15.565	0.099
139.100	9.134	0.099
139.200	-13.075	0.099
139.300	-7.420	0.099
139.400	0.756	0.099
139.500	2.709	0.099
139.600	-0.794	0.099
139.700	2.868	0.099
139.800	-1.541	0.099
139.900	-6.578	0.099
140.000	-12.938	0.099
140.100	-9.380	0.099
140.200	-15.332	0.099
140.300	-8.393	0.099
140.400	-9.700	0.099
140.500	-6.746	0.099
140.600	-23.531	0.099
140.700	-0.464	0.099
140.800	-21.252	0.099
140.900	-2.236	0.099
141.000	-9.088	0.099
141.100	2.051	0.099
141.200	-0.481	0.099
141.300	-9.826	0.099
141.400	-16.299	0.099
141.500	-0.624	0.099
141.600	-17.220	0.099
141.700	4.827	0.099
141.800	-20.198	0.099
141.900	-1.478	0.099
142.000	1.170	0.099
142.100	-3.350	0.099
142.200	2.668	0.099
142.300	-9.617	0.099
142.400	-1.544	0.099
142.500	-5.014	0.099
142.600	-2.252	0.099
142.700	-2.413	0.099
142.800	-11.372	0.099
142.900	1.705	0.099
143.000	-14.165	0.099
143.100	-2.644	0.099
143.200	-12.538	0.099
143.300	-10.524	0.099
143.400	-9.587	0.099
143.500	-4.107	0.099
143.600	-8.857	0.099
143.700	-2.343	0.099
143.800	-3.770	0.099
143.900	-3.316	0.099
144.000	1.114	0.099
144.100	-6.563	0.099
144.200	-16.795	0.099
144.300	-14.189	0.099
144.400	-6.993	0.099
144.500	3.237	0.099
144.600	-4.746	0.099
144.700	-3.134	0.099
144.800	3.594	0.099
144.900	-8.584	0.099
145.000	-6.656	0.099
145.100	-4.378	0.099
145.200	-3.158	0.099
145.300	-11.346	0.099
145.400	-11.659	0.099
145.500	-8.073	0.099
145.600	-6.980	0.099
145.700	-9.022	0.099
145.800	-11.443	0.099
145.900	-12.348	0.099
146.000	0.503	0.099
146.100	-5.088	0.099
146.200	-7.182	0.099
146.300	-9.468	0.099
146.400	6.633	0.099
146.500	-13.504	0.099
146.600	1.398	0.099
146.700	-11.500	0.099
146.800	-1.168	0.099
146.900	-13.811	0.099
147.000	-13.695	0.099
147.100	-11.842	0.099
147.200	-4.392	0.099
147.300	-18.240	0.099
147.400	-4.358	0.099
147.500	-15.438	0.099
147.600	-11.399	0.099
147.700	7.353	0.099
147.800	-6.313	0.099
147.900	-8.927	0.099
148.000	-2.838	0.099
148.100	0.252	0.099
148.200	13.919	0.099
148.300	-14.690	0.099
148.400	-3.113	0.099
148.500	-0.018	0.099
148.600	-6.586	0.099
148.700	-10.709	0.099
148.800	-6.058	0.099
148.900	-13.652	0.099
149.000	-7.467	0.099
149.100	-8.012	0.099
149.200	-7.433	0.099
149.300	-13.601	0.099
149.400	-8.749	0.099
149.500	-5.789	0.099
149.600	1.711	0.099
149.700	-21.762	0.099
149.800	1.581	0.099
149.900	-6.538	0.099
150.000	-3.311	0.099
150.100	-7.610	0.099
150.200	2.113	0.099
150.300	-8.527	0.099
150.400	-0.221	0.099
150.500	-2.956	0.099
150.600	9.595	0.099
150.700	1.288	0.099
150.800	-6.743	0.099
150.900	-5.092	0.099
151.000	-0.431	0.099
151.100	1.920	0.099
151.200	-14.454	0.099
151.300	-5.455	0.099
151.400	-8.002	0.099
151.500	0.739	0.099
151.600	-10.518	0.099
151.700	2.959	0.099
151.800	-6.324	0.099
151.900	-12.185	0.099
152.000	-13.914	0.099
152.100	-10.725	0.099
152.200	-8.263	0.099
152.300	-10.004	0.099
152.400	-24.424	0.099
152.500	6.010	0.099
152.600	-18.663	0.099
152.700	-7.229	0.099
152.800	-7.564	0.099
152.900	-8.687	0.099
153.000	-16.964	0.099
153.100	-7.872	0.099
153.200	6.015	0.099
153.300	1.374	0.099
153.400	-6.051	0.099
153.500	-8.606	0.099
153.600	-12.427	0.099
153.700	-13.768	0.099
153.800	-17.967	0.099
153.900	0.158	0.099
154.000	-11.229	0.099
154.100	-10.390	0.099
154.200	9.555	0.099
154.300	-10.980	0.099
154.400	-8.022	0.099
154.500	0.055	0.099
154.600	-14.039	0.099
154.700	-18.126	0.099
154.800	-11.590	0.099
154.900	-0.554	0.099
155.000	-4.671	0.099
155.100	-23.064	0.099
155.200	11.259	0.099
155.300	-10.834	0.099
155.400	-5.133	0.099
155.500	-6.822	0.099
155.600	-16.802	0.099
155.700	-13.970	0.099
155.800	6.043	0.099
155.900	-2.315	0.099
156.000	0.066	0.099
156.100	1.985	0.099
156.200	1.518	0.099
156.300	-14.415	0.099
156.400	11.217	0.099
156.500	-28.931	0.099
156.600	-5.776	0.099
156.700	-3.901	0.099
156.800	-6.270	0.099
156.900	-9.112	0.099
157.000	2.316	0.099
157.100	-0.601	0.099
157.200	1.017	0.099
157.300	2.243	0.099
157.400	-7.705	0.099
157.500	-9.327	0.099
157.600	4.280	0.099
157.700	-20.107	0.099
157.800	-0.657	0.099
157.900	-6.048	0.099
158.000	-2.543	0.099
158.100	6.744	0.099
158.200	-11.944	0.099
158.300	-17.034	0.099
158.400	-8.692	0.099
158.500	-4.617	0.099
158.600	0.013	0.099
158.700	5.923	0.099
158.800	-10.260	0.099
158.900	7.651	0.099
159.000	-3.005	0.099
159.100	-8.523	0.099
159.200	-20.211	0.099
159.300	-13.423	0.099
159.400	-8.282	0.099
159.500	-14.081	0.099
159.600	-4.744	0.099
159.700	2.505	0.099
159.800	-6.405	0.099
159.900	2.419	0.099
160.000	1.507	0.099
160.100	-6.316	0.099
160.200	-1.775	0.099
160.300	-8.141	0.099
160.400	-14.950	0.099
160.500	-11.183	0.099
160.600	0.244	0.099
160.700	-13.206	0.099
160.800	-9.649	0.099
160.900	-0.263	0.099
161.000	-8.800	0.099
161.100	-2.257	0.099
161.200	-1.121	0.099
161.300	0.263	0.099
161.400	-0.219	0.099
161.500	1.798	0.099
161.600	0.863	0.099
161.700	5.476	0.099
161.800	-12.117	0.099
161.900	-12.893	0.099
162.000	-26.919	0.099
162.100	-12.175	0.099
162.200	-8.869	0.099
162.300	-9.557	0.099
162.400	-10.941	0.099
162.500	-1.058	0.099
162.600	-15.308	0.099
162.700	-11.623	0.099
162.800	2.851	0.099
162.900	-6.826	0.099
163.000	-9.686	0.099
163.100	-11.043	0.099
163.200	-16.119	0.099
163.300	-16.278	0.099
163.400	12.865	0.099
163.500	6.668	0.099
163.600	-10.315	0.099
163.700	-12.377	0.099
163.800	-8.198	0.099
163.900	-2.633	0.099
164.000	2.053	0.099
164.100	-2.347	0.099
164.200	1.085	0.099
164.300	-10.217	0.099
164.400	-1.764	0.099
164.500	-9.695	0.099
164.600	-2.394	0.099
164.700	-2.405	0.099
164.800	-5.621	0.099
164.900	1.268	0.099
165.000	-4.020	0.099
165.100	-2.516	0.099
165.200	-19.977	0.099
165.300	-8.927	0.099
165.400	-0.740	0.099
165.500	-19.916	0.099
165.600	-4.346	0.099
165.700	-10.512	0.099
165.800	-3.840	0.099
165.900	-5.342	0.099
166.000	7.148	0.099
166.100	-2.659	0.099
166.200	-9.156	0.099
166.300	-10.435	0.099
166.400	-13.967	0.099
166.500	-6.227	0.099
166.600	3.601	0.099
166.700	-4.981	0.099
166.800	0.451	0.099
166.900	-10.068	0.099
167.000	-18.906	0.099
167.100	9.758	0.099
167.200	2.733	0.099
167.300	-6.885	0.099
167.400	3.147	0.099
167.500	-4.688	0.099
167.600	-3.180	0.099
167.700	-3.219	0.099
167.800	-10.454	0.099
167.900	24.904	0.099
168.000	-9.015	0.099
168.100	2.108	0.099
168.200	1.948	0.099
168.300	5.390	0.099
168.400	-5.410	0.099
168.500	3.872	0.099
168.600	-36.347	0.099
168.700	-22.449	0.099
168.800	16.368	0.099
168.900	-15.354	0.099
169.000	3.588	0.099
169.100	3.764	0.099
169.200	4.702	0.099
169.300	-9.246	0.099
169.400	-16.698	0.099
169.500	2.372	0.099
169.600	-5.846	0.099
169.700	2.573	0.099
169.800	10.389	0.099
169.900	-4.920	0.099
170.000	-7.110	0.099
170.100	0.111	0.099
170.200	-9.366	0.099
170.300	-3.325	0.099
170.400	-11.683	0.099
170.500	-14.172	0.099
170.600	0.760	0.099
170.700	-6.688	0.099
170.800	2.976	0.099
170.900	-8.620	0.099
171.000	2.119	0.099
171.100	9.012	0.099
171.200	6.157	0.099
171.300	5.444	0.099
171.400	-5.801	0.099
171.500	-3.975	0.099
171.600	-1.342	0.099
171.700	2.644	0.099
171.800	-0.005	0.099
171.900	-0.656	0.099
172.000	-10.568	0.099
172.100	3.754	0.099
172.200	-2.413	0.099
172.300	-6.525	0.099
172.400	-10.664	0.099
172.500	-1.845	0.099
172.600	-11.012	0.099
172.700	-1.399	0.099
172.800	-3.644	0.099
172.900	-7.779	0.099
173.000	-4.111	0.099
173.100	-3.061	0.099
173.200	-24.301	0.099
173.300	-7.219	0.099
173.400	1.247	0.099
173.500	-9.761	0.099
173.600	-19.745	0.099
173.700	5.091	0.099
173.800	-8.274	0.099
173.900	-8.974	0.099
174.000	-1.773	0.099
174.100	1.133	0.099
174.200	-18.954	0.099
174.300	6.859	0.099
174.400	-11.889	0.099
174.500	-6.747	0.099
174.600	7.086	0.099
174.700	-11.433	0.099
174.800	-2.704	0.099
174.900	-6.543	0.099
175.000	-6.276	0.099
175.100	-3.318	0.099
175.200	-4.821	0.099
175.300	3.515	0.099
175.400	-8.680	0.099
175.500	-6.989	0.099
175.600	-6.595	0.099
175.700	1.143	0.099
175.800	-6.444	0.099
175.900	18.266	0.099
176.000	1.356	0.099
176.100	-3.301	0.099
176.200	-10.716	0.099
176.300	-4.034	0.099
176.400	-3.587	0.099
176.500	-10.096	0.099
176.600	-8.731	0.099
176.700	8.624	0.099
176.800	-1.727	0.099
176.900	-6.635	0.099
177.000	4.843	0.099
177.100	-0.314	0.099
177.200	-1.095	0.099
177.300	3.492	0.099
177.400	2.135	0.099
177.500	-18.033	0.099
177.600	3.802	0.099
177.700	-10.155	0.099
177.800	-3.807	0.099
177.900	7.618	0.099
178.000	-5.750	0.099
178.100	-2.596	0.099
178.200	-0.539	0.099
178.300	9.669	0.099
178.400	-8.602	0.099
178.500	-1.678	0.099
178.600	-8.958	0.099
178.700	-12.251	0.099
178.800	-8.490	0.099
178.900	-3.025	0.099
179.000	-8.248	0.099
179.100	-1.669	0.099
179.200	-17.942	0.099
179.300	-2.767	0.099
179.400	-4.330	0.099
179.500	9.149	0.099
179.600	-21.467	0.099
179.700	-1.100	0.099
179.800	-0.058	0.099
179.900	2.643	0.099
180.000	-4.732	0.099
180.100	-3.263	0.099
180.200	6.795	0.099
180.300	7.783	0.099
180.400	-0.252	0.099
180.500	18.233	0.099
180.600	18.829	0.099
180.700	13.558	0.099
180.800	38.696	0.099
180.900	24.574	0.099
181.000	25.743	0.099
181.100	23.588	0.099
181.200	30.530	0.099
181.300	7.947	0.099
181.400	42.094	0.099
181.500	31.339	0.099
181.600	30.217	0.099
181.700	43.967	0.099
181.800	14.208	0.099
181.900	31.463	0.099
182.000	32.910	0.099
182.100	18.478	0.099
182.200	31.402	0.099
182.300	28.048	0.099
182.400	19.323	0.099
182.500	28.031	0.099
182.600	13.645	0.099
182.700	34.371	0.099
182.800	34.598	0.099
182.900	19.498	0.099
183.000	25.888	0.099
183.100	26.421	0.099
183.200	20.100	0.099
183.300	34.958	0.099
183.400	27.338	0.099
183.500	30.762	0.099
183.600	26.358	0.099
183.700	22.098	0.099
183.800	28.803	0.099
183.900	11.149	0.099
184.000	33.870	0.099
184.100	7.753	0.099
184.200	21.061	0.099
184.300	30.508	0.099
184.400	11.443	0.099
184.500	23.857	0.099
184.600	32.454	0.099
184.700	29.165	0.099
184.800	21.339	0.099
184.900	25.891	0.099
185.000	14.989	0.099
185.100	11.298	0.099
185.200	15.094	0.099
185.300	17.816	0.099
185.400	18.077	0.099
185.500	13.011	0.099
185.600	18.392	0.099
185.700	18.931	0.099
185.800	24.362	0.099
185.900	26.344	0.099
186.000	14.695	0.099
186.100	16.177	0.099
186.200	-0.154	0.099
186.300	5.428	0.099
186.400	27.567	0.099
186.500	11.787	0.099
186.600	16.199	0.099
186.700	18.171	0.099
186.800	15.204	0.099
186.900	23.723	0.099
187.000	19.794	0.099
187.100	2.003	0.099
187.200	12.737	0.099
187.300	23.637	0.099
187.400	27.794	0.099
187.500	12.589	0.099
187.600	13.128	0.099
187.700	18.303	0.099
187.800	19.305	0.099
187.900	37.595	0.099
188.000	12.757	0.099
188.100	31.172	0.099
188.200	18.751	0.099
188.300	22.634	0.099
188.400	26.608	0.099
188.500	21.935	0.099
188.600	18.443	0.099
188.700	25.035	0.099
188.800	21.645	0.099
188.900	24.717	0.099
189.000	20.333	0.099
189.100	31.739	0.099
189.200	18.660	0.099
189.300	3.759	0.099
189.400	29.755	0.099
189.500	18.877	0.099
189.600	22.931	0.099
189.700	15.057	0.099
189.800	23.067	0.099
189.900	28.709	0.099
190.000	17.297	0.099
190.100	25.424	0.099
190.200	20.694	0.099
190.300	22.590	0.099
190.400	20.686	0.099
190.500	14.144	0.099
190.600	18.714	0.099
190.700	13.633	0.099
190.800	7.278	0.099
190.900	23.650	0.099
191.000	18.107	0.099
191.100	30.850	0.099
191.200	36.033	0.099
191.300	15.579	0.099
191.400	21.954	0.099
191.500	31.915	0.099
191.600	18.714	0.099
191.700	19.587	0.099
191.800	20.728	0.099
191.900	29.991	0.099
192.000	26.836	0.099
192.100	5.605	0.099
192.200	22.544	0.099
192.300	19.936	0.099
192.400	17.911	0.099
192.500	30.902	0.099
192.600	32.494	0.099
192.700	23.215	0.099
192.800	30.066	0.099
192.900	23.268	0.099
193.000	40.923	0.099
193.100	24.608	0.099
193.200	22.854	0.099
193.300	14.996	0.099
193.400	14.461	0.099
193.500	19.943	0.099
193.600	13.501	0.099
193.700	17.459	0.099
193.800	29.098	0.099
193.900	21.095	0.099
194.000	24.883	0.099
194.100	27.931	0.099
194.200	18.467	0.099
194.300	36.814	0.099
194.400	26.543	0.099
194.500	23.126	0.099
194.600	30.453	0.099
194.700	25.271	0.099
194.800	25.948	0.099
194.900	26.603	0.099
195.000	20.862	0.099
195.100	25.572	0.099
195.200	30.822	0.099
195.300	25.186	0.099
195.400	23.936	0.099
195.500	19.877	0.099
195.600	17.617	0.099
195.700	20.480	0.099
195.800	27.030	0.099
195.900	31.124	0.099
196.000	14.489	0.099
196.100	28.859	0.099
196.200	36.110	0.099
196.300	26.224	0.099
196.400	29.221	0.099
196.500	24.058	0.099
196.600	21.985	0.099
196.700	28.836	0.099
196.800	21.639	0.099
196.900	21.798	0.099
197.000	27.458	0.099
197.100	21.803	0.099
197.200	17.192	0.099
197.300	32.344	0.099
197.400	21.306	0.099
197.500	22.430	0.099
197.600	38.308	0.099
197.700	23.422	0.099
197.800	17.588	0.099
197.900	22.832	0.099
198.000	32.183	0.099
198.100	33.597	0.099
198.200	12.196	0.099
198.300	19.973	0.099
198.400	27.814	0.099
198.500	19.150	0.099
198.600	24.663	0.099
198.700	30.419	0.099
198.800	26.575	0.099
198.900	23.605	0.099
199.000	28.436	0.099
199.100	26.317	0.099
199.200	30.532	0.099
199.300	30.022	0.099
199.400	12.072	0.099
199.500	28.242	0.099
199.600	32.268	0.099
199.700	16.687	0.099
199.800	22.093	0.099
199.900	27.059	0.099
200.000	17.624	0.099
200.100	23.519	0.099
200.200	26.514	0.099
200.300	28.779	0.099
200.400	24.633	0.099
200.500	23.855	0.099
200.600	18.917	0.099
200.700	20.369	0.099
200.800	36.110	0.099
200.900	30.701	0.099
201.000	29.684	0.099
201.100	9.705	0.099
201.200	23.153	0.099
201.300	11.790	0.099
201.400	29.187	0.099
201.500	29.655	0.099
201.600	25.243	0.099
201.700	22.377	0.099
201.800	33.390	0.099
201.900	16.409	0.099
202.000	22.472	0.099
202.100	26.715	0.099
202.200	24.091	0.099
202.300	13.919	0.099
202.400	25.070	0.099
202.500	19.287	0.099
202.600	30.345	0.099
202.700	14.958	0.099
202.800	25.573	0.099
202.900	19.441	0.099
203.000	20.394	0.099
203.100	39.023	0.099
203.200	17.141	0.099
203.300	31.853	0.099
203.400	14.629	0.099
203.500	22.170	0.099
203.600	29.217	0.099
203.700	20.453	0.099
203.800	28.789	0.099
203.900	20.896	0.099
204.000	24.055	0.099
204.100	26.005	0.099
204.200	24.929	0.099
204.300	16.176	0.099
204.400	16.008	0.099
204.500	28.558	0.099
204.600	27.186	0.099
204.700	22.197	0.099
204.800	22.662	0.099
204.900	38.487	0.099
205.000	25.384	0.099
205.100	27.286	0.099
205.200	19.903	0.099
205.300	35.532	0.099
205.400	22.009	0.099
205.500	16.202	0.099
205.600	33.349	0.099
205.700	21.141	0.099
205.800	21.872	0.099
205.900	27.369	0.099
206.000	15.810	0.099
206.100	33.867	0.099
206.200	47.196	0.099
206.300	30.143	0.099
206.400	25.116	0.099
206.500	14.449	0.099
206.600	28.217	0.099
206.700	6.147	0.099
206.800	7.800	0.099
206.900	32.757	0.099
207.000	38.547	0.099
207.100	26.013	0.099
207.200	20.145	0.099
207.300	31.826	0.099
207.400	28.868	0.099
207.500	6.045	0.099
207.600	21.402	0.099
207.700	35.501	0.099
207.800	21.882	0.099
207.900	21.439	0.099
208.000	22.869	0.099
208.100	32.438	0.099
208.200	24.123	0.099
208.300	20.456	0.099
208.400	35.784	0.099
208.500	22.250	0.099
208.600	34.783	0.099
208.700	24.195	0.099
208.800	15.061	0.099
208.900	15.850	0.099
209.000	23.096	0.099
209.100	24.068	0.099
209.200	30.179	0.099
209.300	19.824	0.099
209.400	22.453	0.099
209.500	18.646	0.099
209.600	24.984	0.099
209.700	16.033	0.099
209.800	26.310	0.099
209.900	10.369	0.099
210.000	13.398	0.099
210.100	28.856	0.099
210.200	25.093	0.099
210.300	25.512	0.099
210.400	12.198	0.099
210.500	30.358	0.099
210.600	12.933	0.099
210.700	23.719	0.099
210.800	24.386	0.099
210.900	4.021	0.099
211.000	22.037	0.099
211.100	25.791	0.099
211.200	23.361	0.099
211.300	20.163	0.099
211.400	16.834	0.099
211.500	16.612	0.099
211.600	12.588	0.099
211.700	15.520	0.099
211.800	10.762	0.099
211.900	16.746	0.099
212.000	14.047	0.099
212.100	17.116	0.099
212.200	9.454	0.099
212.300	20.812	0.099
212.400	18.026	0.099
212.500	23.329	0.099
212.600	5.082	0.099
212.700	15.751	0.099
212.800	15.873	0.099
212.900	22.995	0.099
213.000	19.226	0.099
213.100	9.187	0.099
213.200	13.631	0.099
213.300	13.145	0.099
213.400	17.333	0.099
213.500	10.338	0.099
213.600	28.608	0.099
213.700	19.802	0.099
213.800	16.808	0.099
213.900	7.426	0.099
214.000	25.326	0.099
214.100	12.704	0.099
214.200	19.312	0.099
214.300	16.626	0.099
214.400	17.146	0.099
214.500	19.564	0.099
214.600	31.732	0.099
214.700	23.955	0.099
214.800	17.399	0.099
214.900	20.040	0.099
215.000	19.624	0.099
215.100	8.366	0.099
215.200	6.577	0.099
215.300	16.660	0.099
215.400	7.221	0.099
215.500	17.612	0.099
215.600	9.022	0.099
215.700	17.380	0.099
215.800	23.028	0.099
215.900	5.013	0.099
216.000	22.405	0.099
216.100	18.811	0.099
216.200	22.993	0.099
216.300	11.963	0.099
216.400	26.265	0.099
216.500	19.151	0.099
216.600	14.295	0.099
216.700	31.692	0.099
216.800	26.305	0.099
216.900	14.334	0.099
217.000	30.967	0.099
217.100	18.710	0.099
217.200	26.169	0.099
217.300	24.860	0.099
217.400	15.958	0.099
217.500	32.498	0.099
217.600	18.331	0.099
217.700	20.466	0.099
217.800	15.874	0.099
217.900	18.560	0.099
218.000	16.115	0.099
218.100	12.220	0.099
218.200	12.865	0.099
218.300	23.470	0.099
218.400	27.961	0.099
218.500	33.622	0.099
218.600	9.545	0.099
218.700	14.684	0.099
218.800	28.174	0.099
218.900	20.501	0.099
219.000	16.596	0.099
219.100	15.569	0.099
219.200	18.586	0.099
219.300	13.850	0.099
219.400	15.601	0.099
219.500	27.430	0.099
219.600	-0.094	0.099
219.700	-2.101	0.099
219.800	23.169	0.099
219.900	24.054	0.099
220.000	18.594	0.099
220.100	27.329	0.099
220.200	25.001	0.099
220.300	15.527	0.099
220.400	20.641	0.099
220.500	20.876	0.099
220.600	20.352	0.099
220.700	21.682	0.099
220.800	15.277	0.099
220.900	25.161	0.099
221.000	26.054	0.099
221.100	29.066	0.099
221.200	19.666	0.099
221.300	7.942	0.099
221.400	23.908	0.099
221.500	15.518	0.099
221.600	12.606	0.099
221.700	21.018	0.099
221.800	13.418	0.099
221.900	16.861	0.099
222.000	23.648	0.099
222.100	15.704	0.099
222.200	17.376	0.099
222.300	21.527	0.099
222.400	16.611	0.099
222.500	22.171	0.099
222.600	12.469	0.099
222.700	20.649	0.099
222.800	8.354	0.099
222.900	6.811	0.099
223.000	12.924	0.099
223.100	16.297	0.099
223.200	32.090	0.099
223.300	14.454	0.099
223.400	8.790	0.099
223.500	23.192	0.099
223.600	19.266	0.099
223.700	22.834	0.099
223.800	11.747	0.099
223.900	13.918	0.099
224.000	29.330	0.099
224.100	12.131	0.099
224.200	13.460	0.099
224.300	3.153	0.099
224.400	16.384	0.099
224.500	32.140	0.099
224.600	15.810	0.099
224.700	16.953	0.099
224.800	20.638	0.099
224.900	27.443	0.099
225.000	25.840	0.099
225.100	16.869	0.099
225.200	27.152	0.099
225.300	22.526	0.099
225.400	21.212	0.099
225.500	14.613	0.099
225.600	27.042	0.099
225.700	27.538	0.099
225.800	27.706	0.099
225.900	21.139	0.099
226.000	22.496	0.099
226.100	15.448	0.099
226.200	11.290	0.099
226.300	18.162	0.099
226.400	7.108	0.099
226.500	15.867	0.099
226.600	8.706	0.099
226.700	25.372	0.099
226.800	17.870	0.099
226.900	9.825	0.099
227.000	13.392	0.099
227.100	11.540	0.099
227.200	25.793	0.099
227.300	19.987	0.099
227.400	1.882	0.099
227.500	8.361	0.099
227.600	14.460	0.099
227.700	25.210	0.099
227.800	22.102	0.099
227.900	13.960	0.099
228.000	11.994	0.099
228.100	16.332	0.099
228.200	17.053	0.099
228.300	11.902	0.099
228.400	12.408	0.099
228.500	25.303	0.099
228.600	32.975	0.099
228.700	22.033	0.099
228.800	5.144	0.099
228.900	22.771	0.099
229.000	19.273	0.099
229.100	12.254	0.099
229.200	21.425	0.099
229.300	22.834	0.099
229.400	21.535	0.099
229.500	10.319	0.099
229.600	13.265	0.099
229.700	15.073	0.099
229.800	21.552	0.099
229.900	20.287	0.099
230.000	18.318	0.099
230.100	14.308	0.099
230.200	16.698	0.099
230.300	14.377	0.099
230.400	-3.076	0.099
230.500	24.757	0.099
230.600	21.187	0.099
230.700	13.217	0.099
230.800	24.109	0.099
230.900	18.462	0.099
231.000	31.729	0.099
231.100	24.405	0.099
231.200	24.745	0.099
231.300	15.011	0.099
231.400	31.040	0.099
231.500	11.822	0.099
231.600	24.117	0.099
231.700	10.823	0.099
231.800	6.949	0.099
231.900	27.139	0.099
232.000	12.091	0.099
232.100	22.509	0.099
232.200	17.921	0.099
232.300	6.274	0.099
232.400	8.644	0.099
232.500	17.746	0.099
232.600	12.383	0.099
232.700	11.823	0.099
232.800	14.055	0.099
232.900	36.374	0.099
233.000	16.804	0.099
233.100	12.657	0.099
233.200	24.353	0.099
233.300	0.697	0.099
233.400	24.050	0.099
233.500	19.744	0.099
233.600	28.964	0.099
233.700	5.391	0.099
233.800	19.990	0.099
233.900	8.412	0.099
234.000	22.230	0.099
234.100	17.692	0.099
234.200	32.870	0.099
234.300	11.484	0.099
234.400	12.685	0.099
234.500	30.682	0.099
234.600	13.234	0.099
234.700	9.139	0.099
234.800	29.039	0.099
234.900	27.750	0.099
235.000	15.532	0.099
235.100	12.676	0.099
235.200	16.046	0.099
235.300	14.430	0.099
235.400	13.823	0.099
235.500	8.306	0.099
235.600	31.920	0.099
235.700	2.627	0.099
235.800	15.227	0.099
235.900	18.961	0.099
236.000	30.625	0.099
236.100	20.629	0.099
236.200	23.238	0.099
236.300	19.202	0.099
236.400	18.305	0.099
236.500	36.193	0.099
236.600	17.578	0.099
236.700	26.471	0.099
236.800	11.213	0.099
236.900	14.794	0.099
237.000	27.654	0.099
237.100	12.435	0.099
237.200	17.074	0.099
237.300	18.556	0.099
237.400	23.025	0.099
237.500	23.548	0.099
237.600	23.452	0.099
237.700	13.592	0.099
237.800	33.062	0.099
237.900	12.913	0.099
238.000	16.566	0.099
238.100	16.019	0.099
238.200	22.473	0.099
238.300	16.332	0.099
238.400	14.959	0.099
238.500	14.135	0.099
238.600	7.611	0.099
238.700	16.226	0.099
238.800	11.309	0.099
238.900	14.500	0.099
239.000	18.165	0.099
239.100	5.194	0.099
239.200	7.374	0.099
239.300	18.924	0.099
239.400	11.400	0.099
239.500	17.412	0.099
239.600	3.791	0.099
239.700	23.593	0.099
239.800	12.862	0.099
239.900	24.380	0.099
240.000	6.387	0.099
240.100	21.851	0.099
240.200	4.692	0.099
240.300	7.596	0.099
240.400	14.591	0.099
240.500	2.226	0.099
240.600	-0.302	0.099
240.700	5.185	0.099
240.800	4.983	0.099
240.900	-5.709	0.099
241.000	-7.057	0.099
241.100	-14.704	0.099
241.200	-10.138	0.099
241.300	-6.139	0.099
241.400	-10.635	0.099
241.500	1.997	0.099
241.600	-15.899	0.099
241.700	-7.060	0.099
241.800	-7.790	0.099
241.900	-25.142	0.099
242.000	-18.326	0.099
242.100	-22.025	0.099
242.200	-6.056	0.099
242.300	-29.722	0.099
242.400	-22.757	0.099
242.500	-25.129	0.099
242.600	-30.078	0.099
242.700	-17.651	0.099
242.800	-23.244	0.099
242.900	-15.062	0.099
243.000	-21.030	0.099
243.100	-19.276	0.099
243.200	-31.453	0.099
243.300	-18.054	0.099
243.400	-23.055	0.099
243.500	-37.715	0.099
243.600	-21.121	0.099
243.700	-11.745	0.099
243.800	-28.069	0.099
243.900	-11.653	0.099
244.000	-14.524	0.099
244.100	-25.907	0.099
244.200	-18.872	0.099
244.300	-35.115	0.099
244.400	-23.623	0.099
244.500	-22.663	0.099
244.600	-10.975	0.099
244.700	-18.583	0.099
244.800	-28.728	0.099
244.900	-21.773	0.099
245.000	-8.908	0.099
245.100	-8.538	0.099
245.200	-25.074	0.099
245.300	-31.470	0.099
245.400	-5.151	0.099
245.500	-21.758	0.099
245.600	-17.944	0.099
245.700	-11.639	0.099
245.800	-24.381	0.099
245.900	-29.038	0.099
246.000	-21.499	0.099
246.100	-10.783	0.099
246.200	-26.925	0.099
246.300	-9.278	0.099
246.400	-27.290	0.099
246.500	-17.450	0.099
246.600	-9.119	0.099
246.700	-8.886	0.099
246.800	-16.231	0.099
246.900	-14.554	0.099
247.000	-21.675	0.099
247.100	-20.753	0.099
247.200	-12.983	0.099
247.300	-12.323	0.099
247.400	-7.590	0.099
247.500	-27.571	0.099
247.600	-22.516	0.099
247.700	-24.780	0.099
247.800	-18.841	0.099
247.900	-21.433	0.099
248.000	-15.768	0.099
248.100	-13.602	0.099
248.200	-10.844	0.099
248.300	-16.130	0.099
248.400	-25.967	0.099
248.500	-1.760	0.099
248.600	-10.526	0.099
248.700	-6.640	0.099
248.800	-7.247	0.099
248.900	-7.495	0.099
249.000	-1.518	0.099
249.100	-14.656	0.099
249.200	-5.145	0.099
249.300	-5.286	0.099
249.400	-6.097	0.099
249.500	-6.941	0.099
249.600	-8.942	0.099
249.700	-9.879	0.099
249.800	-3.651	0.099
249.900	-8.665	0.099
250.000	5.473	0.099
250.100	-11.910	0.099
250.200	-5.756	0.099
250.300	-6.307	0.099
250.400	-28.907	0.099
250.500	-12.751	0.099
250.600	-6.397	0.099
250.700	-10.871	0.099
250.800	-8.062	0.099
250.900	-9.482	0.099
251.000	-16.450	0.099
251.100	3.630	0.099
251.200	-1.678	0.099
251.300	-9.199	0.099
251.400	-0.238	0.099
251.500	-4.306	0.099
251.600	-22.017	0.099
251.700	-13.231	0.099
251.800	-8.238	0.099
251.900	-13.913	0.099
252.000	-29.661	0.099
252.100	-5.654	0.099
252.200	-17.165	0.099
252.300	-7.024	0.099
252.400	-0.221	0.099
252.500	-1.031	0.099
252.600	-3.786	0.099
252.700	-15.420	0.099
252.800	-6.788	0.099
252.900	-9.353	0.099
253.000	-5.360	0.099
253.100	-2.700	0.099
253.200	-11.049	0.099
253.300	-13.167	0.099
253.400	-6.582	0.099
253.500	-7.108	0.099
253.600	-5.204	0.099
253.700	-18.632	0.099
253.800	-9.069	0.099
253.900	-15.650	0.099
254.000	-13.438	0.099
254.100	-6.979	0.099
254.200	-5.122	0.099
254.300	-11.864	0.099
254.400	-11.252	0.099
254.500	-11.650	0.099
254.600	0.402	0.099
254.700	4.499	0.099
254.800	-11.285	0.099
254.900	-11.427	0.099
255.000	-5.253	0.099
255.100	-25.836	0.099
255.200	-3.256	0.099
255.300	-14.457	0.099
255.400	-7.323	0.099
255.500	-16.707	0.099
255.600	-4.459	0.099
255.700	-5.320	0.099
255.800	-30.335	0.099
255.900	-11.674	0.099
256.000	-11.231	0.099
256.100	-8.443	0.099
256.200	-3.752	0.099
256.300	-13.187	0.099
256.400	-5.647	0.099
256.500	-6.044	0.099
256.600	-3.523	0.099
256.700	-15.912	0.099
256.800	-11.527	0.099
256.900	-9.567	0.099
257.000	-7.272	0.099
257.100	-9.244	0.099
257.200	-5.111	0.099
257.300	-0.978	0.099
257.400	-5.513	0.099
257.500	-1.927	0.099
257.600	-5.194	0.099
257.700	-1.194	0.099
257.800	-9.559	0.099
257.900	-6.575	0.099
258.000	-13.627	0.099
258.100	-5.697	0.099
258.200	0.518	0.099
258.300	0.801	0.099
258.400	-3.617	0.099
258.500	0.886	0.099
258.600	-11.333	0.099
258.700	-24.077	0.099
258.800	-15.049	0.099
258.900	-7.104	0.099
259.000	-1.175	0.099
259.100	-15.852	0.099
259.200	2.153	0.099
259.300	-2.708	0.099
259.400	-3.247	0.099
259.500	-16.091	0.099
259.600	2.223	0.099
259.700	3.952	0.099
259.800	-2.353	0.099
259.900	0.056	0.099
260.000	4.519	0.099
260.100	-6.095	0.099
260.200	-14.155	0.099
260.300	-12.786	0.099
260.400	10.827	0.099
260.500	1.952	0.099
260.600	-13.963	0.099
260.700	-0.128	0.099
260.800	-12.985	0.099
260.900	0.424	0.099
261.000	9.245	0.099
261.100	-14.287	0.099
261.200	-9.758	0.099
261.300	-22.478	0.099
261.400	-1.917	0.099
261.500	-13.369	0.099
261.600	-5.073	0.099
261.700	-9.110	0.099
261.800	5.520	0.099
261.900	-12.365	0.099
262.000	0.563	0.099
262.100	-9.397	0.099
262.200	-11.776	0.099
262.300	-18.198	0.099
262.400	-26.191	0.099
262.500	-17.852	0.099
262.600	-23.106	0.099
262.700	-15.780	0.099
262.800	-15.956	0.099
262.900	-2.294	0.099
263.000	-9.199	0.099
263.100	-4.789	0.099
263.200	-5.375	0.099
263.300	-15.563	0.099
263.400	-31.413	0.099
263.500	-3.665	0.099
263.600	-12.829	0.099
263.700	-7.112	0.099
263.800	-19.065	0.099
263.900	-13.581	0.099
264.000	-6.892	0.099
264.100	9.947	0.099
264.200	-2.081	0.099
264.300	-12.952	0.099
264.400	-9.170	0.099
264.500	-6.678	0.099
264.600	-17.670	0.099
264.700	-33.636	0.099
264.800	-11.638	0.099
264.900	-19.830	0.099
265.000	-11.281	0.099
265.100	-13.606	0.099
265.200	-12.803	0.099
265.300	-33.944	0.099
265.400	4.875	0.099
265.500	0.641	0.099
265.600	-5.634	0.099
265.700	-22.225	0.099
265.800	-17.361	0.099
265.900	-2.102	0.099
266.000	-12.531	0.099
266.100	-13.248	0.099
266.200	-22.303	0.099
266.300	-4.804	0.099
266.400	-14.569	0.099
266.500	0.909	0.099
266.600	-18.408	0.099
266.700	-19.210	0.099
266.800	-6.679	0.099
266.900	-1.219	0.099
267.000	-10.048	0.099
267.100	-16.398	0.099
267.200	-3.674	0.099
267.300	-6.828	0.099
267.400	9.229	0.099
267.500	-2.826	0.099
267.600	-9.520	0.099
267.700	-18.449	0.099
267.800	-5.705	0.099
267.900	-16.834	0.099
268.000	-10.007	0.099
268.100	-13.859	0.099
268.200	3.638	0.099
268.300	-0.894	0.099
268.400	-6.558	0.099
268.500	-14.910	0.099
268.600	-3.648	0.099
268.700	1.202	0.099
268.800	-6.451	0.099
268.900	7.114	0.099
269.000	-21.800	0.099
269.100	-12.750	0.099
269.200	-2.464	0.099
269.300	-5.874	0.099
269.400	-1.677	0.099
269.500	-7.445	0.099
269.600	-13.214	0.099
269.700	-12.798	0.099
269.800	-9.957	0.099
269.900	-26.617	0.099
270.000	-2.136	0.099
270.100	-5.398	0.099
270.200	-25.323	0.099
270.300	5.389	0.099
270.400	-15.859	0.099
270.500	-5.854	0.099
270.600	-13.344	0.099
270.700	-2.406	0.099
270.800	-11.400	0.099
270.900	-5.464	0.099
271.000	-6.414	0.099
271.100	-14.415	0.099
271.200	-10.917	0.099
271.300	-7.607	0.099
271.400	-7.566	0.099
271.500	-13.090	0.099
271.600	-16.930	0.099
271.700	-3.879	0.099
271.800	-5.714	0.099
271.900	-6.539	0.099
272.000	-6.283	0.099
272.100	-13.553	0.099
272.200	-34.575	0.099
272.300	0.882	0.099
272.400	-8.716	0.099
272.500	-18.897	0.099
272.600	-15.343	0.099
272.700	-22.712	0.099
272.800	-7.846	0.099
272.900	-13.738	0.099
273.000	-5.864	0.099
273.100	-6.177	0.099
273.200	-13.950	0.099
273.300	-19.651	0.099
273.400	-11.000	0.099
273.500	1.253	0.099
273.600	-5.109	0.099
273.700	-8.334	0.099
273.800	-13.890	0.099
273.900	-12.007	0.099
274.000	-25.433	0.099
274.100	-7.628	0.099
274.200	-10.410	0.099
274.300	-0.509	0.099
274.400	-14.839	0.099
274.500	-1.101	0.099
274.600	-11.482	0.099
274.700	-5.893	0.099
274.800	-10.908	0.099
274.900	-5.405	0.099
275.000	-5.328	0.099
275.100	-19.535	0.099
275.200	3.412	0.099
275.300	-14.711	0.099
275.400	-15.349	0.099
275.500	-16.797	0.099
275.600	-3.923	0.099
275.700	-7.660	0.099
275.800	-14.729	0.099
275.900	-12.395	0.099
276.000	-10.941	0.099
276.100	-20.083	0.099
276.200	-5.756	0.099
276.300	5.394	0.099
276.400	-8.827	0.099
276.500	-3.365	0.099
276.600	-14.617	0.099
276.700	-17.368	0.099
276.800	-19.385	0.099
276.900	-7.066	0.099
277.000	-19.416	0.099
277.100	2.917	0.099
277.200	-8.100	0.099
277.300	-12.666	0.099
277.400	-26.618	0.099
277.500	-5.764	0.099
277.600	-10.882	0.099
277.700	-16.089	0.099
277.800	-5.081	0.099
277.900	-13.696	0.099
278.000	-16.093	0.099
278.100	-11.392	0.099
278.200	-18.750	0.099
278.300	-9.546	0.099
278.400	-5.094	0.099
278.500	-16.477	0.099
278.600	-0.084	0.099
278.700	-23.552	0.099
278.800	-17.365	0.099
278.900	-3.200	0.099
279.000	-2.597	0.099
279.100	-2.846	0.099
279.200	-10.312	0.099
279.300	-1.395	0.099
279.400	-11.632	0.099
279.500	-30.764	0.099
279.600	-12.852	0.099
279.700	-13.017	0.099
279.800	-16.126	0.099
279.900	-17.256	0.099
280.000	-3.332	0.099
280.100	-11.979	0.099
280.200	-20.884	0.099
280.300	-5.549	0.099
280.400	-7.510	0.099
280.500	-8.907	0.099
280.600	-0.881	0.099
280.700	-18.155	0.099
280.800	-7.959	0.099
280.900	-8.767	0.099
281.000	-8.860	0.099
281.100	-13.617	0.099
281.200	-8.430	0.099
281.300	-19.904	0.099
281.400	-9.903	0.099
281.500	-9.645	0.099
281.600	-13.720	0.099
281.700	-4.096	0.099
281.800	-4.675	0.099
281.900	-10.291	0.099
282.000	-4.623	0.099
282.100	-4.061	0.099
282.200	-3.676	0.099
282.300	-9.055	0.099
282.400	-6.031	0.099
282.500	-16.986	0.099
282.600	-5.058	0.099
282.700	-13.403	0.099
282.800	-19.769	0.099
282.900	-16.204	0.099
283.000	-17.523	0.099
283.100	-10.925	0.099
283.200	-7.261	0.099
283.300	-10.969	0.099
283.400	-10.366	0.099
283.500	-19.400	0.099
283.600	-20.710	0.099
283.700	-11.758	0.099
283.800	-22.120	0.099
283.900	1.146	0.099
284.000	-25.841	0.099
284.100	-0.191	0.099
284.200	-2.666	0.099
284.300	-16.995	0.099
284.400	-16.213	0.099
284.500	-9.666	0.099
284.600	-6.550	0.099
284.700	-14.350	0.099
284.800	-0.320	0.099
284.900	-7.761	0.099
285.000	-4.736	0.099
285.100	-9.348	0.099
285.200	-13.079	0.099
285.300	-11.855	0.099
285.400	-11.805	0.099
285.500	3.584	0.099
285.600	-13.633	0.099
285.700	4.148	0.099
285.800	-11.172	0.099
285.900	-5.575	0.099
286.000	3.799	0.099
286.100	-2.377	0.099
286.200	-9.858	0.099
286.300	14.585	0.099
286.400	-2.936	0.099
286.500	-17.072	0.099
286.600	-18.989	0.099
286.700	-11.339	0.099
286.800	-14.071	0.099
286.900	-2.888	0.099
287.000	-3.096	0.099
287.100	-14.101	0.099
287.200	-5.997	0.099
287.300	-21.963	0.099
287.400	-7.365	0.099
287.500	8.410	0.099
287.600	-3.287	0.099
287.700	-17.656	0.099
287.800	-8.365	0.099
287.900	-16.103	0.099
288.000	1.297	0.099
288.100	-6.450	0.099
288.200	-8.028	0.099
288.300	-11.506	0.099
288.400	-12.059	0.099
288.500	1.629	0.099
288.600	5.575	0.099
288.700	-16.340	0.099
288.800	-4.303	0.099
288.900	-6.101	0.099
289.000	-11.402	0.099
289.100	1.968	0.099
289.200	-9.780	0.099
289.300	-19.124	0.099
289.400	-15.028	0.099
289.500	-10.293	0.099
289.600	-10.436	0.099
289.700	3.106	0.099
289.800	-8.079	0.099
289.900	-8.734	0.099
290.000	4.196	0.099
290.100	-12.365	0.099
290.200	-15.811	0.099
290.300	-5.144	0.099
290.400	4.916	0.099
290.500	-16.047	0.099
290.600	-7.370	0.099
290.700	-21.856	0.099
290.800	-2.159	0.099
290.900	-3.697	0.099
291.000	-32.075	0.099
291.100	-8.839	0.099
291.200	7.000	0.099
291.300	-4.071	0.099
291.400	-5.137	0.099
291.500	-1.592	0.099
291.600	-5.861	0.099
291.700	5.771	0.099
291.800	-7.406	0.099
291.900	-14.101	0.099
292.000	-11.204	0.099
292.100	-6.660	0.099
292.200	-11.057	0.099
292.300	-5.084	0.099
292.400	-1.361	0.099
292.500	-8.617	0.099
292.600	-3.200	0.099
292.700	0.388	0.099
292.800	-22.721	0.099
292.900	-9.255	0.099
293.000	-6.465	0.099
293.100	-9.208	0.099
293.200	-12.634	0.099
293.300	-0.192	0.099
293.400	-7.853	0.099
293.500	-13.306	0.099
293.600	-8.945	0.099
293.700	-22.536	0.099
293.800	-7.535	0.099
293.900	-12.001	0.099
294.000	-1.903	0.099
294.100	-5.007	0.099
294.200	-5.769	0.099
294.300	-16.365	0.099
294.400	-1.998	0.099
294.500	-14.744	0.099
294.600	-10.300	0.099
294.700	3.485	0.099
294.800	-20.642	0.099
294.900	-8.879	0.099
295.000	-9.041	0.099
295.100	-2.898	0.099
295.200	-12.233	0.099
295.300	-1.462	0.099
295.400	0.529	0.099
295.500	3.741	0.099
295.600	-11.020	0.099
295.700	5.576	0.099
295.800	-7.030	0.099
295.900	2.095	0.099
296.000	-0.457	0.099
296.100	-7.810	0.099
296.200	-7.743	0.099
296.300	-15.697	0.099
296.400	1.294	0.099
296.500	-12.619	0.099
296.600	-3.235	0.099
296.700	-21.249	0.099
296.800	-1.134	0.099
296.900	-26.842	0.099
297.000	5.295	0.099
297.100	-9.864	0.099
297.200	-5.686	0.099
297.300	-20.743	0.099
297.400	-14.640	0.099
297.500	-4.710	0.099
297.600	-7.857	0.099
297.700	3.341	0.099
297.800	1.867	0.099
297.900	-6.110	0.099
298.000	-4.847	0.099
298.100	-8.673	0.099
298.200	-7.944	0.099
298.300	-11.989	0.099
298.400	-10.560	0.099
298.500	-3.622	0.099
298.600	-8.153	0.099
298.700	-7.696	0.099
298.800	-4.838	0.099
298.900	-7.628	0.099
299.000	-9.514	0.099
299.100	-3.808	0.099
299.200	3.781	0.099
299.300	-5.126	0.099
299.400	-3.023	0.099
299.500	-2.885	0.099
299.600	-13.259	0.099
299.700	-12.129	0.099
299.800	-8.427	0.099
299.900	-14.904	0.099
300.000	-9.185	0.099
300.100	-1.406	0.099
300.200	-8.709	0.099
300.300	-14.331	0.099
300.400	8.008	0.099
300.500	-1.549	0.099
300.600	-0.871	0.099
300.700	0.545	0.099
300.800	-9.470	0.099
300.900	2.475	0.099
301.000	-19.730	0.099
301.100	-23.767	0.099
301.200	4.100	0.099
301.300	-2.549	0.099
301.400	-7.532	0.099
301.500	-3.735	0.099
301.600	-2.785	0.099
301.700	-3.754	0.099
301.800	-26.758	0.099
301.900	-3.252	0.099
302.000	7.905	0.099
302.100	-8.762	0.099
302.200	-13.052	0.099
302.300	-13.028	0.099
302.400	-7.189	0.099
302.500	-1.746	0.099
302.600	-4.725	0.099
302.700	-3.510	0.099
302.800	-20.687	0.099
302.900	-5.746	0.099
303.000	-4.555	0.099
303.100	0.811	0.099
303.200	-4.236	0.099
303.300	-13.355	0.099
303.400	-12.921	0.099
303.500	-7.443	0.099
303.600	-2.582	0.099
303.700	-5.819	0.099
303.800	-8.824	0.099
303.900	9.415	0.099
304.000	1.933	0.099
304.100	0.186	0.099
304.200	4.614	0.099
304.300	-1.748	0.099
304.400	-8.392	0.099
304.500	-9.254	0.099
304.600	-3.928	0.099
304.700	-6.392	0.099
304.800	-1.685	0.099
304.900	-15.373	0.099
305.000	3.206	0.099
305.100	-6.523	0.099
305.200	-12.358	0.099
305.300	-14.807	0.099
305.400	3.896	0.099
305.500	-10.183	0.099
305.600	-1.649	0.099
305.700	3.658	0.099
305.800	-7.861	0.099
305.900	-13.200	0.099
306.000	-1.623	0.099
306.100	-9.801	0.099
306.200	-5.467	0.099
306.300	14.190	0.099
306.400	-7.935	0.099
306.500	-9.253	0.099
306.600	-17.265	0.099
306.700	-3.042	0.099
306.800	-5.986	0.099
306.900	-3.912	0.099
307.000	-5.494	0.099
307.100	-9.635	0.099
307.200	-2.994	0.099
307.300	-5.153	0.099
307.400	-3.849	0.099
307.500	4.206	0.099
307.600	-10.309	0.099
307.700	-1.262	0.099
307.800	-3.634	0.099
307.900	-4.132	0.099
308.000	-9.495	0.099
308.100	2.690	0.099
308.200	1.260	0.099
308.300	-20.203	0.099
308.400	1.953	0.099
308.500	-18.287	0.099
308.600	-12.896	0.099
308.700	1.885	0.099
308.800	-10.903	0.099
308.900	-12.503	0.099
309.000	-0.991	0.099
309.100	-3.137	0.099
309.200	-8.158	0.099
309.300	-6.009	0.099
309.400	-3.163	0.099
309.500	-6.531	0.099
309.600	4.604	0.099
309.700	-2.643	0.099
309.800	-9.884	0.099
309.900	1.511	0.099
310.000	-5.818	0.099
310.100	-5.554	0.099
310.200	-3.675	0.099
310.300	-21.682	0.099
310.400	-2.855	0.099
310.500	-4.133	0.099
310.600	-3.350	0.099
310.700	-9.634	0.099
310.800	-7.749	0.099
310.900	0.502	0.099
311.000	-0.190	0.099
311.100	-2.536	0.099
311.200	-14.867	0.099
311.300	-15.807	0.099
311.400	2.765	0.099
311.500	-19.359	0.099
311.600	-5.994	0.099
311.700	1.266	0.099
311.800	-4.958	0.099
311.900	-18.044	0.099
312.000	-7.163	0.099
312.100	-13.092	0.099
312.200	3.639	0.099
312.300	-17.535	0.099
312.400	-0.771	0.099
312.500	-12.087	0.099
312.600	-14.362	0.099
312.700	-11.051	0.099
312.800	0.586	0.099
312.900	-0.723	0.099
313.000	-0.682	0.099
313.100	-9.075	0.099
313.200	-8.456	0.099
313.300	-9.990	0.099
313.400	8.072	0.099
313.500	-15.224	0.099
313.600	-14.723	0.099
313.700	-6.748	0.099
313.800	-11.316	0.099
313.900	-11.985	0.099
314.000	-2.679	0.099
314.100	-2.828	0.099
314.200	-5.044	0.099
314.300	-3.558	0.099
314.400	13.422	0.099
314.500	-8.992	0.099
314.600	-9.438	0.099
314.700	-12.654	0.099
314.800	-6.338	0.099
314.900	-4.656	0.099
315.000	5.934	0.099
315.100	-5.186	0.099
315.200	-1.976	0.099
315.300	-11.925	0.099
315.400	-16.238	0.099
315.500	0.991	0.099
315.600	-7.765	0.099
315.700	17.607	0.099
315.800	-6.618	0.099
315.900	-0.821	0.099
316.000	-1.136	0.099
316.100	1.054	0.099
316.200	-17.715	0.099
316.300	4.452	0.099
316.400	-8.528	0.099
316.500	-0.030	0.099
316.600	-2.460	0.099
316.700	-5.676	0.099
316.800	-0.726	0.099
316.900	-20.813	0.099
317.000	-10.014	0.099
317.100	-17.151	0.099
317.200	-10.322	0.099
317.300	2.845	0.099
317.400	-0.649	0.099
317.500	-3.347	0.099
317.600	-5.517	0.099
317.700	-4.630	0.099
317.800	-5.806	0.099
317.900	-4.690	0.099
318.000	-4.863	0.099
318.100	-2.869	0.099
318.200	-3.804	0.099
318.300	-13.481	0.099
318.400	-2.455	0.099
318.500	-2.940	0.099
318.600	-20.229	0.099
318.700	2.438	0.099
318.800	-6.797	0.099
318.900	-5.847	0.099
319.000	-6.782	0.099
319.100	-15.970	0.099
319.200	-5.437	0.099
319.300	7.052	0.099
319.400	-12.117	0.099
319.500	-8.056	0.099
319.600	-12.674	0.099
319.700	9.848	0.099
319.800	-10.670	0.099
319.900	-5.581	0.099
320.000	0.284	0.099
320.100	0.558	0.099
320.200	-9.751	0.099
320.300	-9.806	0.099
320.400	-14.321	0.099
320.500	-1.146	0.099
320.600	4.642	0.099
320.700	-3.492	0.099
320.800	3.411	0.099
320.900	-3.148	0.099
321.000	2.066	0.099
321.100	4.779	0.099
321.200	-16.313	0.099
321.300	4.183	0.099
321.400	-7.774	0.099
321.500	-1.470	0.099
321.600	-5.819	0.099
321.700	-11.014	0.099
321.800	-9.328	0.099
321.900	-7.231	0.099
322.000	2.060	0.099
322.100	2.203	0.099
322.200	1.298	0.099
322.300	-0.959	0.099
322.400	1.795	0.099
322.500	-2.827	0.099
322.600	-1.435	0.099
322.700	-5.855	0.099
322.800	-3.489	0.099
322.900	-2.998	0.099
323.000	-9.366	0.099
323.100	-4.740	0.099
323.200	-12.042	0.099
323.300	12.450	0.099
323.400	-4.561	0.099
323.500	1.439	0.099
323.600	-19.172	0.099
323.700	-22.257	0.099
323.800	-4.737	0.099
323.900	2.673	0.099
324.000	4.795	0.099
324.100	-23.646	0.099
324.200	5.544	0.099
324.300	0.127	0.099
324.400	-4.905	0.099
324.500	2.052	0.099
324.600	-0.930	0.099
324.700	13.148	0.099
324.800	-3.162	0.099
324.900	-3.334	0.099
325.000	-1.516	0.099
325.100	0.795	0.099
325.200	4.168	0.099
325.300	-3.382	0.099
325.400	3.029	0.099
325.500	-8.008	0.099
325.600	-3.394	0.099
325.700	8.245	0.099
325.800	6.658	0.099
325.900	-15.242	0.099
326.000	-4.015	0.099
326.100	-3.457	0.099
326.200	-13.094	0.099
326.300	10.304	0.099
326.400	-16.394	0.099
326.500	-15.021	0.099
326.600	-12.124	0.099
326.700	-4.361	0.099
326.800	-7.703	0.099
326.900	3.592	0.099
327.000	3.494	0.099
327.100	-7.389	0.099
327.200	-12.643	0.099
327.300	-0.416	0.099
327.400	-6.853	0.099
327.500	-9.350	0.099
327.600	-0.466	0.099
327.700	-3.842	0.099
327.800	-1.832	0.099
327.900	-6.675	0.099
328.000	7.076	0.099
328.100	-15.774	0.099
328.200	8.089	0.099
328.300	8.354	0.099
328.400	-12.478	0.099
328.500	-9.625	0.099
328.600	-16.741	0.099
328.700	-4.833	0.099
328.800	2.328	0.099
328.900	12.179	0.099
329.000	-0.541	0.099
329.100	4.607	0.099
329.200	-9.914	0.099
329.300	-11.602	0.099
329.400	-4.122	0.099
329.500	-9.784	0.099
329.600	3.877	0.099
329.700	-4.272	0.099
329.800	-6.045	0.099
329.900	-1.341	0.099
330.000	-2.752	0.099
330.100	3.215	0.099
330.200	-3.534	0.099
330.300	4.706	0.099
330.400	4.364	0.099
330.500	14.531	0.099
330.600	12.901	0.099
330.700	16.172	0.099
330.800	20.441	0.099
330.900	17.746	0.099
331.000	29.358	0.099
331.100	17.252	0.099
331.200	20.128	0.099
331.300	26.180	0.099
331.400	26.331	0.099
331.500	20.344	0.099
331.600	29.573	0.099
331.700	29.806	0.099
331.800	24.482	0.099
331.900	31.875	0.099
332.000	29.720	0.099
332.100	30.020	0.099
332.200	32.006	0.099
332.300	26.019	0.099
332.400	39.803	0.099
332.500	24.659	0.099
332.600	24.238	0.099
332.700	28.113	0.099
332.800	27.424	0.099
332.900	11.047	0.099
333.000	28.682	0.099
333.100	24.304	0.099
333.200	35.975	0.099
333.300	23.379	0.099
333.400	17.568	0.099
333.500	32.307	0.099
333.600	36.041	0.099
333.700	25.566	0.099
333.800	38.819	0.099
333.900	38.941	0.099
334.000	28.365	0.099
334.100	29.116	0.099
334.200	7.356	0.099
334.300	35.510	0.099
334.400	14.519	0.099
334.500	30.738	0.099
334.600	19.495	0.099
334.700	19.329	0.099
334.800	22.789	0.099
334.900	23.496	0.099
335.000	23.769	0.099
335.100	4.789	0.099
335.200	30.187	0.099
335.300	17.438	0.099
335.400	26.840	0.099
335.500	13.951	0.099
335.600	16.279	0.099
335.700	20.960	0.099
335.800	29.920	0.099
335.900	11.924	0.099
336.000	19.681	0.099
336.100	33.415	0.099
336.200	19.374	0.099
336.300	22.904	0.099
336.400	25.350	0.099
336.500	25.193	0.099
336.600	22.722	0.099
336.700	7.569	0.099
336.800	8.276	0.099
336.900	8.242	0.099
337.000	23.228	0.099
337.100	17.985	0.099
337.200	13.738	0.099
337.300	24.171	0.099
337.400	8.842	0.099
337.500	17.784	0.099
337.600	32.092	0.099
337.700	21.811	0.099
337.800	21.009	0.099
337.900	26.462	0.099
338.000	16.251	0.099
338.100	16.153	0.099
338.200	15.555	0.099
338.300	6.777	0.099
338.400	7.731	0.099
338.500	5.264	0.099
338.600	17.278	0.099
338.700	19.573	0.099
338.800	24.905	0.099
338.900	15.694	0.099
339.000	13.246	0.099
339.100	19.576	0.099
339.200	18.155	0.099
339.300	20.592	0.099
339.400	29.083	0.099
339.500	34.030	0.099
339.600	19.285	0.099
339.700	16.335	0.099
339.800	13.517	0.099
339.900	20.687	0.099
340.000	21.625	0.099
340.100	32.317	0.099
340.200	23.516	0.099
340.300	28.159	0.099
340.400	27.209	0.099
340.500	22.255	0.099
340.600	36.145	0.099
340.700	26.963	0.099
340.800	23.580	0.099
340.900	26.019	0.099
341.000	27.519	0.099
341.100	18.726	0.099
341.200	35.931	0.099
341.300	30.438	0.099
341.400	22.294	0.099
341.500	21.847	0.099
341.600	45.730	0.099
341.700	25.744	0.099
341.800	7.942	0.099
341.900	10.789	0.099
342.000	15.204	0.099
342.100	29.195	0.099
342.200	8.448	0.099
342.300	29.158	0.099
342.400	31.144	0.099
342.500	27.235	0.099
342.600	38.807	0.099
342.700	20.240	0.099
342.800	24.551	0.099
342.900	21.580	0.099
343.000	32.760	0.099
343.100	19.873	0.099
343.200	31.104	0.099
343.300	26.766	0.099
343.400	34.143	0.099
343.500	20.144	0.099
343.600	20.520	0.099
343.700	29.525	0.099
343.800	14.913	0.099
343.900	20.028	0.099
344.000	31.395	0.099
344.100	30.614	0.099
344.200	15.583	0.099
344.300	34.348	0.099
344.400	19.031	0.099
344.500	23.893	0.099
344.600	19.138	0.099
344.700	30.593	0.099
344.800	13.232	0.099
344.900	24.160	0.099
345.000	26.490	0.099
345.100	23.261	0.099
345.200	19.367	0.099
345.300	22.297	0.099
345.400	32.601	0.099
345.500	32.406	0.099
345.600	32.097	0.099
345.700	43.688	0.099
345.800	15.042	0.099
345.900	36.674	0.099
346.000	32.352	0.099
346.100	22.205	0.099
346.200	21.037	0.099
346.300	26.129	0.099
346.400	32.260	0.099
346.500	33.337	0.099
346.600	26.121	0.099
346.700	17.075	0.099
346.800	36.096	0.099
346.900	35.300	0.099
347.000	16.927	0.099
347.100	30.231	0.099
347.200	26.646	0.099
347.300	32.964	0.099
347.400	23.135	0.099
347.500	25.339	0.099
347.600	18.986	0.099
347.700	31.266	0.099
347.800	20.345	0.099
347.900	33.935	0.099
348.000	18.634	0.099
348.100	29.968	0.099
348.200	15.835	0.099
348.300	25.658	0.099
348.400	38.818	0.099
348.500	31.139	0.099
348.600	20.419	0.099
348.700	25.229	0.099
348.800	14.713	0.099
348.900	15.741	0.099
349.000	19.737	0.099
349.100	26.707	0.099
349.200	30.042	0.099
349.300	6.590	0.099
349.400	24.677	0.099
349.500	34.217	0.099
349.600	31.794	0.099
349.700	25.356	0.099
349.800	32.829	0.099
349.900	21.842	0.099
350.000	9.269	0.099
350.100	19.278	0.099
350.200	19.550	0.099
350.300	22.752	0.099
350.400	21.582	0.099
350.500	17.680	0.099
350.600	18.684	0.099
350.700	27.413	0.099
350.800	18.109	0.099
350.900	33.659	0.099
351.000	23.278	0.099
351.100	23.788	0.099
351.200	33.348	0.099
351.300	40.242	0.099
351.400	20.419	0.099
351.500	24.617	0.099
351.600	27.485	0.099
351.700	27.095	0.099
351.800	19.639	0.099
351.900	26.713	0.099
352.000	29.757	0.099
352.100	28.186	0.099
352.200	19.519	0.099
352.300	26.746	0.099
352.400	16.074	0.099
352.500	25.262	0.099
352.600	25.664	0.099
352.700	14.583	0.099
352.800	21.494	0.099
352.900	26.778	0.099
353.000	28.189	0.099
353.100	22.722	0.099
353.200	24.699	0.099
353.300	25.898	0.099
353.400	29.874	0.099
353.500	27.235	0.099
353.600	19.926	0.099
353.700	23.220	0.099
353.800	23.808	0.099
353.900	33.114	0.099
354.000	16.851	0.099
354.100	8.593	0.099
354.200	15.570	0.099
354.300	35.194	0.099
354.400	20.840	0.099
354.500	25.846	0.099
354.600	25.242	0.099
354.700	24.748	0.099
354.800	24.014	0.099
354.900	23.367	0.099
355.000	25.810	0.099
355.100	31.319	0.099
355.200	21.737	0.099
355.300	24.414	0.099
355.400	26.853	0.099
355.500	21.320	0.099
355.600	30.751	0.099
355.700	18.573	0.099
355.800	12.695	0.099
355.900	33.224	0.099
356.000	17.732	0.099
356.100	24.403	0.099
356.200	31.949	0.099
356.300	24.871	0.099
356.400	25.185	0.099
356.500	27.068	0.099
356.600	11.785	0.099
356.700	21.952	0.099
356.800	27.318	0.099
356.900	30.584	0.099
357.000	24.537	0.099
357.100	41.860	0.099
357.200	13.335	0.099
357.300	25.242	0.099
357.400	24.433	0.099
357.500	37.748	0.099
357.600	33.105	0.099
357.700	26.930	0.099
357.800	33.196	0.099
357.900	23.149	0.099
358.000	33.417	0.099
358.100	21.961	0.099
358.200	30.720	0.099
358.300	26.221	0.099
358.400	23.369	0.099
358.500	26.114	0.099
358.600	27.506	0.099
358.700	21.707	0.099
358.800	17.411	0.099
358.900	14.221	0.099
359.000	21.018	0.099
359.100	24.010	0.099
359.200	25.221	0.099
359.300	20.851	0.099
359.400	17.594	0.099
359.500	25.907	0.099
359.600	17.850	0.099
359.700	19.265	0.099
359.800	20.580	0.099
359.900	17.192	0.099
360.000	21.494	0.099
360.100	22.644	0.099
360.200	19.289	0.099
360.300	15.734	0.099
360.400	3.609	0.099
360.500	13.775	0.099
360.600	21.920	0.099
360.700	16.460	0.099
360.800	32.978	0.099
360.900	19.439	0.099
361.000	24.929	0.099
361.100	18.160	0.099
361.200	16.277	0.099
361.300	6.250	0.099
361.400	17.764	0.099
361.500	27.119	0.099
361.600	17.739	0.099
361.700	19.896	0.099
361.800	12.547	0.099
361.900	16.555	0.099
362.000	15.477	0.099
362.100	21.901	0.099
362.200	19.645	0.099
362.300	31.853	0.099
362.400	13.581	0.099
362.500	22.275	0.099
362.600	16.834	0.099
362.700	8.064	0.099
362.800	19.758	0.099
362.900	28.071	0.099
363.000	31.584	0.099
363.100	10.431	0.099
363.200	14.205	0.099
363.300	28.815	0.099
363.400	8.073	0.099
363.500	17.071	0.099
363.600	21.596	0.099
363.700	21.227	0.099
363.800	19.961	0.099
363.900	18.722	0.099
364.000	17.120	0.099
364.100	9.248	0.099
364.200	14.123	0.099
364.300	32.388	0.099
364.400	13.360	0.099
364.500	28.471	0.099
364.600	25.450	0.099
364.700	13.794	0.099
364.800	16.260	0.099
364.900	30.111	0.099
365.000	25.204	0.099
365.100	25.563	0.099
365.200	17.139	0.099
365.300	28.187	0.099
365.400	23.193	0.099
365.500	23.768	0.099
365.600	22.248	0.099
365.700	23.126	0.099
365.800	11.086	0.099
365.900	6.706	0.099
366.000	24.740	0.099
366.100	11.195	0.099
366.200	20.561	0.099
366.300	31.955	0.099
366.400	12.467	0.099
366.500	30.595	0.099
366.600	26.543	0.099
366.700	20.696	0.099
366.800	24.429	0.099
366.900	14.476	0.099
367.000	18.405	0.099
367.100	21.621	0.099
367.200	24.448	0.099
367.300	23.228	0.099
367.400	23.412	0.099
367.500	18.208	0.099
367.600	19.637	0.099
367.700	25.991	0.099
367.800	20.164	0.099
367.900	25.352	0.099
368.000	23.320	0.099
368.100	4.390	0.099
368.200	15.313	0.099
368.300	29.997	0.099
368.400	14.348	0.099
368.500	16.145	0.099
368.600	22.112	0.099
368.700	21.345	0.099
368.800	15.601	0.099
368.900	19.368	0.099
369.000	19.249	0.099
369.100	22.594	0.099
369.200	21.602	0.099
369.300	23.089	0.099
369.400	10.908	0.099
369.500	17.039	0.099
369.600	34.350	0.099
369.700	16.125	0.099
369.800	25.068	0.099
369.900	20.769	0.099
370.000	16.198	0.099
370.100	7.859	0.099
370.200	17.717	0.099
370.300	6.693	0.099
370.400	21.953	0.099
370.500	30.776	0.099
370.600	20.389	0.099
370.700	24.093	0.099
370.800	22.086	0.099
370.900	14.487	0.099
371.000	18.665	0.099
371.100	11.424	0.099
371.200	27.835	0.099
371.300	5.993	0.099
371.400	15.104	0.099
371.500	18.525	0.099
371.600	26.649	0.099
371.700	28.835	0.099
371.800	23.216	0.099
371.900	28.631	0.099
372.000	10.861	0.099
372.100	14.683	0.099
372.200	3.171	0.099
372.300	25.095	0.099
372.400	16.984	0.099
372.500	25.510	0.099
372.600	17.575	0.099
372.700	22.729	0.099
372.800	20.286	0.099
372.900	22.591	0.099
373.000	14.787	0.099
373.100	16.947	0.099
373.200	18.904	0.099
373.300	26.110	0.099
373.400	0.361	0.099
373.500	18.575	0.099
373.600	19.083	0.099
373.700	17.244	0.099
373.800	17.651	0.099
373.900	30.383	0.099
374.000	21.771	0.099
374.100	13.221	0.099
374.200	21.805	0.099
374.300	26.449	0.099
374.400	14.582	0.099
374.500	19.477	0.099
374.600	22.936	0.099
374.700	13.085	0.099
374.800	6.609	0.099
374.900	19.127	0.099
375.000	23.834	0.099
375.100	19.284	0.099
375.200	-1.047	0.099
375.300	12.713	0.099
375.400	15.466	0.099
375.500	26.096	0.099
375.600	11.643	0.099
375.700	5.769	0.099
375.800	17.853	0.099
375.900	17.051	0.099
376.000	6.351	0.099
376.100	21.063	0.099
376.200	9.585	0.099
376.300	4.934	0.099
376.400	19.253	0.099
376.500	28.122	0.099
376.600	17.629	0.099
376.700	12.807	0.099
376.800	13.042	0.099
376.900	23.716	0.099
377.000	20.570	0.099
377.100	27.354	0.099
377.200	10.983	0.099
377.300	18.485	0.099
377.400	27.288	0.099
377.500	18.702	0.099
377.600	3.335	0.099
377.700	26.919	0.099
377.800	17.222	0.099
377.900	18.911	0.099
378.000	25.397	0.099
378.100	15.745	0.099
378.200	14.656	0.099
378.300	12.403	0.099
378.400	15.075	0.099
378.500	9.577	0.099
378.600	26.284	0.099
378.700	18.693	0.099
378.800	12.375	0.099
378.900	20.238	0.099
379.000	23.089	0.099
379.100	26.227	0.099
379.200	16.002	0.099
379.300	10.914	0.099
379.400	35.207	0.099
379.500	11.124	0.099
379.600	18.987	0.099
379.700	22.581	0.099
379.800	13.481	0.099
379.900	31.735	0.099
380.000	15.316	0.099
380.100	18.078	0.099
380.200	12.917	0.099
380.300	-2.583	0.099
380.400	20.604	0.099
380.500	10.274	0.099
380.600	22.980	0.099
380.700	11.742	0.099
380.800	12.186	0.099
380.900	23.227	0.099
381.000	32.149	0.099
381.100	17.881	0.099
381.200	23.351	0.099
381.300	19.243	0.099
381.400	17.000	0.099
381.500	24.713	0.099
381.600	36.225	0.099
381.700	14.467	0.099
381.800	26.825	0.099
381.900	26.660	0.099
382.000	13.681	0.099
382.100	9.725	0.099
382.200	15.599	0.099
382.300	14.589	0.099
382.400	-0.899	0.099
382.500	23.223	0.099
382.600	31.799	0.099
382.700	23.872	0.099
382.800	15.362	0.099
382.900	14.460	0.099
383.000	14.603	0.099
383.100	16.327	0.099
383.200	27.850	0.099
383.300	14.889	0.099
383.400	20.520	0.099
383.500	21.623	0.099
383.600	25.264	0.099
383.700	19.739	0.099
383.800	7.023	0.099
383.900	20.792	0.099
384.000	8.139	0.099
384.100	26.277	0.099
384.200	27.925	0.099
384.300	16.199	0.099
384.400	29.103	0.099
384.500	17.003	0.099
384.600	21.810	0.099
384.700	23.907	0.099
384.800	12.588	0.099
384.900	33.840	0.099
385.000	30.590	0.099
385.100	10.645	0.099
385.200	-0.752	0.099
385.300	25.849	0.099
385.400	29.624	0.099
385.500	6.502	0.099
385.600	13.687	0.099
385.700	19.960	0.099
385.800	11.852	0.099
385.900	15.726	0.099
386.000	26.813	0.099
386.100	12.317	0.099
386.200	22.475	0.099
386.300	20.029	0.099
386.400	20.836	0.099
386.500	17.953	0.099
386.600	3.828	0.099
386.700	32.963	0.099
386.800	6.795	0.099
386.900	14.826	0.099
387.000	6.231	0.099
387.100	16.932	0.099
387.200	10.215	0.099
387.300	21.520	0.099
387.400	24.685	0.099
387.500	20.686	0.099
387.600	24.680	0.099
387.700	31.047	0.099
387.800	13.795	0.099
387.900	26.940	0.099
388.000	19.910	0.099
388.100	15.189	0.099
388.200	22.397	0.099
388.300	29.195	0.099
388.400	23.128	0.099
388.500	27.810	0.099
388.600	23.450	0.099
388.700	19.767	0.099
388.800	-0.099	0.099
388.900	3.695	0.099
389.000	8.783	0.099
389.100	32.174	0.099
389.200	25.761	0.099
389.300	17.947	0.099
389.400	15.345	0.099
389.500	26.313	0.099
389.600	12.420	0.099
389.700	12.324	0.099
389.800	24.039	0.099
389.900	17.529	0.099
390.000	13.306	0.099
390.100	19.769	0.099
390.200	13.737	0.099
390.300	12.943	0.099
390.400	14.332	0.099
390.500	14.765	0.099
390.600	6.925	0.099
390.700	2.999	0.099
390.800	-6.322	0.099
390.900	3.982	0.099
391.000	-11.263	0.099
391.100	-7.497	0.099
391.200	1.265	0.099
391.300	-18.669	0.099
391.400	-12.909	0.099
391.500	-2.627	0.099
391.600	-26.559	0.099
391.700	-11.864	0.099
391.800	-32.448	0.099
391.900	-13.298	0.099
392.000	-29.497	0.099
392.100	-18.398	0.099
392.200	-27.278	0.099
392.300	-19.693	0.099
392.400	-30.077	0.099
392.500	-22.454	0.099
392.600	-18.806	0.099
392.700	-26.525	0.099
392.800	-31.928	0.099
392.900	-29.266	0.099
393.000	-36.468	0.099
393.100	-22.963	0.099
393.200	-33.677	0.099
393.300	-29.347	0.099
393.400	-13.467	0.099
393.500	-30.832	0.099
393.600	-23.348	0.099
393.700	-23.074	0.099
393.800	-23.483	0.099
393.900	-33.264	0.099
394.000	-12.122	0.099
394.100	-25.303	0.099
394.200	-36.815	0.099
394.300	-38.397	0.099
394.400	-23.266	0.099
394.500	-21.027	0.099
394.600	-23.222	0.099
394.700	-19.896	0.099
394.800	-25.639	0.099
394.900	-21.866	0.099
395.000	-26.787	0.099
395.100	-20.526	0.099
395.200	-29.609	0.099
395.300	-15.273	0.099
395.400	-40.876	0.099
395.500	-23.447	0.099
395.600	-6.154	0.099
395.700	-37.964	0.099
395.800	-25.746	0.099
395.900	-20.048	0.099
396.000	-19.668	0.099
396.100	-16.175	0.099
396.200	-31.295	0.099
396.300	-7.643	0.099
396.400	-15.952	0.099
396.500	-26.537	0.099
396.600	-19.343	0.099
396.700	-16.148	0.099
396.800	-15.461	0.099
396.900	-17.193	0.099
397.000	-17.453	0.099
397.100	-15.650	0.099
397.200	-25.387	0.099
397.300	-17.520	0.099
397.400	7.453	0.099
397.500	-10.395	0.099
397.600	-8.204	0.099
397.700	-18.259	0.099
397.800	-17.667	0.099
397.900	-15.039	0.099
398.000	-14.896	0.099
398.100	-20.573	0.099
398.200	-10.219	0.099
398.300	-2.476	0.099
398.400	-16.445	0.099
398.500	-15.917	0.099
398.600	-22.584	0.099
398.700	-12.588	0.099
398.800	-20.452	0.099
398.900	-5.458	0.099
399.000	-9.367	0.099
399.100	-24.019	0.099
399.200	-4.789	0.099
399.300	-18.486	0.099
399.400	-7.957	0.099
399.500	-6.923	0.099
399.600	-22.921	0.099
399.700	-31.452	0.099
399.800	-9.077	0.099
399.900	-15.216	0.099
400.000	-5.533	0.099
400.100	-20.848	0.099
400.200	-10.567	0.099
400.300	-13.146	0.099
400.400	-0.920	0.099
400.500	-16.100	0.099
400.600	5.304	0.099
400.700	-16.019	0.099
400.800	-5.859	0.099
400.900	-6.519	0.099
401.000	-11.126	0.099
401.100	-13.783	0.099
401.200	-8.311	0.099
401.300	-22.437	0.099
401.400	-15.175	0.099
401.500	-11.001	0.099
401.600	-8.859	0.099
401.700	5.061	0.099
401.800	-11.360	0.099
401.900	-22.582	0.099
402.000	-13.612	0.099
402.100	-22.566	0.099
402.200	-1.801	0.099
402.300	-13.419	0.099
402.400	-25.381	0.099
402.500	-3.581	0.099
402.600	-9.653	0.099
402.700	-17.053	0.099
402.800	-7.038	0.099
402.900	-18.684	0.099
403.000	2.515	0.099
403.100	-17.442	0.099
403.200	-20.226	0.099
403.300	-9.872	0.099
403.400	-5.007	0.099
403.500	-8.971	0.099
403.600	-4.476	0.099
403.700	5.099	0.099
403.800	-26.164	0.099
403.900	2.650	0.099
404.000	-17.609	0.099
404.100	-13.229	0.099
404.200	-18.604	0.099
404.300	-19.462	0.099
404.400	-13.817	0.099
404.500	-12.573	0.099
404.600	-4.998	0.099
404.700	-18.239	0.099
404.800	-17.267	0.099
404.900	-3.438	0.099
405.000	-15.788	0.099
405.100	-12.026	0.099
405.200	-20.070	0.099
405.300	-12.936	0.099
405.400	-15.427	0.099
405.500	-3.320	0.099
405.600	-5.986	0.099
405.700	-8.697	0.099
405.800	-10.316	0.099
405.900	-10.143	0.099
406.000	-0.687	0.099
406.100	-0.367	0.099
406.200	-11.744	0.099
406.300	-29.231	0.099
406.400	-17.037	0.099
406.500	3.284	0.099
406.600	-11.158	0.099
406.700	-23.041	0.099
406.800	-23.142	0.099
406.900	-14.595	0.099
407.000	0.435	0.099
407.100	-8.091	0.099
407.200	-1.754	0.099
407.300	-12.919	0.099
407.400	-7.089	0.099
407.500	-0.331	0.099
407.600	-0.485	0.099
407.700	-7.868	0.099
407.800	-1.567	0.099
407.900	-4.428	0.099
408.000	-8.434	0.099
408.100	-19.724	0.099
408.200	-11.585	0.099
408.300	-9.601	0.099
408.400	-9.165	0.099
408.500	-14.932	0.099
408.600	-7.503	0.099
408.700	-5.467	0.099
408.800	-13.496	0.099
408.900	-14.478	0.099
409.000	-12.198	0.099
409.100	-9.299	0.099
409.200	-6.560	0.099
409.300	-14.055	0.099
409.400	-11.242	0.099
409.500	-12.901	0.099
409.600	-10.238	0.099
409.700	-9.277	0.099
409.800	-23.022	0.099
409.900	-7.201	0.099
410.000	-13.320	0.099
410.100	-22.427	0.099
410.200	-3.564	0.099
410.300	-11.378	0.099
410.400	-10.091	0.099
410.500	-8.025	0.099
410.600	-22.969	0.099
410.700	-11.199	0.099
410.800	-7.311	0.099
410.900	-1.831	0.099
411.000	-22.846	0.099
411.100	-22.337	0.099
411.200	-0.518	0.099
411.300	-19.244	0.099
411.400	-13.702	0.099
411.500	-5.606	0.099
411.600	-18.416	0.099
411.700	1.884	0.099
411.800	-8.570	0.099
411.900	-19.132	0.099
412.000	-0.850	0.099
412.100	-6.120	0.099
412.200	-24.324	0.099
412.300	-24.477	0.099
412.400	-12.890	0.099
412.500	-7.729	0.099
412.600	0.674	0.099
412.700	-8.918	0.099
412.800	-8.367	0.099
412.900	-7.166	0.099
413.000	-17.005	0.099
413.100	-14.354	0.099
413.200	-12.304	0.099
413.300	1.882	0.099
413.400	-6.168	0.099
413.500	-16.054	0.099
413.600	-2.313	0.099
413.700	-23.243	0.099
413.800	-8.581	0.099
413.900	-1.928	0.099
414.000	-26.174	0.099
414.100	-17.536	0.099
414.200	6.774	0.099
414.300	-14.078	0.099
414.400	-8.868	0.099
414.500	-10.055	0.099
414.600	-18.091	0.099
414.700	-13.023	0.099
414.800	-17.334	0.099
414.900	-4.847	0.099
415.000	-15.033	0.099
415.100	-13.450	0.099
415.200	-11.738	0.099
415.300	-3.774	0.099
415.400	-11.356	0.099
415.500	-9.004	0.099
415.600	4.640	0.099
415.700	-28.497	0.099
415.800	-6.980	0.099
415.900	12.890	0.099
416.000	-5.635	0.099
416.100	-13.124	0.099
416.200	-12.008	0.099
416.300	2.625	0.099
416.400	-12.419	0.099
416.500	4.243	0.099
416.600	-2.703	0.099
416.700	-20.178	0.099
416.800	-6.231	0.099
416.900	-17.570	0.099
417.000	-11.089	0.099
417.100	-8.365	0.099
417.200	-13.383	0.099
417.300	-7.708	0.099
417.400	-15.941	0.099
417.500	-15.619	0.099
417.600	-3.794	0.099
417.700	3.731	0.099
417.800	-19.354	0.099
417.900	-16.250	0.099
418.000	-23.557	0.099
418.100	-13.241	0.099
418.200	-11.096	0.099
418.300	-9.981	0.099
418.400	-9.059	0.099
418.500	-19.768	0.099
418.600	-2.562	0.099
418.700	-19.015	0.099
418.800	-8.690	0.099
418.900	-13.711	0.099
419.000	-9.376	0.099
419.100	-9.818	0.099
419.200	-4.757	0.099
419.300	5.167	0.099
419.400	-13.923	0.099
419.500	-6.181	0.099
419.600	-10.896	0.099
419.700	-15.780	0.099
419.800	-27.681	0.099
419.900	-9.396	0.099
420.000	-1.993	0.099
420.100	-12.760	0.099
420.200	-18.939	0.099
420.300	-9.924	0.099
420.400	-15.985	0.099
420.500	-8.753	0.099
420.600	2.796	0.099
420.700	-26.495	0.099
420.800	-1.585	0.099
420.900	-11.326	0.099
421.000	-8.570	0.099
421.100	-12.129	0.099
421.200	7.430	0.099
421.300	-18.406	0.099
421.400	1.803	0.099
421.500	-3.030	0.099
421.600	-26.316	0.099
421.700	-10.181	0.099
421.800	-10.552	0.099
421.900	-22.850	0.099
422.000	-18.040	0.099
422.100	-0.780	0.099
422.200	-5.717	0.099
422.300	-2.773	0.099
422.400	-8.333	0.099
422.500	-23.570	0.099
422.600	-8.689	0.099
422.700	-8.822	0.099
422.800	-11.087	0.099
422.900	-4.501	0.099
423.000	-12.226	0.099
423.100	-10.938	0.099
423.200	-10.547	0.099
423.300	-3.292	0.099
423.400	-8.061	0.099
423.500	-7.475	0.099
423.600	-0.816	0.099
423.700	-12.741	0.099
423.800	-6.026	0.099
423.900	-14.850	0.099
424.000	-6.621	0.099
424.100	-17.749	0.099
424.200	-8.630	0.099
424.300	-8.226	0.099
424.400	-11.321	0.099
424.500	-13.967	0.099
424.600	-3.901	0.099
424.700	-20.018	0.099
424.800	-3.044	0.099
424.900	-17.135	0.099
425.000	3.361	0.099
425.100	-6.002	0.099
425.200	-13.080	0.099
425.300	-1.795	0.099
425.400	-22.846	0.099
425.500	-8.324	0.099
425.600	-6.054	0.099
425.700	-15.202	0.099
425.800	-8.621	0.099
425.900	-15.557	0.099
426.000	-11.219	0.099
426.100	-14.233	0.099
426.200	-8.567	0.099
426.300	-14.255	0.099
426.400	-19.078	0.099
426.500	-6.824	0.099
426.600	-11.731	0.099
426.700	-17.880	0.099
426.800	-1.850	0.099
426.900	-36.015	0.099
427.000	-5.028	0.099
427.100	-3.983	0.099
427.200	-4.208	0.099
427.300	-1.200	0.099
427.400	-16.385	0.099
427.500	-25.478	0.099
427.600	-13.190	0.099
427.700	-17.562	0.099
427.800	-18.658	0.099
427.900	-5.091	0.099
428.000	-5.037	0.099
428.100	-6.120	0.099
428.200	-10.693	0.099
428.300	-3.847	0.099
428.400	-10.555	0.099
428.500	-7.193	0.099
428.600	-15.351	0.099
428.700	-7.911	0.099
428.800	-10.613	0.099
428.900	-14.822	0.099
429.000	-14.764	0.099
429.100	-3.198	0.099
429.200	-14.381	0.099
429.300	-9.875	0.099
429.400	-12.094	0.099
429.500	-3.839	0.099
429.600	-22.355	0.099
429.700	-9.516	0.099
429.800	-18.268	0.099
429.900	-5.153	0.099
430.000	-3.964	0.099
430.100	-17.686	0.099
430.200	-5.944	0.099
430.300	-12.754	0.099
430.400	8.714	0.099
430.500	-12.318	0.099
430.600	2.200	0.099
430.700	-7.075	0.099
430.800	-2.707	0.099
430.900	-6.690	0.099
431.000	-17.539	0.099
431.100	-7.169	0.099
431.200	-14.406	0.099
431.300	-5.960	0.099
431.400	0.261	0.099
431.500	-5.413	0.099
431.600	-15.030	0.099
431.700	-5.899	0.099
431.800	-9.426	0.099
431.900	-13.980	0.099
432.000	-17.566	0.099
432.100	4.312	0.099
432.200	-13.370	0.099
432.300	-18.107	0.099
432.400	-18.053	0.099
432.500	-5.934	0.099
432.600	-12.862	0.099
432.700	2.151	0.099
432.800	-11.069	0.099
432.900	-10.087	0.099
433.000	-5.338	0.099
433.100	-13.950	0.099
433.200	-8.795	0.099
433.300	-5.314	0.099
433.400	-5.560	0.099
433.500	-5.805	0.099
433.600	-18.614	0.099
433.700	13.188	0.099
433.800	-15.922	0.099
433.900	-15.934	0.099
434.000	-10.916	0.099
434.100	-7.175	0.099
434.200	-14.202	0.099
434.300	10.176	0.099
434.400	-5.662	0.099
434.500	2.113	0.099
434.600	-15.966	0.099
434.700	-12.281	0.099
434.800	-2.840	0.099
434.900	-16.836	0.099
435.000	-5.413	0.099
435.100	-10.451	0.099
435.200	-16.825	0.099
435.300	-5.596	0.099
435.400	-11.049	0.099
435.500	-12.758	0.099
435.600	-2.471	0.099
435.700	-4.035	0.099
435.800	-10.246	0.099
435.900	-15.355	0.099
436.000	-7.439	0.099
436.100	-17.043	0.099
436.200	-2.656	0.099
436.300	-2.901	0.099
436.400	-14.257	0.099
436.500	-10.157	0.099
436.600	-5.098	0.099
436.700	-16.328	0.099
436.800	-14.624	0.099
436.900	-29.225	0.099
437.000	-0.998	0.099
437.100	5.104	0.099
437.200	-11.048	0.099
437.300	-9.253	0.099
437.400	9.146	0.099
437.500	-40.005	0.099
437.600	-12.610	0.099
437.700	-4.519	0.099
437.800	-15.335	0.099
437.900	-23.217	0.099
438.000	-12.381	0.099
438.100	-7.853	0.099
438.200	-17.245	0.099
438.300	-3.445	0.099
438.400	-17.993	0.099
438.500	-9.904	0.099
438.600	0.260	0.099
438.700	-6.212	0.099
438.800	-9.306	0.099
438.900	-7.580	0.099
439.000	-17.672	0.099
439.100	2.134	0.099
439.200	-5.213	0.099
439.300	-12.157	0.099
439.400	-25.710	0.099
439.500	-2.695	0.099
439.600	-0.958	0.099
439.700	-7.436	0.099
439.800	-7.399	0.099
439.900	-13.486	0.099
440.000	-9.684	0.099
440.100	-13.940	0.099
440.200	-9.399	0.099
440.300	-16.682	0.099
440.400	-8.380	0.099
440.500	1.617	0.099
440.600	-13.842	0.099
440.700	-9.719	0.099
440.800	-13.587	0.099
440.900	-13.719	0.099
441.000	-8.067	0.099
441.100	1.590	0.099
441.200	-9.841	0.099
441.300	-15.869	0.099
441.400	-1.263	0.099
441.500	-17.496	0.099
441.600	-18.449	0.099
441.700	-5.530	0.099
441.800	-9.884	0.099
441.900	0.865	0.099
442.000	-31.472	0.099
442.100	-11.262	0.099
442.200	-14.506	0.099
442.300	-23.666	0.099
442.400	-12.751	0.099
442.500	-8.616	0.099
442.600	-8.722	0.099
442.700	-11.894	0.099
442.800	0.791	0.099
442.900	-5.394	0.099
443.000	-7.992	0.099
443.100	3.493	0.099
443.200	-7.675	0.099
443.300	-16.700	0.099
443.400	-15.781	0.099
443.500	-12.803	0.099
443.600	-11.825	0.099
443.700	-9.064	0.099
443.800	-9.869	0.099
443.900	-11.091	0.099
444.000	-3.477	0.099
444.100	-1.959	0.099
444.200	-16.563	0.099
444.300	-6.950	0.099
444.400	-6.122	0.099
444.500	-17.950	0.099
444.600	0.173	0.099
444.700	-16.651	0.099
444.800	-9.238	0.099
444.900	-8.580	0.099
445.000	-4.341	0.099
445.100	-11.844	0.099
445.200	-15.264	0.099
445.300	-1.591	0.099
445.400	-0.378	0.099
445.500	-5.165	0.099
445.600	-3.491	0.099
445.700	-11.508	0.099
445.800	-5.266	0.099
445.900	-25.985	0.099
446.000	-20.044	0.099
446.100	-4.608	0.099
446.200	-5.111	0.099
446.300	-8.662	0.099
446.400	-22.956	0.099
446.500	-15.135	0.099
446.600	9.911	0.099
446.700	-24.354	0.099
446.800	0.494	0.099
446.900	-11.878	0.099
447.000	17.127	0.099
447.100	-0.294	0.099
447.200	-14.680	0.099
447.300	-4.076	0.099
447.400	1.790	0.099
447.500	-14.356	0.099
447.600	4.413	0.099
447.700	-9.477	0.099
447.800	2.703	0.099
447.900	-14.787	0.099
448.000	2.433	0.099
448.100	-1.255	0.099
448.200	-14.348	0.099
448.300	-7.290	0.099
448.400	-9.814	0.099
448.500	-10.876	0.099
448.600	6.916	0.099
448.700	0.552	0.099
448.800	-0.783	0.099
448.900	-10.166	0.099
449.000	-1.212	0.099
449.100	4.330	0.099
449.200	-8.132	0.099
449.300	-8.097	0.099
449.400	-6.840	0.099
449.500	1.072	0.099
449.600	-13.011	0.099
449.700	1.824	0.099
449.800	-3.954	0.099
449.900	-7.229	0.099
450.000	6.606	0.099
450.100	-5.306	0.099
450.200	-3.228	0.099
450.300	-12.833	0.099
450.400	-2.560	0.099
450.500	-1.857	0.099
450.600	-11.711	0.099
450.700	1.056	0.099
450.800	-8.054	0.099
450.900	-7.831	0.099
451.000	-12.970	0.099
451.100	-13.173	0.099
451.200	-6.305	0.099
451.300	-6.021	0.099
451.400	5.224	0.099
451.500	-11.932	0.099
451.600	-1.938	0.099
451.700	-11.590	0.099
451.800	3.967	0.099
451.900	-5.587	0.099
452.000	-13.280	0.099
452.100	-6.877	0.099
452.200	-5.072	0.099
452.300	1.066	0.099
452.400	-12.520	0.099
452.500	4.364	0.099
452.600	-10.582	0.099
452.700	-6.688	0.099
452.800	1.339	0.099
452.900	-2.893	0.099
453.000	-10.607	0.099
453.100	-11.160	0.099
453.200	-11.165	0.099
453.300	-9.626	0.099
453.400	-7.833	0.099
453.500	-10.229	0.099
453.600	1.603	0.099
453.700	-13.866	0.099
453.800	-5.322	0.099
453.900	-24.362	0.099
454.000	7.841	0.099
454.100	3.153	0.099
454.200	0.805	0.099
454.300	-15.828	0.099
454.400	-9.387	0.099
454.500	-16.068	0.099
454.600	-28.942	0.099
454.700	-10.750	0.099
454.800	-12.441	0.099
454.900	-2.673	0.099
455.000	0.683	0.099
455.100	9.513	0.099
455.200	-11.530	0.099
455.300	2.470	0.099
455.400	-4.148	0.099
455.500	-1.612	0.099
455.600	-14.616	0.099
455.700	-9.820	0.099
455.800	16.659	0.099
455.900	-4.002	0.099
456.000	-6.757	0.099
456.100	-2.782	0.099
456.200	-7.845	0.099
456.300	-1.649	0.099
456.400	-5.462	0.099
456.500	-8.345	0.099
456.600	-10.220	0.099
456.700	-8.611	0.099
456.800	-2.740	0.099
456.900	-6.015	0.099
457.000	-3.510	0.099
457.100	-4.725	0.099
457.200	-8.161	0.099
457.300	-8.977	0.099
457.400	-1.785	0.099
457.500	-8.636	0.099
457.600	-10.188	0.099
457.700	-3.683	0.099
457.800	-6.844	0.099
457.900	-3.289	0.099
458.000	-1.378	0.099
458.100	-7.057	0.099
458.200	-3.448	0.099
458.300	2.793	0.099
458.400	-6.881	0.099
458.500	-13.363	0.099
458.600	1.002	0.099
458.700	-9.900	0.099
458.800	-5.063	0.099
458.900	-12.390	0.099
459.000	-8.106	0.099
459.100	3.950	0.099
459.200	-5.556	0.099
459.300	-1.210	0.099
459.400	-13.744	0.099
459.500	-2.808	0.099
459.600	-6.003	0.099
459.700	-0.768	0.099
459.800	-4.439	0.099
459.900	-6.652	0.099
460.000	-1.036	0.099
460.100	-7.176	0.099
460.200	0.183	0.099
460.300	-20.176	0.099
460.400	-2.414	0.099
460.500	-8.357	0.099
460.600	3.339	0.099
460.700	-7.524	0.099
460.800	-1.472	0.099
460.900	4.993	0.099
461.000	-16.616	0.099
461.100	-2.303	0.099
461.200	16.084	0.100
461.300	-7.297	0.099
461.400	-10.828	0.099
461.500	-3.231	0.099
461.600	3.205	0.099
461.700	-14.640	0.099
461.800	-7.692	0.099
461.900	-8.977	0.099
462.000	-8.721	0.099
462.100	-25.479	0.099
462.200	7.393	0.099
462.300	-13.610	0.099
462.400	14.498	0.099
462.500	-12.247	0.099
462.600	1.634	0.099
462.700	-15.046	0.099
462.800	-12.710	0.099
462.900	-3.536	0.099
463.000	8.829	0.099
463.100	-17.938	0.099
463.200	-8.619	0.099
463.300	14.427	0.099
463.400	-7.109	0.099
463.500	9.130	0.099
463.600	-16.454	0.099
463.700	-10.989	0.099
463.800	-8.855	0.099
463.900	-7.996	0.099
464.000	-11.516	0.099
464.100	-12.511	0.099
464.200	-7.615	0.099
464.300	-4.781	0.099
464.400	-9.824	0.099
464.500	11.061	0.099
464.600	-0.750	0.099
464.700	-5.573	0.099
464.800	-8.325	0.099
464.900	9.848	0.099
465.000	-5.947	0.099
465.100	-16.411	0.099
465.200	-18.327	0.099
465.300	-0.752	0.099
465.400	-4.544	0.099
465.500	-11.248	0.099
465.600	5.590	0.099
465.700	-13.033	0.099
465.800	-7.486	0.099
465.900	-15.629	0.099
466.000	-3.382	0.099
466.100	-6.890	0.099
466.200	-14.708	0.099
466.300	-3.182	0.099
466.400	-3.598	0.099
466.500	-19.244	0.099
466.600	-14.751	0.099
466.700	-7.443	0.099
466.800	0.268	0.099
466.900	-18.992	0.099
467.000	-13.588	0.099
467.100	-5.030	0.099
467.200	-7.761	0.099
467.300	-18.818	0.099
467.400	2.845	0.099
467.500	-5.133	0.099
467.600	-5.163	0.099
467.700	-9.949	0.099
467.800	-15.568	0.099
467.900	7.462	0.099
468.000	-11.417	0.099
468.100	-0.357	0.099
468.200	-9.758	0.099
468.300	-9.917	0.099
468.400	-7.471	0.099
468.500	-5.191	0.099
468.600	-11.705	0.099
468.700	-5.861	0.099
468.800	-2.529	0.099
468.900	-8.247	0.099
469.000	-12.312	0.099
469.100	-5.652	0.099
469.200	-4.344	0.099
469.300	-12.012	0.099
469.400	-7.669	0.099
469.500	-14.924	0.099
469.600	0.038	0.099
469.700	1.827	0.099
469.800	-13.062	0.099
469.900	-10.574	0.099
470.000	-3.818	0.099
470.100	-17.363	0.099
470.200	-17.180	0.099
470.300	-12.072	0.099
470.400	-8.897	0.099
470.500	-4.607	0.099
470.600	-12.953	0.099
470.700	1.466	0.099
470.800	13.183	0.099
470.900	-4.002	0.099
471.000	3.862	0.099
471.100	-9.407	0.099
471.200	-7.557	0.099
471.300	7.620	0.099
471.400	-8.420	0.099
471.500	-9.104	0.099
471.600	5.330	0.099
471.700	-6.918	0.099
471.800	1.072	0.099
471.900	-3.564	0.099
472.000	-13.229	0.099
472.100	-13.016	0.099
472.200	-9.921	0.099
472.300	0.560	0.099
472.400	-3.511	0.099
472.500	1.094	0.099
472.600	1.992	0.099
472.700	-5.529	0.099
472.800	-2.826	0.099
472.900	8.570	0.099
473.000	0.294	0.099
473.100	-16.774	0.099
473.200	-7.937	0.099
473.300	-15.040	0.099
473.400	-5.835	0.099
473.500	-9.753	0.099
473.600	0.735	0.099
473.700	0.400	0.099
473.800	-2.494	0.099
473.900	-11.419	0.099
474.000	-17.680	0.099
474.100	-6.092	0.099
474.200	-13.712	0.099
474.300	-6.753	0.099
474.400	-3.218	0.099
474.500	-6.576	0.099
474.600	-5.156	0.099
474.700	-7.949	0.099
474.800	2.128	0.099
474.900	1.078	0.099
475.000	-4.171	0.099
475.100	-12.515	0.099
475.200	-6.197	0.099
475.300	-13.965	0.099
475.400	-15.707	0.099
475.500	-13.374	0.099
475.600	-12.570	0.099
475.700	-1.158	0.099
475.800	-2.564	0.099
475.900	-0.282	0.099
476.000	6.221	0.099
476.100	-13.596	0.099
476.200	-10.414	0.099
476.300	-6.152	0.099
476.400	-4.263	0.099
476.500	-9.079	0.099
476.600	2.772	0.099
476.700	-7.742	0.099
476.800	-7.393	0.099
476.900	-9.289	0.099
477.000	-8.096	0.099
477.100	-7.442	0.099
477.200	-4.537	0.099
477.300	-22.991	0.099
477.400	-4.404	0.099
477.500	-3.352	0.099
477.600	-9.198	0.099
477.700	-3.334	0.099
477.800	-17.127	0.099
477.900	-10.415	0.099
478.000	-7.691	0.099
478.100	7.599	0.099
478.200	5.995	0.099
478.300	-19.774	0.099
478.400	-8.669	0.099
478.500	-9.885	0.099
478.600	-1.635	0.099
478.700	5.162	0.099
478.800	2.305	0.099
478.900	-15.403	0.099
479.000	-6.349	0.099
479.100	-4.432	0.099
479.200	12.958	0.099
479.300	-6.796	0.099
479.400	10.101	0.099
479.500	-2.553	0.099
479.600	-6.830	0.099
479.700	5.960	0.099
479.800	-1.765	0.099
479.900	-5.089	0.099
480.000	3.556	0.100
480.100	-8.279	0.099
480.200	11.341	0.099
480.300	3.405	0.099
480.400	7.951	0.099
480.500	18.179	0.099
480.600	13.894	0.099
480.700	4.579	0.099
480.800	19.256	0.099
480.900	24.035	0.099
481.000	24.021	0.099
481.100	29.685	0.099
481.200	11.975	0.099
481.300	28.869	0.099
481.400	24.233	0.100
481.500	38.035	0.099
481.600	23.725	0.099
481.700	45.863	0.099
481.800	25.638	0.099
481.900	27.204	0.099
482.000	29.169	0.099
482.100	22.623	0.099
482.200	19.752	0.099
482.300	31.860	0.099
482.400	14.929	0.099
482.500	39.945	0.099
482.600	17.837	0.099
482.700	25.752	0.099
482.800	18.710	0.099
482.900	19.827	0.099
483.000	37.776	0.099
483.100	25.723	0.099
483.200	26.533	0.099
483.300	19.670	0.100
483.400	37.002	0.099
483.500	37.169	0.099
483.600	33.165	0.100
483.700	18.017	0.099
483.800	18.848	0.100
483.900	28.168	0.100
484.000	22.561	0.100
484.100	21.957	0.099
484.200	20.537	0.099
484.300	27.054	0.100
484.400	16.340	0.099
484.500	16.332	0.099
484.600	22.816	0.100
484.700	26.385	0.099
484.800	15.640	0.100
484.900	21.517	0.100
485.000	27.498	0.099
485.100	19.932	0.100
485.200	26.121	0.100
485.300	7.721	0.099
485.400	28.011	0.099
485.500	20.267	0.099
485.600	22.672	0.100
485.700	22.611	0.100
485.800	15.913	0.100
485.900	10.182	0.100
486.000	22.766	0.100
486.100	21.348	0.100
486.200	9.788	0.100
486.300	30.680	0.100
486.400	22.910	0.099
486.500	21.265	0.100
486.600	18.309	0.100
486.700	9.619	0.100
486.800	22.448	0.100
486.900	21.372	0.100
487.000	6.675	0.100
487.100	1.754	0.100
487.200	7.267	0.100
487.300	21.690	0.100
487.400	24.311	0.100
487.500	14.101	0.100
487.600	26.051	0.100
487.700	13.196	0.100
487.800	17.902	0.100
487.900	16.910	0.100
488.000	16.708	0.100
488.100	3.020	0.100
488.200	-1.206	0.100
488.300	18.520	0.100
488.400	32.835	0.100
488.500	15.426	0.100
488.600	11.212	0.100
488.700	18.485	0.100
488.800	10.254	0.100
488.900	20.362	0.100
489.000	22.060	0.100
489.100	18.102	0.100
489.200	20.962	0.100
489.300	24.900	0.100
489.400	30.004	0.100
489.500	33.010	0.100
489.600	12.876	0.100
489.700	-2.079	0.100
489.800	20.539	0.100
489.900	19.559	0.100
490.000	22.806	0.100
490.100	8.850	0.100
490.200	14.818	0.100
490.300	18.051	0.100
490.400	20.368	0.100
490.500	11.659	0.100
490.600	20.557	0.100
490.700	13.003	0.100
490.800	20.419	0.100
490.900	25.015	0.100
491.000	21.408	0.100
491.100	21.086	0.100
491.200	37.223	0.100
491.300	30.583	0.100
491.400	21.830	0.100
491.500	9.576	0.100
491.600	25.298	0.100
491.700	31.642	0.100
491.800	27.030	0.100
491.900	30.039	0.100
492.000	11.772	0.100
492.100	26.781	0.100
492.200	25.178	0.100
492.300	29.200	0.100
492.400	15.850	0.100
492.500	13.449	0.100
492.600	11.674	0.100
492.700	26.084	0.100
492.800	30.709	0.100
492.900	37.406	0.100
493.000	33.859	0.100
493.100	29.802	0.100
493.200	18.603	0.100
493.300	10.656	0.100
493.400	22.259	0.100
493.500	20.954	0.100
493.600	24.072	0.100
493.700	10.873	0.100
493.800	22.713	0.100
493.900	26.030	0.100
494.000	24.590	0.100
494.100	20.537	0.100
494.200	16.739	0.100
494.300	27.628	0.100
494.400	22.121	0.100
494.500	22.213	0.100
494.600	22.964	0.100
494.700	14.408	0.100
494.800	22.076	0.100
494.900	26.529	0.100
495.000	18.664	0.100
495.100	27.644	0.100
495.200	29.530	0.100
495.300	19.242	0.100
495.400	24.182	0.100
495.500	31.718	0.100
495.600	23.409	0.100
495.700	43.955	0.100
495.800	19.018	0.100
495.900	27.044	0.100
496.000	27.260	0.100
496.100	10.628	0.100
496.200	26.868	0.100
496.300	18.626	0.100
496.400	34.037	0.100
496.500	18.382	0.100
496.600	37.665	0.100
496.700	15.225	0.100
496.800	28.284	0.100
496.900	20.775	0.100
497.000	23.243	0.100
497.100	36.475	0.100
497.200	9.681	0.100
497.300	29.075	0.100
497.400	19.201	0.100
497.500	17.052	0.100
497.600	33.494	0.100
497.700	20.296	0.100
497.800	14.120	0.100
497.900	20.107	0.100
498.000	19.955	0.100
498.100	26.580	0.100
498.200	16.064	0.100
498.300	28.723	0.100
498.400	27.378	0.100
498.500	13.697	0.100
498.600	17.603	0.100
498.700	27.448	0.100
498.800	15.895	0.100
498.900	31.482	0.100
499.000	25.891	0.100
499.100	23.085	0.100
499.200	25.874	0.100
499.300	27.343	0.100
499.400	31.550	0.100
499.500	5.664	0.100
499.600	22.858	0.100
499.700	19.301	0.100
499.800	19.908	0.100
499.900	44.453	0.100
500.000	20.541	0.100
500.100	31.284	0.100
500.200	30.733	0.100
500.300	21.183	0.100
500.400	25.820	0.100
500.500	18.265	0.100
500.600	33.044	0.100
500.700	24.195	0.100
500.800	34.329	0.100
500.900	14.137	0.100
501.000	18.766	0.100
501.100	1.395	0.100
501.200	27.049	0.100
501.300	11.835	0.100
501.400	33.317	0.100
501.500	39.597	0.100
501.600	24.651	0.100
501.700	26.454	0.100
501.800	27.735	0.100
501.900	24.888	0.100
502.000	9.205	0.100
502.100	16.826	0.100
502.200	17.848	0.100
502.300	25.204	0.100
502.400	30.830	0.100
502.500	28.974	0.100
502.600	13.117	0.100
502.700	28.302	0.100
502.800	22.970	0.100
502.900	24.744	0.100
503.000	18.995	0.100
503.100	25.876	0.100
503.200	23.390	0.100
503.300	26.744	0.100
503.400	21.544	0.100
503.500	13.019	0.100
503.600	33.258	0.100
503.700	22.982	0.100
503.800	26.886	0.100
503.900	5.938	0.100
504.000	30.036	0.100
504.100	18.411	0.100
504.200	29.803	0.100
504.300	38.301	0.100
504.400	15.935	0.100
504.500	34.587	0.100
504.600	20.229	0.100
504.700	16.839	0.100
504.800	28.683	0.100
504.900	30.757	0.100
505.000	29.327	0.100
505.100	17.154	0.100
505.200	15.808	0.100
505.300	27.209	0.100
505.400	24.624	0.100
505.500	25.148	0.100
505.600	29.420	0.100
505.700	25.906	0.100
505.800	34.864	0.100
505.900	20.192	0.100
506.000	33.444	0.100
506.100	34.492	0.100
506.200	24.523	0.100
506.300	24.841	0.100
506.400	27.727	0.100
506.500	39.464	0.100
506.600	14.271	0.100
506.700	23.030	0.100
506.800	37.463	0.100
506.900	25.730	0.100
507.000	20.360	0.100
507.100	23.976	0.100
507.200	18.144	0.100
507.300	29.284	0.100
507.400	16.636	0.100
507.500	25.299	0.100
507.600	10.315	0.100
507.700	33.831	0.100
507.800	15.753	0.100
507.900	11.208	0.100
508.000	18.026	0.100
508.100	28.583	0.100
508.200	26.427	0.100
508.300	34.120	0.100
508.400	14.895	0.100
508.500	30.863	0.100
508.600	21.026	0.100
508.700	27.040	0.100
508.800	17.722	0.100
508.900	16.956	0.100
509.000	28.247	0.100
509.100	13.697	0.100
509.200	41.013	0.100
509.300	17.618	0.100
509.400	30.355	0.100
509.500	32.533	0.100
509.600	18.074	0.100
509.700	27.195	0.100
509.800	21.680	0.100
509.900	7.557	0.100
510.000	14.727	0.100
510.100	18.793	0.100
510.200	25.866	0.100
510.300	39.033	0.100
510.400	19.506	0.100
510.500	18.622	0.100
510.600	20.811	0.100
510.700	19.009	0.100
510.800	22.958	0.100
510.900	13.700	0.100
511.000	18.976	0.100
511.100	11.406	0.100
511.200	24.755	0.100
511.300	8.808	0.100
511.400	14.766	0.100
511.500	27.391	0.100
511.600	23.431	0.100
511.700	34.809	0.100
511.800	19.224	0.100
511.900	8.735	0.100
512.000	18.393	0.100
512.100	20.322	0.100
512.200	20.291	0.100
512.300	6.994	0.100
512.400	21.317	0.100
512.500	19.764	0.100
512.600	11.004	0.100
512.700	19.805	0.100
512.800	18.345	0.100
512.900	25.789	0.100
513.000	21.692	0.100
513.100	10.701	0.100
513.200	17.811	0.100
513.300	3.191	0.100
513.400	17.824	0.100
513.500	21.964	0.100
513.600	20.755	0.100
513.700	29.410	0.100
513.800	21.308	0.100
513.900	34.072	0.100
514.000	19.379	0.100
514.100	21.644	0.100
514.200	26.027	0.100
514.300	18.912	0.100
514.400	14.034	0.100
514.500	27.840	0.100
514.600	26.877	0.100
514.700	9.610	0.100
514.800	24.003	0.100
514.900	20.128	0.100
515.000	17.720	0.100
515.100	19.795	0.100
515.200	11.678	0.100
515.300	18.370	0.100
515.400	23.574	0.100
515.500	15.466	0.100
515.600	17.648	0.100
515.700	8.044	0.100
515.800	25.605	0.100
515.900	24.648	0.100
516.000	23.587	0.100
516.100	22.291	0.100
516.200	18.939	0.100
516.300	14.175	0.100
516.400	23.273	0.100
516.500	15.158	0.100
516.600	26.194	0.100
516.700	38.271	0.100
516.800	15.217	0.100
516.900	10.064	0.100
517.000	17.861	0.100
517.100	22.839	0.100
517.200	19.913	0.100
517.300	17.374	0.100
517.400	7.916	0.100
517.500	19.201	0.100
517.600	22.280	0.100
517.700	17.254	0.100
517.800	8.710	0.100
517.900	27.050	0.100
518.000	27.140	0.100
518.100	24.266	0.100
518.200	36.632	0.100
518.300	3.116	0.100
518.400	18.735	0.100
518.500	27.119	0.100
518.600	35.301	0.100
518.700	18.376	0.100
518.800	23.502	0.100
518.900	22.210	0.100
519.000	12.132	0.100
519.100	15.936	0.100
519.200	12.904	0.100
519.300	17.952	0.100
519.400	15.636	0.100
519.500	15.389	0.100
519.600	6.655	0.100
519.700	21.861	0.100
519.800	21.393	0.100
519.900	15.844	0.100
520.000	15.189	0.100
520.100	20.831	0.100
520.200	21.160	0.100
520.300	13.508	0.100
520.400	23.835	0.100
520.500	14.954	0.100
520.600	12.940	0.100
520.700	19.191	0.100
520.800	19.299	0.100
520.900	12.861	0.100
521.000	10.230	0.100
521.100	9.326	0.100
521.200	16.146	0.100
521.300	22.173	0.100
521.400	38.587	0.100
521.500	4.148	0.100
521.600	32.813	0.100
521.700	25.434	0.100
521.800	14.514	0.100
521.900	20.432	0.100
522.000	14.681	0.100
522.100	22.975	0.100
522.200	15.675	0.100
522.300	17.207	0.100
522.400	26.070	0.100
522.500	18.194	0.100
522.600	22.958	0.100
522.700	11.962	0.100
522.800	22.497	0.100
522.900	32.479	0.100
523.000	15.675	0.100
523.100	29.028	0.100
523.200	9.127	0.100
523.300	20.600	0.100
523.400	11.839	0.100
523.500	10.149	0.100
523.600	24.611	0.100
523.700	27.974	0.100
523.800	25.865	0.100
523.900	3.652	0.100
524.000	24.018	0.100
524.100	23.861	0.100
524.200	7.845	0.100
524.300	22.371	0.100
524.400	24.585	0.100
524.500	23.186	0.100
524.600	14.976	0.100
524.700	19.721	0.100
524.800	28.629	0.100
524.900	10.034	0.100
525.000	44.728	0.100
525.100	12.313	0.100
525.200	14.269	0.100
525.300	10.564	0.100
525.400	25.058	0.100
525.500	5.866	0.100
525.600	19.180	0.100
525.700	26.528	0.100
525.800	11.518	0.100
525.900	16.386	0.100
526.000	12.382	0.100
526.100	10.242	0.100
526.200	19.790	0.100
526.300	17.652	0.100
526.400	7.606	0.100
526.500	8.106	0.100
526.600	22.925	0.100
526.700	19.090	0.100
526.800	27.496	0.100
526.900	25.606	0.100
527.000	29.242	0.100
527.100	21.950	0.100
527.200	18.253	0.100
527.300	4.865	0.100
527.400	25.847	0.100
527.500	13.038	0.100
527.600	21.618	0.100
527.700	11.818	0.100
527.800	23.000	0.100
527.900	9.161	0.100
528.000	28.751	0.100
528.100	29.770	0.100
528.200	17.367	0.100
528.300	23.077	0.100
528.400	25.332	0.100
528.500	16.679	0.100
528.600	19.798	0.100
528.700	5.397	0.100
528.800	20.127	0.100
528.900	14.773	0.100
529.000	23.931	0.100
529.100	22.213	0.100
529.200	16.673	0.100
529.300	18.073	0.100
529.400	22.232	0.100
529.500	13.433	0.100
529.600	31.183	0.100
529.700	14.055	0.100
529.800	36.289	0.100
529.900	34.903	0.100
530.000	16.724	0.100
530.100	36.599	0.100
530.200	14.316	0.100
530.300	21.248	0.100
530.400	22.596	0.100
530.500	30.726	0.100
530.600	24.570	0.100
530.700	22.900	0.100
530.800	9.949	0.100
530.900	33.551	0.100
531.000	16.056	0.100
531.100	21.198	0.100
531.200	16.648	0.100
531.300	25.297	0.100
531.400	37.244	0.100
531.500	16.175	0.100
531.600	15.135	0.100
531.700	19.300	0.100
531.800	15.480	0.100
531.900	19.271	0.100
532.000	20.757	0.100
532.100	6.714	0.100
532.200	15.817	0.100
532.300	5.755	0.100
532.400	41.120	0.100
532.500	16.258	0.100
532.600	28.997	0.100
532.700	30.961	0.100
532.800	16.471	0.100
532.900	14.395	0.100
533.000	8.023	0.100
533.100	20.055	0.100
533.200	11.698	0.100
533.300	27.199	0.100
533.400	21.125	0.100
533.500	24.083	0.100
533.600	20.509	0.100
533.700	0.172	0.100
533.800	14.372	0.100
533.900	20.350	0.100
534.000	31.190	0.100
534.100	17.113	0.100
534.200	16.647	0.100
534.300	14.128	0.100
534.400	29.658	0.100
534.500	23.158	0.100
534.600	28.821	0.100
534.700	23.424	0.100
534.800	23.559	0.100
534.900	8.925	0.100
535.000	15.004	0.100
535.100	14.303	0.100
535.200	22.093	0.100
535.300	26.258	0.100
535.400	20.774	0.100
535.500	19.470	0.100
535.600	21.396	0.100
535.700	32.591	0.100
535.800	10.684	0.100
535.900	21.643	0.100
536.000	24.467	0.100
536.100	26.348	0.100
536.200	18.758	0.100
536.300	20.186	0.100
536.400	22.522	0.100
536.500	13.636	0.100
536.600	27.456	0.100
536.700	21.289	0.100
536.800	10.575	0.100
536.900	29.112	0.100
537.000	6.111	0.100
537.100	12.896	0.100
537.200	29.119	0.100
537.300	25.499	0.100
537.400	27.986	0.100
537.500	31.350	0.100
537.600	27.623	0.100
537.700	20.521	0.100
537.800	22.281	0.100
537.900	9.447	0.100
538.000	16.860	0.100
538.100	14.666	0.100
538.200	23.278	0.100
538.300	14.072	0.100
538.400	24.800	0.100
538.500	17.043	0.100
538.600	16.397	0.100
538.700	18.979	0.100
538.800	24.217	0.100
538.900	18.809	0.100
539.000	24.408	0.100
539.100	27.610	0.100
539.200	7.915	0.100
539.300	21.904	0.100
539.400	23.591	0.100
539.500	22.264	0.100
539.600	13.018	0.100
539.700	10.610	0.100
539.800	24.679	0.100
539.900	23.878	0.100
540.000	17.281	0.100
540.100	22.851	0.100
540.200	28.168	0.100
540.300	7.476	0.100
540.400	14.909	0.100
540.500	-2.146	0.100
540.600	0.754	0.100
540.700	14.090	0.100
540.800	3.516	0.100
540.900	-3.376	0.100
541.000	2.352	0.100
541.100	-9.433	0.100
541.200	-10.768	0.100
541.300	-7.788	0.100
541.400	-4.319	0.100
541.500	-3.010	0.100
541.600	0.010	0.100
541.700	-14.442	0.100
541.800	-7.963	0.100
541.900	-19.068	0.100
542.000	-24.372	0.100
542.100	-24.206	0.100
542.200	-16.219	0.100
542.300	-24.002	0.100
542.400	-23.629	0.100
542.500	-24.196	0.100
542.600	-14.712	0.100
542.700	-21.142	0.100
542.800	-11.748	0.100
542.900	-25.070	0.100
543.000	-23.111	0.100
543.100	-16.619	0.100
543.200	-28.834	0.100
543.300	-18.364	0.100
543.400	-35.840	0.100
543.500	-32.121	0.100
543.600	-23.112	0.100
543.700	-22.004	0.100
543.800	-34.100	0.100
543.900	-11.327	0.100
544.000	-17.969	0.100
544.100	-21.426	0.100
544.200	-49.055	0.100
544.300	-20.295	0.100
544.400	-25.805	0.100
544.500	-19.162	0.100
544.600	-20.843	0.100
544.700	-29.933	0.100
544.800	-23.246	0.100
544.900	-37.838	0.100
545.000	-15.336	0.100
545.100	-28.072	0.100
545.200	-26.015	0.100
545.300	-28.492	0.100
545.400	-31.357	0.100
545.500	-8.206	0.100
545.600	-31.622	0.100
545.700	-19.974	0.100
545.800	-25.722	0.100
545.900	-26.813	0.100
546.000	-24.880	0.100
546.100	-23.683	0.100
546.200	-37.345	0.100
546.300	-27.319	0.100
546.400	-24.791	0.100
546.500	-28.249	0.100
546.600	-31.664	0.100
546.700	-31.232	0.100
546.800	-23.998	0.100
546.900	-23.410	0.100
547.000	-14.625	0.100
547.100	-14.835	0.100
547.200	-24.495	0.100
547.300	-8.092	0.100
547.400	-35.151	0.100
547.500	-1.383	0.100
547.600	-25.028	0.100
547.700	-12.237	0.100
547.800	-17.853	0.100
547.900	-22.828	0.100
548.000	-4.927	0.100
548.100	-18.513	0.100
548.200	-21.519	0.100
548.300	-20.069	0.100
548.400	-18.427	0.100
548.500	-9.605	0.100
548.600	-13.473	0.100
548.700	-18.392	0.100
548.800	-17.866	0.100
548.900	-21.976	0.100
549.000	-15.760	0.100
549.100	-29.966	0.100
549.200	-13.340	0.100
549.300	-18.998	0.100
549.400	-13.384	0.100
549.500	-5.275	0.100
549.600	-30.316	0.100
549.700	-13.680	0.100
549.800	-8.789	0.100
549.900	-20.648	0.100
550.000	-9.720	0.100
550.100	-22.976	0.100
550.200	-9.528	0.100
550.300	-15.322	0.100
550.400	-20.102	0.100
550.500	8.310	0.100
550.600	-9.306	0.100
550.700	-13.103	0.100
550.800	-16.997	0.100
550.900	-7.085	0.100
551.000	-3.458	0.100
551.100	-12.519	0.100
551.200	-9.516	0.100
551.300	-7.748	0.100
551.400	-10.592	0.100
551.500	-10.751	0.100
551.600	-6.161	0.100
551.700	-10.784	0.100
551.800	-16.640	0.100
551.900	-12.096	0.100
552.000	-5.431	0.100
552.100	-8.077	0.100
552.200	-12.011	0.100
552.300	-29.164	0.100
552.400	-13.062	0.100
552.500	-11.368	0.100
552.600	6.347	0.100
552.700	-6.830	0.100
552.800	-10.299	0.100
552.900	-19.617	0.100
553.000	-10.175	0.100
553.100	-7.316	0.100
553.200	-17.977	0.100
553.300	-9.246	0.100
553.400	-10.907	0.100
553.500	-17.079	0.100
553.600	-11.420	0.100
553.700	-18.910	0.100
553.800	-11.034	0.100
553.900	-22.135	0.100
554.000	-1.854	0.100
554.100	-9.231	0.100
554.200	-3.147	0.100
554.300	-10.489	0.100
554.400	-16.517	0.100
554.500	-12.574	0.100
554.600	-13.673	0.100
554.700	-4.802	0.100
554.800	-13.916	0.100
554.900	-8.817	0.100
555.000	-11.278	0.100
555.100	-12.123	0.099
555.200	-5.302	0.099
555.300	-14.372	0.099
555.400	-8.620	0.099
555.500	-9.988	0.100
555.600	-12.574	0.099
555.700	-3.637	0.100
555.800	-12.967	0.099
555.900	-7.581	0.099
556.000	-14.681	0.099
556.100	-13.986	0.099
556.200	-21.365	0.099
556.300	-15.309	0.099
556.400	-24.627	0.100
556.500	-21.378	0.099
556.600	-12.121	0.099
556.700	-11.525	0.099
556.800	-9.149	0.099
556.900	-0.169	0.099
557.000	-16.632	0.099
557.100	2.534	0.099
557.200	-6.956	0.099
557.300	-20.209	0.099
557.400	-3.319	0.099
557.500	-8.925	0.099
557.600	-21.932	0.099
557.700	-18.884	0.099
557.800	-6.960	0.099
557.900	-8.805	0.099
558.000	0.372	0.099
558.100	-16.118	0.099
558.200	-18.103	0.099
558.300	-22.425	0.099
558.400	-18.317	0.099
558.500	-6.994	0.099
558.600	-16.954	0.099
558.700	-6.986	0.099
558.800	-3.820	0.099
558.900	-14.675	0.099
559.000	-19.735	0.099
559.100	-20.310	0.099
559.200	-14.130	0.099
559.300	-16.528	0.099
559.400	-9.523	0.099
559.500	4.618	0.099
559.600	-8.989	0.099
559.700	-4.210	0.099
559.800	-6.698	0.099
559.900	-8.177	0.099
560.000	-17.277	0.099
560.100	-14.630	0.099
560.200	-4.607	0.099
560.300	-11.612	0.099
560.400	-5.247	0.099
560.500	-16.234	0.099
560.600	-10.447	0.099
560.700	-13.943	0.099
560.800	-12.915	0.099
560.900	-17.107	0.099
561.000	-19.778	0.099
561.100	-5.775	0.099
561.200	-14.939	0.099
561.300	-13.935	0.099
561.400	-15.752	0.099
561.500	-0.561	0.099
561.600	-14.092	0.099
561.700	-8.160	0.099
561.800	-3.240	0.099
561.900	-20.713	0.099
562.000	-12.786	0.099
562.100	-13.171	0.099
562.200	-14.038	0.099
562.300	-12.516	0.099
562.400	-18.126	0.099
562.500	-12.112	0.099
562.600	5.594	0.099
562.700	-7.823	0.099
562.800	-10.636	0.099
562.900	-8.500	0.099
563.000	-14.347	0.099
563.100	-2.867	0.099
563.200	-19.262	0.099
563.300	-12.950	0.099
563.400	-7.721	0.099
563.500	-24.714	0.099
563.600	-17.591	0.099
563.700	-9.494	0.099
563.800	-25.070	0.099
563.900	-15.517	0.099
564.000	-25.117	0.099
564.100	-9.965	0.099
564.200	-3.081	0.099
564.300	-3.709	0.099
564.400	-12.458	0.099
564.500	-11.981	0.099
564.600	-18.325	0.099
564.700	-10.963	0.099
564.800	-22.174	0.099
564.900	-1.158	0.099
565.000	-9.211	0.099
565.100	-4.358	0.099
565.200	-5.579	0.099
565.300	-25.924	0.099
565.400	-19.701	0.099
565.500	-6.303	0.099
565.600	-0.208	0.099
565.700	-17.207	0.099
565.800	-12.670	0.099
565.900	-14.401	0.099
566.000	-18.325	0.099
566.100	-8.477	0.099
566.200	-18.129	0.099
566.300	-22.251	0.099
566.400	-4.274	0.099
566.500	-17.995	0.099
566.600	-19.596	0.099
566.700	-17.150	0.099
566.800	-23.413	0.099
566.900	-7.322	0.099
567.000	-13.208	0.099
567.100	-15.364	0.099
567.200	-18.837	0.099
567.300	-17.676	0.099
567.400	-7.177	0.099
567.500	-4.001	0.099
567.600	-17.705	0.099
567.700	1.462	0.099
567.800	-10.075	0.099
567.900	-8.652	0.099
568.000	-19.197	0.099
568.100	-16.333	0.099
568.200	-12.833	0.099
568.300	-28.836	0.099
568.400	-24.892	0.099
568.500	-21.098	0.099
568.600	-14.214	0.099
568.700	-16.642	0.099
568.800	-17.632	0.099
568.900	-9.487	0.099
569.000	-10.101	0.099
569.100	-13.566	0.099
569.200	-23.143	0.099
569.300	-16.215	0.099
569.400	-12.494	0.099
569.500	-12.242	0.099
569.600	-10.570	0.099
569.700	-12.751	0.099
569.800	-17.738	0.099
569.900	-1.070	0.099
570.000	2.725	0.099
570.100	-10.327	0.099
570.200	-13.028	0.099
570.300	-21.070	0.099
570.400	-19.190	0.099
570.500	-10.601	0.099
570.600	-18.509	0.099
570.700	-8.551	0.099
570.800	-13.320	0.099
570.900	-16.815	0.099
571.000	-15.593	0.099
571.100	-3.904	0.099
571.200	-9.906	0.099
571.300	-26.056	0.099
571.400	-12.769	0.099
571.500	-19.106	0.099
571.600	-12.885	0.099
571.700	-18.088	0.099
571.800	-7.519	0.099
571.900	-5.172	0.099
572.000	-19.638	0.099
572.100	-5.157	0.099
572.200	-10.850	0.099
572.300	-10.971	0.099
572.400	-15.700	0.099
572.500	-22.809	0.099
572.600	-3.863	0.099
572.700	-27.949	0.099
572.800	-15.348	0.099
572.900	-11.917	0.099
573.000	-14.988	0.099
573.100	-23.267	0.099
573.200	-5.688	0.099
573.300	-14.890	0.099
573.400	-8.485	0.099
573.500	-20.105	0.099
573.600	-10.461	0.099
573.700	-10.696	0.099
573.800	-15.517	0.099
573.900	-7.233	0.099
574.000	-11.957	0.099
574.100	-24.852	0.099
574.200	-5.935	0.099
574.300	-6.988	0.099
574.400	-7.597	0.099
574.500	-22.785	0.099
574.600	-9.295	0.099
574.700	-13.713	0.099
574.800	-6.047	0.099
574.900	-13.103	0.099
575.000	-18.061	0.099
575.100	-0.943	0.099
575.200	-16.771	0.099
575.300	-17.726	0.099
575.400	-8.159	0.099
575.500	-20.719	0.099
575.600	12.593	0.099
575.700	-10.857	0.099
575.800	-9.147	0.099
575.900	-26.813	0.099
576.000	-10.042	0.099
576.100	-9.906	0.099
576.200	-17.155	0.099
576.300	-19.681	0.099
576.400	-17.973	0.099
576.500	-15.750	0.099
576.600	-5.996	0.099
576.700	-14.236	0.099
576.800	-10.733	0.099
576.900	-13.811	0.099
577.000	-15.016	0.099
577.100	-3.340	0.099
577.200	-12.167	0.099
577.300	-14.386	0.099
577.400	-17.206	0.099
577.500	-14.275	0.099
577.600	-2.936	0.099
577.700	-12.498	0.099
577.800	-20.224	0.099
577.900	-14.347	0.099
578.000	-4.262	0.099
578.100	-14.486	0.099
578.200	-10.772	0.099
578.300	-18.375	0.099
578.400	-4.417	0.099
578.500	-13.709	0.099
578.600	-0.780	0.099
578.700	-9.712	0.099
578.800	-24.234	0.099
578.900	-7.172	0.099
579.000	-7.964	0.099
579.100	-7.580	0.099
579.200	-24.293	0.099
579.300	-4.574	0.099
579.400	-13.953	0.099
579.500	-18.559	0.099
579.600	-8.833	0.099
579.700	-9.434	0.099
579.800	-6.291	0.099
579.900	-17.463	0.099
580.000	-4.401	0.099
580.100	-11.117	0.099
580.200	-15.777	0.099
580.300	-8.850	0.099
580.400	-10.356	0.099
580.500	-22.405	0.099
580.600	-13.155	0.099
580.700	-2.989	0.099
580.800	3.337	0.099
580.900	0.207	0.099
581.000	-20.901	0.099
581.100	-17.684	0.099
581.200	-8.242	0.099
581.300	-7.233	0.099
581.400	-11.525	0.099
581.500	-7.620	0.099
581.600	-13.857	0.099
581.700	-14.240	0.099
581.800	-3.827	0.099
581.900	-10.712	0.099
582.000	-21.183	0.099
582.100	-9.452	0.099
582.200	-10.615	0.099
582.300	-5.527	0.099
582.400	-5.507	0.099
582.500	-9.165	0.099
582.600	-15.118	0.099
582.700	-14.684	0.099
582.800	-10.982	0.099
582.900	-19.417	0.099
583.000	-15.037	0.099
583.100	-19.335	0.099
583.200	-24.473	0.099
583.300	-5.570	0.099
583.400	-8.709	0.099
583.500	-27.580	0.099
583.600	-11.291	0.099
583.700	-4.556	0.099
583.800	-11.054	0.099
583.900	-10.603	0.099
584.000	-8.739	0.099
584.100	-11.336	0.099
584.200	-12.315	0.099
584.300	-20.131	0.099
584.400	-11.124	0.099
584.500	-16.356	0.099
584.600	-15.744	0.099
584.700	-3.316	0.099
584.800	-20.229	0.099
584.900	-6.176	0.099
585.000	-8.172	0.099
585.100	-13.972	0.099
585.200	-4.993	0.099
585.300	-14.195	0.099
585.400	-2.386	0.099
585.500	-15.146	0.099
585.600	-4.727	0.099
585.700	-13.234	0.099
585.800	6.273	0.099
585.900	-19.822	0.099
586.000	-6.604	0.099
586.100	-6.936	0.099
586.200	-4.217	0.099
586.300	-0.632	0.099
586.400	2.890	0.099
586.500	-6.300	0.099
586.600	-13.468	0.099
586.700	-15.035	0.099
586.800	-6.545	0.099
586.900	-2.665	0.099
587.000	-18.610	0.099
587.100	-14.145	0.099
587.200	7.134	0.099
587.300	10.098	0.099
587.400	-10.976	0.099
587.500	-24.926	0.099
587.600	-15.041	0.099
587.700	-9.469	0.099
587.800	-25.661	0.099
587.900	-5.164	0.099
588.000	-4.676	0.099
588.100	-20.101	0.099
588.200	-3.473	0.099
588.300	-12.255	0.099
588.400	-4.725	0.099
588.500	4.004	0.099
588.600	-21.747	0.099
588.700	3.577	0.099
588.800	-5.349	0.099
588.900	-2.581	0.099
589.000	-18.183	0.099
589.100	-25.097	0.099
589.200	-1.210	0.099
589.300	-4.183	0.099
589.400	4.402	0.099
589.500	9.511	0.099
589.600	-14.493	0.099
589.700	-24.877	0.099
589.800	-12.884	0.099
589.900	2.892	0.099
590.000	-7.346	0.099
590.100	-16.566	0.099
590.200	-10.950	0.099
590.300	-6.840	0.099
590.400	-20.896	0.099
590.500	-1.244	0.099
590.600	-5.944	0.099
590.700	-12.048	0.099
590.800	-14.945	0.099
590.900	-3.805	0.099
591.000	-3.295	0.099
591.100	-6.633	0.099
591.200	-9.386	0.099
591.300	-24.353	0.099
591.400	-0.380	0.099
591.500	-17.603	0.099
591.600	-8.140	0.099
591.700	-8.967	0.099
591.800	-8.390	0.099
591.900	-18.869	0.099
592.000	-7.797	0.099
592.100	-14.488	0.099
592.200	-8.063	0.099
592.300	-15.106	0.099
592.400	-4.331	0.099
592.500	-2.488	0.099
592.600	-9.478	0.099
592.700	-7.870	0.099
592.800	-5.103	0.099
592.900	-4.738	0.099
593.000	-0.853	0.099
593.100	-14.872	0.099
593.200	3.952	0.099
593.300	-19.031	0.099
593.400	-22.518	0.099
593.500	-8.171	0.099
593.600	-3.972	0.099
593.700	-17.637	0.099
593.800	-7.981	0.099
593.900	-18.680	0.099
594.000	0.631	0.099
594.100	1.908	0.099
594.200	10.343	0.099
594.300	-10.979	0.099
594.400	-6.614	0.099
594.500	-18.807	0.099
594.600	-11.280	0.099
594.700	-14.891	0.099
594.800	-12.161	0.099
594.900	0.066	0.099
595.000	-26.256	0.099
595.100	5.907	0.099
595.200	-8.671	0.099
595.300	-16.218	0.099
595.400	-14.178	0.099
595.500	11.714	0.099
595.600	-10.041	0.099
595.700	-11.127	0.099
595.800	-5.879	0.099
595.900	1.703	0.099
596.000	-15.003	0.099
596.100	0.767	0.099
596.200	-25.033	0.099
596.300	-4.846	0.099
596.400	-14.686	0.099
596.500	-6.972	0.099
596.600	-5.379	0.099
596.700	6.400	0.099
596.800	-4.499	0.099
596.900	-0.979	0.099
597.000	-15.288	0.099
597.100	-6.583	0.099
597.200	-7.681	0.099
597.300	-5.679	0.099
597.400	-10.168	0.099
597.500	4.069	0.099
597.600	-13.302	0.099
597.700	-1.652	0.099
597.800	-8.038	0.099
597.900	-17.002	0.099
598.000	-9.602	0.099
598.100	-6.106	0.099
598.200	-24.536	0.099
598.300	-19.758	0.099
598.400	-4.728	0.099
598.500	-16.771	0.099
598.600	-8.355	0.099
598.700	-20.676	0.099
598.800	-4.860	0.099
598.900	-5.671	0.099
599.000	-11.347	0.099
599.100	-9.570	0.099
599.200	-8.574	0.099
599.300	-0.680	0.099
599.400	-16.839	0.099
599.500	-9.781	0.099
599.600	-10.826	0.099
599.700	-11.541	0.099
599.800	5.300	0.099
599.900	-1.760	0.099
600.000	-18.588	0.099
600.100	22.718	0.099
600.200	-1.881	0.099
600.300	-4.471	0.099
600.400	-13.540	0.099
600.500	-6.582	0.099
600.600	-2.446	0.099
600.700	-15.860	0.099
600.800	10.059	0.099
600.900	9.682	0.099
601.000	-1.294	0.099
601.100	-11.922	0.099
601.200	-10.673	0.099
601.300	-5.076	0.099
601.400	-13.290	0.099
601.500	-5.284	0.099
601.600	-6.581	0.099
601.700	-3.936	0.099
601.800	-20.186	0.099
601.900	-4.822	0.099
602.000	3.218	0.099
602.100	2.787	0.099
602.200	-12.174	0.099
602.300	-1.963	0.099
602.400	-12.184	0.099
602.500	-15.187	0.099
602.600	4.624	0.099
602.700	-15.043	0.099
602.800	-3.697	0.099
602.900	-11.975	0.099
603.000	-4.807	0.099
603.100	-2.863	0.099
603.200	0.860	0.099
603.300	-1.934	0.099
603.400	-11.486	0.099
603.500	3.032	0.099
603.600	-1.173	0.099
603.700	-7.431	0.099
603.800	-15.893	0.099
603.900	-19.404	0.099
604.000	-4.395	0.099
604.100	-8.621	0.099
604.200	-15.721	0.099
604.300	-4.073	0.099
604.400	-2.956	0.099
604.500	-11.856	0.099
604.600	-17.641	0.099
604.700	-14.352	0.099
604.800	-0.858	0.099
604.900	-4.843	0.099
605.000	-7.894	0.099
605.100	3.853	0.099
605.200	4.150	0.099
605.300	-8.097	0.099
605.400	-11.886	0.099
605.500	-19.496	0.099
605.600	-6.268	0.099
605.700	-6.726	0.099
605.800	-10.441	0.099
605.900	-12.653	0.099
606.000	-5.056	0.099
606.100	0.325	0.099
606.200	-6.392	0.099
606.300	-12.396	0.099
606.400	5.561	0.099
606.500	-15.227	0.099
606.600	-1.614	0.099
606.700	10.517	0.099
606.800	-11.008	0.099
606.900	-15.489	0.099
607.000	-1.408	0.099
607.100	-4.994	0.099
607.200	-9.773	0.099
607.300	-5.453	0.099
607.400	-9.330	0.099
607.500	-12.310	0.099
607.600	-15.378	0.099
607.700	-7.486	0.099
607.800	-9.024	0.099
607.900	1.789	0.099
608.000	-4.948	0.099
608.100	-3.801	0.099
608.200	3.253	0.099
608.300	0.527	0.099
608.400	-18.539	0.099
608.500	-5.285	0.099
608.600	-10.720	0.099
608.700	3.075	0.099
608.800	-2.480	0.099
608.900	-5.649	0.099
609.000	-15.647	0.099
609.100	-12.655	0.099
609.200	1.239	0.099
609.300	2.068	0.099
609.400	0.021	0.099
609.500	-1.906	0.099
609.600	-15.844	0.099
609.700	-11.328	0.099
609.800	-1.826	0.099
609.900	-3.233	0.099
610.000	2.450	0.099
610.100	-9.579	0.099
610.200	-3.138	0.099
610.300	-3.344	0.099
610.400	5.235	0.099
610.500	-12.345	0.099
610.600	-0.160	0.099
610.700	-8.850	0.099
610.800	-3.614	0.099
610.900	-9.004	0.099
611.000	1.943	0.099
611.100	-21.443	0.099
611.200	-1.258	0.099
611.300	-9.593	0.099
611.400	11.472	0.099
611.500	-20.896	0.099
611.600	4.725	0.099
611.700	-6.708	0.099
611.800	3.357	0.099
611.900	-1.335	0.099
612.000	-7.939	0.099
612.100	-3.651	0.099
612.200	3.703	0.099
612.300	-0.617	0.099
612.400	-0.866	0.099
612.500	2.366	0.099
612.600	-11.279	0.099
612.700	6.948	0.099
612.800	2.979	0.099
612.900	-13.285	0.099
613.000	-4.247	0.099
613.100	1.333	0.099
613.200	-20.138	0.099
613.300	-4.455	0.099
613.400	-9.676	0.099
613.500	-16.141	0.099
613.600	-8.901	0.099
613.700	-2.777	0.099
613.800	-10.502	0.099
613.900	-5.065	0.099
614.000	-7.938	0.099
614.100	-6.562	0.099
614.200	-10.233	0.099
614.300	3.132	0.099
614.400	11.863	0.099
614.500	-19.268	0.099
614.600	8.933	0.099
614.700	-12.555	0.099
614.800	-3.251	0.099
614.900	0.861	0.099
615.000	-13.381	0.099
615.100	-9.614	0.099
615.200	-12.548	0.099
615.300	-2.631	0.099
615.400	-9.951	0.099
615.500	-1.188	0.099
615.600	9.346	0.099
615.700	8.337	0.099
615.800	-9.875	0.099
615.900	-3.207	0.099
616.000	-10.084	0.099
616.100	-5.178	0.099
616.200	-2.198	0.099
616.300	-12.380	0.099
616.400	7.589	0.099
616.500	-13.895	0.099
616.600	-21.271	0.099
616.700	-7.674	0.099
616.800	-13.405	0.099
616.900	-15.144	0.099
617.000	-1.593	0.099
617.100	-7.643	0.099
617.200	1.708	0.099
617.300	-10.184	0.099
617.400	-14.595	0.099
617.500	-4.517	0.099
617.600	-3.481	0.099
617.700	8.697	0.099
617.800	-6.819	0.099
617.900	-5.453	0.099
618.000	-7.507	0.099
618.100	-10.462	0.099
618.200	-5.421	0.099
618.300	-2.460	0.099
618.400	-10.948	0.099
618.500	-11.879	0.099
618.600	-5.917	0.099
618.700	1.363	0.099
618.800	-1.960	0.099
618.900	-14.468	0.099
619.000	-2.564	0.099
619.100	1.582	0.099
619.200	-5.439	0.099
619.300	-8.759	0.099
619.400	-22.077	0.099
619.500	5.694	0.099
619.600	-9.236	0.099
619.700	-5.218	0.099
619.800	-7.964	0.099
619.900	4.091	0.099
620.000	-4.811	0.099
620.100	2.216	0.099
620.200	-3.986	0.099
620.300	-0.160	0.099
620.400	-15.490	0.099
620.500	-4.767	0.099
620.600	0.838	0.099
620.700	-6.536	0.099
620.800	2.147	0.099
620.900	-1.309	0.099
621.000	2.449	0.099
621.100	10.449	0.099
621.200	-2.180	0.099
621.300	-1.573	0.099
621.400	-7.382	0.099
621.500	5.964	0.099
621.600	-3.269	0.099
621.700	-4.181	0.099
621.800	-8.206	0.099
621.900	-7.196	0.099
622.000	8.280	0.099
622.100	-1.935	0.099
622.200	-4.566	0.099
622.300	-0.576	0.099
622.400	-11.435	0.099
622.500	-16.630	0.099
622.600	-21.142	0.099
622.700	1.420	0.099
622.800	-17.688	0.099
622.900	-10.926	0.099
623.000	-0.062	0.099
623.100	-8.332	0.099
623.200	-12.534	0.099
623.300	-12.074	0.099
623.400	-6.663	0.099
623.500	8.737	0.099
623.600	-5.100	0.099
623.700	-16.353	0.099
623.800	-1.526	0.099
623.900	-19.438	0.099
624.000	-10.684	0.099
624.100	20.392	0.099
624.200	-5.780	0.099
624.300	-2.476	0.099
624.400	-26.592	0.099
624.500	-1.069	0.099
624.600	-6.522	0.099
624.700	-8.062	0.099
624.800	-3.582	0.099
624.900	13.237	0.099
625.000	-27.770	0.099
625.100	-17.199	0.099
625.200	-13.173	0.099
625.300	0.880	0.099
625.400	-14.294	0.099
625.500	-9.891	0.099
625.600	-9.303	0.099
625.700	-3.996	0.099
625.800	-14.355	0.099
625.900	-10.228	0.099
626.000	-1.606	0.099
626.100	-0.955	0.099
626.200	-5.591	0.099
626.300	-10.919	0.099
626.400	-0.252	0.099
626.500	-4.537	0.099
626.600	-2.956	0.099
626.700	4.785	0.099
626.800	-8.854	0.099
626.900	-21.189	0.099
627.000	-7.257	0.099
627.100	-10.737	0.099
627.200	11.034	0.099
627.300	-19.858	0.099
627.400	-9.782	0.099
627.500	-6.318	0.099
627.600	8.994	0.099
627.700	-9.510	0.099
627.800	-5.928	0.099
627.900	5.185	0.099
628.000	-9.961	0.099
628.100	1.324	0.099
628.200	6.306	0.099
628.300	-9.696	0.099
628.400	2.860	0.099
628.500	-3.329	0.099
628.600	0.702	0.099
628.700	-4.235	0.099
628.800	6.904	0.099
628.900	-0.895	0.099
629.000	-2.107	0.099
629.100	-3.931	0.099
629.200	-7.477	0.099
629.300	-10.903	0.099
629.400	-6.208	0.099
629.500	-1.755	0.099
629.600	-4.634	0.099
629.700	0.549	0.099
629.800	-10.325	0.099
629.900	4.009	0.099
630.000	-9.390	0.099
630.100	-8.905	0.099
630.200	0.981	0.099
630.300	11.400	0.099
630.400	4.730	0.099
630.500	18.587	0.099
630.600	-0.787	0.099
630.700	22.034	0.099
630.800	22.229	0.099
630.900	31.679	0.099
631.000	5.287	0.099
631.100	32.195	0.099
631.200	20.822	0.099
631.300	26.011	0.099
631.400	25.320	0.099
631.500	34.844	0.099
631.600	16.580	0.099
631.700	31.387	0.099
631.800	36.447	0.099
631.900	30.076	0.099
632.000	31.107	0.099
632.100	34.290	0.099
632.200	24.836	0.099
632.300	34.957	0.099
632.400	34.768	0.099
632.500	34.657	0.099
632.600	29.117	0.099
632.700	24.373	0.099
632.800	30.407	0.099
632.900	33.724	0.099
633.000	35.450	0.099
633.100	25.008	0.099
633.200	26.026	0.099
633.300	31.248	0.099
633.400	20.738	0.099
633.500	19.022	0.099
633.600	32.855	0.099
633.700	22.446	0.099
633.800	18.343	0.099
633.900	38.562	0.099
634.000	21.672	0.099
634.100	14.539	0.099
634.200	19.750	0.099
634.300	38.056	0.099
634.400	24.712	0.099
634.500	29.627	0.099
634.600	23.094	0.099
634.700	24.292	0.099
634.800	19.145	0.099
634.900	17.320	0.099
635.000	27.607	0.099
635.100	21.552	0.099
635.200	32.122	0.099
635.300	22.638	0.099
635.400	20.575	0.099
635.500	15.116	0.099
635.600	29.305	0.099
635.700	29.886	0.099
635.800	20.599	0.099
635.900	24.026	0.099
636.000	10.315	0.099
636.100	17.456	0.099
636.200	-1.653	0.099
636.300	14.925	0.099
636.400	20.230	0.099
636.500	19.142	0.099
636.600	14.978	0.099
636.700	8.923	0.099
636.800	23.227	0.099
636.900	5.540	0.099
637.000	31.403	0.099
637.100	11.736	0.099
637.200	26.610	0.099
637.300	3.871	0.099
637.400	29.420	0.099
637.500	4.316	0.099
637.600	23.274	0.099
637.700	10.028	0.099
637.800	19.208	0.099
637.900	9.973	0.099
638.000	9.911	0.099
638.100	15.420	0.099
638.200	25.983	0.099
638.300	12.380	0.099
638.400	9.498	0.099
638.500	18.811	0.099
638.600	20.761	0.099
638.700	3.948	0.099
638.800	23.775	0.099
638.900	13.636	0.099
639.000	28.043	0.099
639.100	25.474	0.099
639.200	26.359	0.099
639.300	42.532	0.099
639.400	21.302	0.099
639.500	17.573	0.099
639.600	14.673	0.099
639.700	11.710	0.099
639.800	6.249	0.099
639.900	7.436	0.099
640.000	27.336	0.099
640.100	23.397	0.099
640.200	21.703	0.099
640.300	12.417	0.099
640.400	14.957	0.099
640.500	20.426	0.099
640.600	16.873	0.099
640.700	12.612	0.099
640.800	40.057	0.099
640.900	22.908	0.099
641.000	15.459	0.099
641.100	9.098	0.099
641.200	34.056	0.099
641.300	35.064	0.099
641.400	10.710	0.099
641.500	25.448	0.099
641.600	16.065	0.099
641.700	20.780	0.099
641.800	18.535	0.099
641.900	20.779	0.099
642.000	22.708	0.099
642.100	20.149	0.099
642.200	29.806	0.099
642.300	29.882	0.099
642.400	18.096	0.099
642.500	23.583	0.099
642.600	19.286	0.099
642.700	8.778	0.099
642.800	17.247	0.099
642.900	7.588	0.099
643.000	26.317	0.099
643.100	13.784	0.099
643.200	30.479	0.099
643.300	21.656	0.099
643.400	24.312	0.099
643.500	27.038	0.099
643.600	24.130	0.099
643.700	30.796	0.099
643.800	20.394	0.099
643.900	27.275	0.099
644.000	8.432	0.099
644.100	44.687	0.099
644.200	23.868	0.099
644.300	20.491	0.099
644.400	25.125	0.099
644.500	25.336	0.099
644.600	18.474	0.099
644.700	24.865	0.099
644.800	12.995	0.099
644.900	27.714	0.099
645.000	27.017	0.099
645.100	25.986	0.099
645.200	25.456	0.099
645.300	24.421	0.099
645.400	25.817	0.099
645.500	15.246	0.099
645.600	21.917	0.099
645.700	25.979	0.099
645.800	22.935	0.099
645.900	2.171	0.099
646.000	42.631	0.099
646.100	27.989	0.099
646.200	14.934	0.099
646.300	22.180	0.099
646.400	21.671	0.099
646.500	30.151	0.099
646.600	29.064	0.099
646.700	26.697	0.099
646.800	15.853	0.099
646.900	28.733	0.099
647.000	27.186	0.099
647.100	21.610	0.099
647.200	17.873	0.099
647.300	16.363	0.099
647.400	40.037	0.099
647.500	38.520	0.099
647.600	23.712	0.099
647.700	27.622	0.099
647.800	22.471	0.099
647.900	26.783	0.099
648.000	31.616	0.099
648.100	30.833	0.099
648.200	29.215	0.099
648.300	21.266	0.099
648.400	31.170	0.099
648.500	9.848	0.099
648.600	25.166	0.099
648.700	14.650	0.099
648.800	40.389	0.099
648.900	34.557	0.099
649.000	28.396	0.099
649.100	27.361	0.099
649.200	23.657	0.099
649.300	18.110	0.099
649.400	16.510	0.099
649.500	21.142	0.099
649.600	19.346	0.099
649.700	28.867	0.099
649.800	17.299	0.099
649.900	31.447	0.099
650.000	14.869	0.099
650.100	19.934	0.099
650.200	17.195	0.099
650.300	30.812	0.099
650.400	23.208	0.099
650.500	20.605	0.099
650.600	23.197	0.099
650.700	20.379	0.099
650.800	35.868	0.099
650.900	18.737	0.099
651.000	39.498	0.099
651.100	17.587	0.099
651.200	25.519	0.099
651.300	31.754	0.099
651.400	22.917	0.099
651.500	17.505	0.099
651.600	33.668	0.099
651.700	14.326	0.099
651.800	19.536	0.099
651.900	23.147	0.099
652.000	43.197	0.099
652.100	15.210	0.099
652.200	37.584	0.099
652.300	36.959	0.099
652.400	24.071	0.099
652.500	14.547	0.099
652.600	23.215	0.099
652.700	31.264	0.099
652.800	25.375	0.099
652.900	12.023	0.099
653.000	21.161	0.099
653.100	38.124	0.099
653.200	28.065	0.099
653.300	35.358	0.099
653.400	23.043	0.099
653.500	20.334	0.099
653.600	30.298	0.099
653.700	24.825	0.099
653.800	22.167	0.099
653.900	18.768	0.099
654.000	19.273	0.099
654.100	25.974	0.099
654.200	18.424	0.099
654.300	22.618	0.099
654.400	17.572	0.099
654.500	28.287	0.099
654.600	25.112	0.099
654.700	24.238	0.099
654.800	13.037	0.099
654.900	23.019	0.099
655.000	18.688	0.099
655.100	31.168	0.099
655.200	19.129	0.099
655.300	23.368	0.099
655.400	17.484	0.099
655.500	13.191	0.099
655.600	20.296	0.099
655.700	12.142	0.099
655.800	41.060	0.099
655.900	18.635	0.099
656.000	7.135	0.099
656.100	21.233	0.099
656.200	22.385	0.099
656.300	19.160	0.099
656.400	19.205	0.099
656.500	33.244	0.099
656.600	20.843	0.099
656.700	13.534	0.099
656.800	16.719	0.099
656.900	32.936	0.099
657.000	29.797	0.099
657.100	17.982	0.099
657.200	17.113	0.099
657.300	23.722	0.099
657.400	19.907	0.099
657.500	13.089	0.099
657.600	35.031	0.099
657.700	19.149	0.099
657.800	30.644	0.099
657.900	23.254	0.099
658.000	26.128	0.099
658.100	25.823	0.099
658.200	31.495	0.099
658.300	24.968	0.099
658.400	20.336	0.099
658.500	17.056	0.099
658.600	19.218	0.099
658.700	8.120	0.099
658.800	25.402	0.099
658.900	9.099	0.099
659.000	14.552	0.099
659.100	25.940	0.099
659.200	27.491	0.099
659.300	25.850	0.099
659.400	16.918	0.099
659.500	10.079	0.099
659.600	24.903	0.099
659.700	20.637	0.099
659.800	23.142	0.099
659.900	14.133	0.099
660.000	21.846	0.099
660.100	19.705	0.099
660.200	24.755	0.099
660.300	25.568	0.099
660.400	20.995	0.099
660.500	24.420	0.099
660.600	39.956	0.099
660.700	26.153	0.099
660.800	26.121	0.099
660.900	11.496	0.099
661.000	25.536	0.099
661.100	27.071	0.099
661.200	31.555	0.099
661.300	22.442	0.099
661.400	35.623	0.099
661.500	20.545	0.099
661.600	19.508	0.099
661.700	18.893	0.099
661.800	13.637	0.099
661.900	18.666	0.099
662.000	14.895	0.099
662.100	30.992	0.099
662.200	22.438	0.099
662.300	25.420	0.099
662.400	22.309	0.099
662.500	27.972	0.099
662.600	8.614	0.099
662.700	20.178	0.099
662.800	29.252	0.099
662.900	27.135	0.099
663.000	36.120	0.099
663.100	22.618	0.099
663.200	19.631	0.099
663.300	22.029	0.099
663.400	13.521	0.099
663.500	29.452	0.099
663.600	25.001	0.099
663.700	20.203	0.099
663.800	18.729	0.099
663.900	13.067	0.099
664.000	16.123	0.099
664.100	34.262	0.099
664.200	27.427	0.099
664.300	13.903	0.099
664.400	16.451	0.099
664.500	40.925	0.099
664.600	17.822	0.099
664.700	23.833	0.099
664.800	20.396	0.099
664.900	17.956	0.099
665.000	17.380	0.099
665.100	21.585	0.099
665.200	18.767	0.099
665.300	29.527	0.099
665.400	25.166	0.099
665.500	13.742	0.099
665.600	21.273	0.099
665.700	22.739	0.099
665.800	26.029	0.099
665.900	22.766	0.099
666.000	21.440	0.099
666.100	14.128	0.099
666.200	22.309	0.099
666.300	18.722	0.099
666.400	17.603	0.099
666.500	23.025	0.099
666.600	16.483	0.099
666.700	18.844	0.099
666.800	26.827	0.099
666.900	15.180	0.099
667.000	24.562	0.099
667.100	18.570	0.099
667.200	12.688	0.099
667.300	23.190	0.099
667.400	12.409	0.099
667.500	24.320	0.099
667.600	24.718	0.099
667.700	5.001	0.099
667.800	23.479	0.099
667.900	28.995	0.099
668.000	21.043	0.099
668.100	11.180	0.099
668.200	28.143	0.099
668.300	31.558	0.099
668.400	14.927	0.099
668.500	16.869	0.099
668.600	9.349	0.099
668.700	15.751	0.099
668.800	-0.235	0.099
668.900	21.467	0.099
669.000	17.018	0.099
669.100	14.343	0.099
669.200	12.226	0.099
669.300	5.268	0.099
669.400	17.680	0.099
669.500	9.403	0.099
669.600	25.721	0.099
669.700	18.638	0.099
669.800	22.844	0.099
669.900	32.629	0.099
670.000	17.940	0.099
670.100	21.102	0.099
670.200	25.668	0.099
670.300	25.760	0.099
670.400	9.216	0.099
670.500	6.252	0.099
670.600	13.660	0.099
670.700	21.754	0.099
670.800	5.059	0.099
670.900	16.485	0.099
671.000	26.715	0.099
671.100	20.830	0.099
671.200	22.572	0.099
671.300	8.824	0.099
671.400	4.917	0.099
671.500	13.999	0.099
671.600	28.489	0.099
671.700	27.054	0.099
671.800	27.918	0.099
671.900	14.275	0.099
672.000	15.916	0.099
672.100	13.870	0.099
672.200	13.408	0.099
672.300	20.211	0.099
672.400	17.381	0.099
672.500	13.377	0.099
672.600	24.369	0.099
672.700	19.088	0.099
672.800	20.455	0.099
672.900	31.784	0.099
673.000	16.302	0.099
673.100	23.468	0.099
673.200	28.096	0.099
673.300	24.986	0.099
673.400	22.284	0.099
673.500	16.563	0.099
673.600	26.897	0.099
673.700	19.990	0.099
673.800	26.692	0.099
673.900	22.788	0.099
674.000	24.773	0.099
674.100	27.075	0.099
674.200	21.296	0.099
674.300	19.455	0.099
674.400	13.351	0.099
674.500	30.567	0.099
674.600	15.514	0.099
674.700	17.768	0.099
674.800	18.542	0.099
674.900	20.543	0.099
675.000	27.578	0.099
675.100	18.650	0.099
675.200	18.953	0.099
675.300	23.976	0.099
675.400	12.070	0.099
675.500	15.195	0.099
675.600	25.523	0.099
675.700	25.220	0.099
675.800	11.040	0.099
675.900	9.674	0.099
676.000	3.573	0.099
676.100	20.757	0.099
676.200	18.484	0.099
676.300	15.926	0.099
676.400	14.930	0.099
676.500	15.237	0.099
676.600	30.136	0.099
676.700	30.784	0.099
676.800	15.796	0.099
676.900	21.665	0.099
677.000	15.791	0.099
677.100	21.355	0.099
677.200	2.367	0.099
677.300	22.254	0.099
677.400	18.883	0.099
677.500	19.608	0.099
677.600	26.520	0.099
677.700	24.554	0.099
677.800	26.521	0.099
677.900	28.721	0.099
678.000	22.529	0.099
678.100	6.451	0.099
678.200	7.607	0.099
678.300	21.510	0.099
678.400	20.737	0.099
678.500	15.236	0.099
678.600	18.820	0.099
678.700	21.807	0.099
678.800	3.931	0.099
678.900	28.985	0.099
679.000	17.950	0.099
679.100	17.045	0.099
679.200	21.970	0.099
679.300	46.193	0.099
679.400	18.916	0.099
679.500	34.142	0.099
679.600	28.431	0.099
679.700	15.434	0.099
679.800	21.356	0.099
679.900	34.134	0.099
680.000	15.697	0.099
680.100	31.337	0.099
680.200	27.074	0.099
680.300	5.957	0.099
680.400	20.312	0.099
680.500	31.703	0.099
680.600	8.672	0.099
680.700	17.215	0.099
680.800	32.540	0.099
680.900	24.818	0.099
681.000	9.502	0.099
681.100	21.713	0.099
681.200	24.837	0.099
681.300	32.705	0.099
681.400	10.770	0.099
681.500	15.515	0.099
681.600	28.450	0.099
681.700	19.391	0.099
681.800	9.296	0.099
681.900	9.389	0.099
682.000	17.371	0.099
682.100	17.088	0.099
682.200	8.656	0.099
682.300	20.025	0.099
682.400	18.567	0.099
682.500	15.453	0.099
682.600	10.622	0.099
682.700	3.301	0.099
682.800	16.887	0.099
682.900	20.503	0.099
683.000	24.246	0.099
683.100	28.157	0.099
683.200	10.266	0.099
683.300	17.655	0.099
683.400	16.949	0.099
683.500	32.163	0.099
683.600	27.349	0.099
683.700	20.924	0.099
683.800	5.343	0.099
683.900	20.959	0.099
684.000	30.191	0.099
684.100	22.962	0.099
684.200	18.357	0.099
684.300	25.043	0.099
684.400	24.605	0.099
684.500	14.650	0.099
684.600	22.073	0.099
684.700	36.977	0.099
684.800	13.531	0.099
684.900	20.347	0.099
685.000	25.118	0.099
685.100	20.091	0.099
685.200	24.358	0.099
685.300	14.652	0.099
685.400	21.930	0.099
685.500	18.879	0.099
685.600	19.676	0.099
685.700	17.049	0.099
685.800	12.836	0.099
685.900	19.028	0.099
686.000	16.552	0.099
686.100	-0.035	0.099
686.200	26.489	0.099
686.300	7.273	0.099
686.400	6.929	0.099
686.500	11.152	0.099
686.600	17.213	0.099
686.700	7.408	0.099
686.800	20.408	0.099
686.900	20.502	0.099
687.000	30.097	0.099
687.100	17.116	0.099
687.200	16.110	0.099
687.300	5.615	0.099
687.400	21.556	0.099
687.500	19.838	0.099
687.600	20.938	0.099
687.700	18.404	0.099
687.800	16.134	0.099
687.900	19.084	0.099
688.000	29.575	0.099
688.100	11.843	0.099
688.200	13.727	0.099
688.300	25.335	0.099
688.400	20.229	0.099
688.500	32.322	0.099
688.600	11.009	0.099
688.700	-1.828	0.099
688.800	10.535	0.099
688.900	28.305	0.099
689.000	22.227	0.099
689.100	17.034	0.099
689.200	16.395	0.099
689.300	6.096	0.099
689.400	17.519	0.099
689.500	8.858	0.099
689.600	23.096	0.099
689.700	15.188	0.099
689.800	12.557	0.099
689.900	24.853	0.099
690.000	0.630	0.099
690.100	20.174	0.099
690.200	20.392	0.099
690.300	27.675	0.099
690.400	14.019	0.099
690.500	15.100	0.099
690.600	6.459	0.099
690.700	-10.799	0.099
690.800	4.041	0.099
690.900	-10.788	0.099
691.000	-6.022	0.099
691.100	8.263	0.099
691.200	-0.051	0.099
691.300	4.958	0.099
691.400	-10.244	0.099
691.500	-9.519	0.099
691.600	-17.828	0.099
691.700	-6.257	0.099
691.800	-8.235	0.099
691.900	-21.443	0.099
692.000	-22.104	0.099
692.100	-30.538	0.099
692.200	-24.954	0.099
692.300	-14.011	0.099
692.400	-19.495	0.099
692.500	-33.757	0.099
692.600	-19.040	0.099
692.700	-31.193	0.099
692.800	-27.579	0.099
692.900	-19.753	0.099
693.000	-28.386	0.099
693.100	-20.032	0.099
693.200	-28.178	0.099
693.300	-21.268	0.099
693.400	-13.892	0.099
693.500	-20.001	0.099
693.600	-28.932	0.099
693.700	-33.673	0.099
693.800	-17.919	0.099
693.900	-31.184	0.099
694.000	-25.956	0.099
694.100	-30.720	0.099
694.200	-22.092	0.099
694.300	-31.794	0.099
694.400	-29.877	0.099
694.500	-19.385	0.099
694.600	-24.557	0.099
694.700	-26.155	0.099
694.800	-18.041	0.099
694.900	-25.768	0.099
695.000	-22.926	0.099
695.100	-13.597	0.099
695.200	-27.183	0.099
695.300	-21.783	0.099
695.400	-25.483	0.099
695.500	-30.771	0.099
695.600	-26.157	0.099
695.700	-12.970	0.099
695.800	-49.064	0.099
695.900	-28.779	0.099
696.000	-12.366	0.099
696.100	-28.067	0.099
696.200	-26.321	0.099
696.300	-23.217	0.099
696.400	-6.394	0.099
696.500	-19.892	0.099
696.600	-25.091	0.099
696.700	-19.594	0.099
696.800	-9.895	0.099
696.900	-24.573	0.099
697.000	-17.624	0.099
697.100	-12.981	0.099
697.200	-17.028	0.099
697.300	-18.234	0.099
697.400	-17.539	0.099
697.500	-19.492	0.099
697.600	-15.319	0.099
697.700	-27.630	0.099
697.800	-29.017	0.099
697.900	-5.265	0.099
698.000	-18.287	0.099
698.100	-25.416	0.099
698.200	-10.669	0.099
698.300	-23.559	0.099
698.400	-5.010	0.099
698.500	-13.795	0.099
698.600	-26.508	0.099
698.700	-11.583	0.099
698.800	-14.705	0.099
698.900	-12.884	0.099
699.000	3.594	0.099
699.100	-0.075	0.099
699.200	-17.493	0.099
699.300	-13.151	0.099
699.400	-7.518	0.099
699.500	-11.412	0.099
699.600	-11.376	0.099
699.700	-9.424	0.099
699.800	-8.386	0.099
699.900	-21.796	0.099
700.000	-5.711	0.099
700.100	-10.830	0.099
700.200	-20.046	0.099
700.300	-11.367	0.099
700.400	-16.958	0.099
700.500	-22.133	0.099
700.600	-17.142	0.099
700.700	-12.742	0.099
700.800	-14.445	0.099
700.900	-5.538	0.099
701.000	-7.448	0.099
701.100	-18.144	0.099
701.200	-19.955	0.099
701.300	-20.179	0.099
701.400	-18.514	0.099
701.500	-12.540	0.099
701.600	-2.782	0.099
701.700	-19.252	0.099
701.800	-14.701	0.099
701.900	-9.696	0.099
702.000	7.310	0.099
702.100	-22.001	0.099
702.200	-14.463	0.099
702.300	-7.038	0.099
702.400	-19.269	0.099
702.500	-10.124	0.099
702.600	-20.024	0.099
702.700	-4.832	0.099
702.800	-16.663	0.099
702.900	-11.484	0.099
703.000	0.957	0.099
703.100	-15.158	0.099
703.200	-13.323	0.099
703.300	-18.640	0.099
703.400	-0.212	0.099
703.500	-6.258	0.099
703.600	-7.344	0.099
703.700	-8.657	0.099
703.800	-14.836	0.099
703.900	-1.071	0.099
704.000	-9.521	0.099
704.100	-18.064	0.099
704.200	-2.899	0.099
704.300	-8.556	0.099
704.400	-11.900	0.099
704.500	-16.405	0.099
704.600	-16.330	0.099
704.700	-22.881	0.099
704.800	-20.685	0.099
704.900	-13.166	0.099
705.000	-11.250	0.099
705.100	-16.398	0.099
705.200	-11.318	0.099
705.300	-5.535	0.099
705.400	-21.176	0.099
705.500	-8.497	0.099
705.600	-16.473	0.099
705.700	-22.198	0.099
705.800	-9.327	0.099
705.900	-15.332	0.099
706.000	-5.342	0.099
706.100	-4.480	0.099
706.200	-23.888	0.099
706.300	-23.597	0.099
706.400	-12.337	0.099
706.500	2.795	0.099
706.600	-5.538	0.099
706.700	0.187	0.099
706.800	-21.187	0.099
706.900	-21.726	0.099
707.000	-6.632	0.099
707.100	-21.515	0.099
707.200	-20.405	0.099
707.300	-3.822	0.099
707.400	-16.453	0.099
707.500	-10.854	0.099
707.600	-2.453	0.099
707.700	-19.707	0.099
707.800	-17.888	0.099
707.900	-6.099	0.099
708.000	-17.515	0.099
708.100	-18.895	0.099
708.200	-18.425	0.099
708.300	-13.406	0.099
708.400	-13.220	0.099
708.500	-8.860	0.099
708.600	-18.680	0.099
708.700	-7.073	0.099
708.800	-6.838	0.099
708.900	-11.218	0.099
709.000	-8.765	0.099
709.100	-4.569	0.099
709.200	-2.222	0.099
709.300	-18.443	0.099
709.400	-9.728	0.099
709.500	-15.270	0.099
709.600	-15.820	0.099
709.700	-9.724	0.099
709.800	-22.624	0.099
709.900	-7.811	0.099
710.000	-9.206	0.099
710.100	-15.366	0.099
710.200	-9.672	0.099
710.300	-6.905	0.099
710.400	-12.336	0.099
710.500	-13.288	0.099
710.600	-20.184	0.099
710.700	-10.349	0.099
710.800	-8.296	0.099
710.900	-18.908	0.099
711.000	-13.732	0.099
711.100	-15.813	0.099
711.200	1.167	0.099
711.300	-12.572	0.099
711.400	-19.352	0.099
711.500	9.191	0.099
711.600	-6.101	0.099
711.700	-19.887	0.099
711.800	-7.829	0.099
711.900	2.176	0.099
712.000	-22.166	0.099
712.100	-19.539	0.099
712.200	-1.525	0.099
712.300	-19.344	0.099
712.400	-14.267	0.099
712.500	-21.118	0.099
712.600	-17.368	0.099
712.700	-4.509	0.099
712.800	-7.933	0.099
712.900	-26.761	0.099
713.000	-21.924	0.099
713.100	-13.727	0.099
713.200	-4.372	0.099
713.300	-10.543	0.099
713.400	-5.180	0.099
713.500	-6.617	0.099
713.600	-4.812	0.099
713.700	6.580	0.099
713.800	-13.064	0.099
713.900	-10.305	0.099
714.000	-10.516	0.099
714.100	4.520	0.099
714.200	-15.294	0.099
714.300	-15.381	0.099
714.400	-13.097	0.099
714.500	10.681	0.099
714.600	-11.385	0.099
714.700	-17.021	0.099
714.800	-9.319	0.099
714.900	-12.846	0.099
715.000	-13.875	0.099
715.100	-21.659	0.099
715.200	-12.230	0.099
715.300	-18.441	0.099
715.400	-0.940	0.099
715.500	-11.276	0.099
715.600	-15.002	0.099
715.700	-22.444	0.099
715.800	-14.347	0.099
715.900	-11.338	0.099
716.000	-9.657	0.099
716.100	-30.861	0.099
716.200	-4.235	0.099
716.300	-13.427	0.099
716.400	-25.570	0.099
716.500	-21.307	0.099
716.600	-12.295	0.099
716.700	-15.818	0.099
716.800	5.610	0.099
716.900	-17.781	0.099
717.000	-22.502	0.099
717.100	-10.621	0.099
717.200	-16.909	0.099
717.300	-21.163	0.099
717.400	-13.712	0.099
717.500	-23.003	0.099
717.600	-19.758	0.099
717.700	-14.089	0.099
717.800	-19.215	0.099
717.900	3.870	0.099
718.000	-11.013	0.099
718.100	-8.167	0.099
718.200	-27.851	0.099
718.300	1.327	0.099
718.400	-7.746	0.099
718.500	-27.364	0.099
718.600	-18.956	0.099
718.700	-11.251	0.099
718.800	-28.169	0.099
718.900	-3.285	0.099
719.000	-17.495	0.099
719.100	-18.000	0.099
719.200	-23.819	0.099
719.300	-21.005	0.099
719.400	-8.585	0.099
719.500	2.068	0.099
719.600	-12.411	0.099
719.700	-21.948	0.099
719.800	-7.726	0.099
719.900	-19.864	0.099
720.000	-15.651	0.099
720.100	-15.333	0.099
720.200	-21.272	0.099
720.300	-9.666	0.099
720.400	-24.453	0.099
720.500	-7.642	0.099
720.600	-12.288	0.099
720.700	-8.563	0.099
720.800	-0.675	0.099
720.900	-6.757	0.099
721.000	-5.396	0.099
721.100	-14.831	0.099
721.200	-12.912	0.099
721.300	-10.032	0.099
721.400	-25.390	0.099
721.500	-18.290	0.099
721.600	-18.446	0.099
721.700	-9.053	0.099
721.800	-28.632	0.099
721.900	-18.077	0.099
722.000	-28.891	0.099
722.100	-26.335	0.099
722.200	-6.005	0.099
722.300	-7.216	0.099
722.400	-4.700	0.099
722.500	-22.567	0.099
722.600	-15.352	0.099
722.700	-12.084	0.099
722.800	-7.688	0.099
722.900	-7.999	0.099
723.000	-22.461	0.099
723.100	-10.294	0.099
723.200	-19.927	0.099
723.300	-15.875	0.099
723.400	-23.152	0.099
723.500	-12.397	0.099
723.600	-18.201	0.099
723.700	-14.543	0.099
723.800	-22.188	0.099
723.900	-11.245	0.099
724.000	-11.839	0.099
724.100	-24.478	0.099
724.200	1.511	0.099
724.300	-18.399	0.099
724.400	-9.541	0.099
724.500	-19.525	0.099
724.600	-8.550	0.099
724.700	4.496	0.099
724.800	-27.422	0.099
724.900	-14.305	0.099
725.000	5.343	0.099
725.100	-12.339	0.099
725.200	-14.726	0.099
725.300	-25.168	0.099
725.400	-12.990	0.099
725.500	-25.437	0.099
725.600	-14.215	0.099
725.700	-13.221	0.099
725.800	-13.142	0.099
725.900	-8.474	0.099
726.000	-19.395	0.099
726.100	-14.425	0.099
726.200	-16.219	0.099
726.300	-12.192	0.099
726.400	-10.066	0.099
726.500	-12.053	0.099
726.600	-3.770	0.099
726.700	-8.020	0.099
726.800	-7.243	0.099
726.900	-19.963	0.099
727.000	-29.719	0.099
727.100	-14.671	0.099
727.200	-14.629	0.099
727.300	-17.658	0.099
727.400	-21.570	0.099
727.500	-13.112	0.099
727.600	-7.712	0.099
727.700	-11.902	0.099
727.800	-10.641	0.099
727.900	-8.231	0.099
728.000	-11.092	0.099
728.100	-13.417	0.099
728.200	-16.106	0.099
728.300	-13.227	0.099
728.400	-5.098	0.099
728.500	-5.877	0.099
728.600	-19.581	0.099
728.700	-12.796	0.099
728.800	-8.612	0.099
728.900	-18.080	0.099
729.000	-14.885	0.099
729.100	-8.072	0.099
729.200	-13.039	0.099
729.300	-12.917	0.099
729.400	-11.774	0.099
729.500	-14.084	0.099
729.600	-21.783	0.099
729.700	-16.066	0.099
729.800	-1.883	0.099
729.900	-7.051	0.099
730.000	3.001	0.099
730.100	-3.742	0.099
730.200	-10.205	0.099
730.300	3.039	0.099
730.400	-22.858	0.099
730.500	-14.075	0.099
730.600	-16.447	0.099
730.700	-8.149	0.099
730.800	-32.874	0.099
730.900	-12.854	0.099
731.000	-12.910	0.099
731.100	-7.459	0.099
731.200	-13.073	0.099
731.300	-4.977	0.099
731.400	-13.901	0.099
731.500	-13.468	0.099
731.600	-13.118	0.099
731.700	-5.743	0.099
731.800	-11.883	0.099
731.900	-10.243	0.099
732.000	-14.218	0.099
732.100	-8.239	0.099
732.200	-6.673	0.099
732.300	-14.521	0.099
732.400	-20.430	0.099
732.500	-21.488	0.099
732.600	0.211	0.099
732.700	-15.010	0.099
732.800	-14.341	0.099
732.900	-18.091	0.099
733.000	-5.746	0.099
733.100	-4.733	0.099
733.200	-29.064	0.099
733.300	0.404	0.099
733.400	-3.588	0.099
733.500	-10.230	0.099
733.600	-6.980	0.099
733.700	-3.605	0.099
733.800	-19.609	0.099
733.900	7.039	0.099
734.000	-23.965	0.099
734.100	-22.543	0.099
734.200	4.715	0.099
734.300	-3.578	0.099
734.400	-7.203	0.099
734.500	-17.771	0.099
734.600	-0.857	0.099
734.700	-10.128	0.099
734.800	-3.322	0.099
734.900	-3.090	0.099
735.000	-16.045	0.099
735.100	-11.133	0.099
735.200	-8.146	0.099
735.300	-25.751	0.099
735.400	-20.534	0.099
735.500	-19.237	0.099
735.600	-9.549	0.099
735.700	-15.242	0.099
735.800	-27.214	0.099
735.900	-7.650	0.099
736.000	-16.165	0.099
736.100	-0.079	0.099
736.200	-5.408	0.099
736.300	-12.761	0.099
736.400	-10.394	0.099
736.500	-17.969	0.099
736.600	-8.945	0.099
736.700	-14.120	0.099
736.800	-9.565	0.099
736.900	-0.901	0.099
737.000	-11.905	0.099
737.100	-8.329	0.099
737.200	-11.390	0.099
737.300	-14.959	0.099
737.400	-10.197	0.099
737.500	-11.173	0.099
737.600	-9.865	0.099
737.700	-14.497	0.099
737.800	-1.800	0.099
737.900	-33.566	0.099
738.000	-16.788	0.099
738.100	-18.866	0.099
738.200	-7.978	0.099
738.300	-3.912	0.099
738.400	-12.982	0.099
738.500	2.256	0.099
738.600	-15.042	0.099
738.700	-2.076	0.099
738.800	-13.864	0.099
738.900	2.498	0.099
739.000	-5.452	0.099
739.100	-13.479	0.099
739.200	-7.405	0.099
739.300	4.640	0.099
739.400	-10.256	0.099
739.500	-8.286	0.099
739.600	-17.860	0.099
739.700	-10.697	0.099
739.800	-12.540	0.099
739.900	-18.390	0.099
740.000	-21.786	0.099
740.100	-12.424	0.099
740.200	-25.215	0.099
740.300	-14.031	0.099
740.400	12.768	0.099
740.500	-1.078	0.099
740.600	-7.737	0.099
740.700	-4.868	0.099
740.800	-7.152	0.099
740.900	-0.286	0.099
741.000	-16.805	0.099
741.100	-16.531	0.099
741.200	3.115	0.099
741.300	-8.047	0.099
741.400	2.518	0.099
741.500	-5.136	0.099
741.600	1.918	0.099
741.700	-12.065	0.099
741.800	-1.624	0.099
741.900	-6.626	0.099
742.000	-5.464	0.099
742.100	-26.228	0.099
742.200	-16.528	0.099
742.300	-15.324	0.099
742.400	-26.574	0.099
742.500	-11.664	0.099
742.600	-8.162	0.099
742.700	-7.005	0.099
742.800	-14.069	0.099
742.900	-18.284	0.099
743.000	-0.175	0.099
743.100	-8.023	0.099
743.200	1.595	0.099
743.300	-1.050	0.099
743.400	-0.882	0.099
743.500	-3.816	0.099
743.600	-5.452	0.099
743.700	-21.756	0.099
743.800	-0.084	0.099
743.900	-7.631	0.099
744.000	-8.065	0.099
744.100	-1.666	0.099
744.200	-9.405	0.099
744.300	-5.590	0.099
744.400	-2.725	0.099
744.500	-16.528	0.099
744.600	1.056	0.099
744.700	-19.562	0.099
744.800	1.772	0.099
744.900	-20.804	0.099
745.000	-2.695	0.099
745.100	-9.454	0.099
745.200	-4.150	0.099
745.300	2.167	0.099
745.400	-12.310	0.099
745.500	-6.350	0.099
745.600	1.615	0.099
745.700	-15.565	0.099
745.800	-8.653	0.099
745.900	-0.992	0.099
746.000	-21.312	0.099
746.100	3.544	0.099
746.200	-21.354	0.099
746.300	-5.315	0.099
746.400	-0.690	0.099
746.500	-11.853	0.099
746.600	-6.829	0.099
746.700	-13.149	0.099
746.800	1.855	0.099
746.900	-10.594	0.099
747.000	-13.473	0.099
747.100	-11.266	0.099
747.200	-0.030	0.099
747.300	-12.592	0.099
747.400	-1.189	0.099
747.500	-8.553	0.099
747.600	-10.777	0.099
747.700	-14.002	0.099
747.800	-16.952	0.099
747.900	-5.754	0.099
748.000	-3.405	0.099
748.100	3.384	0.099
748.200	-22.243	0.099
748.300	-20.710	0.099
748.400	-4.793	0.099
748.500	-8.944	0.099
748.600	-7.949	0.099
748.700	-5.720	0.099
748.800	-10.225	0.099
748.900	-12.599	0.099
749.000	-1.023	0.099
749.100	-3.295	0.099
749.200	-13.801	0.099
749.300	-10.461	0.099
749.400	-3.217	0.099
749.500	-10.118	0.099
749.600	-13.007	0.099
749.700	-3.342	0.099
749.800	-1.929	0.099
749.900	-18.399	0.099
750.000	-2.460	0.099
750.100	-4.545	0.099
750.200	-1.130	0.099
750.300	-8.464	0.099
750.400	-12.498	0.099
750.500	-4.676	0.099
750.600	-8.413	0.099
750.700	-3.206	0.099
750.800	1.123	0.099
750.900	-14.278	0.099
751.000	-3.451	0.099
751.100	-7.016	0.099
751.200	-6.810	0.099
751.300	-7.330	0.099
751.400	-2.264	0.099
751.500	-3.560	0.099
751.600	-13.105	0.099
751.700	-11.888	0.099
751.800	0.514	0.099
751.900	-5.888	0.099
752.000	1.368	0.099
752.100	-9.352	0.099
752.200	-14.916	0.099
752.300	-9.593	0.099
752.400	-6.878	0.099
752.500	-2.018	0.099
752.600	-11.097	0.099
752.700	-15.931	0.099
752.800	-8.989	0.099
752.900	-21.649	0.099
753.000	-2.179	0.099
753.100	-7.237	0.099
753.200	-5.393	0.099
753.300	-5.078	0.099
753.400	-12.963	0.099
753.500	-5.276	0.099
753.600	-12.666	0.099
753.700	-11.027	0.099
753.800	-14.431	0.099
753.900	-13.641	0.099
754.000	-9.164	0.099
754.100	-5.524	0.099
754.200	-14.044	0.099
754.300	-1.062	0.099
754.400	-19.987	0.099
754.500	-5.417	0.099
754.600	-6.396	0.099
754.700	0.468	0.099
754.800	-2.423	0.099
754.900	-11.648	0.099
755.000	-6.576	0.099
755.100	-13.214	0.099
755.200	-7.931	0.099
755.300	-11.551	0.099
755.400	-6.709	0.099
755.500	-0.176	0.099
755.600	-13.839	0.099
755.700	-7.655	0.099
755.800	-9.866	0.099
755.900	-5.994	0.099
756.000	-4.679	0.099
756.100	-4.375	0.099
756.200	-11.450	0.099
756.300	-1.819	0.099
756.400	-4.584	0.099
756.500	-5.111	0.099
756.600	-11.784	0.099
756.700	-1.892	0.099
756.800	-17.044	0.099
756.900	-5.103	0.099
757.000	-1.797	0.099
757.100	-8.619	0.099
757.200	-0.140	0.099
757.300	3.510	0.099
757.400	-16.655	0.099
757.500	-0.595	0.099
757.600	-10.964	0.099
757.700	-19.276	0.099
757.800	-9.330	0.099
757.900	-2.560	0.099
758.000	1.984	0.099
758.100	-3.073	0.099
758.200	-4.004	0.099
758.300	-8.543	0.099
758.400	-8.932	0.099
758.500	-15.829	0.099
758.600	-3.639	0.099
758.700	-3.297	0.099
758.800	-4.881	0.099
758.900	-7.244	0.099
759.000	-9.147	0.099
759.100	1.058	0.099
759.200	-4.031	0.099
759.300	-16.902	0.099
759.400	0.730	0.099
759.500	-6.631	0.099
759.600	-4.615	0.099
759.700	7.423	0.099
759.800	-4.870	0.099
759.900	-11.442	0.099
760.000	-11.949	0.099
760.100	-9.138	0.099
760.200	-7.399	0.099
760.300	0.894	0.099
760.400	4.747	0.099
760.500	-12.425	0.099
760.600	-28.467	0.099
760.700	-0.598	0.099
760.800	-10.399	0.099
760.900	-12.411	0.099
761.000	0.961	0.099
761.100	-13.324	0.099
761.200	-6.882	0.099
761.300	-3.088	0.099
761.400	-3.470	0.099
761.500	-12.645	0.099
761.600	-7.264	0.099
761.700	10.433	0.099
761.800	-2.911	0.099
761.900	-7.715	0.099
762.000	-3.950	0.099
762.100	-2.593	0.099
762.200	-9.368	0.099
762.300	-7.753	0.099
762.400	0.014	0.099
762.500	3.990	0.099
762.600	-2.892	0.099
762.700	-0.400	0.099
762.800	0.732	0.099
762.900	-9.011	0.099
763.000	2.891	0.099
763.100	-16.009	0.099
763.200	-20.463	0.099
763.300	-11.100	0.099
763.400	-3.054	0.099
763.500	-3.236	0.099
763.600	-10.875	0.099
763.700	-13.354	0.099
763.800	-6.715	0.099
763.900	-4.876	0.099
764.000	-0.687	0.099
764.100	-15.603	0.099
764.200	-17.293	0.099
764.300	0.449	0.099
764.400	-12.806	0.099
764.500	-4.792	0.099
764.600	-3.971	0.099
764.700	-11.894	0.099
764.800	-15.890	0.099
764.900	-1.966	0.099
765.000	-4.770	0.099
765.100	-7.742	0.099
765.200	-2.875	0.099
765.300	-5.209	0.099
765.400	-6.967	0.099
765.500	-11.031	0.099
765.600	3.447	0.099
765.700	-0.404	0.099
765.800	4.220	0.099
765.900	-7.235	0.099
766.000	-20.823	0.099
766.100	-12.140	0.099
766.200	-13.421	0.099
766.300	-18.600	0.099
766.400	2.735	0.099
766.500	-12.328	0.099
766.600	-16.011	0.099
766.700	1.356	0.099
766.800	-9.432	0.099
766.900	-13.995	0.099
767.000	-14.947	0.099
767.100	-7.772	0.099
767.200	-7.074	0.099
767.300	-3.708	0.099
767.400	4.237	0.099
767.500	-3.772	0.099
767.600	-11.701	0.099
767.700	-7.171	0.099
767.800	0.081	0.099
767.900	-2.817	0.099
768.000	-3.306	0.099
768.100	-10.089	0.099
768.200	1.678	0.099
768.300	-0.322	0.099
768.400	0.802	0.099
768.500	2.398	0.099
768.600	-19.972	0.099
768.700	-5.163	0.099
768.800	4.777	0.099
768.900	-12.604	0.099
769.000	-0.751	0.099
769.100	-27.052	0.099
769.200	16.561	0.099
769.300	-4.689	0.099
769.400	1.661	0.099
769.500	-7.529	0.099
769.600	-9.792	0.099
769.700	-12.039	0.099
769.800	9.366	0.099
769.900	-7.651	0.099
770.000	-0.114	0.099
770.100	-8.399	0.099
770.200	-19.633	0.099
770.300	-10.003	0.099
770.400	-1.707	0.099
770.500	-18.465	0.099
770.600	1.030	0.099
770.700	6.662	0.099
770.800	-4.263	0.099
770.900	-4.935	0.099
771.000	-0.767	0.099
771.100	-20.206	0.099
771.200	5.183	0.099
771.300	-9.589	0.099
771.400	-5.779	0.099
771.500	1.329	0.099
771.600	-4.951	0.099
771.700	-4.446	0.099
771.800	-9.791	0.099
771.900	-1.409	0.099
772.000	-0.663	0.099
772.100	-9.932	0.099
772.200	-14.668	0.099
772.300	0.811	0.099
772.400	-10.406	0.099
772.500	-21.074	0.099
772.600	-3.414	0.099
772.700	-4.998	0.099
772.800	-8.532	0.099
772.900	5.424	0.099
773.000	-24.095	0.099
773.100	1.169	0.099
773.200	-10.493	0.099
773.300	-3.801	0.099
773.400	-13.116	0.099
773.500	0.763	0.099
773.600	-5.009	0.099
773.700	-6.999	0.099
773.800	-3.241	0.099
773.900	-16.961	0.099
774.000	-7.640	0.099
774.100	-10.153	0.099
774.200	-15.068	0.099
774.300	-12.819	0.099
774.400	2.605	0.099
774.500	-4.994	0.099
774.600	-12.789	0.099
774.700	-7.604	0.099
774.800	-8.122	0.099
774.900	11.273	0.099
775.000	-9.547	0.099
775.100	-3.897	0.099
775.200	0.752	0.099
775.300	-0.188	0.099
775.400	-15.937	0.099
775.500	-1.206	0.099
775.600	6.979	0.099
775.700	-13.351	0.099
775.800	-12.601	0.099
775.900	-1.123	0.099
776.000	-5.263	0.099
776.100	-16.064	0.099
776.200	5.428	0.099
776.300	-3.054	0.099
776.400	6.847	0.099
776.500	-15.464	0.099
776.600	-2.486	0.099
776.700	-12.100	0.099
776.800	-1.849	0.099
776.900	5.238	0.099
777.000	5.894	0.099
777.100	-21.581	0.099
777.200	-2.740	0.099
777.300	5.263	0.099
777.400	-3.392	0.099
777.500	-7.779	0.099
777.600	-3.394	0.099
777.700	-0.608	0.099
777.800	1.371	0.099
777.900	-1.755	0.099
778.000	9.594	0.099
778.100	-13.540	0.099
778.200	-1.350	0.099
778.300	-3.217	0.099
778.400	-10.669	0.099
778.500	-10.932	0.099
778.600	1.093	0.099
778.700	18.901	0.099
778.800	2.931	0.099
778.900	-5.835	0.099
779.000	0.627	0.099
779.100	0.541	0.099
779.200	-6.838	0.099
779.300	7.632	0.099
779.400	-13.174	0.099
779.500	-7.513	0.099
779.600	-9.614	0.099
779.700	-10.782	0.099
779.800	-3.799	0.099
779.900	-19.605	0.099
780.000	-0.583	0.099
780.100	-9.874	0.099
780.200	5.640	0.099
780.300	-13.569	0.099
780.400	3.460	0.099
780.500	6.699	0.099
780.600	14.019	0.099
780.700	14.461	0.099
780.800	15.925	0.099
780.900	17.809	0.099
781.000	17.599	0.099
781.100	21.494	0.099
781.200	25.935	0.099
781.300	32.467	0.099
781.400	34.228	0.099
781.500	33.807	0.099
781.600	33.847	0.099
781.700	27.449	0.099
781.800	36.576	0.099
781.900	27.503	0.099
782.000	30.914	0.099
782.100	34.424	0.099
782.200	24.005	0.099
782.300	24.017	0.099
782.400	23.058	0.099
782.500	45.308	0.099
782.600	22.298	0.099
782.700	25.803	0.099
782.800	26.189	0.099
782.900	31.478	0.099
783.000	25.269	0.099
783.100	21.215	0.099
783.200	42.448	0.099
783.300	15.810	0.099
783.400	30.474	0.099
783.500	33.747	0.099
783.600	13.408	0.099
783.700	32.595	0.099
783.800	28.728	0.099
783.900	9.965	0.099
784.000	29.622	0.099
784.100	24.899	0.099
784.200	15.882	0.099
784.300	13.739	0.099
784.400	29.283	0.099
784.500	25.508	0.099
784.600	20.193	0.099
784.700	27.221	0.099
784.800	26.741	0.099
784.900	6.195	0.099
785.000	28.003	0.099
785.100	18.136	0.099
785.200	18.895	0.099
785.300	22.830	0.099
785.400	23.693	0.099
785.500	11.709	0.099
785.600	21.325	0.099
785.700	24.344	0.099
785.800	18.333	0.099
785.900	24.002	0.099
786.000	30.138	0.099
786.100	12.527	0.099
786.200	10.487	0.099
786.300	13.164	0.099
786.400	9.803	0.099
786.500	8.093	0.099
786.600	19.337	0.099
786.700	18.752	0.099
786.800	28.921	0.099
786.900	21.149	0.099
787.000	18.241	0.099
787.100	14.335	0.099
787.200	15.927	0.099
787.300	18.430	0.099
787.400	16.659	0.099
787.500	21.181	0.099
787.600	27.169	0.099
787.700	14.025	0.099
787.800	16.152	0.099
787.900	11.565	0.099
788.000	29.348	0.099
788.100	25.973	0.099
788.200	23.452	0.099
788.300	18.263	0.099
788.400	12.472	0.099
788.500	17.757	0.099
788.600	14.819	0.099
788.700	15.000	0.099
788.800	20.801	0.099
788.900	7.359	0.099
789.000	22.163	0.099
789.100	7.088	0.099
789.200	28.333	0.099
789.300	25.518	0.099
789.400	10.801	0.099
789.500	18.633	0.099
789.600	21.520	0.099
789.700	13.447	0.099
789.800	23.304	0.099
789.900	14.808	0.099
790.000	34.251	0.099
790.100	9.837	0.099
790.200	9.116	0.099
790.300	25.225	0.099
790.400	22.999	0.099
790.500	29.376	0.099
790.600	22.482	0.099
790.700	29.089	0.099
790.800	20.703	0.099
790.900	31.525	0.099
791.000	24.524	0.099
791.100	25.704	0.099
791.200	21.708	0.099
791.300	32.245	0.099
791.400	9.127	0.099
791.500	16.680	0.099
791.600	12.267	0.099
791.700	20.321	0.099
791.800	24.026	0.099
791.900	25.100	0.099
792.000	33.010	0.099
792.100	19.721	0.099
792.200	20.220	0.099
792.300	14.465	0.099
792.400	14.537	0.099
792.500	22.238	0.099
792.600	21.797	0.099
792.700	17.790	0.099
792.800	14.728	0.099
792.900	23.454	0.099
793.000	27.548	0.099
793.100	25.183	0.099
793.200	9.973	0.099
793.300	16.541	0.099
793.400	9.542	0.099
793.500	35.435	0.099
793.600	27.809	0.099
793.700	11.902	0.099
793.800	36.116	0.099
793.900	22.625	0.099
794.000	21.915	0.099
794.100	7.615	0.099
794.200	21.664	0.099
794.300	30.743	0.099
794.400	10.323	0.099
794.500	5.202	0.099
794.600	21.562	0.099
794.700	20.496	0.099
794.800	33.029	0.099
794.900	16.356	0.099
795.000	25.300	0.099
795.100	33.720	0.099
795.200	28.378	0.099
795.300	15.040	0.099
795.400	26.200	0.099
795.500	14.060	0.099
795.600	9.473	0.099
795.700	32.547	0.099
795.800	33.174	0.099
795.900	26.693	0.099
796.000	30.945	0.099
796.100	31.044	0.099
796.200	14.136	0.099
796.300	26.186	0.099
796.400	28.324	0.099
796.500	16.943	0.099
796.600	28.325	0.099
796.700	16.601	0.099
796.800	25.292	0.099
796.900	-5.454	0.099
797.000	39.142	0.099
797.100	28.551	0.099
797.200	15.318	0.099
797.300	24.388	0.099
797.400	26.144	0.099
797.500	24.338	0.099
797.600	21.534	0.099
797.700	26.386	0.099
797.800	22.507	0.099
797.900	32.039	0.099
798.000	21.330	0.099
798.100	22.554	0.099
798.200	28.591	0.099
798.300	19.752	0.099
798.400	21.743	0.099
798.500	20.952	0.099
798.600	35.453	0.099
798.700	9.460	0.099
798.800	17.430	0.099
798.900	27.957	0.099
799.000	33.712	0.099
799.100	20.374	0.099
799.200	22.711	0.099
799.300	40.009	0.099
799.400	7.867	0.099
799.500	12.955	0.099
799.600	16.252	0.099
799.700	32.511	0.099
799.800	32.414	0.099
799.900	20.562	0.099
800.000	30.369	0.099
