time /s	I /nA	E /V
0.100	-18.703	0.100
0.200	-0.001	0.100
0.300	-7.020	0.100
0.400	-4.983	0.100
0.500	-16.608	0.100
0.600	-19.541	0.100
0.700	-10.767	0.100
0.800	-14.687	0.100
0.900	-19.901	0.100
1.000	-13.692	0.100
1.100	5.827	0.100
1.200	-10.462	0.100
1.300	-13.370	0.100
1.400	-12.081	0.100
1.500	-21.277	0.100
1.600	-27.157	0.100
1.700	-6.406	0.100
1.800	-9.839	0.100
1.900	-11.984	0.100
2.000	-8.177	0.100
2.100	-7.627	0.100
2.200	-18.450	0.100
2.300	-20.387	0.100
2.400	-28.043	0.100
2.500	-0.482	0.100
2.600	1.755	0.100
2.700	1.121	0.100
2.800	-8.635	0.100
2.900	-17.613	0.100
3.000	-9.076	0.100
3.100	-22.208	0.100
3.200	-30.502	0.100
3.300	5.301	0.100
3.400	-7.650	0.100
3.500	-14.209	0.100
3.600	-20.897	0.100
3.700	-20.849	0.100
3.800	-7.442	0.100
3.900	-7.766	0.100
4.000	-9.099	0.100
4.100	1.163	0.100
4.200	-15.404	0.100
4.300	-9.738	0.100
4.400	-28.292	0.100
4.500	-9.195	0.100
4.600	-0.339	0.100
4.700	-12.115	0.100
4.800	-24.777	0.100
4.900	-12.121	0.100
5.000	-20.752	0.100
5.100	-14.058	0.100
5.200	-16.536	0.100
5.300	-13.729	0.100
5.400	-9.574	0.100
5.500	-2.618	0.100
5.600	-17.236	0.100
5.700	-22.483	0.100
5.800	-13.856	0.100
5.900	-15.140	0.100
6.000	-17.770	0.100
6.100	-7.848	0.100
6.200	1.694	0.100
6.300	-22.990	0.100
6.400	-14.838	0.100
6.500	3.194	0.100
6.600	-6.191	0.100
6.700	-0.046	0.100
6.800	-24.968	0.100
6.900	-9.309	0.100
7.000	-9.389	0.100
7.100	-12.169	0.100
7.200	-23.416	0.100
7.300	-9.333	0.100
7.400	-14.299	0.100
7.500	-11.285	0.100
7.600	-9.975	0.100
7.700	-4.552	0.100
7.800	-8.722	0.100
7.900	-9.960	0.100
8.000	-16.589	0.100
8.100	-10.246	0.100
8.200	-4.908	0.100
8.300	-9.297	0.100
8.400	-15.255	0.100
8.500	-14.183	0.100
8.600	-7.644	0.100
8.700	-16.999	0.100
8.800	-14.963	0.100
8.900	-14.455	0.100
9.000	-14.087	0.100
9.100	4.303	0.100
9.200	-11.279	0.100
9.300	-16.941	0.100
9.400	-24.611	0.100
9.500	-4.659	0.100
9.600	-5.812	0.100
9.700	-1.891	0.100
9.800	-17.169	0.100
9.900	-21.015	0.100
10.000	-10.981	0.100
10.100	-17.352	0.100
10.200	-13.440	0.100
10.300	-5.619	0.100
10.400	-21.433	0.100
10.500	-11.023	0.100
10.600	-10.990	0.100
10.700	-7.824	0.100
10.800	-19.104	0.100
10.900	-37.641	0.100
11.000	-8.754	0.100
11.100	-0.852	0.100
11.200	-8.405	0.100
11.300	-0.163	0.100
11.400	-16.876	0.100
11.500	-4.026	0.100
11.600	-14.816	0.100
11.700	-25.801	0.100
11.800	-23.393	0.100
11.900	-1.119	0.100
12.000	10.920	0.100
12.100	-14.330	0.100
12.200	-8.223	0.100
12.300	-1.749	0.100
12.400	-12.372	0.100
12.500	-18.032	0.100
12.600	-16.640	0.100
12.700	-17.241	0.100
12.800	-10.879	0.100
12.900	-7.698	0.100
13.000	-7.506	0.100
13.100	-13.392	0.100
13.200	-8.999	0.100
13.300	-3.256	0.100
13.400	-20.648	0.100
13.500	-10.892	0.100
13.600	-14.107	0.100
13.700	2.006	0.100
13.800	-9.060	0.100
13.900	-5.784	0.100
14.000	10.657	0.100
14.100	-1.527	0.100
14.200	0.199	0.100
14.300	-25.549	0.100
14.400	-25.881	0.100
14.500	10.486	0.100
14.600	-24.589	0.100
14.700	-1.093	0.100
14.800	-8.979	0.100
14.900	-12.473	0.100
15.000	-11.719	0.100
15.100	-6.455	0.100
15.200	-7.239	0.100
15.300	-22.085	0.100
15.400	-9.241	0.100
15.500	-10.168	0.100
15.600	-12.561	0.100
15.700	-13.597	0.100
15.800	-8.373	0.100
15.900	10.937	0.100
16.000	1.390	0.100
16.100	-25.372	0.100
16.200	-11.366	0.100
16.300	-11.578	0.100
16.400	-11.979	0.100
16.500	-13.689	0.100
16.600	-22.795	0.100
16.700	-18.558	0.100
16.800	-11.468	0.100
16.900	-3.372	0.100
17.000	-3.773	0.100
17.100	-4.187	0.100
17.200	-13.894	0.100
17.300	-8.521	0.100
17.400	-13.527	0.100
17.500	-10.815	0.100
17.600	-21.712	0.100
17.700	-11.227	0.100
17.800	-8.103	0.100
17.900	-20.977	0.100
18.000	-19.827	0.100
18.100	-5.925	0.100
18.200	1.540	0.100
18.300	-9.219	0.100
18.400	-9.914	0.100
18.500	-7.183	0.100
18.600	-3.719	0.100
18.700	-15.040	0.100
18.800	-19.838	0.100
18.900	-10.779	0.100
19.000	-10.089	0.100
19.100	-7.005	0.100
19.200	-12.099	0.100
19.300	-14.491	0.100
19.400	-14.724	0.100
19.500	-3.878	0.100
19.600	-8.573	0.100
19.700	-15.846	0.100
19.800	-14.470	0.100
19.900	-14.662	0.100
20.000	-2.646	0.100
20.100	-13.980	0.100
20.200	-26.049	0.100
20.300	-15.132	0.100
20.400	-14.722	0.100
20.500	-9.684	0.100
20.600	-5.387	0.100
20.700	-9.756	0.100
20.800	-0.778	0.100
20.900	1.088	0.100
21.000	-12.118	0.100
21.100	-16.409	0.100
21.200	-1.305	0.100
21.300	8.900	0.100
21.400	-3.520	0.100
21.500	-9.539	0.100
21.600	-13.894	0.100
21.700	-11.360	0.100
21.800	-29.421	0.100
21.900	-11.020	0.100
22.000	-9.528	0.100
22.100	-0.757	0.100
22.200	-7.989	0.100
22.300	-20.618	0.100
22.400	-8.996	0.100
22.500	-8.134	0.100
22.600	-12.915	0.100
22.700	-15.415	0.100
22.800	-8.949	0.100
22.900	-12.032	0.100
23.000	-16.371	0.100
23.100	-11.815	0.100
23.200	-25.996	0.100
23.300	-4.102	0.100
23.400	2.065	0.100
23.500	-4.869	0.100
23.600	-13.772	0.100
23.700	-16.650	0.100
23.800	-4.963	0.100
23.900	-10.500	0.100
24.000	-7.936	0.100
24.100	-7.453	0.100
24.200	-6.417	0.100
24.300	-11.909	0.100
24.400	-0.224	0.100
24.500	-8.852	0.100
24.600	-13.579	0.100
24.700	-11.820	0.100
24.800	-6.234	0.100
24.900	-14.220	0.100
25.000	-4.443	0.100
25.100	0.509	0.100
25.200	-14.027	0.100
25.300	-22.367	0.100
25.400	-1.425	0.100
25.500	-10.542	0.100
25.600	-23.356	0.100
25.700	-11.527	0.100
25.800	-3.952	0.100
25.900	-4.937	0.100
26.000	-21.312	0.100
26.100	-20.756	0.100
26.200	-11.258	0.100
26.300	-8.720	0.100
26.400	-7.319	0.100
26.500	-2.058	0.100
26.600	-10.012	0.100
26.700	-3.376	0.100
26.800	-3.948	0.100
26.900	-35.118	0.100
27.000	-10.172	0.100
27.100	-10.988	0.100
27.200	-11.110	0.100
27.300	-22.401	0.100
27.400	0.654	0.100
27.500	0.320	0.100
27.600	-0.600	0.100
27.700	-4.259	0.100
27.800	-6.460	0.100
27.900	-10.439	0.100
28.000	-23.799	0.100
28.100	-10.440	0.100
28.200	-23.225	0.100
28.300	-14.757	0.100
28.400	-14.321	0.100
28.500	-6.211	0.100
28.600	-10.260	0.100
28.700	-6.385	0.100
28.800	-5.810	0.100
28.900	-2.573	0.100
29.000	-21.916	0.100
29.100	-12.098	0.100
29.200	-10.868	0.100
29.300	-20.003	0.100
29.400	-15.066	0.100
29.500	-2.087	0.100
29.600	0.385	0.100
29.700	4.297	0.100
29.800	-2.038	0.100
29.900	-17.250	0.100
30.000	-25.951	0.100
30.100	-9.117	0.100
30.200	-21.301	0.100
30.300	-5.132	0.100
30.400	-10.150	0.100
30.500	-22.779	0.100
30.600	-22.461	0.100
30.700	8.040	0.100
30.800	-10.294	0.100
30.900	0.585	0.100
31.000	-3.550	0.100
31.100	-5.062	0.100
31.200	-18.644	0.100
31.300	-6.095	0.100
31.400	-5.258	0.100
31.500	-3.345	0.100
31.600	11.648	0.100
31.700	12.567	0.100
31.800	10.651	0.100
31.900	14.217	0.100
32.000	7.576	0.100
32.100	12.527	0.100
32.200	8.311	0.100
32.300	21.836	0.100
32.400	12.622	0.100
32.500	13.588	0.100
32.600	5.168	0.100
32.700	11.154	0.100
32.800	-3.578	0.100
32.900	7.480	0.100
33.000	15.071	0.100
33.100	22.117	0.100
33.200	20.831	0.100
33.300	14.401	0.100
33.400	13.756	0.100
33.500	7.164	0.100
33.600	-2.044	0.100
33.700	16.652	0.100
33.800	9.192	0.100
33.900	14.369	0.100
34.000	32.540	0.100
34.100	14.461	0.100
34.200	19.082	0.100
34.300	21.083	0.100
34.400	9.709	0.100
34.500	5.494	0.100
34.600	20.773	0.100
34.700	7.519	0.100
34.800	6.011	0.100
34.900	9.010	0.100
35.000	7.919	0.100
35.100	17.380	0.100
35.200	17.979	0.100
35.300	16.448	0.100
35.400	6.171	0.100
35.500	18.429	0.100
35.600	9.737	0.100
35.700	-3.587	0.100
35.800	6.196	0.100
35.900	5.974	0.100
36.000	20.537	0.100
36.100	11.297	0.100
36.200	4.514	0.100
36.300	5.224	0.100
36.400	3.256	0.100
36.500	12.938	0.100
36.600	21.048	0.100
36.700	35.168	0.100
36.800	19.003	0.100
36.900	7.623	0.100
37.000	-4.101	0.100
37.100	12.508	0.100
37.200	9.547	0.100
37.300	4.145	0.100
37.400	14.908	0.100
37.500	13.284	0.100
37.600	16.094	0.100
37.700	11.923	0.100
37.800	10.168	0.100
37.900	16.668	0.100
38.000	11.949	0.100
38.100	11.879	0.100
38.200	8.987	0.100
38.300	-8.005	0.100
38.400	22.106	0.100
38.500	9.851	0.100
38.600	13.910	0.100
38.700	7.336	0.100
38.800	18.131	0.100
38.900	21.704	0.100
39.000	17.063	0.100
39.100	19.935	0.100
39.200	16.262	0.100
39.300	17.727	0.100
39.400	7.882	0.100
39.500	7.760	0.100
39.600	13.644	0.100
39.700	8.579	0.100
39.800	19.508	0.100
39.900	19.478	0.100
40.000	10.395	0.100
40.100	20.209	0.100
40.200	11.077	0.100
40.300	22.041	0.100
40.400	13.922	0.100
40.500	9.116	0.100
40.600	21.003	0.100
40.700	20.904	0.100
40.800	15.892	0.100
40.900	23.715	0.100
41.000	11.835	0.100
41.100	13.608	0.100
41.200	16.908	0.100
41.300	18.474	0.100
41.400	16.689	0.100
41.500	19.367	0.100
41.600	16.650	0.100
41.700	32.039	0.100
41.800	34.246	0.100
41.900	26.224	0.100
42.000	22.535	0.100
42.100	12.602	0.100
42.200	12.530	0.100
42.300	21.855	0.100
42.400	28.378	0.100
42.500	24.785	0.100
42.600	32.357	0.100
42.700	24.860	0.100
42.800	23.167	0.100
42.900	19.695	0.100
43.000	21.508	0.100
43.100	31.666	0.100
43.200	37.646	0.100
43.300	17.141	0.100
43.400	22.078	0.100
43.500	19.473	0.100
43.600	33.896	0.100
43.700	23.791	0.100
43.800	23.124	0.100
43.900	38.003	0.100
44.000	28.876	0.100
44.100	26.839	0.100
44.200	29.995	0.100
44.300	36.134	0.100
44.400	14.052	0.100
44.500	25.341	0.100
44.600	40.894	0.100
44.700	23.760	0.100
44.800	15.282	0.100
44.900	26.571	0.100
45.000	34.885	0.100
45.100	21.266	0.100
45.200	45.421	0.100
45.300	29.105	0.100
45.400	37.173	0.100
45.500	35.356	0.100
45.600	22.285	0.100
45.700	22.414	0.100
45.800	35.317	0.100
45.900	30.429	0.100
46.000	53.509	0.100
46.100	40.634	0.100
46.200	33.490	0.100
46.300	31.082	0.100
46.400	37.363	0.100
46.500	39.410	0.100
46.600	26.443	0.100
46.700	52.793	0.100
46.800	30.245	0.100
46.900	26.595	0.100
47.000	47.219	0.100
47.100	50.945	0.100
47.200	44.746	0.100
47.300	35.193	0.100
47.400	35.540	0.100
47.500	30.184	0.100
47.600	25.345	0.100
47.700	27.625	0.100
47.800	52.560	0.100
47.900	42.085	0.100
48.000	38.330	0.100
48.100	35.562	0.100
48.200	40.260	0.100
48.300	31.875	0.100
48.400	39.590	0.100
48.500	38.046	0.100
48.600	47.054	0.100
48.700	46.174	0.100
48.800	43.043	0.100
48.900	42.809	0.100
49.000	40.572	0.100
49.100	45.338	0.100
49.200	52.424	0.100
49.300	45.314	0.100
49.400	54.422	0.100
49.500	34.206	0.100
49.600	47.674	0.100
49.700	49.232	0.100
49.800	47.387	0.100
49.900	51.136	0.100
50.000	45.489	0.100
50.100	44.306	0.100
50.200	39.203	0.100
50.300	36.039	0.100
50.400	39.411	0.100
50.500	38.210	0.100
50.600	40.345	0.100
50.700	47.369	0.100
50.800	50.627	0.100
50.900	41.938	0.100
51.000	41.678	0.100
51.100	34.853	0.100
51.200	41.488	0.100
51.300	61.899	0.100
51.400	51.925	0.100
51.500	42.901	0.100
51.600	46.314	0.100
51.700	63.133	0.100
51.800	64.076	0.100
51.900	29.405	0.100
52.000	53.890	0.100
52.100	53.030	0.100
52.200	62.728	0.100
52.300	59.877	0.100
52.400	55.252	0.100
52.500	50.748	0.100
52.600	45.527	0.100
52.700	45.112	0.100
52.800	55.326	0.100
52.900	52.163	0.100
53.000	52.289	0.100
53.100	49.163	0.100
53.200	53.896	0.100
53.300	52.487	0.100
53.400	67.890	0.100
53.500	58.377	0.100
53.600	60.943	0.100
53.700	48.543	0.100
53.800	41.729	0.100
53.900	49.006	0.100
54.000	53.334	0.100
54.100	48.525	0.100
54.200	69.506	0.100
54.300	62.785	0.100
54.400	57.624	0.100
54.500	46.753	0.100
54.600	64.597	0.100
54.700	57.287	0.100
54.800	59.627	0.100
54.900	56.017	0.100
55.000	63.417	0.100
55.100	56.928	0.100
55.200	54.953	0.100
55.300	53.507	0.100
55.400	70.610	0.100
55.500	52.177	0.100
55.600	39.894	0.100
55.700	58.756	0.100
55.800	55.575	0.100
55.900	45.278	0.100
56.000	58.516	0.100
56.100	49.480	0.100
56.200	59.299	0.100
56.300	49.735	0.100
56.400	67.158	0.100
56.500	43.174	0.100
56.600	66.861	0.100
56.700	56.894	0.100
56.800	64.216	0.100
56.900	63.475	0.100
57.000	58.625	0.100
57.100	60.713	0.100
57.200	45.818	0.100
57.300	39.180	0.100
57.400	73.386	0.100
57.500	59.674	0.100
57.600	52.908	0.100
57.700	59.692	0.100
57.800	58.348	0.100
57.900	63.207	0.100
58.000	49.567	0.100
58.100	51.347	0.100
58.200	52.958	0.100
58.300	59.004	0.100
58.400	61.064	0.100
58.500	63.939	0.100
58.600	54.296	0.100
58.700	66.949	0.100
58.800	59.725	0.100
58.900	57.177	0.100
59.000	38.380	0.100
59.100	62.614	0.100
59.200	55.015	0.100
59.300	68.291	0.100
59.400	48.080	0.100
59.500	59.774	0.100
59.600	46.871	0.100
59.700	50.137	0.100
59.800	49.460	0.100
59.900	54.437	0.100
60.000	73.998	0.100
60.100	61.238	0.100
60.200	44.800	0.100
60.300	52.466	0.100
60.400	53.766	0.100
60.500	48.730	0.100
60.600	51.258	0.100
60.700	44.400	0.100
60.800	52.432	0.100
60.900	51.994	0.100
61.000	61.514	0.100
61.100	54.110	0.100
61.200	62.454	0.100
61.300	56.340	0.100
61.400	42.002	0.100
61.500	46.609	0.100
61.600	61.627	0.100
61.700	56.558	0.100
61.800	60.386	0.100
61.900	46.525	0.100
62.000	55.036	0.100
62.100	58.496	0.100
62.200	58.495	0.100
62.300	55.044	0.100
62.400	50.551	0.100
62.500	59.610	0.100
62.600	57.742	0.100
62.700	68.661	0.100
62.800	54.419	0.100
62.900	46.029	0.100
63.000	64.400	0.100
63.100	58.679	0.100
63.200	57.677	0.100
63.300	57.994	0.100
63.400	54.960	0.100
63.500	67.112	0.100
63.600	47.759	0.100
63.700	50.696	0.100
63.800	63.937	0.100
63.900	57.626	0.100
64.000	49.178	0.100
64.100	52.649	0.100
64.200	65.665	0.100
64.300	52.907	0.100
64.400	47.779	0.100
64.500	50.751	0.100
64.600	56.215	0.100
64.700	52.863	0.100
64.800	56.060	0.100
64.900	46.387	0.100
65.000	45.767	0.100
65.100	53.255	0.100
65.200	68.340	0.100
65.300	59.546	0.100
65.400	45.404	0.100
65.500	44.143	0.100
65.600	55.921	0.100
65.700	49.441	0.100
65.800	53.282	0.100
65.900	48.238	0.100
66.000	47.996	0.100
66.100	45.228	0.100
66.200	62.152	0.100
66.300	52.775	0.100
66.400	48.880	0.100
66.500	61.185	0.100
66.600	54.320	0.100
66.700	56.512	0.100
66.800	51.262	0.100
66.900	39.536	0.100
67.000	55.392	0.100
67.100	58.522	0.100
67.200	58.120	0.100
67.300	59.367	0.100
67.400	38.144	0.100
67.500	50.906	0.100
67.600	58.977	0.100
67.700	61.229	0.100
67.800	57.782	0.100
67.900	51.023	0.100
68.000	56.703	0.100
68.100	63.240	0.100
68.200	45.107	0.100
68.300	47.558	0.100
68.400	64.003	0.100
68.500	68.746	0.100
68.600	60.054	0.100
68.700	57.339	0.100
68.800	51.608	0.100
68.900	55.553	0.100
69.000	49.768	0.100
69.100	52.483	0.100
69.200	61.086	0.100
69.300	60.606	0.100
69.400	51.653	0.100
69.500	57.157	0.100
69.600	55.319	0.100
69.700	42.026	0.100
69.800	52.898	0.100
69.900	50.312	0.100
70.000	63.589	0.100
70.100	77.858	0.100
70.200	50.443	0.100
70.300	51.552	0.100
70.400	55.785	0.100
70.500	64.188	0.100
70.600	63.236	0.100
70.700	57.140	0.100
70.800	51.077	0.100
70.900	53.967	0.100
71.000	53.689	0.100
71.100	38.699	0.100
71.200	56.196	0.100
71.300	57.116	0.100
71.400	45.841	0.100
71.500	47.949	0.100
71.600	56.532	0.100
71.700	53.918	0.100
71.800	58.980	0.100
71.900	58.860	0.100
72.000	39.243	0.100
72.100	54.691	0.100
72.200	52.726	0.100
72.300	48.553	0.100
72.400	63.651	0.100
72.500	38.795	0.100
72.600	51.539	0.100
72.700	52.553	0.100
72.800	64.250	0.100
72.900	63.756	0.100
73.000	54.822	0.100
73.100	50.705	0.100
73.200	71.401	0.100
73.300	49.646	0.100
73.400	47.523	0.100
73.500	33.446	0.100
73.600	46.296	0.100
73.700	58.917	0.100
73.800	45.940	0.100
73.900	68.383	0.100
74.000	61.569	0.100
74.100	49.468	0.100
74.200	47.016	0.100
74.300	49.800	0.100
74.400	44.185	0.100
74.500	50.613	0.100
74.600	48.658	0.100
74.700	66.978	0.100
74.800	59.829	0.100
74.900	48.617	0.100
75.000	59.818	0.100
75.100	56.663	0.100
75.200	49.889	0.100
75.300	50.263	0.100
75.400	45.119	0.100
75.500	51.938	0.100
75.600	55.947	0.100
75.700	54.434	0.100
75.800	53.923	0.100
75.900	47.683	0.100
76.000	71.578	0.100
76.100	48.716	0.100
76.200	48.992	0.100
76.300	53.024	0.100
76.400	49.701	0.100
76.500	46.256	0.100
76.600	63.488	0.100
76.700	57.268	0.100
76.800	34.048	0.100
76.900	43.394	0.100
77.000	54.915	0.100
77.100	51.212	0.100
77.200	47.076	0.100
77.300	66.006	0.100
77.400	70.095	0.100
77.500	51.870	0.100
77.600	53.445	0.100
77.700	55.619	0.100
77.800	44.208	0.100
77.900	58.719	0.100
78.000	56.936	0.100
78.100	50.200	0.100
78.200	64.464	0.100
78.300	63.015	0.100
78.400	62.156	0.100
78.500	51.082	0.100
78.600	54.553	0.100
78.700	59.295	0.100
78.800	57.235	0.100
78.900	41.277	0.100
79.000	55.913	0.100
79.100	61.568	0.100
79.200	55.184	0.100
79.300	47.856	0.100
79.400	50.585	0.100
79.500	42.139	0.100
79.600	60.584	0.100
79.700	53.099	0.100
79.800	55.754	0.100
79.900	35.224	0.100
80.000	46.338	0.100
80.100	49.147	0.100
80.200	62.485	0.100
80.300	58.458	0.100
80.400	49.569	0.100
80.500	52.402	0.100
80.600	63.463	0.100
80.700	45.081	0.100
80.800	57.275	0.100
80.900	54.012	0.100
81.000	56.825	0.100
81.100	53.603	0.100
81.200	50.875	0.100
81.300	57.562	0.100
81.400	36.120	0.100
81.500	56.880	0.100
81.600	61.336	0.100
81.700	53.855	0.100
81.800	50.980	0.100
81.900	42.257	0.100
82.000	55.062	0.100
82.100	47.544	0.100
82.200	49.258	0.100
82.300	49.575	0.100
82.400	60.518	0.100
82.500	59.975	0.100
82.600	46.379	0.100
82.700	56.703	0.100
82.800	48.595	0.100
82.900	53.376	0.100
83.000	57.270	0.100
83.100	59.477	0.100
83.200	41.100	0.100
83.300	36.099	0.100
83.400	49.957	0.100
83.500	46.971	0.100
83.600	69.435	0.100
83.700	56.371	0.100
83.800	56.329	0.100
83.900	46.916	0.100
84.000	57.036	0.100
84.100	62.387	0.100
84.200	61.558	0.100
84.300	53.973	0.100
84.400	48.904	0.100
84.500	37.436	0.100
84.600	56.232	0.100
84.700	58.237	0.100
84.800	56.913	0.100
84.900	48.911	0.100
85.000	48.798	0.100
85.100	46.718	0.100
85.200	59.986	0.100
85.300	63.767	0.100
85.400	41.360	0.100
85.500	58.656	0.100
85.600	52.493	0.100
85.700	46.398	0.100
85.800	51.824	0.100
85.900	59.059	0.100
86.000	60.950	0.100
86.100	56.708	0.100
86.200	50.391	0.100
86.300	62.381	0.100
86.400	51.562	0.100
86.500	51.976	0.100
86.600	55.405	0.100
86.700	43.520	0.100
86.800	39.134	0.100
86.900	50.600	0.100
87.000	55.190	0.100
87.100	41.559	0.100
87.200	48.428	0.100
87.300	53.964	0.100
87.400	50.842	0.100
87.500	66.441	0.100
87.600	64.443	0.100
87.700	46.595	0.100
87.800	48.983	0.100
87.900	43.581	0.100
88.000	65.151	0.100
88.100	54.277	0.100
88.200	52.655	0.100
88.300	46.111	0.100
88.400	42.608	0.100
88.500	48.532	0.100
88.600	68.442	0.100
88.700	58.027	0.100
88.800	52.624	0.100
88.900	57.409	0.100
89.000	54.199	0.100
89.100	49.675	0.100
89.200	60.241	0.100
89.300	51.167	0.100
89.400	53.817	0.100
89.500	42.700	0.100
89.600	54.286	0.100
89.700	49.332	0.100
89.800	48.384	0.100
89.900	50.336	0.100
90.000	53.456	0.100
90.100	52.299	0.100
90.200	58.867	0.100
90.300	52.101	0.100
90.400	50.990	0.100
90.500	48.175	0.100
90.600	47.882	0.100
90.700	52.647	0.100
90.800	52.859	0.100
90.900	36.983	0.100
91.000	50.537	0.100
91.100	51.061	0.100
91.200	45.520	0.100
91.300	36.279	0.100
91.400	36.031	0.100
91.500	36.850	0.100
91.600	38.463	0.100
91.700	35.260	0.100
91.800	32.704	0.100
91.900	29.465	0.100
92.000	32.244	0.100
92.100	27.758	0.100
92.200	27.163	0.100
92.300	14.470	0.100
92.400	26.461	0.100
92.500	30.042	0.100
92.600	29.329	0.100
92.700	27.586	0.100
92.800	23.892	0.100
92.900	14.071	0.100
93.000	21.656	0.100
93.100	26.610	0.100
93.200	8.903	0.100
93.300	13.179	0.100
93.400	24.773	0.100
93.500	23.940	0.100
93.600	10.740	0.100
93.700	30.468	0.100
93.800	17.390	0.100
93.900	20.660	0.100
94.000	13.724	0.100
94.100	3.599	0.100
94.200	14.192	0.100
94.300	11.812	0.100
94.400	6.267	0.100
94.500	8.092	0.100
94.600	11.098	0.100
94.700	19.694	0.100
94.800	1.346	0.100
94.900	16.368	0.100
95.000	4.138	0.100
95.100	0.875	0.100
95.200	23.902	0.100
95.300	7.699	0.100
95.400	19.092	0.100
95.500	17.881	0.100
95.600	4.055	0.100
95.700	11.477	0.100
95.800	11.358	0.100
95.900	5.193	0.100
96.000	8.200	0.100
96.100	5.836	0.100
96.200	-8.612	0.100
96.300	9.493	0.100
96.400	12.912	0.100
96.500	13.384	0.100
96.600	5.524	0.100
96.700	22.096	0.100
96.800	4.691	0.100
96.900	20.769	0.100
97.000	9.768	0.100
97.100	16.490	0.100
97.200	-1.977	0.100
97.300	-0.864	0.100
97.400	4.565	0.100
97.500	12.476	0.100
97.600	4.475	0.100
97.700	9.054	0.100
97.800	2.762	0.100
97.900	-0.038	0.100
98.000	8.379	0.100
98.100	0.546	0.100
98.200	4.284	0.100
98.300	0.880	0.100
98.400	6.438	0.100
98.500	5.468	0.100
98.600	7.589	0.100
98.700	5.000	0.100
98.800	22.434	0.100
98.900	1.760	0.100
99.000	6.040	0.100
99.100	7.324	0.100
99.200	12.622	0.100
99.300	-0.763	0.100
99.400	-6.824	0.100
99.500	-3.621	0.100
99.600	-7.394	0.100
99.700	4.605	0.100
99.800	-2.288	0.100
99.900	-2.531	0.100
100.000	-1.886	0.100
100.100	-3.037	0.100
100.200	-4.593	0.100
100.300	5.967	0.100
100.400	4.538	0.100
100.500	15.110	0.100
100.600	5.489	0.100
100.700	-1.062	0.100
100.800	9.794	0.100
100.900	-3.628	0.100
101.000	2.501	0.100
101.100	9.575	0.100
101.200	-3.477	0.100
101.300	-6.834	0.100
101.400	4.207	0.100
101.500	6.943	0.100
101.600	5.338	0.100
101.700	-0.587	0.100
101.800	12.143	0.100
101.900	17.823	0.100
102.000	-11.488	0.100
102.100	-4.366	0.100
102.200	5.011	0.100
102.300	13.348	0.100
102.400	10.178	0.100
102.500	4.862	0.100
102.600	-2.895	0.100
102.700	-8.881	0.100
102.800	16.429	0.100
102.900	-1.027	0.100
103.000	-7.102	0.100
103.100	1.450	0.100
103.200	-11.123	0.100
103.300	9.171	0.100
103.400	6.848	0.100
103.500	8.541	0.100
103.600	-6.213	0.100
103.700	-6.868	0.100
103.800	1.256	0.100
103.900	11.042	0.100
104.000	-2.068	0.100
104.100	12.699	0.100
104.200	-10.130	0.100
104.300	-9.996	0.100
104.400	5.510	0.100
104.500	6.290	0.100
104.600	-0.071	0.100
104.700	8.556	0.100
104.800	7.684	0.100
104.900	-6.792	0.100
105.000	15.630	0.100
105.100	5.248	0.100
105.200	5.361	0.100
105.300	4.294	0.100
105.400	11.698	0.100
105.500	-7.065	0.100
105.600	-14.186	0.100
105.700	-6.834	0.100
105.800	-14.988	0.100
105.900	15.408	0.100
106.000	0.649	0.100
106.100	4.258	0.100
106.200	3.045	0.100
106.300	14.585	0.100
106.400	-2.329	0.100
106.500	-8.404	0.100
106.600	-13.379	0.100
106.700	3.246	0.100
106.800	-1.825	0.100
106.900	-7.401	0.100
107.000	2.400	0.100
107.100	-1.602	0.100
107.200	-19.647	0.100
107.300	-9.866	0.100
107.400	-6.581	0.100
107.500	4.901	0.100
107.600	4.416	0.100
107.700	-0.944	0.100
107.800	-6.334	0.100
107.900	10.711	0.100
108.000	1.344	0.100
108.100	-8.753	0.100
108.200	-8.125	0.100
108.300	-9.036	0.100
108.400	-10.748	0.100
108.500	-0.701	0.100
108.600	4.988	0.100
108.700	0.869	0.100
108.800	-1.113	0.100
108.900	-3.739	0.100
109.000	-11.797	0.100
109.100	-3.965	0.100
109.200	-3.577	0.100
109.300	-0.257	0.100
109.400	-4.837	0.100
109.500	7.791	0.100
109.600	-18.578	0.100
109.700	9.384	0.100
109.800	-5.621	0.100
109.900	-10.711	0.100
110.000	-6.603	0.100
110.100	9.130	0.100
110.200	0.955	0.100
110.300	-9.342	0.100
110.400	2.171	0.100
110.500	-9.041	0.100
110.600	17.159	0.100
110.700	-4.245	0.100
110.800	-4.749	0.100
110.900	-3.021	0.100
111.000	-5.635	0.100
111.100	-30.300	0.100
111.200	-3.257	0.100
111.300	0.125	0.100
111.400	-2.407	0.100
111.500	-3.673	0.100
111.600	-12.937	0.100
111.700	-11.393	0.100
111.800	-2.392	0.100
111.900	-4.753	0.100
112.000	-10.960	0.100
112.100	-13.245	0.100
112.200	-3.048	0.100
112.300	-6.036	0.100
112.400	-9.631	0.100
112.500	6.509	0.100
112.600	-4.850	0.100
112.700	-0.685	0.100
112.800	-5.132	0.100
112.900	-9.700	0.100
113.000	-13.624	0.100
113.100	-10.921	0.100
113.200	-6.224	0.100
113.300	-2.131	0.100
113.400	-5.261	0.100
113.500	12.486	0.100
113.600	-11.667	0.100
113.700	-7.925	0.100
113.800	-11.358	0.100
113.900	-26.693	0.100
114.000	-13.961	0.100
114.100	1.549	0.100
114.200	-6.214	0.100
114.300	-10.230	0.100
114.400	0.941	0.100
114.500	-12.007	0.100
114.600	-14.675	0.100
114.700	-5.153	0.100
114.800	-14.089	0.100
114.900	-9.558	0.100
115.000	-3.233	0.100
115.100	-1.466	0.100
115.200	-7.678	0.100
115.300	-9.692	0.100
115.400	-13.429	0.100
115.500	-9.512	0.100
115.600	1.358	0.100
115.700	-12.980	0.100
115.800	-7.389	0.100
115.900	-8.531	0.100
116.000	-27.758	0.100
116.100	-4.921	0.100
116.200	-4.954	0.100
116.300	3.380	0.100
116.400	-2.024	0.100
116.500	-10.671	0.100
116.600	-19.272	0.100
116.700	-15.512	0.100
116.800	-16.898	0.100
116.900	-19.353	0.100
117.000	-12.934	0.100
117.100	0.872	0.100
117.200	-10.616	0.100
117.300	-16.317	0.100
117.400	-14.963	0.100
117.500	-4.260	0.100
117.600	-10.561	0.100
117.700	-24.835	0.100
117.800	-4.651	0.100
117.900	-17.088	0.100
118.000	-11.633	0.100
118.100	-6.904	0.100
118.200	-4.259	0.100
118.300	-5.257	0.100
118.400	-9.326	0.100
118.500	-14.923	0.100
118.600	-18.601	0.100
118.700	-1.916	0.100
118.800	-16.340	0.100
118.900	-9.374	0.100
119.000	-13.846	0.100
119.100	1.898	0.100
119.200	-10.393	0.100
119.300	-13.009	0.100
119.400	-16.644	0.100
119.500	-11.429	0.100
119.600	0.581	0.100
119.700	-19.779	0.100
119.800	-10.756	0.100
119.900	-14.898	0.100
120.000	-16.856	0.100
120.100	1.571	0.100
120.200	-12.505	0.100
120.300	-27.692	0.100
120.400	-10.495	0.100
120.500	-27.187	0.100
120.600	-20.985	0.100
120.700	-9.969	0.100
120.800	-6.587	0.100
120.900	-16.302	0.100
121.000	-4.835	0.100
121.100	-7.807	0.100
121.200	-13.550	0.100
121.300	-11.893	0.100
121.400	-6.601	0.100
121.500	-0.264	0.100
121.600	-19.774	0.100
121.700	-12.754	0.100
121.800	-22.548	0.100
121.900	-9.379	0.100
122.000	-9.892	0.100
122.100	-7.647	0.100
122.200	-10.371	0.100
122.300	-15.190	0.100
122.400	-19.063	0.100
122.500	-19.906	0.100
122.600	-20.757	0.100
122.700	-19.782	0.100
122.800	-2.334	0.100
122.900	-12.605	0.100
123.000	-19.506	0.100
123.100	-16.500	0.100
123.200	-16.836	0.100
123.300	-6.896	0.100
123.400	-15.790	0.100
123.500	-27.107	0.100
123.600	-11.947	0.100
123.700	-11.624	0.100
123.800	-14.536	0.100
123.900	-22.317	0.100
124.000	-7.600	0.100
124.100	-21.303	0.100
124.200	-12.869	0.100
124.300	-11.706	0.100
124.400	-17.702	0.100
124.500	-7.686	0.100
124.600	-6.884	0.100
124.700	-15.401	0.100
124.800	-23.320	0.100
124.900	-15.159	0.100
125.000	-11.952	0.100
125.100	-13.025	0.100
125.200	-19.774	0.100
125.300	-0.907	0.100
125.400	-14.074	0.100
125.500	-9.442	0.100
125.600	-19.626	0.100
125.700	-8.974	0.100
125.800	-13.331	0.100
125.900	-27.271	0.100
126.000	-9.491	0.100
126.100	-14.144	0.100
126.200	-16.404	0.100
126.300	-18.126	0.100
126.400	-11.059	0.100
126.500	-27.697	0.100
126.600	-25.607	0.100
126.700	-17.933	0.100
126.800	-7.063	0.100
126.900	-14.885	0.100
127.000	-36.264	0.100
127.100	-1.127	0.100
127.200	-19.185	0.100
127.300	-6.680	0.100
127.400	-17.292	0.100
127.500	-20.195	0.100
127.600	-13.640	0.100
127.700	-6.871	0.100
127.800	-22.277	0.100
127.900	-28.795	0.100
128.000	-1.866	0.100
128.100	-20.253	0.100
128.200	-21.242	0.100
128.300	-19.453	0.100
128.400	-18.132	0.100
128.500	-23.786	0.100
128.600	-20.346	0.100
128.700	-20.292	0.100
128.800	-16.566	0.100
128.900	-24.164	0.100
129.000	-1.287	0.100
129.100	-19.387	0.100
129.200	-25.447	0.100
129.300	-14.583	0.100
129.400	-13.732	0.100
129.500	-17.252	0.100
129.600	-17.288	0.100
129.700	-22.980	0.100
129.800	-14.847	0.100
129.900	-18.218	0.100
130.000	-11.408	0.100
130.100	-9.096	0.100
130.200	-31.942	0.100
130.300	-17.022	0.100
130.400	-12.445	0.100
130.500	-17.900	0.100
130.600	-12.970	0.100
130.700	-19.078	0.100
130.800	-21.278	0.100
130.900	-19.696	0.100
131.000	-25.271	0.100
131.100	-12.226	0.100
131.200	-9.195	0.100
131.300	-16.643	0.100
131.400	-18.030	0.100
131.500	-13.688	0.100
131.600	-17.801	0.100
131.700	-13.780	0.100
131.800	-23.001	0.100
131.900	-25.511	0.100
132.000	-13.551	0.100
132.100	-24.522	0.100
132.200	-30.083	0.100
132.300	-28.158	0.100
132.400	-16.844	0.100
132.500	-21.990	0.100
132.600	-19.477	0.100
132.700	-17.634	0.100
132.800	-21.581	0.100
132.900	-23.372	0.100
133.000	-21.888	0.100
133.100	-14.796	0.100
133.200	-11.101	0.100
133.300	-18.617	0.100
133.400	-22.750	0.100
133.500	-24.365	0.100
133.600	-26.202	0.100
133.700	-8.870	0.100
133.800	-21.503	0.100
133.900	-27.563	0.100
134.000	-13.559	0.100
134.100	-14.174	0.100
134.200	-18.545	0.100
134.300	-14.396	0.100
134.400	-22.963	0.100
134.500	-12.618	0.100
134.600	-15.721	0.100
134.700	-17.522	0.100
134.800	-26.575	0.100
134.900	-16.445	0.100
135.000	-38.130	0.100
135.100	-18.867	0.100
135.200	-27.899	0.100
135.300	-31.927	0.100
135.400	-23.186	0.100
135.500	-19.129	0.100
135.600	-11.025	0.100
135.700	-17.914	0.100
135.800	-16.559	0.100
135.900	-11.068	0.100
136.000	-30.242	0.100
136.100	-8.675	0.100
136.200	-28.100	0.100
136.300	-16.047	0.100
136.400	-20.393	0.100
136.500	-13.806	0.100
136.600	-24.459	0.100
136.700	-16.396	0.100
136.800	-26.238	0.100
136.900	-15.980	0.100
137.000	-27.648	0.100
137.100	-20.641	0.100
137.200	-16.576	0.100
137.300	-25.385	0.100
137.400	-21.808	0.100
137.500	-12.622	0.100
137.600	-26.143	0.100
137.700	-22.313	0.100
137.800	-41.679	0.100
137.900	-28.322	0.100
138.000	-6.022	0.100
138.100	-15.780	0.100
138.200	-7.975	0.100
138.300	-8.464	0.100
138.400	-22.380	0.100
138.500	-26.120	0.100
138.600	-26.907	0.100
138.700	-12.646	0.100
138.800	-14.110	0.100
138.900	-14.520	0.100
139.000	-19.322	0.100
139.100	-18.154	0.100
139.200	-23.797	0.100
139.300	-24.338	0.100
139.400	-25.789	0.100
139.500	-12.105	0.100
139.600	-24.688	0.100
139.700	-19.196	0.100
139.800	-19.397	0.100
139.900	-28.460	0.100
140.000	-17.264	0.100
140.100	-16.615	0.100
140.200	-19.854	0.100
140.300	-23.315	0.100
140.400	-22.272	0.100
140.500	-21.151	0.100
140.600	-31.793	0.100
140.700	-10.042	0.100
140.800	-9.995	0.100
140.900	-27.718	0.100
141.000	-1.406	0.100
141.100	-27.069	0.100
141.200	-14.318	0.100
141.300	-22.458	0.100
141.400	-29.941	0.100
141.500	-28.787	0.100
141.600	-20.380	0.100
141.700	-7.238	0.100
141.800	-14.782	0.100
141.900	-21.966	0.100
142.000	-24.368	0.100
142.100	-18.534	0.100
142.200	-18.877	0.100
142.300	-28.796	0.100
142.400	-17.553	0.100
142.500	-12.444	0.100
142.600	-11.521	0.100
142.700	-22.309	0.100
142.800	-17.042	0.100
142.900	-19.756	0.100
143.000	-12.408	0.100
143.100	-17.213	0.100
143.200	-18.388	0.100
143.300	-30.408	0.100
143.400	-30.526	0.100
143.500	-20.830	0.100
143.600	-4.964	0.100
143.700	-12.789	0.100
143.800	-13.842	0.100
143.900	-15.345	0.100
144.000	-20.571	0.100
144.100	-21.789	0.100
144.200	-16.559	0.100
144.300	-18.098	0.100
144.400	-21.969	0.100
144.500	-23.606	0.100
144.600	-31.326	0.100
144.700	-23.546	0.100
144.800	-41.857	0.100
144.900	-15.162	0.100
145.000	-1.744	0.100
145.100	-5.495	0.100
145.200	-23.816	0.100
145.300	-18.695	0.100
145.400	-25.370	0.100
145.500	-12.764	0.100
145.600	-19.823	0.100
145.700	-25.489	0.100
145.800	-8.966	0.100
145.900	-26.078	0.100
146.000	-32.923	0.100
146.100	-31.375	0.100
146.200	-23.882	0.100
146.300	-11.908	0.100
146.400	-10.842	0.100
146.500	-24.889	0.100
146.600	-29.249	0.100
146.700	-21.531	0.100
146.800	-16.832	0.100
146.900	-23.025	0.100
147.000	-19.036	0.100
147.100	-23.262	0.100
147.200	-23.252	0.100
147.300	-15.806	0.100
147.400	-17.715	0.100
147.500	-24.657	0.100
147.600	-24.500	0.100
147.700	-22.909	0.100
147.800	-17.270	0.100
147.900	-12.025	0.100
148.000	-7.982	0.100
148.100	-17.662	0.100
148.200	-18.670	0.100
148.300	-21.930	0.100
148.400	-10.653	0.100
148.500	-13.113	0.100
148.600	-13.531	0.100
148.700	-20.172	0.100
148.800	-28.565	0.100
148.900	-21.273	0.100
149.000	-14.225	0.100
149.100	-17.274	0.100
149.200	-23.347	0.100
149.300	-14.495	0.100
149.400	-14.399	0.100
149.500	-24.513	0.100
149.600	-7.603	0.100
149.700	-12.008	0.100
149.800	-20.519	0.100
149.900	-19.503	0.100
150.000	-17.992	0.100
150.100	-24.505	0.100
150.200	-17.743	0.100
150.300	-22.383	0.100
150.400	-25.853	0.100
150.500	-19.836	0.100
150.600	-25.131	0.100
150.700	-20.440	0.100
150.800	-22.395	0.100
150.900	-19.160	0.100
151.000	-19.998	0.100
151.100	-19.777	0.100
151.200	-28.208	0.100
151.300	-9.735	0.100
151.400	-18.950	0.100
151.500	-21.147	0.100
151.600	-16.342	0.100
151.700	-20.900	0.100
151.800	-17.103	0.100
151.900	-12.233	0.100
152.000	-18.626	0.100
152.100	-24.540	0.100
152.200	-21.070	0.100
152.300	-18.138	0.100
152.400	-11.488	0.100
152.500	-23.522	0.100
152.600	-18.556	0.100
152.700	-25.441	0.100
152.800	-13.689	0.100
152.900	-15.799	0.100
153.000	-17.418	0.100
153.100	-11.693	0.100
153.200	-20.732	0.100
153.300	-16.793	0.100
153.400	-15.605	0.100
153.500	-24.288	0.100
153.600	-7.576	0.100
153.700	-9.637	0.100
153.800	-13.188	0.100
153.900	-17.161	0.100
154.000	-9.154	0.100
154.100	-7.236	0.100
154.200	-21.467	0.100
154.300	-21.976	0.100
154.400	-24.463	0.100
154.500	-31.010	0.100
154.600	-21.830	0.100
154.700	-4.383	0.100
154.800	-15.786	0.100
154.900	-21.364	0.100
155.000	-17.369	0.100
155.100	-21.692	0.100
155.200	-21.564	0.100
155.300	-18.348	0.100
155.400	-25.355	0.100
155.500	-23.949	0.100
155.600	-14.114	0.100
155.700	-12.738	0.100
155.800	-29.069	0.100
155.900	-15.419	0.100
156.000	-17.779	0.100
156.100	-22.910	0.100
156.200	-21.807	0.100
156.300	-18.185	0.100
156.400	-19.966	0.100
156.500	-23.799	0.100
156.600	-8.777	0.100
156.700	-17.871	0.100
156.800	-16.301	0.100
156.900	-10.690	0.100
157.000	-11.394	0.100
157.100	-21.903	0.100
157.200	-22.541	0.100
157.300	-17.640	0.100
157.400	-26.221	0.100
157.500	-27.553	0.100
157.600	-16.531	0.100
157.700	-7.105	0.100
157.800	-18.810	0.100
157.900	-13.783	0.100
158.000	-14.762	0.100
158.100	-23.424	0.100
158.200	-2.456	0.100
158.300	1.055	0.100
158.400	-24.555	0.100
158.500	-22.577	0.100
158.600	-17.796	0.100
158.700	-14.483	0.100
158.800	-18.463	0.100
158.900	-26.936	0.100
159.000	-17.859	0.100
159.100	-27.319	0.100
159.200	-18.171	0.100
159.300	-1.860	0.100
159.400	-14.915	0.100
159.500	-18.629	0.100
159.600	-42.924	0.100
159.700	-24.217	0.100
159.800	-4.384	0.100
159.900	-25.108	0.100
160.000	-15.607	0.100
160.100	-22.169	0.100
160.200	-18.712	0.100
160.300	-15.369	0.100
160.400	-21.250	0.100
160.500	-19.475	0.100
160.600	-23.651	0.100
160.700	-18.144	0.100
160.800	-11.437	0.100
160.900	-15.471	0.100
161.000	-23.213	0.100
161.100	-11.496	0.100
161.200	-6.285	0.100
161.300	-20.504	0.100
161.400	-21.162	0.100
161.500	-10.856	0.100
161.600	-16.423	0.100
161.700	-25.182	0.100
161.800	-5.196	0.100
161.900	-8.850	0.100
162.000	-18.769	0.100
162.100	-14.393	0.100
162.200	-16.591	0.100
162.300	-23.665	0.100
162.400	-20.442	0.100
162.500	-25.923	0.100
162.600	-22.455	0.100
162.700	-18.544	0.100
162.800	-21.382	0.100
162.900	-24.209	0.100
163.000	-15.279	0.100
163.100	-18.923	0.100
163.200	-15.378	0.100
163.300	-8.604	0.100
163.400	-8.250	0.100
163.500	-29.971	0.100
163.600	-19.526	0.100
163.700	-21.931	0.100
163.800	-27.959	0.100
163.900	-9.437	0.100
164.000	-10.242	0.100
164.100	-24.066	0.100
164.200	-18.372	0.100
164.300	-14.202	0.100
164.400	-33.613	0.100
164.500	-10.210	0.100
164.600	-23.525	0.100
164.700	-25.588	0.100
164.800	-17.380	0.100
164.900	-11.768	0.100
165.000	-19.801	0.100
165.100	-12.707	0.100
165.200	-21.578	0.100
165.300	-5.383	0.100
165.400	-9.998	0.100
165.500	-20.422	0.100
165.600	-3.677	0.100
165.700	-26.722	0.100
165.800	-17.794	0.100
165.900	-23.905	0.100
166.000	-24.772	0.100
166.100	-16.758	0.100
166.200	-27.457	0.100
166.300	-5.584	0.100
166.400	-20.698	0.100
166.500	-29.404	0.100
166.600	-14.729	0.100
166.700	-7.986	0.100
166.800	-28.806	0.100
166.900	-24.402	0.100
167.000	-17.703	0.100
167.100	-29.175	0.100
167.200	-6.075	0.100
167.300	-26.592	0.100
167.400	-11.193	0.100
167.500	-12.828	0.100
167.600	-8.259	0.100
167.700	-19.802	0.100
167.800	-12.051	0.100
167.900	-11.735	0.100
168.000	-29.634	0.100
168.100	-7.219	0.100
168.200	-28.547	0.100
168.300	-15.531	0.100
168.400	-15.238	0.100
168.500	-16.100	0.100
168.600	-20.946	0.100
168.700	-17.062	0.100
168.800	-19.134	0.100
168.900	-20.888	0.100
169.000	-12.376	0.100
169.100	-18.017	0.100
169.200	-26.744	0.100
169.300	-7.963	0.100
169.400	-18.120	0.100
169.500	-22.681	0.100
169.600	-9.286	0.100
169.700	-16.013	0.100
169.800	-17.372	0.100
169.900	-6.053	0.100
170.000	-34.196	0.100
170.100	-20.850	0.100
170.200	-29.836	0.100
170.300	-11.333	0.100
170.400	-15.836	0.100
170.500	-14.545	0.100
170.600	-13.363	0.100
170.700	-10.433	0.100
170.800	4.288	0.100
170.900	-8.688	0.100
171.000	-23.913	0.100
171.100	-7.952	0.100
171.200	-21.144	0.100
171.300	-23.034	0.100
171.400	-22.580	0.100
171.500	-18.798	0.100
171.600	-5.481	0.100
171.700	-6.259	0.100
171.800	-24.103	0.100
171.900	-8.921	0.100
172.000	-12.612	0.100
172.100	-12.803	0.100
172.200	-11.033	0.100
172.300	-7.859	0.100
172.400	-26.469	0.100
172.500	-20.791	0.100
172.600	-20.866	0.100
172.700	-24.082	0.100
172.800	-16.169	0.100
172.900	-13.679	0.100
173.000	-26.747	0.100
173.100	-10.961	0.100
173.200	-30.138	0.100
173.300	-27.377	0.100
173.400	3.566	0.100
173.500	-18.477	0.100
173.600	-9.347	0.100
173.700	-14.620	0.100
173.800	-19.365	0.100
173.900	-21.651	0.100
174.000	-7.747	0.100
174.100	-19.715	0.100
174.200	-15.275	0.100
174.300	-18.845	0.100
174.400	-21.345	0.100
174.500	-7.572	0.100
174.600	-10.899	0.100
174.700	-20.645	0.100
174.800	-13.605	0.100
174.900	-29.411	0.100
175.000	-22.233	0.100
175.100	-14.392	0.100
175.200	-7.696	0.100
175.300	-14.810	0.100
175.400	-11.146	0.100
175.500	-19.743	0.100
175.600	-15.317	0.100
175.700	-25.778	0.100
175.800	-10.087	0.100
175.900	-5.459	0.100
176.000	-16.594	0.100
176.100	-11.284	0.100
176.200	-13.560	0.100
176.300	-17.181	0.100
176.400	-11.993	0.100
176.500	-24.673	0.100
176.600	-12.518	0.100
176.700	-18.761	0.100
176.800	-18.580	0.100
176.900	-15.519	0.100
177.000	-21.880	0.100
177.100	-20.247	0.100
177.200	-21.317	0.100
177.300	-16.888	0.100
177.400	-17.925	0.100
177.500	-14.467	0.100
177.600	-11.762	0.100
177.700	-9.257	0.100
177.800	-17.607	0.100
177.900	-9.817	0.100
178.000	-24.033	0.100
178.100	-25.820	0.100
178.200	-15.167	0.100
178.300	-25.034	0.100
178.400	-24.344	0.100
178.500	-15.224	0.100
178.600	-17.123	0.100
178.700	-21.255	0.100
178.800	-0.479	0.100
178.900	-1.307	0.100
179.000	-28.150	0.100
179.100	-20.166	0.100
179.200	-14.320	0.100
179.300	-6.197	0.100
179.400	-16.102	0.100
179.500	-28.641	0.100
179.600	-24.856	0.100
179.700	-15.987	0.100
179.800	-9.236	0.100
179.900	-21.889	0.100
180.000	-16.355	0.100
180.100	-18.006	0.100
180.200	-11.296	0.100
180.300	-15.236	0.100
180.400	-11.006	0.100
180.500	-23.611	0.100
180.600	-2.812	0.100
180.700	-28.612	0.100
180.800	-11.087	0.100
180.900	2.327	0.100
181.000	-21.803	0.100
181.100	-14.562	0.100
181.200	-8.602	0.100
181.300	-12.470	0.100
181.400	-3.357	0.100
181.500	12.115	0.100
181.600	8.829	0.100
181.700	7.411	0.100
181.800	4.846	0.100
181.900	6.916	0.100
182.000	5.829	0.100
182.100	6.032	0.100
182.200	6.337	0.100
182.300	17.940	0.100
182.400	21.350	0.100
182.500	8.006	0.100
182.600	9.988	0.100
182.700	10.934	0.100
182.800	4.432	0.100
182.900	10.535	0.100
183.000	9.169	0.100
183.100	12.515	0.100
183.200	16.393	0.100
183.300	15.002	0.100
183.400	11.047	0.100
183.500	9.053	0.100
183.600	12.141	0.100
183.700	9.411	0.100
183.800	13.028	0.100
183.900	17.274	0.100
184.000	10.105	0.100
184.100	21.971	0.100
184.200	29.328	0.100
184.300	20.893	0.100
184.400	10.630	0.100
184.500	10.937	0.100
184.600	1.701	0.100
184.700	11.968	0.100
184.800	26.958	0.100
184.900	19.361	0.100
185.000	4.063	0.100
185.100	28.359	0.100
185.200	12.902	0.100
185.300	11.308	0.100
185.400	12.114	0.100
185.500	19.155	0.100
185.600	10.342	0.100
185.700	2.970	0.100
185.800	17.199	0.100
185.900	22.299	0.100
186.000	16.620	0.100
186.100	12.389	0.100
186.200	12.101	0.100
186.300	-4.143	0.100
186.400	9.690	0.100
186.500	15.833	0.100
186.600	13.449	0.100
186.700	10.592	0.100
186.800	8.064	0.100
186.900	-2.060	0.100
187.000	13.328	0.100
187.100	12.611	0.100
187.200	6.576	0.100
187.300	1.884	0.100
187.400	22.932	0.100
187.500	24.536	0.100
187.600	31.294	0.100
187.700	15.852	0.100
187.800	-7.818	0.100
187.900	14.041	0.100
188.000	3.169	0.100
188.100	20.642	0.100
188.200	25.427	0.100
188.300	19.806	0.100
188.400	4.221	0.100
188.500	13.667	0.100
188.600	10.440	0.100
188.700	4.249	0.100
188.800	26.593	0.100
188.900	22.851	0.100
189.000	12.934	0.100
189.100	-0.386	0.100
189.200	23.342	0.100
189.300	17.245	0.100
189.400	9.108	0.100
189.500	14.991	0.100
189.600	0.112	0.100
189.700	18.581	0.100
189.800	19.734	0.100
189.900	15.028	0.100
190.000	14.393	0.100
190.100	8.686	0.100
190.200	13.942	0.100
190.300	26.370	0.100
190.400	25.191	0.100
190.500	17.747	0.100
190.600	13.901	0.100
190.700	20.340	0.100
190.800	7.252	0.100
190.900	20.543	0.100
191.000	14.183	0.100
191.100	25.902	0.100
191.200	14.348	0.100
191.300	21.498	0.100
191.400	11.882	0.100
191.500	22.400	0.100
191.600	23.581	0.100
191.700	24.688	0.100
191.800	18.551	0.100
191.900	23.823	0.100
192.000	21.272	0.100
192.100	14.534	0.100
192.200	9.675	0.100
192.300	16.864	0.100
192.400	26.807	0.100
192.500	29.654	0.100
192.600	21.922	0.100
192.700	20.699	0.100
192.800	19.975	0.100
192.900	14.939	0.100
193.000	22.641	0.100
193.100	13.493	0.100
193.200	26.521	0.100
193.300	35.600	0.100
193.400	25.407	0.100
193.500	24.655	0.100
193.600	29.521	0.100
193.700	31.209	0.100
193.800	16.712	0.100
193.900	30.742	0.100
194.000	17.194	0.100
194.100	34.610	0.100
194.200	23.712	0.100
194.300	30.335	0.100
194.400	28.125	0.100
194.500	10.314	0.100
194.600	23.258	0.100
194.700	19.895	0.100
194.800	26.475	0.100
194.900	37.938	0.100
195.000	22.818	0.100
195.100	23.221	0.100
195.200	30.494	0.100
195.300	32.417	0.100
195.400	30.370	0.100
195.500	31.477	0.100
195.600	15.722	0.100
195.700	26.343	0.100
195.800	27.706	0.100
195.900	26.118	0.100
196.000	34.318	0.100
196.100	31.305	0.100
196.200	42.347	0.100
196.300	37.454	0.100
196.400	16.471	0.100
196.500	35.815	0.100
196.600	36.838	0.100
196.700	46.365	0.100
196.800	25.406	0.100
196.900	33.092	0.100
197.000	29.600	0.100
197.100	34.466	0.100
197.200	44.696	0.100
197.300	46.219	0.100
197.400	44.537	0.100
197.500	30.331	0.100
197.600	26.527	0.100
197.700	48.780	0.100
197.800	31.412	0.100
197.900	45.739	0.100
198.000	49.407	0.100
198.100	39.286	0.100
198.200	37.070	0.100
198.300	53.862	0.100
198.400	39.284	0.100
198.500	32.638	0.100
198.600	37.899	0.100
198.700	40.733	0.100
198.800	38.609	0.100
198.900	36.193	0.100
199.000	41.378	0.100
199.100	33.613	0.100
199.200	32.518	0.100
199.300	56.121	0.100
199.400	39.255	0.100
199.500	28.070	0.100
199.600	55.043	0.100
199.700	46.364	0.100
199.800	53.890	0.100
199.900	45.447	0.100
200.000	56.252	0.100
200.100	53.654	0.100
200.200	36.623	0.100
200.300	59.592	0.100
200.400	51.735	0.100
200.500	40.525	0.100
200.600	56.452	0.100
200.700	56.872	0.100
200.800	52.867	0.100
200.900	44.853	0.100
201.000	38.088	0.100
201.100	51.977	0.100
201.200	45.241	0.100
201.300	37.900	0.100
201.400	54.959	0.100
201.500	57.228	0.100
201.600	62.590	0.100
201.700	53.249	0.100
201.800	54.242	0.100
201.900	57.502	0.100
202.000	40.793	0.100
202.100	60.680	0.100
202.200	72.547	0.100
202.300	69.613	0.100
202.400	51.424	0.100
202.500	59.507	0.100
202.600	50.388	0.100
202.700	58.099	0.100
202.800	62.236	0.100
202.900	45.607	0.100
203.000	59.497	0.100
203.100	57.049	0.100
203.200	48.080	0.100
203.300	52.588	0.100
203.400	50.749	0.100
203.500	59.121	0.100
203.600	56.521	0.100
203.700	52.402	0.100
203.800	50.179	0.100
203.900	55.700	0.100
204.000	47.522	0.100
204.100	64.614	0.100
204.200	51.005	0.100
204.300	65.410	0.100
204.400	60.518	0.100
204.500	60.200	0.100
204.600	55.883	0.100
204.700	51.722	0.100
204.800	55.971	0.100
204.900	57.731	0.100
205.000	56.085	0.100
205.100	53.221	0.100
205.200	48.411	0.100
205.300	54.092	0.100
205.400	59.642	0.100
205.500	58.883	0.100
205.600	45.155	0.100
205.700	51.965	0.100
205.800	58.127	0.100
205.900	70.954	0.100
206.000	66.883	0.100
206.100	54.734	0.100
206.200	56.461	0.100
206.300	42.679	0.100
206.400	73.965	0.100
206.500	58.790	0.100
206.600	57.234	0.100
206.700	44.348	0.100
206.800	54.183	0.100
206.900	52.795	0.100
207.000	51.755	0.100
207.100	55.074	0.100
207.200	57.093	0.100
207.300	55.013	0.100
207.400	50.062	0.100
207.500	65.911	0.100
207.600	61.088	0.100
207.700	54.135	0.100
207.800	49.395	0.100
207.900	39.633	0.100
208.000	55.441	0.100
208.100	57.558	0.100
208.200	60.981	0.100
208.300	51.012	0.100
208.400	58.660	0.100
208.500	65.027	0.100
208.600	59.946	0.100
208.700	56.204	0.100
208.800	63.084	0.100
208.900	56.504	0.100
209.000	57.408	0.100
209.100	64.531	0.100
209.200	53.427	0.100
209.300	69.330	0.100
209.400	53.940	0.100
209.500	45.329	0.100
209.600	70.998	0.100
209.700	58.897	0.100
209.800	48.016	0.100
209.900	51.629	0.100
210.000	55.244	0.100
210.100	56.505	0.100
210.200	56.663	0.100
210.300	42.165	0.100
210.400	56.298	0.100
210.500	41.141	0.100
210.600	57.261	0.100
210.700	66.409	0.100
210.800	51.989	0.100
210.900	54.778	0.100
211.000	54.949	0.100
211.100	67.276	0.100
211.200	60.636	0.100
211.300	55.615	0.100
211.400	57.402	0.100
211.500	56.190	0.100
211.600	56.681	0.100
211.700	56.752	0.100
211.800	48.271	0.100
211.900	60.380	0.100
212.000	51.653	0.100
212.100	59.375	0.100
212.200	56.618	0.100
212.300	45.253	0.100
212.400	61.524	0.100
212.500	53.174	0.100
212.600	67.020	0.100
212.700	62.393	0.100
212.800	57.132	0.100
212.900	51.352	0.100
213.000	73.699	0.100
213.100	58.376	0.100
213.200	46.479	0.100
213.300	55.371	0.100
213.400	57.122	0.100
213.500	57.100	0.100
213.600	55.287	0.100
213.700	51.117	0.100
213.800	62.008	0.100
213.900	44.131	0.100
214.000	55.330	0.100
214.100	58.874	0.100
214.200	55.120	0.100
214.300	60.602	0.100
214.400	63.646	0.100
214.500	52.385	0.100
214.600	41.734	0.100
214.700	59.140	0.100
214.800	53.810	0.100
214.900	68.078	0.100
215.000	57.126	0.100
215.100	62.814	0.100
215.200	52.814	0.100
215.300	51.622	0.100
215.400	59.460	0.100
215.500	55.443	0.100
215.600	60.253	0.100
215.700	56.324	0.100
215.800	50.206	0.100
215.900	63.495	0.100
216.000	62.869	0.100
216.100	52.237	0.100
216.200	55.435	0.100
216.300	52.743	0.100
216.400	67.113	0.100
216.500	50.353	0.100
216.600	55.193	0.100
216.700	63.716	0.100
216.800	38.270	0.100
216.900	61.624	0.100
217.000	45.912	0.100
217.100	52.040	0.100
217.200	60.330	0.100
217.300	48.039	0.100
217.400	54.834	0.100
217.500	62.479	0.100
217.600	62.094	0.100
217.700	47.376	0.100
217.800	60.099	0.100
217.900	68.298	0.100
218.000	59.117	0.100
218.100	65.484	0.100
218.200	63.441	0.100
218.300	45.932	0.100
218.400	53.994	0.100
218.500	58.159	0.100
218.600	48.455	0.100
218.700	41.564	0.100
218.800	37.819	0.100
218.900	72.171	0.100
219.000	60.313	0.100
219.100	66.268	0.100
219.200	59.644	0.100
219.300	56.524	0.100
219.400	57.278	0.100
219.500	54.731	0.100
219.600	48.363	0.100
219.700	50.811	0.100
219.800	55.971	0.100
219.900	52.168	0.100
220.000	53.788	0.100
220.100	50.911	0.100
220.200	52.271	0.100
220.300	54.494	0.100
220.400	50.675	0.100
220.500	55.078	0.100
220.600	54.571	0.100
220.700	46.227	0.100
220.800	53.680	0.100
220.900	62.316	0.100
221.000	58.215	0.100
221.100	68.823	0.100
221.200	61.145	0.100
221.300	67.094	0.100
221.400	50.252	0.100
221.500	58.525	0.100
221.600	60.828	0.100
221.700	53.265	0.100
221.800	54.996	0.100
221.900	57.212	0.100
222.000	55.107	0.100
222.100	57.843	0.100
222.200	57.517	0.100
222.300	54.584	0.100
222.400	47.086	0.100
222.500	66.382	0.100
222.600	53.980	0.100
222.700	59.039	0.100
222.800	46.595	0.100
222.900	48.942	0.100
223.000	52.136	0.100
223.100	54.319	0.100
223.200	52.852	0.100
223.300	63.417	0.100
223.400	51.614	0.100
223.500	59.122	0.100
223.600	48.130	0.100
223.700	56.470	0.100
223.800	54.540	0.100
223.900	54.455	0.100
224.000	58.457	0.100
224.100	56.653	0.100
224.200	61.879	0.100
224.300	52.320	0.100
224.400	58.334	0.100
224.500	57.510	0.100
224.600	49.946	0.100
224.700	56.060	0.100
224.800	61.953	0.100
224.900	62.368	0.100
225.000	43.881	0.100
225.100	45.228	0.100
225.200	62.732	0.100
225.300	52.380	0.100
225.400	58.779	0.100
225.500	69.177	0.100
225.600	56.420	0.100
225.700	38.954	0.100
225.800	52.781	0.100
225.900	54.747	0.100
226.000	60.647	0.100
226.100	48.421	0.100
226.200	64.910	0.100
226.300	52.131	0.100
226.400	67.039	0.100
226.500	57.247	0.100
226.600	57.313	0.100
226.700	54.504	0.100
226.800	61.103	0.100
226.900	62.232	0.100
227.000	49.172	0.100
227.100	53.530	0.100
227.200	51.640	0.100
227.300	59.683	0.100
227.400	56.444	0.100
227.500	63.018	0.100
227.600	60.041	0.100
227.700	56.766	0.100
227.800	52.285	0.100
227.900	57.135	0.100
228.000	55.038	0.100
228.100	52.462	0.100
228.200	51.506	0.100
228.300	61.416	0.100
228.400	58.208	0.100
228.500	65.722	0.100
228.600	61.765	0.100
228.700	42.715	0.100
228.800	45.134	0.100
228.900	51.483	0.100
229.000	72.613	0.100
229.100	56.212	0.100
229.200	65.735	0.100
229.300	48.597	0.100
229.400	65.906	0.100
229.500	46.412	0.100
229.600	50.151	0.100
229.700	41.147	0.100
229.800	58.002	0.100
229.900	63.131	0.100
230.000	50.364	0.100
230.100	68.289	0.100
230.200	42.567	0.100
230.300	63.516	0.100
230.400	62.438	0.100
230.500	64.281	0.100
230.600	67.737	0.100
230.700	50.575	0.100
230.800	57.043	0.100
230.900	42.529	0.100
231.000	47.859	0.100
231.100	56.971	0.100
231.200	67.162	0.100
231.300	63.490	0.100
231.400	55.983	0.100
231.500	62.323	0.100
231.600	54.926	0.100
231.700	47.777	0.100
231.800	53.084	0.100
231.900	49.205	0.100
232.000	59.437	0.100
232.100	53.280	0.100
232.200	49.501	0.100
232.300	51.702	0.100
232.400	49.672	0.100
232.500	48.646	0.100
232.600	68.783	0.100
232.700	56.487	0.100
232.800	56.010	0.100
232.900	61.036	0.100
233.000	66.716	0.100
233.100	54.765	0.100
233.200	61.908	0.100
233.300	52.688	0.100
233.400	61.630	0.100
233.500	48.914	0.100
233.600	53.601	0.100
233.700	58.880	0.100
233.800	43.243	0.100
233.900	54.929	0.100
234.000	61.048	0.100
234.100	44.224	0.100
234.200	60.789	0.100
234.300	53.162	0.100
234.400	60.132	0.100
234.500	46.368	0.100
234.600	60.810	0.100
234.700	58.253	0.100
234.800	57.163	0.100
234.900	60.660	0.100
235.000	46.073	0.100
235.100	45.304	0.100
235.200	65.381	0.100
235.300	58.104	0.100
235.400	53.766	0.100
235.500	65.119	0.100
235.600	59.966	0.100
235.700	65.807	0.100
235.800	56.401	0.100
235.900	52.782	0.100
236.000	57.542	0.100
236.100	52.808	0.100
236.200	60.634	0.100
236.300	49.287	0.100
236.400	41.479	0.100
236.500	59.059	0.100
236.600	67.902	0.100
236.700	61.389	0.100
236.800	50.669	0.100
236.900	43.583	0.100
237.000	45.590	0.100
237.100	60.718	0.100
237.200	65.035	0.100
237.300	56.356	0.100
237.400	57.022	0.100
237.500	42.886	0.100
237.600	46.364	0.100
237.700	68.247	0.100
237.800	62.945	0.100
237.900	32.428	0.100
238.000	67.136	0.100
238.100	64.857	0.100
238.200	57.851	0.100
238.300	49.608	0.100
238.400	40.452	0.100
238.500	43.224	0.100
238.600	67.131	0.100
238.700	71.052	0.100
238.800	48.112	0.100
238.900	62.729	0.100
239.000	50.304	0.100
239.100	61.290	0.100
239.200	58.109	0.100
239.300	59.660	0.100
239.400	66.880	0.100
239.500	46.992	0.100
239.600	48.466	0.100
239.700	47.881	0.100
239.800	55.636	0.100
239.900	47.111	0.100
240.000	54.224	0.100
240.100	68.046	0.100
240.200	48.177	0.100
240.300	63.870	0.100
240.400	53.851	0.100
240.500	57.526	0.100
240.600	51.645	0.100
240.700	57.174	0.100
240.800	57.129	0.100
240.900	48.487	0.100
241.000	40.096	0.100
241.100	42.779	0.100
241.200	60.072	0.100
241.300	31.413	0.100
241.400	42.020	0.100
241.500	49.334	0.100
241.600	32.266	0.100
241.700	39.057	0.100
241.800	33.195	0.100
241.900	35.580	0.100
242.000	37.763	0.100
242.100	33.429	0.100
242.200	30.334	0.100
242.300	21.521	0.100
242.400	40.654	0.100
242.500	27.537	0.100
242.600	11.800	0.100
242.700	14.050	0.100
242.800	9.535	0.100
242.900	29.570	0.100
243.000	37.158	0.100
243.100	21.079	0.100
243.200	17.670	0.100
243.300	19.605	0.100
243.400	11.786	0.100
243.500	13.772	0.100
243.600	8.424	0.100
243.700	19.087	0.100
243.800	13.807	0.100
243.900	13.916	0.100
244.000	7.749	0.100
244.100	2.460	0.100
244.200	9.985	0.100
244.300	12.571	0.100
244.400	13.425	0.100
244.500	14.140	0.100
244.600	21.599	0.100
244.700	-7.444	0.100
244.800	0.163	0.100
244.900	9.548	0.100
245.000	8.346	0.100
245.100	19.785	0.100
245.200	4.000	0.100
245.300	8.291	0.100
245.400	3.782	0.100
245.500	8.766	0.100
245.600	8.243	0.100
245.700	14.715	0.100
245.800	1.989	0.100
245.900	4.293	0.100
246.000	3.742	0.100
246.100	22.395	0.100
246.200	10.655	0.100
246.300	12.948	0.100
246.400	17.586	0.100
246.500	7.899	0.100
246.600	1.364	0.100
246.700	-1.079	0.100
246.800	5.329	0.100
246.900	6.583	0.100
247.000	2.113	0.100
247.100	6.527	0.100
247.200	11.402	0.100
247.300	8.725	0.100
247.400	-1.489	0.100
247.500	1.253	0.100
247.600	15.025	0.100
247.700	8.267	0.100
247.800	15.218	0.100
247.900	-2.981	0.100
248.000	-1.762	0.100
248.100	-0.682	0.100
248.200	11.120	0.100
248.300	0.894	0.100
248.400	11.942	0.100
248.500	-4.382	0.100
248.600	12.644	0.100
248.700	-5.781	0.100
248.800	5.321	0.100
248.900	33.400	0.100
249.000	0.250	0.100
249.100	2.657	0.100
249.200	8.041	0.100
249.300	-2.994	0.100
249.400	0.040	0.100
249.500	-2.878	0.100
249.600	2.549	0.100
249.700	-4.872	0.100
249.800	12.135	0.100
249.900	9.774	0.100
250.000	-0.469	0.100
250.100	7.692	0.100
250.200	13.552	0.100
250.300	-7.597	0.100
250.400	6.866	0.100
250.500	2.656	0.100
250.600	12.375	0.100
250.700	-2.760	0.100
250.800	-12.328	0.100
250.900	6.136	0.100
251.000	2.834	0.100
251.100	1.465	0.100
251.200	-6.636	0.100
251.300	-0.571	0.100
251.400	-0.426	0.100
251.500	-7.465	0.100
251.600	-8.874	0.100
251.700	-2.240	0.100
251.800	1.447	0.100
251.900	13.172	0.100
252.000	-12.727	0.100
252.100	-7.906	0.100
252.200	1.558	0.100
252.300	6.532	0.100
252.400	-1.677	0.100
252.500	-1.689	0.100
252.600	-4.359	0.100
252.700	-0.326	0.100
252.800	-3.923	0.100
252.900	1.827	0.100
253.000	4.662	0.100
253.100	-7.281	0.100
253.200	-1.281	0.100
253.300	0.609	0.100
253.400	-1.271	0.100
253.500	0.811	0.100
253.600	6.364	0.100
253.700	-13.978	0.100
253.800	-21.985	0.100
253.900	-4.916	0.100
254.000	4.090	0.100
254.100	-10.297	0.100
254.200	8.352	0.100
254.300	2.654	0.100
254.400	-11.962	0.100
254.500	10.044	0.100
254.600	-9.559	0.100
254.700	-0.896	0.100
254.800	-6.604	0.100
254.900	-5.602	0.100
255.000	3.059	0.100
255.100	-10.886	0.100
255.200	3.435	0.100
255.300	7.916	0.100
255.400	1.947	0.100
255.500	-18.554	0.100
255.600	1.510	0.100
255.700	11.930	0.100
255.800	-16.842	0.100
255.900	-4.682	0.100
256.000	-3.753	0.100
256.100	-2.357	0.100
256.200	-6.970	0.100
256.300	-7.934	0.100
256.400	2.466	0.100
256.500	-12.212	0.100
256.600	-5.288	0.100
256.700	-8.476	0.100
256.800	-4.026	0.100
256.900	-3.698	0.100
257.000	5.427	0.100
257.100	-1.624	0.100
257.200	-10.179	0.100
257.300	-9.479	0.100
257.400	-6.679	0.100
257.500	-1.095	0.100
257.600	-2.201	0.100
257.700	-2.433	0.100
257.800	-1.746	0.100
257.900	-4.419	0.100
258.000	-18.413	0.100
258.100	1.911	0.100
258.200	-16.478	0.100
258.300	-1.009	0.100
258.400	-2.660	0.100
258.500	-13.266	0.100
258.600	-0.682	0.100
258.700	-15.443	0.100
258.800	-3.971	0.100
258.900	-4.450	0.100
259.000	3.121	0.100
259.100	-2.173	0.100
259.200	-10.486	0.100
259.300	-1.835	0.100
259.400	-8.230	0.100
259.500	-24.669	0.100
259.600	-20.882	0.100
259.700	-3.636	0.100
259.800	-2.175	0.100
259.900	-12.958	0.100
260.000	-3.614	0.100
260.100	-8.190	0.100
260.200	1.247	0.100
260.300	-19.139	0.100
260.400	-8.539	0.100
260.500	-5.864	0.100
260.600	1.325	0.100
260.700	-11.963	0.100
260.800	-11.858	0.100
260.900	-5.813	0.100
261.000	-11.439	0.100
261.100	-4.378	0.100
261.200	-18.351	0.100
261.300	-4.349	0.100
261.400	-9.105	0.100
261.500	-12.019	0.100
261.600	-9.718	0.100
261.700	-19.069	0.100
261.800	-10.565	0.100
261.900	-20.476	0.100
262.000	-0.568	0.100
262.100	-15.980	0.100
262.200	3.591	0.100
262.300	0.196	0.100
262.400	-8.803	0.100
262.500	-18.788	0.100
262.600	-24.330	0.100
262.700	-17.825	0.100
262.800	-0.519	0.100
262.900	-20.337	0.100
263.000	-19.448	0.100
263.100	-8.270	0.100
263.200	-14.984	0.100
263.300	-23.439	0.100
263.400	-20.359	0.100
263.500	-12.248	0.100
263.600	-11.551	0.100
263.700	-10.836	0.100
263.800	-7.538	0.100
263.900	-3.726	0.100
264.000	-18.604	0.100
264.100	-35.099	0.100
264.200	-11.600	0.100
264.300	-13.269	0.100
264.400	-8.912	0.100
264.500	-18.514	0.100
264.600	-12.052	0.100
264.700	-11.923	0.100
264.800	-12.791	0.100
264.900	-12.233	0.100
265.000	-18.445	0.100
265.100	-9.070	0.100
265.200	-10.412	0.100
265.300	-12.168	0.100
265.400	-20.441	0.100
265.500	-13.061	0.100
265.600	-22.789	0.100
265.700	-13.901	0.100
265.800	-21.920	0.100
265.900	3.463	0.100
266.000	-6.409	0.100
266.100	-23.097	0.100
266.200	-16.637	0.100
266.300	-0.989	0.100
266.400	-13.619	0.100
266.500	-18.876	0.100
266.600	-15.708	0.100
266.700	-27.834	0.100
266.800	-20.818	0.100
266.900	-12.764	0.100
267.000	-18.033	0.100
267.100	-19.840	0.100
267.200	-12.005	0.100
267.300	-10.302	0.100
267.400	-17.022	0.100
267.500	-10.990	0.100
267.600	-13.618	0.100
267.700	-21.292	0.100
267.800	-11.568	0.100
267.900	-24.076	0.100
268.000	-14.534	0.100
268.100	-15.008	0.100
268.200	-31.493	0.100
268.300	-10.844	0.100
268.400	-23.016	0.100
268.500	-11.471	0.100
268.600	-17.144	0.100
268.700	-27.393	0.100
268.800	-32.171	0.100
268.900	-15.246	0.100
269.000	-6.220	0.100
269.100	-15.196	0.100
269.200	-22.564	0.100
269.300	-21.560	0.100
269.400	-0.691	0.100
269.500	-19.104	0.100
269.600	-16.178	0.100
269.700	-15.401	0.100
269.800	-13.318	0.100
269.900	-17.869	0.100
270.000	-22.247	0.100
270.100	-25.063	0.100
270.200	-22.409	0.100
270.300	-27.421	0.100
270.400	-15.941	0.100
270.500	-15.599	0.100
270.600	-24.731	0.100
270.700	-8.949	0.100
270.800	-19.360	0.100
270.900	-13.777	0.100
271.000	-25.476	0.100
271.100	-12.073	0.100
271.200	-14.870	0.100
271.300	-43.526	0.100
271.400	-27.678	0.100
271.500	-14.942	0.100
271.600	-14.867	0.100
271.700	-21.967	0.100
271.800	-17.500	0.100
271.900	-21.117	0.100
272.000	-25.317	0.100
272.100	-29.714	0.100
272.200	-31.303	0.100
272.300	-29.537	0.100
272.400	-5.814	0.100
272.500	-7.633	0.100
272.600	-18.594	0.100
272.700	-24.358	0.100
272.800	-23.869	0.100
272.900	-21.086	0.100
273.000	-10.150	0.100
273.100	-13.273	0.100
273.200	-17.631	0.100
273.300	-33.451	0.100
273.400	-32.484	0.100
273.500	-17.669	0.100
273.600	-8.576	0.100
273.700	-18.867	0.100
273.800	-13.220	0.100
273.900	-28.073	0.100
274.000	-18.560	0.100
274.100	-16.888	0.100
274.200	-22.154	0.100
274.300	-22.993	0.100
274.400	-27.063	0.100
274.500	-26.323	0.100
274.600	-17.182	0.100
274.700	-17.106	0.100
274.800	-22.762	0.100
274.900	-20.839	0.100
275.000	-22.116	0.100
275.100	-30.304	0.100
275.200	-27.789	0.100
275.300	-17.128	0.100
275.400	-26.256	0.100
275.500	-16.396	0.100
275.600	-25.284	0.100
275.700	-22.015	0.100
275.800	-20.235	0.100
275.900	-26.099	0.100
276.000	-31.558	0.100
276.100	-22.564	0.100
276.200	-28.563	0.100
276.300	-27.095	0.100
276.400	-24.203	0.100
276.500	-20.425	0.100
276.600	-15.300	0.100
276.700	-19.027	0.100
276.800	-16.197	0.100
276.900	-30.153	0.100
277.000	-23.798	0.100
277.100	-3.870	0.100
277.200	-20.152	0.100
277.300	-20.150	0.100
277.400	-26.251	0.100
277.500	-25.130	0.100
277.600	-18.547	0.100
277.700	-24.032	0.100
277.800	-32.274	0.100
277.900	-26.876	0.100
278.000	-31.308	0.100
278.100	-19.030	0.100
278.200	-13.318	0.100
278.300	-18.858	0.100
278.400	-17.161	0.100
278.500	-15.756	0.100
278.600	-26.821	0.100
278.700	-39.249	0.100
278.800	-22.686	0.100
278.900	-29.187	0.100
279.000	-35.476	0.100
279.100	-28.051	0.100
279.200	-21.257	0.100
279.300	-19.191	0.100
279.400	-25.348	0.100
279.500	-18.251	0.100
279.600	-26.492	0.100
279.700	-20.377	0.100
279.800	-25.992	0.100
279.900	-19.580	0.100
280.000	-30.867	0.100
280.100	-22.511	0.100
280.200	-27.314	0.100
280.300	-20.976	0.100
280.400	-25.280	0.100
280.500	-23.913	0.100
280.600	-29.710	0.100
280.700	-16.896	0.100
280.800	-20.215	0.100
280.900	-18.560	0.100
281.000	-21.910	0.100
281.100	-25.761	0.100
281.200	-22.771	0.100
281.300	-13.203	0.100
281.400	-22.788	0.100
281.500	-27.030	0.100
281.600	-23.675	0.100
281.700	-25.063	0.100
281.800	-36.283	0.100
281.900	-29.262	0.100
282.000	-36.939	0.100
282.100	-22.531	0.100
282.200	-33.485	0.100
282.300	-6.865	0.100
282.400	-11.955	0.100
282.500	-35.553	0.100
282.600	-31.901	0.100
282.700	-28.378	0.100
282.800	-37.191	0.100
282.900	-17.631	0.100
283.000	-15.680	0.100
283.100	-20.011	0.100
283.200	-18.403	0.100
283.300	-18.013	0.100
283.400	-22.699	0.100
283.500	-24.351	0.100
283.600	-19.151	0.100
283.700	-31.571	0.100
283.800	-17.929	0.100
283.900	-25.233	0.100
284.000	-20.444	0.100
284.100	-25.266	0.100
284.200	-20.203	0.100
284.300	-23.721	0.100
284.400	-8.318	0.100
284.500	-25.370	0.100
284.600	-31.632	0.100
284.700	-24.946	0.100
284.800	-28.247	0.100
284.900	-30.385	0.100
285.000	-26.225	0.100
285.100	-20.325	0.100
285.200	-32.648	0.100
285.300	-25.937	0.100
285.400	-10.795	0.100
285.500	-16.898	0.100
285.600	-24.218	0.100
285.700	-14.047	0.100
285.800	-21.879	0.100
285.900	-30.520	0.100
286.000	-12.414	0.100
286.100	-26.991	0.100
286.200	-20.000	0.100
286.300	-31.587	0.100
286.400	-11.793	0.100
286.500	-21.801	0.100
286.600	-16.576	0.100
286.700	-25.376	0.100
286.800	-30.651	0.100
286.900	-35.850	0.100
287.000	-24.432	0.100
287.100	-16.731	0.100
287.200	-13.419	0.100
287.300	-37.672	0.100
287.400	-31.545	0.100
287.500	-23.221	0.100
287.600	-27.600	0.100
287.700	-34.915	0.100
287.800	-18.114	0.100
287.900	-5.400	0.100
288.000	-21.714	0.100
288.100	-24.537	0.100
288.200	-34.423	0.100
288.300	-22.951	0.100
288.400	-19.378	0.100
288.500	-16.346	0.100
288.600	-37.254	0.100
288.700	-41.272	0.100
288.800	-23.174	0.100
288.900	-26.065	0.100
289.000	-22.501	0.100
289.100	-21.375	0.100
289.200	-17.655	0.100
289.300	-21.401	0.100
289.400	-28.606	0.100
289.500	-39.505	0.100
289.600	-26.890	0.100
289.700	-24.546	0.100
289.800	-30.454	0.100
289.900	-7.501	0.100
290.000	-17.235	0.100
290.100	-26.060	0.100
290.200	-17.862	0.100
290.300	-29.799	0.100
290.400	-25.547	0.100
290.500	-24.475	0.100
290.600	-27.342	0.100
290.700	-23.645	0.100
290.800	-18.905	0.100
290.900	-30.113	0.100
291.000	-39.104	0.100
291.100	-26.664	0.100
291.200	-21.692	0.100
291.300	-24.901	0.100
291.400	-21.277	0.100
291.500	-23.855	0.100
291.600	-21.441	0.100
291.700	-32.136	0.100
291.800	-18.875	0.100
291.900	-25.324	0.100
292.000	-18.738	0.100
292.100	-22.274	0.100
292.200	-16.576	0.100
292.300	-32.677	0.100
292.400	-26.870	0.100
292.500	-8.643	0.100
292.600	-23.286	0.100
292.700	-20.237	0.100
292.800	-30.481	0.100
292.900	-20.466	0.100
293.000	-29.416	0.100
293.100	-24.932	0.100
293.200	-17.780	0.100
293.300	-18.563	0.100
293.400	-27.579	0.100
293.500	-9.618	0.100
293.600	-19.643	0.100
293.700	-25.159	0.100
293.800	-18.542	0.100
293.900	-15.097	0.100
294.000	-26.038	0.100
294.100	-20.658	0.100
294.200	-20.710	0.100
294.300	-25.409	0.100
294.400	-33.061	0.100
294.500	-29.851	0.100
294.600	-25.582	0.100
294.700	-16.694	0.100
294.800	-25.705	0.100
294.900	-3.563	0.100
295.000	-23.277	0.100
295.100	-21.224	0.100
295.200	-22.622	0.100
295.300	-25.839	0.100
295.400	-33.433	0.100
295.500	-24.089	0.100
295.600	-43.143	0.100
295.700	-20.748	0.100
295.800	-15.636	0.100
295.900	-24.696	0.100
296.000	-12.569	0.100
296.100	-30.627	0.100
296.200	-21.375	0.100
296.300	-31.086	0.100
296.400	-28.899	0.100
296.500	-19.313	0.100
296.600	-22.344	0.100
296.700	-21.905	0.100
296.800	-22.678	0.100
296.900	-18.200	0.100
297.000	-25.474	0.100
297.100	-27.658	0.100
297.200	-28.817	0.100
297.300	-25.556	0.100
297.400	-21.180	0.100
297.500	-21.492	0.100
297.600	-8.470	0.100
297.700	-21.109	0.100
297.800	-29.269	0.100
297.900	-23.130	0.100
298.000	-26.833	0.100
298.100	-19.172	0.100
298.200	-13.221	0.100
298.300	-33.177	0.100
298.400	-19.697	0.100
298.500	-14.200	0.100
298.600	-25.871	0.100
298.700	-25.414	0.100
298.800	-20.412	0.100
298.900	-29.796	0.100
299.000	-22.799	0.100
299.100	-33.507	0.100
299.200	-22.864	0.100
299.300	-17.910	0.100
299.400	-21.413	0.100
299.500	-28.200	0.100
299.600	-9.459	0.100
299.700	-22.093	0.100
299.800	-20.935	0.100
299.900	-34.269	0.100
300.000	-18.380	0.100
300.100	-33.171	0.100
300.200	-17.513	0.100
300.300	-18.700	0.100
300.400	-33.393	0.100
300.500	-19.050	0.100
300.600	-26.900	0.100
300.700	-28.152	0.100
300.800	-20.937	0.100
300.900	-26.933	0.100
301.000	-17.922	0.100
301.100	-15.960	0.100
301.200	-17.235	0.100
301.300	-38.137	0.100
301.400	-23.374	0.100
301.500	-13.444	0.100
301.600	-32.603	0.100
301.700	-21.432	0.100
301.800	-35.399	0.100
301.900	-31.397	0.100
302.000	-25.785	0.100
302.100	-23.643	0.100
302.200	-2.809	0.100
302.300	-1.942	0.100
302.400	-29.693	0.100
302.500	-19.858	0.100
302.600	-15.355	0.100
302.700	-27.665	0.100
302.800	-27.086	0.100
302.900	-34.464	0.100
303.000	-21.887	0.100
303.100	-20.651	0.100
303.200	-18.296	0.100
303.300	-21.783	0.100
303.400	-29.007	0.100
303.500	-17.175	0.100
303.600	-23.715	0.100
303.700	-22.025	0.100
303.800	-15.225	0.100
303.900	-22.461	0.100
304.000	-27.567	0.100
304.100	-26.268	0.100
304.200	-26.913	0.100
304.300	-28.928	0.100
304.400	-35.110	0.100
304.500	-21.776	0.100
304.600	-22.690	0.100
304.700	-10.790	0.100
304.800	-20.720	0.100
304.900	-30.049	0.100
305.000	-16.796	0.100
305.100	-29.551	0.100
305.200	-15.786	0.100
305.300	-8.861	0.100
305.400	-15.749	0.100
305.500	-18.344	0.100
305.600	-30.287	0.100
305.700	-20.747	0.100
305.800	-24.162	0.100
305.900	-17.008	0.100
306.000	-11.668	0.100
306.100	-24.981	0.100
306.200	-14.266	0.100
306.300	-32.739	0.100
306.400	-18.398	0.100
306.500	-27.483	0.100
306.600	-30.116	0.100
306.700	-19.627	0.100
306.800	-21.948	0.100
306.900	-32.614	0.100
307.000	-17.981	0.100
307.100	-23.390	0.100
307.200	-18.772	0.100
307.300	-15.539	0.100
307.400	-17.407	0.100
307.500	-14.406	0.100
307.600	-19.907	0.100
307.700	-22.556	0.100
307.800	-28.622	0.100
307.900	-31.748	0.100
308.000	-17.674	0.100
308.100	-15.129	0.100
308.200	-29.322	0.100
308.300	-7.465	0.100
308.400	-5.866	0.100
308.500	-26.215	0.100
308.600	-32.362	0.100
308.700	-23.643	0.100
308.800	-23.784	0.100
308.900	-28.426	0.100
309.000	-34.800	0.100
309.100	-10.958	0.100
309.200	-17.378	0.100
309.300	-30.218	0.100
309.400	-22.550	0.100
309.500	-21.809	0.100
309.600	-26.114	0.100
309.700	-13.235	0.100
309.800	-18.112	0.100
309.900	-26.807	0.100
310.000	-28.060	0.100
310.100	-27.290	0.100
310.200	-25.726	0.100
310.300	-29.788	0.100
310.400	-14.024	0.100
310.500	-28.515	0.100
310.600	-15.464	0.100
310.700	-9.287	0.100
310.800	-16.859	0.100
310.900	-21.836	0.100
311.000	-14.626	0.100
311.100	-24.954	0.100
311.200	-19.405	0.100
311.300	-19.621	0.100
311.400	-21.685	0.100
311.500	-20.656	0.100
311.600	-21.135	0.100
311.700	-25.177	0.100
311.800	-24.925	0.100
311.900	-30.989	0.100
312.000	-20.661	0.100
312.100	-24.010	0.100
312.200	-10.772	0.100
312.300	-14.717	0.100
312.400	-14.655	0.100
312.500	-35.666	0.100
312.600	-12.929	0.100
312.700	-9.227	0.100
312.800	-28.691	0.100
312.900	-28.333	0.100
313.000	-21.505	0.100
313.100	-19.655	0.100
313.200	-22.448	0.100
313.300	-19.214	0.100
313.400	-12.185	0.100
313.500	-22.746	0.100
313.600	-15.643	0.100
313.700	-25.582	0.100
313.800	-29.367	0.100
313.900	-14.652	0.100
314.000	-27.278	0.100
314.100	-23.960	0.100
314.200	-22.798	0.100
314.300	-19.747	0.100
314.400	-11.855	0.100
314.500	-26.779	0.100
314.600	-10.065	0.100
314.700	-17.549	0.100
314.800	-12.257	0.100
314.900	-11.976	0.100
315.000	-17.049	0.100
315.100	-23.915	0.100
315.200	-29.237	0.100
315.300	-24.616	0.100
315.400	-19.442	0.100
315.500	-20.285	0.100
315.600	-21.446	0.100
315.700	-25.039	0.100
315.800	-17.777	0.100
315.900	-19.253	0.100
316.000	-20.345	0.100
316.100	-18.870	0.100
316.200	-10.471	0.100
316.300	-23.727	0.100
316.400	-20.543	0.100
316.500	-18.524	0.100
316.600	-35.146	0.100
316.700	-32.693	0.100
316.800	-19.523	0.100
316.900	-19.842	0.100
317.000	-23.406	0.100
317.100	-29.084	0.100
317.200	-20.065	0.100
317.300	-20.859	0.100
317.400	-12.326	0.100
317.500	-12.549	0.100
317.600	-3.269	0.100
317.700	-24.186	0.100
317.800	-21.786	0.100
317.900	-33.148	0.100
318.000	-9.182	0.100
318.100	-26.371	0.100
318.200	-9.713	0.100
318.300	-18.534	0.100
318.400	-20.310	0.100
318.500	-20.463	0.100
318.600	-21.516	0.100
318.700	-39.112	0.100
318.800	-5.061	0.100
318.900	-24.290	0.100
319.000	-9.131	0.100
319.100	-19.114	0.100
319.200	-17.014	0.100
319.300	-29.837	0.100
319.400	-17.021	0.100
319.500	-22.548	0.100
319.600	-26.021	0.100
319.700	-32.517	0.100
319.800	-26.362	0.100
319.900	-34.392	0.100
320.000	-22.269	0.100
320.100	-12.504	0.100
320.200	-8.266	0.100
320.300	-8.198	0.100
320.400	-33.532	0.100
320.500	-27.463	0.100
320.600	-18.613	0.100
320.700	-20.192	0.100
320.800	-21.378	0.100
320.900	-12.761	0.100
321.000	-17.541	0.100
321.100	-20.356	0.100
321.200	-3.820	0.100
321.300	-16.536	0.100
321.400	-21.607	0.100
321.500	-18.305	0.100
321.600	-7.663	0.100
321.700	-31.191	0.100
321.800	-15.798	0.100
321.900	-16.977	0.100
322.000	-31.447	0.100
322.100	-16.538	0.100
322.200	-10.400	0.100
322.300	-24.691	0.100
322.400	-25.817	0.100
322.500	-19.024	0.100
322.600	-26.765	0.100
322.700	-13.467	0.100
322.800	-18.683	0.100
322.900	-29.040	0.100
323.000	-3.721	0.100
323.100	-17.320	0.100
323.200	-27.629	0.100
323.300	-23.264	0.100
323.400	-23.393	0.100
323.500	-5.734	0.100
323.600	-25.530	0.100
323.700	-30.142	0.100
323.800	-13.978	0.100
323.900	-24.819	0.100
324.000	-22.415	0.100
324.100	-23.378	0.100
324.200	-22.656	0.100
324.300	-15.927	0.100
324.400	-22.089	0.100
324.500	-20.523	0.100
324.600	-17.136	0.100
324.700	-20.812	0.100
324.800	-23.559	0.100
324.900	-16.699	0.100
325.000	-30.656	0.100
325.100	-19.883	0.100
325.200	-26.384	0.100
325.300	-8.436	0.100
325.400	-6.464	0.100
325.500	-11.256	0.100
325.600	-18.961	0.100
325.700	-26.934	0.100
325.800	-16.231	0.100
325.900	-28.470	0.100
326.000	-17.488	0.100
326.100	-32.484	0.100
326.200	-19.548	0.100
326.300	-18.793	0.100
326.400	-8.325	0.100
326.500	-20.220	0.100
326.600	-23.580	0.100
326.700	-12.657	0.100
326.800	-24.378	0.100
326.900	-17.686	0.100
327.000	-16.096	0.100
327.100	-11.694	0.100
327.200	-27.737	0.100
327.300	-14.056	0.100
327.400	-11.525	0.100
327.500	-23.679	0.100
327.600	-19.244	0.100
327.700	-14.844	0.100
327.800	-20.116	0.100
327.900	-24.064	0.100
328.000	-16.500	0.100
328.100	-26.305	0.100
328.200	-30.871	0.100
328.300	-24.610	0.100
328.400	-17.953	0.100
328.500	-6.055	0.100
328.600	-27.808	0.100
328.700	-14.166	0.100
328.800	-11.438	0.100
328.900	-22.442	0.100
329.000	-21.771	0.100
329.100	-18.542	0.100
329.200	-26.481	0.100
329.300	-13.926	0.100
329.400	-21.227	0.100
329.500	-20.055	0.100
329.600	-16.292	0.100
329.700	-33.824	0.100
329.800	-28.359	0.100
329.900	-24.277	0.100
330.000	-7.083	0.100
330.100	-27.313	0.100
330.200	-11.557	0.100
330.300	-20.759	0.100
330.400	-22.354	0.100
330.500	-19.239	0.100
330.600	-21.685	0.100
330.700	-39.454	0.100
330.800	-9.024	0.100
330.900	-15.007	0.100
331.000	-20.000	0.100
331.100	-12.049	0.100
331.200	-21.904	0.100
331.300	-2.785	0.100
331.400	-1.960	0.100
331.500	-14.870	0.100
331.600	-0.862	0.100
331.700	13.420	0.100
331.800	3.784	0.100
331.900	5.203	0.100
332.000	7.679	0.100
332.100	-3.351	0.100
332.200	7.696	0.100
332.300	3.188	0.100
332.400	11.525	0.100
332.500	7.860	0.100
332.600	18.717	0.100
332.700	20.066	0.100
332.800	15.104	0.100
332.900	8.399	0.100
333.000	-0.172	0.100
333.100	1.935	0.100
333.200	16.831	0.100
333.300	16.311	0.100
333.400	10.405	0.100
333.500	2.356	0.100
333.600	7.745	0.100
333.700	15.585	0.100
333.800	15.111	0.100
333.900	7.352	0.100
334.000	21.773	0.100
334.100	-17.956	0.100
334.200	19.162	0.100
334.300	20.524	0.100
334.400	9.756	0.100
334.500	9.600	0.100
334.600	10.243	0.100
334.700	12.092	0.100
334.800	6.050	0.100
334.900	-6.340	0.100
335.000	13.765	0.100
335.100	25.563	0.100
335.200	7.131	0.100
335.300	8.599	0.100
335.400	15.867	0.100
335.500	19.579	0.100
335.600	10.289	0.100
335.700	8.221	0.100
335.800	18.487	0.100
335.900	5.871	0.100
336.000	4.041	0.100
336.100	2.828	0.099
336.200	11.333	0.100
336.300	26.350	0.100
336.400	15.737	0.100
336.500	18.805	0.100
336.600	21.685	0.100
336.700	12.152	0.100
336.800	11.328	0.100
336.900	-3.080	0.100
337.000	6.846	0.100
337.100	14.172	0.100
337.200	16.141	0.100
337.300	17.871	0.100
337.400	17.477	0.100
337.500	8.066	0.100
337.600	14.246	0.100
337.700	17.176	0.100
337.800	14.812	0.100
337.900	9.985	0.100
338.000	2.388	0.100
338.100	12.757	0.100
338.200	4.355	0.100
338.300	11.427	0.100
338.400	13.068	0.100
338.500	9.083	0.100
338.600	22.699	0.100
338.700	4.727	0.100
338.800	7.606	0.100
338.900	10.054	0.100
339.000	6.366	0.100
339.100	15.793	0.100
339.200	7.830	0.100
339.300	10.479	0.100
339.400	14.007	0.100
339.500	9.406	0.100
339.600	19.683	0.100
339.700	11.454	0.100
339.800	10.362	0.100
339.900	12.946	0.100
340.000	-6.548	0.100
340.100	15.640	0.100
340.200	0.580	0.100
340.300	19.648	0.100
340.400	14.566	0.100
340.500	21.302	0.100
340.600	29.262	0.100
340.700	22.723	0.100
340.800	10.057	0.100
340.900	11.569	0.100
341.000	8.977	0.100
341.100	11.100	0.100
341.200	19.291	0.100
341.300	17.980	0.100
341.400	17.831	0.100
341.500	16.086	0.100
341.600	13.553	0.100
341.700	25.683	0.100
341.800	21.967	0.100
341.900	15.451	0.100
342.000	8.701	0.100
342.100	3.446	0.100
342.200	28.556	0.100
342.300	11.134	0.100
342.400	25.273	0.100
342.500	10.978	0.100
342.600	19.613	0.100
342.700	20.700	0.100
342.800	29.200	0.100
342.900	16.406	0.100
343.000	26.013	0.100
343.100	10.563	0.100
343.200	18.828	0.100
343.300	17.405	0.100
343.400	15.221	0.100
343.500	27.027	0.100
343.600	19.423	0.100
343.700	7.418	0.100
343.800	12.045	0.100
343.900	18.390	0.100
344.000	31.040	0.100
344.100	27.814	0.100
344.200	18.850	0.100
344.300	19.603	0.100
344.400	10.370	0.100
344.500	19.382	0.100
344.600	24.993	0.100
344.700	35.136	0.100
344.800	32.035	0.100
344.900	25.910	0.100
345.000	18.745	0.100
345.100	32.952	0.100
345.200	30.070	0.100
345.300	9.852	0.100
345.400	28.320	0.100
345.500	23.740	0.100
345.600	29.598	0.100
345.700	27.472	0.100
345.800	24.707	0.100
345.900	31.595	0.100
346.000	23.133	0.100
346.100	31.477	0.100
346.200	20.749	0.100
346.300	36.675	0.100
346.400	26.504	0.100
346.500	32.330	0.100
346.600	22.319	0.100
346.700	21.099	0.100
346.800	21.737	0.100
346.900	23.034	0.100
347.000	36.604	0.100
347.100	31.631	0.100
347.200	40.829	0.100
347.300	33.313	0.100
347.400	27.864	0.100
347.500	30.957	0.100
347.600	36.570	0.100
347.700	40.578	0.100
347.800	27.790	0.100
347.900	24.954	0.100
348.000	33.534	0.100
348.100	43.049	0.100
348.200	38.029	0.100
348.300	40.420	0.100
348.400	47.616	0.100
348.500	33.435	0.100
348.600	21.907	0.100
348.700	41.758	0.100
348.800	30.266	0.100
348.900	30.340	0.100
349.000	46.073	0.100
349.100	44.921	0.100
349.200	51.955	0.100
349.300	52.353	0.100
349.400	44.116	0.099
349.500	35.587	0.100
349.600	24.206	0.100
349.700	40.294	0.100
349.800	42.052	0.100
349.900	42.843	0.100
350.000	41.715	0.100
350.100	51.464	0.100
350.200	47.063	0.100
350.300	55.056	0.100
350.400	36.866	0.100
350.500	43.631	0.100
350.600	43.980	0.100
350.700	39.589	0.100
350.800	38.864	0.100
350.900	52.369	0.100
351.000	44.595	0.100
351.100	41.736	0.100
351.200	57.026	0.100
351.300	46.133	0.100
351.400	48.031	0.100
351.500	51.650	0.100
351.600	45.024	0.100
351.700	45.992	0.100
351.800	39.207	0.100
351.900	63.503	0.100
352.000	55.003	0.100
352.100	40.480	0.100
352.200	49.950	0.100
352.300	54.805	0.100
352.400	39.320	0.100
352.500	52.174	0.100
352.600	58.121	0.100
352.700	39.229	0.100
352.800	56.490	0.100
352.900	50.790	0.100
353.000	50.586	0.100
353.100	53.195	0.100
353.200	54.790	0.100
353.300	51.887	0.100
353.400	69.620	0.100
353.500	57.255	0.100
353.600	60.963	0.100
353.700	34.468	0.100
353.800	55.219	0.100
353.900	59.666	0.100
354.000	59.450	0.100
354.100	55.412	0.100
354.200	61.507	0.100
354.300	60.267	0.100
354.400	45.866	0.100
354.500	56.952	0.100
354.600	57.182	0.100
354.700	55.667	0.100
354.800	63.193	0.100
354.900	40.869	0.100
355.000	62.016	0.100
355.100	46.410	0.100
355.200	51.183	0.100
355.300	50.333	0.100
355.400	53.418	0.100
355.500	51.671	0.100
355.600	62.910	0.100
355.700	66.815	0.100
355.800	45.473	0.100
355.900	48.857	0.100
356.000	53.128	0.100
356.100	50.159	0.100
356.200	65.521	0.100
356.300	60.674	0.100
356.400	48.529	0.100
356.500	55.501	0.100
356.600	58.690	0.100
356.700	52.850	0.100
356.800	57.324	0.100
356.900	52.737	0.100
357.000	68.506	0.100
357.100	53.312	0.100
357.200	64.061	0.100
357.300	64.743	0.100
357.400	60.343	0.100
357.500	62.113	0.100
357.600	55.353	0.100
357.700	64.503	0.100
357.800	61.576	0.100
357.900	68.042	0.100
358.000	65.584	0.100
358.100	49.725	0.100
358.200	55.363	0.100
358.300	57.214	0.100
358.400	66.959	0.100
358.500	57.179	0.100
358.600	57.744	0.100
358.700	50.066	0.100
358.800	43.360	0.100
358.900	67.015	0.100
359.000	59.624	0.100
359.100	65.551	0.100
359.200	56.212	0.100
359.300	67.821	0.100
359.400	52.217	0.100
359.500	49.731	0.100
359.600	60.021	0.100
359.700	49.290	0.100
359.800	44.440	0.100
359.900	57.888	0.100
360.000	67.838	0.100
360.100	62.587	0.100
360.200	50.491	0.100
360.300	47.782	0.100
360.400	53.886	0.100
360.500	51.160	0.100
360.600	61.051	0.100
360.700	62.663	0.100
360.800	55.823	0.100
360.900	52.415	0.100
361.000	56.269	0.100
361.100	56.826	0.100
361.200	57.929	0.100
361.300	60.238	0.100
361.400	59.477	0.100
361.500	49.249	0.100
361.600	56.095	0.100
361.700	59.171	0.100
361.800	52.643	0.100
361.900	55.529	0.100
362.000	55.085	0.100
362.100	53.801	0.100
362.200	61.000	0.100
362.300	51.409	0.100
362.400	64.490	0.100
362.500	65.223	0.100
362.600	61.932	0.100
362.700	46.757	0.100
362.800	57.583	0.100
362.900	50.925	0.100
363.000	51.768	0.100
363.100	53.059	0.100
363.200	63.289	0.100
363.300	66.326	0.100
363.400	57.045	0.100
363.500	59.546	0.100
363.600	58.605	0.100
363.700	54.088	0.100
363.800	51.339	0.100
363.900	51.353	0.100
364.000	55.649	0.100
364.100	61.785	0.100
364.200	59.358	0.100
364.300	62.112	0.100
364.400	64.647	0.100
364.500	62.318	0.100
364.600	49.190	0.100
364.700	53.250	0.100
364.800	58.023	0.100
364.900	38.513	0.100
365.000	49.547	0.100
365.100	64.763	0.100
365.200	49.383	0.100
365.300	70.338	0.100
365.400	49.104	0.100
365.500	53.925	0.100
365.600	72.958	0.100
365.700	54.651	0.100
365.800	54.030	0.100
365.900	63.594	0.100
366.000	52.881	0.100
366.100	58.087	0.100
366.200	43.090	0.100
366.300	63.655	0.100
366.400	58.808	0.100
366.500	47.752	0.100
366.600	50.715	0.100
366.700	36.587	0.100
366.800	54.683	0.100
366.900	71.109	0.100
367.000	66.996	0.100
367.100	50.437	0.100
367.200	58.850	0.100
367.300	64.632	0.100
367.400	48.634	0.100
367.500	59.169	0.100
367.600	66.461	0.100
367.700	53.198	0.100
367.800	58.028	0.100
367.900	49.273	0.100
368.000	41.323	0.100
368.100	55.912	0.100
368.200	57.074	0.100
368.300	61.321	0.100
368.400	52.101	0.100
368.500	58.771	0.100
368.600	58.156	0.100
368.700	65.446	0.100
368.800	58.611	0.100
368.900	54.006	0.100
369.000	44.620	0.100
369.100	59.485	0.100
369.200	70.497	0.100
369.300	61.900	0.100
369.400	58.789	0.100
369.500	53.492	0.100
369.600	57.882	0.100
369.700	57.841	0.100
369.800	48.003	0.100
369.900	64.048	0.100
370.000	69.106	0.100
370.100	68.927	0.100
370.200	42.120	0.100
370.300	42.004	0.100
370.400	61.229	0.100
370.500	56.060	0.100
370.600	55.606	0.100
370.700	47.780	0.100
370.800	42.474	0.100
370.900	59.245	0.100
371.000	56.628	0.100
371.100	67.051	0.100
371.200	59.998	0.100
371.300	53.120	0.100
371.400	57.314	0.100
371.500	53.082	0.100
371.600	60.338	0.100
371.700	36.366	0.100
371.800	59.187	0.100
371.900	64.636	0.100
372.000	62.371	0.100
372.100	55.275	0.100
372.200	62.005	0.100
372.300	63.041	0.100
372.400	60.064	0.100
372.500	55.879	0.100
372.600	52.358	0.100
372.700	52.692	0.100
372.800	58.536	0.100
372.900	46.640	0.100
373.000	53.496	0.100
373.100	58.288	0.100
373.200	55.284	0.100
373.300	44.157	0.100
373.400	48.138	0.100
373.500	68.615	0.100
373.600	61.222	0.100
373.700	64.283	0.100
373.800	51.922	0.100
373.900	50.516	0.099
374.000	41.345	0.100
374.100	60.561	0.100
374.200	69.195	0.100
374.300	51.811	0.100
374.400	51.362	0.100
374.500	58.424	0.100
374.600	55.442	0.100
374.700	53.063	0.099
374.800	54.835	0.100
374.900	55.379	0.100
375.000	59.850	0.100
375.100	61.540	0.100
375.200	63.490	0.100
375.300	62.152	0.100
375.400	51.444	0.100
375.500	54.649	0.100
375.600	53.786	0.100
375.700	56.563	0.100
375.800	48.985	0.100
375.900	56.941	0.100
376.000	60.310	0.100
376.100	62.520	0.100
376.200	40.176	0.100
376.300	42.944	0.100
376.400	57.961	0.100
376.500	68.709	0.100
376.600	49.756	0.099
376.700	69.362	0.100
376.800	57.163	0.100
376.900	54.092	0.100
377.000	43.303	0.100
377.100	62.486	0.100
377.200	59.772	0.100
377.300	59.287	0.100
377.400	61.613	0.100
377.500	49.005	0.099
377.600	50.943	0.100
377.700	61.050	0.100
377.800	57.901	0.100
377.900	60.705	0.099
378.000	66.025	0.100
378.100	57.448	0.100
378.200	51.619	0.100
378.300	44.415	0.100
378.400	56.185	0.100
378.500	52.919	0.100
378.600	62.900	0.100
378.700	61.421	0.100
378.800	71.044	0.100
378.900	56.468	0.100
379.000	60.975	0.100
379.100	63.313	0.100
379.200	54.821	0.100
379.300	52.350	0.100
379.400	53.265	0.100
379.500	58.094	0.100
379.600	64.610	0.100
379.700	51.970	0.100
379.800	60.190	0.100
379.900	40.315	0.100
380.000	60.680	0.100
380.100	56.357	0.099
380.200	52.129	0.100
380.300	76.701	0.100
380.400	54.931	0.100
380.500	64.118	0.099
380.600	57.080	0.100
380.700	48.550	0.100
380.800	52.561	0.100
380.900	45.155	0.100
381.000	50.683	0.100
381.100	60.554	0.100
381.200	49.543	0.100
381.300	49.951	0.100
381.400	57.359	0.100
381.500	69.543	0.100
381.600	54.595	0.099
381.700	61.608	0.100
381.800	55.446	0.100
381.900	60.107	0.100
382.000	54.723	0.100
382.100	60.671	0.099
382.200	65.956	0.100
382.300	49.263	0.100
382.400	62.888	0.100
382.500	48.688	0.100
382.600	54.026	0.100
382.700	56.315	0.100
382.800	48.368	0.099
382.900	58.177	0.100
383.000	61.690	0.100
383.100	47.851	0.100
383.200	59.709	0.100
383.300	58.301	0.100
383.400	59.054	0.100
383.500	69.745	0.100
383.600	60.240	0.100
383.700	52.658	0.100
383.800	61.069	0.100
383.900	48.450	0.100
384.000	70.689	0.100
384.100	50.159	0.100
384.200	65.084	0.100
384.300	54.702	0.100
384.400	41.364	0.100
384.500	49.296	0.099
384.600	66.151	0.100
384.700	60.916	0.100
384.800	60.672	0.100
384.900	54.080	0.100
385.000	57.851	0.100
385.100	29.896	0.100
385.200	62.726	0.100
385.300	72.514	0.099
385.400	55.411	0.100
385.500	54.506	0.100
385.600	55.038	0.100
385.700	61.653	0.100
385.800	51.614	0.100
385.900	55.713	0.100
386.000	47.795	0.099
386.100	39.415	0.100
386.200	64.945	0.099
386.300	52.746	0.100
386.400	61.487	0.100
386.500	44.876	0.100
386.600	65.205	0.100
386.700	62.881	0.100
386.800	51.031	0.100
386.900	65.412	0.099
387.000	59.742	0.100
387.100	56.519	0.100
387.200	56.462	0.100
387.300	62.536	0.100
387.400	61.806	0.100
387.500	58.397	0.099
387.600	45.325	0.099
387.700	52.595	0.099
387.800	60.356	0.100
387.900	59.965	0.100
388.000	58.698	0.099
388.100	53.875	0.099
388.200	47.000	0.100
388.300	53.153	0.100
388.400	58.507	0.099
388.500	61.183	0.100
388.600	59.496	0.100
388.700	61.561	0.099
388.800	57.590	0.099
388.900	59.242	0.099
389.000	55.771	0.100
389.100	54.916	0.099
389.200	56.267	0.099
389.300	54.046	0.099
389.400	52.077	0.099
389.500	62.280	0.099
389.600	58.039	0.100
389.700	58.132	0.099
389.800	54.646	0.100
389.900	66.815	0.099
390.000	50.873	0.099
390.100	59.374	0.099
390.200	56.536	0.099
390.300	59.425	0.100
390.400	47.002	0.099
390.500	66.809	0.100
390.600	61.402	0.100
390.700	46.814	0.099
390.800	46.560	0.099
390.900	55.287	0.099
391.000	40.963	0.099
391.100	48.943	0.099
391.200	45.982	0.100
391.300	49.053	0.099
391.400	48.492	0.099
391.500	50.735	0.099
391.600	29.012	0.099
391.700	44.996	0.099
391.800	31.132	0.100
391.900	30.935	0.099
392.000	28.515	0.099
392.100	25.189	0.100
392.200	22.312	0.099
392.300	15.861	0.099
392.400	34.642	0.100
392.500	32.005	0.099
392.600	21.179	0.099
392.700	37.742	0.099
392.800	16.767	0.099
392.900	7.196	0.099
393.000	19.612	0.099
393.100	11.808	0.099
393.200	15.630	0.099
393.300	16.692	0.099
393.400	11.551	0.099
393.500	20.426	0.099
393.600	19.005	0.099
393.700	17.092	0.099
393.800	15.788	0.099
393.900	5.086	0.099
394.000	11.894	0.099
394.100	19.254	0.099
394.200	4.593	0.099
394.300	12.777	0.099
394.400	8.222	0.099
394.500	-2.056	0.099
394.600	17.004	0.099
394.700	11.940	0.099
394.800	14.698	0.099
394.900	15.879	0.099
395.000	15.340	0.099
395.100	-7.874	0.099
395.200	6.096	0.099
395.300	13.542	0.099
395.400	-4.462	0.099
395.500	7.371	0.099
395.600	1.042	0.099
395.700	-3.409	0.099
395.800	23.403	0.099
395.900	4.111	0.099
396.000	8.470	0.099
396.100	13.352	0.099
396.200	-6.980	0.099
396.300	1.254	0.099
396.400	13.834	0.099
396.500	5.250	0.099
396.600	-6.253	0.099
396.700	7.026	0.099
396.800	6.353	0.099
396.900	16.620	0.099
397.000	-7.435	0.099
397.100	5.357	0.099
397.200	5.961	0.099
397.300	0.952	0.099
397.400	7.393	0.099
397.500	10.540	0.099
397.600	3.159	0.099
397.700	12.980	0.099
397.800	5.359	0.099
397.900	2.155	0.099
398.000	14.202	0.099
398.100	2.613	0.099
398.200	0.585	0.099
398.300	-0.165	0.099
398.400	10.992	0.099
398.500	16.899	0.099
398.600	8.193	0.099
398.700	4.296	0.099
398.800	11.613	0.099
398.900	-4.172	0.099
399.000	10.961	0.099
399.100	-3.849	0.099
399.200	6.545	0.099
399.300	-3.678	0.099
399.400	3.243	0.099
399.500	8.676	0.099
399.600	3.926	0.099
399.700	2.715	0.099
399.800	13.486	0.099
399.900	3.032	0.099
400.000	-4.656	0.099
400.100	3.648	0.099
400.200	7.354	0.099
400.300	-4.551	0.099
400.400	4.147	0.099
400.500	-12.120	0.099
400.600	-0.592	0.099
400.700	4.683	0.099
400.800	-0.502	0.099
400.900	-5.347	0.099
401.000	5.548	0.099
401.100	4.689	0.099
401.200	1.262	0.099
401.300	6.373	0.099
401.400	9.222	0.099
401.500	0.302	0.099
401.600	-1.418	0.099
401.700	-4.730	0.099
401.800	7.834	0.099
401.900	-7.503	0.099
402.000	-2.700	0.099
402.100	14.099	0.099
402.200	11.708	0.099
402.300	-2.099	0.099
402.400	-7.093	0.099
402.500	12.118	0.099
402.600	-6.703	0.099
402.700	-0.770	0.099
402.800	-7.618	0.099
402.900	-0.439	0.099
403.000	-9.572	0.099
403.100	-1.104	0.099
403.200	5.129	0.099
403.300	-1.757	0.099
403.400	-7.666	0.099
403.500	-3.685	0.099
403.600	-4.296	0.099
403.700	-14.293	0.099
403.800	-5.963	0.099
403.900	1.984	0.099
404.000	-5.997	0.099
404.100	0.632	0.099
404.200	8.075	0.099
404.300	-2.966	0.099
404.400	3.127	0.099
404.500	-3.106	0.099
404.600	3.891	0.099
404.700	-2.821	0.099
404.800	-1.391	0.099
404.900	-16.255	0.099
405.000	-3.153	0.099
405.100	-1.505	0.099
405.200	2.473	0.099
405.300	0.969	0.099
405.400	6.564	0.099
405.500	8.572	0.099
405.600	-12.079	0.099
405.700	-11.474	0.099
405.800	-5.494	0.099
405.900	-2.574	0.099
406.000	-3.649	0.099
406.100	-10.991	0.099
406.200	4.738	0.099
406.300	-0.648	0.099
406.400	-10.714	0.099
406.500	-7.039	0.099
406.600	0.926	0.099
406.700	-8.777	0.099
406.800	-10.867	0.099
406.900	0.137	0.099
407.000	-8.188	0.099
407.100	-14.923	0.099
407.200	-12.671	0.099
407.300	5.204	0.099
407.400	-5.352	0.099
407.500	-12.049	0.099
407.600	-13.290	0.099
407.700	-8.823	0.099
407.800	-8.020	0.099
407.900	-0.004	0.099
408.000	-7.691	0.099
408.100	-8.272	0.099
408.200	-14.003	0.099
408.300	-8.633	0.099
408.400	0.839	0.099
408.500	-13.057	0.099
408.600	8.162	0.099
408.700	-6.498	0.099
408.800	-3.950	0.099
408.900	-8.618	0.099
409.000	-10.764	0.099
409.100	-9.405	0.099
409.200	-7.853	0.099
409.300	-3.703	0.099
409.400	3.266	0.099
409.500	-14.383	0.099
409.600	-19.498	0.099
409.700	-8.297	0.099
409.800	-4.274	0.099
409.900	-1.267	0.099
410.000	-16.311	0.099
410.100	-0.615	0.099
410.200	-5.461	0.099
410.300	-9.747	0.099
410.400	-14.102	0.099
410.500	3.135	0.099
410.600	-5.568	0.099
410.700	-11.837	0.099
410.800	-8.861	0.099
410.900	-1.861	0.099
411.000	-15.086	0.099
411.100	-11.474	0.099
411.200	-13.101	0.099
411.300	-17.182	0.099
411.400	-10.133	0.099
411.500	-2.853	0.099
411.600	-12.561	0.099
411.700	-2.123	0.099
411.800	-18.704	0.099
411.900	-3.487	0.099
412.000	-8.027	0.099
412.100	-25.363	0.099
412.200	-17.973	0.099
412.300	-17.955	0.099
412.400	-1.717	0.099
412.500	-14.586	0.099
412.600	-17.506	0.099
412.700	-17.736	0.099
412.800	-15.757	0.099
412.900	-14.593	0.099
413.000	-23.534	0.099
413.100	-12.560	0.099
413.200	-13.802	0.099
413.300	-12.796	0.099
413.400	-15.796	0.099
413.500	-18.897	0.099
413.600	-6.501	0.099
413.700	-18.493	0.099
413.800	-15.393	0.099
413.900	-6.473	0.099
414.000	-6.142	0.099
414.100	-5.006	0.099
414.200	-7.612	0.099
414.300	-8.129	0.099
414.400	-20.607	0.099
414.500	-22.210	0.099
414.600	5.108	0.099
414.700	0.507	0.099
414.800	-5.907	0.099
414.900	-16.148	0.099
415.000	-17.970	0.099
415.100	-22.448	0.099
415.200	-10.040	0.099
415.300	-19.784	0.099
415.400	-15.565	0.099
415.500	-2.873	0.099
415.600	-9.390	0.099
415.700	-19.528	0.099
415.800	-13.259	0.099
415.900	-5.601	0.099
416.000	-27.381	0.099
416.100	-8.119	0.099
416.200	-29.498	0.099
416.300	-16.636	0.099
416.400	-15.040	0.099
416.500	-11.688	0.099
416.600	-5.358	0.099
416.700	-22.820	0.099
416.800	-10.722	0.099
416.900	-14.974	0.099
417.000	-24.864	0.099
417.100	-26.251	0.099
417.200	-10.311	0.099
417.300	-33.309	0.099
417.400	-22.487	0.099
417.500	-11.350	0.099
417.600	-3.935	0.099
417.700	-8.994	0.099
417.800	-15.485	0.099
417.900	-3.541	0.099
418.000	-22.524	0.099
418.100	-8.739	0.099
418.200	-4.907	0.099
418.300	-15.499	0.099
418.400	-23.384	0.099
418.500	-20.460	0.099
418.600	-23.619	0.099
418.700	-15.453	0.099
418.800	-21.788	0.099
418.900	-33.060	0.099
419.000	-18.346	0.099
419.100	-12.684	0.099
419.200	-6.105	0.099
419.300	-25.969	0.099
419.400	-19.644	0.099
419.500	-23.584	0.099
419.600	-8.027	0.099
419.700	-24.628	0.099
419.800	-15.293	0.099
419.900	-9.700	0.099
420.000	-26.314	0.099
420.100	-23.779	0.099
420.200	-35.792	0.099
420.300	-21.534	0.099
420.400	-9.622	0.099
420.500	-24.372	0.099
420.600	-23.332	0.099
420.700	-11.454	0.099
420.800	-9.520	0.099
420.900	-13.419	0.099
421.000	-20.443	0.099
421.100	-28.493	0.099
421.200	-12.174	0.099
421.300	-19.634	0.099
421.400	-22.704	0.099
421.500	-21.782	0.099
421.600	-15.411	0.099
421.700	-5.583	0.099
421.800	-33.321	0.099
421.900	-22.869	0.099
422.000	-18.934	0.099
422.100	-9.523	0.099
422.200	-13.354	0.099
422.300	-16.322	0.099
422.400	-16.389	0.099
422.500	-19.035	0.099
422.600	-19.197	0.099
422.700	-27.978	0.099
422.800	-19.854	0.099
422.900	-24.348	0.099
423.000	-23.446	0.099
423.100	-18.709	0.099
423.200	-20.916	0.099
423.300	-28.628	0.099
423.400	-13.748	0.099
423.500	-18.459	0.099
423.600	-32.151	0.099
423.700	-29.437	0.099
423.800	-23.520	0.099
423.900	-36.281	0.099
424.000	-24.594	0.099
424.100	-13.203	0.099
424.200	-11.117	0.099
424.300	-20.639	0.099
424.400	-19.975	0.099
424.500	-2.116	0.099
424.600	-11.221	0.099
424.700	-19.168	0.099
424.800	-20.798	0.099
424.900	-12.447	0.099
425.000	-19.708	0.099
425.100	-25.763	0.099
425.200	-24.070	0.099
425.300	-18.384	0.099
425.400	-13.603	0.099
425.500	-30.899	0.099
425.600	-14.864	0.099
425.700	-25.414	0.099
425.800	-16.155	0.099
425.900	-22.172	0.099
426.000	-24.572	0.099
426.100	-17.807	0.099
426.200	-25.138	0.099
426.300	-17.276	0.099
426.400	-21.571	0.099
426.500	-40.266	0.099
426.600	-20.633	0.099
426.700	-10.645	0.099
426.800	-12.861	0.099
426.900	-15.266	0.099
427.000	-24.932	0.099
427.100	-28.982	0.099
427.200	-20.404	0.099
427.300	-12.777	0.099
427.400	-34.355	0.099
427.500	-25.596	0.099
427.600	-18.139	0.099
427.700	-20.879	0.099
427.800	-22.132	0.099
427.900	-13.321	0.099
428.000	-28.292	0.099
428.100	-24.844	0.099
428.200	-22.149	0.099
428.300	-16.331	0.099
428.400	-38.092	0.099
428.500	-34.762	0.099
428.600	-28.429	0.099
428.700	-19.524	0.099
428.800	-14.404	0.099
428.900	-27.557	0.099
429.000	-18.564	0.099
429.100	-20.738	0.099
429.200	-28.762	0.099
429.300	-19.936	0.099
429.400	-17.849	0.099
429.500	-26.281	0.099
429.600	-37.301	0.099
429.700	-25.469	0.099
429.800	-16.346	0.099
429.900	-17.075	0.099
430.000	-6.937	0.099
430.100	-19.996	0.099
430.200	-28.011	0.099
430.300	-31.848	0.099
430.400	-12.004	0.099
430.500	-27.918	0.099
430.600	-28.951	0.099
430.700	-8.823	0.099
430.800	-11.201	0.099
430.900	-23.068	0.099
431.000	-28.567	0.099
431.100	-23.276	0.099
431.200	-28.433	0.099
431.300	-12.539	0.099
431.400	-18.536	0.099
431.500	-22.888	0.099
431.600	-29.781	0.099
431.700	-20.116	0.099
431.800	-19.629	0.099
431.900	-23.280	0.099
432.000	-14.725	0.099
432.100	-22.710	0.099
432.200	-15.281	0.099
432.300	-22.775	0.099
432.400	-25.858	0.099
432.500	-23.993	0.099
432.600	-17.021	0.099
432.700	-16.621	0.099
432.800	-17.614	0.099
432.900	-24.835	0.099
433.000	-20.984	0.099
433.100	-26.993	0.099
433.200	-20.947	0.099
433.300	-24.361	0.099
433.400	-33.968	0.099
433.500	-27.696	0.099
433.600	-20.412	0.099
433.700	-17.915	0.099
433.800	-29.545	0.099
433.900	-22.617	0.099
434.000	-27.550	0.099
434.100	-32.063	0.099
434.200	-25.464	0.099
434.300	-15.335	0.099
434.400	-17.082	0.099
434.500	-35.281	0.099
434.600	-20.854	0.099
434.700	-9.792	0.099
434.800	-8.540	0.099
434.900	-20.324	0.099
435.000	-11.570	0.099
435.100	-22.231	0.099
435.200	-40.646	0.099
435.300	-21.589	0.099
435.400	-23.205	0.099
435.500	-26.952	0.099
435.600	-27.925	0.099
435.700	-21.628	0.099
435.800	-27.457	0.099
435.900	-20.332	0.099
436.000	-16.669	0.099
436.100	-20.937	0.099
436.200	-20.616	0.099
436.300	-19.061	0.099
436.400	-19.197	0.099
436.500	-13.413	0.099
436.600	-28.903	0.099
436.700	-26.393	0.099
436.800	-19.458	0.099
436.900	-11.938	0.099
437.000	-22.908	0.099
437.100	-29.571	0.099
437.200	-21.787	0.099
437.300	-20.160	0.099
437.400	-41.395	0.099
437.500	-19.933	0.099
437.600	-19.782	0.099
437.700	-20.566	0.099
437.800	-24.194	0.099
437.900	-19.329	0.099
438.000	-15.918	0.099
438.100	-21.296	0.099
438.200	-24.334	0.099
438.300	-15.940	0.099
438.400	-31.407	0.099
438.500	-26.390	0.099
438.600	-9.331	0.099
438.700	-29.747	0.099
438.800	-36.567	0.099
438.900	-20.097	0.099
439.000	-24.220	0.099
439.100	-22.528	0.099
439.200	-25.928	0.099
439.300	-18.105	0.099
439.400	-20.461	0.099
439.500	-23.523	0.099
439.600	-19.768	0.099
439.700	-25.201	0.099
439.800	-27.192	0.099
439.900	-18.972	0.099
440.000	-17.910	0.099
440.100	-16.778	0.099
440.200	-14.720	0.099
440.300	-13.854	0.099
440.400	-33.705	0.099
440.500	-26.516	0.099
440.600	-19.910	0.099
440.700	-22.705	0.099
440.800	-27.537	0.099
440.900	-20.777	0.099
441.000	-19.709	0.099
441.100	-18.488	0.099
441.200	-20.747	0.099
441.300	-23.080	0.099
441.400	-17.176	0.099
441.500	-11.905	0.099
441.600	-25.580	0.099
441.700	-28.595	0.099
441.800	-21.277	0.099
441.900	-19.675	0.099
442.000	-18.843	0.099
442.100	-27.514	0.099
442.200	-28.980	0.099
442.300	-26.956	0.099
442.400	-20.672	0.099
442.500	-29.835	0.099
442.600	-14.996	0.099
442.700	-13.092	0.099
442.800	-13.547	0.099
442.900	-26.791	0.099
443.000	-28.307	0.099
443.100	-20.110	0.099
443.200	-11.977	0.099
443.300	-24.914	0.099
443.400	-34.873	0.099
443.500	-13.425	0.099
443.600	-20.069	0.099
443.700	-16.406	0.099
443.800	-27.919	0.099
443.900	-23.393	0.099
444.000	-18.716	0.099
444.100	-27.555	0.099
444.200	-16.149	0.099
444.300	-21.231	0.099
444.400	-27.040	0.099
444.500	-18.981	0.099
444.600	-9.487	0.099
444.700	-12.742	0.099
444.800	-16.596	0.099
444.900	-26.894	0.099
445.000	-25.709	0.099
445.100	-20.023	0.099
445.200	-9.042	0.099
445.300	-29.450	0.099
445.400	-26.618	0.099
445.500	-23.713	0.099
445.600	-20.215	0.099
445.700	-20.820	0.099
445.800	-15.821	0.099
445.900	-20.539	0.099
446.000	-35.265	0.099
446.100	-27.033	0.099
446.200	-30.871	0.099
446.300	-29.762	0.099
446.400	-13.559	0.099
446.500	-22.714	0.099
446.600	-21.244	0.099
446.700	-29.523	0.099
446.800	-14.466	0.099
446.900	-23.650	0.099
447.000	-28.737	0.099
447.100	-18.117	0.099
447.200	-34.823	0.099
447.300	-24.561	0.099
447.400	-14.821	0.099
447.500	-20.340	0.099
447.600	-25.674	0.099
447.700	-20.686	0.099
447.800	-7.407	0.099
447.900	-17.822	0.099
448.000	-35.615	0.099
448.100	-6.494	0.099
448.200	-16.119	0.099
448.300	-18.205	0.099
448.400	-25.183	0.099
448.500	-7.723	0.099
448.600	-20.306	0.099
448.700	-30.771	0.099
448.800	-25.724	0.099
448.900	-25.737	0.099
449.000	1.998	0.099
449.100	-10.972	0.099
449.200	-25.196	0.099
449.300	-18.098	0.099
449.400	-17.756	0.099
449.500	-14.852	0.099
449.600	-17.703	0.099
449.700	-30.125	0.099
449.800	-23.452	0.099
449.900	-14.823	0.099
450.000	-18.036	0.099
450.100	-12.653	0.099
450.200	-24.452	0.099
450.300	-18.856	0.099
450.400	-23.262	0.099
450.500	-18.730	0.099
450.600	-32.672	0.099
450.700	-30.864	0.099
450.800	-34.183	0.099
450.900	-8.754	0.099
451.000	-30.470	0.099
451.100	-30.652	0.099
451.200	-24.333	0.099
451.300	-15.208	0.099
451.400	-15.267	0.099
451.500	-14.220	0.099
451.600	-17.510	0.099
451.700	-29.066	0.099
451.800	-21.163	0.099
451.900	-18.848	0.099
452.000	-23.704	0.099
452.100	-22.285	0.099
452.200	-15.640	0.099
452.300	-23.069	0.099
452.400	-22.118	0.099
452.500	-21.600	0.099
452.600	-16.223	0.099
452.700	-20.771	0.099
452.800	-26.280	0.099
452.900	-19.980	0.099
453.000	-18.909	0.099
453.100	-13.895	0.099
453.200	-14.484	0.099
453.300	-4.689	0.099
453.400	-24.222	0.099
453.500	-26.184	0.099
453.600	-27.572	0.099
453.700	-17.009	0.099
453.800	-18.535	0.099
453.900	-17.531	0.099
454.000	-31.866	0.099
454.100	-24.049	0.099
454.200	-15.116	0.099
454.300	-24.248	0.099
454.400	-16.360	0.099
454.500	-23.512	0.099
454.600	-22.081	0.099
454.700	-36.212	0.099
454.800	-11.269	0.099
454.900	-7.681	0.099
455.000	-25.364	0.099
455.100	-10.382	0.099
455.200	-22.982	0.099
455.300	-11.169	0.099
455.400	-26.416	0.099
455.500	-24.114	0.099
455.600	-17.712	0.099
455.700	-28.665	0.099
455.800	-16.755	0.099
455.900	-21.361	0.099
456.000	-25.880	0.099
456.100	-22.305	0.099
456.200	-13.240	0.099
456.300	-13.574	0.099
456.400	-30.050	0.099
456.500	-16.418	0.099
456.600	-22.256	0.099
456.700	-23.335	0.099
456.800	-11.677	0.099
456.900	-27.989	0.099
457.000	-7.956	0.099
457.100	-17.547	0.099
457.200	-20.147	0.099
457.300	-15.326	0.099
457.400	-22.682	0.099
457.500	-27.877	0.099
457.600	-20.700	0.099
457.700	0.952	0.099
457.800	-21.619	0.099
457.900	-13.093	0.100
458.000	-26.786	0.100
458.100	-22.157	0.100
458.200	-22.064	0.100
458.300	-27.446	0.100
458.400	-8.252	0.100
458.500	-19.624	0.100
458.600	-17.349	0.100
458.700	-17.251	0.100
458.800	-24.751	0.100
458.900	-27.805	0.100
459.000	-28.595	0.100
459.100	-19.837	0.100
459.200	-19.737	0.100
459.300	-18.762	0.100
459.400	-10.594	0.100
459.500	-20.530	0.100
459.600	-24.019	0.100
459.700	-28.924	0.100
459.800	-26.106	0.100
459.900	-18.731	0.100
460.000	-8.230	0.100
460.100	-19.611	0.100
460.200	-19.702	0.100
460.300	-13.713	0.100
460.400	-24.759	0.100
460.500	-18.919	0.100
460.600	-20.975	0.100
460.700	-22.244	0.100
460.800	-18.313	0.100
460.900	-22.152	0.100
461.000	-17.930	0.100
461.100	-20.440	0.100
461.200	-31.337	0.100
461.300	-14.321	0.100
461.400	-22.723	0.100
461.500	-31.505	0.100
461.600	-9.173	0.100
461.700	-19.023	0.100
461.800	-24.265	0.100
461.900	-21.816	0.100
462.000	-19.225	0.100
462.100	-28.412	0.100
462.200	-19.949	0.100
462.300	-7.928	0.100
462.400	-26.224	0.100
462.500	-26.806	0.100
462.600	-25.848	0.100
462.700	-19.752	0.100
462.800	-26.878	0.100
462.900	-12.141	0.100
463.000	-13.446	0.100
463.100	-15.939	0.100
463.200	-18.619	0.100
463.300	-17.040	0.100
463.400	-15.228	0.100
463.500	-25.781	0.100
463.600	-20.571	0.100
463.700	-5.191	0.100
463.800	-22.569	0.100
463.900	-11.052	0.100
464.000	-15.770	0.100
464.100	-27.472	0.100
464.200	-22.702	0.100
464.300	-10.254	0.100
464.400	-28.247	0.100
464.500	-27.802	0.100
464.600	-18.809	0.100
464.700	-20.600	0.100
464.800	-27.915	0.100
464.900	-11.872	0.100
465.000	-21.768	0.100
465.100	-13.268	0.100
465.200	-18.436	0.100
465.300	-0.984	0.100
465.400	-27.225	0.100
465.500	-22.399	0.100
465.600	-4.475	0.100
465.700	-17.984	0.100
465.800	-25.387	0.100
465.900	-19.849	0.100
466.000	-19.002	0.100
466.100	-28.859	0.100
466.200	-25.837	0.100
466.300	-11.949	0.100
466.400	-20.850	0.100
466.500	-19.080	0.100
466.600	-16.454	0.100
466.700	-16.144	0.100
466.800	-12.786	0.100
466.900	-13.697	0.100
467.000	-26.845	0.100
467.100	-24.934	0.100
467.200	-11.414	0.100
467.300	-18.281	0.100
467.400	-33.550	0.100
467.500	-17.283	0.100
467.600	-18.231	0.100
467.700	-22.411	0.100
467.800	-22.734	0.100
467.900	-25.323	0.100
468.000	-18.141	0.100
468.100	-17.314	0.100
468.200	-9.729	0.100
468.300	-8.514	0.100
468.400	-13.317	0.100
468.500	-17.170	0.100
468.600	-17.711	0.100
468.700	-18.952	0.100
468.800	-27.104	0.100
468.900	-16.598	0.100
469.000	-33.006	0.100
469.100	-12.514	0.100
469.200	-9.343	0.100
469.300	-19.872	0.100
469.400	-17.756	0.100
469.500	-16.902	0.100
469.600	-24.250	0.100
469.700	-11.245	0.100
469.800	-17.511	0.100
469.900	-3.919	0.100
470.000	-26.338	0.100
470.100	-19.736	0.100
470.200	-13.917	0.100
470.300	-25.682	0.100
470.400	-22.067	0.100
470.500	-28.795	0.100
470.600	-10.534	0.100
470.700	-17.569	0.100
470.800	-20.327	0.100
470.900	-22.220	0.100
471.000	-10.381	0.100
471.100	-19.846	0.100
471.200	-25.908	0.100
471.300	-11.273	0.100
471.400	-26.500	0.100
471.500	-8.382	0.100
471.600	-25.301	0.100
471.700	-32.997	0.100
471.800	-11.829	0.100
471.900	-18.006	0.100
472.000	-6.443	0.100
472.100	-18.230	0.100
472.200	-12.003	0.100
472.300	-20.203	0.100
472.400	-19.865	0.100
472.500	-23.872	0.100
472.600	-18.697	0.100
472.700	-19.856	0.100
472.800	-25.017	0.100
472.900	-7.938	0.100
473.000	-18.233	0.100
473.100	-12.987	0.100
473.200	-18.961	0.100
473.300	-24.437	0.100
473.400	-32.473	0.100
473.500	-16.642	0.100
473.600	-10.620	0.100
473.700	-13.735	0.100
473.800	-5.375	0.100
473.900	-12.877	0.100
474.000	-31.350	0.100
474.100	-25.661	0.100
474.200	-4.413	0.100
474.300	-15.131	0.100
474.400	-17.099	0.100
474.500	-20.649	0.100
474.600	-12.134	0.100
474.700	-20.581	0.100
474.800	-23.571	0.100
474.900	-13.728	0.100
475.000	-30.760	0.100
475.100	-8.504	0.100
475.200	-18.218	0.100
475.300	-3.002	0.100
475.400	-1.845	0.100
475.500	-19.471	0.100
475.600	-10.271	0.100
475.700	-26.029	0.100
475.800	-24.717	0.100
475.900	-17.061	0.100
476.000	-10.904	0.100
476.100	-21.900	0.100
476.200	-11.535	0.100
476.300	-20.631	0.100
476.400	-10.091	0.100
476.500	-16.186	0.100
476.600	-22.800	0.100
476.700	-9.278	0.100
476.800	-12.003	0.100
476.900	-17.053	0.100
477.000	-19.645	0.100
477.100	-18.894	0.100
477.200	-16.371	0.100
477.300	-18.343	0.100
477.400	-30.039	0.100
477.500	-23.662	0.100
477.600	-29.001	0.100
477.700	-13.395	0.100
477.800	-19.983	0.100
477.900	-18.976	0.100
478.000	-15.418	0.100
478.100	-11.420	0.100
478.200	-17.819	0.100
478.300	-18.914	0.100
478.400	-20.415	0.100
478.500	-14.617	0.100
478.600	-17.930	0.100
478.700	-23.506	0.100
478.800	-16.680	0.100
478.900	-8.889	0.100
479.000	-16.135	0.100
479.100	-7.990	0.100
479.200	-16.497	0.100
479.300	-21.151	0.100
479.400	-20.268	0.100
479.500	-7.549	0.100
479.600	-24.239	0.100
479.700	-18.600	0.100
479.800	-22.823	0.100
479.900	-23.362	0.100
480.000	-16.485	0.100
480.100	-19.449	0.100
480.200	-15.364	0.100
480.300	-22.753	0.100
480.400	-13.686	0.100
480.500	-20.990	0.100
480.600	2.783	0.100
480.700	-19.075	0.100
480.800	-14.378	0.100
480.900	-19.734	0.100
481.000	-17.373	0.100
481.100	-9.524	0.100
481.200	-11.244	0.100
481.300	-4.473	0.100
481.400	6.401	0.100
481.500	4.138	0.100
481.600	-3.591	0.100
481.700	2.171	0.100
481.800	5.025	0.100
481.900	6.447	0.100
482.000	17.200	0.100
482.100	7.760	0.100
482.200	19.671	0.100
482.300	23.318	0.100
482.400	9.660	0.100
482.500	6.723	0.100
482.600	0.960	0.100
482.700	14.665	0.100
482.800	23.164	0.100
482.900	15.573	0.100
483.000	8.052	0.100
483.100	7.805	0.100
483.200	8.961	0.100
483.300	19.392	0.100
483.400	11.164	0.100
483.500	18.975	0.100
483.600	14.404	0.100
483.700	7.785	0.100
483.800	28.343	0.100
483.900	14.637	0.100
484.000	0.063	0.100
484.100	18.671	0.100
484.200	17.400	0.100
484.300	23.569	0.100
484.400	18.067	0.100
484.500	17.581	0.100
484.600	3.437	0.100
484.700	15.566	0.100
484.800	20.499	0.100
484.900	25.336	0.100
485.000	13.261	0.100
485.100	33.880	0.100
485.200	15.451	0.100
485.300	15.157	0.100
485.400	15.463	0.100
485.500	10.036	0.100
485.600	3.396	0.100
485.700	14.040	0.100
485.800	0.765	0.100
485.900	4.614	0.100
486.000	16.502	0.100
486.100	14.267	0.100
486.200	7.466	0.100
486.300	-1.790	0.100
486.400	14.562	0.100
486.500	16.862	0.100
486.600	12.501	0.100
486.700	18.268	0.100
486.800	16.376	0.100
486.900	18.366	0.100
487.000	10.813	0.100
487.100	-0.547	0.100
487.200	28.231	0.100
487.300	25.667	0.100
487.400	6.538	0.100
487.500	20.761	0.100
487.600	22.641	0.100
487.700	7.260	0.100
487.800	9.162	0.100
487.900	6.741	0.100
488.000	14.688	0.100
488.100	19.273	0.100
488.200	14.041	0.100
488.300	6.129	0.100
488.400	11.335	0.100
488.500	18.635	0.100
488.600	16.504	0.100
488.700	17.018	0.100
488.800	12.021	0.100
488.900	14.386	0.100
489.000	7.967	0.100
489.100	19.225	0.100
489.200	23.115	0.100
489.300	11.510	0.100
489.400	15.364	0.100
489.500	18.772	0.100
489.600	21.941	0.100
489.700	14.243	0.100
489.800	14.754	0.100
489.900	16.772	0.100
490.000	12.585	0.100
490.100	16.956	0.100
490.200	7.317	0.100
490.300	21.386	0.100
490.400	10.061	0.100
490.500	27.832	0.100
490.600	31.508	0.100
490.700	19.221	0.100
490.800	9.951	0.100
490.900	31.158	0.100
491.000	24.765	0.100
491.100	5.761	0.100
491.200	19.061	0.100
491.300	9.387	0.100
491.400	11.591	0.100
491.500	12.212	0.100
491.600	9.170	0.100
491.700	3.433	0.100
491.800	41.100	0.100
491.900	28.048	0.100
492.000	16.249	0.100
492.100	19.278	0.100
492.200	8.742	0.100
492.300	30.768	0.100
492.400	14.536	0.100
492.500	18.046	0.100
492.600	19.941	0.100
492.700	11.365	0.100
492.800	29.053	0.100
492.900	19.809	0.100
493.000	22.641	0.100
493.100	13.463	0.100
493.200	18.524	0.100
493.300	5.210	0.100
493.400	15.324	0.100
493.500	23.209	0.100
493.600	27.309	0.100
493.700	19.970	0.100
493.800	15.493	0.100
493.900	17.563	0.100
494.000	24.579	0.100
494.100	31.058	0.100
494.200	30.846	0.100
494.300	36.914	0.100
494.400	16.637	0.100
494.500	16.417	0.100
494.600	19.291	0.100
494.700	26.218	0.100
494.800	29.602	0.100
494.900	33.170	0.100
495.000	19.125	0.100
495.100	16.145	0.100
495.200	13.659	0.100
495.300	34.987	0.100
495.400	32.400	0.100
495.500	32.411	0.100
495.600	20.050	0.100
495.700	30.332	0.100
495.800	18.872	0.100
495.900	28.477	0.100
496.000	28.926	0.100
496.100	24.070	0.100
496.200	26.562	0.100
496.300	33.998	0.100
496.400	32.623	0.100
496.500	39.228	0.100
496.600	38.738	0.100
496.700	18.798	0.100
496.800	21.181	0.100
496.900	29.696	0.100
497.000	32.848	0.100
497.100	39.489	0.100
497.200	28.518	0.100
497.300	23.172	0.100
497.400	32.552	0.100
497.500	37.804	0.100
497.600	45.518	0.100
497.700	36.475	0.100
497.800	23.589	0.100
497.900	27.757	0.100
498.000	41.967	0.100
498.100	50.081	0.100
498.200	35.188	0.100
498.300	31.210	0.100
498.400	33.645	0.100
498.500	46.310	0.100
498.600	41.009	0.100
498.700	33.160	0.100
498.800	52.005	0.100
498.900	26.336	0.100
499.000	39.839	0.100
499.100	33.474	0.100
499.200	45.447	0.100
499.300	54.636	0.100
499.400	37.023	0.100
499.500	41.785	0.100
499.600	35.169	0.100
499.700	53.047	0.100
499.800	43.358	0.100
499.900	42.477	0.100
500.000	55.465	0.100
500.100	42.121	0.100
500.200	48.344	0.100
500.300	47.090	0.100
500.400	44.178	0.100
500.500	42.572	0.100
500.600	40.839	0.100
500.700	38.671	0.100
500.800	40.307	0.100
500.900	47.169	0.100
501.000	54.146	0.100
501.100	53.306	0.100
501.200	52.983	0.100
501.300	41.833	0.100
501.400	43.250	0.100
501.500	60.785	0.100
501.600	56.466	0.100
501.700	51.202	0.100
501.800	46.985	0.100
501.900	51.474	0.100
502.000	53.834	0.100
502.100	46.102	0.100
502.200	52.723	0.100
502.300	41.835	0.100
502.400	61.486	0.100
502.500	48.835	0.100
502.600	57.758	0.100
502.700	69.907	0.100
502.800	63.108	0.100
502.900	37.939	0.100
503.000	43.919	0.100
503.100	39.291	0.100
503.200	58.681	0.100
503.300	64.116	0.100
503.400	50.078	0.100
503.500	38.661	0.100
503.600	55.030	0.100
503.700	63.800	0.100
503.800	55.478	0.100
503.900	54.567	0.100
504.000	48.761	0.100
504.100	61.812	0.100
504.200	53.111	0.100
504.300	64.536	0.100
504.400	48.666	0.100
504.500	45.067	0.100
504.600	66.100	0.100
504.700	68.198	0.100
504.800	57.545	0.100
504.900	51.910	0.100
505.000	66.176	0.100
505.100	50.504	0.100
505.200	62.044	0.100
505.300	54.161	0.100
505.400	64.972	0.100
505.500	44.357	0.100
505.600	52.836	0.100
505.700	59.759	0.100
505.800	58.256	0.100
505.900	56.721	0.100
506.000	63.199	0.100
506.100	46.750	0.100
506.200	60.633	0.100
506.300	65.383	0.100
506.400	65.396	0.100
506.500	65.749	0.100
506.600	65.070	0.100
506.700	43.217	0.100
506.800	46.241	0.100
506.900	64.214	0.100
507.000	67.212	0.100
507.100	65.449	0.100
507.200	57.340	0.100
507.300	48.922	0.100
507.400	65.958	0.100
507.500	52.026	0.100
507.600	55.660	0.100
507.700	52.782	0.100
507.800	40.367	0.100
507.900	55.182	0.100
508.000	64.949	0.100
508.100	47.660	0.100
508.200	47.768	0.100
508.300	45.026	0.100
508.400	66.653	0.100
508.500	61.288	0.100
508.600	59.194	0.100
508.700	54.651	0.100
508.800	53.218	0.100
508.900	69.370	0.100
509.000	68.698	0.100
509.100	56.795	0.100
509.200	52.898	0.100
509.300	61.084	0.100
509.400	65.035	0.100
509.500	51.181	0.100
509.600	57.042	0.100
509.700	75.789	0.100
509.800	64.081	0.100
509.900	67.237	0.100
510.000	47.049	0.100
510.100	56.054	0.100
510.200	53.667	0.100
510.300	65.507	0.100
510.400	59.281	0.100
510.500	62.901	0.100
510.600	71.065	0.100
510.700	53.057	0.100
510.800	54.862	0.100
510.900	55.831	0.100
511.000	70.776	0.100
511.100	59.953	0.100
511.200	58.718	0.100
511.300	52.925	0.100
511.400	64.386	0.100
511.500	51.594	0.100
511.600	55.091	0.100
511.700	56.467	0.100
511.800	57.152	0.100
511.900	59.767	0.100
512.000	53.007	0.100
512.100	64.151	0.100
512.200	59.706	0.100
512.300	69.411	0.100
512.400	60.090	0.100
512.500	63.654	0.100
512.600	56.769	0.100
512.700	61.146	0.100
512.800	49.577	0.100
512.900	72.995	0.100
513.000	57.805	0.100
513.100	39.753	0.100
513.200	58.121	0.100
513.300	56.149	0.100
513.400	65.112	0.100
513.500	62.771	0.100
513.600	59.181	0.100
513.700	60.063	0.100
513.800	55.871	0.100
513.900	57.249	0.100
514.000	67.710	0.100
514.100	58.573	0.100
514.200	58.820	0.100
514.300	53.947	0.100
514.400	48.342	0.100
514.500	67.795	0.100
514.600	55.318	0.100
514.700	65.277	0.100
514.800	60.499	0.100
514.900	58.671	0.100
515.000	57.907	0.100
515.100	68.154	0.100
515.200	57.306	0.100
515.300	55.962	0.100
515.400	51.275	0.100
515.500	62.009	0.100
515.600	61.324	0.100
515.700	46.548	0.100
515.800	66.441	0.100
515.900	68.786	0.100
516.000	58.456	0.100
516.100	59.065	0.100
516.200	48.247	0.100
516.300	65.705	0.100
516.400	55.856	0.100
516.500	58.822	0.100
516.600	53.767	0.100
516.700	52.915	0.100
516.800	50.547	0.100
516.900	55.861	0.100
517.000	61.563	0.100
517.100	68.977	0.100
517.200	57.064	0.100
517.300	65.834	0.100
517.400	50.277	0.100
517.500	54.339	0.100
517.600	49.356	0.100
517.700	59.557	0.100
517.800	60.028	0.100
517.900	51.266	0.100
518.000	51.945	0.100
518.100	54.855	0.100
518.200	59.024	0.100
518.300	70.628	0.100
518.400	61.111	0.100
518.500	47.892	0.100
518.600	71.738	0.100
518.700	59.048	0.100
518.800	55.102	0.100
518.900	47.259	0.100
519.000	61.208	0.100
519.100	65.560	0.100
519.200	58.427	0.100
519.300	63.571	0.100
519.400	48.329	0.100
519.500	56.249	0.100
519.600	60.655	0.100
519.700	62.478	0.100
519.800	58.407	0.100
519.900	69.758	0.100
520.000	55.790	0.100
520.100	49.698	0.100
520.200	59.069	0.100
520.300	50.748	0.100
520.400	57.463	0.100
520.500	57.703	0.100
520.600	59.728	0.100
520.700	56.624	0.100
520.800	66.666	0.100
520.900	57.088	0.100
521.000	60.345	0.100
521.100	58.346	0.100
521.200	51.812	0.100
521.300	57.275	0.100
521.400	47.066	0.100
521.500	61.532	0.100
521.600	67.326	0.100
521.700	67.891	0.100
521.800	54.105	0.100
521.900	57.253	0.100
522.000	57.241	0.100
522.100	56.350	0.100
522.200	53.000	0.100
522.300	49.087	0.100
522.400	53.518	0.100
522.500	60.436	0.100
522.600	50.673	0.100
522.700	56.985	0.100
522.800	51.103	0.100
522.900	49.796	0.100
523.000	61.294	0.100
523.100	71.086	0.100
523.200	44.226	0.100
523.300	51.437	0.100
523.400	47.644	0.100
523.500	60.117	0.100
523.600	57.167	0.100
523.700	63.799	0.100
523.800	61.848	0.100
523.900	64.966	0.100
524.000	51.979	0.100
524.100	67.030	0.100
524.200	63.607	0.100
524.300	40.263	0.100
524.400	53.585	0.100
524.500	54.841	0.100
524.600	65.286	0.100
524.700	68.806	0.100
524.800	61.681	0.100
524.900	52.379	0.100
525.000	45.865	0.100
525.100	49.205	0.100
525.200	76.536	0.100
525.300	65.306	0.100
525.400	56.325	0.100
525.500	58.154	0.100
525.600	32.637	0.100
525.700	56.115	0.100
525.800	64.589	0.100
525.900	57.581	0.100
526.000	71.900	0.100
526.100	67.425	0.100
526.200	52.845	0.100
526.300	65.494	0.100
526.400	62.422	0.100
526.500	64.415	0.100
526.600	58.100	0.100
526.700	60.685	0.100
526.800	55.243	0.100
526.900	70.905	0.100
527.000	58.581	0.100
527.100	37.592	0.100
527.200	58.080	0.100
527.300	56.338	0.100
527.400	58.571	0.100
527.500	71.608	0.100
527.600	59.642	0.100
527.700	60.417	0.100
527.800	59.152	0.100
527.900	56.209	0.100
528.000	46.833	0.100
528.100	48.675	0.100
528.200	58.943	0.100
528.300	56.030	0.100
528.400	53.122	0.100
528.500	64.163	0.100
528.600	62.269	0.100
528.700	53.472	0.100
528.800	54.886	0.100
528.900	65.132	0.100
529.000	73.609	0.100
529.100	69.824	0.100
529.200	59.355	0.100
529.300	55.490	0.100
529.400	54.494	0.100
529.500	58.985	0.100
529.600	51.039	0.100
529.700	72.943	0.100
529.800	59.129	0.100
529.900	52.936	0.100
530.000	53.649	0.100
530.100	71.844	0.100
530.200	64.246	0.100
530.300	61.835	0.100
530.400	48.331	0.100
530.500	62.503	0.100
530.600	59.325	0.100
530.700	54.405	0.100
530.800	63.624	0.100
530.900	65.897	0.100
531.000	63.918	0.100
531.100	54.417	0.100
531.200	54.199	0.100
531.300	54.229	0.100
531.400	56.922	0.100
531.500	48.607	0.100
531.600	73.729	0.100
531.700	53.278	0.100
531.800	47.194	0.100
531.900	60.030	0.100
532.000	74.579	0.100
532.100	54.087	0.100
532.200	55.301	0.100
532.300	45.030	0.100
532.400	54.366	0.100
532.500	63.160	0.100
532.600	51.020	0.100
532.700	70.648	0.100
532.800	57.038	0.100
532.900	54.044	0.100
533.000	49.372	0.100
533.100	50.139	0.100
533.200	56.493	0.100
533.300	56.315	0.100
533.400	62.639	0.100
533.500	58.177	0.100
533.600	62.372	0.100
533.700	61.095	0.100
533.800	57.831	0.100
533.900	56.796	0.100
534.000	62.967	0.100
534.100	53.708	0.100
534.200	50.232	0.100
534.300	62.915	0.100
534.400	49.434	0.100
534.500	48.734	0.100
534.600	66.679	0.100
534.700	67.030	0.100
534.800	48.091	0.100
534.900	53.793	0.100
535.000	48.261	0.100
535.100	49.715	0.100
535.200	63.689	0.100
535.300	65.810	0.100
535.400	57.406	0.100
535.500	56.261	0.100
535.600	61.680	0.100
535.700	60.028	0.100
535.800	56.737	0.100
535.900	57.073	0.100
536.000	54.693	0.100
536.100	67.448	0.100
536.200	39.630	0.100
536.300	48.598	0.100
536.400	78.839	0.100
536.500	56.885	0.100
536.600	65.211	0.100
536.700	50.258	0.100
536.800	52.082	0.100
536.900	54.403	0.100
537.000	53.900	0.100
537.100	60.051	0.100
537.200	58.554	0.100
537.300	51.999	0.100
537.400	60.463	0.100
537.500	60.695	0.100
537.600	42.392	0.100
537.700	55.509	0.100
537.800	55.378	0.100
537.900	54.892	0.100
538.000	55.363	0.100
538.100	61.791	0.100
538.200	47.942	0.100
538.300	50.900	0.100
538.400	66.044	0.100
538.500	62.937	0.100
538.600	69.894	0.100
538.700	64.420	0.100
538.800	55.583	0.100
538.900	58.522	0.100
539.000	48.299	0.100
539.100	50.517	0.100
539.200	68.844	0.100
539.300	50.636	0.100
539.400	44.625	0.100
539.500	61.163	0.100
539.600	47.945	0.100
539.700	67.169	0.100
539.800	63.973	0.100
539.900	62.315	0.100
540.000	63.142	0.100
540.100	59.620	0.100
540.200	54.955	0.100
540.300	51.575	0.100
540.400	60.065	0.100
540.500	61.117	0.100
540.600	54.182	0.100
540.700	61.989	0.100
540.800	49.714	0.100
540.900	36.985	0.100
541.000	43.475	0.100
541.100	61.778	0.100
541.200	43.918	0.100
541.300	40.811	0.100
541.400	52.096	0.100
541.500	41.153	0.100
541.600	47.133	0.100
541.700	34.062	0.100
541.800	29.669	0.100
541.900	20.274	0.100
542.000	9.769	0.100
542.100	33.813	0.100
542.200	29.519	0.100
542.300	15.700	0.100
542.400	26.886	0.100
542.500	12.028	0.100
542.600	30.129	0.100
542.700	23.609	0.100
542.800	11.881	0.100
542.900	27.106	0.100
543.000	19.684	0.100
543.100	24.581	0.100
543.200	20.186	0.100
543.300	17.631	0.100
543.400	16.761	0.100
543.500	4.958	0.100
543.600	13.945	0.100
543.700	10.005	0.100
543.800	8.684	0.100
543.900	20.704	0.100
544.000	9.970	0.100
544.100	24.390	0.100
544.200	15.165	0.100
544.300	16.672	0.100
544.400	5.899	0.100
544.500	-7.414	0.100
544.600	3.030	0.100
544.700	23.042	0.100
544.800	-2.055	0.100
544.900	6.166	0.100
545.000	-6.880	0.100
545.100	5.208	0.100
545.200	24.824	0.100
545.300	11.235	0.100
545.400	10.131	0.100
545.500	9.969	0.100
545.600	12.696	0.100
545.700	-0.020	0.100
545.800	8.849	0.100
545.900	-2.690	0.100
546.000	-3.956	0.100
546.100	8.190	0.100
546.200	8.769	0.100
546.300	12.678	0.100
546.400	0.092	0.100
546.500	-0.401	0.100
546.600	2.056	0.100
546.700	1.981	0.100
546.800	12.379	0.100
546.900	10.252	0.100
547.000	3.104	0.100
547.100	15.870	0.100
547.200	11.982	0.100
547.300	-16.031	0.100
547.400	-0.934	0.100
547.500	11.205	0.100
547.600	-1.485	0.100
547.700	19.248	0.100
547.800	4.337	0.100
547.900	0.811	0.100
548.000	5.407	0.100
548.100	2.370	0.100
548.200	1.796	0.100
548.300	3.621	0.100
548.400	8.690	0.100
548.500	-9.225	0.100
548.600	-2.832	0.100
548.700	-9.213	0.100
548.800	1.497	0.100
548.900	-4.699	0.100
549.000	3.004	0.100
549.100	3.602	0.100
549.200	0.456	0.100
549.300	2.860	0.100
549.400	-1.196	0.100
549.500	3.692	0.100
549.600	7.782	0.100
549.700	-2.954	0.100
549.800	5.354	0.100
549.900	-10.050	0.100
550.000	10.845	0.100
550.100	1.850	0.100
550.200	-7.719	0.100
550.300	-5.333	0.100
550.400	7.016	0.100
550.500	5.244	0.100
550.600	9.312	0.100
550.700	2.432	0.100
550.800	-4.194	0.100
550.900	5.260	0.100
551.000	-2.343	0.100
551.100	3.510	0.100
551.200	10.803	0.100
551.300	-14.519	0.100
551.400	8.526	0.100
551.500	1.581	0.100
551.600	1.301	0.100
551.700	4.342	0.100
551.800	-14.428	0.100
551.900	-6.358	0.100
552.000	-9.663	0.100
552.100	0.423	0.100
552.200	7.939	0.100
552.300	11.894	0.100
552.400	5.796	0.100
552.500	-17.335	0.100
552.600	15.460	0.100
552.700	8.914	0.100
552.800	-5.583	0.100
552.900	-15.152	0.100
553.000	-3.261	0.100
553.100	-9.173	0.100
553.200	-4.331	0.100
553.300	1.513	0.100
553.400	2.287	0.100
553.500	-1.310	0.100
553.600	-2.720	0.100
553.700	-5.538	0.100
553.800	2.351	0.100
553.900	-15.653	0.100
554.000	4.295	0.100
554.100	-10.598	0.100
554.200	-9.973	0.100
554.300	-8.665	0.100
554.400	-2.923	0.100
554.500	-10.239	0.100
554.600	-0.280	0.100
554.700	-1.696	0.100
554.800	-9.001	0.100
554.900	-17.856	0.100
555.000	0.214	0.100
555.100	4.086	0.100
555.200	-0.294	0.100
555.300	-5.948	0.100
555.400	-1.422	0.100
555.500	-10.122	0.100
555.600	-7.890	0.100
555.700	-1.806	0.100
555.800	-6.089	0.100
555.900	-9.255	0.100
556.000	-13.705	0.100
556.100	-8.454	0.100
556.200	-4.740	0.100
556.300	5.111	0.100
556.400	5.356	0.100
556.500	-21.251	0.100
556.600	-14.347	0.100
556.700	-5.611	0.100
556.800	-2.948	0.100
556.900	-26.296	0.100
557.000	-23.838	0.100
557.100	-12.155	0.100
557.200	-8.334	0.100
557.300	-3.779	0.100
557.400	8.542	0.100
557.500	-5.919	0.100
557.600	-1.226	0.100
557.700	-7.056	0.100
557.800	2.515	0.100
557.900	-4.734	0.100
558.000	-10.529	0.100
558.100	-20.753	0.100
558.200	-22.517	0.100
558.300	3.652	0.100
558.400	-6.396	0.100
558.500	-10.767	0.100
558.600	-7.536	0.100
558.700	0.698	0.100
558.800	2.485	0.100
558.900	-15.679	0.100
559.000	-18.886	0.100
559.100	-1.806	0.100
559.200	-13.611	0.100
559.300	-4.067	0.100
559.400	0.843	0.100
559.500	-4.880	0.100
559.600	-1.722	0.100
559.700	-12.943	0.100
559.800	-7.962	0.100
559.900	-14.965	0.100
560.000	-12.479	0.100
560.100	-22.961	0.100
560.200	-15.690	0.100
560.300	-12.722	0.100
560.400	-15.086	0.100
560.500	-15.644	0.100
560.600	-3.405	0.100
560.700	-2.739	0.100
560.800	-26.235	0.100
560.900	-26.106	0.100
561.000	-1.749	0.100
561.100	-5.839	0.100
561.200	-11.493	0.100
561.300	-20.020	0.100
561.400	-13.820	0.100
561.500	-11.088	0.100
561.600	-1.454	0.100
561.700	-13.587	0.100
561.800	-20.753	0.100
561.900	-3.820	0.100
562.000	-10.196	0.100
562.100	-6.280	0.100
562.200	-3.438	0.100
562.300	-5.969	0.100
562.400	-4.844	0.100
562.500	-20.180	0.100
562.600	-12.187	0.100
562.700	-23.496	0.100
562.800	-26.277	0.100
562.900	-14.491	0.100
563.000	-9.726	0.100
563.100	-17.648	0.100
563.200	-21.399	0.100
563.300	-10.561	0.100
563.400	-6.188	0.100
563.500	-12.732	0.100
563.600	-16.537	0.100
563.700	-13.170	0.100
563.800	-19.223	0.100
563.900	-19.483	0.100
564.000	-17.984	0.100
564.100	-4.979	0.100
564.200	-5.676	0.100
564.300	-15.561	0.100
564.400	-27.259	0.100
564.500	-22.008	0.100
564.600	-6.869	0.100
564.700	-5.900	0.100
564.800	-15.653	0.100
564.900	-14.387	0.100
565.000	-15.545	0.100
565.100	-8.871	0.100
565.200	-12.033	0.100
565.300	-15.391	0.100
565.400	-4.847	0.100
565.500	-15.101	0.100
565.600	-15.718	0.100
565.700	-32.032	0.100
565.800	-28.270	0.100
565.900	-7.734	0.100
566.000	-15.152	0.100
566.100	-15.028	0.100
566.200	-17.622	0.100
566.300	-15.910	0.100
566.400	-11.770	0.100
566.500	-12.046	0.100
566.600	-21.234	0.100
566.700	-14.491	0.100
566.800	-14.499	0.100
566.900	-10.367	0.100
567.000	-12.720	0.100
567.100	-35.825	0.100
567.200	-22.922	0.100
567.300	-10.745	0.100
567.400	-16.100	0.100
567.500	-14.903	0.100
567.600	-24.988	0.100
567.700	-9.936	0.100
567.800	-16.444	0.100
567.900	-8.401	0.100
568.000	-22.822	0.100
568.100	-22.349	0.100
568.200	-17.833	0.100
568.300	-22.312	0.100
568.400	-22.551	0.100
568.500	-22.034	0.100
568.600	-22.888	0.100
568.700	-17.505	0.100
568.800	-13.718	0.100
568.900	-8.568	0.100
569.000	-15.198	0.100
569.100	-18.663	0.100
569.200	-20.756	0.100
569.300	-21.201	0.100
569.400	-23.733	0.100
569.500	-22.852	0.100
569.600	-22.907	0.100
569.700	-15.838	0.100
569.800	-21.518	0.100
569.900	-31.689	0.100
570.000	-21.139	0.100
570.100	-31.786	0.100
570.200	-13.714	0.100
570.300	-17.989	0.100
570.400	-25.620	0.100
570.500	-19.767	0.100
570.600	-36.600	0.100
570.700	-24.350	0.100
570.800	-17.139	0.100
570.900	-24.001	0.100
571.000	-22.573	0.100
571.100	-22.567	0.100
571.200	-23.663	0.100
571.300	-23.709	0.100
571.400	-12.832	0.100
571.500	-23.414	0.100
571.600	-28.562	0.100
571.700	-9.196	0.100
571.800	-25.899	0.100
571.900	-14.999	0.100
572.000	-21.388	0.100
572.100	-24.260	0.100
572.200	-22.166	0.100
572.300	-20.318	0.100
572.400	-9.921	0.100
572.500	-19.364	0.100
572.600	-29.586	0.100
572.700	-26.928	0.100
572.800	-25.196	0.100
572.900	-28.901	0.100
573.000	-25.719	0.100
573.100	-6.970	0.100
573.200	-20.655	0.100
573.300	-31.705	0.100
573.400	-27.306	0.100
573.500	-28.495	0.100
573.600	-24.037	0.100
573.700	-20.422	0.100
573.800	-37.530	0.100
573.900	-34.934	0.100
574.000	-15.872	0.100
574.100	-20.376	0.100
574.200	-20.560	0.100
574.300	-31.517	0.100
574.400	-25.957	0.100
574.500	-28.660	0.100
574.600	-30.879	0.100
574.700	-27.344	0.100
574.800	-20.939	0.100
574.900	-21.183	0.100
575.000	-19.376	0.100
575.100	-23.805	0.100
575.200	-23.226	0.100
575.300	-29.220	0.100
575.400	-20.061	0.100
575.500	-21.393	0.100
575.600	-27.046	0.100
575.700	-34.307	0.100
575.800	-27.055	0.100
575.900	-24.119	0.100
576.000	-29.988	0.100
576.100	-20.400	0.100
576.200	-27.761	0.100
576.300	-27.600	0.100
576.400	-35.176	0.100
576.500	-24.930	0.100
576.600	-21.783	0.100
576.700	-23.399	0.100
576.800	-14.973	0.100
576.900	-21.824	0.100
577.000	-29.342	0.100
577.100	-21.229	0.100
577.200	-14.127	0.100
577.300	-29.118	0.100
577.400	-30.051	0.100
577.500	-25.470	0.100
577.600	-16.251	0.100
577.700	-30.583	0.100
577.800	-41.242	0.100
577.900	-25.779	0.100
578.000	-21.869	0.100
578.100	-20.756	0.100
578.200	-27.192	0.100
578.300	-37.912	0.100
578.400	-24.787	0.100
578.500	-22.683	0.100
578.600	-21.732	0.100
578.700	-24.793	0.100
578.800	-44.009	0.100
578.900	-32.379	0.100
579.000	-8.385	0.100
579.100	-23.353	0.100
579.200	-20.205	0.100
579.300	-29.127	0.100
579.400	-22.316	0.100
579.500	-15.544	0.100
579.600	-45.232	0.100
579.700	-36.438	0.100
579.800	-21.583	0.100
579.900	-32.588	0.100
580.000	-11.842	0.100
580.100	-11.710	0.100
580.200	-32.187	0.100
580.300	-22.807	0.100
580.400	-31.015	0.100
580.500	-33.901	0.100
580.600	-20.689	0.100
580.700	-28.087	0.100
580.800	-19.390	0.100
580.900	-17.429	0.100
581.000	-30.537	0.100
581.100	-16.431	0.100
581.200	-22.796	0.100
581.300	-19.929	0.100
581.400	-24.576	0.100
581.500	-26.309	0.100
581.600	-13.927	0.100
581.700	-30.356	0.100
581.800	-22.606	0.100
581.900	-24.106	0.100
582.000	-27.821	0.100
582.100	-37.589	0.100
582.200	-10.400	0.100
582.300	-24.280	0.100
582.400	-26.811	0.100
582.500	-36.744	0.100
582.600	-19.115	0.100
582.700	-31.137	0.100
582.800	-31.341	0.100
582.900	-25.770	0.100
583.000	-16.199	0.100
583.100	-22.556	0.100
583.200	-35.914	0.100
583.300	-22.694	0.100
583.400	-26.678	0.100
583.500	-38.152	0.100
583.600	-23.820	0.100
583.700	-38.560	0.100
583.800	-29.234	0.100
583.900	-20.200	0.100
584.000	-37.426	0.100
584.100	-41.317	0.100
584.200	-38.722	0.100
584.300	-14.713	0.100
584.400	-32.933	0.100
584.500	-36.863	0.100
584.600	-13.783	0.100
584.700	-25.422	0.100
584.800	-28.179	0.100
584.900	-26.523	0.100
585.000	-24.058	0.100
585.100	-16.926	0.100
585.200	-24.973	0.100
585.300	-25.200	0.100
585.400	-31.554	0.100
585.500	-35.619	0.100
585.600	-23.653	0.100
585.700	-32.419	0.100
585.800	-22.488	0.100
585.900	-28.085	0.100
586.000	-30.173	0.100
586.100	-18.649	0.100
586.200	-14.650	0.100
586.300	-33.025	0.100
586.400	-33.472	0.100
586.500	-37.331	0.100
586.600	-42.062	0.100
586.700	-15.120	0.100
586.800	-28.170	0.100
586.900	-32.843	0.100
587.000	-30.999	0.100
587.100	-34.480	0.100
587.200	-30.204	0.100
587.300	-27.155	0.100
587.400	-18.451	0.100
587.500	-29.600	0.100
587.600	-16.391	0.100
587.700	-21.001	0.100
587.800	-24.787	0.100
587.900	-24.430	0.100
588.000	-25.041	0.100
588.100	-34.286	0.100
588.200	-25.259	0.100
588.300	-24.767	0.100
588.400	-28.354	0.100
588.500	-14.790	0.100
588.600	-27.830	0.100
588.700	-46.351	0.100
588.800	-16.456	0.100
588.900	-24.844	0.100
589.000	-23.987	0.100
589.100	-14.064	0.100
589.200	-36.715	0.100
589.300	-24.119	0.100
589.400	-27.674	0.100
589.500	-27.535	0.100
589.600	-23.958	0.100
589.700	-27.180	0.100
589.800	-22.966	0.100
589.900	-18.325	0.100
590.000	-43.927	0.100
590.100	-29.134	0.100
590.200	-24.263	0.100
590.300	-22.519	0.100
590.400	-19.196	0.100
590.500	-25.917	0.100
590.600	-34.229	0.100
590.700	-35.090	0.100
590.800	-35.039	0.100
590.900	-20.939	0.100
591.000	-6.238	0.100
591.100	-35.480	0.100
591.200	-25.185	0.100
591.300	-10.789	0.100
591.400	-26.015	0.100
591.500	-26.168	0.100
591.600	-18.123	0.100
591.700	-39.482	0.100
591.800	-33.201	0.100
591.900	-15.459	0.100
592.000	-18.068	0.100
592.100	-28.793	0.100
592.200	-28.868	0.100
592.300	-32.613	0.100
592.400	-27.547	0.100
592.500	-18.266	0.100
592.600	-24.906	0.100
592.700	-20.923	0.100
592.800	-35.441	0.100
592.900	-23.964	0.100
593.000	-22.751	0.100
593.100	-21.667	0.100
593.200	-38.224	0.100
593.300	-30.371	0.100
593.400	-21.603	0.100
593.500	-27.871	0.100
593.600	-20.120	0.100
593.700	-17.691	0.100
593.800	-28.517	0.100
593.900	-29.009	0.100
594.000	-14.554	0.100
594.100	-18.458	0.100
594.200	-27.111	0.100
594.300	-41.500	0.100
594.400	-31.635	0.100
594.500	-9.263	0.100
594.600	-22.794	0.100
594.700	-37.448	0.100
594.800	-21.506	0.100
594.900	-23.207	0.100
595.000	-21.139	0.100
595.100	-47.173	0.100
595.200	-21.397	0.100
595.300	-12.892	0.100
595.400	-31.066	0.100
595.500	-29.509	0.100
595.600	-32.939	0.100
595.700	-23.246	0.100
595.800	-23.526	0.100
595.900	-13.749	0.100
596.000	-18.957	0.100
596.100	-23.258	0.100
596.200	-26.339	0.100
596.300	-18.266	0.100
596.400	-32.693	0.100
596.500	-23.559	0.100
596.600	-19.200	0.100
596.700	-22.554	0.100
596.800	-26.039	0.100
596.900	-28.528	0.100
597.000	-27.446	0.100
597.100	-38.828	0.100
597.200	-11.740	0.100
597.300	-34.275	0.100
597.400	-24.128	0.100
597.500	-25.591	0.100
597.600	-21.367	0.100
597.700	-34.704	0.100
597.800	-19.925	0.100
597.900	-21.565	0.100
598.000	-38.472	0.100
598.100	-17.994	0.100
598.200	-20.676	0.100
598.300	-19.631	0.100
598.400	-18.417	0.100
598.500	-26.759	0.100
598.600	-34.978	0.100
598.700	-8.291	0.100
598.800	-27.365	0.100
598.900	-26.770	0.100
599.000	-21.267	0.100
599.100	-3.638	0.100
599.200	-25.781	0.100
599.300	-24.851	0.100
599.400	-26.346	0.100
599.500	-26.495	0.100
599.600	-20.615	0.100
599.700	-24.903	0.100
599.800	-17.954	0.100
599.900	-14.717	0.100
600.000	-34.034	0.100
600.100	-20.377	0.100
600.200	-18.187	0.100
600.300	-37.095	0.100
600.400	-29.694	0.100
600.500	-29.058	0.100
600.600	-30.463	0.100
600.700	-23.739	0.100
600.800	-31.196	0.100
600.900	-24.950	0.100
601.000	-13.185	0.100
601.100	-31.827	0.100
601.200	-32.831	0.100
601.300	-12.747	0.100
601.400	-24.957	0.100
601.500	-26.448	0.100
601.600	-24.446	0.100
601.700	-26.594	0.100
601.800	-24.272	0.100
601.900	-14.684	0.100
602.000	-26.284	0.100
602.100	-29.354	0.100
602.200	-27.381	0.100
602.300	-17.661	0.100
602.400	-39.178	0.100
602.500	-21.985	0.100
602.600	-14.256	0.100
602.700	-17.111	0.100
602.800	-23.322	0.100
602.900	-20.532	0.100
603.000	-28.498	0.100
603.100	-14.518	0.100
603.200	-22.378	0.100
603.300	-22.786	0.100
603.400	-41.275	0.100
603.500	-17.640	0.100
603.600	-18.791	0.100
603.700	-32.539	0.100
603.800	-28.160	0.100
603.900	-27.846	0.100
604.000	-10.888	0.100
604.100	-23.086	0.100
604.200	-36.527	0.100
604.300	-20.880	0.100
604.400	-31.859	0.100
604.500	-16.230	0.100
604.600	-28.369	0.100
604.700	-35.496	0.100
604.800	-25.491	0.100
604.900	-28.579	0.100
605.000	-28.386	0.100
605.100	-21.920	0.100
605.200	-19.483	0.100
605.300	-25.767	0.100
605.400	-23.307	0.100
605.500	-22.109	0.100
605.600	-28.239	0.100
605.700	-17.689	0.100
605.800	-30.254	0.100
605.900	-23.589	0.100
606.000	-21.428	0.100
606.100	-18.773	0.100
606.200	-28.698	0.100
606.300	-29.477	0.100
606.400	-21.882	0.100
606.500	-6.381	0.100
606.600	-9.173	0.100
606.700	-11.542	0.100
606.800	-19.810	0.100
606.900	-26.075	0.100
607.000	-33.215	0.100
607.100	-26.793	0.100
607.200	-18.525	0.100
607.300	-21.407	0.100
607.400	-24.731	0.100
607.500	-24.341	0.100
607.600	-33.550	0.100
607.700	-15.841	0.100
607.800	-29.143	0.100
607.900	-23.247	0.100
608.000	-24.393	0.100
608.100	-20.975	0.100
608.200	-22.474	0.100
608.300	-16.035	0.100
608.400	-1.755	0.100
608.500	-12.503	0.100
608.600	-33.775	0.100
608.700	-25.245	0.100
608.800	-27.582	0.100
608.900	-22.201	0.100
609.000	-25.431	0.100
609.100	-26.377	0.100
609.200	-17.082	0.100
609.300	-20.187	0.100
609.400	-28.363	0.100
609.500	-25.500	0.100
609.600	-29.929	0.100
609.700	-26.991	0.100
609.800	-19.733	0.100
609.900	-19.552	0.100
610.000	-34.216	0.100
610.100	-14.314	0.100
610.200	-26.550	0.100
610.300	-35.104	0.100
610.400	-31.811	0.100
610.500	-24.825	0.100
610.600	-17.523	0.100
610.700	-23.061	0.100
610.800	-22.871	0.100
610.900	-23.131	0.100
611.000	-14.666	0.100
611.100	-27.463	0.100
611.200	-26.102	0.100
611.300	-31.890	0.100
611.400	-21.323	0.100
611.500	-20.314	0.100
611.600	-31.615	0.100
611.700	-5.167	0.100
611.800	-21.216	0.100
611.900	-32.308	0.100
612.000	-29.594	0.100
612.100	-23.734	0.100
612.200	-24.444	0.100
612.300	-17.071	0.100
612.400	-25.578	0.100
612.500	-26.151	0.100
612.600	-29.373	0.100
612.700	-22.300	0.100
612.800	-25.087	0.100
612.900	-11.931	0.100
613.000	-30.852	0.100
613.100	-18.611	0.100
613.200	-18.469	0.100
613.300	-28.870	0.100
613.400	-27.769	0.100
613.500	-15.087	0.100
613.600	0.268	0.100
613.700	-18.872	0.100
613.800	-28.775	0.100
613.900	-21.331	0.100
614.000	-20.048	0.100
614.100	-30.019	0.100
614.200	-23.788	0.100
614.300	-23.635	0.100
614.400	-34.225	0.100
614.500	-9.357	0.100
614.600	-19.229	0.100
614.700	-36.991	0.100
614.800	-28.220	0.100
614.900	-27.974	0.100
615.000	-12.329	0.100
615.100	-31.640	0.100
615.200	-27.154	0.100
615.300	-24.466	0.100
615.400	-30.710	0.100
615.500	-12.855	0.100
615.600	-12.787	0.100
615.700	-30.488	0.100
615.800	-29.805	0.100
615.900	-13.571	0.100
616.000	-18.739	0.100
616.100	-19.098	0.100
616.200	-30.296	0.100
616.300	-24.521	0.100
616.400	-14.090	0.100
616.500	-10.668	0.100
616.600	-27.439	0.100
616.700	-31.809	0.100
616.800	-15.471	0.100
616.900	-16.775	0.100
617.000	-21.055	0.100
617.100	-23.070	0.100
617.200	-14.871	0.100
617.300	-11.361	0.100
617.400	-12.785	0.100
617.500	-27.802	0.100
617.600	-38.428	0.100
617.700	-23.266	0.100
617.800	-19.273	0.100
617.900	-22.843	0.100
618.000	-23.030	0.100
618.100	-20.596	0.100
618.200	-26.503	0.100
618.300	-10.040	0.100
618.400	-38.149	0.100
618.500	-31.405	0.100
618.600	-5.577	0.100
618.700	-21.589	0.100
618.800	-15.988	0.100
618.900	-31.059	0.100
619.000	-29.903	0.100
619.100	-17.158	0.100
619.200	-12.295	0.100
619.300	-22.549	0.100
619.400	-19.361	0.100
619.500	-25.891	0.100
619.600	-15.439	0.100
619.700	-18.193	0.100
619.800	-36.054	0.100
619.900	-19.302	0.100
620.000	-19.629	0.100
620.100	-19.917	0.100
620.200	-25.230	0.100
620.300	-11.479	0.100
620.400	-10.101	0.100
620.500	-20.794	0.100
620.600	-23.083	0.100
620.700	-20.783	0.100
620.800	-25.425	0.100
620.900	-13.915	0.100
621.000	-25.422	0.100
621.100	-27.258	0.100
621.200	-9.338	0.100
621.300	-18.356	0.100
621.400	-24.438	0.100
621.500	-23.065	0.100
621.600	-21.334	0.100
621.700	-22.548	0.100
621.800	-21.352	0.100
621.900	-12.883	0.100
622.000	-20.290	0.100
622.100	-22.342	0.100
622.200	-23.965	0.100
622.300	-16.044	0.100
622.400	-16.989	0.100
622.500	-12.337	0.100
622.600	-24.381	0.100
622.700	-22.942	0.100
622.800	-16.424	0.100
622.900	-24.765	0.100
623.000	-26.483	0.100
623.100	-20.778	0.100
623.200	-23.545	0.100
623.300	-21.086	0.100
623.400	-22.229	0.100
623.500	-42.846	0.100
623.600	-28.406	0.100
623.700	-6.445	0.100
623.800	-18.249	0.100
623.900	-16.030	0.100
624.000	-21.465	0.100
624.100	-26.016	0.100
624.200	-21.876	0.100
624.300	-27.884	0.100
624.400	-29.849	0.100
624.500	-17.702	0.100
624.600	-26.640	0.100
624.700	-19.846	0.100
624.800	-18.687	0.100
624.900	-31.698	0.100
625.000	-23.251	0.100
625.100	-23.114	0.100
625.200	-30.704	0.100
625.300	-16.243	0.100
625.400	-8.224	0.100
625.500	-23.909	0.100
625.600	-17.278	0.100
625.700	-11.845	0.100
625.800	-20.390	0.100
625.900	-32.569	0.100
626.000	-9.319	0.100
626.100	-19.414	0.100
626.200	-11.810	0.100
626.300	-31.039	0.100
626.400	-17.862	0.100
626.500	-23.309	0.100
626.600	-20.788	0.100
626.700	2.443	0.100
626.800	-25.848	0.100
626.900	-16.856	0.100
627.000	-28.539	0.100
627.100	-20.199	0.100
627.200	-17.371	0.100
627.300	-27.618	0.100
627.400	-18.036	0.100
627.500	-22.706	0.100
627.600	-11.352	0.100
627.700	-25.982	0.100
627.800	-18.607	0.100
627.900	-29.819	0.100
628.000	-17.819	0.100
628.100	-24.814	0.100
628.200	-25.736	0.100
628.300	-5.994	0.100
628.400	-20.086	0.100
628.500	-32.137	0.100
628.600	-9.385	0.100
628.700	-17.086	0.100
628.800	-18.789	0.100
628.900	-25.441	0.100
629.000	-18.266	0.100
629.100	-22.953	0.100
629.200	-23.071	0.100
629.300	-16.377	0.100
629.400	-19.566	0.100
629.500	-23.886	0.100
629.600	-25.147	0.100
629.700	-3.288	0.100
629.800	-31.208	0.100
629.900	-20.779	0.100
630.000	-19.480	0.100
630.100	-21.971	0.100
630.200	-19.324	0.100
630.300	-18.080	0.100
630.400	-21.305	0.100
630.500	-25.034	0.100
630.600	-30.819	0.100
630.700	-25.744	0.100
630.800	-10.473	0.100
630.900	-15.182	0.100
631.000	-8.796	0.100
631.100	-25.665	0.100
631.200	-13.593	0.100
631.300	0.333	0.100
631.400	7.156	0.100
631.500	-6.603	0.100
631.600	2.581	0.100
631.700	-14.190	0.100
631.800	11.754	0.100
631.900	-4.304	0.100
632.000	0.847	0.100
632.100	6.836	0.100
632.200	3.386	0.100
632.300	-3.816	0.100
632.400	8.182	0.100
632.500	11.295	0.100
632.600	16.591	0.100
632.700	12.036	0.100
632.800	7.878	0.100
632.900	16.677	0.100
633.000	18.493	0.100
633.100	15.648	0.100
633.200	15.969	0.100
633.300	5.711	0.100
633.400	21.964	0.100
633.500	13.643	0.100
633.600	11.681	0.100
633.700	11.358	0.100
633.800	19.559	0.100
633.900	24.025	0.100
634.000	9.326	0.100
634.100	8.395	0.100
634.200	-3.748	0.100
634.300	17.128	0.100
634.400	12.470	0.100
634.500	4.022	0.100
634.600	3.318	0.100
634.700	6.478	0.100
634.800	9.450	0.100
634.900	33.242	0.100
635.000	14.870	0.100
635.100	25.048	0.100
635.200	4.515	0.100
635.300	20.607	0.100
635.400	15.149	0.100
635.500	15.509	0.100
635.600	4.973	0.100
635.700	-4.334	0.100
635.800	3.988	0.100
635.900	18.043	0.100
636.000	19.725	0.100
636.100	3.254	0.100
636.200	18.397	0.100
636.300	15.592	0.100
636.400	9.450	0.100
636.500	4.888	0.100
636.600	6.792	0.100
636.700	-14.720	0.100
636.800	15.676	0.100
636.900	21.672	0.100
637.000	15.527	0.100
637.100	22.318	0.100
637.200	8.088	0.100
637.300	7.377	0.100
637.400	7.138	0.100
637.500	11.456	0.100
637.600	22.567	0.100
637.700	20.133	0.100
637.800	1.779	0.100
637.900	8.587	0.100
638.000	12.256	0.100
638.100	9.778	0.100
638.200	10.464	0.100
638.300	11.042	0.100
638.400	13.950	0.100
638.500	8.859	0.100
638.600	7.606	0.100
638.700	13.926	0.100
638.800	12.650	0.100
638.900	11.324	0.100
639.000	12.051	0.100
639.100	9.983	0.100
639.200	19.949	0.100
639.300	18.317	0.100
639.400	12.320	0.100
639.500	12.746	0.100
639.600	-0.375	0.100
639.700	8.635	0.100
639.800	26.366	0.100
639.900	6.073	0.100
640.000	13.432	0.100
640.100	20.985	0.100
640.200	4.475	0.100
640.300	9.113	0.100
640.400	17.355	0.100
640.500	18.892	0.100
640.600	2.741	0.100
640.700	32.808	0.100
640.800	24.110	0.100
640.900	5.211	0.100
641.000	6.767	0.100
641.100	16.137	0.100
641.200	11.561	0.100
641.300	16.106	0.100
641.400	15.865	0.100
641.500	3.581	0.100
641.600	8.023	0.100
641.700	15.471	0.100
641.800	33.540	0.100
641.900	18.813	0.100
642.000	41.454	0.100
642.100	25.343	0.100
642.200	7.456	0.100
642.300	13.228	0.100
642.400	10.556	0.100
642.500	11.981	0.100
642.600	20.087	0.100
642.700	22.019	0.100
642.800	5.109	0.100
642.900	16.548	0.100
643.000	13.840	0.100
643.100	25.755	0.100
643.200	15.549	0.100
643.300	27.258	0.100
643.400	9.387	0.100
643.500	11.374	0.100
643.600	30.533	0.100
643.700	23.239	0.100
643.800	15.575	0.100
643.900	17.180	0.100
644.000	14.277	0.100
644.100	20.647	0.100
644.200	17.293	0.100
644.300	36.319	0.100
644.400	29.542	0.100
644.500	7.700	0.100
644.600	22.276	0.100
644.700	29.374	0.100
644.800	36.770	0.100
644.900	33.743	0.100
645.000	24.877	0.100
645.100	10.613	0.100
645.200	17.640	0.100
645.300	24.069	0.100
645.400	31.381	0.100
645.500	20.366	0.100
645.600	20.941	0.100
645.700	7.907	0.100
645.800	34.111	0.100
645.900	17.227	0.100
646.000	21.006	0.100
646.100	23.915	0.100
646.200	30.441	0.100
646.300	11.074	0.100
646.400	29.174	0.100
646.500	25.338	0.100
646.600	24.884	0.100
646.700	27.046	0.100
646.800	29.407	0.100
646.900	23.573	0.100
647.000	34.946	0.100
647.100	43.495	0.100
647.200	35.494	0.100
647.300	25.143	0.100
647.400	21.443	0.100
647.500	26.569	0.100
647.600	27.316	0.100
647.700	31.987	0.100
647.800	20.087	0.100
647.900	42.098	0.100
648.000	39.611	0.100
648.100	20.661	0.100
648.200	24.479	0.100
648.300	42.098	0.100
648.400	35.656	0.100
648.500	38.451	0.100
648.600	31.288	0.100
648.700	34.152	0.100
648.800	42.315	0.100
648.900	45.098	0.100
649.000	32.622	0.100
649.100	32.395	0.100
649.200	44.154	0.100
649.300	46.118	0.100
649.400	47.711	0.100
649.500	28.551	0.100
649.600	35.698	0.100
649.700	38.206	0.100
649.800	44.596	0.100
649.900	44.357	0.100
650.000	39.753	0.100
650.100	39.568	0.100
650.200	29.915	0.100
650.300	50.081	0.100
650.400	45.401	0.100
650.500	47.872	0.100
650.600	54.749	0.100
650.700	29.218	0.100
650.800	42.470	0.100
650.900	52.214	0.100
651.000	44.974	0.100
651.100	60.742	0.100
651.200	49.400	0.100
651.300	55.779	0.100
651.400	42.279	0.100
651.500	47.414	0.100
651.600	46.020	0.100
651.700	28.711	0.100
651.800	53.428	0.100
651.900	44.102	0.100
652.000	58.085	0.100
652.100	46.775	0.100
652.200	41.600	0.100
652.300	41.296	0.100
652.400	50.592	0.100
652.500	43.329	0.100
652.600	54.985	0.100
652.700	43.135	0.100
652.800	46.718	0.100
652.900	52.476	0.100
653.000	43.021	0.100
653.100	38.316	0.100
653.200	49.571	0.100
653.300	49.117	0.100
653.400	55.065	0.100
653.500	43.343	0.100
653.600	50.473	0.100
653.700	37.724	0.100
653.800	53.887	0.100
653.900	54.669	0.100
654.000	58.196	0.100
654.100	61.104	0.100
654.200	52.404	0.100
654.300	39.417	0.100
654.400	55.002	0.100
654.500	55.528	0.100
654.600	51.954	0.100
654.700	62.600	0.100
654.800	59.615	0.100
654.900	56.590	0.100
655.000	57.979	0.100
655.100	49.068	0.100
655.200	61.706	0.100
655.300	61.679	0.100
655.400	60.366	0.100
655.500	51.346	0.100
655.600	56.253	0.100
655.700	54.499	0.100
655.800	59.870	0.100
655.900	63.416	0.100
656.000	64.896	0.100
656.100	54.051	0.100
656.200	54.081	0.100
656.300	46.094	0.100
656.400	45.711	0.100
656.500	64.627	0.100
656.600	58.694	0.100
656.700	49.578	0.100
656.800	62.994	0.100
656.900	56.719	0.100
657.000	52.850	0.100
657.100	57.970	0.100
657.200	56.181	0.100
657.300	57.579	0.100
657.400	60.850	0.100
657.500	61.240	0.100
657.600	48.794	0.100
657.700	51.620	0.100
657.800	46.069	0.100
657.900	57.731	0.100
658.000	61.699	0.100
658.100	51.537	0.100
658.200	51.882	0.100
658.300	64.155	0.100
658.400	56.126	0.100
658.500	46.554	0.100
658.600	45.397	0.100
658.700	64.809	0.100
658.800	63.646	0.100
658.900	60.329	0.100
659.000	49.034	0.100
659.100	56.438	0.100
659.200	49.635	0.100
659.300	47.301	0.100
659.400	64.588	0.100
659.500	57.438	0.100
659.600	60.411	0.100
659.700	47.034	0.100
659.800	47.164	0.100
659.900	62.160	0.100
660.000	48.657	0.100
660.100	53.071	0.100
660.200	67.284	0.100
660.300	55.998	0.100
660.400	80.370	0.100
660.500	53.354	0.100
660.600	54.349	0.100
660.700	51.832	0.100
660.800	43.271	0.100
660.900	73.445	0.100
661.000	63.786	0.100
661.100	63.703	0.100
661.200	61.352	0.100
661.300	58.510	0.100
661.400	46.365	0.100
661.500	62.884	0.100
661.600	56.350	0.100
661.700	54.682	0.100
661.800	52.136	0.100
661.900	52.862	0.100
662.000	53.489	0.100
662.100	55.156	0.100
662.200	57.846	0.100
662.300	61.344	0.100
662.400	62.966	0.100
662.500	57.923	0.100
662.600	60.115	0.100
662.700	43.078	0.100
662.800	55.963	0.100
662.900	54.166	0.100
663.000	53.441	0.100
663.100	61.121	0.100
663.200	53.426	0.100
663.300	34.956	0.100
663.400	66.827	0.100
663.500	45.614	0.100
663.600	58.703	0.100
663.700	50.523	0.100
663.800	57.091	0.100
663.900	60.957	0.100
664.000	53.243	0.100
664.100	52.758	0.100
664.200	56.868	0.100
664.300	56.108	0.100
664.400	55.543	0.100
664.500	58.916	0.100
664.600	57.331	0.100
664.700	59.461	0.100
664.800	37.271	0.100
664.900	45.288	0.100
665.000	66.732	0.100
665.100	64.443	0.100
665.200	55.415	0.100
665.300	54.267	0.100
665.400	55.273	0.100
665.500	56.549	0.100
665.600	53.092	0.100
665.700	52.312	0.100
665.800	67.180	0.100
665.900	62.778	0.100
666.000	66.883	0.100
666.100	56.719	0.100
666.200	58.029	0.100
666.300	51.272	0.100
666.400	50.554	0.100
666.500	61.219	0.100
666.600	58.605	0.100
666.700	57.537	0.100
666.800	55.827	0.100
666.900	49.973	0.100
667.000	53.184	0.100
667.100	50.489	0.100
667.200	68.677	0.100
667.300	55.363	0.100
667.400	56.774	0.100
667.500	71.083	0.100
667.600	60.085	0.100
667.700	51.815	0.100
667.800	65.036	0.100
667.900	56.567	0.100
668.000	55.103	0.100
668.100	59.882	0.100
668.200	56.029	0.100
668.300	50.459	0.100
668.400	48.952	0.100
668.500	55.855	0.100
668.600	64.281	0.100
668.700	60.243	0.100
668.800	63.173	0.100
668.900	57.884	0.100
669.000	57.823	0.100
669.100	56.215	0.100
669.200	45.894	0.100
669.300	49.986	0.100
669.400	42.932	0.100
669.500	66.120	0.100
669.600	62.794	0.100
669.700	46.492	0.100
669.800	36.680	0.100
669.900	62.957	0.100
670.000	63.065	0.100
670.100	67.412	0.100
670.200	56.671	0.100
670.300	46.763	0.100
670.400	55.217	0.100
670.500	46.969	0.100
670.600	67.254	0.100
670.700	67.054	0.100
670.800	54.511	0.100
670.900	50.094	0.100
671.000	36.495	0.100
671.100	64.644	0.100
671.200	71.994	0.100
671.300	45.128	0.100
671.400	60.901	0.100
671.500	47.788	0.100
671.600	63.373	0.100
671.700	58.202	0.100
671.800	60.338	0.100
671.900	70.281	0.100
672.000	59.739	0.100
672.100	48.691	0.100
672.200	62.762	0.100
672.300	56.435	0.100
672.400	50.343	0.100
672.500	52.571	0.100
672.600	53.140	0.100
672.700	69.958	0.100
672.800	58.816	0.100
672.900	63.992	0.100
673.000	58.121	0.100
673.100	61.850	0.100
673.200	53.219	0.100
673.300	62.938	0.100
673.400	54.904	0.100
673.500	58.120	0.100
673.600	56.138	0.100
673.700	50.533	0.100
673.800	63.082	0.100
673.900	53.538	0.100
674.000	31.903	0.100
674.100	52.785	0.100
674.200	63.001	0.100
674.300	50.887	0.100
674.400	59.037	0.100
674.500	58.888	0.100
674.600	54.766	0.100
674.700	71.849	0.100
674.800	59.552	0.100
674.900	57.268	0.100
675.000	52.489	0.100
675.100	57.067	0.100
675.200	44.586	0.100
675.300	61.229	0.100
675.400	72.595	0.100
675.500	58.447	0.100
675.600	54.965	0.100
675.700	64.681	0.100
675.800	55.003	0.100
675.900	53.566	0.100
676.000	67.661	0.100
676.100	69.231	0.100
676.200	52.860	0.100
676.300	61.711	0.100
676.400	59.493	0.100
676.500	58.461	0.100
676.600	58.916	0.100
676.700	44.855	0.100
676.800	53.219	0.100
676.900	57.811	0.100
677.000	66.940	0.100
677.100	54.941	0.100
677.200	60.869	0.100
677.300	43.329	0.100
677.400	57.115	0.100
677.500	56.236	0.100
677.600	60.743	0.100
677.700	63.465	0.100
677.800	51.793	0.100
677.900	56.133	0.100
678.000	56.196	0.100
678.100	49.361	0.100
678.200	54.532	0.100
678.300	52.777	0.100
678.400	55.469	0.100
678.500	54.614	0.100
678.600	55.179	0.100
678.700	64.870	0.100
678.800	59.517	0.100
678.900	42.161	0.100
679.000	45.900	0.100
679.100	75.634	0.100
679.200	61.282	0.100
679.300	56.218	0.100
679.400	51.594	0.100
679.500	62.363	0.100
679.600	48.898	0.100
679.700	51.975	0.100
679.800	55.468	0.100
679.900	38.083	0.100
680.000	52.054	0.100
680.100	69.580	0.100
680.200	48.951	0.100
680.300	55.647	0.100
680.400	56.483	0.100
680.500	58.374	0.100
680.600	53.292	0.100
680.700	66.171	0.100
680.800	65.366	0.100
680.900	55.839	0.100
681.000	53.572	0.100
681.100	48.675	0.100
681.200	69.725	0.100
681.300	73.823	0.100
681.400	52.283	0.100
681.500	54.866	0.100
681.600	47.827	0.100
681.700	44.639	0.100
681.800	48.586	0.100
681.900	58.753	0.100
682.000	61.529	0.100
682.100	47.630	0.100
682.200	59.882	0.100
682.300	44.857	0.100
682.400	56.865	0.100
682.500	56.061	0.100
682.600	47.153	0.100
682.700	40.822	0.100
682.800	50.542	0.100
682.900	64.045	0.100
683.000	52.654	0.100
683.100	53.635	0.100
683.200	60.068	0.100
683.300	59.339	0.100
683.400	51.816	0.100
683.500	60.805	0.100
683.600	57.593	0.100
683.700	48.940	0.100
683.800	49.655	0.100
683.900	56.499	0.100
684.000	59.236	0.100
684.100	59.418	0.100
684.200	46.206	0.100
684.300	48.804	0.100
684.400	56.968	0.100
684.500	53.068	0.100
684.600	47.974	0.100
684.700	57.205	0.100
684.800	53.670	0.100
684.900	60.970	0.100
685.000	59.471	0.100
685.100	66.490	0.100
685.200	56.773	0.100
685.300	55.530	0.100
685.400	59.767	0.100
685.500	48.936	0.100
685.600	50.435	0.100
685.700	51.488	0.100
685.800	64.158	0.100
685.900	51.521	0.100
686.000	54.855	0.100
686.100	55.073	0.100
686.200	49.623	0.100
686.300	67.990	0.100
686.400	53.429	0.100
686.500	51.060	0.100
686.600	37.339	0.100
686.700	62.196	0.100
686.800	61.782	0.100
686.900	62.302	0.100
687.000	46.733	0.100
687.100	56.205	0.100
687.200	55.501	0.100
687.300	51.269	0.100
687.400	55.700	0.100
687.500	58.795	0.100
687.600	62.672	0.100
687.700	42.726	0.100
687.800	61.785	0.100
687.900	47.145	0.100
688.000	56.675	0.100
688.100	57.991	0.100
688.200	49.557	0.100
688.300	61.433	0.100
688.400	67.183	0.100
688.500	51.733	0.100
688.600	56.157	0.100
688.700	64.357	0.100
688.800	62.449	0.100
688.900	50.079	0.100
689.000	61.173	0.100
689.100	57.007	0.100
689.200	55.880	0.100
689.300	51.126	0.100
689.400	55.382	0.100
689.500	57.238	0.100
689.600	57.209	0.100
689.700	53.120	0.100
689.800	52.852	0.100
689.900	53.861	0.100
690.000	67.344	0.100
690.100	60.262	0.100
690.200	58.331	0.100
690.300	39.677	0.100
690.400	49.108	0.100
690.500	60.160	0.100
690.600	62.877	0.100
690.700	58.494	0.100
690.800	48.326	0.100
690.900	41.045	0.100
691.000	45.157	0.100
691.100	56.921	0.100
691.200	49.054	0.100
691.300	42.145	0.100
691.400	34.921	0.100
691.500	41.019	0.100
691.600	22.738	0.100
691.700	31.850	0.100
691.800	32.285	0.100
691.900	33.881	0.100
692.000	30.458	0.100
692.100	40.702	0.100
692.200	14.092	0.100
692.300	27.967	0.100
692.400	18.113	0.100
692.500	19.987	0.100
692.600	10.779	0.100
692.700	15.995	0.100
692.800	11.155	0.100
692.900	16.930	0.100
693.000	12.729	0.100
693.100	13.716	0.100
693.200	0.168	0.100
693.300	19.137	0.100
693.400	13.426	0.100
693.500	7.473	0.100
693.600	6.253	0.100
693.700	14.102	0.100
693.800	-2.903	0.100
693.900	8.917	0.100
694.000	9.435	0.100
694.100	13.439	0.100
694.200	6.831	0.100
694.300	7.040	0.100
694.400	13.998	0.100
694.500	1.097	0.100
694.600	-2.369	0.100
694.700	5.524	0.100
694.800	4.003	0.100
694.900	8.107	0.100
695.000	6.687	0.100
695.100	10.654	0.100
695.200	5.232	0.100
695.300	-11.288	0.100
695.400	-3.384	0.100
695.500	18.713	0.100
695.600	1.512	0.100
695.700	-1.861	0.100
695.800	5.049	0.100
695.900	-10.054	0.100
696.000	7.123	0.100
696.100	8.917	0.100
696.200	-11.450	0.100
696.300	6.369	0.100
696.400	8.644	0.100
696.500	13.371	0.100
696.600	-4.487	0.100
696.700	7.313	0.100
696.800	3.046	0.100
696.900	3.364	0.100
697.000	2.548	0.100
697.100	0.407	0.100
697.200	0.314	0.100
697.300	-2.988	0.100
697.400	7.402	0.100
697.500	-0.811	0.100
697.600	10.004	0.100
697.700	-3.772	0.100
697.800	-10.385	0.100
697.900	-0.365	0.100
698.000	-3.005	0.100
698.100	-3.334	0.100
698.200	-2.916	0.100
698.300	-9.751	0.100
698.400	-0.776	0.100
698.500	3.045	0.100
698.600	1.647	0.100
698.700	0.044	0.100
698.800	2.400	0.100
698.900	-7.545	0.100
699.000	8.231	0.100
699.100	-21.572	0.100
699.200	-3.994	0.100
699.300	4.340	0.100
699.400	8.562	0.100
699.500	0.988	0.100
699.600	-1.047	0.100
699.700	-14.994	0.100
699.800	4.751	0.100
699.900	-7.273	0.100
700.000	2.846	0.100
700.100	0.153	0.100
700.200	-5.173	0.100
700.300	1.479	0.100
700.400	-10.638	0.100
700.500	1.926	0.100
700.600	-2.390	0.100
700.700	-9.284	0.100
700.800	3.362	0.100
700.900	-4.587	0.100
701.000	-14.310	0.100
701.100	2.196	0.100
701.200	2.031	0.100
701.300	-7.008	0.100
701.400	-8.266	0.100
701.500	-7.575	0.100
701.600	-0.540	0.100
701.700	-11.842	0.100
701.800	-5.189	0.100
701.900	1.607	0.100
702.000	-6.370	0.100
702.100	-4.216	0.100
702.200	-3.851	0.100
702.300	-7.117	0.100
702.400	-1.616	0.100
702.500	-17.888	0.100
702.600	-20.201	0.100
702.700	-14.070	0.100
702.800	8.072	0.100
702.900	-5.303	0.100
703.000	-5.693	0.100
703.100	3.908	0.100
703.200	-7.813	0.100
703.300	-12.540	0.100
703.400	-2.308	0.100
703.500	-0.891	0.100
703.600	-11.089	0.100
703.700	-4.710	0.100
703.800	-7.356	0.100
703.900	-9.568	0.100
704.000	8.634	0.100
704.100	-1.851	0.100
704.200	-21.105	0.100
704.300	0.990	0.100
704.400	-7.926	0.100
704.500	-2.694	0.100
704.600	-14.874	0.100
704.700	-2.053	0.100
704.800	-9.463	0.100
704.900	-10.123	0.100
705.000	-4.537	0.100
705.100	-8.597	0.100
705.200	6.901	0.100
705.300	-2.853	0.100
705.400	-16.012	0.100
705.500	2.254	0.100
705.600	7.080	0.100
705.700	-5.825	0.100
705.800	-6.936	0.100
705.900	-14.799	0.100
706.000	-7.054	0.100
706.100	-27.503	0.100
706.200	-2.983	0.100
706.300	-3.612	0.100
706.400	-7.110	0.100
706.500	-14.202	0.100
706.600	-17.945	0.100
706.700	-9.890	0.100
706.800	-7.844	0.100
706.900	-15.930	0.100
707.000	-16.046	0.100
707.100	-4.309	0.100
707.200	0.439	0.100
707.300	-20.791	0.100
707.400	-12.902	0.100
707.500	-10.423	0.100
707.600	-13.583	0.100
707.700	-0.759	0.100
707.800	-10.934	0.100
707.900	-2.392	0.100
708.000	-17.135	0.100
708.100	-16.757	0.100
708.200	-18.100	0.100
708.300	-10.517	0.100
708.400	-14.912	0.100
708.500	-22.560	0.100
708.600	-7.805	0.100
708.700	5.541	0.100
708.800	4.999	0.100
708.900	-30.558	0.100
709.000	-14.248	0.100
709.100	-14.607	0.100
709.200	-23.466	0.100
709.300	-8.891	0.100
709.400	-10.267	0.100
709.500	-22.961	0.100
709.600	-27.888	0.100
709.700	-2.924	0.100
709.800	-8.183	0.100
709.900	-9.727	0.100
710.000	-17.977	0.100
710.100	-19.111	0.100
710.200	-13.040	0.100
710.300	-1.485	0.100
710.400	-12.418	0.100
710.500	-5.026	0.100
710.600	-12.091	0.100
710.700	-24.650	0.100
710.800	-15.288	0.100
710.900	-8.303	0.100
711.000	-20.280	0.100
711.100	-26.145	0.100
711.200	-7.997	0.100
711.300	-5.044	0.100
711.400	-16.409	0.100
711.500	-12.516	0.100
711.600	-15.715	0.100
711.700	-28.269	0.100
711.800	-13.865	0.100
711.900	-15.454	0.100
712.000	-28.676	0.100
712.100	-13.873	0.100
712.200	-7.634	0.100
712.300	-15.087	0.100
712.400	-19.581	0.100
712.500	-10.615	0.100
712.600	-14.968	0.100
712.700	-18.435	0.100
712.800	-23.605	0.100
712.900	-12.751	0.100
713.000	-18.269	0.100
713.100	-17.833	0.100
713.200	-21.750	0.100
713.300	-17.863	0.100
713.400	-11.524	0.100
713.500	-11.581	0.100
713.600	-19.520	0.100
713.700	-17.387	0.100
713.800	-28.738	0.100
713.900	-20.560	0.100
714.000	-17.437	0.100
714.100	-11.777	0.100
714.200	-20.297	0.100
714.300	-21.488	0.100
714.400	-20.448	0.100
714.500	-26.887	0.100
714.600	-11.398	0.100
714.700	-20.783	0.100
714.800	-15.520	0.100
714.900	-6.658	0.100
715.000	-23.807	0.100
715.100	-20.264	0.100
715.200	-12.898	0.100
715.300	-14.173	0.100
715.400	-22.481	0.100
715.500	-21.205	0.100
715.600	-16.422	0.100
715.700	-17.149	0.100
715.800	-22.720	0.100
715.900	-7.931	0.100
716.000	-16.791	0.100
716.100	-20.962	0.100
716.200	-19.137	0.100
716.300	-35.566	0.100
716.400	-26.437	0.100
716.500	-19.042	0.100
716.600	-11.601	0.100
716.700	-22.776	0.100
716.800	-19.842	0.100
716.900	-14.455	0.100
717.000	-10.491	0.100
717.100	-16.673	0.100
717.200	-19.694	0.100
717.300	-27.212	0.100
717.400	-26.848	0.100
717.500	-9.446	0.100
717.600	-23.031	0.100
717.700	-25.415	0.100
717.800	-17.461	0.100
717.900	-24.973	0.100
718.000	-18.760	0.100
718.100	-13.184	0.100
718.200	-20.808	0.100
718.300	-25.121	0.100
718.400	-23.388	0.100
718.500	-16.832	0.100
718.600	-24.186	0.100
718.700	-29.187	0.100
718.800	-17.311	0.100
718.900	-28.252	0.100
719.000	-25.878	0.100
719.100	-13.055	0.100
719.200	-9.175	0.100
719.300	-25.735	0.100
719.400	-29.525	0.100
719.500	-42.123	0.100
719.600	-26.522	0.100
719.700	-26.479	0.100
719.800	-25.647	0.100
719.900	-8.782	0.100
720.000	-30.667	0.100
720.100	-22.516	0.100
720.200	-28.423	0.100
720.300	-31.952	0.100
720.400	-32.675	0.100
720.500	-29.115	0.100
720.600	-20.217	0.100
720.700	-8.095	0.100
720.800	-35.298	0.100
720.900	-13.409	0.100
721.000	-18.219	0.100
721.100	-24.154	0.100
721.200	-28.962	0.100
721.300	-30.345	0.100
721.400	-24.816	0.100
721.500	-27.301	0.100
721.600	-23.821	0.100
721.700	-16.628	0.100
721.800	-31.033	0.100
721.900	-34.340	0.100
722.000	-30.364	0.100
722.100	-10.382	0.100
722.200	-20.214	0.100
722.300	-32.195	0.100
722.400	-24.732	0.100
722.500	-27.036	0.100
722.600	-30.788	0.100
722.700	-28.006	0.100
722.800	-16.207	0.100
722.900	-24.872	0.100
723.000	-27.348	0.100
723.100	-30.808	0.100
723.200	-23.707	0.100
723.300	-19.100	0.100
723.400	-27.262	0.100
723.500	-0.374	0.100
723.600	-32.930	0.100
723.700	-17.343	0.100
723.800	-11.890	0.100
723.900	-19.902	0.100
724.000	-39.190	0.100
724.100	-36.533	0.100
724.200	-30.595	0.100
724.300	-27.356	0.100
724.400	-30.931	0.100
724.500	-34.752	0.100
724.600	-16.951	0.100
724.700	-31.639	0.100
724.800	-18.851	0.100
724.900	-23.987	0.100
725.000	-35.075	0.100
725.100	-26.416	0.100
725.200	-31.245	0.100
725.300	-19.188	0.100
725.400	-24.240	0.100
725.500	-22.380	0.100
725.600	-33.743	0.100
725.700	-19.726	0.100
725.800	-19.281	0.100
725.900	-23.144	0.100
726.000	-28.095	0.100
726.100	-23.036	0.100
726.200	-32.519	0.100
726.300	-22.657	0.100
726.400	-27.362	0.100
726.500	-27.107	0.100
726.600	-29.427	0.100
726.700	-36.223	0.100
726.800	-30.594	0.100
726.900	-20.336	0.100
727.000	-13.861	0.100
727.100	-31.074	0.100
727.200	-40.008	0.100
727.300	-30.803	0.100
727.400	-23.829	0.100
727.500	-7.906	0.100
727.600	-23.325	0.100
727.700	-29.426	0.100
727.800	-24.159	0.100
727.900	-32.127	0.100
728.000	-27.910	0.100
728.100	-18.600	0.100
728.200	-31.725	0.100
728.300	-22.370	0.100
728.400	-32.520	0.100
728.500	-37.640	0.100
728.600	-33.844	0.100
728.700	-23.627	0.100
728.800	-9.478	0.100
728.900	-30.129	0.100
729.000	-25.533	0.100
729.100	-23.919	0.100
729.200	-37.111	0.100
729.300	-28.055	0.100
729.400	-39.291	0.100
729.500	-27.869	0.100
729.600	-29.557	0.100
729.700	-23.582	0.100
729.800	-22.674	0.100
729.900	-36.208	0.100
730.000	-18.771	0.100
730.100	-23.380	0.100
730.200	-20.519	0.100
730.300	-34.683	0.100
730.400	-34.338	0.100
730.500	-34.008	0.100
730.600	-32.389	0.100
730.700	-34.132	0.100
730.800	-22.204	0.100
730.900	-26.357	0.100
731.000	-18.793	0.100
731.100	-19.620	0.100
731.200	-34.341	0.100
731.300	-31.652	0.100
731.400	-25.511	0.100
731.500	-21.617	0.100
731.600	-24.082	0.100
731.700	-37.048	0.100
731.800	-27.310	0.100
731.900	-27.396	0.100
732.000	-32.028	0.100
732.100	-30.961	0.100
732.200	-30.316	0.100
732.300	-20.545	0.100
732.400	-25.479	0.100
732.500	-31.654	0.100
732.600	-30.452	0.100
732.700	-24.798	0.100
732.800	-31.643	0.100
732.900	-22.052	0.100
733.000	-23.462	0.100
733.100	-22.037	0.100
733.200	-28.332	0.100
733.300	-13.616	0.100
733.400	-29.219	0.100
733.500	-39.182	0.100
733.600	-32.370	0.100
733.700	-26.412	0.100
733.800	-26.548	0.100
733.900	-27.155	0.100
734.000	-28.971	0.100
734.100	-35.402	0.100
734.200	-35.565	0.100
734.300	-38.818	0.100
734.400	-20.802	0.100
734.500	-23.651	0.100
734.600	-24.509	0.100
734.700	-33.735	0.100
734.800	-15.319	0.100
734.900	-32.972	0.100
735.000	-28.366	0.100
735.100	-24.937	0.100
735.200	-25.475	0.100
735.300	-28.510	0.100
735.400	-35.639	0.100
735.500	-30.414	0.100
735.600	-36.515	0.100
735.700	-21.023	0.100
735.800	-23.810	0.100
735.900	-35.256	0.100
736.000	-26.163	0.100
736.100	-13.952	0.100
736.200	-15.567	0.100
736.300	-20.148	0.100
736.400	-29.280	0.100
736.500	-17.242	0.100
736.600	-33.276	0.100
736.700	-40.510	0.100
736.800	-31.481	0.100
736.900	-28.519	0.100
737.000	-28.368	0.100
737.100	-39.159	0.100
737.200	-30.730	0.100
737.300	-24.629	0.100
737.400	-16.674	0.100
737.500	-30.288	0.100
737.600	-30.246	0.100
737.700	-25.835	0.100
737.800	-21.243	0.100
737.900	-18.207	0.100
738.000	-21.415	0.100
738.100	-30.481	0.100
738.200	-25.789	0.100
738.300	-25.101	0.100
738.400	-27.310	0.100
738.500	-16.004	0.100
738.600	-24.950	0.100
738.700	-30.522	0.100
738.800	-33.171	0.100
738.900	-15.998	0.100
739.000	-30.842	0.100
739.100	-33.360	0.100
739.200	-46.892	0.100
739.300	-19.141	0.100
739.400	-18.801	0.100
739.500	-23.407	0.100
739.600	-29.595	0.100
739.700	-36.988	0.100
739.800	-21.395	0.100
739.900	-20.003	0.100
740.000	-33.310	0.100
740.100	-18.805	0.100
740.200	-23.440	0.100
740.300	-30.249	0.100
740.400	-26.767	0.100
740.500	-28.507	0.100
740.600	-27.573	0.100
740.700	-24.790	0.100
740.800	-27.438	0.100
740.900	-22.729	0.100
741.000	-25.645	0.100
741.100	-24.674	0.100
741.200	-27.153	0.100
741.300	-38.146	0.100
741.400	-29.073	0.100
741.500	-30.300	0.100
741.600	-25.334	0.100
741.700	-31.553	0.100
741.800	-19.926	0.100
741.900	-36.877	0.100
742.000	-30.638	0.100
742.100	-17.498	0.100
742.200	-36.817	0.100
742.300	-34.308	0.100
742.400	-22.252	0.100
742.500	-26.757	0.100
742.600	-22.637	0.100
742.700	-37.591	0.100
742.800	-23.965	0.100
742.900	-25.667	0.100
743.000	-26.205	0.100
743.100	-34.400	0.100
743.200	-43.576	0.100
743.300	-25.136	0.100
743.400	-15.565	0.100
743.500	-20.045	0.100
743.600	-17.667	0.100
743.700	-28.176	0.100
743.800	-33.284	0.100
743.900	-24.616	0.100
744.000	-23.061	0.100
744.100	-37.501	0.100
744.200	-26.808	0.100
744.300	-32.193	0.100
744.400	-25.147	0.100
744.500	-31.117	0.100
744.600	-17.142	0.100
744.700	-21.430	0.100
744.800	-28.243	0.100
744.900	-26.327	0.100
745.000	-26.770	0.100
745.100	-19.744	0.100
745.200	-30.119	0.100
745.300	-17.223	0.100
745.400	-30.402	0.100
745.500	-24.882	0.100
745.600	-20.203	0.100
745.700	-22.817	0.100
745.800	-29.351	0.100
745.900	-31.757	0.100
746.000	-34.217	0.100
746.100	-22.613	0.100
746.200	-25.484	0.100
746.300	-36.619	0.100
746.400	-18.715	0.100
746.500	-31.969	0.100
746.600	-25.058	0.100
746.700	-19.848	0.100
746.800	-23.198	0.100
746.900	-28.123	0.100
747.000	-34.628	0.100
747.100	-25.350	0.100
747.200	-26.607	0.100
747.300	-36.161	0.100
747.400	-31.531	0.100
747.500	-41.277	0.100
747.600	-14.981	0.100
747.700	-23.453	0.100
747.800	-29.448	0.100
747.900	-24.470	0.100
748.000	-15.375	0.100
748.100	-20.658	0.100
748.200	-38.838	0.100
748.300	-25.764	0.100
748.400	-34.454	0.100
748.500	-11.015	0.100
748.600	-33.082	0.100
748.700	-12.364	0.100
748.800	-22.712	0.100
748.900	-20.212	0.100
749.000	-20.692	0.100
749.100	-32.066	0.100
749.200	-22.975	0.100
749.300	-33.572	0.100
749.400	-28.301	0.100
749.500	-20.166	0.100
749.600	-21.274	0.100
749.700	-24.058	0.100
749.800	-28.752	0.100
749.900	-20.048	0.100
750.000	-27.784	0.100
750.100	-24.499	0.100
750.200	-27.466	0.100
750.300	-27.617	0.100
750.400	-32.363	0.100
750.500	-35.479	0.100
750.600	-29.121	0.100
750.700	-20.342	0.100
750.800	-34.701	0.100
750.900	-23.999	0.100
751.000	-18.726	0.100
751.100	-24.255	0.100
751.200	-25.540	0.100
751.300	-28.842	0.100
751.400	-30.453	0.100
751.500	-28.152	0.100
751.600	-20.931	0.100
751.700	-43.046	0.100
751.800	-21.588	0.100
751.900	-14.040	0.100
752.000	-17.854	0.100
752.100	-30.591	0.100
752.200	-26.964	0.100
752.300	-40.579	0.100
752.400	-36.515	0.100
752.500	-18.577	0.100
752.600	-1.298	0.100
752.700	-36.837	0.100
752.800	-28.146	0.100
752.900	-10.512	0.100
753.000	-23.527	0.100
753.100	-28.262	0.100
753.200	-31.216	0.100
753.300	-33.702	0.100
753.400	-18.704	0.100
753.500	-15.765	0.100
753.600	-21.785	0.100
753.700	-28.395	0.100
753.800	-29.665	0.100
753.900	-34.177	0.100
754.000	-31.330	0.100
754.100	-24.779	0.100
754.200	-26.270	0.100
754.300	-20.944	0.100
754.400	-11.036	0.100
754.500	-19.541	0.100
754.600	-22.111	0.100
754.700	-40.728	0.100
754.800	-14.728	0.100
754.900	-28.876	0.100
755.000	-27.079	0.100
755.100	-32.770	0.100
755.200	-18.282	0.100
755.300	-13.260	0.100
755.400	-25.601	0.100
755.500	-33.028	0.100
755.600	-23.562	0.100
755.700	-27.738	0.100
755.800	-27.173	0.100
755.900	-27.452	0.100
756.000	-20.005	0.100
756.100	-7.884	0.100
756.200	-25.755	0.100
756.300	-35.420	0.100
756.400	-30.685	0.100
756.500	-25.477	0.100
756.600	-35.291	0.100
756.700	-28.413	0.100
756.800	-18.539	0.100
756.900	-17.748	0.100
757.000	-20.874	0.100
757.100	-23.741	0.100
757.200	-19.159	0.100
757.300	-27.384	0.100
757.400	-27.670	0.100
757.500	-24.566	0.100
757.600	-20.824	0.100
757.700	-22.648	0.100
757.800	-25.214	0.100
757.900	-36.222	0.100
758.000	-35.130	0.100
758.100	-27.534	0.100
758.200	-27.161	0.100
758.300	-31.502	0.100
758.400	-18.707	0.100
758.500	-30.433	0.100
758.600	-30.458	0.100
758.700	-19.588	0.100
758.800	-28.732	0.100
758.900	-23.487	0.100
759.000	-23.869	0.100
759.100	-18.209	0.100
759.200	-27.573	0.100
759.300	-24.311	0.100
759.400	-16.957	0.100
759.500	-21.771	0.100
759.600	-23.977	0.100
759.700	-20.630	0.100
759.800	-24.219	0.100
759.900	-29.340	0.100
760.000	-21.707	0.100
760.100	-50.248	0.100
760.200	-22.233	0.100
760.300	-27.471	0.100
760.400	-25.998	0.100
760.500	-22.823	0.100
760.600	-26.791	0.100
760.700	-19.099	0.100
760.800	-16.944	0.100
760.900	-35.233	0.100
761.000	-32.503	0.100
761.100	-35.720	0.100
761.200	-30.816	0.100
761.300	-40.478	0.100
761.400	-16.391	0.100
761.500	-22.244	0.100
761.600	-14.662	0.100
761.700	-19.981	0.100
761.800	-18.659	0.100
761.900	-16.932	0.100
762.000	-28.651	0.100
762.100	-24.923	0.100
762.200	-26.464	0.100
762.300	-27.280	0.100
762.400	-29.073	0.100
762.500	-21.493	0.100
762.600	-22.362	0.100
762.700	-22.678	0.100
762.800	-22.832	0.100
762.900	-23.127	0.100
763.000	-21.334	0.100
763.100	-18.823	0.100
763.200	-20.523	0.100
763.300	-31.296	0.100
763.400	-15.023	0.100
763.500	-25.379	0.100
763.600	-21.831	0.100
763.700	-28.034	0.100
763.800	-22.014	0.100
763.900	-32.268	0.100
764.000	-28.339	0.100
764.100	-42.064	0.100
764.200	-23.245	0.100
764.300	-24.355	0.100
764.400	-21.511	0.100
764.500	-25.536	0.100
764.600	-18.689	0.100
764.700	-25.811	0.100
764.800	-22.572	0.100
764.900	-26.462	0.100
765.000	-33.285	0.100
765.100	-28.608	0.100
765.200	-27.109	0.100
765.300	-27.888	0.100
765.400	-23.341	0.100
765.500	-30.769	0.100
765.600	-19.510	0.100
765.700	-21.389	0.100
765.800	-17.450	0.100
765.900	-17.845	0.100
766.000	-15.842	0.100
766.100	-26.699	0.100
766.200	-20.970	0.100
766.300	-22.622	0.100
766.400	-7.095	0.100
766.500	-14.333	0.100
766.600	-11.586	0.100
766.700	-23.866	0.100
766.800	-24.104	0.100
766.900	-32.232	0.100
767.000	-24.115	0.100
767.100	-30.128	0.100
767.200	-24.998	0.100
767.300	-21.518	0.100
767.400	-21.257	0.100
767.500	-21.691	0.100
767.600	-20.644	0.100
767.700	-27.795	0.100
767.800	-24.974	0.100
767.900	-32.806	0.100
768.000	-27.534	0.100
768.100	-18.835	0.100
768.200	-23.824	0.100
768.300	-35.389	0.100
768.400	-29.759	0.100
768.500	-8.183	0.100
768.600	-23.550	0.100
768.700	-26.980	0.100
768.800	-22.478	0.100
768.900	-19.747	0.100
769.000	-19.885	0.100
769.100	-14.742	0.100
769.200	-18.407	0.100
769.300	-29.487	0.100
769.400	-27.603	0.100
769.500	-23.728	0.100
769.600	-35.238	0.100
769.700	-23.831	0.100
769.800	-21.084	0.100
769.900	-19.817	0.100
770.000	-22.174	0.100
770.100	-18.406	0.100
770.200	-21.417	0.100
770.300	-16.071	0.100
770.400	-27.197	0.100
770.500	-22.732	0.100
770.600	-22.451	0.100
770.700	-25.211	0.100
770.800	-35.649	0.100
770.900	-6.507	0.100
771.000	-44.390	0.100
771.100	-17.630	0.100
771.200	-24.040	0.100
771.300	-21.842	0.100
771.400	-29.871	0.100
771.500	-26.813	0.100
771.600	-13.014	0.100
771.700	-32.357	0.100
771.800	-20.036	0.100
771.900	-19.070	0.100
772.000	-23.718	0.100
772.100	-17.297	0.100
772.200	-25.430	0.100
772.300	-22.993	0.100
772.400	-12.146	0.100
772.500	-21.003	0.100
772.600	-18.531	0.100
772.700	-21.930	0.100
772.800	-32.354	0.100
772.900	-25.356	0.100
773.000	-21.019	0.100
773.100	-8.627	0.100
773.200	-6.651	0.100
773.300	-20.359	0.100
773.400	-17.698	0.100
773.500	-30.689	0.100
773.600	-27.548	0.100
773.700	-26.781	0.100
773.800	-17.302	0.100
773.900	-36.351	0.100
774.000	-31.076	0.100
774.100	-7.406	0.100
774.200	-12.884	0.100
774.300	-25.259	0.100
774.400	-34.404	0.100
774.500	-12.083	0.100
774.600	-23.974	0.100
774.700	-9.370	0.100
774.800	-18.301	0.100
774.900	-23.839	0.100
775.000	-29.988	0.100
775.100	-21.748	0.100
775.200	-27.155	0.100
775.300	-27.099	0.100
775.400	-34.949	0.100
775.500	-23.849	0.100
775.600	-8.076	0.100
775.700	-10.630	0.100
775.800	-31.042	0.100
775.900	-34.672	0.100
776.000	-14.932	0.100
776.100	-22.905	0.100
776.200	-21.003	0.100
776.300	-25.866	0.100
776.400	-23.708	0.100
776.500	-21.727	0.100
776.600	-37.535	0.100
776.700	-26.829	0.100
776.800	-2.565	0.100
776.900	-21.426	0.100
777.000	-24.416	0.100
777.100	-23.133	0.100
777.200	-14.175	0.100
777.300	-17.950	0.100
777.400	-18.572	0.100
777.500	-27.395	0.100
777.600	-13.629	0.100
777.700	-27.447	0.100
777.800	-15.814	0.100
777.900	-24.244	0.100
778.000	-27.569	0.100
778.100	-31.674	0.100
778.200	-25.579	0.100
778.300	-20.086	0.100
778.400	-22.249	0.100
778.500	-17.589	0.100
778.600	-18.154	0.100
778.700	-23.414	0.100
778.800	-37.267	0.100
778.900	-29.021	0.100
779.000	-17.395	0.100
779.100	-20.168	0.100
779.200	-21.664	0.100
779.300	-18.884	0.100
779.400	-27.112	0.100
779.500	-38.028	0.100
779.600	-15.148	0.100
779.700	-7.570	0.100
779.800	-28.326	0.100
779.900	-23.834	0.100
780.000	-12.893	0.100
780.100	-19.610	0.100
780.200	-14.580	0.100
780.300	-20.746	0.100
780.400	-41.709	0.100
780.500	-14.228	0.100
780.600	-18.755	0.100
780.700	-11.839	0.100
780.800	-11.661	0.100
780.900	-20.837	0.100
781.000	-19.036	0.100
781.100	-9.814	0.100
781.200	-8.958	0.100
781.300	-11.747	0.100
781.400	-6.771	0.100
781.500	-18.180	0.100
781.600	14.652	0.100
781.700	-4.261	0.100
781.800	-6.133	0.100
781.900	-1.684	0.100
782.000	-9.252	0.100
782.100	1.278	0.100
782.200	6.202	0.100
782.300	8.560	0.100
782.400	10.650	0.100
782.500	6.387	0.100
782.600	8.311	0.100
782.700	12.869	0.100
782.800	1.070	0.100
782.900	9.158	0.100
783.000	3.965	0.100
783.100	10.442	0.100
783.200	-1.791	0.100
783.300	12.430	0.100
783.400	18.765	0.100
783.500	21.880	0.100
783.600	14.140	0.100
783.700	14.771	0.100
783.800	16.279	0.100
783.900	8.644	0.100
784.000	23.887	0.100
784.100	14.213	0.100
784.200	13.177	0.100
784.300	10.490	0.100
784.400	12.773	0.100
784.500	10.537	0.100
784.600	23.963	0.100
784.700	9.910	0.100
784.800	21.614	0.100
784.900	12.467	0.100
785.000	12.404	0.100
785.100	5.015	0.100
785.200	15.125	0.100
785.300	7.439	0.100
785.400	10.431	0.100
785.500	6.839	0.100
785.600	24.421	0.100
785.700	3.658	0.100
785.800	14.323	0.100
785.900	11.868	0.100
786.000	24.544	0.100
786.100	23.090	0.100
786.200	6.399	0.100
786.300	8.109	0.100
786.400	11.231	0.100
786.500	8.116	0.100
786.600	8.808	0.100
786.700	4.410	0.100
786.800	18.945	0.100
786.900	23.271	0.100
787.000	14.558	0.100
787.100	3.740	0.100
787.200	9.150	0.100
787.300	7.249	0.100
787.400	9.520	0.100
787.500	2.077	0.100
787.600	18.705	0.100
787.700	25.378	0.100
787.800	3.894	0.100
787.900	17.667	0.100
788.000	7.697	0.100
788.100	18.080	0.100
788.200	9.179	0.100
788.300	15.770	0.100
788.400	-6.448	0.100
788.500	14.727	0.100
788.600	19.764	0.100
788.700	7.244	0.100
788.800	0.200	0.100
788.900	3.807	0.100
789.000	21.327	0.100
789.100	4.496	0.100
789.200	11.674	0.100
789.300	16.095	0.100
789.400	13.550	0.100
789.500	4.238	0.100
789.600	17.745	0.100
789.700	8.655	0.100
789.800	13.004	0.100
789.900	21.190	0.100
790.000	11.069	0.100
