time /s	I /nA	E /V
0.100	-26.263	0.100
0.200	-26.894	0.100
0.300	-10.217	0.100
0.400	-13.043	0.100
0.500	-21.110	0.100
0.600	-29.751	0.100
0.700	-10.335	0.100
0.800	-13.907	0.100
0.900	-22.228	0.100
1.000	-15.830	0.100
1.100	-25.758	0.100
1.200	-24.478	0.100
1.300	-18.355	0.100
1.400	-27.456	0.100
1.500	-10.981	0.100
1.600	-17.628	0.100
1.700	-16.223	0.100
1.800	-24.274	0.100
1.900	-25.873	0.100
2.000	-27.544	0.100
2.100	-21.166	0.100
2.200	-31.764	0.100
2.300	-32.733	0.100
2.400	-23.820	0.100
2.500	-28.290	0.100
2.600	-19.094	0.100
2.700	-30.213	0.100
2.800	-27.300	0.100
2.900	-20.919	0.100
3.000	-18.165	0.100
3.100	-13.073	0.100
3.200	-28.603	0.100
3.300	-24.188	0.100
3.400	-41.368	0.100
3.500	-38.957	0.100
3.600	-3.129	0.100
3.700	-25.523	0.100
3.800	-26.670	0.100
3.900	-13.175	0.100
4.000	-12.023	0.100
4.100	-21.985	0.100
4.200	-21.521	0.100
4.300	-15.593	0.100
4.400	-23.760	0.100
4.500	-16.599	0.100
4.600	-34.610	0.100
4.700	-15.296	0.100
4.800	-21.461	0.100
4.900	-14.114	0.100
5.000	-19.454	0.100
5.100	-23.632	0.100
5.200	-24.133	0.100
5.300	-27.683	0.100
5.400	-25.943	0.100
5.500	-16.391	0.100
5.600	-31.166	0.100
5.700	-18.997	0.100
5.800	-21.338	0.100
5.900	-25.521	0.100
6.000	-25.698	0.100
6.100	-19.739	0.100
6.200	-17.835	0.100
6.300	-15.800	0.100
6.400	-20.100	0.100
6.500	-38.010	0.100
6.600	-18.689	0.100
6.700	-15.485	0.100
6.800	-21.315	0.100
6.900	-19.043	0.100
7.000	-11.698	0.100
7.100	-31.549	0.100
7.200	-23.110	0.100
7.300	-18.715	0.100
7.400	-21.470	0.100
7.500	-31.198	0.100
7.600	-23.410	0.100
7.700	-14.637	0.100
7.800	-31.506	0.100
7.900	-22.328	0.100
8.000	-27.774	0.100
8.100	-21.006	0.100
8.200	-16.023	0.100
8.300	-23.103	0.100
8.400	-26.315	0.100
8.500	-21.801	0.100
8.600	-30.133	0.100
8.700	-11.271	0.100
8.800	-22.437	0.100
8.900	-17.813	0.100
9.000	-28.806	0.100
9.100	-19.051	0.100
9.200	-20.705	0.100
9.300	-32.330	0.100
9.400	-31.130	0.100
9.500	-24.052	0.100
9.600	-11.077	0.100
9.700	-18.323	0.100
9.800	-16.317	0.100
9.900	-27.509	0.100
10.000	-12.582	0.100
10.100	-13.227	0.100
10.200	-9.291	0.100
10.300	-44.564	0.100
10.400	-24.117	0.100
10.500	-19.142	0.100
10.600	-18.388	0.100
10.700	-40.133	0.100
10.800	-27.301	0.100
10.900	-30.202	0.100
11.000	-16.334	0.100
11.100	-10.374	0.100
11.200	-31.116	0.100
11.300	-18.314	0.100
11.400	-15.300	0.100
11.500	-24.825	0.100
11.600	-14.094	0.100
11.700	-21.426	0.100
11.800	-20.511	0.100
11.900	-15.256	0.100
12.000	-15.896	0.100
12.100	-23.806	0.100
12.200	-16.978	0.100
12.300	-23.650	0.100
12.400	-24.878	0.100
12.500	-21.259	0.100
12.600	-17.013	0.100
12.700	-21.736	0.100
12.800	-12.349	0.100
12.900	-27.695	0.100
13.000	-13.624	0.100
13.100	-22.270	0.100
13.200	-22.710	0.099
13.300	-24.371	0.099
13.400	-29.736	0.100
13.500	-35.598	0.099
13.600	-16.638	0.099
13.700	-25.513	0.099
13.800	-14.982	0.099
13.900	-26.402	0.099
14.000	-34.197	0.099
14.100	-13.439	0.099
14.200	-29.497	0.099
14.300	-17.453	0.099
14.400	-21.037	0.099
14.500	-17.440	0.099
14.600	-25.361	0.099
14.700	-21.445	0.099
14.800	-19.909	0.099
14.900	-29.498	0.099
15.000	-20.813	0.099
15.100	-20.495	0.099
15.200	-14.910	0.099
15.300	-28.206	0.099
15.400	-14.170	0.099
15.500	-16.971	0.099
15.600	-28.955	0.099
15.700	-19.282	0.099
15.800	-37.428	0.099
15.900	-20.241	0.099
16.000	-17.831	0.099
16.100	-28.682	0.099
16.200	-23.453	0.099
16.300	-16.957	0.099
16.400	-22.593	0.099
16.500	-19.741	0.099
16.600	-16.857	0.099
16.700	-23.407	0.099
16.800	-14.761	0.099
16.900	-24.527	0.099
17.000	-16.650	0.099
17.100	-11.168	0.099
17.200	-7.444	0.099
17.300	-17.460	0.099
17.400	-24.442	0.099
17.500	-22.974	0.099
17.600	-31.251	0.099
17.700	-21.350	0.099
17.800	-12.977	0.099
17.900	-22.848	0.099
18.000	-25.033	0.099
18.100	-25.125	0.099
18.200	-22.811	0.099
18.300	-26.128	0.099
18.400	-10.364	0.099
18.500	-18.753	0.099
18.600	-11.741	0.099
18.700	-32.387	0.099
18.800	-19.876	0.099
18.900	-19.243	0.099
19.000	-19.566	0.099
19.100	-14.593	0.099
19.200	-21.511	0.099
19.300	-10.798	0.099
19.400	-24.090	0.099
19.500	-11.964	0.099
19.600	-23.980	0.099
19.700	-18.667	0.099
19.800	-29.394	0.099
19.900	-8.849	0.099
20.000	-18.560	0.099
20.100	-27.028	0.099
20.200	-32.195	0.099
20.300	-30.120	0.099
20.400	-27.635	0.099
20.500	-16.345	0.099
20.600	2.366	0.099
20.700	-20.704	0.099
20.800	-22.706	0.099
20.900	-9.954	0.099
21.000	-21.270	0.099
21.100	-11.960	0.099
21.200	-23.411	0.099
21.300	-28.923	0.099
21.400	-16.526	0.099
21.500	-15.409	0.099
21.600	-22.737	0.099
21.700	-14.594	0.099
21.800	-33.383	0.099
21.900	-11.103	0.099
22.000	-27.033	0.099
22.100	-23.167	0.099
22.200	-24.449	0.099
22.300	-24.545	0.099
22.400	-17.826	0.099
22.500	-15.108	0.099
22.600	-15.997	0.099
22.700	-19.170	0.099
22.800	-8.905	0.099
22.900	-26.615	0.099
23.000	-30.509	0.099
23.100	-28.073	0.099
23.200	-6.637	0.099
23.300	-19.542	0.099
23.400	-19.011	0.099
23.500	-8.411	0.099
23.600	-19.827	0.099
23.700	-36.311	0.099
23.800	-17.885	0.099
23.900	-36.086	0.099
24.000	-16.710	0.099
24.100	-13.882	0.099
24.200	-24.003	0.099
24.300	-12.694	0.099
24.400	-6.365	0.099
24.500	-19.525	0.099
24.600	-23.792	0.099
24.700	-28.450	0.099
24.800	-23.586	0.099
24.900	-14.930	0.099
25.000	-23.535	0.099
25.100	-11.949	0.099
25.200	-27.373	0.099
25.300	-18.073	0.099
25.400	-17.691	0.099
25.500	-18.833	0.099
25.600	-31.577	0.099
25.700	-29.866	0.099
25.800	-32.793	0.099
25.900	-9.442	0.099
26.000	-18.527	0.099
26.100	-19.025	0.099
26.200	-27.035	0.099
26.300	-25.661	0.099
26.400	-14.416	0.099
26.500	-23.095	0.099
26.600	-21.819	0.099
26.700	-25.616	0.099
26.800	-23.757	0.099
26.900	-24.511	0.099
27.000	-24.965	0.099
27.100	-15.625	0.099
27.200	-10.830	0.099
27.300	-25.307	0.099
27.400	-32.882	0.099
27.500	-34.260	0.099
27.600	-15.958	0.099
27.700	-10.564	0.099
27.800	-20.801	0.099
27.900	-21.781	0.099
28.000	-20.232	0.099
28.100	-18.182	0.099
28.200	-21.663	0.099
28.300	-19.585	0.099
28.400	-18.984	0.099
28.500	-22.260	0.099
28.600	-19.449	0.099
28.700	-15.808	0.099
28.800	-32.559	0.099
28.900	-18.742	0.099
29.000	-24.322	0.099
29.100	-24.475	0.099
29.200	-7.919	0.099
29.300	-27.513	0.099
29.400	-30.201	0.099
29.500	-29.832	0.099
29.600	-15.592	0.099
29.700	-18.572	0.100
29.800	-29.099	0.100
29.900	-15.388	0.100
30.000	-12.925	0.100
30.100	6.174	0.100
30.200	7.814	0.100
30.300	2.577	0.100
30.400	6.936	0.100
30.500	17.992	0.100
30.600	27.324	0.100
30.700	19.312	0.100
30.800	25.128	0.100
30.900	13.689	0.100
31.000	40.724	0.100
31.100	40.212	0.100
31.200	22.340	0.100
31.300	16.205	0.100
31.400	29.954	0.100
31.500	30.768	0.100
31.600	17.800	0.100
31.700	30.807	0.100
31.800	17.684	0.100
31.900	27.952	0.100
32.000	18.596	0.100
32.100	24.699	0.100
32.200	25.036	0.100
32.300	22.474	0.100
32.400	15.079	0.100
32.500	25.927	0.100
32.600	31.997	0.100
32.700	26.709	0.100
32.800	22.671	0.100
32.900	21.064	0.100
33.000	22.920	0.100
33.100	19.236	0.100
33.200	2.163	0.100
33.300	19.667	0.100
33.400	16.500	0.100
33.500	15.062	0.100
33.600	16.386	0.100
33.700	27.778	0.100
33.800	8.317	0.100
33.900	28.405	0.100
34.000	11.850	0.100
34.100	10.813	0.100
34.200	18.454	0.100
34.300	13.700	0.100
34.400	14.175	0.100
34.500	10.524	0.100
34.600	22.261	0.100
34.700	14.554	0.100
34.800	8.317	0.100
34.900	15.587	0.100
35.000	28.181	0.100
35.100	18.444	0.100
35.200	8.797	0.100
35.300	9.482	0.100
35.400	8.462	0.100
35.500	11.402	0.100
35.600	20.518	0.100
35.700	19.560	0.100
35.800	13.877	0.100
35.900	19.931	0.100
36.000	17.221	0.100
36.100	7.194	0.100
36.200	11.647	0.100
36.300	18.266	0.100
36.400	15.461	0.100
36.500	7.003	0.100
36.600	13.989	0.100
36.700	17.568	0.100
36.800	7.318	0.100
36.900	9.189	0.100
37.000	16.410	0.100
37.100	24.384	0.100
37.200	19.187	0.100
37.300	23.224	0.100
37.400	12.348	0.100
37.500	19.659	0.100
37.600	17.427	0.100
37.700	13.618	0.100
37.800	23.539	0.100
37.900	8.117	0.100
38.000	17.648	0.100
38.100	17.734	0.100
38.200	18.029	0.100
38.300	24.646	0.100
38.400	5.304	0.100
38.500	27.197	0.100
38.600	21.834	0.100
38.700	7.303	0.100
38.800	9.765	0.100
38.900	11.720	0.100
39.000	15.268	0.100
39.100	12.910	0.100
39.200	38.442	0.100
39.300	26.007	0.100
39.400	29.419	0.100
39.500	13.015	0.100
39.600	31.314	0.100
39.700	24.566	0.100
39.800	14.411	0.100
39.900	15.880	0.100
40.000	17.166	0.100
40.100	15.089	0.100
40.200	17.334	0.100
40.300	25.421	0.100
40.400	10.109	0.100
40.500	27.003	0.100
40.600	38.545	0.100
40.700	14.495	0.100
40.800	25.740	0.100
40.900	22.906	0.100
41.000	8.203	0.100
41.100	20.968	0.100
41.200	21.271	0.100
41.300	35.106	0.100
41.400	11.004	0.100
41.500	21.468	0.100
41.600	26.978	0.100
41.700	18.496	0.100
41.800	26.731	0.100
41.900	27.361	0.100
42.000	28.102	0.100
42.100	17.023	0.100
42.200	14.513	0.100
42.300	30.158	0.100
42.400	21.183	0.100
42.500	26.605	0.100
42.600	14.072	0.100
42.700	25.091	0.100
42.800	16.560	0.100
42.900	21.419	0.100
43.000	24.938	0.100
43.100	17.168	0.100
43.200	27.919	0.100
43.300	21.959	0.100
43.400	20.695	0.100
43.500	38.625	0.100
43.600	19.661	0.100
43.700	27.882	0.100
43.800	20.549	0.100
43.900	20.845	0.100
44.000	33.856	0.100
44.100	22.429	0.100
44.200	28.378	0.100
44.300	18.469	0.100
44.400	23.460	0.100
44.500	19.642	0.100
44.600	32.201	0.100
44.700	16.163	0.100
44.800	15.892	0.100
44.900	31.504	0.100
45.000	27.398	0.100
45.100	16.725	0.100
45.200	30.231	0.100
45.300	25.663	0.100
45.400	25.985	0.100
45.500	30.057	0.100
45.600	25.545	0.100
45.700	25.078	0.100
45.800	24.747	0.100
45.900	37.874	0.100
46.000	21.056	0.100
46.100	31.729	0.100
46.200	17.897	0.100
46.300	36.258	0.100
46.400	23.687	0.100
46.500	28.036	0.100
46.600	24.592	0.100
46.700	18.959	0.100
46.800	19.748	0.100
46.900	34.854	0.100
47.000	26.020	0.100
47.100	30.047	0.100
47.200	31.180	0.100
47.300	38.997	0.100
47.400	30.720	0.100
47.500	31.606	0.100
47.600	31.187	0.100
47.700	35.622	0.100
47.800	33.193	0.100
47.900	33.434	0.100
48.000	31.006	0.100
48.100	33.613	0.100
48.200	29.399	0.100
48.300	22.806	0.100
48.400	29.199	0.100
48.500	39.665	0.100
48.600	35.956	0.100
48.700	22.817	0.100
48.800	34.003	0.100
48.900	26.582	0.100
49.000	41.115	0.100
49.100	36.497	0.100
49.200	39.500	0.100
49.300	30.968	0.100
49.400	32.717	0.100
49.500	36.223	0.100
49.600	41.019	0.100
49.700	33.380	0.100
49.800	28.823	0.100
49.900	29.745	0.100
50.000	28.989	0.100
50.100	33.912	0.100
50.200	40.361	0.100
50.300	34.778	0.100
50.400	35.426	0.100
50.500	46.029	0.100
50.600	34.109	0.100
50.700	39.060	0.100
50.800	38.768	0.100
50.900	55.358	0.100
51.000	21.919	0.100
51.100	45.522	0.100
51.200	43.446	0.100
51.300	39.241	0.100
51.400	44.785	0.100
51.500	31.030	0.100
51.600	36.453	0.100
51.700	33.662	0.100
51.800	49.978	0.100
51.900	45.477	0.100
52.000	34.162	0.100
52.100	42.095	0.100
52.200	43.568	0.100
52.300	32.195	0.100
52.400	37.013	0.100
52.500	31.852	0.100
52.600	52.815	0.100
52.700	33.800	0.100
52.800	40.476	0.100
52.900	32.935	0.100
53.000	48.980	0.100
53.100	50.312	0.100
53.200	37.448	0.100
53.300	46.391	0.100
53.400	34.755	0.100
53.500	50.133	0.100
53.600	38.043	0.100
53.700	35.107	0.100
53.800	39.427	0.100
53.900	42.529	0.100
54.000	49.081	0.100
54.100	60.130	0.100
54.200	45.956	0.100
54.300	45.351	0.100
54.400	51.977	0.100
54.500	47.151	0.100
54.600	39.809	0.100
54.700	52.138	0.100
54.800	38.327	0.100
54.900	39.121	0.100
55.000	40.171	0.100
55.100	53.965	0.100
55.200	43.007	0.100
55.300	40.521	0.100
55.400	44.533	0.100
55.500	57.842	0.100
55.600	37.823	0.100
55.700	42.700	0.100
55.800	56.903	0.100
55.900	50.032	0.100
56.000	49.376	0.100
56.100	56.406	0.100
56.200	48.847	0.100
56.300	50.131	0.100
56.400	49.871	0.100
56.500	44.393	0.100
56.600	52.889	0.100
56.700	48.831	0.100
56.800	40.468	0.100
56.900	56.753	0.100
57.000	47.155	0.100
57.100	41.559	0.100
57.200	45.345	0.100
57.300	54.952	0.100
57.400	44.273	0.100
57.500	49.383	0.100
57.600	61.148	0.100
57.700	66.057	0.100
57.800	55.975	0.100
57.900	46.790	0.100
58.000	46.600	0.100
58.100	59.584	0.100
58.200	40.936	0.100
58.300	58.434	0.100
58.400	60.372	0.100
58.500	49.463	0.100
58.600	45.070	0.100
58.700	53.470	0.100
58.800	50.920	0.100
58.900	63.185	0.100
59.000	50.118	0.100
59.100	51.100	0.100
59.200	54.799	0.100
59.300	52.174	0.100
59.400	56.567	0.100
59.500	38.023	0.100
59.600	53.837	0.100
59.700	57.742	0.100
59.800	54.730	0.100
59.900	44.856	0.100
60.000	55.625	0.100
60.100	48.476	0.100
60.200	50.958	0.100
60.300	48.997	0.100
60.400	47.236	0.100
60.500	68.799	0.100
60.600	39.076	0.100
60.700	56.726	0.100
60.800	55.333	0.100
60.900	55.880	0.100
61.000	53.825	0.100
61.100	52.610	0.100
61.200	56.453	0.100
61.300	52.376	0.100
61.400	48.657	0.100
61.500	54.070	0.100
61.600	57.247	0.100
61.700	59.831	0.100
61.800	58.496	0.100
61.900	59.585	0.100
62.000	55.344	0.100
62.100	46.911	0.100
62.200	54.810	0.100
62.300	48.343	0.100
62.400	68.446	0.100
62.500	51.132	0.100
62.600	58.941	0.100
62.700	57.497	0.100
62.800	70.838	0.100
62.900	58.455	0.100
63.000	63.727	0.100
63.100	53.077	0.100
63.200	52.393	0.100
63.300	53.862	0.100
63.400	53.631	0.100
63.500	48.931	0.100
63.600	48.800	0.100
63.700	51.594	0.100
63.800	63.268	0.100
63.900	55.176	0.100
64.000	42.967	0.100
64.100	59.112	0.100
64.200	64.832	0.100
64.300	72.025	0.100
64.400	53.785	0.100
64.500	54.609	0.100
64.600	61.022	0.100
64.700	65.554	0.100
64.800	63.789	0.100
64.900	56.126	0.100
65.000	52.721	0.100
65.100	70.169	0.100
65.200	54.606	0.100
65.300	53.029	0.100
65.400	71.459	0.100
65.500	55.516	0.100
65.600	62.081	0.100
65.700	62.498	0.100
65.800	67.001	0.100
65.900	61.912	0.100
66.000	61.226	0.100
66.100	48.570	0.100
66.200	52.395	0.100
66.300	55.816	0.100
66.400	63.140	0.100
66.500	49.770	0.100
66.600	69.875	0.100
66.700	55.848	0.100
66.800	52.413	0.100
66.900	57.471	0.100
67.000	59.557	0.100
67.100	55.571	0.100
67.200	48.143	0.100
67.300	57.216	0.100
67.400	59.422	0.100
67.500	63.562	0.100
67.600	51.105	0.100
67.700	68.172	0.100
67.800	50.612	0.100
67.900	51.769	0.100
68.000	42.743	0.100
68.100	47.852	0.100
68.200	68.422	0.100
68.300	70.439	0.100
68.400	52.140	0.100
68.500	61.171	0.100
68.600	59.485	0.100
68.700	53.824	0.100
68.800	69.661	0.100
68.900	61.319	0.099
69.000	52.430	0.099
69.100	52.806	0.099
69.200	56.117	0.099
69.300	51.763	0.099
69.400	63.810	0.099
69.500	52.093	0.099
69.600	54.297	0.099
69.700	54.355	0.099
69.800	61.005	0.099
69.900	45.296	0.099
70.000	67.354	0.099
70.100	63.675	0.099
70.200	73.573	0.099
70.300	53.286	0.099
70.400	54.016	0.099
70.500	62.074	0.099
70.600	65.226	0.099
70.700	65.786	0.099
70.800	53.137	0.099
70.900	62.448	0.099
71.000	66.350	0.099
71.100	45.156	0.099
71.200	53.662	0.099
71.300	63.663	0.099
71.400	60.910	0.099
71.500	55.390	0.099
71.600	54.491	0.099
71.700	63.589	0.099
71.800	59.114	0.099
71.900	53.984	0.099
72.000	54.820	0.099
72.100	63.503	0.099
72.200	55.128	0.099
72.300	66.087	0.099
72.400	33.848	0.099
72.500	68.812	0.099
72.600	52.002	0.099
72.700	59.728	0.099
72.800	47.571	0.099
72.900	52.602	0.099
73.000	47.565	0.099
73.100	54.928	0.099
73.200	53.478	0.099
73.300	65.123	0.099
73.400	60.360	0.099
73.500	48.232	0.099
73.600	55.783	0.099
73.700	54.152	0.099
73.800	47.193	0.099
73.900	53.411	0.099
74.000	58.807	0.099
74.100	64.112	0.099
74.200	60.261	0.099
74.300	44.555	0.099
74.400	53.628	0.099
74.500	58.060	0.099
74.600	56.443	0.099
74.700	46.916	0.099
74.800	57.053	0.099
74.900	69.042	0.099
75.000	42.913	0.099
75.100	54.983	0.099
75.200	67.245	0.099
75.300	55.121	0.099
75.400	57.373	0.099
75.500	53.169	0.099
75.600	59.737	0.099
75.700	53.479	0.099
75.800	42.106	0.099
75.900	53.524	0.099
76.000	62.744	0.099
76.100	59.062	0.099
76.200	52.788	0.099
76.300	67.872	0.099
76.400	68.169	0.099
76.500	49.925	0.099
76.600	53.696	0.099
76.700	53.156	0.099
76.800	44.599	0.099
76.900	55.156	0.099
77.000	60.537	0.099
77.100	59.627	0.099
77.200	53.151	0.099
77.300	47.896	0.099
77.400	58.330	0.099
77.500	49.256	0.099
77.600	53.829	0.099
77.700	49.495	0.099
77.800	50.198	0.099
77.900	63.925	0.099
78.000	58.607	0.099
78.100	57.169	0.099
78.200	73.801	0.099
78.300	62.815	0.099
78.400	51.169	0.099
78.500	39.746	0.099
78.600	53.594	0.099
78.700	61.814	0.099
78.800	50.067	0.099
78.900	46.174	0.099
79.000	59.204	0.099
79.100	55.668	0.099
79.200	54.618	0.099
79.300	64.227	0.099
79.400	62.771	0.099
79.500	57.062	0.099
79.600	53.071	0.099
79.700	57.027	0.099
79.800	53.932	0.099
79.900	51.557	0.099
80.000	54.971	0.099
80.100	41.171	0.099
80.200	45.458	0.099
80.300	62.584	0.099
80.400	43.646	0.099
80.500	45.044	0.099
80.600	71.090	0.099
80.700	47.928	0.099
80.800	55.667	0.099
80.900	61.085	0.099
81.000	54.059	0.099
81.100	43.215	0.099
81.200	59.076	0.099
81.300	70.408	0.099
81.400	42.557	0.099
81.500	51.645	0.099
81.600	37.419	0.099
81.700	63.755	0.099
81.800	53.003	0.099
81.900	55.390	0.099
82.000	63.281	0.099
82.100	55.865	0.099
82.200	59.430	0.099
82.300	40.807	0.099
82.400	65.020	0.099
82.500	58.786	0.099
82.600	51.395	0.099
82.700	42.804	0.099
82.800	39.283	0.099
82.900	59.238	0.099
83.000	57.839	0.099
83.100	55.912	0.099
83.200	46.914	0.099
83.300	54.467	0.099
83.400	51.346	0.099
83.500	57.247	0.099
83.600	60.102	0.099
83.700	58.652	0.099
83.800	54.843	0.099
83.900	58.165	0.099
84.000	52.408	0.099
84.100	53.373	0.099
84.200	68.465	0.099
84.300	61.029	0.099
84.400	52.731	0.099
84.500	56.758	0.099
84.600	42.443	0.099
84.700	57.782	0.099
84.800	47.556	0.099
84.900	56.735	0.099
85.000	59.777	0.099
85.100	53.327	0.099
85.200	59.133	0.099
85.300	54.204	0.099
85.400	53.814	0.099
85.500	51.848	0.099
85.600	57.198	0.099
85.700	56.882	0.099
85.800	51.452	0.099
85.900	52.556	0.099
86.000	50.020	0.099
86.100	49.678	0.099
86.200	51.062	0.099
86.300	52.484	0.099
86.400	59.346	0.099
86.500	58.053	0.099
86.600	54.586	0.099
86.700	54.540	0.099
86.800	45.024	0.099
86.900	50.857	0.099
87.000	55.674	0.099
87.100	44.438	0.099
87.200	46.335	0.099
87.300	59.867	0.099
87.400	53.584	0.099
87.500	54.974	0.099
87.600	55.043	0.099
87.700	45.687	0.099
87.800	53.873	0.099
87.900	37.798	0.099
88.000	65.064	0.099
88.100	59.502	0.099
88.200	52.431	0.099
88.300	41.554	0.099
88.400	47.911	0.099
88.500	54.241	0.099
88.600	44.049	0.099
88.700	55.113	0.099
88.800	52.276	0.099
88.900	65.762	0.100
89.000	55.989	0.100
89.100	48.758	0.100
89.200	42.210	0.100
89.300	52.098	0.100
89.400	58.673	0.100
89.500	65.844	0.100
89.600	41.182	0.100
89.700	65.012	0.100
89.800	46.673	0.100
89.900	47.645	0.100
90.000	44.181	0.100
90.100	48.233	0.100
90.200	35.627	0.100
90.300	36.517	0.100
90.400	25.059	0.100
90.500	22.308	0.100
90.600	22.680	0.100
90.700	28.442	0.100
90.800	13.134	0.100
90.900	11.303	0.100
91.000	13.983	0.100
91.100	19.288	0.100
91.200	17.474	0.100
91.300	8.975	0.099
91.400	16.198	0.100
91.500	13.140	0.100
91.600	14.981	0.100
91.700	-0.268	0.100
91.800	-1.941	0.100
91.900	23.247	0.100
92.000	0.960	0.100
92.100	11.996	0.100
92.200	-1.313	0.100
92.300	9.902	0.100
92.400	-4.449	0.100
92.500	1.717	0.100
92.600	14.006	0.100
92.700	-7.758	0.100
92.800	-15.637	0.100
92.900	2.316	0.100
93.000	-11.844	0.099
93.100	5.140	0.100
93.200	-1.012	0.100
93.300	-5.970	0.100
93.400	9.757	0.100
93.500	-15.068	0.100
93.600	-6.193	0.099
93.700	-15.251	0.100
93.800	-6.053	0.100
93.900	-13.241	0.100
94.000	-0.038	0.100
94.100	-10.386	0.100
94.200	-5.019	0.100
94.300	-2.949	0.100
94.400	-10.348	0.100
94.500	-3.783	0.100
94.600	-10.515	0.100
94.700	-17.615	0.100
94.800	-10.076	0.099
94.900	-18.608	0.100
95.000	-5.117	0.100
95.100	-18.181	0.100
95.200	3.601	0.100
95.300	3.323	0.100
95.400	-15.758	0.100
95.500	-4.578	0.100
95.600	-20.073	0.100
95.700	-19.304	0.100
95.800	-22.595	0.100
95.900	-22.546	0.100
96.000	-8.655	0.100
96.100	-7.301	0.100
96.200	-2.532	0.100
96.300	-7.191	0.100
96.400	-20.248	0.100
96.500	-8.061	0.100
96.600	-20.587	0.100
96.700	-9.422	0.100
96.800	-9.652	0.100
96.900	-13.326	0.100
97.000	-19.278	0.100
97.100	-15.511	0.100
97.200	-20.806	0.099
97.300	-8.531	0.100
97.400	-11.055	0.100
97.500	-7.441	0.100
97.600	-9.361	0.100
97.700	-2.580	0.100
97.800	-15.274	0.100
97.900	-24.245	0.100
98.000	-18.605	0.100
98.100	-2.036	0.100
98.200	-5.076	0.100
98.300	-8.472	0.100
98.400	-10.950	0.100
98.500	-11.850	0.100
98.600	-9.429	0.100
98.700	-3.326	0.100
98.800	-11.263	0.100
98.900	-18.814	0.100
99.000	-4.888	0.100
99.100	-7.625	0.100
99.200	-15.796	0.100
99.300	-5.588	0.100
99.400	-26.895	0.100
99.500	-17.813	0.100
99.600	-12.942	0.100
99.700	-0.066	0.100
99.800	-15.300	0.100
99.900	-21.482	0.099
100.000	-10.764	0.099
100.100	-26.206	0.100
100.200	-9.295	0.100
100.300	-9.886	0.100
100.400	-16.803	0.100
100.500	-19.886	0.100
100.600	-18.894	0.100
100.700	-11.794	0.100
100.800	-21.798	0.100
100.900	-8.327	0.100
101.000	-15.223	0.100
101.100	-11.773	0.100
101.200	-19.887	0.100
101.300	-15.377	0.100
101.400	-21.696	0.100
101.500	-9.303	0.100
101.600	-23.006	0.100
101.700	-16.093	0.100
101.800	-9.670	0.100
101.900	-15.851	0.100
102.000	-12.166	0.100
102.100	-4.032	0.100
102.200	-23.895	0.100
102.300	-7.880	0.100
102.400	-26.115	0.100
102.500	-14.539	0.100
102.600	-18.892	0.100
102.700	-19.600	0.100
102.800	-10.206	0.100
102.900	-7.861	0.100
103.000	-11.648	0.100
103.100	1.312	0.100
103.200	-15.977	0.100
103.300	-22.945	0.100
103.400	-21.012	0.100
103.500	-17.768	0.099
103.600	-17.859	0.100
103.700	-6.261	0.100
103.800	-11.029	0.100
103.900	-19.446	0.100
104.000	-13.107	0.100
104.100	-20.019	0.100
104.200	-15.636	0.100
104.300	-21.055	0.100
104.400	-24.387	0.100
104.500	-17.433	0.100
104.600	-26.181	0.099
104.700	-23.006	0.100
104.800	-24.918	0.100
104.900	-11.946	0.100
105.000	-29.834	0.100
105.100	-17.731	0.100
105.200	-11.795	0.100
105.300	-14.056	0.100
105.400	-22.080	0.100
105.500	-29.006	0.100
105.600	-11.821	0.100
105.700	-22.219	0.100
105.800	-17.099	0.100
105.900	-21.196	0.100
106.000	-46.416	0.099
106.100	-16.527	0.100
106.200	-5.448	0.100
106.300	-9.750	0.100
106.400	-33.541	0.100
106.500	-26.110	0.099
106.600	-14.974	0.100
106.700	-15.635	0.100
106.800	-13.835	0.100
106.900	-20.298	0.100
107.000	-19.667	0.100
107.100	-25.790	0.099
107.200	-13.581	0.100
107.300	-10.061	0.100
107.400	-19.054	0.099
107.500	-25.238	0.100
107.600	-20.596	0.100
107.700	-20.666	0.100
107.800	-13.446	0.100
107.900	-35.675	0.099
108.000	-1.680	0.100
108.100	-33.519	0.100
108.200	-12.264	0.100
108.300	-21.755	0.100
108.400	-28.588	0.100
108.500	-26.831	0.100
108.600	-14.323	0.100
108.700	-18.527	0.099
108.800	-25.125	0.100
108.900	-27.920	0.100
109.000	-32.770	0.100
109.100	-16.820	0.100
109.200	-29.963	0.100
109.300	-18.680	0.100
109.400	-13.298	0.100
109.500	-25.666	0.100
109.600	-18.094	0.100
109.700	-33.664	0.100
109.800	-16.600	0.100
109.900	-32.589	0.100
110.000	-33.670	0.100
110.100	-25.176	0.100
110.200	-12.657	0.100
110.300	-22.734	0.100
110.400	-19.443	0.100
110.500	-23.999	0.100
110.600	-40.277	0.100
110.700	-17.318	0.100
110.800	-22.735	0.100
110.900	-7.536	0.100
111.000	-24.500	0.100
111.100	-39.022	0.100
111.200	-16.042	0.100
111.300	-21.362	0.100
111.400	-25.696	0.100
111.500	-17.356	0.100
111.600	-29.275	0.100
111.700	-19.440	0.100
111.800	-18.607	0.099
111.900	-26.985	0.100
112.000	-22.383	0.100
112.100	-16.072	0.100
112.200	-23.302	0.100
112.300	-32.228	0.099
112.400	-33.812	0.099
112.500	-7.484	0.100
112.600	-33.111	0.100
112.700	-41.508	0.100
112.800	-23.031	0.100
112.900	-10.510	0.100
113.000	-19.525	0.100
113.100	-29.057	0.100
113.200	-26.312	0.100
113.300	-22.100	0.100
113.400	-13.896	0.100
113.500	-38.582	0.100
113.600	-29.396	0.099
113.700	-19.228	0.099
113.800	-19.446	0.100
113.900	-43.328	0.099
114.000	-11.007	0.100
114.100	-33.167	0.099
114.200	-22.254	0.100
114.300	-26.989	0.100
114.400	-30.759	0.100
114.500	-31.112	0.099
114.600	-25.612	0.100
114.700	-18.920	0.100
114.800	-12.036	0.100
114.900	-18.096	0.100
115.000	-23.958	0.100
115.100	-39.940	0.100
115.200	-23.826	0.100
115.300	-30.857	0.099
115.400	-21.739	0.099
115.500	-23.845	0.100
115.600	-25.178	0.100
115.700	-25.699	0.099
115.800	-25.577	0.100
115.900	-24.760	0.099
116.000	-39.366	0.100
116.100	-22.254	0.100
116.200	-27.012	0.100
116.300	-28.418	0.100
116.400	-21.962	0.100
116.500	-30.790	0.099
116.600	-15.346	0.100
116.700	-35.147	0.099
116.800	-15.208	0.100
116.900	-13.285	0.100
117.000	-25.996	0.100
117.100	-29.999	0.100
117.200	-28.944	0.100
117.300	-44.143	0.100
117.400	-37.998	0.100
117.500	-19.192	0.100
117.600	-39.090	0.099
117.700	-19.184	0.100
117.800	-23.089	0.100
117.900	-22.813	0.100
118.000	-18.845	0.100
118.100	-16.465	0.100
118.200	-41.034	0.100
118.300	-40.060	0.100
118.400	-21.773	0.100
118.500	-29.320	0.100
118.600	-22.707	0.100
118.700	-28.085	0.100
118.800	-29.678	0.100
118.900	-21.882	0.100
119.000	-24.326	0.100
119.100	-24.843	0.100
119.200	-41.251	0.100
119.300	-4.915	0.100
119.400	-24.757	0.100
119.500	-21.994	0.100
119.600	-35.544	0.100
119.700	-25.508	0.100
119.800	-31.512	0.100
119.900	-31.469	0.099
120.000	-39.857	0.100
120.100	-30.304	0.100
120.200	-18.130	0.100
120.300	-31.637	0.100
120.400	-15.220	0.100
120.500	-23.190	0.100
120.600	-15.807	0.100
120.700	-32.145	0.100
120.800	-33.998	0.100
120.900	-30.443	0.100
121.000	-24.420	0.100
121.100	-26.715	0.100
121.200	-23.404	0.100
121.300	-35.320	0.100
121.400	-42.605	0.100
121.500	-24.792	0.100
121.600	-23.577	0.100
121.700	-37.682	0.100
121.800	-24.194	0.100
121.900	-24.982	0.099
122.000	-31.689	0.100
122.100	-25.117	0.100
122.200	-14.461	0.100
122.300	-24.072	0.100
122.400	-41.165	0.099
122.500	-43.326	0.100
122.600	-25.885	0.099
122.700	-16.007	0.100
122.800	-27.480	0.100
122.900	-16.408	0.100
123.000	-29.914	0.100
123.100	-35.603	0.100
123.200	-31.122	0.100
123.300	-25.175	0.100
123.400	-44.087	0.100
123.500	-31.208	0.100
123.600	-35.212	0.100
123.700	-19.578	0.100
123.800	-27.752	0.100
123.900	-32.400	0.100
124.000	-33.691	0.100
124.100	-22.409	0.100
124.200	-25.010	0.100
124.300	-37.749	0.100
124.400	-32.527	0.099
124.500	-31.304	0.100
124.600	-32.242	0.100
124.700	-19.301	0.099
124.800	-36.130	0.100
124.900	-48.522	0.100
125.000	-34.007	0.099
125.100	-27.047	0.100
125.200	-23.661	0.100
125.300	-36.738	0.100
125.400	-24.860	0.100
125.500	-19.884	0.100
125.600	-28.454	0.100
125.700	-37.948	0.100
125.800	-28.375	0.100
125.900	-32.189	0.100
126.000	-42.687	0.100
126.100	-29.997	0.100
126.200	-39.684	0.100
126.300	-27.259	0.099
126.400	-28.563	0.100
126.500	-22.381	0.100
126.600	-38.054	0.100
126.700	-47.438	0.100
126.800	-28.167	0.100
126.900	-33.506	0.100
127.000	-27.916	0.100
127.100	-19.734	0.099
127.200	-25.413	0.099
127.300	-32.933	0.100
127.400	-25.520	0.100
127.500	-34.575	0.100
127.600	-20.692	0.100
127.700	-38.138	0.100
127.800	-36.537	0.100
127.900	-20.245	0.099
128.000	-27.337	0.099
128.100	-40.691	0.100
128.200	-20.477	0.100
128.300	-37.365	0.100
128.400	-34.909	0.100
128.500	-34.560	0.100
128.600	-25.793	0.100
128.700	-48.322	0.100
128.800	-28.468	0.100
128.900	-27.214	0.100
129.000	-30.752	0.100
129.100	-18.499	0.100
129.200	-27.476	0.100
129.300	-27.154	0.100
129.400	-36.354	0.100
129.500	-18.297	0.100
129.600	-30.260	0.100
129.700	-26.438	0.100
129.800	-32.155	0.099
129.900	-20.537	0.100
130.000	-47.421	0.100
130.100	-37.568	0.100
130.200	-17.554	0.100
130.300	-26.846	0.100
130.400	-35.737	0.100
130.500	-37.691	0.100
130.600	-31.652	0.100
130.700	-17.339	0.100
130.800	-40.922	0.100
130.900	-25.789	0.100
131.000	-43.943	0.099
131.100	-46.253	0.099
131.200	-33.722	0.100
131.300	-31.378	0.100
131.400	-31.239	0.099
131.500	-24.798	0.100
131.600	-21.464	0.100
131.700	-23.197	0.100
131.800	-28.762	0.100
131.900	-25.021	0.100
132.000	-36.252	0.100
132.100	-28.834	0.100
132.200	-26.432	0.100
132.300	-39.878	0.099
132.400	-40.245	0.100
132.500	-23.183	0.099
132.600	-22.327	0.100
132.700	-9.096	0.100
132.800	-25.978	0.100
132.900	-30.082	0.100
133.000	-19.530	0.099
133.100	-37.756	0.100
133.200	-40.471	0.100
133.300	-40.873	0.100
133.400	-23.905	0.100
133.500	-28.601	0.100
133.600	-37.575	0.100
133.700	-44.165	0.099
133.800	-36.395	0.099
133.900	-27.055	0.100
134.000	-27.038	0.100
134.100	-20.575	0.100
134.200	-27.960	0.100
134.300	-23.722	0.100
134.400	-24.068	0.100
134.500	-38.254	0.099
134.600	-36.797	0.100
134.700	-30.883	0.100
134.800	-31.048	0.099
134.900	-35.785	0.099
135.000	-31.971	0.100
135.100	-39.007	0.099
135.200	-30.872	0.099
135.300	-19.760	0.100
135.400	-30.064	0.100
135.500	-36.642	0.100
135.600	-38.735	0.099
135.700	-24.055	0.100
135.800	-24.204	0.099
135.900	-31.314	0.100
136.000	-25.629	0.100
136.100	-35.863	0.099
136.200	-21.288	0.100
136.300	-30.370	0.100
136.400	-31.864	0.100
136.500	-33.634	0.100
136.600	-28.445	0.100
136.700	-33.034	0.100
136.800	-24.660	0.100
136.900	-25.367	0.100
137.000	-27.400	0.100
137.100	-32.252	0.100
137.200	-25.798	0.100
137.300	-34.659	0.100
137.400	-38.988	0.100
137.500	-27.561	0.100
137.600	-37.272	0.100
137.700	-28.312	0.100
137.800	-27.886	0.100
137.900	-27.410	0.100
138.000	-24.180	0.100
138.100	-34.466	0.100
138.200	-33.703	0.100
138.300	-20.132	0.100
138.400	-30.125	0.099
138.500	-44.421	0.100
138.600	-30.385	0.100
138.700	-21.350	0.100
138.800	-25.322	0.100
138.900	-31.158	0.100
139.000	-32.517	0.100
139.100	-26.598	0.100
139.200	-30.545	0.100
139.300	-33.912	0.099
139.400	-20.456	0.100
139.500	-36.368	0.100
139.600	-37.454	0.100
139.700	-34.685	0.100
139.800	-32.118	0.100
139.900	-25.649	0.100
140.000	-24.492	0.100
140.100	-29.978	0.100
140.200	-30.078	0.099
140.300	-37.163	0.100
140.400	-30.002	0.100
140.500	-34.193	0.100
140.600	-30.274	0.100
140.700	-46.920	0.100
140.800	-26.617	0.100
140.900	-30.055	0.100
141.000	-29.033	0.100
141.100	-30.360	0.100
141.200	-30.525	0.100
141.300	-26.635	0.100
141.400	-37.052	0.100
141.500	-16.084	0.100
141.600	-17.043	0.100
141.700	-38.963	0.100
141.800	-36.729	0.100
141.900	-31.119	0.100
142.000	-26.164	0.100
142.100	-28.482	0.100
142.200	-12.682	0.100
142.300	-42.605	0.100
142.400	-31.430	0.100
142.500	-31.075	0.100
142.600	-41.090	0.100
142.700	-22.419	0.100
142.800	-24.185	0.100
142.900	-38.758	0.099
143.000	-21.103	0.100
143.100	-35.370	0.100
143.200	-32.257	0.100
143.300	-25.180	0.100
143.400	-18.549	0.100
143.500	-37.227	0.099
143.600	-34.541	0.100
143.700	-34.490	0.100
143.800	-30.594	0.100
143.900	-40.042	0.100
144.000	-21.261	0.100
144.100	-33.435	0.099
144.200	-27.137	0.100
144.300	-47.519	0.100
144.400	-28.759	0.100
144.500	-34.863	0.100
144.600	-34.517	0.099
144.700	-32.076	0.100
144.800	-44.192	0.100
144.900	-18.795	0.100
145.000	-27.668	0.099
145.100	-25.348	0.099
145.200	-36.988	0.100
145.300	-32.207	0.099
145.400	-26.037	0.100
145.500	-22.016	0.099
145.600	-27.576	0.100
145.700	-25.832	0.100
145.800	-35.011	0.100
145.900	-42.480	0.099
146.000	-29.195	0.100
146.100	-24.134	0.100
146.200	-20.030	0.100
146.300	-26.632	0.100
146.400	-41.133	0.100
146.500	-23.699	0.100
146.600	-20.118	0.100
146.700	-36.552	0.100
146.800	-28.802	0.100
146.900	-25.227	0.100
147.000	-24.044	0.100
147.100	-10.269	0.100
147.200	-22.024	0.100
147.300	-48.202	0.099
147.400	-26.089	0.100
147.500	-25.590	0.100
147.600	-30.064	0.100
147.700	-27.466	0.100
147.800	-17.747	0.100
147.900	-23.904	0.100
148.000	-31.211	0.100
148.100	-25.449	0.100
148.200	-31.463	0.100
148.300	-39.044	0.100
148.400	-19.040	0.100
148.500	-28.901	0.100
148.600	-30.197	0.100
148.700	-34.145	0.100
148.800	-42.196	0.100
148.900	-24.830	0.100
149.000	-23.279	0.100
149.100	-32.694	0.099
149.200	-16.970	0.100
149.300	-35.946	0.100
149.400	-27.120	0.100
149.500	-18.254	0.100
149.600	-20.744	0.100
149.700	-24.968	0.100
149.800	-38.466	0.100
149.900	-21.662	0.100
150.000	-24.503	0.100
150.100	-23.389	0.100
150.200	-19.034	0.100
150.300	-28.280	0.100
150.400	-20.349	0.100
150.500	-36.325	0.100
150.600	-31.913	0.100
150.700	-33.336	0.100
150.800	-36.062	0.099
150.900	-19.982	0.100
151.000	-26.792	0.100
151.100	-36.112	0.100
151.200	-37.334	0.100
151.300	-24.417	0.100
151.400	-32.632	0.100
151.500	-32.124	0.100
151.600	-26.549	0.100
151.700	-12.558	0.100
151.800	-36.879	0.100
151.900	-23.252	0.100
152.000	-47.082	0.100
152.100	-13.910	0.099
152.200	-22.296	0.100
152.300	-28.426	0.100
152.400	-31.821	0.100
152.500	-39.485	0.100
152.600	-16.874	0.100
152.700	-40.237	0.099
152.800	-25.573	0.100
152.900	-26.163	0.100
153.000	-43.444	0.100
153.100	-12.726	0.100
153.200	-22.433	0.100
153.300	-20.675	0.100
153.400	-28.288	0.100
153.500	-23.294	0.100
153.600	-48.052	0.100
153.700	-21.555	0.100
153.800	-28.864	0.100
153.900	-19.734	0.100
154.000	-22.342	0.100
154.100	-26.924	0.100
154.200	-31.506	0.100
154.300	-22.711	0.100
154.400	-27.011	0.100
154.500	-30.393	0.100
154.600	-27.466	0.100
154.700	-24.315	0.100
154.800	-19.797	0.100
154.900	-35.751	0.100
155.000	-30.054	0.099
155.100	-25.922	0.100
155.200	-17.683	0.100
155.300	-35.686	0.100
155.400	-22.876	0.100
155.500	-41.368	0.100
155.600	-37.169	0.100
155.700	-29.756	0.099
155.800	-29.794	0.100
155.900	-26.366	0.099
156.000	-17.264	0.100
156.100	-23.931	0.100
156.200	-20.972	0.100
156.300	-26.594	0.100
156.400	-23.970	0.100
156.500	-29.800	0.100
156.600	-27.427	0.099
156.700	-18.322	0.100
156.800	-24.550	0.100
156.900	-26.511	0.100
157.000	-29.117	0.100
157.100	-13.029	0.100
157.200	-32.554	0.100
157.300	-29.850	0.100
157.400	-23.964	0.100
157.500	-22.277	0.100
157.600	-26.253	0.100
157.700	-11.382	0.100
157.800	-16.818	0.100
157.900	-29.462	0.100
158.000	-19.881	0.100
158.100	-40.201	0.100
158.200	-27.978	0.100
158.300	-22.160	0.100
158.400	-22.266	0.100
158.500	-38.957	0.099
158.600	-21.943	0.100
158.700	-32.443	0.100
158.800	-29.404	0.100
158.900	-33.750	0.100
159.000	-35.434	0.100
159.100	-19.677	0.100
159.200	-31.059	0.100
159.300	-17.965	0.100
159.400	-26.513	0.100
159.500	-33.205	0.099
159.600	-36.980	0.099
159.700	-20.166	0.100
159.800	-24.107	0.100
159.900	-28.628	0.100
160.000	-27.146	0.100
160.100	-28.487	0.099
160.200	-19.583	0.100
160.300	-19.238	0.100
160.400	-34.298	0.100
160.500	-28.999	0.099
160.600	-21.976	0.100
160.700	-16.284	0.100
160.800	-17.039	0.100
160.900	-32.159	0.100
161.000	-48.795	0.100
161.100	-29.431	0.100
161.200	-18.936	0.100
161.300	-23.530	0.100
161.400	-22.210	0.100
161.500	-19.090	0.100
161.600	-28.726	0.100
161.700	-37.360	0.100
161.800	-27.752	0.099
161.900	-23.709	0.100
162.000	-17.214	0.100
162.100	-28.312	0.100
162.200	-17.018	0.100
162.300	-15.342	0.100
162.400	-25.637	0.100
162.500	-29.924	0.100
162.600	-17.549	0.100
162.700	-29.510	0.100
162.800	-28.521	0.100
162.900	-27.983	0.100
163.000	-29.503	0.100
163.100	-24.046	0.100
163.200	-25.629	0.100
163.300	-16.294	0.100
163.400	-24.489	0.100
163.500	-27.893	0.100
163.600	-40.631	0.099
163.700	-14.812	0.100
163.800	-24.843	0.099
163.900	-21.668	0.100
164.000	-32.315	0.100
164.100	-24.115	0.100
164.200	-27.745	0.100
164.300	-24.785	0.100
164.400	-23.273	0.100
164.500	-30.382	0.100
164.600	-23.437	0.100
164.700	-32.490	0.100
164.800	-27.449	0.100
164.900	-32.866	0.100
165.000	-32.907	0.100
165.100	-32.961	0.100
165.200	-6.844	0.100
165.300	-24.489	0.100
165.400	-24.158	0.100
165.500	-24.008	0.100
165.600	-22.559	0.100
165.700	-25.290	0.100
165.800	-28.591	0.100
165.900	-21.675	0.100
166.000	-33.659	0.100
166.100	-32.786	0.100
166.200	-20.096	0.100
166.300	-26.386	0.100
166.400	-32.264	0.100
166.500	-45.962	0.100
166.600	-13.773	0.100
166.700	-22.456	0.100
166.800	-17.584	0.100
166.900	-20.011	0.100
167.000	-21.622	0.100
167.100	-22.081	0.100
167.200	-32.717	0.100
167.300	-21.717	0.100
167.400	-18.907	0.100
167.500	-30.553	0.099
167.600	-32.618	0.100
167.700	-20.194	0.100
167.800	-16.434	0.100
167.900	-20.629	0.100
168.000	-25.057	0.100
168.100	-29.294	0.100
168.200	-27.127	0.100
168.300	-30.074	0.100
168.400	-37.213	0.100
168.500	-21.214	0.100
168.600	-27.316	0.100
168.700	-25.618	0.100
168.800	-40.343	0.100
168.900	-8.842	0.100
169.000	-18.971	0.100
169.100	-39.218	0.100
169.200	-20.685	0.100
169.300	-30.094	0.100
169.400	-28.805	0.100
169.500	-23.217	0.100
169.600	-12.557	0.100
169.700	-15.484	0.100
169.800	-23.435	0.100
169.900	-25.496	0.100
170.000	-40.917	0.100
170.100	-23.817	0.100
170.200	-10.978	0.100
170.300	-25.634	0.099
170.400	-36.928	0.100
170.500	-18.688	0.100
170.600	-30.720	0.100
170.700	-27.015	0.100
170.800	-19.152	0.100
170.900	-25.457	0.100
171.000	-23.841	0.100
171.100	-38.995	0.100
171.200	-24.457	0.100
171.300	-26.008	0.100
171.400	-31.232	0.100
171.500	-35.936	0.100
171.600	-16.748	0.100
171.700	-31.263	0.099
171.800	-32.676	0.100
171.900	-32.468	0.100
172.000	-16.853	0.100
172.100	-11.148	0.100
172.200	-12.864	0.100
172.300	-16.069	0.100
172.400	-28.376	0.100
172.500	-20.616	0.100
172.600	-17.900	0.100
172.700	-27.625	0.100
172.800	-24.428	0.100
172.900	-26.406	0.100
173.000	-17.554	0.099
173.100	-30.836	0.100
173.200	-19.405	0.100
173.300	-13.922	0.100
173.400	-12.800	0.100
173.500	-47.593	0.100
173.600	-13.101	0.100
173.700	-18.785	0.100
173.800	-17.574	0.100
173.900	-25.617	0.100
174.000	-25.562	0.100
174.100	-23.884	0.100
174.200	-30.191	0.100
174.300	-23.002	0.100
174.400	-25.421	0.100
174.500	-31.227	0.100
174.600	-18.656	0.100
174.700	-30.879	0.100
174.800	-33.236	0.099
174.900	-26.621	0.100
175.000	-6.910	0.100
175.100	-19.715	0.100
175.200	-28.998	0.099
175.300	-31.111	0.100
175.400	-23.845	0.099
175.500	-18.501	0.100
175.600	-27.216	0.100
175.700	-23.615	0.100
175.800	-18.079	0.100
175.900	-31.895	0.100
176.000	-17.553	0.100
176.100	-32.819	0.099
176.200	-9.416	0.100
176.300	-28.148	0.100
176.400	-2.448	0.100
176.500	-23.179	0.100
176.600	-25.003	0.099
176.700	-25.300	0.099
176.800	-38.940	0.100
176.900	-9.141	0.100
177.000	-18.074	0.100
177.100	-17.343	0.100
177.200	-34.890	0.100
177.300	-13.867	0.100
177.400	-16.566	0.100
177.500	-36.757	0.100
177.600	-10.850	0.100
177.700	-26.329	0.100
177.800	-28.191	0.100
177.900	-19.451	0.099
178.000	-22.100	0.100
178.100	-32.242	0.100
178.200	-22.756	0.099
178.300	-19.500	0.099
178.400	-18.670	0.100
178.500	-25.432	0.099
178.600	-35.411	0.100
178.700	-17.515	0.100
178.800	-11.372	0.100
178.900	-26.049	0.099
179.000	-23.223	0.099
179.100	-22.484	0.100
179.200	-18.590	0.100
179.300	-37.456	0.099
179.400	-42.634	0.100
179.500	-23.358	0.099
179.600	-20.660	0.100
179.700	-21.509	0.099
179.800	-34.820	0.100
179.900	-15.555	0.099
180.000	-23.305	0.100
180.100	-10.364	0.099
180.200	-5.051	0.100
180.300	1.348	0.100
180.400	29.810	0.100
180.500	11.244	0.100
180.600	5.643	0.100
180.700	30.155	0.099
180.800	17.731	0.100
180.900	27.442	0.099
181.000	17.074	0.100
181.100	24.013	0.099
181.200	33.940	0.100
181.300	35.078	0.099
181.400	37.617	0.100
181.500	20.862	0.099
181.600	27.801	0.100
181.700	29.299	0.100
181.800	27.753	0.100
181.900	14.505	0.099
182.000	32.041	0.100
182.100	30.557	0.100
182.200	20.685	0.099
182.300	15.595	0.099
182.400	9.509	0.100
182.500	24.798	0.099
182.600	19.852	0.100
182.700	29.943	0.100
182.800	21.364	0.099
182.900	13.412	0.100
183.000	23.801	0.100
183.100	17.681	0.100
183.200	16.419	0.100
183.300	15.723	0.099
183.400	17.265	0.100
183.500	23.381	0.100
183.600	13.857	0.100
183.700	22.195	0.099
183.800	24.396	0.099
183.900	10.240	0.100
184.000	11.774	0.100
184.100	7.567	0.100
184.200	18.972	0.099
184.300	11.323	0.099
184.400	3.809	0.099
184.500	20.230	0.100
184.600	22.607	0.100
184.700	27.276	0.099
184.800	24.474	0.100
184.900	17.624	0.099
185.000	18.262	0.100
185.100	14.280	0.100
185.200	11.918	0.100
185.300	15.006	0.100
185.400	8.093	0.100
185.500	34.046	0.099
185.600	18.920	0.100
185.700	12.555	0.100
185.800	17.546	0.099
185.900	13.576	0.100
186.000	24.781	0.100
186.100	11.385	0.100
186.200	9.598	0.099
186.300	26.232	0.099
186.400	16.880	0.100
186.500	11.370	0.100
186.600	15.994	0.100
186.700	17.375	0.100
186.800	18.394	0.100
186.900	12.439	0.099
187.000	37.020	0.100
187.100	29.218	0.100
187.200	23.676	0.099
187.300	3.573	0.100
187.400	24.710	0.100
187.500	29.685	0.100
187.600	30.789	0.100
187.700	9.815	0.099
187.800	14.678	0.100
187.900	32.681	0.099
188.000	27.549	0.100
188.100	25.444	0.100
188.200	26.428	0.100
188.300	18.027	0.099
188.400	26.919	0.100
188.500	38.920	0.100
188.600	34.836	0.099
188.700	35.738	0.100
188.800	27.373	0.100
188.900	27.164	0.099
189.000	26.969	0.099
189.100	30.328	0.099
189.200	30.915	0.100
189.300	39.333	0.100
189.400	34.192	0.100
189.500	38.429	0.100
189.600	44.542	0.100
189.700	39.164	0.099
189.800	33.097	0.100
189.900	39.458	0.100
190.000	50.207	0.100
190.100	40.136	0.099
190.200	32.485	0.099
190.300	38.642	0.100
190.400	31.754	0.100
190.500	35.532	0.100
190.600	53.604	0.100
190.700	53.436	0.100
190.800	39.547	0.100
190.900	37.504	0.100
191.000	34.315	0.100
191.100	63.751	0.100
191.200	42.810	0.100
191.300	54.668	0.100
191.400	50.722	0.100
191.500	36.182	0.099
191.600	45.226	0.100
191.700	51.174	0.100
191.800	37.611	0.100
191.900	51.452	0.100
192.000	59.858	0.100
192.100	43.460	0.100
192.200	47.416	0.099
192.300	49.017	0.099
192.400	43.960	0.100
192.500	52.944	0.100
192.600	47.798	0.100
192.700	48.705	0.100
192.800	55.311	0.099
192.900	58.209	0.100
193.000	51.530	0.100
193.100	47.874	0.100
193.200	50.082	0.100
193.300	63.025	0.099
193.400	56.339	0.099
193.500	55.486	0.099
193.600	52.150	0.099
193.700	46.073	0.099
193.800	64.987	0.100
193.900	51.506	0.099
194.000	60.659	0.100
194.100	63.883	0.099
194.200	59.661	0.100
194.300	58.986	0.099
194.400	56.176	0.100
194.500	60.207	0.099
194.600	56.401	0.100
194.700	62.783	0.099
194.800	71.557	0.100
194.900	60.928	0.100
195.000	50.768	0.100
195.100	48.505	0.099
195.200	41.531	0.100
195.300	54.867	0.099
195.400	67.188	0.100
195.500	54.231	0.099
195.600	63.062	0.100
195.700	61.472	0.099
195.800	57.818	0.100
195.900	59.324	0.099
196.000	57.952	0.099
196.100	59.448	0.099
196.200	54.387	0.099
196.300	54.109	0.099
196.400	57.225	0.100
196.500	62.150	0.099
196.600	54.513	0.100
196.700	60.207	0.099
196.800	65.962	0.100
196.900	59.313	0.100
197.000	66.235	0.100
197.100	47.263	0.100
197.200	69.933	0.100
197.300	59.717	0.099
197.400	58.263	0.099
197.500	56.388	0.100
197.600	54.898	0.099
197.700	48.533	0.100
197.800	60.514	0.100
197.900	57.426	0.099
198.000	56.258	0.100
198.100	62.900	0.100
198.200	65.273	0.100
198.300	45.605	0.100
198.400	66.524	0.100
198.500	72.071	0.099
198.600	62.107	0.099
198.700	63.033	0.100
198.800	46.645	0.100
198.900	67.304	0.100
199.000	54.805	0.099
199.100	59.431	0.099
199.200	54.848	0.100
199.300	67.502	0.100
199.400	61.153	0.100
199.500	61.445	0.099
199.600	54.635	0.100
199.700	59.062	0.100
199.800	57.353	0.100
199.900	47.499	0.100
200.000	44.276	0.100
200.100	64.806	0.099
200.200	67.263	0.100
200.300	55.359	0.099
200.400	58.792	0.099
200.500	59.058	0.100
200.600	53.981	0.100
200.700	41.560	0.100
200.800	56.227	0.099
200.900	61.412	0.099
201.000	54.172	0.100
201.100	58.748	0.100
201.200	62.256	0.099
201.300	47.592	0.099
201.400	64.042	0.099
201.500	52.510	0.099
201.600	65.857	0.099
201.700	52.094	0.099
201.800	43.215	0.100
201.900	54.494	0.100
202.000	65.003	0.100
202.100	63.200	0.099
202.200	66.655	0.100
202.300	61.046	0.099
202.400	59.222	0.100
202.500	63.721	0.100
202.600	44.890	0.100
202.700	55.753	0.100
202.800	78.317	0.100
202.900	76.621	0.100
203.000	50.929	0.100
203.100	69.808	0.099
203.200	52.308	0.100
203.300	43.697	0.100
203.400	60.235	0.100
203.500	50.836	0.100
203.600	78.923	0.100
203.700	57.794	0.100
203.800	60.313	0.100
203.900	55.905	0.100
204.000	54.708	0.100
204.100	40.960	0.099
204.200	60.874	0.099
204.300	69.252	0.099
204.400	68.467	0.099
204.500	55.603	0.099
204.600	46.025	0.099
204.700	47.451	0.099
204.800	58.309	0.100
204.900	66.579	0.100
205.000	63.178	0.100
205.100	57.691	0.099
205.200	58.978	0.100
205.300	59.072	0.100
205.400	50.098	0.099
205.500	56.801	0.099
205.600	49.667	0.099
205.700	49.040	0.099
205.800	58.830	0.099
205.900	57.989	0.099
206.000	62.367	0.099
206.100	49.102	0.099
206.200	71.918	0.099
206.300	58.316	0.100
206.400	65.875	0.100
206.500	58.944	0.099
206.600	47.264	0.099
206.700	52.255	0.099
206.800	60.906	0.100
206.900	55.097	0.100
207.000	66.670	0.099
207.100	55.456	0.099
207.200	58.179	0.099
207.300	58.099	0.099
207.400	66.080	0.099
207.500	61.459	0.099
207.600	59.176	0.100
207.700	58.370	0.099
207.800	66.136	0.099
207.900	54.651	0.099
208.000	58.970	0.100
208.100	46.161	0.099
208.200	68.027	0.099
208.300	34.626	0.099
208.400	45.262	0.099
208.500	59.413	0.099
208.600	64.497	0.099
208.700	54.842	0.099
208.800	60.300	0.099
208.900	40.358	0.099
209.000	62.782	0.099
209.100	68.773	0.099
209.200	53.623	0.100
209.300	56.123	0.099
209.400	63.199	0.099
209.500	59.458	0.100
209.600	56.285	0.099
209.700	49.490	0.099
209.800	59.454	0.099
209.900	64.591	0.099
210.000	59.434	0.100
210.100	54.245	0.100
210.200	50.392	0.100
210.300	59.905	0.099
210.400	47.752	0.099
210.500	54.550	0.099
210.600	66.891	0.100
210.700	64.581	0.100
210.800	59.034	0.100
210.900	54.972	0.099
211.000	67.477	0.099
211.100	56.263	0.099
211.200	60.417	0.099
211.300	58.643	0.100
211.400	49.569	0.100
211.500	61.267	0.099
211.600	52.693	0.100
211.700	53.199	0.099
211.800	60.800	0.100
211.900	58.437	0.100
212.000	55.413	0.099
212.100	62.226	0.100
212.200	60.860	0.100
212.300	53.486	0.099
212.400	66.353	0.100
212.500	52.474	0.100
212.600	57.049	0.100
212.700	71.559	0.100
212.800	61.580	0.100
212.900	54.062	0.100
213.000	54.105	0.099
213.100	39.820	0.099
213.200	56.191	0.100
213.300	33.477	0.099
213.400	58.837	0.100
213.500	75.281	0.100
213.600	65.960	0.099
213.700	55.397	0.100
213.800	58.120	0.100
213.900	63.408	0.100
214.000	59.358	0.099
214.100	48.716	0.100
214.200	57.008	0.100
214.300	61.023	0.099
214.400	55.554	0.099
214.500	41.267	0.099
214.600	60.083	0.099
214.700	65.699	0.100
214.800	61.057	0.100
214.900	65.269	0.099
215.000	57.742	0.100
215.100	56.688	0.100
215.200	52.706	0.100
215.300	49.662	0.100
215.400	61.398	0.100
215.500	62.071	0.100
215.600	53.442	0.100
215.700	52.199	0.100
215.800	50.088	0.099
215.900	67.983	0.099
216.000	52.672	0.099
216.100	59.224	0.100
216.200	60.451	0.099
216.300	66.312	0.100
216.400	59.785	0.100
216.500	52.011	0.099
216.600	45.288	0.099
216.700	65.411	0.099
216.800	61.824	0.099
216.900	49.726	0.099
217.000	62.768	0.099
217.100	43.316	0.099
217.200	61.963	0.099
217.300	69.058	0.099
217.400	46.652	0.100
217.500	55.763	0.100
217.600	65.315	0.099
217.700	63.412	0.099
217.800	52.017	0.100
217.900	59.763	0.099
218.000	52.629	0.099
218.100	55.583	0.100
218.200	62.188	0.099
218.300	59.164	0.099
218.400	47.661	0.100
218.500	60.112	0.099
218.600	55.992	0.100
218.700	66.565	0.099
218.800	36.947	0.100
218.900	55.933	0.100
219.000	54.861	0.099
219.100	70.466	0.099
219.200	63.966	0.099
219.300	52.630	0.100
219.400	46.237	0.099
219.500	62.372	0.100
219.600	61.714	0.100
219.700	48.347	0.099
219.800	48.891	0.100
219.900	63.970	0.099
220.000	47.650	0.099
220.100	64.184	0.100
220.200	59.086	0.100
220.300	58.659	0.100
220.400	50.886	0.099
220.500	56.837	0.099
220.600	49.962	0.099
220.700	55.570	0.100
220.800	47.182	0.100
220.900	57.771	0.099
221.000	66.084	0.100
221.100	40.167	0.099
221.200	66.748	0.100
221.300	52.510	0.100
221.400	52.341	0.099
221.500	51.030	0.100
221.600	64.011	0.100
221.700	61.830	0.100
221.800	58.847	0.100
221.900	37.752	0.099
222.000	40.481	0.100
222.100	59.920	0.099
222.200	59.673	0.099
222.300	55.236	0.100
222.400	55.998	0.099
222.500	58.512	0.099
222.600	62.638	0.099
222.700	57.326	0.099
222.800	59.389	0.100
222.900	66.017	0.100
223.000	51.688	0.100
223.100	51.829	0.100
223.200	54.808	0.099
223.300	40.818	0.100
223.400	56.592	0.100
223.500	60.001	0.100
223.600	62.449	0.100
223.700	68.944	0.100
223.800	55.967	0.100
223.900	40.172	0.100
224.000	62.854	0.100
224.100	67.034	0.100
224.200	61.394	0.100
224.300	41.798	0.100
224.400	43.031	0.099
224.500	55.046	0.100
224.600	65.460	0.099
224.700	47.950	0.100
224.800	51.017	0.099
224.900	58.132	0.100
225.000	48.214	0.100
225.100	60.921	0.100
225.200	53.168	0.100
225.300	59.756	0.100
225.400	58.302	0.099
225.500	63.169	0.100
225.600	38.656	0.100
225.700	53.829	0.100
225.800	52.579	0.100
225.900	51.274	0.100
226.000	50.085	0.100
226.100	56.780	0.100
226.200	59.055	0.100
226.300	49.887	0.099
226.400	50.763	0.100
226.500	64.771	0.099
226.600	57.995	0.100
226.700	58.275	0.100
226.800	47.814	0.099
226.900	55.648	0.099
227.000	58.340	0.100
227.100	62.243	0.099
227.200	55.942	0.100
227.300	46.824	0.099
227.400	63.927	0.100
227.500	57.171	0.099
227.600	52.318	0.100
227.700	41.081	0.100
227.800	49.316	0.100
227.900	63.983	0.100
228.000	58.710	0.099
228.100	50.696	0.099
228.200	38.515	0.099
228.300	58.223	0.100
228.400	66.512	0.100
228.500	48.444	0.099
228.600	62.255	0.099
228.700	52.848	0.100
228.800	55.519	0.100
228.900	45.520	0.100
229.000	51.263	0.099
229.100	70.934	0.100
229.200	51.809	0.099
229.300	52.751	0.099
229.400	69.420	0.099
229.500	52.131	0.100
229.600	44.052	0.100
229.700	47.497	0.099
229.800	48.742	0.099
229.900	50.359	0.100
230.000	52.085	0.099
230.100	55.303	0.100
230.200	56.909	0.100
230.300	44.123	0.100
230.400	64.308	0.100
230.500	55.434	0.100
230.600	51.384	0.099
230.700	49.420	0.099
230.800	54.586	0.100
230.900	54.793	0.100
231.000	46.104	0.099
231.100	53.359	0.100
231.200	54.084	0.100
231.300	41.105	0.099
231.400	54.690	0.100
231.500	64.977	0.100
231.600	54.289	0.100
231.700	55.654	0.099
231.800	55.893	0.099
231.900	52.308	0.099
232.000	58.823	0.099
232.100	55.222	0.100
232.200	49.045	0.100
232.300	60.590	0.099
232.400	53.412	0.100
232.500	47.112	0.100
232.600	59.969	0.100
232.700	45.259	0.100
232.800	62.837	0.100
232.900	61.568	0.100
233.000	50.983	0.100
233.100	54.847	0.100
233.200	55.813	0.100
233.300	44.904	0.100
233.400	55.775	0.099
233.500	57.135	0.100
233.600	54.381	0.099
233.700	55.939	0.100
233.800	62.384	0.100
233.900	55.498	0.100
234.000	35.652	0.100
234.100	57.471	0.100
234.200	42.468	0.100
234.300	59.324	0.100
234.400	55.127	0.100
234.500	55.828	0.100
234.600	63.259	0.100
234.700	44.023	0.100
234.800	49.396	0.100
234.900	44.164	0.100
235.000	69.673	0.100
235.100	53.869	0.100
235.200	47.126	0.100
235.300	58.099	0.100
235.400	51.435	0.100
235.500	57.176	0.099
235.600	47.236	0.100
235.700	48.671	0.100
235.800	66.289	0.100
235.900	60.810	0.100
236.000	59.431	0.100
236.100	57.114	0.100
236.200	51.165	0.100
236.300	41.960	0.099
236.400	62.089	0.100
236.500	52.614	0.100
236.600	56.369	0.100
236.700	48.625	0.100
236.800	54.893	0.100
236.900	49.642	0.100
237.000	55.419	0.100
237.100	49.566	0.100
237.200	49.117	0.099
237.300	62.845	0.099
237.400	38.462	0.100
237.500	44.876	0.100
237.600	60.225	0.100
237.700	53.744	0.100
237.800	54.877	0.100
237.900	53.989	0.100
238.000	52.630	0.100
238.100	51.658	0.099
238.200	37.563	0.100
238.300	49.149	0.100
238.400	62.901	0.100
238.500	48.001	0.100
238.600	53.184	0.100
238.700	58.118	0.100
238.800	66.053	0.100
238.900	51.657	0.100
239.000	45.227	0.100
239.100	60.467	0.100
239.200	41.349	0.099
239.300	51.371	0.100
239.400	52.574	0.100
239.500	72.140	0.100
239.600	57.128	0.100
239.700	60.050	0.100
239.800	57.251	0.100
239.900	46.658	0.099
240.000	36.864	0.100
240.100	32.593	0.100
240.200	37.154	0.100
240.300	44.277	0.100
240.400	25.503	0.100
240.500	27.686	0.100
240.600	30.722	0.100
240.700	16.793	0.099
240.800	29.593	0.100
240.900	13.506	0.100
241.000	6.139	0.099
241.100	7.523	0.100
241.200	-0.578	0.100
241.300	2.033	0.099
241.400	2.177	0.100
241.500	23.229	0.100
241.600	18.443	0.100
241.700	-4.401	0.100
241.800	11.711	0.100
241.900	-0.460	0.100
242.000	-3.835	0.099
242.100	0.323	0.100
242.200	-4.460	0.100
242.300	1.463	0.100
242.400	-0.485	0.100
242.500	-0.461	0.099
242.600	-15.476	0.100
242.700	-2.395	0.100
242.800	-12.513	0.100
242.900	3.949	0.100
243.000	4.564	0.100
243.100	-4.164	0.100
243.200	-5.840	0.100
243.300	-13.405	0.099
243.400	-7.205	0.100
243.500	-6.809	0.100
243.600	-15.021	0.100
243.700	-6.146	0.100
243.800	-11.371	0.099
243.900	-10.773	0.100
244.000	-20.721	0.099
244.100	-14.496	0.100
244.200	-20.676	0.100
244.300	-8.909	0.100
244.400	-25.276	0.100
244.500	-21.343	0.100
244.600	-24.889	0.100
244.700	-17.820	0.100
244.800	-10.885	0.100
244.900	-16.614	0.099
245.000	-28.158	0.100
245.100	-28.099	0.100
245.200	-8.372	0.100
245.300	-20.670	0.099
245.400	-15.501	0.100
245.500	-20.860	0.100
245.600	-12.052	0.100
245.700	-21.678	0.100
245.800	-36.242	0.100
245.900	-37.874	0.100
246.000	-37.059	0.100
246.100	-21.878	0.100
246.200	-12.310	0.100
246.300	-29.239	0.100
246.400	-35.745	0.100
246.500	-27.245	0.100
246.600	-24.711	0.100
246.700	-17.322	0.100
246.800	-16.691	0.099
246.900	-27.250	0.099
247.000	-18.062	0.099
247.100	-22.205	0.100
247.200	-22.347	0.099
247.300	-25.584	0.099
247.400	-25.522	0.100
247.500	-24.730	0.100
247.600	-17.972	0.100
247.700	-19.890	0.099
247.800	-15.470	0.099
247.900	-20.656	0.100
248.000	-16.359	0.099
248.100	-30.889	0.099
248.200	-18.136	0.099
248.300	-19.952	0.099
248.400	-9.557	0.100
248.500	-21.450	0.100
248.600	-15.145	0.099
248.700	-26.610	0.100
248.800	-23.106	0.100
248.900	-18.649	0.100
249.000	-25.916	0.100
249.100	-17.994	0.100
249.200	-2.091	0.099
249.300	-15.709	0.099
249.400	-25.326	0.100
249.500	-24.890	0.100
249.600	-16.677	0.100
249.700	-22.159	0.100
249.800	-16.861	0.100
249.900	-13.356	0.100
250.000	-20.446	0.100
250.100	-23.806	0.100
250.200	-20.708	0.100
250.300	-12.844	0.100
250.400	-24.574	0.099
250.500	-7.821	0.100
250.600	-21.050	0.100
250.700	-24.071	0.099
250.800	-13.479	0.100
250.900	-34.512	0.100
251.000	-13.306	0.099
251.100	-13.069	0.100
251.200	-14.762	0.099
251.300	-21.507	0.100
251.400	-21.321	0.100
251.500	-22.195	0.099
251.600	-39.943	0.099
251.700	-29.092	0.099
251.800	-10.524	0.100
251.900	-19.754	0.100
252.000	-6.350	0.100
252.100	-26.385	0.100
252.200	-44.871	0.100
252.300	-10.451	0.100
252.400	-21.614	0.099
252.500	-16.960	0.100
252.600	-16.660	0.099
252.700	-14.805	0.099
252.800	-20.342	0.099
252.900	-15.167	0.099
253.000	-27.354	0.099
253.100	-25.247	0.099
253.200	-14.135	0.100
253.300	-29.842	0.100
253.400	-38.492	0.099
253.500	-21.671	0.100
253.600	-28.968	0.100
253.700	-22.374	0.099
253.800	-25.618	0.100
253.900	-24.560	0.099
254.000	-17.304	0.100
254.100	-32.639	0.100
254.200	-21.763	0.099
254.300	-33.912	0.100
254.400	-30.475	0.100
254.500	-25.079	0.099
254.600	-20.594	0.099
254.700	-38.965	0.099
254.800	-17.700	0.100
254.900	-20.220	0.099
255.000	-34.556	0.099
255.100	-26.935	0.099
255.200	-25.557	0.099
255.300	-27.395	0.099
255.400	-23.189	0.099
255.500	-36.119	0.099
255.600	-28.891	0.099
255.700	-29.878	0.099
255.800	-27.609	0.100
255.900	-16.709	0.099
256.000	-30.615	0.099
256.100	-24.408	0.099
256.200	-30.637	0.099
256.300	-30.142	0.099
256.400	-23.394	0.100
256.500	-11.765	0.100
256.600	-21.430	0.100
256.700	-37.211	0.100
256.800	-22.032	0.100
256.900	-22.722	0.100
257.000	-22.081	0.100
257.100	-36.779	0.100
257.200	-18.839	0.099
257.300	-15.959	0.099
257.400	-19.223	0.099
257.500	-16.612	0.100
257.600	-38.027	0.099
257.700	-35.097	0.100
257.800	-21.061	0.100
257.900	-23.353	0.099
258.000	-32.274	0.100
258.100	-24.434	0.099
258.200	-28.928	0.100
258.300	-13.134	0.100
258.400	-30.693	0.100
258.500	-32.493	0.099
258.600	-27.596	0.100
258.700	-24.112	0.100
258.800	-26.662	0.100
258.900	-29.237	0.099
259.000	-36.522	0.100
259.100	-17.113	0.099
259.200	-19.602	0.100
259.300	-22.303	0.100
259.400	-36.054	0.099
259.500	-20.283	0.100
259.600	-27.303	0.100
259.700	-26.531	0.099
259.800	-24.957	0.100
259.900	-32.725	0.100
260.000	-29.550	0.100
260.100	-25.664	0.099
260.200	-38.468	0.099
260.300	-29.452	0.100
260.400	-47.153	0.100
260.500	-30.021	0.100
260.600	-23.346	0.100
260.700	-36.212	0.099
260.800	-31.968	0.099
260.900	-20.543	0.100
261.000	-35.184	0.100
261.100	-28.237	0.100
261.200	-23.236	0.100
261.300	-32.241	0.100
261.400	-28.159	0.099
261.500	-37.237	0.100
261.600	-17.634	0.100
261.700	-26.758	0.099
261.800	-36.078	0.100
261.900	-32.398	0.100
262.000	-23.670	0.099
262.100	-40.475	0.100
262.200	-19.670	0.099
262.300	-30.127	0.100
262.400	-24.239	0.100
262.500	-30.637	0.099
262.600	-39.309	0.100
262.700	-27.467	0.100
262.800	-26.272	0.100
262.900	-34.214	0.099
263.000	-14.903	0.100
263.100	-31.996	0.100
263.200	-29.005	0.100
263.300	-21.178	0.099
263.400	-45.254	0.099
263.500	-38.663	0.100
263.600	-16.310	0.099
263.700	-35.124	0.100
263.800	-36.725	0.100
263.900	-31.234	0.100
264.000	-30.641	0.100
264.100	-32.045	0.099
264.200	-31.856	0.099
264.300	-28.776	0.100
264.400	-32.668	0.099
264.500	-31.383	0.100
264.600	-35.105	0.100
264.700	-31.992	0.100
264.800	-48.811	0.100
264.900	-45.974	0.100
265.000	-40.304	0.100
265.100	-26.151	0.099
265.200	-39.411	0.100
265.300	-29.260	0.100
265.400	-15.145	0.100
265.500	-30.116	0.100
265.600	-28.237	0.100
265.700	-28.568	0.100
265.800	-38.626	0.099
265.900	-25.856	0.100
266.000	-39.673	0.099
266.100	-23.475	0.100
266.200	-45.142	0.100
266.300	-24.592	0.100
266.400	-40.435	0.100
266.500	-38.033	0.099
266.600	-29.272	0.099
266.700	-23.617	0.100
266.800	-30.408	0.099
266.900	-26.163	0.100
267.000	-30.313	0.100
267.100	-47.673	0.100
267.200	-39.995	0.100
267.300	-37.277	0.099
267.400	-26.695	0.100
267.500	-29.697	0.099
267.600	-18.452	0.099
267.700	-31.930	0.100
267.800	-22.691	0.099
267.900	-23.592	0.099
268.000	-31.889	0.099
268.100	-33.680	0.100
268.200	-33.650	0.099
268.300	-29.513	0.099
268.400	-36.421	0.099
268.500	-40.446	0.100
268.600	-37.041	0.099
268.700	-31.013	0.099
268.800	-30.947	0.100
268.900	-36.140	0.100
269.000	-42.704	0.099
269.100	-35.684	0.099
269.200	-31.442	0.100
269.300	-44.828	0.099
269.400	-20.164	0.099
269.500	-28.254	0.099
269.600	-32.780	0.100
269.700	-28.146	0.099
269.800	-35.868	0.099
269.900	-38.068	0.099
270.000	-25.157	0.099
270.100	-43.655	0.099
270.200	-27.572	0.099
270.300	-40.885	0.099
270.400	-40.014	0.099
270.500	-29.075	0.099
270.600	-27.284	0.100
270.700	-35.566	0.099
270.800	-32.185	0.099
270.900	-35.805	0.100
271.000	-39.871	0.100
271.100	-31.528	0.100
271.200	-47.247	0.100
271.300	-41.182	0.099
271.400	-24.184	0.099
271.500	-33.615	0.099
271.600	-42.406	0.099
271.700	-30.619	0.100
271.800	-34.364	0.100
271.900	-28.009	0.100
272.000	-34.814	0.099
272.100	-35.534	0.100
272.200	-31.524	0.100
272.300	-36.683	0.099
272.400	-40.251	0.100
272.500	-40.600	0.100
272.600	-36.182	0.099
272.700	-33.402	0.100
272.800	-23.933	0.100
272.900	-31.757	0.100
273.000	-49.994	0.099
273.100	-29.586	0.100
273.200	-30.158	0.100
273.300	-35.117	0.099
273.400	-36.007	0.100
273.500	-23.308	0.100
273.600	-47.004	0.099
273.700	-19.785	0.100
273.800	-36.701	0.100
273.900	-22.709	0.099
274.000	-37.144	0.100
274.100	-36.855	0.100
274.200	-33.272	0.099
274.300	-36.590	0.100
274.400	-41.605	0.100
274.500	-36.312	0.100
274.600	-32.592	0.100
274.700	-26.036	0.100
274.800	-31.078	0.100
274.900	-31.646	0.099
275.000	-50.341	0.100
275.100	-31.078	0.100
275.200	-32.126	0.100
275.300	-40.512	0.100
275.400	-36.932	0.100
275.500	-32.933	0.099
275.600	-32.758	0.100
275.700	-28.995	0.099
275.800	-43.203	0.099
275.900	-34.708	0.099
276.000	-38.393	0.100
276.100	-31.236	0.100
276.200	-31.257	0.099
276.300	-23.086	0.100
276.400	-31.853	0.100
276.500	-28.264	0.100
276.600	-41.093	0.099
276.700	-39.509	0.100
276.800	-44.622	0.099
276.900	-28.506	0.100
277.000	-27.669	0.100
277.100	-52.327	0.100
277.200	-43.720	0.099
277.300	-33.054	0.100
277.400	-35.864	0.099
277.500	-27.937	0.100
277.600	-41.811	0.100
277.700	-27.025	0.100
277.800	-37.484	0.099
277.900	-34.185	0.099
278.000	-28.369	0.099
278.100	-43.703	0.100
278.200	-42.405	0.100
278.300	-39.623	0.100
278.400	-40.463	0.099
278.500	-43.170	0.099
278.600	-32.740	0.100
278.700	-40.690	0.099
278.800	-30.805	0.099
278.900	-32.005	0.100
279.000	-41.427	0.099
279.100	-34.547	0.099
279.200	-35.302	0.099
279.300	-35.256	0.099
279.400	-33.650	0.100
279.500	-31.081	0.100
279.600	-35.140	0.100
279.700	-38.245	0.100
279.800	-33.453	0.099
279.900	-39.234	0.100
280.000	-41.582	0.100
280.100	-29.194	0.099
280.200	-27.670	0.100
280.300	-38.604	0.100
280.400	-40.730	0.100
280.500	-43.806	0.100
280.600	-38.788	0.100
280.700	-35.610	0.099
280.800	-32.136	0.099
280.900	-38.536	0.100
281.000	-54.286	0.099
281.100	-33.885	0.099
281.200	-26.543	0.100
281.300	-41.887	0.100
281.400	-32.358	0.099
281.500	-41.082	0.100
281.600	-36.374	0.100
281.700	-41.039	0.100
281.800	-29.664	0.100
281.900	-35.464	0.100
282.000	-23.407	0.100
282.100	-31.023	0.100
282.200	-32.692	0.100
282.300	-41.203	0.100
282.400	-39.241	0.099
282.500	-38.984	0.100
282.600	-41.193	0.099
282.700	-39.044	0.100
282.800	-32.593	0.099
282.900	-36.569	0.099
283.000	-37.721	0.100
283.100	-39.142	0.100
283.200	-29.041	0.100
283.300	-35.186	0.100
283.400	-38.897	0.100
283.500	-41.168	0.100
283.600	-31.468	0.100
283.700	-27.151	0.100
283.800	-43.137	0.100
283.900	-23.989	0.099
284.000	-42.750	0.099
284.100	-39.093	0.099
284.200	-38.052	0.100
284.300	-34.808	0.100
284.400	-38.927	0.099
284.500	-37.434	0.100
284.600	-37.472	0.100
284.700	-21.577	0.099
284.800	-29.519	0.099
284.900	-32.332	0.099
285.000	-40.808	0.100
285.100	-38.354	0.099
285.200	-26.803	0.100
285.300	-35.873	0.099
285.400	-35.012	0.100
285.500	-54.090	0.099
285.600	-30.864	0.099
285.700	-39.066	0.099
285.800	-40.552	0.099
285.900	-33.761	0.099
286.000	-24.657	0.100
286.100	-36.661	0.100
286.200	-39.038	0.100
286.300	-34.773	0.099
286.400	-21.619	0.100
286.500	-31.270	0.100
286.600	-50.874	0.100
286.700	-28.367	0.099
286.800	-27.647	0.100
286.900	-41.589	0.099
287.000	-31.878	0.100
287.100	-32.675	0.099
287.200	-27.697	0.100
287.300	-35.646	0.099
287.400	-36.507	0.100
287.500	-37.183	0.099
287.600	-40.697	0.099
287.700	-32.518	0.100
287.800	-36.843	0.099
287.900	-31.271	0.099
288.000	-40.930	0.100
288.100	-32.194	0.100
288.200	-39.351	0.099
288.300	-43.721	0.099
288.400	-39.358	0.100
288.500	-38.724	0.100
288.600	-32.662	0.100
288.700	-34.420	0.099
288.800	-30.882	0.100
288.900	-39.008	0.099
289.000	-36.665	0.100
289.100	-30.915	0.099
289.200	-32.736	0.100
289.300	-44.658	0.100
289.400	-29.313	0.100
289.500	-32.843	0.099
289.600	-32.993	0.099
289.700	-25.101	0.100
289.800	-42.378	0.099
289.900	-37.880	0.100
290.000	-39.393	0.100
290.100	-34.042	0.099
290.200	-30.114	0.099
290.300	-29.944	0.099
290.400	-44.317	0.099
290.500	-27.900	0.099
290.600	-32.838	0.099
290.700	-29.167	0.099
290.800	-30.416	0.099
290.900	-29.679	0.100
291.000	-28.762	0.099
291.100	-27.755	0.099
291.200	-34.141	0.100
291.300	-41.007	0.100
291.400	-38.183	0.099
291.500	-37.692	0.099
291.600	-39.164	0.099
291.700	-28.641	0.100
291.800	-36.124	0.100
291.900	-31.451	0.100
292.000	-19.005	0.100
292.100	-29.635	0.100
292.200	-31.626	0.099
292.300	-22.299	0.099
292.400	-33.427	0.099
292.500	-49.882	0.099
292.600	-41.573	0.099
292.700	-32.623	0.099
292.800	-39.049	0.099
292.900	-34.575	0.099
293.000	-38.431	0.099
293.100	-30.441	0.099
293.200	-26.604	0.099
293.300	-36.506	0.100
293.400	-37.680	0.099
293.500	-29.486	0.099
293.600	-34.515	0.100
293.700	-36.164	0.100
293.800	-42.687	0.100
293.900	-39.509	0.099
294.000	-42.503	0.100
294.100	-43.820	0.099
294.200	-36.508	0.100
294.300	-23.717	0.099
294.400	-34.081	0.099
294.500	-48.723	0.099
294.600	-30.236	0.100
294.700	-24.703	0.100
294.800	-31.003	0.100
294.900	-15.149	0.099
295.000	-26.092	0.099
295.100	-37.016	0.099
295.200	-29.447	0.099
295.300	-30.981	0.099
295.400	-37.655	0.099
295.500	-33.650	0.099
295.600	-50.259	0.099
295.700	-37.899	0.099
295.800	-43.948	0.099
295.900	-32.047	0.099
296.000	-29.906	0.099
296.100	-30.656	0.099
296.200	-21.419	0.100
296.300	-26.164	0.100
296.400	-33.023	0.100
296.500	-29.082	0.099
296.600	-30.921	0.100
296.700	-45.219	0.100
296.800	-30.008	0.100
296.900	-37.495	0.099
297.000	-33.084	0.099
297.100	-31.913	0.099
297.200	-33.961	0.099
297.300	-47.531	0.099
297.400	-17.330	0.099
297.500	-23.754	0.099
297.600	-30.852	0.099
297.700	-30.524	0.099
297.800	-31.697	0.099
297.900	-31.519	0.099
298.000	-41.184	0.099
298.100	-23.066	0.099
298.200	-32.862	0.099
298.300	-40.553	0.099
298.400	-27.955	0.100
298.500	-38.419	0.099
298.600	-43.156	0.099
298.700	-40.796	0.099
298.800	-36.197	0.099
298.900	-34.060	0.099
299.000	-11.906	0.099
299.100	-22.841	0.099
299.200	-35.863	0.099
299.300	-23.363	0.100
299.400	-34.471	0.099
299.500	-29.253	0.100
299.600	-33.551	0.099
299.700	-39.710	0.099
299.800	-17.393	0.099
299.900	-45.701	0.099
300.000	-40.817	0.099
300.100	-29.519	0.099
300.200	-42.500	0.100
300.300	-27.585	0.100
300.400	-27.916	0.100
300.500	-23.857	0.100
300.600	-33.580	0.100
300.700	-27.945	0.099
300.800	-42.349	0.100
300.900	-26.606	0.100
301.000	-21.006	0.099
301.100	-36.495	0.100
301.200	-23.889	0.100
301.300	-40.829	0.099
301.400	-30.493	0.100
301.500	-38.588	0.100
301.600	-42.135	0.099
301.700	-31.167	0.099
301.800	-24.995	0.100
301.900	-43.238	0.099
302.000	-30.418	0.099
302.100	-26.992	0.099
302.200	-36.872	0.099
302.300	-35.257	0.099
302.400	-29.786	0.100
302.500	-27.549	0.100
302.600	-34.264	0.099
302.700	-33.298	0.100
302.800	-34.098	0.099
302.900	-30.152	0.099
303.000	-22.640	0.099
303.100	-32.473	0.100
303.200	-19.645	0.099
303.300	-24.751	0.100
303.400	-31.072	0.100
303.500	-31.479	0.099
303.600	-47.592	0.099
303.700	-32.677	0.100
303.800	-26.938	0.099
303.900	-42.387	0.100
304.000	-32.605	0.100
304.100	-31.332	0.100
304.200	-32.956	0.099
304.300	-27.169	0.099
304.400	-23.371	0.100
304.500	-34.420	0.099
304.600	-31.371	0.100
304.700	-20.007	0.099
304.800	-32.197	0.100
304.900	-44.141	0.099
305.000	-44.267	0.099
305.100	-43.510	0.099
305.200	-31.180	0.099
305.300	-18.232	0.099
305.400	-35.737	0.099
305.500	-9.357	0.099
305.600	-24.020	0.100
305.700	-33.370	0.100
305.800	-33.658	0.099
305.900	-34.917	0.099
306.000	-36.635	0.099
306.100	-25.928	0.099
306.200	-23.216	0.099
306.300	-28.318	0.099
306.400	-26.245	0.099
306.500	-30.286	0.099
306.600	-43.363	0.099
306.700	-38.182	0.099
306.800	-28.815	0.100
306.900	-21.281	0.099
307.000	-23.674	0.099
307.100	-32.534	0.099
307.200	-22.124	0.099
307.300	-31.557	0.099
307.400	-38.782	0.099
307.500	-32.916	0.100
307.600	-22.671	0.099
307.700	-23.588	0.099
307.800	-34.621	0.099
307.900	-31.328	0.100
308.000	-30.821	0.100
308.100	-26.373	0.099
308.200	-31.017	0.100
308.300	-21.003	0.099
308.400	-26.599	0.100
308.500	-31.771	0.099
308.600	-47.027	0.100
308.700	-19.360	0.100
308.800	-27.258	0.099
308.900	-33.644	0.099
309.000	-21.815	0.100
309.100	-19.746	0.099
309.200	-35.829	0.100
309.300	-28.311	0.099
309.400	-39.219	0.099
309.500	-38.698	0.099
309.600	-22.146	0.100
309.700	-44.314	0.099
309.800	-28.554	0.099
309.900	-23.879	0.099
310.000	-16.520	0.099
310.100	-19.936	0.099
310.200	-27.448	0.099
310.300	-29.322	0.099
310.400	-40.674	0.099
310.500	-19.051	0.099
310.600	-25.059	0.099
310.700	-22.296	0.100
310.800	-36.081	0.099
310.900	-30.479	0.100
311.000	-32.826	0.099
311.100	-20.429	0.100
311.200	-28.401	0.099
311.300	-29.903	0.099
311.400	-25.149	0.099
311.500	-31.989	0.100
311.600	-20.295	0.100
311.700	-35.096	0.100
311.800	-39.813	0.099
311.900	-28.489	0.100
312.000	-31.984	0.099
312.100	-31.532	0.100
312.200	-23.118	0.100
312.300	-29.089	0.099
312.400	-27.528	0.099
312.500	-35.217	0.100
312.600	-33.581	0.100
312.700	-30.020	0.099
312.800	-37.608	0.099
312.900	-21.507	0.099
313.000	-29.226	0.099
313.100	-28.858	0.099
313.200	-25.232	0.099
313.300	-23.606	0.100
313.400	-28.575	0.099
313.500	-20.205	0.099
313.600	-30.951	0.099
313.700	-31.608	0.099
313.800	-25.562	0.099
313.900	-30.548	0.099
314.000	-37.954	0.100
314.100	-35.382	0.099
314.200	-17.974	0.099
314.300	-21.732	0.099
314.400	-25.077	0.099
314.500	-32.885	0.099
314.600	-22.334	0.099
314.700	-34.350	0.100
314.800	-25.021	0.099
314.900	-26.106	0.099
315.000	-27.854	0.100
315.100	-26.170	0.099
315.200	-39.721	0.099
315.300	-20.192	0.100
315.400	-30.908	0.100
315.500	-29.799	0.100
315.600	-30.319	0.100
315.700	-26.748	0.099
315.800	-29.100	0.099
315.900	-46.016	0.099
316.000	-19.644	0.099
316.100	-34.708	0.099
316.200	-21.845	0.100
316.300	-30.148	0.099
316.400	-44.121	0.099
316.500	-33.099	0.099
316.600	-29.709	0.099
316.700	-30.099	0.099
316.800	-21.917	0.099
316.900	-12.466	0.099
317.000	-21.859	0.100
317.100	-30.905	0.099
317.200	-31.308	0.100
317.300	-38.278	0.099
317.400	-33.589	0.100
317.500	-25.513	0.099
317.600	-21.889	0.099
317.700	-35.219	0.099
317.800	-22.820	0.099
317.900	-28.723	0.100
318.000	-32.653	0.099
318.100	-35.695	0.099
318.200	-32.455	0.100
318.300	-31.203	0.099
318.400	-28.193	0.099
318.500	-34.019	0.099
318.600	-29.143	0.099
318.700	-22.685	0.099
318.800	-32.859	0.100
318.900	-23.130	0.099
319.000	-18.935	0.099
319.100	-34.742	0.100
319.200	-27.176	0.099
319.300	-31.293	0.099
319.400	-25.101	0.099
319.500	-33.506	0.099
319.600	-33.300	0.099
319.700	-33.110	0.099
319.800	-23.496	0.099
319.900	-29.796	0.099
320.000	-14.887	0.099
320.100	-34.851	0.099
320.200	-27.359	0.100
320.300	-24.115	0.099
320.400	-21.586	0.099
320.500	-28.384	0.099
320.600	-31.828	0.099
320.700	-33.998	0.099
320.800	-31.504	0.099
320.900	-38.923	0.099
321.000	-20.547	0.099
321.100	-32.833	0.099
321.200	-35.661	0.099
321.300	-19.019	0.099
321.400	-27.020	0.099
321.500	-21.753	0.099
321.600	-33.297	0.099
321.700	-23.479	0.099
321.800	-28.676	0.099
321.900	-23.266	0.099
322.000	-33.512	0.100
322.100	-38.870	0.100
322.200	-31.146	0.099
322.300	-30.146	0.099
322.400	-22.597	0.099
322.500	-24.544	0.099
322.600	-28.439	0.100
322.700	-22.025	0.099
322.800	-24.695	0.099
322.900	-47.666	0.099
323.000	-28.188	0.100
323.100	-21.293	0.099
323.200	-16.714	0.099
323.300	-42.137	0.099
323.400	-25.742	0.100
323.500	-26.683	0.099
323.600	-17.796	0.099
323.700	-36.576	0.099
323.800	-24.669	0.100
323.900	-21.425	0.099
324.000	-37.061	0.099
324.100	-38.880	0.099
324.200	-19.802	0.099
324.300	-20.583	0.099
324.400	-23.270	0.099
324.500	-25.529	0.099
324.600	-14.152	0.099
324.700	-31.028	0.099
324.800	-23.806	0.100
324.900	-21.628	0.100
325.000	-45.030	0.099
325.100	-31.873	0.099
325.200	-28.607	0.099
325.300	-36.208	0.099
325.400	-13.707	0.100
325.500	-25.553	0.099
325.600	-23.545	0.099
325.700	-46.858	0.099
325.800	-20.994	0.100
325.900	-26.721	0.099
326.000	-16.585	0.099
326.100	-27.255	0.100
326.200	-23.857	0.099
326.300	-25.808	0.099
326.400	-35.679	0.099
326.500	-32.651	0.099
326.600	-35.733	0.099
326.700	-18.432	0.100
326.800	-13.959	0.099
326.900	-34.427	0.099
327.000	-32.642	0.100
327.100	-27.549	0.099
327.200	-34.854	0.100
327.300	-23.557	0.099
327.400	-22.930	0.099
327.500	-29.259	0.099
327.600	-28.227	0.100
327.700	-35.042	0.099
327.800	-27.545	0.099
327.900	-35.068	0.100
328.000	-9.495	0.099
328.100	-36.733	0.100
328.200	-20.533	0.099
328.300	-27.711	0.099
328.400	-32.790	0.100
328.500	-23.248	0.099
328.600	-16.596	0.099
328.700	-32.904	0.099
328.800	-9.507	0.099
328.900	-27.431	0.099
329.000	-26.640	0.099
329.100	-36.426	0.099
329.200	-21.647	0.099
329.300	-26.170	0.100
329.400	-34.143	0.099
329.500	-26.671	0.100
329.600	-26.113	0.099
329.700	-36.994	0.099
329.800	-25.359	0.099
329.900	-23.378	0.099
330.000	-32.986	0.100
330.100	-9.169	0.099
330.200	-14.815	0.099
330.300	-2.520	0.099
330.400	-6.679	0.099
330.500	15.604	0.099
330.600	9.359	0.100
330.700	15.535	0.099
330.800	14.160	0.099
330.900	12.866	0.099
331.000	35.366	0.099
331.100	29.423	0.100
331.200	21.007	0.099
331.300	31.785	0.100
331.400	14.604	0.099
331.500	31.811	0.100
331.600	27.316	0.099
331.700	33.568	0.099
331.800	6.531	0.099
331.900	20.922	0.100
332.000	27.647	0.099
332.100	13.194	0.099
332.200	22.803	0.100
332.300	21.543	0.100
332.400	18.867	0.099
332.500	20.596	0.100
332.600	8.638	0.100
332.700	17.069	0.099
332.800	10.356	0.099
332.900	16.669	0.100
333.000	14.671	0.100
333.100	14.952	0.099
333.200	26.721	0.099
333.300	7.957	0.099
333.400	11.751	0.099
333.500	15.220	0.099
333.600	17.613	0.099
333.700	13.118	0.099
333.800	1.659	0.100
333.900	20.973	0.100
334.000	20.972	0.100
334.100	14.710	0.100
334.200	11.112	0.099
334.300	21.771	0.100
334.400	21.480	0.099
334.500	25.236	0.099
334.600	8.907	0.100
334.700	14.080	0.099
334.800	11.181	0.099
334.900	16.155	0.099
335.000	16.397	0.099
335.100	13.228	0.099
335.200	18.345	0.099
335.300	11.796	0.100
335.400	17.481	0.099
335.500	18.271	0.100
335.600	19.694	0.100
335.700	1.150	0.100
335.800	16.534	0.099
335.900	23.685	0.100
336.000	15.276	0.100
336.100	23.005	0.099
336.200	11.999	0.100
336.300	11.664	0.100
336.400	7.922	0.100
336.500	12.539	0.099
336.600	24.476	0.099
336.700	9.580	0.099
336.800	12.593	0.099
336.900	19.559	0.100
337.000	6.951	0.100
337.100	17.125	0.099
337.200	39.054	0.099
337.300	24.247	0.100
337.400	17.750	0.099
337.500	13.677	0.099
337.600	19.562	0.100
337.700	25.373	0.100
337.800	33.820	0.100
337.900	35.769	0.099
338.000	24.096	0.100
338.100	24.570	0.099
338.200	14.658	0.100
338.300	18.537	0.099
338.400	29.144	0.099
338.500	25.405	0.100
338.600	37.325	0.099
338.700	14.756	0.100
338.800	9.018	0.100
338.900	18.821	0.099
339.000	31.706	0.099
339.100	28.915	0.099
339.200	39.558	0.099
339.300	36.609	0.099
339.400	37.114	0.099
339.500	31.269	0.099
339.600	31.014	0.099
339.700	39.104	0.099
339.800	20.506	0.100
339.900	50.794	0.100
340.000	44.011	0.099
340.100	30.035	0.100
340.200	37.106	0.099
340.300	33.021	0.100
340.400	49.071	0.100
340.500	38.359	0.099
340.600	36.171	0.099
340.700	48.397	0.099
340.800	42.140	0.099
340.900	26.396	0.099
341.000	35.280	0.099
341.100	50.898	0.099
341.200	42.025	0.099
341.300	51.614	0.099
341.400	50.009	0.099
341.500	36.744	0.099
341.600	42.587	0.099
341.700	51.626	0.099
341.800	46.734	0.100
341.900	41.561	0.099
342.000	54.538	0.099
342.100	52.724	0.099
342.200	43.069	0.099
342.300	48.886	0.100
342.400	54.051	0.099
342.500	36.769	0.099
342.600	64.050	0.099
342.700	58.671	0.099
342.800	54.214	0.099
342.900	53.511	0.100
343.000	57.772	0.100
343.100	55.154	0.099
343.200	44.461	0.099
343.300	59.582	0.100
343.400	58.360	0.100
343.500	40.997	0.100
343.600	50.309	0.099
343.700	37.899	0.100
343.800	56.811	0.100
343.900	57.049	0.099
344.000	57.471	0.099
344.100	61.756	0.100
344.200	52.665	0.100
344.300	49.690	0.100
344.400	45.774	0.099
344.500	52.542	0.099
344.600	46.052	0.100
344.700	62.595	0.100
344.800	53.896	0.099
344.900	46.444	0.100
345.000	45.893	0.100
345.100	59.019	0.100
345.200	57.452	0.100
345.300	58.903	0.099
345.400	67.351	0.100
345.500	49.043	0.100
345.600	60.223	0.100
345.700	50.156	0.099
345.800	55.862	0.100
345.900	49.598	0.100
346.000	55.021	0.100
346.100	41.378	0.100
346.200	57.071	0.100
346.300	71.773	0.099
346.400	46.411	0.100
346.500	48.407	0.099
346.600	50.540	0.099
346.700	58.704	0.099
346.800	55.682	0.099
346.900	60.124	0.099
347.000	63.245	0.100
347.100	55.447	0.100
347.200	47.198	0.100
347.300	57.305	0.100
347.400	60.328	0.099
347.500	47.848	0.100
347.600	54.197	0.100
347.700	51.722	0.099
347.800	62.973	0.100
347.900	63.208	0.099
348.000	56.855	0.099
348.100	54.414	0.099
348.200	73.896	0.099
348.300	76.019	0.100
348.400	50.784	0.100
348.500	53.055	0.099
348.600	58.287	0.100
348.700	52.844	0.100
348.800	58.931	0.100
348.900	47.487	0.100
349.000	62.665	0.100
349.100	44.701	0.100
349.200	52.276	0.099
349.300	64.232	0.100
349.400	56.639	0.100
349.500	46.950	0.099
349.600	72.923	0.099
349.700	55.251	0.100
349.800	67.707	0.100
349.900	53.010	0.100
350.000	60.484	0.100
350.100	56.314	0.099
350.200	56.849	0.100
350.300	41.709	0.100
350.400	56.124	0.100
350.500	71.104	0.099
350.600	46.929	0.099
350.700	66.502	0.099
350.800	55.596	0.100
350.900	65.532	0.099
351.000	60.961	0.099
351.100	57.675	0.100
351.200	49.614	0.099
351.300	69.690	0.099
351.400	75.752	0.100
351.500	62.864	0.100
351.600	61.658	0.100
351.700	66.678	0.100
351.800	50.673	0.100
351.900	67.038	0.099
352.000	45.911	0.099
352.100	53.416	0.100
352.200	61.103	0.100
352.300	69.841	0.099
352.400	68.806	0.100
352.500	56.572	0.100
352.600	70.341	0.100
352.700	59.668	0.100
352.800	67.625	0.100
352.900	51.311	0.100
353.000	55.940	0.100
353.100	44.884	0.100
353.200	58.960	0.100
353.300	54.630	0.099
353.400	65.548	0.099
353.500	58.774	0.100
353.600	59.275	0.100
353.700	49.464	0.100
353.800	64.009	0.100
353.900	58.035	0.100
354.000	58.011	0.099
354.100	62.593	0.100
354.200	55.661	0.100
354.300	56.525	0.100
354.400	67.851	0.100
354.500	52.880	0.099
354.600	51.113	0.100
354.700	75.006	0.100
354.800	56.852	0.100
354.900	68.355	0.100
355.000	52.469	0.100
355.100	43.698	0.099
355.200	54.151	0.100
355.300	64.321	0.100
355.400	66.031	0.100
355.500	72.084	0.100
355.600	50.665	0.100
355.700	38.071	0.100
355.800	49.430	0.100
355.900	63.799	0.100
356.000	54.325	0.100
356.100	67.250	0.100
356.200	61.524	0.100
356.300	59.929	0.100
356.400	55.308	0.100
356.500	59.910	0.100
356.600	41.326	0.100
356.700	61.062	0.100
356.800	66.246	0.100
356.900	57.823	0.100
357.000	47.827	0.100
357.100	52.923	0.099
357.200	76.809	0.100
357.300	72.043	0.100
357.400	56.618	0.100
357.500	52.458	0.099
357.600	52.853	0.100
357.700	59.910	0.099
357.800	66.821	0.100
357.900	57.893	0.100
358.000	48.948	0.099
358.100	59.216	0.100
358.200	52.571	0.100
358.300	54.280	0.100
358.400	69.982	0.100
358.500	44.320	0.100
358.600	62.156	0.100
358.700	57.807	0.100
358.800	59.402	0.100
358.900	66.169	0.100
359.000	64.454	0.099
359.100	53.474	0.099
359.200	61.472	0.100
359.300	64.014	0.099
359.400	48.816	0.100
359.500	65.259	0.100
359.600	63.016	0.099
359.700	62.691	0.100
359.800	54.906	0.100
359.900	53.353	0.099
360.000	54.411	0.100
360.100	53.727	0.100
360.200	59.988	0.100
360.300	57.642	0.100
360.400	39.230	0.099
360.500	64.326	0.099
360.600	55.826	0.100
360.700	64.042	0.100
360.800	54.697	0.100
360.900	54.266	0.100
361.000	56.207	0.100
361.100	60.077	0.100
361.200	63.352	0.100
361.300	61.911	0.100
361.400	51.923	0.100
361.500	50.025	0.100
361.600	60.025	0.100
361.700	43.354	0.099
361.800	60.355	0.100
361.900	50.054	0.100
362.000	50.549	0.100
362.100	60.650	0.100
362.200	59.109	0.100
362.300	57.195	0.100
362.400	70.545	0.099
362.500	55.666	0.100
362.600	65.186	0.100
362.700	54.131	0.100
362.800	62.440	0.100
362.900	70.579	0.100
363.000	55.959	0.099
363.100	62.083	0.100
363.200	51.654	0.099
363.300	62.393	0.100
363.400	46.346	0.100
363.500	55.182	0.100
363.600	59.793	0.100
363.700	62.504	0.100
363.800	58.574	0.100
363.900	57.727	0.100
364.000	67.272	0.100
364.100	61.340	0.100
364.200	59.993	0.099
364.300	54.864	0.100
364.400	61.154	0.100
364.500	53.735	0.100
364.600	62.373	0.100
364.700	51.270	0.100
364.800	52.270	0.100
364.900	53.924	0.100
365.000	71.821	0.100
365.100	47.857	0.100
365.200	66.550	0.100
365.300	46.976	0.100
365.400	59.891	0.099
365.500	48.712	0.100
365.600	65.562	0.100
365.700	47.406	0.099
365.800	50.571	0.100
365.900	48.499	0.099
366.000	65.775	0.100
366.100	62.071	0.099
366.200	67.076	0.100
366.300	63.857	0.099
366.400	42.822	0.100
366.500	61.798	0.099
366.600	50.204	0.100
366.700	70.885	0.100
366.800	48.711	0.100
366.900	58.994	0.100
367.000	55.791	0.100
367.100	45.145	0.099
367.200	51.359	0.100
367.300	63.779	0.099
367.400	61.632	0.100
367.500	62.338	0.100
367.600	55.266	0.100
367.700	61.212	0.100
367.800	61.123	0.099
367.900	60.442	0.100
368.000	63.552	0.099
368.100	56.485	0.099
368.200	46.890	0.100
368.300	55.312	0.099
368.400	58.271	0.099
368.500	50.194	0.099
368.600	59.146	0.099
368.700	37.042	0.100
368.800	63.399	0.099
368.900	55.670	0.099
369.000	65.015	0.099
369.100	57.663	0.099
369.200	68.245	0.099
369.300	54.290	0.099
369.400	45.495	0.099
369.500	66.384	0.100
369.600	64.820	0.099
369.700	53.369	0.099
369.800	61.930	0.099
369.900	56.570	0.100
370.000	55.401	0.099
370.100	58.552	0.099
370.200	44.714	0.099
370.300	51.953	0.100
370.400	44.330	0.100
370.500	59.127	0.100
370.600	61.377	0.099
370.700	46.804	0.100
370.800	52.931	0.100
370.900	54.433	0.100
371.000	48.907	0.100
371.100	48.677	0.100
371.200	50.252	0.100
371.300	51.357	0.100
371.400	46.205	0.100
371.500	49.006	0.099
371.600	61.567	0.099
371.700	52.638	0.100
371.800	52.667	0.099
371.900	60.329	0.100
372.000	52.227	0.099
372.100	60.493	0.099
372.200	60.303	0.100
372.300	74.639	0.100
372.400	55.889	0.099
372.500	49.774	0.099
372.600	57.635	0.100
372.700	59.259	0.099
372.800	55.769	0.100
372.900	65.258	0.100
373.000	46.307	0.100
373.100	54.912	0.100
373.200	57.111	0.100
373.300	47.237	0.100
373.400	56.970	0.100
373.500	65.593	0.100
373.600	53.914	0.099
373.700	40.419	0.100
373.800	52.438	0.100
373.900	66.785	0.100
374.000	59.194	0.100
374.100	63.952	0.100
374.200	50.717	0.100
374.300	62.173	0.100
374.400	54.039	0.100
374.500	54.069	0.099
374.600	53.763	0.100
374.700	55.592	0.100
374.800	60.058	0.099
374.900	62.152	0.100
375.000	47.926	0.100
375.100	64.384	0.100
375.200	57.598	0.100
375.300	61.608	0.100
375.400	59.703	0.100
375.500	45.195	0.099
375.600	60.518	0.100
375.700	51.518	0.100
375.800	51.025	0.100
375.900	56.503	0.100
376.000	51.893	0.100
376.100	66.866	0.099
376.200	49.175	0.100
376.300	67.749	0.100
376.400	48.036	0.100
376.500	52.566	0.100
376.600	46.591	0.100
376.700	51.104	0.099
376.800	52.957	0.100
376.900	52.917	0.100
377.000	57.247	0.100
377.100	54.702	0.100
377.200	58.490	0.100
377.300	54.984	0.100
377.400	57.156	0.100
377.500	41.144	0.100
377.600	74.194	0.100
377.700	49.451	0.099
377.800	62.220	0.100
377.900	56.813	0.100
378.000	45.795	0.100
378.100	65.811	0.099
378.200	45.263	0.100
378.300	53.252	0.100
378.400	45.352	0.100
378.500	54.392	0.100
378.600	51.538	0.100
378.700	60.442	0.100
378.800	66.313	0.100
378.900	53.655	0.099
379.000	62.679	0.100
379.100	46.892	0.100
379.200	42.213	0.100
379.300	57.003	0.100
379.400	44.873	0.100
379.500	65.227	0.100
379.600	56.974	0.100
379.700	60.728	0.100
379.800	59.133	0.100
379.900	58.338	0.100
380.000	46.472	0.100
380.100	48.020	0.100
380.200	40.123	0.099
380.300	41.165	0.100
380.400	61.480	0.100
380.500	40.326	0.100
380.600	58.032	0.100
380.700	58.345	0.100
380.800	53.147	0.100
380.900	40.476	0.099
381.000	44.972	0.100
381.100	70.506	0.100
381.200	64.986	0.100
381.300	57.435	0.100
381.400	64.898	0.100
381.500	53.212	0.100
381.600	64.990	0.100
381.700	31.719	0.100
381.800	61.436	0.100
381.900	44.410	0.100
382.000	67.310	0.099
382.100	50.209	0.100
382.200	48.282	0.100
382.300	54.298	0.100
382.400	51.473	0.099
382.500	64.673	0.100
382.600	53.050	0.099
382.700	49.371	0.100
382.800	46.027	0.100
382.900	57.137	0.100
383.000	56.630	0.100
383.100	67.884	0.100
383.200	61.390	0.100
383.300	22.133	0.100
383.400	66.478	0.100
383.500	44.928	0.100
383.600	49.407	0.100
383.700	54.568	0.100
383.800	45.947	0.100
383.900	51.302	0.100
384.000	51.657	0.100
384.100	53.487	0.100
384.200	41.064	0.100
384.300	47.715	0.100
384.400	45.161	0.100
384.500	57.473	0.099
384.600	45.040	0.100
384.700	54.653	0.100
384.800	55.290	0.100
384.900	56.338	0.100
385.000	54.666	0.100
385.100	51.740	0.099
385.200	30.985	0.099
385.300	60.155	0.100
385.400	55.646	0.099
385.500	69.448	0.099
385.600	45.400	0.099
385.700	53.527	0.100
385.800	57.937	0.099
385.900	49.447	0.100
386.000	47.991	0.099
386.100	62.889	0.099
386.200	67.695	0.099
386.300	60.188	0.100
386.400	42.880	0.099
386.500	49.605	0.100
386.600	57.073	0.100
386.700	44.398	0.100
386.800	47.753	0.100
386.900	57.314	0.100
387.000	51.914	0.100
387.100	61.468	0.100
387.200	55.154	0.100
387.300	49.664	0.100
387.400	41.132	0.099
387.500	46.227	0.099
387.600	55.443	0.100
387.700	60.582	0.100
387.800	63.433	0.100
387.900	54.395	0.100
388.000	37.636	0.100
388.100	59.686	0.100
388.200	55.726	0.100
388.300	66.537	0.100
388.400	53.036	0.100
388.500	39.506	0.100
388.600	56.531	0.099
388.700	55.819	0.100
388.800	57.863	0.100
388.900	38.165	0.100
389.000	57.865	0.100
389.100	58.871	0.100
389.200	73.504	0.100
389.300	52.831	0.100
389.400	57.263	0.100
389.500	47.987	0.100
389.600	51.964	0.100
389.700	48.540	0.100
389.800	48.070	0.100
389.900	40.885	0.100
390.000	52.992	0.100
390.100	46.865	0.100
390.200	36.743	0.100
390.300	34.911	0.100
390.400	17.751	0.100
390.500	29.496	0.100
390.600	16.754	0.100
390.700	12.311	0.100
390.800	31.640	0.100
390.900	15.711	0.100
391.000	3.433	0.100
391.100	10.266	0.100
391.200	6.495	0.100
391.300	8.860	0.100
391.400	13.210	0.100
391.500	7.827	0.100
391.600	1.117	0.100
391.700	9.588	0.100
391.800	12.879	0.100
391.900	0.727	0.100
392.000	11.099	0.100
392.100	5.527	0.100
392.200	5.166	0.100
392.300	5.796	0.100
392.400	5.039	0.100
392.500	1.028	0.100
392.600	-5.474	0.100
392.700	-19.341	0.100
392.800	-3.681	0.100
392.900	5.149	0.100
393.000	-9.362	0.100
393.100	-4.661	0.099
393.200	-2.797	0.100
393.300	-12.676	0.100
393.400	-6.919	0.100
393.500	-11.185	0.100
393.600	-4.716	0.100
393.700	-9.571	0.099
393.800	-3.119	0.100
393.900	-21.762	0.100
394.000	-13.901	0.099
394.100	-16.483	0.100
394.200	-13.402	0.100
394.300	-20.102	0.100
394.400	-15.600	0.100
394.500	-15.887	0.099
394.600	-27.137	0.100
394.700	-9.249	0.099
394.800	-9.695	0.100
394.900	-21.455	0.099
395.000	-29.776	0.099
395.100	-19.955	0.099
395.200	-23.215	0.100
395.300	-25.891	0.099
395.400	-31.715	0.099
395.500	-11.689	0.099
395.600	-21.095	0.099
395.700	-13.799	0.100
395.800	-18.544	0.100
395.900	-27.470	0.099
396.000	-31.156	0.099
396.100	-26.324	0.100
396.200	-22.254	0.099
396.300	-18.662	0.099
396.400	-22.070	0.099
396.500	-24.392	0.100
396.600	-25.243	0.100
396.700	-16.756	0.099
396.800	-13.288	0.100
396.900	-18.318	0.099
397.000	-29.282	0.100
397.100	-23.733	0.100
397.200	-14.927	0.100
397.300	-17.825	0.100
397.400	-27.553	0.100
397.500	-28.501	0.100
397.600	-27.836	0.100
397.700	-21.451	0.100
397.800	-20.935	0.100
397.900	-23.212	0.099
398.000	-16.723	0.100
398.100	-26.712	0.100
398.200	-30.778	0.100
398.300	-22.354	0.100
398.400	-29.839	0.100
398.500	-21.891	0.100
398.600	-12.678	0.100
398.700	-25.350	0.100
398.800	-16.546	0.100
398.900	-27.322	0.100
399.000	-37.935	0.100
399.100	-31.039	0.099
399.200	-21.894	0.100
399.300	-11.277	0.099
399.400	-31.318	0.099
399.500	-23.350	0.099
399.600	-19.675	0.100
399.700	-21.067	0.100
399.800	-19.260	0.099
399.900	-16.524	0.099
400.000	-31.848	0.099
400.100	-30.149	0.100
400.200	-36.722	0.099
400.300	-18.793	0.099
400.400	-25.753	0.100
400.500	-22.120	0.099
400.600	-31.560	0.100
400.700	-27.530	0.099
400.800	-26.523	0.099
400.900	-3.571	0.100
401.000	-29.955	0.099
401.100	-27.129	0.099
401.200	-29.870	0.100
401.300	-30.554	0.099
401.400	-19.882	0.099
401.500	-11.869	0.100
401.600	-5.806	0.100
401.700	-14.294	0.100
401.800	-21.929	0.100
401.900	-30.532	0.100
402.000	-19.487	0.099
402.100	-27.718	0.100
402.200	-30.055	0.100
402.300	-28.753	0.100
402.400	-28.193	0.100
402.500	-19.062	0.099
402.600	-18.294	0.100
402.700	-26.507	0.100
402.800	-25.480	0.100
402.900	-29.143	0.100
403.000	-20.034	0.099
403.100	-26.377	0.100
403.200	-24.281	0.099
403.300	-23.270	0.100
403.400	-27.379	0.100
403.500	-25.666	0.100
403.600	-28.323	0.100
403.700	-32.360	0.100
403.800	-14.364	0.099
403.900	-19.453	0.100
404.000	-26.429	0.100
404.100	-38.716	0.100
404.200	-25.247	0.100
404.300	-25.001	0.100
404.400	-23.407	0.100
404.500	-31.914	0.100
404.600	-39.109	0.100
404.700	-31.225	0.100
404.800	-24.596	0.099
404.900	-31.830	0.100
405.000	-21.479	0.100
405.100	-14.950	0.100
405.200	-24.015	0.099
405.300	-33.502	0.100
405.400	-35.623	0.100
405.500	-32.472	0.100
405.600	-14.083	0.100
405.700	-31.018	0.100
405.800	-36.348	0.100
405.900	-33.447	0.100
406.000	-30.536	0.099
406.100	-10.674	0.100
406.200	-20.538	0.100
406.300	-26.030	0.100
406.400	-40.841	0.100
406.500	-25.564	0.100
406.600	-33.841	0.099
406.700	-45.068	0.100
406.800	-32.498	0.100
406.900	-45.353	0.100
407.000	-22.521	0.099
407.100	-34.516	0.099
407.200	-32.887	0.100
407.300	-18.397	0.100
407.400	-18.656	0.099
407.500	-23.309	0.100
407.600	-40.171	0.100
407.700	-20.897	0.100
407.800	-39.421	0.100
407.900	-19.760	0.100
408.000	-27.861	0.100
408.100	-40.849	0.099
408.200	-31.470	0.100
408.300	-29.814	0.100
408.400	-36.314	0.100
408.500	-30.736	0.100
408.600	-11.984	0.100
408.700	-41.303	0.100
408.800	-37.417	0.100
408.900	-11.790	0.100
409.000	-25.806	0.100
409.100	-32.245	0.100
409.200	-22.577	0.100
409.300	-30.327	0.099
409.400	-30.989	0.099
409.500	-29.389	0.100
409.600	-32.082	0.100
409.700	-23.822	0.100
409.800	-33.777	0.100
409.900	-41.159	0.100
410.000	-24.728	0.100
410.100	-30.464	0.099
410.200	-27.774	0.100
410.300	-47.789	0.100
410.400	-29.405	0.100
410.500	-31.523	0.100
410.600	-30.168	0.100
410.700	-40.873	0.100
410.800	-42.242	0.100
410.900	-33.700	0.100
411.000	-22.978	0.100
411.100	-45.683	0.100
411.200	-29.178	0.100
411.300	-30.910	0.100
411.400	-39.519	0.100
411.500	-33.065	0.100
411.600	-46.898	0.099
411.700	-32.222	0.100
411.800	-23.814	0.100
411.900	-32.152	0.099
412.000	-29.511	0.100
412.100	-31.869	0.099
412.200	-41.967	0.100
412.300	-38.663	0.099
412.400	-22.080	0.100
412.500	-28.716	0.100
412.600	-37.387	0.099
412.700	-39.425	0.100
412.800	-34.156	0.100
412.900	-34.472	0.099
413.000	-31.220	0.099
413.100	-28.229	0.100
413.200	-35.150	0.100
413.300	-28.105	0.100
413.400	-29.434	0.099
413.500	-15.702	0.100
413.600	-27.950	0.100
413.700	-31.240	0.100
413.800	-33.215	0.100
413.900	-37.905	0.099
414.000	-36.682	0.099
414.100	-38.733	0.100
414.200	-34.006	0.100
414.300	-31.108	0.100
414.400	-43.731	0.100
414.500	-29.907	0.100
414.600	-40.426	0.100
414.700	-29.106	0.099
414.800	-24.884	0.099
414.900	-33.414	0.100
415.000	-27.552	0.099
415.100	-30.673	0.099
415.200	-44.943	0.100
415.300	-34.978	0.099
415.400	-22.750	0.100
415.500	-35.255	0.100
415.600	-35.043	0.100
415.700	-22.033	0.100
415.800	-36.672	0.100
415.900	-44.044	0.100
416.000	-30.282	0.100
416.100	-28.458	0.100
416.200	-23.253	0.100
416.300	-35.512	0.099
416.400	-37.756	0.100
416.500	-34.757	0.100
416.600	-36.304	0.100
416.700	-34.315	0.100
416.800	-49.878	0.100
416.900	-34.331	0.100
417.000	-42.621	0.100
417.100	-22.900	0.100
417.200	-41.881	0.100
417.300	-30.122	0.099
417.400	-29.911	0.100
417.500	-24.213	0.100
417.600	-52.269	0.100
417.700	-40.779	0.099
417.800	-32.726	0.100
417.900	-39.761	0.100
418.000	-31.096	0.100
418.100	-33.540	0.100
418.200	-42.585	0.100
418.300	-37.076	0.100
418.400	-29.487	0.100
418.500	-36.029	0.100
418.600	-43.537	0.100
418.700	-38.839	0.099
418.800	-34.762	0.100
418.900	-32.378	0.100
419.000	-43.328	0.100
419.100	-44.534	0.100
419.200	-28.926	0.100
419.300	-43.241	0.099
419.400	-31.696	0.099
419.500	-41.888	0.099
419.600	-30.031	0.100
419.700	-34.504	0.099
419.800	-37.581	0.100
419.900	-29.897	0.100
420.000	-37.503	0.099
420.100	-48.997	0.100
420.200	-43.974	0.099
420.300	-40.090	0.099
420.400	-34.893	0.099
420.500	-23.137	0.099
420.600	-28.949	0.100
420.700	-37.972	0.099
420.800	-45.975	0.099
420.900	-36.007	0.100
421.000	-40.459	0.099
421.100	-32.711	0.100
421.200	-38.356	0.099
421.300	-46.162	0.100
421.400	-45.362	0.099
421.500	-36.954	0.099
421.600	-41.904	0.100
421.700	-36.018	0.100
421.800	-25.451	0.099
421.900	-29.222	0.100
422.000	-35.312	0.099
422.100	-42.746	0.100
422.200	-23.031	0.099
422.300	-44.985	0.100
422.400	-46.700	0.099
422.500	-35.890	0.100
422.600	-46.949	0.099
422.700	-43.997	0.099
422.800	-31.952	0.099
422.900	-22.650	0.100
423.000	-33.118	0.099
423.100	-33.759	0.100
423.200	-35.924	0.100
423.300	-38.951	0.100
423.400	-47.848	0.100
423.500	-39.005	0.100
423.600	-31.556	0.100
423.700	-30.453	0.100
423.800	-43.353	0.100
423.900	-43.742	0.100
424.000	-37.158	0.100
424.100	-40.848	0.100
424.200	-33.502	0.100
424.300	-52.545	0.099
424.400	-13.352	0.100
424.500	-57.309	0.100
424.600	-30.063	0.100
424.700	-42.501	0.100
424.800	-21.242	0.100
424.900	-42.067	0.099
425.000	-37.104	0.099
425.100	-35.936	0.100
425.200	-37.379	0.100
425.300	-40.335	0.099
425.400	-46.898	0.100
425.500	-40.238	0.100
425.600	-36.629	0.099
425.700	-38.623	0.100
425.800	-35.299	0.100
425.900	-38.452	0.099
426.000	-39.388	0.099
426.100	-44.966	0.100
426.200	-41.005	0.100
426.300	-28.610	0.100
426.400	-38.860	0.100
426.500	-39.901	0.100
426.600	-41.875	0.099
426.700	-24.144	0.100
426.800	-41.203	0.100
426.900	-35.263	0.099
427.000	-38.039	0.100
427.100	-40.171	0.100
427.200	-34.028	0.099
427.300	-24.289	0.100
427.400	-40.467	0.099
427.500	-34.790	0.100
427.600	-51.344	0.100
427.700	-31.240	0.100
427.800	-31.015	0.100
427.900	-47.345	0.100
428.000	-27.938	0.100
428.100	-36.353	0.099
428.200	-39.854	0.099
428.300	-40.984	0.099
428.400	-31.785	0.100
428.500	-36.536	0.100
428.600	-40.126	0.100
428.700	-25.723	0.099
428.800	-40.662	0.100
428.900	-35.949	0.100
429.000	-45.256	0.099
429.100	-48.310	0.099
429.200	-40.104	0.100
429.300	-34.524	0.099
429.400	-48.394	0.099
429.500	-28.634	0.100
429.600	-40.627	0.100
429.700	-31.406	0.100
429.800	-37.499	0.100
429.900	-35.560	0.100
430.000	-58.157	0.100
430.100	-32.743	0.100
430.200	-36.229	0.100
430.300	-37.494	0.100
430.400	-32.413	0.100
430.500	-39.207	0.100
430.600	-36.197	0.100
430.700	-27.418	0.100
430.800	-37.325	0.100
430.900	-43.554	0.100
431.000	-38.822	0.100
431.100	-35.748	0.100
431.200	-29.530	0.100
431.300	-35.175	0.100
431.400	-32.036	0.100
431.500	-30.106	0.100
431.600	-37.465	0.100
431.700	-35.483	0.100
431.800	-36.273	0.100
431.900	-42.568	0.100
432.000	-42.107	0.100
432.100	-26.179	0.100
432.200	-49.303	0.100
432.300	-43.874	0.100
432.400	-21.888	0.100
432.500	-32.434	0.100
432.600	-37.057	0.100
432.700	-43.227	0.100
432.800	-36.637	0.100
432.900	-36.691	0.100
433.000	-47.088	0.100
433.100	-33.955	0.099
433.200	-35.819	0.100
433.300	-17.267	0.100
433.400	-35.425	0.100
433.500	-37.731	0.100
433.600	-46.978	0.100
433.700	-38.928	0.100
433.800	-47.540	0.100
433.900	-39.021	0.100
434.000	-32.778	0.100
434.100	-32.246	0.100
434.200	-39.161	0.100
434.300	-32.160	0.100
434.400	-50.148	0.100
434.500	-52.015	0.100
434.600	-37.918	0.100
434.700	-36.455	0.100
434.800	-49.930	0.100
434.900	-30.131	0.100
435.000	-42.498	0.100
435.100	-21.973	0.100
435.200	-34.117	0.100
435.300	-32.017	0.100
435.400	-39.577	0.100
435.500	-33.858	0.100
435.600	-46.647	0.100
435.700	-42.074	0.100
435.800	-36.241	0.100
435.900	-25.795	0.100
436.000	-45.545	0.099
436.100	-44.704	0.100
436.200	-37.525	0.100
436.300	-45.954	0.100
436.400	-51.144	0.100
436.500	-49.523	0.100
436.600	-34.735	0.100
436.700	-35.690	0.100
436.800	-48.684	0.100
436.900	-45.975	0.100
437.000	-45.234	0.100
437.100	-29.446	0.100
437.200	-35.818	0.100
437.300	-30.922	0.100
437.400	-50.411	0.100
437.500	-39.421	0.100
437.600	-36.040	0.100
437.700	-20.976	0.100
437.800	-50.291	0.100
437.900	-38.831	0.100
438.000	-48.889	0.100
438.100	-31.609	0.100
438.200	-38.353	0.100
438.300	-25.705	0.100
438.400	-27.337	0.100
438.500	-30.039	0.100
438.600	-32.345	0.100
438.700	-49.606	0.100
438.800	-34.362	0.100
438.900	-41.785	0.100
439.000	-37.767	0.100
439.100	-35.293	0.100
439.200	-35.514	0.100
439.300	-35.166	0.100
439.400	-16.251	0.100
439.500	-42.066	0.100
439.600	-46.072	0.100
439.700	-37.355	0.100
439.800	-37.063	0.100
439.900	-39.122	0.100
440.000	-50.049	0.100
440.100	-35.539	0.100
440.200	-32.098	0.100
440.300	-37.358	0.100
440.400	-32.855	0.100
440.500	-41.124	0.100
440.600	-40.137	0.100
440.700	-34.496	0.100
440.800	-42.729	0.100
440.900	-39.330	0.100
441.000	-25.199	0.100
441.100	-44.443	0.100
441.200	-41.084	0.100
441.300	-39.125	0.100
441.400	-34.087	0.100
441.500	-36.441	0.100
441.600	-31.692	0.100
441.700	-51.009	0.100
441.800	-48.397	0.100
441.900	-27.799	0.100
442.000	-33.180	0.100
442.100	-20.832	0.100
442.200	-30.769	0.100
442.300	-42.302	0.100
442.400	-38.652	0.100
442.500	-44.817	0.099
442.600	-29.040	0.100
442.700	-38.577	0.100
442.800	-26.879	0.100
442.900	-37.188	0.100
443.000	-36.037	0.100
443.100	-24.796	0.100
443.200	-33.457	0.100
443.300	-34.582	0.100
443.400	-36.749	0.100
443.500	-35.174	0.099
443.600	-32.442	0.100
443.700	-50.453	0.100
443.800	-33.372	0.100
443.900	-34.909	0.100
444.000	-36.577	0.100
444.100	-46.436	0.100
444.200	-28.104	0.100
444.300	-14.366	0.100
444.400	-44.896	0.100
444.500	-35.605	0.100
444.600	-40.330	0.100
444.700	-35.822	0.100
444.800	-30.914	0.100
444.900	-33.247	0.100
445.000	-29.787	0.100
445.100	-40.410	0.100
445.200	-41.038	0.100
445.300	-37.054	0.100
445.400	-42.798	0.100
445.500	-51.952	0.100
445.600	-29.910	0.100
445.700	-32.104	0.100
445.800	-35.970	0.100
445.900	-28.689	0.100
446.000	-25.702	0.100
446.100	-31.589	0.100
446.200	-34.510	0.100
446.300	-42.785	0.100
446.400	-26.735	0.100
446.500	-50.686	0.100
446.600	-37.932	0.100
446.700	-34.774	0.100
446.800	-32.053	0.100
446.900	-39.625	0.100
447.000	-26.515	0.100
447.100	-51.893	0.100
447.200	-31.630	0.100
447.300	-36.867	0.100
447.400	-49.668	0.100
447.500	-21.484	0.100
447.600	-36.047	0.100
447.700	-38.464	0.100
447.800	-43.128	0.100
447.900	-23.393	0.100
448.000	-27.219	0.100
448.100	-33.753	0.100
448.200	-34.379	0.100
448.300	-38.077	0.100
448.400	-34.573	0.100
448.500	-42.444	0.099
448.600	-42.724	0.100
448.700	-33.794	0.100
448.800	-23.813	0.100
448.900	-38.628	0.100
449.000	-41.481	0.100
449.100	-32.761	0.100
449.200	-29.103	0.100
449.300	-27.952	0.100
449.400	-38.330	0.100
449.500	-32.638	0.100
449.600	-37.084	0.099
449.700	-32.122	0.100
449.800	-43.945	0.100
449.900	-27.410	0.100
450.000	-45.931	0.100
450.100	-16.383	0.100
450.200	-33.802	0.100
450.300	-38.697	0.100
450.400	-41.992	0.100
450.500	-38.991	0.100
450.600	-22.714	0.100
450.700	-28.667	0.100
450.800	-35.296	0.100
450.900	-45.731	0.100
451.000	-48.872	0.100
451.100	-21.817	0.100
451.200	-24.540	0.100
451.300	-43.022	0.100
451.400	-28.537	0.100
451.500	-35.616	0.100
451.600	-29.290	0.100
451.700	-33.549	0.099
451.800	-24.920	0.100
451.900	-35.667	0.100
452.000	-36.536	0.100
452.100	-38.317	0.100
452.200	-37.778	0.100
452.300	-37.063	0.100
452.400	-35.274	0.100
452.500	-34.452	0.100
452.600	-40.289	0.100
452.700	-31.709	0.100
452.800	-37.970	0.100
452.900	-36.097	0.100
453.000	-31.167	0.100
453.100	-44.846	0.100
453.200	-21.601	0.100
453.300	-40.468	0.100
453.400	-28.821	0.100
453.500	-31.381	0.100
453.600	-34.462	0.100
453.700	-20.673	0.100
453.800	-33.611	0.100
453.900	-31.528	0.100
454.000	-40.546	0.100
454.100	-38.747	0.100
454.200	-35.401	0.100
454.300	-45.710	0.100
454.400	-33.510	0.100
454.500	-28.951	0.100
454.600	-47.529	0.100
454.700	-38.476	0.100
454.800	-36.232	0.100
454.900	-23.446	0.100
455.000	-34.943	0.100
455.100	-21.427	0.100
455.200	-36.223	0.100
455.300	-52.727	0.100
455.400	-32.548	0.100
455.500	-25.993	0.100
455.600	-36.303	0.100
455.700	-34.574	0.099
455.800	-23.268	0.100
455.900	-20.289	0.100
456.000	-25.943	0.100
456.100	-28.870	0.100
456.200	-36.446	0.100
456.300	-41.980	0.100
456.400	-33.951	0.100
456.500	-36.712	0.099
456.600	-33.306	0.100
456.700	-38.669	0.100
456.800	-33.070	0.100
456.900	-30.732	0.100
457.000	-27.610	0.100
457.100	-25.439	0.100
457.200	-36.299	0.099
457.300	-30.524	0.100
457.400	-33.511	0.100
457.500	-29.931	0.100
457.600	-27.592	0.100
457.700	-29.997	0.100
457.800	-16.939	0.100
457.900	-34.829	0.100
458.000	-47.133	0.100
458.100	-30.117	0.100
458.200	-48.150	0.099
458.300	-42.761	0.100
458.400	-18.628	0.100
458.500	-32.840	0.100
458.600	-22.880	0.100
458.700	-24.493	0.100
458.800	-22.415	0.100
458.900	-41.045	0.100
459.000	-34.013	0.100
459.100	-28.472	0.100
459.200	-29.660	0.100
459.300	-29.796	0.100
459.400	-26.616	0.100
459.500	-31.776	0.100
459.600	-39.911	0.100
459.700	-23.049	0.100
459.800	-26.953	0.100
459.900	-34.316	0.100
460.000	-29.558	0.100
460.100	-27.383	0.099
460.200	-28.813	0.100
460.300	-34.842	0.100
460.400	-22.648	0.100
460.500	-29.916	0.100
460.600	-24.065	0.100
460.700	-43.586	0.100
460.800	-53.623	0.100
460.900	-36.618	0.100
461.000	-38.632	0.100
461.100	-29.090	0.100
461.200	-33.778	0.100
461.300	-29.658	0.100
461.400	-23.974	0.100
461.500	-31.911	0.099
461.600	-36.645	0.100
461.700	-34.545	0.100
461.800	-29.937	0.099
461.900	-37.394	0.100
462.000	-29.402	0.100
462.100	-24.671	0.100
462.200	-31.738	0.100
462.300	-27.036	0.099
462.400	-28.886	0.100
462.500	-32.860	0.099
462.600	-37.160	0.100
462.700	-22.330	0.099
462.800	-33.986	0.099
462.900	-26.836	0.099
463.000	-33.226	0.100
463.100	-37.409	0.100
463.200	-34.854	0.099
463.300	-24.982	0.100
463.400	-16.129	0.100
463.500	-41.763	0.100
463.600	-37.039	0.099
463.700	-33.561	0.100
463.800	-24.809	0.100
463.900	-24.915	0.100
464.000	-27.351	0.100
464.100	-35.442	0.099
464.200	-28.753	0.100
464.300	-29.903	0.100
464.400	-32.005	0.100
464.500	-35.169	0.099
464.600	-23.889	0.099
464.700	-41.572	0.099
464.800	-25.382	0.100
464.900	-27.574	0.099
465.000	-29.074	0.099
465.100	-27.424	0.100
465.200	-30.807	0.099
465.300	-26.788	0.100
465.400	-26.816	0.099
465.500	-26.456	0.100
465.600	-23.675	0.100
465.700	-31.341	0.100
465.800	-23.765	0.100
465.900	-24.457	0.100
466.000	-24.130	0.100
466.100	-30.123	0.100
466.200	-48.091	0.100
466.300	-27.869	0.100
466.400	-45.649	0.100
466.500	-25.646	0.100
466.600	-33.513	0.099
466.700	-30.278	0.099
466.800	-29.317	0.100
466.900	-33.522	0.099
467.000	-36.059	0.100
467.100	-22.257	0.100
467.200	-26.078	0.100
467.300	-41.310	0.100
467.400	-27.078	0.100
467.500	-32.605	0.099
467.600	-30.664	0.100
467.700	-36.470	0.100
467.800	-29.766	0.099
467.900	-24.794	0.100
468.000	-29.110	0.100
468.100	-19.505	0.100
468.200	-36.949	0.099
468.300	-32.556	0.099
468.400	-43.595	0.100
468.500	-29.666	0.100
468.600	-38.994	0.099
468.700	-35.513	0.099
468.800	-23.235	0.100
468.900	-35.487	0.100
469.000	-19.819	0.100
469.100	-28.791	0.099
469.200	-47.537	0.099
469.300	-30.152	0.100
469.400	-23.709	0.099
469.500	-18.504	0.100
469.600	-22.390	0.100
469.700	-33.619	0.099
469.800	-30.574	0.100
469.900	-26.188	0.100
470.000	-20.416	0.099
470.100	-17.235	0.100
470.200	-42.226	0.100
470.300	-24.347	0.099
470.400	-29.549	0.100
470.500	-34.300	0.099
470.600	-27.270	0.100
470.700	-35.580	0.099
470.800	-24.875	0.100
470.900	-33.649	0.100
471.000	-32.726	0.100
471.100	-30.521	0.100
471.200	-37.197	0.099
471.300	-22.334	0.100
471.400	-42.287	0.100
471.500	-25.183	0.100
471.600	-17.228	0.100
471.700	-38.902	0.100
471.800	-40.126	0.100
471.900	-32.130	0.099
472.000	-24.821	0.100
472.100	-28.893	0.099
472.200	-26.195	0.100
472.300	-26.951	0.100
472.400	-41.969	0.100
472.500	-25.102	0.100
472.600	-20.477	0.100
472.700	-36.005	0.099
472.800	-34.137	0.100
472.900	-28.507	0.100
473.000	-29.031	0.100
473.100	-51.913	0.099
473.200	-5.453	0.100
473.300	-30.155	0.100
473.400	-28.863	0.100
473.500	-27.005	0.100
473.600	-25.593	0.100
473.700	-43.509	0.100
473.800	-27.706	0.100
473.900	-20.078	0.100
474.000	-21.934	0.100
474.100	-25.720	0.100
474.200	-67.645	0.100
474.300	-28.472	0.099
474.400	-29.419	0.100
474.500	-35.033	0.099
474.600	-32.479	0.100
474.700	-23.563	0.100
474.800	-20.722	0.100
474.900	-35.119	0.100
475.000	-31.785	0.100
475.100	-35.871	0.099
475.200	-18.769	0.099
475.300	-27.315	0.099
475.400	-17.703	0.100
475.500	-27.504	0.100
475.600	-46.673	0.099
475.700	-25.719	0.100
475.800	-17.850	0.100
475.900	-21.163	0.100
476.000	-30.167	0.100
476.100	-33.251	0.100
476.200	-38.724	0.100
476.300	-35.371	0.099
476.400	-41.502	0.099
476.500	-18.625	0.100
476.600	-33.459	0.100
476.700	-28.179	0.100
476.800	-37.385	0.099
476.900	-23.900	0.100
477.000	-26.836	0.100
477.100	-17.432	0.100
477.200	-25.448	0.100
477.300	-43.438	0.099
477.400	-42.805	0.099
477.500	-16.898	0.100
477.600	-21.196	0.099
477.700	-26.159	0.099
477.800	-21.108	0.100
477.900	-38.350	0.099
478.000	-35.634	0.099
478.100	-38.168	0.100
478.200	-29.757	0.100
478.300	-32.282	0.099
478.400	-24.717	0.100
478.500	-30.148	0.099
478.600	-31.572	0.100
478.700	-33.155	0.100
478.800	-27.178	0.100
478.900	-29.766	0.100
479.000	-25.405	0.099
479.100	-23.609	0.100
479.200	-32.463	0.100
479.300	-36.114	0.099
479.400	-29.546	0.099
479.500	-23.935	0.100
479.600	-31.451	0.100
479.700	-26.348	0.100
479.800	-31.814	0.100
479.900	-25.001	0.100
480.000	-27.742	0.100
480.100	-12.161	0.099
480.200	-21.963	0.099
480.300	-6.757	0.099
480.400	-1.303	0.100
480.500	-4.988	0.100
480.600	15.290	0.099
480.700	20.260	0.100
480.800	10.450	0.099
480.900	23.474	0.100
481.000	8.183	0.099
481.100	20.603	0.100
481.200	18.990	0.099
481.300	29.220	0.099
481.400	12.419	0.099
481.500	15.327	0.100
481.600	19.608	0.100
481.700	40.343	0.100
481.800	21.575	0.100
481.900	14.111	0.099
482.000	18.130	0.099
482.100	31.654	0.100
482.200	33.932	0.100
482.300	21.133	0.100
482.400	2.184	0.100
482.500	10.398	0.099
482.600	12.309	0.099
482.700	17.919	0.100
482.800	15.336	0.100
482.900	16.613	0.100
483.000	6.930	0.100
483.100	33.671	0.100
483.200	6.770	0.100
483.300	-1.902	0.100
483.400	22.495	0.100
483.500	17.784	0.100
483.600	10.969	0.099
483.700	16.772	0.099
483.800	12.772	0.100
483.900	15.886	0.099
484.000	22.737	0.100
484.100	14.432	0.099
484.200	13.790	0.100
484.300	16.158	0.099
484.400	19.757	0.100
484.500	12.326	0.099
484.600	18.487	0.099
484.700	13.452	0.099
484.800	19.696	0.100
484.900	11.721	0.100
485.000	20.963	0.099
485.100	17.155	0.099
485.200	16.932	0.100
485.300	7.630	0.099
485.400	16.767	0.100
485.500	11.954	0.099
485.600	15.938	0.100
485.700	14.441	0.100
485.800	13.129	0.100
485.900	11.279	0.099
486.000	6.985	0.100
486.100	5.386	0.100
486.200	16.927	0.099
486.300	20.187	0.100
486.400	21.003	0.099
486.500	17.333	0.099
486.600	11.863	0.100
486.700	6.733	0.099
486.800	27.214	0.099
486.900	21.835	0.099
487.000	22.015	0.100
487.100	29.079	0.100
487.200	25.463	0.099
487.300	13.725	0.099
487.400	14.971	0.100
487.500	17.280	0.100
487.600	25.742	0.100
487.700	16.765	0.100
487.800	21.515	0.100
487.900	13.587	0.100
488.000	18.638	0.100
488.100	37.036	0.100
488.200	29.678	0.099
488.300	27.402	0.100
488.400	33.091	0.100
488.500	14.515	0.100
488.600	21.029	0.100
488.700	25.087	0.099
488.800	29.412	0.100
488.900	38.810	0.100
489.000	35.352	0.099
489.100	37.909	0.100
489.200	29.543	0.100
489.300	35.019	0.100
489.400	31.512	0.100
489.500	26.282	0.100
489.600	29.439	0.099
489.700	29.457	0.100
489.800	33.027	0.100
489.900	34.517	0.100
490.000	29.023	0.100
490.100	40.775	0.100
490.200	20.371	0.100
490.300	46.590	0.100
490.400	46.532	0.100
490.500	34.966	0.099
490.600	30.904	0.100
490.700	20.547	0.100
490.800	45.115	0.100
490.900	40.464	0.100
491.000	47.152	0.100
491.100	51.784	0.100
491.200	31.769	0.100
491.300	40.304	0.100
491.400	44.459	0.099
491.500	32.137	0.100
491.600	63.213	0.100
491.700	55.581	0.100
491.800	41.588	0.100
491.900	39.486	0.100
492.000	40.091	0.099
492.100	47.322	0.100
492.200	38.034	0.100
492.300	57.917	0.100
492.400	55.489	0.100
492.500	53.618	0.099
492.600	43.372	0.100
492.700	44.215	0.100
492.800	48.971	0.100
492.900	44.065	0.100
493.000	37.115	0.100
493.100	48.699	0.100
493.200	47.400	0.100
493.300	52.338	0.100
493.400	63.573	0.100
493.500	45.907	0.100
493.600	52.758	0.100
493.700	51.770	0.100
493.800	45.101	0.099
493.900	56.780	0.100
494.000	43.834	0.100
494.100	46.708	0.100
494.200	49.379	0.100
494.300	51.731	0.100
494.400	39.403	0.100
494.500	56.531	0.100
494.600	42.905	0.100
494.700	45.628	0.100
494.800	49.338	0.100
494.900	42.795	0.100
495.000	53.008	0.100
495.100	58.781	0.100
495.200	51.070	0.100
495.300	57.092	0.100
495.400	46.889	0.100
495.500	48.004	0.100
495.600	47.840	0.100
495.700	59.800	0.100
495.800	51.631	0.100
495.900	49.737	0.100
496.000	54.480	0.100
496.100	46.102	0.100
496.200	47.177	0.100
496.300	56.673	0.100
496.400	66.877	0.100
496.500	46.480	0.100
496.600	50.270	0.100
496.700	51.602	0.100
496.800	50.173	0.100
496.900	60.011	0.100
497.000	60.981	0.100
497.100	64.481	0.100
497.200	45.329	0.100
497.300	44.436	0.100
497.400	65.180	0.100
497.500	60.306	0.100
497.600	51.434	0.100
497.700	52.846	0.100
497.800	55.984	0.100
497.900	57.654	0.100
498.000	59.723	0.100
498.100	61.025	0.100
498.200	56.965	0.100
498.300	56.628	0.100
498.400	59.960	0.100
498.500	51.848	0.100
498.600	59.258	0.100
498.700	50.476	0.099
498.800	48.677	0.100
498.900	60.232	0.100
499.000	73.708	0.100
499.100	58.865	0.100
499.200	67.639	0.100
499.300	56.980	0.100
499.400	57.136	0.100
499.500	63.847	0.100
499.600	61.464	0.100
499.700	65.509	0.100
499.800	54.747	0.100
499.900	50.986	0.100
500.000	63.878	0.100
500.100	58.608	0.100
500.200	65.784	0.100
500.300	66.901	0.100
500.400	48.997	0.100
500.500	54.837	0.100
500.600	58.583	0.100
500.700	53.050	0.100
500.800	52.348	0.100
500.900	54.116	0.100
501.000	61.748	0.100
501.100	54.761	0.100
501.200	67.301	0.099
501.300	64.627	0.100
501.400	63.944	0.100
501.500	54.658	0.100
501.600	61.009	0.100
501.700	56.807	0.100
501.800	67.957	0.100
501.900	57.940	0.100
502.000	64.953	0.100
502.100	63.261	0.100
502.200	59.864	0.100
502.300	50.840	0.100
502.400	63.355	0.100
502.500	61.117	0.100
502.600	58.638	0.100
502.700	49.273	0.100
502.800	55.285	0.100
502.900	60.304	0.100
503.000	55.523	0.100
503.100	64.083	0.100
503.200	48.671	0.100
503.300	61.272	0.100
503.400	49.291	0.099
503.500	49.219	0.100
503.600	68.448	0.100
503.700	56.514	0.099
503.800	61.958	0.100
503.900	78.321	0.100
504.000	47.235	0.099
504.100	66.484	0.100
504.200	65.242	0.100
504.300	63.142	0.100
504.400	67.269	0.100
504.500	47.779	0.100
504.600	62.381	0.100
504.700	66.341	0.100
504.800	61.611	0.100
504.900	49.467	0.100
505.000	51.634	0.100
505.100	72.590	0.100
505.200	58.673	0.100
505.300	56.558	0.099
505.400	58.096	0.100
505.500	52.651	0.100
505.600	63.247	0.100
505.700	56.823	0.100
505.800	60.027	0.100
505.900	57.710	0.100
506.000	60.463	0.100
506.100	46.035	0.100
506.200	61.265	0.100
506.300	52.154	0.100
506.400	81.985	0.100
506.500	44.535	0.100
506.600	70.879	0.100
506.700	59.284	0.100
506.800	51.072	0.100
506.900	55.070	0.100
507.000	65.119	0.100
507.100	50.820	0.100
507.200	73.977	0.100
507.300	46.658	0.100
507.400	62.247	0.100
507.500	73.278	0.100
507.600	64.520	0.100
507.700	54.093	0.100
507.800	73.208	0.100
507.900	64.526	0.100
508.000	51.883	0.100
508.100	57.412	0.099
508.200	50.501	0.100
508.300	48.997	0.100
508.400	63.658	0.100
508.500	61.796	0.100
508.600	69.163	0.100
508.700	59.907	0.100
508.800	55.620	0.099
508.900	55.551	0.100
509.000	71.250	0.100
509.100	53.803	0.100
509.200	61.703	0.100
509.300	65.165	0.100
509.400	58.408	0.100
509.500	64.992	0.100
509.600	68.659	0.100
509.700	64.596	0.100
509.800	55.993	0.100
509.900	42.650	0.100
510.000	54.029	0.100
510.100	54.375	0.100
510.200	55.529	0.100
510.300	56.299	0.100
510.400	41.407	0.100
510.500	45.573	0.100
510.600	77.486	0.100
510.700	56.451	0.100
510.800	58.140	0.100
510.900	48.060	0.100
511.000	60.757	0.100
511.100	54.873	0.100
511.200	52.373	0.100
511.300	64.031	0.100
511.400	48.891	0.100
511.500	70.057	0.100
511.600	53.874	0.100
511.700	53.884	0.100
511.800	57.113	0.100
511.900	57.268	0.100
512.000	52.488	0.100
512.100	57.337	0.100
512.200	53.249	0.099
512.300	49.136	0.100
512.400	58.782	0.100
512.500	61.507	0.099
512.600	59.121	0.100
512.700	51.764	0.099
512.800	56.977	0.100
512.900	66.622	0.099
513.000	73.082	0.100
513.100	57.718	0.100
513.200	47.115	0.100
513.300	59.148	0.100
513.400	64.545	0.100
513.500	62.786	0.099
513.600	70.520	0.099
513.700	70.741	0.100
513.800	48.305	0.100
513.900	68.850	0.100
514.000	57.452	0.100
514.100	56.374	0.100
514.200	52.559	0.100
514.300	57.096	0.100
514.400	42.522	0.100
514.500	60.919	0.099
514.600	61.945	0.100
514.700	52.350	0.100
514.800	73.293	0.100
514.900	66.248	0.100
515.000	54.122	0.100
515.100	53.296	0.100
515.200	55.808	0.100
515.300	52.207	0.100
515.400	55.868	0.100
515.500	52.823	0.100
515.600	56.114	0.100
515.700	52.931	0.100
515.800	75.482	0.100
515.900	50.840	0.100
516.000	56.614	0.100
516.100	56.986	0.100
516.200	63.204	0.100
516.300	52.246	0.100
516.400	51.657	0.100
516.500	49.746	0.100
516.600	39.838	0.100
516.700	59.337	0.100
516.800	65.951	0.100
516.900	71.332	0.100
517.000	71.982	0.100
517.100	58.207	0.100
517.200	49.904	0.099
517.300	47.515	0.100
517.400	58.895	0.100
517.500	66.315	0.100
517.600	60.551	0.100
517.700	57.532	0.100
517.800	56.120	0.100
517.900	50.446	0.100
518.000	57.838	0.100
518.100	59.331	0.100
518.200	60.679	0.100
518.300	57.327	0.100
518.400	54.710	0.100
518.500	60.123	0.100
518.600	55.363	0.100
518.700	52.391	0.100
518.800	63.730	0.100
518.900	50.065	0.100
519.000	65.442	0.100
519.100	50.312	0.100
519.200	54.881	0.100
519.300	63.413	0.100
519.400	52.908	0.100
519.500	58.453	0.100
519.600	59.078	0.100
519.700	33.692	0.100
519.800	48.307	0.100
519.900	67.117	0.100
520.000	48.474	0.100
520.100	59.719	0.099
520.200	73.965	0.099
520.300	43.400	0.100
520.400	47.762	0.100
520.500	59.466	0.100
520.600	66.623	0.100
520.700	44.925	0.100
520.800	61.137	0.100
520.900	58.421	0.100
521.000	57.464	0.100
521.100	63.126	0.100
521.200	53.523	0.100
521.300	51.120	0.100
521.400	50.817	0.100
521.500	43.156	0.100
521.600	54.788	0.100
521.700	61.009	0.100
521.800	55.121	0.100
521.900	44.370	0.100
522.000	59.910	0.100
522.100	33.522	0.100
522.200	55.623	0.099
522.300	58.425	0.100
522.400	62.094	0.100
522.500	51.820	0.100
522.600	47.518	0.100
522.700	52.882	0.100
522.800	55.131	0.100
522.900	52.600	0.100
523.000	57.745	0.100
523.100	57.660	0.099
523.200	54.944	0.100
523.300	56.694	0.100
523.400	52.391	0.100
523.500	63.666	0.100
523.600	56.708	0.100
523.700	46.245	0.100
523.800	49.123	0.099
523.900	55.956	0.100
524.000	39.985	0.100
524.100	58.491	0.100
524.200	50.697	0.100
524.300	55.349	0.100
524.400	45.069	0.100
524.500	64.933	0.100
524.600	42.747	0.099
524.700	71.384	0.100
524.800	48.118	0.100
524.900	60.176	0.100
525.000	68.919	0.100
525.100	53.062	0.100
525.200	55.885	0.100
525.300	67.572	0.100
525.400	48.326	0.100
525.500	40.957	0.100
525.600	56.281	0.100
525.700	58.131	0.100
525.800	65.969	0.100
525.900	53.348	0.100
526.000	55.022	0.100
526.100	61.395	0.100
526.200	55.124	0.100
526.300	50.933	0.100
526.400	47.087	0.100
526.500	55.940	0.100
526.600	48.385	0.100
526.700	50.463	0.100
526.800	36.363	0.100
526.900	64.934	0.100
527.000	54.375	0.100
527.100	60.633	0.100
527.200	52.125	0.100
527.300	65.091	0.100
527.400	51.225	0.100
527.500	44.041	0.100
527.600	50.607	0.100
527.700	39.120	0.100
527.800	58.412	0.100
527.900	51.182	0.100
528.000	52.037	0.100
528.100	57.101	0.099
528.200	50.517	0.100
528.300	70.139	0.100
528.400	50.993	0.100
528.500	58.394	0.100
528.600	56.893	0.100
528.700	56.105	0.100
528.800	50.140	0.100
528.900	48.894	0.100
529.000	51.960	0.100
529.100	58.547	0.100
529.200	63.879	0.100
529.300	62.098	0.100
529.400	53.315	0.100
529.500	43.401	0.100
529.600	51.342	0.100
529.700	52.469	0.100
529.800	53.429	0.100
529.900	43.618	0.100
530.000	50.957	0.100
530.100	57.115	0.099
530.200	57.395	0.100
530.300	44.480	0.100
530.400	60.789	0.100
530.500	62.268	0.100
530.600	62.903	0.100
530.700	57.350	0.100
530.800	53.780	0.100
530.900	42.761	0.100
531.000	38.544	0.100
531.100	56.110	0.100
531.200	46.328	0.100
531.300	52.940	0.100
531.400	53.355	0.100
531.500	68.802	0.100
531.600	43.254	0.100
531.700	55.069	0.100
531.800	52.064	0.100
531.900	59.466	0.099
532.000	49.046	0.100
532.100	56.082	0.100
532.200	50.060	0.100
532.300	55.585	0.100
532.400	48.742	0.100
532.500	43.300	0.100
532.600	57.035	0.100
532.700	44.015	0.100
532.800	53.199	0.100
532.900	46.273	0.100
533.000	49.386	0.100
533.100	50.483	0.100
533.200	58.546	0.100
533.300	52.563	0.100
533.400	49.601	0.100
533.500	50.441	0.100
533.600	39.099	0.100
533.700	65.096	0.100
533.800	47.371	0.100
533.900	53.392	0.100
534.000	63.032	0.100
534.100	53.517	0.100
534.200	45.688	0.100
534.300	46.367	0.100
534.400	58.956	0.100
534.500	52.859	0.100
534.600	54.965	0.100
534.700	57.997	0.100
534.800	46.583	0.100
534.900	53.701	0.100
535.000	54.151	0.100
535.100	54.108	0.100
535.200	52.930	0.100
535.300	52.850	0.100
535.400	50.688	0.100
535.500	50.906	0.100
535.600	57.822	0.100
535.700	48.171	0.100
535.800	38.267	0.100
535.900	52.951	0.100
536.000	45.889	0.100
536.100	64.350	0.100
536.200	70.596	0.100
536.300	66.684	0.100
536.400	49.410	0.100
536.500	41.425	0.100
536.600	55.470	0.100
536.700	58.398	0.100
536.800	47.791	0.100
536.900	51.964	0.100
537.000	52.479	0.100
537.100	51.990	0.100
537.200	70.837	0.100
537.300	48.455	0.100
537.400	50.652	0.100
537.500	53.617	0.100
537.600	50.584	0.100
537.700	47.364	0.100
537.800	56.384	0.100
537.900	49.931	0.100
538.000	50.106	0.100
538.100	57.909	0.100
538.200	43.659	0.100
538.300	51.409	0.100
538.400	54.905	0.100
538.500	53.215	0.100
538.600	38.602	0.100
538.700	54.549	0.100
538.800	56.438	0.100
538.900	60.477	0.100
539.000	48.706	0.100
539.100	47.952	0.100
539.200	52.936	0.100
539.300	65.791	0.100
539.400	49.153	0.100
539.500	55.057	0.100
539.600	50.222	0.100
539.700	41.011	0.100
539.800	61.537	0.100
539.900	50.981	0.100
540.000	47.963	0.100
540.100	52.358	0.100
540.200	27.587	0.100
540.300	35.992	0.100
540.400	39.036	0.100
540.500	7.596	0.100
540.600	36.820	0.100
540.700	29.346	0.100
540.800	16.672	0.100
540.900	9.872	0.100
541.000	20.755	0.099
541.100	7.841	0.100
541.200	-2.387	0.100
541.300	18.097	0.100
541.400	10.176	0.100
541.500	6.509	0.100
541.600	10.920	0.100
541.700	8.271	0.100
541.800	2.868	0.100
541.900	32.059	0.100
542.000	9.416	0.100
542.100	-3.365	0.100
542.200	-2.820	0.100
542.300	-10.955	0.100
542.400	-3.160	0.100
542.500	-14.593	0.100
542.600	9.130	0.100
542.700	-4.010	0.100
542.800	-5.942	0.100
542.900	-9.415	0.100
543.000	-1.442	0.100
543.100	-4.669	0.100
543.200	-12.152	0.100
543.300	-2.344	0.100
543.400	-9.036	0.100
543.500	-4.692	0.100
543.600	-9.516	0.100
543.700	-13.205	0.100
543.800	-15.394	0.100
543.900	-10.188	0.100
544.000	-22.659	0.100
544.100	-20.812	0.100
544.200	-9.334	0.100
544.300	-13.260	0.100
544.400	-16.775	0.100
544.500	-20.026	0.100
544.600	-22.793	0.100
544.700	-20.491	0.100
544.800	-30.294	0.100
544.900	-2.659	0.100
545.000	-9.554	0.100
545.100	-15.637	0.100
545.200	-11.368	0.100
545.300	-28.724	0.100
545.400	-32.074	0.100
545.500	-24.592	0.100
545.600	-25.557	0.100
545.700	-30.081	0.100
545.800	-30.414	0.100
545.900	-23.894	0.100
546.000	-18.698	0.100
546.100	-11.493	0.100
546.200	-27.759	0.100
546.300	-25.242	0.100
546.400	-28.062	0.100
546.500	-29.547	0.100
546.600	-25.677	0.100
546.700	-21.604	0.100
546.800	-32.009	0.100
546.900	-8.387	0.100
547.000	-20.061	0.100
547.100	-26.944	0.100
547.200	-26.831	0.100
547.300	-20.838	0.100
547.400	-33.603	0.100
547.500	-34.386	0.100
547.600	-8.436	0.100
547.700	-26.927	0.100
547.800	-30.823	0.100
547.900	-11.021	0.100
548.000	-17.867	0.100
548.100	-34.074	0.100
548.200	-25.743	0.100
548.300	-31.616	0.100
548.400	-12.286	0.100
548.500	-28.512	0.100
548.600	-26.601	0.100
548.700	-34.830	0.100
548.800	-31.452	0.100
548.900	-29.181	0.100
549.000	-23.848	0.100
549.100	-16.513	0.100
549.200	-22.603	0.100
549.300	-43.208	0.100
549.400	-24.611	0.100
549.500	-9.843	0.100
549.600	-18.248	0.100
549.700	-19.101	0.100
549.800	-21.481	0.100
549.900	-15.111	0.100
550.000	-24.166	0.100
550.100	-25.804	0.100
550.200	-17.952	0.100
550.300	-22.616	0.100
550.400	-21.924	0.100
550.500	-18.023	0.100
550.600	-40.818	0.100
550.700	-31.033	0.100
550.800	-13.662	0.100
550.900	-0.167	0.100
551.000	-46.564	0.100
551.100	-3.681	0.100
551.200	-34.288	0.100
551.300	-21.035	0.100
551.400	-32.185	0.100
551.500	-28.689	0.100
551.600	-33.343	0.100
551.700	-25.395	0.100
551.800	-15.539	0.100
551.900	-19.490	0.100
552.000	-33.380	0.100
552.100	-27.490	0.100
552.200	-25.429	0.100
552.300	-14.459	0.100
552.400	-33.709	0.100
552.500	-35.554	0.100
552.600	-37.545	0.100
552.700	-19.804	0.100
552.800	-8.985	0.100
552.900	-27.212	0.100
553.000	-29.180	0.100
553.100	-39.079	0.100
553.200	-28.987	0.100
553.300	-25.364	0.100
553.400	-27.106	0.100
553.500	-32.840	0.100
553.600	-18.589	0.100
553.700	-19.294	0.099
553.800	-32.167	0.100
553.900	-31.008	0.100
554.000	-31.407	0.100
554.100	-26.447	0.100
554.200	-30.059	0.100
554.300	-51.630	0.100
554.400	-24.821	0.100
554.500	-31.566	0.100
554.600	-30.329	0.100
554.700	-22.915	0.100
554.800	-16.995	0.100
554.900	-42.131	0.100
555.000	-40.526	0.100
555.100	-30.870	0.100
555.200	-25.216	0.100
555.300	-36.749	0.100
555.400	-17.876	0.100
555.500	-27.817	0.100
555.600	-34.345	0.100
555.700	-44.757	0.100
555.800	-36.308	0.100
555.900	-24.304	0.100
556.000	-28.515	0.100
556.100	-29.635	0.100
556.200	-30.495	0.100
556.300	-33.527	0.100
556.400	-33.024	0.100
556.500	-29.604	0.100
556.600	-13.036	0.100
556.700	-29.285	0.100
556.800	-35.372	0.100
556.900	-27.982	0.100
557.000	-49.282	0.100
557.100	-29.800	0.100
557.200	-31.485	0.100
557.300	-26.252	0.100
557.400	-27.211	0.100
557.500	-35.990	0.100
557.600	-34.252	0.100
557.700	-36.315	0.100
557.800	-37.259	0.100
557.900	-35.122	0.100
558.000	-42.329	0.100
558.100	-16.471	0.100
558.200	-17.826	0.100
558.300	-26.655	0.100
558.400	-31.507	0.100
558.500	-39.608	0.100
558.600	-43.251	0.100
558.700	-17.943	0.100
558.800	-33.791	0.100
558.900	-28.415	0.100
559.000	-32.989	0.100
559.100	-44.510	0.100
559.200	-31.691	0.100
559.300	-41.372	0.100
559.400	-26.323	0.100
559.500	-35.666	0.100
559.600	-37.585	0.100
559.700	-37.295	0.100
559.800	-36.161	0.100
559.900	-31.193	0.100
560.000	-46.793	0.100
560.100	-24.983	0.100
560.200	-27.778	0.100
560.300	-30.443	0.099
560.400	-30.275	0.100
560.500	-23.718	0.100
560.600	-35.921	0.100
560.700	-35.895	0.100
560.800	-31.569	0.100
560.900	-40.717	0.100
561.000	-28.103	0.100
561.100	-38.837	0.100
561.200	-33.950	0.100
561.300	-34.874	0.100
561.400	-29.388	0.100
561.500	-24.031	0.100
561.600	-36.353	0.100
561.700	-42.585	0.100
561.800	-34.633	0.100
561.900	-27.102	0.100
562.000	-20.147	0.100
562.100	-46.958	0.100
562.200	-23.347	0.100
562.300	-32.174	0.100
562.400	-34.402	0.100
562.500	-37.935	0.100
562.600	-32.832	0.100
562.700	-36.583	0.100
562.800	-35.814	0.100
562.900	-29.756	0.100
563.000	-20.251	0.100
563.100	-45.287	0.100
563.200	-29.532	0.100
563.300	-31.766	0.100
563.400	-31.406	0.100
563.500	-29.347	0.100
563.600	-32.454	0.100
563.700	-33.380	0.100
563.800	-46.994	0.100
563.900	-38.464	0.100
564.000	-24.082	0.100
564.100	-38.691	0.100
564.200	-41.665	0.100
564.300	-39.491	0.099
564.400	-24.806	0.100
564.500	-50.180	0.099
564.600	-20.087	0.100
564.700	-35.518	0.100
564.800	-35.477	0.100
564.900	-35.386	0.100
565.000	-35.335	0.100
565.100	-40.698	0.099
565.200	-26.436	0.100
565.300	-33.240	0.100
565.400	-29.967	0.100
565.500	-43.181	0.100
565.600	-46.864	0.100
565.700	-34.273	0.100
565.800	-44.674	0.099
565.900	-44.553	0.100
566.000	-30.922	0.100
566.100	-32.143	0.099
566.200	-32.056	0.100
566.300	-34.749	0.100
566.400	-44.833	0.100
566.500	-36.755	0.100
566.600	-38.292	0.100
566.700	-36.213	0.100
566.800	-40.358	0.100
566.900	-47.295	0.100
567.000	-39.555	0.099
567.100	-32.160	0.100
567.200	-23.088	0.100
567.300	-21.060	0.100
567.400	-30.818	0.100
567.500	-41.191	0.100
567.600	-39.317	0.099
567.700	-40.847	0.100
567.800	-36.379	0.100
567.900	-41.963	0.100
568.000	-34.358	0.100
568.100	-38.346	0.099
568.200	-43.422	0.099
568.300	-32.082	0.100
568.400	-36.519	0.100
568.500	-40.024	0.099
568.600	-32.388	0.100
568.700	-43.629	0.099
568.800	-42.329	0.100
568.900	-40.172	0.099
569.000	-27.490	0.099
569.100	-53.722	0.100
569.200	-48.389	0.099
569.300	-45.799	0.099
569.400	-38.856	0.100
569.500	-29.049	0.100
569.600	-41.249	0.099
569.700	-26.544	0.100
569.800	-29.988	0.100
569.900	-34.446	0.099
570.000	-43.980	0.100
570.100	-43.747	0.099
570.200	-35.598	0.099
570.300	-29.516	0.100
570.400	-43.180	0.100
570.500	-34.770	0.100
570.600	-26.213	0.100
570.700	-32.520	0.100
570.800	-31.203	0.099
570.900	-43.984	0.099
571.000	-36.513	0.099
571.100	-49.501	0.099
571.200	-46.205	0.099
571.300	-44.873	0.099
571.400	-28.657	0.100
571.500	-39.486	0.100
571.600	-45.409	0.099
571.700	-43.234	0.099
571.800	-29.849	0.100
571.900	-36.687	0.100
572.000	-39.774	0.099
572.100	-33.367	0.099
572.200	-36.811	0.100
572.300	-35.251	0.099
572.400	-36.700	0.099
572.500	-34.346	0.099
572.600	-41.958	0.100
572.700	-37.588	0.099
572.800	-27.316	0.099
572.900	-44.698	0.100
573.000	-54.576	0.099
573.100	-39.377	0.099
573.200	-42.403	0.099
573.300	-40.096	0.099
573.400	-37.885	0.099
573.500	-50.152	0.100
573.600	-34.809	0.099
573.700	-41.921	0.099
573.800	-39.263	0.099
573.900	-36.300	0.099
574.000	-37.896	0.100
574.100	-40.978	0.099
574.200	-33.040	0.099
574.300	-33.298	0.099
574.400	-47.418	0.100
574.500	-49.635	0.099
574.600	-43.274	0.099
574.700	-38.493	0.100
574.800	-47.658	0.099
574.900	-27.053	0.100
575.000	-51.008	0.099
575.100	-34.039	0.099
575.200	-31.016	0.099
575.300	-51.834	0.099
575.400	-48.146	0.099
575.500	-39.846	0.100
575.600	-41.609	0.099
575.700	-49.818	0.099
575.800	-38.036	0.099
575.900	-49.948	0.099
576.000	-41.700	0.099
576.100	-27.871	0.099
576.200	-39.051	0.099
576.300	-47.426	0.099
576.400	-33.325	0.099
576.500	-23.587	0.099
576.600	-58.603	0.099
576.700	-48.713	0.099
576.800	-34.075	0.099
576.900	-37.298	0.099
577.000	-48.926	0.099
577.100	-53.688	0.099
577.200	-43.671	0.099
577.300	-26.709	0.099
577.400	-45.358	0.099
577.500	-34.015	0.099
577.600	-39.124	0.099
577.700	-41.099	0.099
577.800	-39.659	0.099
577.900	-38.272	0.099
578.000	-44.401	0.100
578.100	-41.571	0.099
578.200	-24.070	0.099
578.300	-31.862	0.100
578.400	-35.287	0.099
578.500	-45.251	0.099
578.600	-46.053	0.099
578.700	-42.533	0.100
578.800	-52.272	0.099
578.900	-39.706	0.099
579.000	-42.534	0.099
579.100	-45.100	0.099
579.200	-40.516	0.099
579.300	-37.209	0.099
579.400	-63.076	0.099
579.500	-38.785	0.099
579.600	-44.895	0.099
579.700	-45.299	0.099
579.800	-42.192	0.099
579.900	-42.876	0.099
580.000	-39.877	0.099
580.100	-41.315	0.099
580.200	-30.419	0.099
580.300	-52.311	0.099
580.400	-32.264	0.099
580.500	-33.565	0.099
580.600	-35.838	0.099
580.700	-35.026	0.099
580.800	-36.533	0.099
580.900	-37.770	0.099
581.000	-42.074	0.099
581.100	-32.127	0.099
581.200	-47.388	0.099
581.300	-49.511	0.099
581.400	-50.839	0.099
581.500	-30.367	0.099
581.600	-31.653	0.099
581.700	-47.706	0.099
581.800	-54.877	0.099
581.900	-34.440	0.099
582.000	-34.061	0.099
582.100	-40.244	0.099
582.200	-31.932	0.099
582.300	-35.661	0.099
582.400	-33.046	0.099
582.500	-51.555	0.099
582.600	-38.585	0.099
582.700	-38.732	0.099
582.800	-38.337	0.099
582.900	-32.850	0.099
583.000	-39.611	0.099
583.100	-42.085	0.099
583.200	-25.219	0.099
583.300	-39.351	0.099
583.400	-44.786	0.099
583.500	-49.286	0.099
583.600	-32.095	0.099
583.700	-46.338	0.099
583.800	-48.965	0.099
583.900	-34.948	0.099
584.000	-34.472	0.099
584.100	-36.053	0.099
584.200	-39.481	0.099
584.300	-34.712	0.099
584.400	-31.846	0.099
584.500	-44.569	0.099
584.600	-35.733	0.099
584.700	-40.051	0.099
584.800	-62.503	0.099
584.900	-45.177	0.099
585.000	-40.326	0.099
585.100	-36.278	0.099
585.200	-29.841	0.099
585.300	-27.277	0.099
585.400	-35.250	0.099
585.500	-42.293	0.099
585.600	-37.642	0.099
585.700	-45.788	0.099
585.800	-45.527	0.099
585.900	-38.798	0.099
586.000	-36.699	0.099
586.100	-47.040	0.099
586.200	-42.587	0.099
586.300	-29.677	0.099
586.400	-34.446	0.099
586.500	-53.081	0.099
586.600	-37.548	0.099
586.700	-40.295	0.099
586.800	-44.161	0.099
586.900	-44.449	0.099
587.000	-37.480	0.099
587.100	-26.584	0.099
587.200	-42.516	0.099
587.300	-35.485	0.099
587.400	-28.137	0.099
587.500	-36.491	0.099
587.600	-31.980	0.099
587.700	-32.961	0.099
587.800	-58.715	0.099
587.900	-42.581	0.099
588.000	-32.989	0.099
588.100	-46.314	0.099
588.200	-39.326	0.099
588.300	-36.911	0.099
588.400	-39.168	0.099
588.500	-26.334	0.099
588.600	-39.308	0.099
588.700	-47.245	0.099
588.800	-30.328	0.099
588.900	-41.705	0.099
589.000	-40.158	0.099
589.100	-39.318	0.099
589.200	-39.286	0.099
589.300	-34.923	0.099
589.400	-26.928	0.099
589.500	-50.306	0.099
589.600	-43.874	0.099
589.700	-51.847	0.099
589.800	-43.700	0.099
589.900	-30.108	0.099
590.000	-35.146	0.099
590.100	-35.762	0.099
590.200	-36.734	0.099
590.300	-39.094	0.099
590.400	-38.159	0.099
590.500	-33.632	0.099
590.600	-47.554	0.099
590.700	-36.690	0.099
590.800	-42.837	0.099
590.900	-32.493	0.099
591.000	-34.485	0.099
591.100	-44.289	0.099
591.200	-27.005	0.099
591.300	-40.326	0.099
591.400	-24.199	0.099
591.500	-50.375	0.099
591.600	-43.578	0.099
591.700	-38.742	0.099
591.800	-43.582	0.099
591.900	-44.061	0.099
592.000	-43.537	0.099
592.100	-39.604	0.099
592.200	-41.094	0.099
592.300	-37.373	0.099
592.400	-29.872	0.099
592.500	-31.486	0.099
592.600	-42.679	0.099
592.700	-42.774	0.099
592.800	-32.214	0.099
592.900	-25.989	0.099
593.000	-54.015	0.099
593.100	-45.011	0.099
593.200	-34.925	0.099
593.300	-31.518	0.099
593.400	-36.707	0.099
593.500	-49.155	0.099
593.600	-47.940	0.099
593.700	-47.845	0.099
593.800	-39.248	0.099
593.900	-33.428	0.099
594.000	-43.630	0.099
594.100	-25.414	0.099
594.200	-42.754	0.099
594.300	-36.844	0.099
594.400	-35.903	0.099
594.500	-36.030	0.099
594.600	-31.682	0.099
594.700	-37.514	0.099
594.800	-29.688	0.099
594.900	-35.500	0.099
595.000	-44.834	0.099
595.100	-52.967	0.099
595.200	-31.780	0.099
595.300	-37.962	0.099
595.400	-24.106	0.099
595.500	-46.793	0.099
595.600	-30.165	0.099
595.700	-20.556	0.099
595.800	-45.665	0.099
595.900	-27.251	0.099
596.000	-43.738	0.099
596.100	-32.515	0.099
596.200	-39.249	0.099
596.300	-37.732	0.099
596.400	-37.633	0.099
596.500	-29.238	0.099
596.600	-38.245	0.099
596.700	-44.993	0.099
596.800	-30.534	0.099
596.900	-32.164	0.099
597.000	-53.047	0.099
597.100	-30.434	0.099
597.200	-38.773	0.099
597.300	-37.221	0.099
597.400	-29.644	0.099
597.500	-22.646	0.099
597.600	-29.399	0.099
597.700	-48.824	0.099
597.800	-31.546	0.099
597.900	-35.562	0.099
598.000	-37.020	0.099
598.100	-40.451	0.099
598.200	-28.326	0.099
598.300	-45.387	0.099
598.400	-42.505	0.099
598.500	-24.026	0.099
598.600	-35.114	0.099
598.700	-39.435	0.099
598.800	-38.517	0.099
598.900	-46.089	0.099
599.000	-50.583	0.099
599.100	-26.765	0.099
599.200	-23.073	0.099
599.300	-48.446	0.099
599.400	-22.847	0.099
599.500	-31.171	0.099
599.600	-39.490	0.099
599.700	-29.054	0.099
599.800	-37.096	0.099
599.900	-45.343	0.099
600.000	-32.062	0.099
600.100	-35.804	0.099
600.200	-41.473	0.099
600.300	-29.566	0.099
600.400	-28.918	0.099
600.500	-36.169	0.099
600.600	-45.945	0.099
600.700	-37.192	0.099
600.800	-26.559	0.099
600.900	-36.277	0.099
601.000	-36.874	0.099
601.100	-21.203	0.099
601.200	-38.214	0.099
601.300	-44.353	0.099
601.400	-38.578	0.099
601.500	-39.751	0.099
601.600	-23.714	0.099
601.700	-48.245	0.099
601.800	-37.763	0.099
601.900	-30.560	0.099
602.000	-23.559	0.099
602.100	-48.795	0.099
602.200	-28.496	0.099
602.300	-35.806	0.099
602.400	-36.109	0.099
602.500	-42.519	0.099
602.600	-32.065	0.099
602.700	-30.572	0.099
602.800	-42.055	0.099
602.900	-40.381	0.099
603.000	-38.672	0.099
603.100	-36.437	0.099
603.200	-35.306	0.099
603.300	-30.222	0.099
603.400	-19.639	0.099
603.500	-35.279	0.099
603.600	-33.448	0.099
603.700	-24.085	0.099
603.800	-40.994	0.099
603.900	-32.545	0.099
604.000	-43.568	0.099
604.100	-36.640	0.099
604.200	-28.749	0.099
604.300	-30.901	0.099
604.400	-33.459	0.099
604.500	-29.585	0.099
604.600	-39.000	0.099
604.700	-29.255	0.099
604.800	-48.377	0.099
604.900	-32.037	0.099
605.000	-21.619	0.099
605.100	-35.981	0.099
605.200	-26.792	0.099
605.300	-46.574	0.099
605.400	-29.954	0.099
605.500	-37.885	0.099
605.600	-31.808	0.099
605.700	-25.397	0.099
605.800	-33.575	0.099
605.900	-31.797	0.099
606.000	-37.059	0.099
606.100	-39.281	0.099
606.200	-37.906	0.099
606.300	-41.550	0.099
606.400	-35.993	0.099
606.500	-23.132	0.099
606.600	-28.356	0.099
606.700	-26.225	0.099
606.800	-28.221	0.099
606.900	-37.632	0.099
607.000	-30.305	0.099
607.100	-37.263	0.099
607.200	-25.807	0.099
607.300	-22.646	0.099
607.400	-24.977	0.099
607.500	-30.822	0.099
607.600	-17.785	0.099
607.700	-42.655	0.099
607.800	-42.379	0.099
607.900	-43.527	0.099
608.000	-27.843	0.099
608.100	-31.582	0.099
608.200	-49.483	0.099
608.300	-22.642	0.099
608.400	-26.529	0.099
608.500	-38.640	0.099
608.600	-35.125	0.099
608.700	-48.713	0.099
608.800	-25.198	0.099
608.900	-32.353	0.099
609.000	-28.686	0.099
609.100	-32.370	0.099
609.200	-32.034	0.099
609.300	-24.391	0.099
609.400	-34.954	0.099
609.500	-35.748	0.099
609.600	-35.974	0.099
609.700	-33.518	0.099
609.800	-39.423	0.099
609.900	-27.059	0.099
610.000	-29.929	0.099
610.100	-31.443	0.099
610.200	-30.562	0.099
610.300	-47.773	0.099
610.400	-32.354	0.099
610.500	-20.404	0.099
610.600	-31.292	0.099
610.700	-26.935	0.099
610.800	-31.334	0.099
610.900	-32.970	0.099
611.000	-32.930	0.099
611.100	-34.765	0.099
611.200	-42.181	0.099
611.300	-39.300	0.099
611.400	-39.021	0.099
611.500	-35.435	0.099
611.600	-39.514	0.099
611.700	-31.498	0.099
611.800	-29.904	0.099
611.900	-32.406	0.099
612.000	-23.374	0.099
612.100	-33.464	0.099
612.200	-36.849	0.099
612.300	-32.930	0.099
612.400	-17.912	0.099
612.500	-22.021	0.099
612.600	-43.356	0.099
612.700	-32.812	0.099
612.800	-32.336	0.099
612.900	-31.334	0.099
613.000	-19.343	0.099
613.100	-36.623	0.099
613.200	-16.534	0.099
613.300	-40.114	0.099
613.400	-45.162	0.099
613.500	-15.478	0.099
613.600	-31.096	0.099
613.700	-39.626	0.099
613.800	-38.848	0.099
613.900	-38.655	0.099
614.000	-36.134	0.099
614.100	-43.371	0.099
614.200	-30.843	0.099
614.300	-27.981	0.099
614.400	-29.343	0.099
614.500	-34.403	0.099
614.600	-34.645	0.099
614.700	-47.363	0.099
614.800	-39.699	0.099
614.900	-27.513	0.099
615.000	-44.035	0.099
615.100	-37.269	0.099
615.200	-20.507	0.099
615.300	-23.314	0.099
615.400	-33.261	0.099
615.500	-36.217	0.099
615.600	-25.577	0.099
615.700	-30.871	0.099
615.800	-30.059	0.099
615.900	-32.079	0.099
616.000	-49.595	0.099
616.100	-23.621	0.099
616.200	-26.563	0.099
616.300	-26.822	0.099
616.400	-32.052	0.099
616.500	-33.912	0.099
616.600	-15.413	0.099
616.700	-37.708	0.099
616.800	-38.076	0.099
616.900	-28.905	0.099
617.000	-30.536	0.099
617.100	-34.568	0.099
617.200	-36.054	0.099
617.300	-39.841	0.099
617.400	-33.634	0.099
617.500	-38.456	0.099
617.600	-45.721	0.099
617.700	-24.669	0.099
617.800	-15.171	0.099
617.900	-22.135	0.099
618.000	-29.336	0.099
618.100	-38.321	0.099
618.200	-25.854	0.099
618.300	-38.449	0.099
618.400	-31.487	0.099
618.500	-22.901	0.099
618.600	-39.367	0.099
618.700	-30.087	0.099
618.800	-29.512	0.099
618.900	-26.822	0.099
619.000	-32.225	0.099
619.100	-24.346	0.099
619.200	-27.235	0.099
619.300	-27.599	0.099
619.400	-40.272	0.099
619.500	-30.543	0.099
619.600	-37.853	0.099
619.700	-24.723	0.099
619.800	-36.356	0.099
619.900	-29.562	0.099
620.000	-25.128	0.099
620.100	-40.034	0.099
620.200	-34.258	0.099
620.300	-51.167	0.099
620.400	-28.729	0.099
620.500	-45.602	0.099
620.600	-27.502	0.099
620.700	-12.556	0.099
620.800	-26.125	0.099
620.900	-25.651	0.099
621.000	-42.619	0.099
621.100	-27.709	0.099
621.200	-23.654	0.099
621.300	-34.900	0.099
621.400	-45.446	0.099
621.500	-29.374	0.099
621.600	-35.013	0.099
621.700	-26.932	0.099
621.800	-29.141	0.099
621.900	-33.268	0.099
622.000	-28.936	0.099
622.100	-44.462	0.099
622.200	-21.604	0.099
622.300	-25.083	0.099
622.400	-31.488	0.099
622.500	-40.488	0.099
622.600	-31.999	0.099
622.700	-31.853	0.099
622.800	-24.038	0.099
622.900	-18.825	0.099
623.000	-35.324	0.099
623.100	-32.184	0.099
623.200	-32.512	0.099
623.300	-19.108	0.099
623.400	-27.687	0.099
623.500	-33.367	0.099
623.600	-34.665	0.099
623.700	-39.127	0.099
623.800	-27.554	0.099
623.900	-26.132	0.099
624.000	-27.926	0.099
624.100	-41.134	0.099
624.200	-25.856	0.099
624.300	-40.919	0.099
624.400	-29.326	0.099
624.500	-27.072	0.099
624.600	-30.297	0.099
624.700	-39.728	0.099
624.800	-26.173	0.099
624.900	-39.789	0.099
625.000	-26.578	0.099
625.100	-36.429	0.099
625.200	-24.007	0.099
625.300	-29.205	0.099
625.400	-27.917	0.099
625.500	-21.951	0.099
625.600	-35.478	0.099
625.700	-34.748	0.099
625.800	-12.940	0.099
625.900	-30.235	0.099
626.000	-32.344	0.099
626.100	-34.266	0.099
626.200	-31.718	0.099
626.300	-24.247	0.099
626.400	-31.278	0.099
626.500	-28.038	0.099
626.600	-25.732	0.099
626.700	-31.389	0.099
626.800	-29.409	0.099
626.900	-36.127	0.099
627.000	-32.161	0.099
627.100	-29.183	0.099
627.200	-26.450	0.099
627.300	-18.517	0.099
627.400	-28.153	0.099
627.500	-29.637	0.099
627.600	-44.786	0.099
627.700	-23.303	0.099
627.800	-41.810	0.099
627.900	-27.713	0.099
628.000	-20.378	0.099
628.100	-32.529	0.099
628.200	-34.837	0.099
628.300	-42.342	0.099
628.400	-34.778	0.099
628.500	-31.092	0.099
628.600	-17.879	0.099
628.700	-30.635	0.099
628.800	-26.203	0.099
628.900	-31.466	0.099
629.000	-27.335	0.099
629.100	-43.833	0.099
629.200	-28.752	0.099
629.300	-23.650	0.099
629.400	-24.267	0.099
629.500	-26.844	0.099
629.600	-26.590	0.099
629.700	-34.018	0.099
629.800	-32.622	0.099
629.900	-26.564	0.099
630.000	-44.274	0.099
630.100	-40.593	0.099
630.200	-9.048	0.099
630.300	-16.368	0.099
630.400	-8.525	0.099
630.500	-7.799	0.099
630.600	5.752	0.099
630.700	17.628	0.099
630.800	12.078	0.099
630.900	21.246	0.099
631.000	31.468	0.099
631.100	23.087	0.099
631.200	26.159	0.099
631.300	16.301	0.099
631.400	23.393	0.099
631.500	23.694	0.099
631.600	37.186	0.099
631.700	23.682	0.099
631.800	20.787	0.099
631.900	15.002	0.099
632.000	23.579	0.099
632.100	25.561	0.099
632.200	16.709	0.099
632.300	17.015	0.099
632.400	5.274	0.099
632.500	10.902	0.099
632.600	25.432	0.099
632.700	26.226	0.099
632.800	6.633	0.099
632.900	7.306	0.099
633.000	14.211	0.099
633.100	24.598	0.099
633.200	11.148	0.099
633.300	24.416	0.099
633.400	28.482	0.099
633.500	16.966	0.099
633.600	19.938	0.099
633.700	4.740	0.099
633.800	14.616	0.099
633.900	19.128	0.099
634.000	14.839	0.099
634.100	10.496	0.099
634.200	8.211	0.099
634.300	16.498	0.099
634.400	20.427	0.099
634.500	12.612	0.099
634.600	7.127	0.099
634.700	19.534	0.099
634.800	13.670	0.099
634.900	22.610	0.099
635.000	11.933	0.099
635.100	17.575	0.099
635.200	8.368	0.099
635.300	9.186	0.099
635.400	20.153	0.099
635.500	34.248	0.099
635.600	5.871	0.099
635.700	7.871	0.099
635.800	9.930	0.099
635.900	5.408	0.099
636.000	24.508	0.099
636.100	2.769	0.099
636.200	11.714	0.099
636.300	15.944	0.099
636.400	14.591	0.099
636.500	16.587	0.099
636.600	22.764	0.099
636.700	11.026	0.099
636.800	9.393	0.099
636.900	21.898	0.099
637.000	23.099	0.099
637.100	19.855	0.099
637.200	13.918	0.099
637.300	22.120	0.099
637.400	29.260	0.099
637.500	16.590	0.099
637.600	18.756	0.099
637.700	26.112	0.099
637.800	6.090	0.099
637.900	24.524	0.099
638.000	23.077	0.099
638.100	32.416	0.099
638.200	23.967	0.099
638.300	2.130	0.099
638.400	38.380	0.099
638.500	36.304	0.099
638.600	27.797	0.099
638.700	31.740	0.099
638.800	24.781	0.099
638.900	24.813	0.099
639.000	28.524	0.099
639.100	28.836	0.099
639.200	31.321	0.099
639.300	28.950	0.099
639.400	29.820	0.099
639.500	25.827	0.099
639.600	35.011	0.099
639.700	32.051	0.099
639.800	35.828	0.099
639.900	31.009	0.099
640.000	28.150	0.099
640.100	29.086	0.099
640.200	43.671	0.099
640.300	46.893	0.099
640.400	45.272	0.099
640.500	28.117	0.099
640.600	49.546	0.099
640.700	29.229	0.099
640.800	36.105	0.099
640.900	28.764	0.100
641.000	35.677	0.100
641.100	52.721	0.100
641.200	44.218	0.100
641.300	36.488	0.100
641.400	37.297	0.100
641.500	50.555	0.100
641.600	37.347	0.100
641.700	48.215	0.100
641.800	56.857	0.100
641.900	44.596	0.100
642.000	31.539	0.100
642.100	44.495	0.100
642.200	51.489	0.100
642.300	40.314	0.100
642.400	41.302	0.100
642.500	38.825	0.100
642.600	64.999	0.100
642.700	46.132	0.100
642.800	46.260	0.100
642.900	51.885	0.100
643.000	42.806	0.100
643.100	62.297	0.100
643.200	36.392	0.100
643.300	54.709	0.100
643.400	57.790	0.100
643.500	49.978	0.100
643.600	43.707	0.100
643.700	46.767	0.100
643.800	48.833	0.100
643.900	53.000	0.100
644.000	52.552	0.100
644.100	72.758	0.100
644.200	62.292	0.100
644.300	52.293	0.100
644.400	44.752	0.100
644.500	43.329	0.100
644.600	46.210	0.100
644.700	62.650	0.100
644.800	54.591	0.100
644.900	57.811	0.100
645.000	57.976	0.100
645.100	61.923	0.100
645.200	47.888	0.100
645.300	45.782	0.100
645.400	56.675	0.100
645.500	47.793	0.100
645.600	48.054	0.100
645.700	41.090	0.100
645.800	68.670	0.100
645.900	74.055	0.100
646.000	62.828	0.100
646.100	64.359	0.100
646.200	75.514	0.100
646.300	58.169	0.100
646.400	55.314	0.100
646.500	52.430	0.100
646.600	57.926	0.100
646.700	55.139	0.100
646.800	67.275	0.100
646.900	56.737	0.100
647.000	47.022	0.100
647.100	49.302	0.100
647.200	50.250	0.100
647.300	53.824	0.100
647.400	55.070	0.100
647.500	48.892	0.100
647.600	57.956	0.100
647.700	52.782	0.100
647.800	65.916	0.100
647.900	52.260	0.100
648.000	48.938	0.100
648.100	54.066	0.100
648.200	55.994	0.100
648.300	62.660	0.100
648.400	57.142	0.100
648.500	69.517	0.100
648.600	63.146	0.100
648.700	45.242	0.100
648.800	65.087	0.100
648.900	64.526	0.100
649.000	58.337	0.100
649.100	64.059	0.100
649.200	54.291	0.100
649.300	57.430	0.100
649.400	59.004	0.100
649.500	60.120	0.100
649.600	47.934	0.100
649.700	63.669	0.100
649.800	67.247	0.100
649.900	61.950	0.100
650.000	56.823	0.100
650.100	49.408	0.100
650.200	61.261	0.100
650.300	50.489	0.100
650.400	62.003	0.100
650.500	59.506	0.100
650.600	69.999	0.100
650.700	61.740	0.100
650.800	54.106	0.100
650.900	64.198	0.100
651.000	73.847	0.100
651.100	61.058	0.100
651.200	51.428	0.100
651.300	66.925	0.100
651.400	64.911	0.100
651.500	70.116	0.100
651.600	59.934	0.100
651.700	46.442	0.100
651.800	72.797	0.100
651.900	65.521	0.100
652.000	57.026	0.100
652.100	64.078	0.100
652.200	63.872	0.100
652.300	49.798	0.100
652.400	58.065	0.100
652.500	73.228	0.100
652.600	61.929	0.100
652.700	64.174	0.100
652.800	65.218	0.100
652.900	66.374	0.100
653.000	59.018	0.100
653.100	63.477	0.100
653.200	65.748	0.100
653.300	62.855	0.100
653.400	54.576	0.100
653.500	65.325	0.100
653.600	70.141	0.100
653.700	60.117	0.100
653.800	64.216	0.100
653.900	55.011	0.100
654.000	51.370	0.100
654.100	71.203	0.100
654.200	59.581	0.100
654.300	74.633	0.100
654.400	68.950	0.100
654.500	49.903	0.100
654.600	51.957	0.100
654.700	54.330	0.100
654.800	62.229	0.100
654.900	59.085	0.100
655.000	61.532	0.100
655.100	65.825	0.100
655.200	61.101	0.100
655.300	52.728	0.100
655.400	50.389	0.100
655.500	65.021	0.100
655.600	64.413	0.100
655.700	52.190	0.100
655.800	64.579	0.100
655.900	62.738	0.100
656.000	57.953	0.100
656.100	63.487	0.100
656.200	61.509	0.100
656.300	56.058	0.100
656.400	47.968	0.100
656.500	68.458	0.100
656.600	58.072	0.100
656.700	77.953	0.100
656.800	72.878	0.100
656.900	58.860	0.100
657.000	59.472	0.100
657.100	42.548	0.100
657.200	62.254	0.100
657.300	61.497	0.100
657.400	57.866	0.100
657.500	63.944	0.100
657.600	66.336	0.100
657.700	48.634	0.100
657.800	54.872	0.100
657.900	61.139	0.100
658.000	57.271	0.100
658.100	63.052	0.100
658.200	69.524	0.100
658.300	60.364	0.100
658.400	53.103	0.100
658.500	79.867	0.100
658.600	59.473	0.100
658.700	49.766	0.100
658.800	42.459	0.100
658.900	64.512	0.100
659.000	52.475	0.100
659.100	64.162	0.100
659.200	53.997	0.100
659.300	71.308	0.100
659.400	56.531	0.100
659.500	51.190	0.100
659.600	63.339	0.100
659.700	59.909	0.100
659.800	69.642	0.100
659.900	55.148	0.100
660.000	52.820	0.100
660.100	55.827	0.100
660.200	57.186	0.100
660.300	62.780	0.100
660.400	56.186	0.100
660.500	51.180	0.100
660.600	53.466	0.100
660.700	67.776	0.100
660.800	61.277	0.100
660.900	58.770	0.100
661.000	59.174	0.100
661.100	52.264	0.100
661.200	46.288	0.100
661.300	56.866	0.100
661.400	68.922	0.100
661.500	69.089	0.100
661.600	64.040	0.100
661.700	57.277	0.100
661.800	53.472	0.100
661.900	44.013	0.100
662.000	59.870	0.100
662.100	66.606	0.100
662.200	52.455	0.100
662.300	57.515	0.100
662.400	51.600	0.100
662.500	65.475	0.100
662.600	57.962	0.100
662.700	52.949	0.100
662.800	42.535	0.100
662.900	60.686	0.100
663.000	55.993	0.100
663.100	76.137	0.100
663.200	59.636	0.100
663.300	59.650	0.100
663.400	54.507	0.100
663.500	58.228	0.100
663.600	44.481	0.100
663.700	71.544	0.100
663.800	56.860	0.100
663.900	70.132	0.100
664.000	55.564	0.100
664.100	49.821	0.100
664.200	45.526	0.100
664.300	61.411	0.100
664.400	49.727	0.100
664.500	53.906	0.100
664.600	60.034	0.100
664.700	59.856	0.100
664.800	54.779	0.100
664.900	56.905	0.100
665.000	69.891	0.100
665.100	49.925	0.100
665.200	64.847	0.100
665.300	58.898	0.100
665.400	52.508	0.100
665.500	57.158	0.100
665.600	69.488	0.100
665.700	71.229	0.100
665.800	49.451	0.100
665.900	67.364	0.099
666.000	63.348	0.100
666.100	54.143	0.100
666.200	53.430	0.099
666.300	61.165	0.099
666.400	55.569	0.100
666.500	57.312	0.100
666.600	60.297	0.100
666.700	63.469	0.100
666.800	48.914	0.100
666.900	47.224	0.100
667.000	66.187	0.100
667.100	58.190	0.100
667.200	53.933	0.100
667.300	62.786	0.100
667.400	62.171	0.100
667.500	51.360	0.100
667.600	39.653	0.100
667.700	66.743	0.100
667.800	47.297	0.100
667.900	51.309	0.100
668.000	59.963	0.100
668.100	58.237	0.100
668.200	60.253	0.100
668.300	51.462	0.100
668.400	64.574	0.100
668.500	54.006	0.100
668.600	57.050	0.100
668.700	59.778	0.100
668.800	46.632	0.100
668.900	59.065	0.100
669.000	37.901	0.100
669.100	49.789	0.100
669.200	63.862	0.100
669.300	54.435	0.100
669.400	48.762	0.100
669.500	62.626	0.100
669.600	59.306	0.100
669.700	47.392	0.100
669.800	61.590	0.100
669.900	62.708	0.100
670.000	48.145	0.100
670.100	62.350	0.100
670.200	51.575	0.100
670.300	60.936	0.100
670.400	42.043	0.100
670.500	39.603	0.100
670.600	40.099	0.100
670.700	56.735	0.100
670.800	50.470	0.100
670.900	38.564	0.100
671.000	59.552	0.100
671.100	61.637	0.100
671.200	64.319	0.100
671.300	52.866	0.100
671.400	46.934	0.100
671.500	57.833	0.100
671.600	49.724	0.100
671.700	58.866	0.100
671.800	61.683	0.100
671.900	54.195	0.100
672.000	58.663	0.100
672.100	51.263	0.100
672.200	54.889	0.100
672.300	54.292	0.100
672.400	51.670	0.100
672.500	59.702	0.100
672.600	54.517	0.100
672.700	54.673	0.100
672.800	58.519	0.100
672.900	43.395	0.100
673.000	41.875	0.100
673.100	63.296	0.100
673.200	58.230	0.100
673.300	51.509	0.100
673.400	59.511	0.100
673.500	54.773	0.100
673.600	47.877	0.100
673.700	59.490	0.100
673.800	55.313	0.100
673.900	42.811	0.100
674.000	58.856	0.100
674.100	59.542	0.100
674.200	64.965	0.100
674.300	44.369	0.100
674.400	52.888	0.100
674.500	63.391	0.100
674.600	61.103	0.100
674.700	44.180	0.100
674.800	62.983	0.100
674.900	52.200	0.100
675.000	47.818	0.100
675.100	57.352	0.100
675.200	59.843	0.100
675.300	62.437	0.100
675.400	49.378	0.100
675.500	55.266	0.100
675.600	51.186	0.100
675.700	36.440	0.100
675.800	52.833	0.100
675.900	53.312	0.100
676.000	68.609	0.100
676.100	58.609	0.100
676.200	50.273	0.100
676.300	49.106	0.100
676.400	54.694	0.100
676.500	51.041	0.100
676.600	51.370	0.100
676.700	53.837	0.100
676.800	51.944	0.100
676.900	54.451	0.100
677.000	44.462	0.100
677.100	52.522	0.100
677.200	59.834	0.100
677.300	47.320	0.100
677.400	48.055	0.100
677.500	58.564	0.100
677.600	53.346	0.100
677.700	45.874	0.100
677.800	60.774	0.100
677.900	58.860	0.100
678.000	44.126	0.100
678.100	53.745	0.100
678.200	52.191	0.100
678.300	39.527	0.100
678.400	62.756	0.100
678.500	54.202	0.100
678.600	46.462	0.100
678.700	52.964	0.100
678.800	40.634	0.100
678.900	55.753	0.100
679.000	70.611	0.100
679.100	55.216	0.100
679.200	58.288	0.100
679.300	50.169	0.100
679.400	49.796	0.100
679.500	55.714	0.100
679.600	40.821	0.100
679.700	53.671	0.100
679.800	65.108	0.100
679.900	45.780	0.100
680.000	41.836	0.100
680.100	66.895	0.100
680.200	47.311	0.100
680.300	44.639	0.100
680.400	61.380	0.100
680.500	55.869	0.100
680.600	53.704	0.100
680.700	54.596	0.100
680.800	61.276	0.100
680.900	58.767	0.100
681.000	49.280	0.100
681.100	57.605	0.100
681.200	59.365	0.100
681.300	53.968	0.100
681.400	49.635	0.100
681.500	48.252	0.100
681.600	48.896	0.100
681.700	49.615	0.100
681.800	66.625	0.100
681.900	44.337	0.100
682.000	46.242	0.100
682.100	47.973	0.100
682.200	52.654	0.100
682.300	57.952	0.100
682.400	49.341	0.100
682.500	41.240	0.100
682.600	58.491	0.100
682.700	51.226	0.100
682.800	54.665	0.100
682.900	53.457	0.100
683.000	52.113	0.100
683.100	48.279	0.100
683.200	52.162	0.100
683.300	56.010	0.100
683.400	49.972	0.100
683.500	46.550	0.100
683.600	48.753	0.100
683.700	66.468	0.100
683.800	32.847	0.100
683.900	57.575	0.100
684.000	63.026	0.100
684.100	47.838	0.100
684.200	44.737	0.100
684.300	50.589	0.100
684.400	53.327	0.100
684.500	46.274	0.100
684.600	52.292	0.100
684.700	57.231	0.100
684.800	61.096	0.100
684.900	44.262	0.100
685.000	51.952	0.100
685.100	67.365	0.100
685.200	57.054	0.100
685.300	60.638	0.100
685.400	58.354	0.100
685.500	46.761	0.100
685.600	54.632	0.100
685.700	53.873	0.100
685.800	67.587	0.100
685.900	37.795	0.100
686.000	45.987	0.100
686.100	57.916	0.100
686.200	51.904	0.100
686.300	42.493	0.100
686.400	56.070	0.100
686.500	43.993	0.100
686.600	46.967	0.100
686.700	61.550	0.100
686.800	60.908	0.100
686.900	49.539	0.100
687.000	68.388	0.100
687.100	48.141	0.100
687.200	46.766	0.100
687.300	52.186	0.100
687.400	48.723	0.100
687.500	49.267	0.100
687.600	53.339	0.100
687.700	50.070	0.100
687.800	54.896	0.100
687.900	41.009	0.100
688.000	50.564	0.100
688.100	56.846	0.100
688.200	55.766	0.100
688.300	58.792	0.100
688.400	53.491	0.100
688.500	53.445	0.100
688.600	48.972	0.100
688.700	52.884	0.100
688.800	54.518	0.100
688.900	53.538	0.100
689.000	49.069	0.100
689.100	49.696	0.100
689.200	52.926	0.100
689.300	59.497	0.100
689.400	65.223	0.100
689.500	35.233	0.100
689.600	47.746	0.100
689.700	49.370	0.100
689.800	56.941	0.100
689.900	39.050	0.100
690.000	52.148	0.100
690.100	34.016	0.100
690.200	43.209	0.100
690.300	43.744	0.100
690.400	30.226	0.100
690.500	28.574	0.100
690.600	17.427	0.100
690.700	19.568	0.100
690.800	10.462	0.100
690.900	41.072	0.100
691.000	15.188	0.100
691.100	-5.324	0.100
691.200	1.307	0.100
691.300	10.576	0.100
691.400	27.936	0.100
691.500	1.482	0.100
691.600	4.077	0.100
691.700	14.140	0.100
691.800	10.087	0.100
691.900	12.095	0.100
692.000	-2.579	0.100
692.100	7.830	0.100
692.200	-0.655	0.100
692.300	7.393	0.100
692.400	4.938	0.100
692.500	7.136	0.100
692.600	2.412	0.100
692.700	-1.656	0.100
692.800	-3.556	0.100
692.900	-4.410	0.100
693.000	-0.329	0.100
693.100	-5.314	0.100
693.200	-3.659	0.100
693.300	-10.579	0.100
693.400	-19.167	0.100
693.500	-13.066	0.100
693.600	-9.561	0.100
693.700	-15.599	0.100
693.800	-4.468	0.100
693.900	-8.548	0.100
694.000	-22.157	0.100
694.100	-13.572	0.100
694.200	-23.837	0.100
694.300	-18.411	0.100
694.400	-15.229	0.100
694.500	-14.989	0.100
694.600	-15.745	0.100
694.700	-19.317	0.100
694.800	-16.543	0.100
694.900	-16.512	0.100
695.000	-22.148	0.100
695.100	-18.528	0.100
695.200	-29.210	0.100
695.300	-24.981	0.100
695.400	-26.692	0.100
695.500	-20.624	0.100
695.600	-30.830	0.100
695.700	-15.005	0.100
695.800	-15.254	0.100
695.900	-33.943	0.100
696.000	-11.517	0.100
696.100	-17.467	0.100
696.200	-24.420	0.100
696.300	-20.883	0.100
696.400	-33.660	0.100
696.500	-24.988	0.100
696.600	-25.760	0.100
696.700	-22.428	0.100
696.800	-32.319	0.100
696.900	-19.751	0.100
697.000	-14.267	0.100
697.100	-14.580	0.100
697.200	-23.961	0.100
697.300	-17.986	0.100
697.400	-16.269	0.100
697.500	-28.641	0.100
697.600	-13.978	0.100
697.700	-32.865	0.100
697.800	-43.232	0.100
697.900	-18.015	0.100
698.000	-19.637	0.100
698.100	-11.551	0.100
698.200	-21.400	0.100
698.300	-14.423	0.100
698.400	-18.249	0.100
698.500	-43.802	0.100
698.600	-30.944	0.100
698.700	-10.533	0.100
698.800	-24.213	0.100
698.900	-19.818	0.100
699.000	-20.038	0.100
699.100	-24.307	0.100
699.200	-25.140	0.100
699.300	-37.879	0.100
699.400	-28.729	0.100
699.500	-14.634	0.100
699.600	-23.715	0.100
699.700	-3.910	0.100
699.800	-26.605	0.100
699.900	-31.782	0.100
700.000	-22.508	0.100
700.100	-19.077	0.100
700.200	-28.717	0.100
700.300	-24.676	0.100
700.400	-21.379	0.100
700.500	-28.770	0.100
700.600	-21.482	0.100
700.700	-28.552	0.100
700.800	-23.226	0.100
700.900	-35.837	0.100
701.000	-17.831	0.100
701.100	-30.556	0.100
701.200	-20.573	0.100
701.300	-18.914	0.100
701.400	-26.050	0.100
701.500	-24.873	0.100
701.600	-26.945	0.100
701.700	-42.224	0.100
701.800	-29.508	0.100
701.900	-14.088	0.100
702.000	-30.226	0.100
702.100	-21.339	0.100
702.200	-38.587	0.100
702.300	-30.292	0.100
702.400	-34.854	0.100
702.500	-34.238	0.100
702.600	-21.306	0.100
702.700	-20.480	0.100
702.800	-20.389	0.100
702.900	-32.910	0.100
703.000	-42.809	0.100
703.100	-17.532	0.100
703.200	-27.809	0.100
703.300	-30.748	0.100
703.400	-35.629	0.100
703.500	-19.566	0.100
703.600	-26.069	0.100
703.700	-23.038	0.100
703.800	-27.785	0.100
703.900	-20.861	0.100
704.000	-31.408	0.100
704.100	-24.882	0.100
704.200	-29.705	0.100
704.300	-32.321	0.100
704.400	-33.766	0.100
704.500	-39.895	0.100
704.600	-39.864	0.100
704.700	-34.965	0.100
704.800	-19.281	0.100
704.900	-10.054	0.100
705.000	-24.497	0.100
705.100	-21.970	0.100
705.200	-33.969	0.099
705.300	-30.138	0.100
705.400	-36.224	0.100
705.500	-7.714	0.100
705.600	-22.424	0.100
705.700	-37.185	0.100
705.800	-28.353	0.100
705.900	-38.571	0.100
706.000	-42.183	0.100
706.100	-25.125	0.100
706.200	-33.391	0.100
706.300	-34.548	0.100
706.400	-24.241	0.100
706.500	-36.818	0.100
706.600	-40.250	0.100
706.700	-34.858	0.100
706.800	-15.858	0.100
706.900	-33.404	0.100
707.000	-32.208	0.100
707.100	-32.851	0.100
707.200	-29.456	0.100
707.300	-38.467	0.100
707.400	-36.466	0.100
707.500	-24.257	0.100
707.600	-27.088	0.100
707.700	-25.158	0.100
707.800	-30.363	0.100
707.900	-37.091	0.100
708.000	-35.096	0.100
708.100	-34.065	0.100
708.200	-34.662	0.100
708.300	-36.983	0.100
708.400	-27.462	0.100
708.500	-36.843	0.100
708.600	-31.579	0.100
708.700	-38.700	0.100
708.800	-28.295	0.100
708.900	-48.054	0.100
709.000	-33.238	0.100
709.100	-36.459	0.100
709.200	-33.299	0.100
709.300	-39.558	0.100
709.400	-23.715	0.100
709.500	-29.853	0.100
709.600	-37.002	0.100
709.700	-31.960	0.100
709.800	-27.165	0.100
709.900	-33.440	0.100
710.000	-32.336	0.100
710.100	-31.356	0.100
710.200	-42.829	0.100
710.300	-35.962	0.100
710.400	-39.248	0.100
710.500	-38.835	0.100
710.600	-34.251	0.100
710.700	-29.399	0.100
710.800	-34.554	0.100
710.900	-33.533	0.100
711.000	-28.895	0.100
711.100	-36.943	0.100
711.200	-38.432	0.100
711.300	-15.880	0.100
711.400	-32.264	0.100
711.500	-40.628	0.100
711.600	-43.586	0.100
711.700	-41.966	0.100
711.800	-30.958	0.100
711.900	-48.024	0.100
712.000	-35.997	0.099
712.100	-32.548	0.100
712.200	-44.618	0.100
712.300	-29.563	0.100
712.400	-33.553	0.100
712.500	-37.073	0.100
712.600	-40.758	0.100
712.700	-42.640	0.100
712.800	-24.360	0.100
712.900	-34.012	0.100
713.000	-36.011	0.100
713.100	-34.694	0.100
713.200	-28.867	0.100
713.300	-43.639	0.100
713.400	-24.969	0.100
713.500	-31.200	0.100
713.600	-57.354	0.100
713.700	-38.069	0.100
713.800	-41.264	0.100
713.900	-27.624	0.100
714.000	-26.523	0.100
714.100	-22.753	0.100
714.200	-34.186	0.100
714.300	-35.882	0.100
714.400	-42.940	0.100
714.500	-49.852	0.100
714.600	-37.530	0.100
714.700	-37.660	0.100
714.800	-47.112	0.100
714.900	-22.914	0.100
715.000	-28.350	0.100
715.100	-42.670	0.100
715.200	-29.144	0.099
715.300	-26.588	0.100
715.400	-32.597	0.100
715.500	-24.477	0.100
715.600	-30.934	0.100
715.700	-41.686	0.100
715.800	-45.948	0.100
715.900	-36.398	0.100
716.000	-42.292	0.100
716.100	-23.818	0.100
716.200	-38.060	0.100
716.300	-38.910	0.100
716.400	-20.673	0.100
716.500	-39.512	0.100
716.600	-33.195	0.100
716.700	-49.615	0.100
716.800	-36.299	0.100
716.900	-41.135	0.100
717.000	-48.957	0.100
717.100	-45.814	0.100
717.200	-37.863	0.100
717.300	-29.872	0.100
717.400	-29.910	0.100
717.500	-43.930	0.100
717.600	-32.295	0.100
717.700	-43.073	0.100
717.800	-38.474	0.100
717.900	-43.024	0.100
718.000	-35.932	0.100
718.100	-43.507	0.100
718.200	-30.044	0.100
718.300	-34.082	0.100
718.400	-42.616	0.100
718.500	-37.037	0.100
718.600	-43.221	0.100
718.700	-31.625	0.100
718.800	-24.986	0.100
718.900	-39.963	0.100
719.000	-41.949	0.100
719.100	-34.563	0.100
719.200	-36.833	0.100
719.300	-43.026	0.100
719.400	-36.085	0.100
719.500	-37.375	0.100
719.600	-49.292	0.100
719.700	-29.603	0.100
719.800	-47.016	0.100
719.900	-31.535	0.100
720.000	-24.111	0.100
720.100	-28.951	0.100
720.200	-34.917	0.100
720.300	-45.261	0.100
720.400	-45.523	0.100
720.500	-40.892	0.100
720.600	-38.358	0.100
720.700	-30.446	0.100
720.800	-46.171	0.100
720.900	-40.816	0.100
721.000	-40.623	0.100
721.100	-37.492	0.100
721.200	-54.544	0.100
721.300	-36.699	0.100
721.400	-36.656	0.100
721.500	-41.491	0.100
721.600	-48.436	0.100
721.700	-29.269	0.100
721.800	-47.354	0.100
721.900	-38.878	0.100
722.000	-35.036	0.100
722.100	-33.136	0.100
722.200	-43.075	0.100
722.300	-41.262	0.100
722.400	-41.233	0.100
722.500	-42.487	0.100
722.600	-38.397	0.100
722.700	-39.099	0.100
722.800	-36.725	0.100
722.900	-40.391	0.100
723.000	-43.246	0.100
723.100	-35.441	0.100
723.200	-35.128	0.100
723.300	-54.273	0.100
723.400	-48.123	0.100
723.500	-56.143	0.100
723.600	-47.881	0.100
723.700	-35.245	0.100
723.800	-39.917	0.100
723.900	-30.865	0.100
724.000	-51.711	0.100
724.100	-40.854	0.100
724.200	-41.709	0.100
724.300	-40.986	0.100
724.400	-36.803	0.100
724.500	-30.783	0.100
724.600	-29.563	0.100
724.700	-39.301	0.100
724.800	-28.924	0.100
724.900	-42.819	0.100
725.000	-23.661	0.100
725.100	-32.399	0.100
725.200	-36.363	0.100
725.300	-51.388	0.100
725.400	-45.000	0.100
725.500	-34.738	0.100
725.600	-43.243	0.100
725.700	-45.917	0.100
725.800	-32.083	0.100
725.900	-44.852	0.100
726.000	-39.165	0.100
726.100	-46.127	0.100
726.200	-43.454	0.100
726.300	-33.641	0.100
726.400	-38.084	0.100
726.500	-46.365	0.100
726.600	-38.680	0.100
726.700	-47.948	0.100
726.800	-55.593	0.100
726.900	-33.519	0.100
727.000	-34.983	0.100
727.100	-44.493	0.100
727.200	-32.064	0.100
727.300	-29.285	0.100
727.400	-43.515	0.100
727.500	-38.697	0.100
727.600	-41.173	0.100
727.700	-49.106	0.100
727.800	-41.893	0.100
727.900	-48.779	0.100
728.000	-39.380	0.100
728.100	-40.544	0.100
728.200	-47.920	0.100
728.300	-46.626	0.100
728.400	-59.106	0.100
728.500	-39.742	0.100
728.600	-48.705	0.100
728.700	-30.498	0.100
728.800	-40.775	0.100
728.900	-30.005	0.100
729.000	-50.878	0.100
729.100	-49.369	0.100
729.200	-37.809	0.100
729.300	-42.424	0.100
729.400	-35.124	0.100
729.500	-34.711	0.100
729.600	-49.154	0.100
729.700	-44.799	0.100
729.800	-35.805	0.100
729.900	-45.180	0.100
730.000	-34.934	0.100
730.100	-40.795	0.100
730.200	-38.967	0.100
730.300	-36.763	0.100
730.400	-51.854	0.100
730.500	-46.673	0.100
730.600	-38.338	0.100
730.700	-37.100	0.100
730.800	-35.159	0.100
730.900	-37.477	0.100
731.000	-31.819	0.100
731.100	-40.584	0.100
731.200	-30.329	0.100
731.300	-34.307	0.100
731.400	-47.181	0.100
731.500	-43.756	0.100
731.600	-39.343	0.100
731.700	-39.299	0.100
731.800	-33.786	0.100
731.900	-45.151	0.100
732.000	-24.360	0.100
732.100	-39.662	0.100
732.200	-33.293	0.100
732.300	-54.263	0.100
732.400	-48.325	0.100
732.500	-44.880	0.100
732.600	-56.458	0.100
732.700	-30.534	0.100
732.800	-30.587	0.100
732.900	-28.927	0.100
733.000	-39.114	0.100
733.100	-40.452	0.100
733.200	-36.463	0.100
733.300	-38.420	0.099
733.400	-43.063	0.100
733.500	-35.336	0.100
733.600	-49.994	0.100
733.700	-32.922	0.100
733.800	-31.657	0.100
733.900	-35.935	0.100
734.000	-35.069	0.100
734.100	-38.950	0.100
734.200	-37.606	0.100
734.300	-41.053	0.100
734.400	-32.762	0.100
734.500	-39.922	0.100
734.600	-37.154	0.100
734.700	-25.553	0.100
734.800	-42.499	0.100
734.900	-34.013	0.100
735.000	-40.827	0.100
735.100	-40.710	0.100
735.200	-46.290	0.100
735.300	-44.986	0.100
735.400	-30.533	0.100
735.500	-28.102	0.100
735.600	-32.190	0.100
735.700	-31.735	0.100
735.800	-32.388	0.100
735.900	-46.349	0.100
736.000	-39.359	0.100
736.100	-31.128	0.100
736.200	-35.497	0.100
736.300	-33.542	0.100
736.400	-42.521	0.100
736.500	-39.639	0.100
736.600	-55.120	0.100
736.700	-40.525	0.100
736.800	-33.025	0.100
736.900	-29.501	0.100
737.000	-46.220	0.100
737.100	-35.513	0.100
737.200	-36.670	0.100
737.300	-41.764	0.100
737.400	-37.220	0.100
737.500	-32.174	0.100
737.600	-48.504	0.100
737.700	-41.820	0.100
737.800	-42.886	0.099
737.900	-35.274	0.100
738.000	-48.035	0.100
738.100	-47.427	0.100
738.200	-38.548	0.100
738.300	-28.960	0.100
738.400	-39.015	0.100
738.500	-42.944	0.100
738.600	-37.646	0.100
738.700	-33.711	0.100
738.800	-32.868	0.100
738.900	-46.929	0.100
739.000	-33.226	0.100
739.100	-35.300	0.100
739.200	-28.698	0.100
739.300	-43.157	0.100
739.400	-29.393	0.100
739.500	-47.461	0.100
739.600	-43.915	0.100
739.700	-40.181	0.100
739.800	-56.813	0.100
739.900	-36.777	0.100
740.000	-35.941	0.100
740.100	-45.591	0.100
740.200	-37.822	0.100
740.300	-41.097	0.100
740.400	-42.185	0.100
740.500	-33.633	0.100
740.600	-36.257	0.100
740.700	-29.701	0.100
740.800	-41.752	0.100
740.900	-28.834	0.100
741.000	-32.300	0.100
741.100	-37.002	0.100
741.200	-30.898	0.100
741.300	-35.388	0.100
741.400	-52.330	0.100
741.500	-46.034	0.100
741.600	-33.846	0.100
741.700	-38.984	0.100
741.800	-42.763	0.100
741.900	-42.318	0.100
742.000	-35.455	0.100
742.100	-31.487	0.100
742.200	-50.896	0.100
742.300	-52.074	0.100
742.400	-37.119	0.100
742.500	-37.860	0.100
742.600	-38.817	0.100
742.700	-46.678	0.100
742.800	-37.947	0.100
742.900	-41.560	0.100
743.000	-36.373	0.100
743.100	-35.516	0.100
743.200	-26.383	0.100
743.300	-27.848	0.100
743.400	-40.223	0.100
743.500	-38.838	0.100
743.600	-24.044	0.100
743.700	-25.773	0.100
743.800	-56.006	0.100
743.900	-25.678	0.100
744.000	-42.237	0.100
744.100	-38.648	0.100
744.200	-42.393	0.100
744.300	-36.438	0.100
744.400	-38.827	0.100
744.500	-42.332	0.100
744.600	-37.214	0.100
744.700	-47.593	0.100
744.800	-39.273	0.100
744.900	-33.783	0.100
745.000	-20.310	0.100
745.100	-49.482	0.100
745.200	-30.768	0.100
745.300	-32.305	0.100
745.400	-39.912	0.100
745.500	-35.291	0.100
745.600	-36.769	0.100
745.700	-34.814	0.100
745.800	-44.196	0.100
745.900	-32.974	0.100
746.000	-45.731	0.100
746.100	-27.097	0.100
746.200	-35.889	0.100
746.300	-28.806	0.100
746.400	-39.962	0.100
746.500	-38.913	0.100
746.600	-55.826	0.100
746.700	-38.987	0.100
746.800	-34.373	0.100
746.900	-33.240	0.100
747.000	-30.948	0.100
747.100	-38.468	0.100
747.200	-45.378	0.100
747.300	-35.032	0.100
747.400	-34.356	0.100
747.500	-33.096	0.100
747.600	-44.276	0.100
747.700	-24.502	0.100
747.800	-39.582	0.100
747.900	-40.577	0.100
748.000	-42.561	0.100
748.100	-43.992	0.100
748.200	-33.703	0.100
748.300	-32.239	0.100
748.400	-36.547	0.100
748.500	-22.558	0.100
748.600	-33.056	0.100
748.700	-26.400	0.100
748.800	-36.111	0.100
748.900	-37.519	0.100
749.000	-43.172	0.100
749.100	-26.977	0.100
749.200	-41.147	0.100
749.300	-29.741	0.100
749.400	-24.058	0.100
749.500	-30.474	0.100
749.600	-32.956	0.100
749.700	-32.651	0.100
749.800	-43.794	0.100
749.900	-34.613	0.100
750.000	-33.834	0.100
750.100	-35.511	0.100
750.200	-42.709	0.100
750.300	-34.526	0.100
750.400	-31.320	0.100
750.500	-32.447	0.100
750.600	-34.544	0.100
750.700	-29.999	0.100
750.800	-43.951	0.100
750.900	-33.560	0.100
751.000	-33.692	0.100
751.100	-37.480	0.100
751.200	-31.084	0.100
751.300	-37.359	0.100
751.400	-41.897	0.100
751.500	-38.344	0.100
751.600	-43.271	0.100
751.700	-40.242	0.100
751.800	-37.280	0.100
751.900	-24.251	0.100
752.000	-39.693	0.100
752.100	-23.086	0.100
752.200	-31.832	0.100
752.300	-29.360	0.100
752.400	-25.841	0.100
752.500	-32.418	0.100
752.600	-34.026	0.100
752.700	-36.196	0.100
752.800	-37.477	0.100
752.900	-35.795	0.100
753.000	-37.999	0.100
753.100	-37.563	0.100
753.200	-45.083	0.100
753.300	-30.370	0.100
753.400	-33.062	0.100
753.500	-34.088	0.100
753.600	-48.364	0.100
753.700	-27.804	0.100
753.800	-37.051	0.100
753.900	-38.914	0.100
754.000	-31.274	0.100
754.100	-37.843	0.100
754.200	-46.878	0.100
754.300	-27.206	0.100
754.400	-29.399	0.100
754.500	-24.641	0.100
754.600	-36.734	0.100
754.700	-35.069	0.100
754.800	-49.958	0.100
754.900	-33.646	0.100
755.000	-43.356	0.100
755.100	-30.441	0.100
755.200	-31.248	0.100
755.300	-24.713	0.100
755.400	-41.852	0.100
755.500	-25.536	0.100
755.600	-32.912	0.100
755.700	-31.603	0.100
755.800	-26.670	0.100
755.900	-24.821	0.100
756.000	-38.549	0.100
756.100	-38.514	0.100
756.200	-31.648	0.100
756.300	-35.771	0.100
756.400	-40.507	0.100
756.500	-26.990	0.100
756.600	-33.682	0.100
756.700	-45.079	0.100
756.800	-18.324	0.100
756.900	-37.875	0.100
757.000	-44.515	0.100
757.100	-28.974	0.100
757.200	-36.511	0.100
757.300	-29.382	0.100
757.400	-38.067	0.100
757.500	-34.935	0.100
757.600	-36.825	0.100
757.700	-43.963	0.100
757.800	-39.561	0.100
757.900	-40.583	0.100
758.000	-22.825	0.100
758.100	-25.211	0.100
758.200	-22.824	0.099
758.300	-38.197	0.100
758.400	-27.610	0.100
758.500	-33.317	0.100
758.600	-21.509	0.100
758.700	-46.443	0.100
758.800	-30.799	0.100
758.900	-29.048	0.100
759.000	-35.043	0.100
759.100	-39.739	0.099
759.200	-25.476	0.100
759.300	-23.832	0.100
759.400	-35.735	0.100
759.500	-35.040	0.100
759.600	-31.633	0.100
759.700	-43.715	0.100
759.800	-25.149	0.100
759.900	-35.459	0.099
760.000	-40.093	0.100
760.100	-41.155	0.100
760.200	-30.312	0.100
760.300	-36.026	0.100
760.400	-26.757	0.100
760.500	-27.006	0.100
760.600	-37.010	0.100
760.700	-25.792	0.100
760.800	-42.948	0.100
760.900	-38.387	0.100
761.000	-27.803	0.100
761.100	-38.515	0.100
761.200	-28.250	0.100
761.300	-34.813	0.100
761.400	-38.736	0.100
761.500	-31.673	0.099
761.600	-34.333	0.100
761.700	-44.573	0.100
761.800	-27.755	0.099
761.900	-39.775	0.100
762.000	-38.144	0.100
762.100	-38.296	0.100
762.200	-24.282	0.100
762.300	-36.690	0.100
762.400	-29.089	0.100
762.500	-25.908	0.100
762.600	-37.384	0.100
762.700	-44.855	0.100
762.800	-34.053	0.100
762.900	-19.951	0.100
763.000	-30.359	0.100
763.100	-31.403	0.100
763.200	-52.493	0.100
763.300	-53.286	0.100
763.400	-29.914	0.100
763.500	-30.598	0.100
763.600	-28.687	0.100
763.700	-33.514	0.099
763.800	-26.154	0.100
763.900	-49.204	0.100
764.000	-26.062	0.100
764.100	-29.954	0.100
764.200	-30.534	0.100
764.300	-35.750	0.100
764.400	-27.476	0.100
764.500	-24.038	0.100
764.600	-44.250	0.100
764.700	-35.342	0.100
764.800	-32.103	0.100
764.900	-22.761	0.100
765.000	-26.463	0.100
765.100	-18.639	0.100
765.200	-35.809	0.100
765.300	-42.286	0.100
765.400	-39.421	0.099
765.500	-35.762	0.100
765.600	-23.488	0.100
765.700	-37.446	0.100
765.800	-37.138	0.100
765.900	-34.168	0.100
766.000	-34.411	0.099
766.100	-21.513	0.100
766.200	-23.948	0.100
766.300	-31.384	0.099
766.400	-27.724	0.100
766.500	-35.309	0.100
766.600	-30.173	0.100
766.700	-36.738	0.100
766.800	-37.957	0.100
766.900	-31.626	0.100
767.000	-37.369	0.100
767.100	-47.396	0.099
767.200	-15.833	0.100
767.300	-34.559	0.099
767.400	-30.522	0.100
767.500	-32.998	0.100
767.600	-37.297	0.100
767.700	-34.959	0.100
767.800	-34.847	0.100
767.900	-34.739	0.100
768.000	-22.530	0.100
768.100	-22.188	0.100
768.200	-32.162	0.100
768.300	-26.455	0.100
768.400	-28.144	0.100
768.500	-37.600	0.099
768.600	-17.830	0.100
768.700	-19.166	0.100
768.800	-36.230	0.099
768.900	-26.983	0.100
769.000	-43.073	0.100
769.100	-24.486	0.100
769.200	-21.951	0.100
769.300	-29.584	0.100
769.400	-44.520	0.100
769.500	-36.376	0.100
769.600	-21.404	0.100
769.700	-36.100	0.100
769.800	-27.800	0.100
769.900	-32.199	0.100
770.000	-44.568	0.100
770.100	-46.218	0.100
770.200	-35.220	0.100
770.300	-38.047	0.100
770.400	-20.687	0.100
770.500	-27.144	0.099
770.600	-31.435	0.099
770.700	-41.305	0.100
770.800	-35.332	0.099
770.900	-29.846	0.099
771.000	-30.619	0.100
771.100	-30.926	0.100
771.200	-34.672	0.100
771.300	-32.902	0.100
771.400	-21.077	0.100
771.500	-38.997	0.100
771.600	-24.830	0.099
771.700	-52.029	0.099
771.800	-18.315	0.100
771.900	-26.495	0.100
772.000	-26.636	0.100
772.100	-25.635	0.100
772.200	-23.213	0.100
772.300	-29.210	0.099
772.400	-31.147	0.100
772.500	-26.329	0.100
772.600	-42.767	0.100
772.700	-25.585	0.099
772.800	-33.626	0.100
772.900	-28.432	0.100
773.000	-28.537	0.100
773.100	-36.693	0.100
773.200	-31.838	0.100
773.300	-24.988	0.099
773.400	-45.828	0.100
773.500	-26.830	0.100
773.600	-35.360	0.100
773.700	-18.105	0.100
773.800	-30.947	0.100
773.900	-31.916	0.100
774.000	-34.474	0.099
774.100	-14.550	0.100
774.200	-24.639	0.100
774.300	-29.816	0.100
774.400	-36.898	0.100
774.500	-37.457	0.100
774.600	-27.036	0.100
774.700	-21.885	0.100
774.800	-29.322	0.100
774.900	-37.004	0.099
775.000	-34.116	0.100
775.100	-34.936	0.100
775.200	-49.206	0.100
775.300	-36.306	0.100
775.400	-26.721	0.099
775.500	-28.947	0.099
775.600	-17.765	0.100
775.700	-26.646	0.099
775.800	-37.930	0.100
775.900	-29.524	0.100
776.000	-29.271	0.100
776.100	-14.294	0.100
776.200	-32.333	0.100
776.300	-24.019	0.100
776.400	-35.403	0.100
776.500	-40.243	0.100
776.600	-25.295	0.100
776.700	-32.728	0.100
776.800	-27.317	0.100
776.900	-30.904	0.100
777.000	-13.673	0.100
777.100	-25.727	0.100
777.200	-24.283	0.100
777.300	-35.690	0.100
777.400	-34.156	0.099
777.500	-18.209	0.100
777.600	-23.539	0.100
777.700	-21.583	0.100
777.800	-32.678	0.100
777.900	-46.853	0.099
778.000	-31.336	0.100
778.100	-28.423	0.100
778.200	-26.072	0.100
778.300	-30.867	0.100
778.400	-31.220	0.099
778.500	-40.568	0.100
778.600	-26.339	0.099
778.700	-42.876	0.100
778.800	-29.186	0.100
778.900	-6.765	0.100
779.000	-28.349	0.099
779.100	-18.412	0.100
779.200	-39.262	0.100
779.300	-44.353	0.099
779.400	-36.764	0.100
779.500	-14.067	0.100
779.600	-27.773	0.099
779.700	-24.541	0.100
779.800	-27.597	0.100
779.900	-29.656	0.100
780.000	-31.314	0.100
780.100	-49.018	0.100
780.200	-31.088	0.100
780.300	-16.769	0.100
780.400	1.246	0.100
780.500	-3.241	0.100
780.600	-8.232	0.100
780.700	-7.037	0.100
780.800	8.360	0.100
780.900	18.078	0.099
781.000	22.452	0.100
781.100	36.471	0.100
781.200	28.494	0.100
781.300	31.008	0.099
781.400	22.135	0.100
781.500	15.638	0.100
781.600	20.620	0.100
781.700	28.767	0.100
781.800	20.218	0.100
781.900	27.938	0.100
782.000	20.774	0.100
782.100	29.213	0.100
782.200	25.405	0.100
782.300	15.765	0.099
782.400	16.719	0.100
782.500	26.492	0.100
782.600	34.935	0.100
782.700	17.290	0.100
782.800	16.929	0.100
782.900	19.277	0.100
783.000	13.475	0.100
783.100	25.351	0.100
783.200	16.251	0.100
783.300	32.685	0.100
783.400	-2.195	0.100
783.500	7.778	0.100
783.600	15.948	0.100
783.700	19.888	0.099
783.800	4.221	0.100
783.900	10.502	0.100
784.000	26.177	0.100
784.100	20.696	0.100
784.200	21.656	0.100
784.300	19.311	0.100
784.400	10.906	0.100
784.500	18.563	0.100
784.600	25.710	0.100
784.700	22.779	0.100
784.800	21.489	0.100
784.900	12.975	0.100
785.000	20.492	0.099
785.100	8.424	0.099
785.200	15.782	0.100
785.300	25.305	0.100
785.400	21.578	0.100
785.500	13.242	0.100
785.600	4.725	0.100
785.700	4.026	0.100
785.800	26.114	0.100
785.900	1.817	0.100
786.000	21.762	0.100
786.100	17.229	0.100
786.200	27.949	0.100
786.300	21.232	0.100
786.400	19.174	0.100
786.500	17.169	0.100
786.600	-10.891	0.100
786.700	12.549	0.100
786.800	18.062	0.100
786.900	26.273	0.100
787.000	21.882	0.100
787.100	14.891	0.100
787.200	14.228	0.100
787.300	13.839	0.100
787.400	30.431	0.100
787.500	15.625	0.100
787.600	13.093	0.100
787.700	24.290	0.100
787.800	25.090	0.100
787.900	23.477	0.100
788.000	31.087	0.100
788.100	19.612	0.100
788.200	19.154	0.100
788.300	14.487	0.100
788.400	28.991	0.100
788.500	24.459	0.100
788.600	20.578	0.100
788.700	46.904	0.100
788.800	35.576	0.100
788.900	22.059	0.100
789.000	24.586	0.100
789.100	25.166	0.099
789.200	22.398	0.100
789.300	29.035	0.100
789.400	31.256	0.100
789.500	38.278	0.100
789.600	25.481	0.100
789.700	19.916	0.100
789.800	33.003	0.100
789.900	23.230	0.100
790.000	48.175	0.100
790.100	37.710	0.100
790.200	22.669	0.100
790.300	30.061	0.100
790.400	28.014	0.100
790.500	41.489	0.100
790.600	44.645	0.100
790.700	38.420	0.100
790.800	37.429	0.100
790.900	32.987	0.100
791.000	48.692	0.100
791.100	39.879	0.100
791.200	31.715	0.100
791.300	46.618	0.100
791.400	46.684	0.100
791.500	48.902	0.100
791.600	46.831	0.100
791.700	40.769	0.100
791.800	41.724	0.100
791.900	32.289	0.100
792.000	35.357	0.100
792.100	50.226	0.100
792.200	50.631	0.100
792.300	43.304	0.100
792.400	39.427	0.100
792.500	34.559	0.099
792.600	47.671	0.100
792.700	38.858	0.100
792.800	50.084	0.100
792.900	56.992	0.100
793.000	41.894	0.100
793.100	51.439	0.100
793.200	47.211	0.099
793.300	44.751	0.100
793.400	56.756	0.100
793.500	51.807	0.100
793.600	58.731	0.100
793.700	38.086	0.100
793.800	62.000	0.100
793.900	48.347	0.100
794.000	37.662	0.100
794.100	52.807	0.100
794.200	53.969	0.100
794.300	54.612	0.100
794.400	32.138	0.100
794.500	65.153	0.100
794.600	51.828	0.100
794.700	45.328	0.100
794.800	37.594	0.100
794.900	57.854	0.100
795.000	58.407	0.100
795.100	56.459	0.100
795.200	55.744	0.100
795.300	60.864	0.100
795.400	44.296	0.100
795.500	57.097	0.100
795.600	54.263	0.100
795.700	47.916	0.100
795.800	43.916	0.100
795.900	54.640	0.100
796.000	62.601	0.100
796.100	68.995	0.100
796.200	55.517	0.100
796.300	56.576	0.100
796.400	65.670	0.100
796.500	56.953	0.100
796.600	56.953	0.100
796.700	56.530	0.100
796.800	44.687	0.100
796.900	50.998	0.100
797.000	46.860	0.100
797.100	52.139	0.100
797.200	51.708	0.100
797.300	54.751	0.100
797.400	64.035	0.100
797.500	66.300	0.100
797.600	48.811	0.100
797.700	58.448	0.100
797.800	54.697	0.100
797.900	60.672	0.100
798.000	56.230	0.100
798.100	65.923	0.100
798.200	49.104	0.100
798.300	59.899	0.100
798.400	66.282	0.100
798.500	66.827	0.100
798.600	50.927	0.100
798.700	68.955	0.100
798.800	58.924	0.100
798.900	61.887	0.100
799.000	64.303	0.099
799.100	49.667	0.100
799.200	58.215	0.100
799.300	62.092	0.100
799.400	66.035	0.100
799.500	64.474	0.100
799.600	49.885	0.100
799.700	53.298	0.100
799.800	56.611	0.100
799.900	58.290	0.100
800.000	63.159	0.100
