time /s	I /nA	E /V
0.100	-15.363	0.100
0.200	1.859	0.100
0.300	0.817	0.100
0.400	-5.344	0.100
0.500	-9.165	0.100
0.600	-0.831	0.100
0.700	-12.372	0.100
0.800	-7.530	0.100
0.900	-2.010	0.100
1.000	4.775	0.100
1.100	-3.384	0.100
1.200	3.427	0.100
1.300	-12.862	0.100
1.400	-7.045	0.100
1.500	-8.182	0.100
1.600	2.183	0.100
1.700	-2.307	0.100
1.800	-1.541	0.100
1.900	-4.701	0.100
2.000	9.750	0.100
2.100	-2.832	0.100
2.200	-14.412	0.100
2.300	-0.884	0.100
2.400	2.763	0.100
2.500	-7.796	0.100
2.600	-10.594	0.100
2.700	-13.039	0.100
2.800	4.981	0.100
2.900	-19.075	0.100
3.000	-0.521	0.100
3.100	7.751	0.100
3.200	-0.590	0.100
3.300	-7.541	0.100
3.400	-0.815	0.100
3.500	-7.416	0.100
3.600	8.826	0.100
3.700	-8.386	0.100
3.800	-8.759	0.100
3.900	1.531	0.100
4.000	-5.551	0.100
4.100	-9.530	0.100
4.200	15.392	0.100
4.300	-5.976	0.100
4.400	-5.631	0.100
4.500	-18.199	0.100
4.600	-9.747	0.100
4.700	-14.310	0.100
4.800	-6.027	0.100
4.900	10.232	0.100
5.000	-9.382	0.100
5.100	-5.111	0.100
5.200	-5.342	0.100
5.300	2.627	0.100
5.400	2.682	0.100
5.500	0.517	0.100
5.600	-2.776	0.100
5.700	1.765	0.100
5.800	-14.876	0.100
5.900	-3.995	0.100
6.000	2.876	0.100
6.100	8.295	0.100
6.200	0.283	0.100
6.300	-11.945	0.100
6.400	-20.082	0.100
6.500	0.381	0.100
6.600	-2.516	0.100
6.700	10.025	0.100
6.800	-2.426	0.100
6.900	-9.552	0.100
7.000	-6.068	0.100
7.100	-12.727	0.100
7.200	3.274	0.100
7.300	-10.509	0.100
7.400	-3.505	0.100
7.500	4.970	0.100
7.600	1.926	0.100
7.700	-4.837	0.100
7.800	-11.557	0.100
7.900	-5.951	0.100
8.000	-7.369	0.100
8.100	5.385	0.100
8.200	-2.681	0.100
8.300	-10.440	0.100
8.400	1.559	0.100
8.500	-1.957	0.100
8.600	-4.372	0.100
8.700	4.239	0.100
8.800	-15.432	0.100
8.900	1.434	0.100
9.000	-7.587	0.100
9.100	1.519	0.100
9.200	2.632	0.100
9.300	-9.661	0.100
9.400	-10.084	0.100
9.500	7.390	0.100
9.600	9.916	0.100
9.700	-6.706	0.100
9.800	-7.241	0.100
9.900	-1.974	0.100
10.000	-7.831	0.100
10.100	-3.394	0.100
10.200	-4.555	0.100
10.300	0.459	0.100
10.400	-1.904	0.100
10.500	0.584	0.100
10.600	1.313	0.100
10.700	2.240	0.100
10.800	-15.912	0.100
10.900	1.102	0.100
11.000	-15.644	0.100
11.100	8.316	0.100
11.200	2.474	0.100
11.300	-19.658	0.100
11.400	-14.463	0.100
11.500	-11.651	0.100
11.600	-7.543	0.100
11.700	6.911	0.100
11.800	-4.531	0.100
11.900	-2.983	0.100
12.000	0.143	0.100
12.100	-1.453	0.100
12.200	-4.822	0.100
12.300	0.990	0.100
12.400	-2.638	0.100
12.500	3.858	0.100
12.600	-8.752	0.100
12.700	3.024	0.100
12.800	-14.949	0.100
12.900	-13.084	0.100
13.000	4.990	0.100
13.100	-5.927	0.100
13.200	-5.532	0.100
13.300	-20.996	0.100
13.400	-9.938	0.100
13.500	-0.167	0.100
13.600	5.873	0.100
13.700	5.226	0.100
13.800	-24.014	0.100
13.900	4.070	0.100
14.000	-1.508	0.100
14.100	-3.348	0.100
14.200	-2.685	0.100
14.300	0.716	0.100
14.400	-2.357	0.100
14.500	-0.068	0.100
14.600	-9.839	0.100
14.700	5.859	0.100
14.800	-1.595	0.100
14.900	0.014	0.100
15.000	4.515	0.100
15.100	-3.274	0.100
15.200	-1.683	0.100
15.300	-6.256	0.100
15.400	-12.204	0.100
15.500	-2.984	0.100
15.600	0.446	0.100
15.700	-4.080	0.100
15.800	-8.533	0.100
15.900	4.159	0.100
16.000	-2.233	0.100
16.100	-8.062	0.100
16.200	-11.454	0.100
16.300	12.399	0.100
16.400	-2.898	0.100
16.500	-4.333	0.100
16.600	6.589	0.100
16.700	-5.215	0.100
16.800	-21.211	0.100
16.900	6.952	0.100
17.000	1.144	0.100
17.100	-4.544	0.100
17.200	-6.926	0.100
17.300	-8.267	0.100
17.400	-2.326	0.100
17.500	1.111	0.100
17.600	2.098	0.100
17.700	-4.827	0.100
17.800	-0.036	0.100
17.900	-14.207	0.100
18.000	-12.183	0.100
18.100	-8.052	0.100
18.200	-4.155	0.100
18.300	16.733	0.100
18.400	-5.596	0.100
18.500	-3.340	0.100
18.600	-1.304	0.100
18.700	-2.796	0.100
18.800	7.456	0.100
18.900	-7.029	0.100
19.000	-4.393	0.100
19.100	-4.388	0.100
19.200	-4.439	0.100
19.300	-6.610	0.100
19.400	-5.198	0.100
19.500	-14.133	0.100
19.600	-20.303	0.100
19.700	-5.295	0.100
19.800	-1.711	0.100
19.900	7.481	0.100
20.000	10.375	0.100
20.100	-5.620	0.100
20.200	8.400	0.100
20.300	-2.208	0.100
20.400	-13.534	0.100
20.500	-4.346	0.100
20.600	-2.328	0.100
20.700	-0.287	0.100
20.800	0.803	0.100
20.900	-3.146	0.100
21.000	-6.898	0.100
21.100	3.145	0.100
21.200	-9.851	0.099
21.300	-5.262	0.100
21.400	0.280	0.100
21.500	-6.613	0.100
21.600	-3.707	0.100
21.700	-7.150	0.099
21.800	3.364	0.100
21.900	2.009	0.100
22.000	-10.593	0.100
22.100	-1.621	0.100
22.200	-5.384	0.100
22.300	-12.649	0.100
22.400	-2.872	0.100
22.500	6.888	0.100
22.600	7.603	0.100
22.700	-15.241	0.100
22.800	-3.049	0.100
22.900	-7.390	0.100
23.000	-4.160	0.100
23.100	1.884	0.100
23.200	-5.788	0.100
23.300	3.463	0.100
23.400	-8.592	0.100
23.500	-6.160	0.100
23.600	-1.580	0.100
23.700	-0.173	0.100
23.800	-9.796	0.100
23.900	0.989	0.100
24.000	-4.962	0.100
24.100	7.405	0.100
24.200	-6.391	0.100
24.300	-3.856	0.100
24.400	-17.067	0.100
24.500	-18.176	0.100
24.600	-5.947	0.100
24.700	7.273	0.100
24.800	-16.973	0.100
24.900	0.596	0.100
25.000	-5.959	0.100
25.100	-1.965	0.100
25.200	5.587	0.100
25.300	-17.345	0.100
25.400	13.624	0.100
25.500	-5.669	0.100
25.600	-9.751	0.100
25.700	-3.754	0.100
25.800	5.576	0.100
25.900	-2.761	0.100
26.000	-1.044	0.100
26.100	-31.150	0.100
26.200	-10.977	0.100
26.300	8.733	0.100
26.400	5.672	0.100
26.500	-5.395	0.100
26.600	5.920	0.100
26.700	6.135	0.100
26.800	-5.517	0.100
26.900	-1.195	0.100
27.000	8.991	0.100
27.100	9.720	0.100
27.200	-17.688	0.100
27.300	1.515	0.100
27.400	-25.094	0.100
27.500	-11.955	0.100
27.600	3.081	0.100
27.700	3.520	0.100
27.800	-4.567	0.100
27.900	-12.406	0.100
28.000	-2.445	0.100
28.100	5.361	0.100
28.200	-5.831	0.100
28.300	-22.197	0.100
28.400	-16.405	0.100
28.500	14.978	0.100
28.600	-2.851	0.100
28.700	4.501	0.100
28.800	10.684	0.100
28.900	-7.763	0.100
29.000	-7.952	0.100
29.100	-0.383	0.100
29.200	-15.582	0.100
29.300	-7.795	0.100
29.400	-3.041	0.100
29.500	-7.580	0.100
29.600	-14.770	0.100
29.700	9.166	0.100
29.800	5.212	0.100
29.900	-7.440	0.100
30.000	-6.743	0.100
30.100	-9.552	0.100
30.200	9.575	0.100
30.300	17.378	0.100
30.400	0.730	0.100
30.500	6.670	0.100
30.600	10.389	0.100
30.700	-4.583	0.100
30.800	11.400	0.100
30.900	6.843	0.100
31.000	13.993	0.100
31.100	9.924	0.100
31.200	24.849	0.100
31.300	24.754	0.100
31.400	3.848	0.100
31.500	10.313	0.100
31.600	34.651	0.100
31.700	18.195	0.100
31.800	12.452	0.100
31.900	14.289	0.100
32.000	16.906	0.100
32.100	24.620	0.100
32.200	24.567	0.100
32.300	23.704	0.100
32.400	9.501	0.100
32.500	20.147	0.100
32.600	25.515	0.099
32.700	24.809	0.100
32.800	13.499	0.100
32.900	39.485	0.100
33.000	15.465	0.100
33.100	1.773	0.100
33.200	9.297	0.100
33.300	20.894	0.100
33.400	28.860	0.100
33.500	11.785	0.100
33.600	19.056	0.100
33.700	18.551	0.100
33.800	31.987	0.100
33.900	28.213	0.100
34.000	7.987	0.100
34.100	23.490	0.100
34.200	22.464	0.100
34.300	35.245	0.100
34.400	11.241	0.100
34.500	45.176	0.100
34.600	18.870	0.100
34.700	32.601	0.100
34.800	38.279	0.100
34.900	26.614	0.100
35.000	25.871	0.100
35.100	23.681	0.100
35.200	37.094	0.100
35.300	37.898	0.100
35.400	24.890	0.100
35.500	45.315	0.100
35.600	44.562	0.100
35.700	20.446	0.100
35.800	47.846	0.100
35.900	33.924	0.100
36.000	33.542	0.100
36.100	33.571	0.100
36.200	36.590	0.100
36.300	19.912	0.100
36.400	33.849	0.100
36.500	37.105	0.100
36.600	42.279	0.100
36.700	27.443	0.100
36.800	36.962	0.100
36.900	39.229	0.100
37.000	39.411	0.100
37.100	43.048	0.100
37.200	48.420	0.100
37.300	29.513	0.100
37.400	37.423	0.100
37.500	51.791	0.100
37.600	19.411	0.100
37.700	35.936	0.100
37.800	52.270	0.100
37.900	33.383	0.100
38.000	28.335	0.099
38.100	42.771	0.100
38.200	54.044	0.100
38.300	36.601	0.100
38.400	43.584	0.100
38.500	43.350	0.100
38.600	43.445	0.100
38.700	48.246	0.100
38.800	30.442	0.100
38.900	50.736	0.100
39.000	34.793	0.100
39.100	52.382	0.100
39.200	41.577	0.100
39.300	37.108	0.100
39.400	32.544	0.100
39.500	35.095	0.100
39.600	39.983	0.100
39.700	50.171	0.100
39.800	55.461	0.100
39.900	34.041	0.100
40.000	47.434	0.100
40.100	49.101	0.100
40.200	43.824	0.100
40.300	47.555	0.100
40.400	35.258	0.100
40.500	49.664	0.100
40.600	30.134	0.100
40.700	41.687	0.100
40.800	34.922	0.100
40.900	38.290	0.100
41.000	38.778	0.100
41.100	35.839	0.100
41.200	26.404	0.100
41.300	43.944	0.100
41.400	44.221	0.100
41.500	39.072	0.100
41.600	41.092	0.100
41.700	48.931	0.100
41.800	38.193	0.100
41.900	41.590	0.100
42.000	32.689	0.100
42.100	49.141	0.100
42.200	34.098	0.100
42.300	50.529	0.100
42.400	53.524	0.100
42.500	33.897	0.100
42.600	35.089	0.100
42.700	25.195	0.100
42.800	37.531	0.100
42.900	24.110	0.100
43.000	47.907	0.100
43.100	41.553	0.100
43.200	14.935	0.100
43.300	22.756	0.100
43.400	27.274	0.100
43.500	36.752	0.100
43.600	27.803	0.100
43.700	43.553	0.100
43.800	39.791	0.100
43.900	34.505	0.100
44.000	33.374	0.100
44.100	25.515	0.100
44.200	30.075	0.100
44.300	28.583	0.100
44.400	34.042	0.100
44.500	27.543	0.100
44.600	31.415	0.100
44.700	33.941	0.100
44.800	24.447	0.100
44.900	36.007	0.100
45.000	39.039	0.100
45.100	25.482	0.100
45.200	28.075	0.100
45.300	48.477	0.100
45.400	28.378	0.100
45.500	24.019	0.100
45.600	17.800	0.100
45.700	29.825	0.100
45.800	37.663	0.100
45.900	28.586	0.100
46.000	38.546	0.100
46.100	26.166	0.100
46.200	30.058	0.100
46.300	28.708	0.100
46.400	18.599	0.100
46.500	26.696	0.100
46.600	38.008	0.100
46.700	37.754	0.100
46.800	25.775	0.100
46.900	34.821	0.100
47.000	25.684	0.100
47.100	51.137	0.100
47.200	13.189	0.100
47.300	36.669	0.100
47.400	23.064	0.100
47.500	26.216	0.100
47.600	30.258	0.100
47.700	39.180	0.100
47.800	28.101	0.100
47.900	32.805	0.100
48.000	21.401	0.100
48.100	24.300	0.100
48.200	32.641	0.100
48.300	42.390	0.100
48.400	30.402	0.100
48.500	37.053	0.100
48.600	29.287	0.100
48.700	24.991	0.100
48.800	36.154	0.100
48.900	23.882	0.100
49.000	38.677	0.100
49.100	13.070	0.100
49.200	44.522	0.100
49.300	32.632	0.100
49.400	31.030	0.100
49.500	20.179	0.100
49.600	37.305	0.100
49.700	26.705	0.100
49.800	33.135	0.100
49.900	25.700	0.100
50.000	50.945	0.100
50.100	30.945	0.100
50.200	44.888	0.100
50.300	23.327	0.100
50.400	43.093	0.100
50.500	26.993	0.100
50.600	30.859	0.100
50.700	37.287	0.100
50.800	34.271	0.100
50.900	28.207	0.100
51.000	33.127	0.100
51.100	30.182	0.100
51.200	28.373	0.100
51.300	46.409	0.100
51.400	50.651	0.100
51.500	31.772	0.100
51.600	41.392	0.100
51.700	24.573	0.100
51.800	24.462	0.100
51.900	36.705	0.100
52.000	32.286	0.100
52.100	30.818	0.100
52.200	48.944	0.100
52.300	43.083	0.100
52.400	33.973	0.100
52.500	40.985	0.100
52.600	29.894	0.100
52.700	41.114	0.100
52.800	31.786	0.099
52.900	35.846	0.100
53.000	36.123	0.100
53.100	39.073	0.100
53.200	32.679	0.100
53.300	27.380	0.100
53.400	37.154	0.100
53.500	37.411	0.100
53.600	41.424	0.100
53.700	58.316	0.100
53.800	43.902	0.100
53.900	43.262	0.100
54.000	31.855	0.100
54.100	48.542	0.100
54.200	36.240	0.100
54.300	38.505	0.100
54.400	44.443	0.100
54.500	46.337	0.100
54.600	40.972	0.100
54.700	48.169	0.100
54.800	32.910	0.100
54.900	35.772	0.100
55.000	40.460	0.100
55.100	28.225	0.100
55.200	49.361	0.100
55.300	33.860	0.100
55.400	40.505	0.100
55.500	51.115	0.100
55.600	32.213	0.100
55.700	37.402	0.100
55.800	44.334	0.100
55.900	53.294	0.100
56.000	40.570	0.100
56.100	33.565	0.100
56.200	18.835	0.100
56.300	40.390	0.100
56.400	55.609	0.100
56.500	46.069	0.100
56.600	51.697	0.100
56.700	41.662	0.100
56.800	39.330	0.099
56.900	50.893	0.100
57.000	31.277	0.100
57.100	36.321	0.100
57.200	20.592	0.100
57.300	41.106	0.099
57.400	42.378	0.100
57.500	34.456	0.100
57.600	40.647	0.100
57.700	46.056	0.100
57.800	35.684	0.100
57.900	39.306	0.100
58.000	37.619	0.100
58.100	38.015	0.100
58.200	43.479	0.100
58.300	51.977	0.100
58.400	40.667	0.100
58.500	38.247	0.100
58.600	56.284	0.100
58.700	29.404	0.100
58.800	53.820	0.100
58.900	35.475	0.100
59.000	33.818	0.100
59.100	46.772	0.100
59.200	53.123	0.100
59.300	46.532	0.100
59.400	38.554	0.100
59.500	25.496	0.100
59.600	46.260	0.100
59.700	43.529	0.100
59.800	46.436	0.100
59.900	38.131	0.100
60.000	53.229	0.100
60.100	42.478	0.100
60.200	50.770	0.100
60.300	40.365	0.100
60.400	33.359	0.100
60.500	42.404	0.100
60.600	37.919	0.100
60.700	49.148	0.100
60.800	44.571	0.100
60.900	46.189	0.100
61.000	37.154	0.100
61.100	46.587	0.100
61.200	45.471	0.100
61.300	34.156	0.100
61.400	58.893	0.100
61.500	41.963	0.100
61.600	47.463	0.100
61.700	46.431	0.100
61.800	45.988	0.100
61.900	44.310	0.100
62.000	50.848	0.100
62.100	47.603	0.100
62.200	39.364	0.100
62.300	57.584	0.100
62.400	45.357	0.100
62.500	45.348	0.100
62.600	41.570	0.100
62.700	45.253	0.100
62.800	36.614	0.100
62.900	33.229	0.100
63.000	40.210	0.100
63.100	59.315	0.100
63.200	44.543	0.100
63.300	28.936	0.100
63.400	54.735	0.100
63.500	43.537	0.100
63.600	41.025	0.100
63.700	55.766	0.100
63.800	22.795	0.100
63.900	43.783	0.100
64.000	47.803	0.100
64.100	44.398	0.100
64.200	40.251	0.100
64.300	38.392	0.100
64.400	47.392	0.100
64.500	46.919	0.100
64.600	41.221	0.100
64.700	42.031	0.100
64.800	50.208	0.100
64.900	45.152	0.100
65.000	54.720	0.100
65.100	40.502	0.100
65.200	44.577	0.100
65.300	41.597	0.100
65.400	55.864	0.100
65.500	39.515	0.100
65.600	44.742	0.100
65.700	46.336	0.100
65.800	49.419	0.100
65.900	41.620	0.100
66.000	48.335	0.100
66.100	46.885	0.100
66.200	47.280	0.100
66.300	40.943	0.100
66.400	43.512	0.100
66.500	34.493	0.100
66.600	39.104	0.100
66.700	38.267	0.100
66.800	46.620	0.100
66.900	55.175	0.100
67.000	52.643	0.100
67.100	49.996	0.100
67.200	56.435	0.100
67.300	56.499	0.100
67.400	48.806	0.100
67.500	38.568	0.100
67.600	54.434	0.100
67.700	53.352	0.100
67.800	71.428	0.100
67.900	38.036	0.100
68.000	50.430	0.100
68.100	41.897	0.100
68.200	37.612	0.100
68.300	44.115	0.100
68.400	50.008	0.100
68.500	37.012	0.100
68.600	51.556	0.100
68.700	31.054	0.100
68.800	43.031	0.100
68.900	60.758	0.100
69.000	51.198	0.100
69.100	47.632	0.100
69.200	47.907	0.100
69.300	43.912	0.100
69.400	51.866	0.100
69.500	47.507	0.100
69.600	44.198	0.100
69.700	25.694	0.100
69.800	43.183	0.100
69.900	55.112	0.100
70.000	45.904	0.100
70.100	62.357	0.100
70.200	48.423	0.100
70.300	54.395	0.100
70.400	46.113	0.100
70.500	54.114	0.100
70.600	39.382	0.100
70.700	39.186	0.100
70.800	50.800	0.100
70.900	41.711	0.100
71.000	44.313	0.100
71.100	50.944	0.100
71.200	44.471	0.100
71.300	54.425	0.100
71.400	58.497	0.100
71.500	43.582	0.100
71.600	46.827	0.100
71.700	55.055	0.100
71.800	52.091	0.100
71.900	44.850	0.100
72.000	53.317	0.100
72.100	42.944	0.100
72.200	51.217	0.100
72.300	46.246	0.100
72.400	51.512	0.100
72.500	59.112	0.100
72.600	54.406	0.100
72.700	54.087	0.100
72.800	49.580	0.100
72.900	53.356	0.100
73.000	45.813	0.100
73.100	48.143	0.100
73.200	49.905	0.100
73.300	52.494	0.100
73.400	53.727	0.100
73.500	45.254	0.100
73.600	26.660	0.100
73.700	47.846	0.100
73.800	64.341	0.100
73.900	53.432	0.100
74.000	51.723	0.100
74.100	69.957	0.100
74.200	48.409	0.100
74.300	55.132	0.100
74.400	44.813	0.100
74.500	53.394	0.100
74.600	42.254	0.100
74.700	51.945	0.100
74.800	58.093	0.100
74.900	37.708	0.100
75.000	50.882	0.099
75.100	55.942	0.100
75.200	59.530	0.100
75.300	53.158	0.100
75.400	53.139	0.100
75.500	42.113	0.100
75.600	57.641	0.100
75.700	51.238	0.100
75.800	54.316	0.100
75.900	66.252	0.100
76.000	51.196	0.100
76.100	47.715	0.100
76.200	47.698	0.100
76.300	52.587	0.100
76.400	44.979	0.100
76.500	75.536	0.100
76.600	61.344	0.100
76.700	42.196	0.100
76.800	56.652	0.100
76.900	53.641	0.100
77.000	56.559	0.100
77.100	57.039	0.100
77.200	57.954	0.100
77.300	65.458	0.100
77.400	65.227	0.100
77.500	58.487	0.100
77.600	61.671	0.100
77.700	49.987	0.099
77.800	39.594	0.099
77.900	55.821	0.100
78.000	63.182	0.100
78.100	75.059	0.100
78.200	53.257	0.100
78.300	51.979	0.099
78.400	56.401	0.100
78.500	59.506	0.099
78.600	54.433	0.099
78.700	67.610	0.100
78.800	57.109	0.099
78.900	58.923	0.100
79.000	55.418	0.099
79.100	52.056	0.100
79.200	53.192	0.100
79.300	57.675	0.100
79.400	51.676	0.099
79.500	64.394	0.100
79.600	53.179	0.099
79.700	66.552	0.100
79.800	61.275	0.100
79.900	63.846	0.100
80.000	57.952	0.100
80.100	59.100	0.100
80.200	60.094	0.100
80.300	57.192	0.100
80.400	57.339	0.100
80.500	57.154	0.100
80.600	49.249	0.100
80.700	56.093	0.100
80.800	53.396	0.100
80.900	61.806	0.100
81.000	53.154	0.099
81.100	63.860	0.100
81.200	62.694	0.100
81.300	71.170	0.100
81.400	51.431	0.100
81.500	53.541	0.100
81.600	59.606	0.100
81.700	58.760	0.099
81.800	56.165	0.100
81.900	47.972	0.100
82.000	57.750	0.100
82.100	51.879	0.100
82.200	57.095	0.100
82.300	64.384	0.100
82.400	58.672	0.100
82.500	59.474	0.100
82.600	46.396	0.099
82.700	60.267	0.100
82.800	73.963	0.100
82.900	50.033	0.099
83.000	48.280	0.100
83.100	63.308	0.100
83.200	46.984	0.099
83.300	68.936	0.100
83.400	69.867	0.100
83.500	64.866	0.100
83.600	69.157	0.099
83.700	66.787	0.100
83.800	55.059	0.099
83.900	62.502	0.100
84.000	49.922	0.099
84.100	65.153	0.100
84.200	57.626	0.099
84.300	66.901	0.100
84.400	71.999	0.100
84.500	77.739	0.100
84.600	53.896	0.100
84.700	54.904	0.100
84.800	65.207	0.099
84.900	51.629	0.100
85.000	65.995	0.100
85.100	77.067	0.100
85.200	63.257	0.099
85.300	57.678	0.100
85.400	48.340	0.099
85.500	54.491	0.100
85.600	59.719	0.099
85.700	68.476	0.099
85.800	51.098	0.099
85.900	71.886	0.100
86.000	65.151	0.100
86.100	59.313	0.100
86.200	67.071	0.100
86.300	78.499	0.099
86.400	48.897	0.100
86.500	48.907	0.100
86.600	64.538	0.099
86.700	58.060	0.099
86.800	66.910	0.099
86.900	76.039	0.099
87.000	69.760	0.100
87.100	69.183	0.100
87.200	61.274	0.099
87.300	75.302	0.099
87.400	63.395	0.100
87.500	64.947	0.099
87.600	71.557	0.099
87.700	64.794	0.100
87.800	63.736	0.099
87.900	64.637	0.099
88.000	72.464	0.100
88.100	67.379	0.099
88.200	63.766	0.100
88.300	64.940	0.100
88.400	59.947	0.100
88.500	51.005	0.099
88.600	73.516	0.100
88.700	63.673	0.099
88.800	55.600	0.100
88.900	62.622	0.100
89.000	53.414	0.100
89.100	60.653	0.099
89.200	80.698	0.100
89.300	82.217	0.100
89.400	49.306	0.099
89.500	67.910	0.099
89.600	61.695	0.099
89.700	76.130	0.099
89.800	71.183	0.100
89.900	57.107	0.099
90.000	47.114	0.099
90.100	68.847	0.100
90.200	64.644	0.099
90.300	49.309	0.100
90.400	41.272	0.100
90.500	22.583	0.099
90.600	50.895	0.099
90.700	37.895	0.100
90.800	19.516	0.100
90.900	6.526	0.099
91.000	11.931	0.100
91.100	4.870	0.099
91.200	4.803	0.100
91.300	-4.841	0.099
91.400	-12.978	0.099
91.500	-14.896	0.099
91.600	-23.173	0.099
91.700	-24.073	0.100
91.800	-23.171	0.100
91.900	-31.157	0.099
92.000	-31.570	0.099
92.100	-31.311	0.100
92.200	-49.671	0.100
92.300	-51.141	0.100
92.400	-52.224	0.100
92.500	-46.359	0.099
92.600	-52.311	0.100
92.700	-61.019	0.100
92.800	-65.256	0.100
92.900	-71.656	0.099
93.000	-63.542	0.099
93.100	-61.988	0.099
93.200	-66.961	0.100
93.300	-66.166	0.099
93.400	-73.265	0.100
93.500	-67.001	0.099
93.600	-70.825	0.100
93.700	-65.558	0.100
93.800	-71.863	0.100
93.900	-66.813	0.100
94.000	-77.035	0.099
94.100	-85.387	0.100
94.200	-68.201	0.099
94.300	-69.337	0.100
94.400	-78.275	0.100
94.500	-88.328	0.099
94.600	-68.188	0.099
94.700	-67.692	0.099
94.800	-69.911	0.099
94.900	-67.330	0.100
95.000	-63.562	0.099
95.100	-70.370	0.099
95.200	-61.853	0.100
95.300	-73.292	0.099
95.400	-87.445	0.099
95.500	-71.931	0.100
95.600	-60.536	0.099
95.700	-65.932	0.099
95.800	-64.837	0.100
95.900	-65.649	0.100
96.000	-71.214	0.099
96.100	-47.915	0.099
96.200	-67.066	0.099
96.300	-85.148	0.100
96.400	-58.667	0.099
96.500	-66.922	0.100
96.600	-58.972	0.100
96.700	-58.509	0.099
96.800	-62.054	0.100
96.900	-60.173	0.099
97.000	-62.600	0.100
97.100	-60.357	0.099
97.200	-54.745	0.099
97.300	-60.919	0.099
97.400	-61.205	0.099
97.500	-43.197	0.100
97.600	-64.338	0.100
97.700	-50.170	0.099
97.800	-44.457	0.099
97.900	-66.404	0.099
98.000	-56.024	0.099
98.100	-41.916	0.099
98.200	-62.251	0.099
98.300	-68.410	0.099
98.400	-54.025	0.099
98.500	-47.954	0.099
98.600	-48.634	0.099
98.700	-49.908	0.099
98.800	-47.740	0.099
98.900	-35.836	0.099
99.000	-34.346	0.099
99.100	-56.230	0.099
99.200	-45.931	0.099
99.300	-40.323	0.099
99.400	-39.560	0.099
99.500	-37.498	0.099
99.600	-47.534	0.099
99.700	-43.118	0.099
99.800	-35.720	0.099
99.900	-38.741	0.099
100.000	-39.446	0.099
100.100	-40.595	0.099
100.200	-48.057	0.099
100.300	-48.086	0.099
100.400	-46.212	0.099
100.500	-39.698	0.099
100.600	-50.488	0.099
100.700	-39.382	0.099
100.800	-35.247	0.099
100.900	-39.019	0.099
101.000	-40.528	0.100
101.100	-35.127	0.099
101.200	-29.016	0.099
101.300	-47.476	0.099
101.400	-41.373	0.099
101.500	-43.847	0.099
101.600	-29.887	0.099
101.700	-33.152	0.099
101.800	-45.548	0.099
101.900	-24.781	0.099
102.000	-38.204	0.099
102.100	-32.730	0.099
102.200	-41.490	0.099
102.300	-36.452	0.099
102.400	-39.205	0.099
102.500	-31.054	0.099
102.600	-40.120	0.099
102.700	-36.929	0.099
102.800	-33.398	0.099
102.900	-18.252	0.099
103.000	-22.537	0.099
103.100	-41.865	0.099
103.200	-26.490	0.099
103.300	-41.896	0.099
103.400	-46.861	0.099
103.500	-24.731	0.099
103.600	-34.586	0.099
103.700	-25.037	0.099
103.800	-32.581	0.099
103.900	-34.782	0.099
104.000	-22.046	0.099
104.100	-39.092	0.099
104.200	-30.406	0.099
104.300	-28.220	0.099
104.400	-21.984	0.099
104.500	-33.903	0.099
104.600	-18.639	0.099
104.700	-29.587	0.099
104.800	-34.019	0.099
104.900	-38.169	0.099
105.000	-26.235	0.099
105.100	-37.001	0.099
105.200	-31.006	0.099
105.300	-26.492	0.099
105.400	-38.563	0.099
105.500	-27.081	0.099
105.600	-22.865	0.099
105.700	-28.629	0.099
105.800	-12.862	0.099
105.900	-46.613	0.099
106.000	-33.201	0.099
106.100	-15.851	0.099
106.200	-32.533	0.099
106.300	-22.086	0.099
106.400	-41.226	0.099
106.500	-19.341	0.099
106.600	-29.102	0.099
106.700	-16.339	0.099
106.800	-24.987	0.099
106.900	-24.273	0.099
107.000	-24.448	0.099
107.100	-36.898	0.099
107.200	-45.203	0.099
107.300	-10.102	0.099
107.400	-26.470	0.099
107.500	-25.000	0.099
107.600	-20.752	0.099
107.700	-33.329	0.099
107.800	-20.196	0.099
107.900	-31.227	0.099
108.000	-28.035	0.099
108.100	-22.125	0.099
108.200	-23.003	0.099
108.300	-10.572	0.099
108.400	-39.398	0.099
108.500	-18.041	0.099
108.600	-22.337	0.099
108.700	-20.477	0.099
108.800	-21.367	0.099
108.900	-32.852	0.099
109.000	-27.305	0.099
109.100	-26.144	0.099
109.200	-22.137	0.099
109.300	-19.490	0.099
109.400	-32.749	0.099
109.500	-30.169	0.099
109.600	-13.685	0.099
109.700	-20.552	0.099
109.800	-26.259	0.099
109.900	-5.379	0.099
110.000	-31.270	0.099
110.100	-24.525	0.099
110.200	-20.229	0.099
110.300	-22.599	0.099
110.400	-18.697	0.099
110.500	-13.942	0.099
110.600	-17.570	0.099
110.700	-35.349	0.099
110.800	-26.111	0.099
110.900	-27.122	0.099
111.000	-13.939	0.099
111.100	-31.540	0.099
111.200	-22.845	0.099
111.300	-29.199	0.099
111.400	-20.086	0.099
111.500	-10.585	0.099
111.600	-23.804	0.099
111.700	-3.835	0.099
111.800	-27.593	0.099
111.900	-24.361	0.099
112.000	-30.226	0.099
112.100	-24.967	0.099
112.200	-22.293	0.099
112.300	-20.341	0.099
112.400	-20.545	0.099
112.500	-14.092	0.099
112.600	-23.626	0.099
112.700	-18.461	0.099
112.800	-16.681	0.099
112.900	-19.787	0.099
113.000	-26.778	0.099
113.100	-28.735	0.099
113.200	-22.958	0.099
113.300	-22.530	0.099
113.400	-12.638	0.099
113.500	-18.773	0.099
113.600	-6.414	0.099
113.700	-27.597	0.099
113.800	-20.179	0.099
113.900	-33.194	0.099
114.000	-0.778	0.099
114.100	-12.680	0.099
114.200	-14.332	0.099
114.300	-23.933	0.099
114.400	-20.946	0.099
114.500	-16.905	0.099
114.600	-8.509	0.099
114.700	-6.708	0.099
114.800	-11.017	0.099
114.900	-25.557	0.099
115.000	-20.499	0.099
115.100	-9.725	0.099
115.200	-13.887	0.099
115.300	-32.240	0.099
115.400	-13.042	0.099
115.500	-19.841	0.099
115.600	-16.780	0.099
115.700	-23.224	0.099
115.800	-29.576	0.099
115.900	-16.619	0.099
116.000	-2.659	0.099
116.100	-13.586	0.099
116.200	1.963	0.099
116.300	-12.764	0.099
116.400	-8.449	0.099
116.500	-18.162	0.099
116.600	-16.233	0.099
116.700	-25.751	0.099
116.800	-16.257	0.099
116.900	-11.757	0.099
117.000	-17.728	0.099
117.100	-9.535	0.099
117.200	-23.735	0.099
117.300	-17.826	0.099
117.400	-31.372	0.099
117.500	-8.937	0.099
117.600	-15.093	0.099
117.700	-21.943	0.099
117.800	-31.623	0.099
117.900	-19.889	0.099
118.000	-13.962	0.099
118.100	-28.127	0.099
118.200	-19.651	0.099
118.300	-10.540	0.099
118.400	-3.518	0.099
118.500	-22.051	0.099
118.600	-16.018	0.099
118.700	-16.282	0.099
118.800	-20.014	0.099
118.900	-27.825	0.099
119.000	-14.245	0.099
119.100	-10.363	0.099
119.200	-3.223	0.099
119.300	-16.855	0.099
119.400	-13.783	0.099
119.500	-19.100	0.099
119.600	-18.895	0.099
119.700	-9.660	0.099
119.800	-24.029	0.099
119.900	-7.543	0.099
120.000	-6.951	0.099
120.100	-0.626	0.099
120.200	-21.661	0.099
120.300	-25.834	0.099
120.400	-11.018	0.099
120.500	-1.011	0.099
120.600	-16.211	0.099
120.700	-13.677	0.099
120.800	-7.959	0.099
120.900	-32.629	0.099
121.000	-8.496	0.099
121.100	-19.954	0.099
121.200	-8.064	0.099
121.300	-24.772	0.099
121.400	-5.196	0.099
121.500	-9.514	0.099
121.600	-20.870	0.099
121.700	-15.440	0.099
121.800	-23.422	0.099
121.900	-24.056	0.099
122.000	-8.918	0.099
122.100	-24.783	0.099
122.200	-9.539	0.099
122.300	-24.434	0.099
122.400	-12.216	0.099
122.500	-12.020	0.099
122.600	-14.801	0.099
122.700	3.678	0.099
122.800	-11.557	0.099
122.900	-14.701	0.099
123.000	-11.426	0.099
123.100	-13.728	0.099
123.200	-14.556	0.099
123.300	-21.522	0.099
123.400	-19.649	0.099
123.500	-8.340	0.099
123.600	-19.885	0.099
123.700	-31.723	0.099
123.800	-0.178	0.099
123.900	-16.083	0.099
124.000	-10.323	0.099
124.100	-23.045	0.099
124.200	-19.331	0.099
124.300	-5.627	0.099
124.400	-5.223	0.099
124.500	-11.266	0.099
124.600	-16.858	0.099
124.700	-19.648	0.099
124.800	-17.219	0.099
124.900	-3.684	0.099
125.000	-23.454	0.099
125.100	-13.512	0.099
125.200	3.233	0.099
125.300	-14.474	0.099
125.400	-9.440	0.099
125.500	-18.583	0.099
125.600	-10.630	0.099
125.700	-15.945	0.099
125.800	-16.942	0.099
125.900	-31.025	0.099
126.000	-11.027	0.099
126.100	-9.753	0.099
126.200	-12.528	0.099
126.300	-15.782	0.099
126.400	-12.127	0.099
126.500	-11.029	0.099
126.600	-7.679	0.099
126.700	-15.666	0.099
126.800	-16.244	0.099
126.900	-22.217	0.099
127.000	-8.940	0.099
127.100	-14.982	0.099
127.200	-16.641	0.099
127.300	-14.048	0.099
127.400	-8.058	0.099
127.500	-18.338	0.099
127.600	-15.485	0.099
127.700	-14.553	0.099
127.800	-8.824	0.099
127.900	-15.031	0.099
128.000	-16.088	0.099
128.100	-18.101	0.099
128.200	-25.997	0.099
128.300	-15.242	0.099
128.400	0.358	0.099
128.500	6.990	0.099
128.600	-17.919	0.099
128.700	-9.409	0.099
128.800	-19.562	0.099
128.900	-4.700	0.099
129.000	-7.044	0.099
129.100	-8.184	0.099
129.200	-9.222	0.099
129.300	-2.965	0.099
129.400	-19.674	0.099
129.500	-10.349	0.099
129.600	-11.975	0.099
129.700	-13.893	0.099
129.800	-9.138	0.099
129.900	-26.215	0.099
130.000	-9.198	0.099
130.100	-8.536	0.099
130.200	-19.297	0.099
130.300	-2.995	0.099
130.400	-15.638	0.099
130.500	-0.867	0.099
130.600	-13.757	0.099
130.700	-8.481	0.099
130.800	-20.812	0.099
130.900	-11.060	0.099
131.000	-16.411	0.099
131.100	-13.850	0.099
131.200	-12.232	0.099
131.300	1.047	0.099
131.400	-8.796	0.099
131.500	-16.480	0.099
131.600	-24.547	0.099
131.700	-5.957	0.099
131.800	-9.788	0.099
131.900	-5.664	0.099
132.000	-14.752	0.099
132.100	-15.915	0.099
132.200	-12.543	0.099
132.300	-17.157	0.099
132.400	-13.771	0.099
132.500	-14.187	0.099
132.600	-11.602	0.099
132.700	-10.860	0.099
132.800	-10.251	0.099
132.900	-14.449	0.099
133.000	-7.431	0.099
133.100	-2.636	0.099
133.200	-14.616	0.099
133.300	-12.629	0.099
133.400	-9.887	0.099
133.500	-6.359	0.099
133.600	-9.105	0.099
133.700	-8.400	0.099
133.800	-10.315	0.099
133.900	-25.544	0.099
134.000	-18.193	0.099
134.100	-2.103	0.099
134.200	-21.209	0.099
134.300	-8.161	0.099
134.400	-12.517	0.099
134.500	-20.291	0.099
134.600	-8.691	0.099
134.700	-5.966	0.099
134.800	-4.035	0.099
134.900	-12.270	0.099
135.000	2.135	0.099
135.100	-17.262	0.099
135.200	-17.935	0.099
135.300	-10.027	0.099
135.400	-3.752	0.099
135.500	-0.144	0.099
135.600	-2.568	0.099
135.700	-1.256	0.099
135.800	-16.047	0.099
135.900	-13.787	0.099
136.000	1.574	0.099
136.100	-22.081	0.099
136.200	-6.266	0.099
136.300	-32.027	0.099
136.400	-4.689	0.099
136.500	-16.560	0.099
136.600	-13.840	0.099
136.700	-5.162	0.099
136.800	-18.031	0.099
136.900	-2.283	0.099
137.000	-14.847	0.099
137.100	-7.854	0.099
137.200	-15.688	0.099
137.300	-3.013	0.099
137.400	-8.662	0.099
137.500	-9.726	0.099
137.600	-6.475	0.099
137.700	-10.102	0.099
137.800	-21.188	0.099
137.900	-5.844	0.099
138.000	0.567	0.099
138.100	-12.258	0.099
138.200	-4.365	0.099
138.300	2.386	0.099
138.400	-19.300	0.099
138.500	-20.619	0.099
138.600	-15.508	0.099
138.700	-7.271	0.099
138.800	4.644	0.099
138.900	-19.618	0.099
139.000	-26.114	0.099
139.100	-1.330	0.099
139.200	-26.787	0.099
139.300	-6.111	0.099
139.400	-13.846	0.099
139.500	-1.875	0.099
139.600	-12.409	0.099
139.700	-7.776	0.099
139.800	-4.862	0.099
139.900	-10.081	0.099
140.000	-11.440	0.099
140.100	-22.951	0.099
140.200	-13.247	0.099
140.300	1.283	0.099
140.400	-6.571	0.099
140.500	-12.702	0.099
140.600	-9.663	0.099
140.700	-5.496	0.099
140.800	3.357	0.099
140.900	-13.922	0.099
141.000	-13.769	0.099
141.100	-12.138	0.099
141.200	-5.534	0.099
141.300	-8.626	0.099
141.400	-5.972	0.099
141.500	0.077	0.099
141.600	-19.200	0.099
141.700	-4.265	0.099
141.800	-10.768	0.099
141.900	-18.534	0.099
142.000	-9.707	0.099
142.100	-12.784	0.099
142.200	-5.608	0.099
142.300	-11.249	0.099
142.400	-8.006	0.099
142.500	-6.469	0.099
142.600	-8.793	0.099
142.700	-18.577	0.099
142.800	-1.999	0.099
142.900	-0.310	0.099
143.000	-12.562	0.099
143.100	-5.551	0.099
143.200	-5.767	0.099
143.300	-5.515	0.099
143.400	-11.548	0.099
143.500	-10.429	0.099
143.600	4.016	0.099
143.700	-14.429	0.099
143.800	-34.834	0.099
143.900	-9.468	0.099
144.000	-4.875	0.099
144.100	-14.698	0.099
144.200	-33.013	0.099
144.300	-4.107	0.099
144.400	9.346	0.099
144.500	-11.309	0.099
144.600	-7.987	0.099
144.700	-14.402	0.099
144.800	-18.830	0.099
144.900	-15.011	0.099
145.000	-12.295	0.099
145.100	-8.561	0.099
145.200	-1.439	0.099
145.300	-10.097	0.099
145.400	-4.855	0.099
145.500	-15.600	0.099
145.600	7.860	0.099
145.700	-13.926	0.099
145.800	-26.910	0.099
145.900	-18.676	0.099
146.000	-6.953	0.099
146.100	4.144	0.099
146.200	-27.469	0.099
146.300	-11.498	0.099
146.400	-11.858	0.099
146.500	-8.633	0.099
146.600	-6.566	0.099
146.700	-12.955	0.099
146.800	-4.226	0.099
146.900	-7.589	0.099
147.000	-4.547	0.099
147.100	-0.801	0.099
147.200	-12.096	0.099
147.300	-20.134	0.099
147.400	-4.930	0.099
147.500	-11.941	0.099
147.600	-15.464	0.099
147.700	4.547	0.099
147.800	-17.130	0.099
147.900	-22.058	0.099
148.000	-26.445	0.099
148.100	-3.069	0.099
148.200	-12.057	0.099
148.300	-14.007	0.099
148.400	-1.191	0.099
148.500	2.203	0.099
148.600	-0.514	0.099
148.700	-9.499	0.099
148.800	-28.691	0.099
148.900	-8.487	0.099
149.000	-15.096	0.099
149.100	-4.941	0.099
149.200	-13.378	0.099
149.300	-4.669	0.099
149.400	-13.582	0.099
149.500	-3.509	0.099
149.600	-8.172	0.099
149.700	-3.721	0.099
149.800	-15.884	0.099
149.900	-4.310	0.099
150.000	-15.012	0.099
150.100	-13.409	0.099
150.200	-18.656	0.099
150.300	12.403	0.099
150.400	-13.530	0.099
150.500	-11.562	0.099
150.600	-3.518	0.099
150.700	-16.501	0.099
150.800	-4.033	0.099
150.900	-17.754	0.099
151.000	-8.769	0.099
151.100	-14.388	0.099
151.200	-7.933	0.099
151.300	4.537	0.099
151.400	-16.844	0.099
151.500	1.663	0.099
151.600	-5.110	0.099
151.700	-3.774	0.099
151.800	-26.877	0.099
151.900	-10.736	0.099
152.000	-3.404	0.099
152.100	-13.311	0.099
152.200	-23.364	0.099
152.300	-7.982	0.099
152.400	-10.065	0.099
152.500	-1.174	0.099
152.600	-33.373	0.099
152.700	-1.461	0.099
152.800	-12.815	0.099
152.900	0.319	0.099
153.000	-4.285	0.099
153.100	-24.553	0.099
153.200	-1.597	0.099
153.300	-4.112	0.099
153.400	-11.967	0.099
153.500	-6.498	0.099
153.600	-19.897	0.099
153.700	-8.796	0.099
153.800	-9.108	0.099
153.900	-11.672	0.099
154.000	-5.913	0.099
154.100	-24.700	0.099
154.200	-14.609	0.099
154.300	-13.994	0.099
154.400	-8.333	0.099
154.500	-6.225	0.099
154.600	-1.936	0.099
154.700	-26.116	0.099
154.800	-14.334	0.099
154.900	-11.923	0.099
155.000	-6.964	0.099
155.100	-2.814	0.099
155.200	-11.611	0.099
155.300	2.229	0.099
155.400	-14.234	0.099
155.500	-6.298	0.099
155.600	-17.570	0.099
155.700	-7.806	0.099
155.800	-12.687	0.099
155.900	-6.411	0.099
156.000	-13.253	0.099
156.100	-16.104	0.099
156.200	3.717	0.099
156.300	-6.784	0.099
156.400	-4.540	0.099
156.500	-2.110	0.099
156.600	-12.837	0.099
156.700	-7.212	0.099
156.800	-9.700	0.099
156.900	-13.576	0.099
157.000	-11.807	0.099
157.100	20.173	0.099
157.200	-6.556	0.099
157.300	-15.715	0.099
157.400	-19.437	0.099
157.500	-8.411	0.099
157.600	4.014	0.099
157.700	-19.614	0.099
157.800	-3.886	0.099
157.900	2.735	0.099
158.000	-14.125	0.099
158.100	-17.521	0.099
158.200	-8.256	0.099
158.300	-6.959	0.099
158.400	-4.920	0.099
158.500	-19.789	0.099
158.600	-3.109	0.099
158.700	-6.363	0.099
158.800	0.672	0.099
158.900	-26.661	0.099
159.000	-13.389	0.099
159.100	2.106	0.099
159.200	-12.618	0.099
159.300	-9.039	0.099
159.400	4.045	0.099
159.500	-5.063	0.099
159.600	-6.051	0.099
159.700	-16.095	0.099
159.800	-1.164	0.099
159.900	-17.634	0.099
160.000	-6.982	0.099
160.100	-14.009	0.099
160.200	-3.190	0.099
160.300	-20.292	0.099
160.400	-10.775	0.099
160.500	3.511	0.099
160.600	-2.120	0.099
160.700	-18.957	0.099
160.800	-3.895	0.099
160.900	2.221	0.099
161.000	-11.284	0.099
161.100	1.124	0.099
161.200	-6.413	0.099
161.300	-23.665	0.099
161.400	1.202	0.099
161.500	-8.315	0.099
161.600	-17.178	0.099
161.700	-3.496	0.099
161.800	-3.894	0.099
161.900	-4.430	0.099
162.000	-11.117	0.099
162.100	-4.038	0.099
162.200	-18.007	0.099
162.300	-5.372	0.099
162.400	-12.683	0.099
162.500	-8.462	0.099
162.600	-16.778	0.099
162.700	-1.730	0.099
162.800	-8.371	0.099
162.900	-12.383	0.099
163.000	-10.019	0.099
163.100	-11.184	0.099
163.200	-12.410	0.099
163.300	-7.861	0.099
163.400	-11.503	0.099
163.500	-13.115	0.099
163.600	1.479	0.099
163.700	-14.431	0.099
163.800	-6.803	0.099
163.900	-9.908	0.099
164.000	-3.036	0.099
164.100	-14.994	0.099
164.200	-16.209	0.099
164.300	6.759	0.099
164.400	-3.328	0.099
164.500	-6.037	0.099
164.600	-17.403	0.099
164.700	-4.883	0.099
164.800	-4.902	0.099
164.900	-3.711	0.099
165.000	-13.323	0.099
165.100	-4.280	0.099
165.200	-16.343	0.099
165.300	-19.389	0.099
165.400	-17.362	0.099
165.500	-4.213	0.099
165.600	1.121	0.099
165.700	-7.997	0.099
165.800	-21.133	0.099
165.900	-9.252	0.099
166.000	-9.420	0.099
166.100	-9.218	0.099
166.200	-2.921	0.099
166.300	-8.551	0.099
166.400	12.674	0.099
166.500	-2.962	0.099
166.600	-11.663	0.099
166.700	-16.292	0.099
166.800	2.210	0.099
166.900	-1.856	0.099
167.000	-22.342	0.099
167.100	2.188	0.099
167.200	-9.103	0.099
167.300	-6.613	0.099
167.400	-11.598	0.099
167.500	1.243	0.099
167.600	-20.771	0.099
167.700	1.628	0.099
167.800	-1.065	0.099
167.900	-11.039	0.099
168.000	-2.955	0.099
168.100	-14.509	0.099
168.200	-12.780	0.099
168.300	-5.337	0.099
168.400	-13.702	0.099
168.500	-11.714	0.099
168.600	-1.381	0.099
168.700	-19.430	0.099
168.800	-9.169	0.099
168.900	-9.642	0.099
169.000	-0.718	0.099
169.100	-3.441	0.099
169.200	-18.993	0.099
169.300	-15.497	0.099
169.400	0.468	0.099
169.500	-7.455	0.099
169.600	5.922	0.099
169.700	-7.370	0.099
169.800	-6.892	0.099
169.900	-9.034	0.099
170.000	-11.489	0.099
170.100	-12.847	0.099
170.200	4.039	0.099
170.300	-8.953	0.099
170.400	-17.750	0.099
170.500	-27.714	0.099
170.600	-6.521	0.100
170.700	-23.592	0.100
170.800	-1.614	0.100
170.900	-3.217	0.100
171.000	-4.694	0.100
171.100	-6.278	0.100
171.200	0.350	0.100
171.300	-14.369	0.100
171.400	-2.558	0.100
171.500	-3.246	0.100
171.600	0.968	0.100
171.700	-3.469	0.100
171.800	-2.973	0.100
171.900	-8.977	0.100
172.000	-8.627	0.100
172.100	-13.274	0.100
172.200	-9.352	0.100
172.300	-7.425	0.100
172.400	-14.158	0.100
172.500	-9.414	0.100
172.600	-12.990	0.100
172.700	11.125	0.100
172.800	-3.215	0.100
172.900	8.059	0.100
173.000	-5.962	0.100
173.100	-6.756	0.100
173.200	-7.301	0.100
173.300	-8.296	0.100
173.400	-0.433	0.100
173.500	-22.615	0.100
173.600	-9.060	0.100
173.700	-16.619	0.100
173.800	5.896	0.100
173.900	-8.923	0.100
174.000	-5.838	0.100
174.100	-18.378	0.100
174.200	-5.079	0.100
174.300	-3.433	0.100
174.400	-12.549	0.100
174.500	-13.494	0.100
174.600	5.749	0.100
174.700	-10.167	0.100
174.800	-8.976	0.100
174.900	-5.578	0.100
175.000	-27.153	0.100
175.100	-5.518	0.100
175.200	-8.486	0.100
175.300	-8.131	0.100
175.400	-2.791	0.100
175.500	-4.535	0.100
175.600	-16.029	0.100
175.700	-5.864	0.100
175.800	-17.639	0.100
175.900	-2.261	0.100
176.000	-1.532	0.100
176.100	-20.062	0.100
176.200	-11.735	0.100
176.300	-2.559	0.100
176.400	0.338	0.100
176.500	-26.844	0.100
176.600	-19.835	0.100
176.700	-2.589	0.100
176.800	-4.786	0.100
176.900	-11.227	0.100
177.000	-6.468	0.100
177.100	4.750	0.100
177.200	-17.910	0.100
177.300	-7.707	0.100
177.400	-4.366	0.100
177.500	-15.609	0.100
177.600	-13.579	0.100
177.700	-16.389	0.100
177.800	-14.511	0.100
177.900	-11.168	0.100
178.000	-14.385	0.100
178.100	-8.486	0.100
178.200	-6.991	0.100
178.300	-8.465	0.100
178.400	-1.278	0.100
178.500	0.322	0.100
178.600	-9.147	0.100
178.700	12.368	0.100
178.800	3.908	0.100
178.900	-11.299	0.100
179.000	-14.442	0.100
179.100	-16.533	0.100
179.200	-11.457	0.100
179.300	-10.955	0.100
179.400	-7.604	0.100
179.500	3.664	0.100
179.600	-7.786	0.100
179.700	-8.229	0.100
179.800	-13.041	0.100
179.900	-6.188	0.100
180.000	-10.550	0.100
180.100	-9.813	0.100
180.200	-6.999	0.100
180.300	-9.112	0.100
180.400	12.754	0.100
180.500	8.356	0.100
180.600	13.213	0.100
180.700	16.406	0.100
180.800	26.702	0.100
180.900	19.448	0.100
181.000	14.589	0.100
181.100	33.282	0.100
181.200	31.216	0.100
181.300	44.374	0.100
181.400	34.617	0.100
181.500	30.607	0.100
181.600	56.225	0.100
181.700	46.882	0.100
181.800	22.093	0.100
181.900	63.561	0.100
182.000	43.715	0.100
182.100	55.698	0.100
182.200	30.939	0.100
182.300	45.239	0.100
182.400	47.870	0.100
182.500	44.763	0.100
182.600	42.486	0.100
182.700	38.554	0.100
182.800	44.086	0.100
182.900	31.375	0.100
183.000	45.219	0.100
183.100	26.409	0.100
183.200	39.207	0.100
183.300	41.348	0.100
183.400	23.119	0.100
183.500	35.993	0.100
183.600	42.960	0.100
183.700	34.270	0.100
183.800	40.520	0.100
183.900	32.501	0.100
184.000	35.457	0.100
184.100	23.090	0.100
184.200	22.089	0.100
184.300	43.899	0.100
184.400	35.301	0.100
184.500	31.358	0.100
184.600	24.967	0.100
184.700	31.618	0.100
184.800	30.609	0.100
184.900	26.846	0.100
185.000	23.572	0.100
185.100	42.323	0.100
185.200	18.591	0.100
185.300	31.931	0.100
185.400	33.073	0.100
185.500	39.874	0.100
185.600	30.728	0.100
185.700	37.372	0.100
185.800	35.525	0.100
185.900	28.038	0.100
186.000	36.263	0.100
186.100	35.883	0.100
186.200	57.562	0.100
186.300	50.130	0.100
186.400	17.227	0.100
186.500	25.512	0.100
186.600	35.410	0.100
186.700	35.207	0.100
186.800	31.890	0.100
186.900	30.047	0.100
187.000	52.184	0.100
187.100	35.005	0.100
187.200	46.391	0.100
187.300	31.114	0.100
187.400	37.792	0.100
187.500	36.458	0.100
187.600	41.125	0.100
187.700	50.120	0.100
187.800	38.600	0.100
187.900	43.009	0.100
188.000	46.795	0.100
188.100	47.080	0.100
188.200	54.046	0.100
188.300	49.178	0.100
188.400	55.302	0.100
188.500	45.370	0.100
188.600	50.837	0.100
188.700	45.261	0.100
188.800	55.070	0.100
188.900	52.681	0.100
189.000	35.982	0.100
189.100	54.758	0.100
189.200	58.426	0.100
189.300	44.065	0.100
189.400	55.550	0.100
189.500	64.590	0.100
189.600	51.979	0.100
189.700	48.080	0.100
189.800	56.654	0.100
189.900	62.394	0.100
190.000	56.513	0.100
190.100	41.456	0.100
190.200	54.669	0.100
190.300	60.121	0.100
190.400	61.955	0.100
190.500	50.426	0.100
190.600	64.164	0.100
190.700	62.475	0.100
190.800	61.116	0.100
190.900	58.355	0.100
191.000	43.845	0.100
191.100	59.814	0.100
191.200	58.045	0.100
191.300	64.373	0.100
191.400	62.826	0.100
191.500	53.054	0.100
191.600	48.269	0.100
191.700	61.404	0.100
191.800	64.494	0.100
191.900	62.946	0.100
192.000	61.847	0.100
192.100	77.976	0.100
192.200	60.973	0.100
192.300	61.923	0.100
192.400	57.174	0.100
192.500	64.225	0.100
192.600	55.088	0.100
192.700	61.352	0.100
192.800	65.626	0.100
192.900	61.924	0.100
193.000	63.094	0.100
193.100	54.762	0.100
193.200	60.925	0.100
193.300	61.277	0.100
193.400	74.722	0.100
193.500	64.863	0.100
193.600	53.749	0.100
193.700	67.517	0.100
193.800	74.391	0.100
193.900	67.017	0.100
194.000	62.952	0.100
194.100	65.531	0.100
194.200	64.093	0.100
194.300	41.220	0.100
194.400	43.074	0.100
194.500	85.501	0.100
194.600	68.377	0.100
194.700	60.429	0.100
194.800	64.105	0.100
194.900	59.265	0.100
195.000	44.477	0.100
195.100	59.747	0.100
195.200	63.708	0.100
195.300	74.302	0.100
195.400	66.457	0.100
195.500	54.061	0.100
195.600	60.599	0.100
195.700	58.866	0.099
195.800	65.899	0.100
195.900	75.188	0.100
196.000	58.123	0.100
196.100	65.975	0.099
196.200	72.071	0.099
196.300	49.151	0.099
196.400	80.318	0.100
196.500	62.546	0.100
196.600	68.568	0.100
196.700	68.836	0.100
196.800	59.914	0.100
196.900	57.224	0.100
197.000	74.094	0.100
197.100	68.620	0.100
197.200	76.127	0.100
197.300	59.289	0.100
197.400	77.137	0.100
197.500	43.908	0.100
197.600	77.793	0.100
197.700	71.685	0.100
197.800	61.249	0.100
197.900	76.293	0.100
198.000	66.290	0.100
198.100	73.457	0.100
198.200	81.443	0.100
198.300	68.239	0.100
198.400	68.973	0.100
198.500	61.231	0.100
198.600	64.586	0.100
198.700	60.948	0.100
198.800	68.513	0.100
198.900	55.358	0.100
199.000	65.932	0.100
199.100	63.000	0.100
199.200	62.967	0.100
199.300	73.525	0.100
199.400	68.238	0.100
199.500	57.865	0.100
199.600	71.761	0.100
199.700	63.528	0.100
199.800	81.279	0.100
199.900	54.550	0.100
200.000	63.760	0.100
200.100	73.921	0.100
200.200	67.485	0.100
200.300	65.349	0.100
200.400	67.783	0.100
200.500	72.179	0.100
200.600	67.214	0.100
200.700	62.413	0.100
200.800	62.147	0.100
200.900	76.403	0.100
201.000	79.772	0.100
201.100	53.928	0.100
201.200	60.475	0.100
201.300	68.505	0.100
201.400	71.386	0.100
201.500	74.166	0.100
201.600	74.120	0.100
201.700	63.108	0.100
201.800	78.427	0.100
201.900	71.135	0.100
202.000	78.440	0.100
202.100	61.934	0.100
202.200	75.606	0.100
202.300	66.510	0.100
202.400	71.155	0.100
202.500	75.147	0.100
202.600	77.692	0.100
202.700	72.944	0.100
202.800	74.801	0.100
202.900	66.701	0.100
203.000	67.380	0.100
203.100	67.967	0.100
203.200	69.526	0.100
203.300	71.197	0.100
203.400	59.628	0.100
203.500	72.970	0.100
203.600	69.281	0.100
203.700	69.138	0.100
203.800	67.684	0.100
203.900	70.465	0.100
204.000	77.090	0.100
204.100	71.524	0.100
204.200	66.907	0.100
204.300	78.085	0.100
204.400	78.719	0.100
204.500	85.366	0.100
204.600	73.084	0.100
204.700	70.457	0.100
204.800	57.491	0.100
204.900	74.164	0.100
205.000	71.315	0.100
205.100	67.811	0.100
205.200	78.295	0.100
205.300	71.350	0.100
205.400	72.982	0.100
205.500	74.796	0.100
205.600	72.229	0.100
205.700	77.067	0.100
205.800	68.143	0.100
205.900	73.800	0.100
206.000	82.163	0.100
206.100	63.379	0.100
206.200	52.345	0.100
206.300	69.390	0.100
206.400	90.641	0.100
206.500	94.055	0.100
206.600	68.332	0.100
206.700	70.431	0.100
206.800	88.066	0.100
206.900	71.648	0.100
207.000	71.181	0.100
207.100	68.190	0.100
207.200	76.782	0.100
207.300	71.316	0.100
207.400	67.224	0.100
207.500	70.623	0.100
207.600	76.325	0.100
207.700	74.429	0.099
207.800	83.207	0.100
207.900	79.037	0.100
208.000	62.919	0.100
208.100	70.658	0.100
208.200	67.183	0.100
208.300	85.162	0.100
208.400	69.620	0.100
208.500	82.525	0.100
208.600	50.431	0.100
208.700	72.394	0.100
208.800	78.753	0.099
208.900	79.541	0.100
209.000	54.896	0.100
209.100	85.671	0.100
209.200	89.730	0.100
209.300	86.613	0.100
209.400	73.324	0.100
209.500	74.201	0.100
209.600	74.681	0.100
209.700	71.471	0.100
209.800	67.319	0.100
209.900	73.669	0.100
210.000	61.687	0.100
210.100	63.071	0.100
210.200	68.100	0.100
210.300	73.896	0.100
210.400	65.568	0.100
210.500	74.296	0.100
210.600	66.471	0.100
210.700	81.562	0.100
210.800	74.499	0.100
210.900	65.131	0.100
211.000	78.407	0.100
211.100	57.325	0.100
211.200	89.084	0.100
211.300	86.504	0.100
211.400	76.029	0.100
211.500	92.954	0.100
211.600	78.233	0.100
211.700	71.050	0.100
211.800	71.062	0.100
211.900	82.883	0.100
212.000	70.012	0.100
212.100	66.883	0.100
212.200	70.168	0.100
212.300	70.642	0.100
212.400	89.417	0.100
212.500	69.192	0.100
212.600	60.788	0.100
212.700	80.973	0.100
212.800	77.065	0.100
212.900	71.207	0.100
213.000	70.007	0.100
213.100	80.216	0.100
213.200	65.129	0.100
213.300	71.473	0.100
213.400	77.146	0.100
213.500	82.129	0.100
213.600	73.102	0.100
213.700	71.381	0.100
213.800	82.006	0.100
213.900	66.593	0.100
214.000	73.694	0.100
214.100	77.191	0.100
214.200	61.933	0.100
214.300	80.294	0.100
214.400	70.748	0.100
214.500	77.975	0.100
214.600	76.789	0.100
214.700	73.666	0.100
214.800	80.954	0.100
214.900	85.874	0.100
215.000	64.026	0.100
215.100	70.962	0.099
215.200	86.625	0.100
215.300	74.628	0.100
215.400	77.210	0.100
215.500	74.885	0.100
215.600	72.238	0.100
215.700	83.869	0.100
215.800	77.786	0.100
215.900	66.132	0.100
216.000	68.923	0.100
216.100	74.094	0.100
216.200	82.231	0.100
216.300	69.130	0.100
216.400	65.791	0.100
216.500	75.452	0.100
216.600	78.690	0.100
216.700	70.066	0.100
216.800	65.048	0.100
216.900	86.234	0.100
217.000	76.828	0.100
217.100	72.523	0.100
217.200	70.384	0.100
217.300	69.890	0.099
217.400	74.675	0.100
217.500	83.312	0.100
217.600	82.353	0.100
217.700	74.678	0.100
217.800	76.426	0.100
217.900	80.178	0.100
218.000	76.947	0.100
218.100	64.623	0.099
218.200	76.951	0.100
218.300	53.354	0.100
218.400	79.117	0.100
218.500	74.814	0.100
218.600	70.571	0.100
218.700	78.455	0.100
218.800	79.399	0.100
218.900	76.600	0.100
219.000	68.955	0.100
219.100	64.768	0.100
219.200	72.337	0.100
219.300	87.281	0.100
219.400	74.122	0.100
219.500	69.271	0.100
219.600	84.678	0.100
219.700	68.034	0.100
219.800	64.997	0.100
219.900	83.480	0.100
220.000	80.958	0.100
220.100	85.863	0.100
220.200	76.259	0.100
220.300	67.201	0.100
220.400	65.055	0.100
220.500	75.672	0.100
220.600	79.981	0.100
220.700	70.785	0.100
220.800	82.384	0.100
220.900	71.252	0.100
221.000	84.995	0.100
221.100	79.340	0.100
221.200	64.909	0.100
221.300	78.578	0.100
221.400	70.319	0.100
221.500	62.798	0.100
221.600	78.166	0.100
221.700	74.417	0.100
221.800	71.364	0.100
221.900	82.155	0.100
222.000	72.078	0.100
222.100	76.664	0.100
222.200	57.920	0.100
222.300	97.030	0.100
222.400	71.052	0.100
222.500	69.617	0.100
222.600	74.934	0.100
222.700	74.893	0.100
222.800	77.471	0.100
222.900	72.948	0.100
223.000	74.839	0.100
223.100	75.370	0.100
223.200	60.180	0.100
223.300	70.689	0.100
223.400	89.830	0.100
223.500	87.609	0.100
223.600	54.579	0.100
223.700	66.613	0.100
223.800	80.491	0.100
223.900	79.165	0.100
224.000	71.597	0.100
224.100	75.342	0.100
224.200	80.189	0.099
224.300	78.131	0.100
224.400	76.948	0.100
224.500	68.221	0.100
224.600	81.253	0.100
224.700	61.730	0.100
224.800	75.556	0.100
224.900	78.375	0.100
225.000	81.700	0.100
225.100	74.096	0.100
225.200	55.939	0.100
225.300	84.156	0.100
225.400	82.255	0.100
225.500	69.323	0.100
225.600	74.512	0.100
225.700	72.364	0.100
225.800	64.422	0.100
225.900	70.485	0.100
226.000	58.066	0.100
226.100	85.200	0.100
226.200	64.581	0.100
226.300	75.904	0.100
226.400	70.865	0.100
226.500	69.024	0.100
226.600	86.235	0.100
226.700	58.078	0.100
226.800	75.496	0.100
226.900	76.695	0.100
227.000	72.308	0.100
227.100	83.430	0.100
227.200	67.804	0.100
227.300	79.696	0.100
227.400	72.584	0.100
227.500	77.501	0.100
227.600	74.547	0.100
227.700	59.485	0.100
227.800	65.168	0.100
227.900	83.115	0.100
228.000	77.908	0.100
228.100	70.697	0.100
228.200	67.051	0.100
228.300	74.480	0.100
228.400	66.993	0.100
228.500	76.066	0.100
228.600	53.054	0.100
228.700	58.269	0.100
228.800	59.453	0.100
228.900	87.146	0.100
229.000	66.435	0.100
229.100	74.102	0.100
229.200	79.956	0.100
229.300	67.620	0.100
229.400	60.642	0.100
229.500	72.906	0.100
229.600	77.525	0.100
229.700	73.730	0.100
229.800	75.884	0.100
229.900	72.530	0.100
230.000	69.858	0.100
230.100	63.082	0.100
230.200	73.771	0.100
230.300	70.432	0.100
230.400	71.633	0.100
230.500	78.993	0.100
230.600	63.673	0.100
230.700	73.092	0.100
230.800	71.942	0.100
230.900	68.772	0.100
231.000	86.761	0.100
231.100	77.571	0.100
231.200	68.495	0.100
231.300	63.696	0.100
231.400	64.834	0.100
231.500	64.416	0.100
231.600	64.072	0.100
231.700	75.844	0.100
231.800	76.222	0.100
231.900	68.555	0.100
232.000	81.579	0.100
232.100	67.455	0.100
232.200	65.953	0.100
232.300	70.047	0.100
232.400	84.453	0.100
232.500	83.240	0.100
232.600	54.603	0.100
232.700	88.264	0.100
232.800	82.798	0.100
232.900	66.266	0.100
233.000	70.403	0.100
233.100	65.175	0.100
233.200	72.974	0.100
233.300	58.671	0.100
233.400	82.253	0.100
233.500	80.583	0.100
233.600	65.610	0.100
233.700	66.842	0.100
233.800	67.338	0.100
233.900	70.053	0.100
234.000	73.453	0.100
234.100	73.673	0.100
234.200	69.968	0.099
234.300	67.626	0.100
234.400	72.973	0.100
234.500	76.238	0.100
234.600	70.328	0.100
234.700	67.037	0.100
234.800	71.550	0.100
234.900	70.684	0.100
235.000	68.362	0.100
235.100	65.864	0.100
235.200	76.621	0.100
235.300	65.205	0.100
235.400	74.420	0.100
235.500	80.377	0.100
235.600	72.669	0.100
235.700	72.273	0.100
235.800	75.665	0.100
235.900	70.201	0.100
236.000	76.164	0.100
236.100	74.133	0.100
236.200	50.074	0.100
236.300	56.223	0.100
236.400	58.531	0.100
236.500	73.538	0.100
236.600	62.082	0.100
236.700	96.483	0.100
236.800	90.469	0.100
236.900	67.380	0.100
237.000	67.287	0.100
237.100	72.108	0.100
237.200	78.386	0.100
237.300	71.643	0.100
237.400	72.590	0.100
237.500	75.578	0.100
237.600	69.437	0.100
237.700	72.876	0.100
237.800	64.917	0.100
237.900	76.474	0.100
238.000	79.429	0.099
238.100	74.319	0.100
238.200	67.585	0.100
238.300	78.082	0.100
238.400	72.303	0.100
238.500	69.463	0.100
238.600	64.132	0.100
238.700	82.697	0.100
238.800	70.799	0.100
238.900	71.180	0.100
239.000	69.593	0.100
239.100	55.882	0.100
239.200	77.922	0.100
239.300	73.677	0.100
239.400	77.476	0.100
239.500	73.400	0.100
239.600	74.650	0.100
239.700	65.839	0.100
239.800	67.937	0.100
239.900	63.226	0.100
240.000	80.200	0.100
240.100	59.045	0.100
240.200	60.722	0.100
240.300	59.764	0.100
240.400	50.783	0.100
240.500	38.730	0.100
240.600	11.797	0.100
240.700	16.369	0.100
240.800	11.370	0.100
240.900	-4.546	0.100
241.000	-28.266	0.100
241.100	-26.677	0.100
241.200	-41.258	0.100
241.300	-50.689	0.100
241.400	-43.141	0.100
241.500	-54.270	0.100
241.600	-49.672	0.100
241.700	-76.538	0.100
241.800	-78.127	0.100
241.900	-76.500	0.100
242.000	-85.188	0.100
242.100	-78.195	0.100
242.200	-80.239	0.100
242.300	-97.672	0.100
242.400	-91.458	0.100
242.500	-90.519	0.100
242.600	-99.430	0.100
242.700	-92.572	0.100
242.800	-92.060	0.100
242.900	-89.303	0.100
243.000	-95.851	0.100
243.100	-89.232	0.100
243.200	-104.688	0.100
243.300	-104.703	0.100
243.400	-104.055	0.100
243.500	-106.882	0.100
243.600	-105.437	0.100
243.700	-101.319	0.099
243.800	-100.322	0.100
243.900	-101.045	0.100
244.000	-100.803	0.100
244.100	-100.673	0.100
244.200	-107.023	0.100
244.300	-95.805	0.100
244.400	-99.670	0.100
244.500	-96.764	0.100
244.600	-95.076	0.100
244.700	-111.268	0.100
244.800	-91.798	0.100
244.900	-101.419	0.100
245.000	-86.701	0.100
245.100	-85.567	0.100
245.200	-86.747	0.100
245.300	-86.656	0.100
245.400	-88.876	0.100
245.500	-93.816	0.100
245.600	-86.507	0.100
245.700	-68.099	0.100
245.800	-80.655	0.100
245.900	-86.208	0.100
246.000	-81.195	0.100
246.100	-75.955	0.100
246.200	-86.950	0.100
246.300	-67.521	0.100
246.400	-85.266	0.100
246.500	-71.110	0.100
246.600	-68.787	0.100
246.700	-73.592	0.100
246.800	-78.130	0.100
246.900	-78.243	0.100
247.000	-69.433	0.100
247.100	-67.285	0.100
247.200	-72.390	0.100
247.300	-69.445	0.100
247.400	-81.922	0.100
247.500	-59.241	0.099
247.600	-54.034	0.100
247.700	-58.558	0.100
247.800	-63.967	0.100
247.900	-52.602	0.100
248.000	-62.146	0.100
248.100	-67.858	0.100
248.200	-62.741	0.100
248.300	-68.697	0.100
248.400	-49.976	0.100
248.500	-64.000	0.100
248.600	-63.112	0.100
248.700	-64.284	0.100
248.800	-52.684	0.100
248.900	-59.964	0.100
249.000	-42.986	0.100
249.100	-53.680	0.100
249.200	-50.334	0.100
249.300	-40.225	0.100
249.400	-50.872	0.100
249.500	-58.961	0.100
249.600	-45.898	0.100
249.700	-53.260	0.100
249.800	-52.158	0.100
249.900	-56.453	0.100
250.000	-44.668	0.100
250.100	-39.712	0.100
250.200	-51.334	0.100
250.300	-49.761	0.100
250.400	-47.670	0.100
250.500	-46.322	0.100
250.600	-52.230	0.100
250.700	-49.116	0.100
250.800	-59.659	0.100
250.900	-40.590	0.100
251.000	-55.897	0.100
251.100	-39.297	0.100
251.200	-46.841	0.100
251.300	-45.237	0.100
251.400	-35.532	0.100
251.500	-46.990	0.099
251.600	-53.651	0.100
251.700	-51.899	0.100
251.800	-43.911	0.100
251.900	-44.825	0.100
252.000	-45.138	0.100
252.100	-31.906	0.100
252.200	-37.042	0.100
252.300	-54.511	0.100
252.400	-38.362	0.100
252.500	-43.922	0.100
252.600	-38.433	0.100
252.700	-37.776	0.099
252.800	-39.424	0.100
252.900	-36.157	0.100
253.000	-36.961	0.100
253.100	-45.916	0.100
253.200	-28.579	0.100
253.300	-32.991	0.100
253.400	-40.445	0.100
253.500	-39.062	0.100
253.600	-39.606	0.100
253.700	-35.087	0.100
253.800	-42.689	0.100
253.900	-35.048	0.100
254.000	-47.514	0.100
254.100	-30.947	0.100
254.200	-23.940	0.100
254.300	-33.927	0.100
254.400	-42.821	0.100
254.500	-42.705	0.100
254.600	-39.020	0.100
254.700	-40.783	0.100
254.800	-34.001	0.100
254.900	-40.420	0.100
255.000	-31.883	0.100
255.100	-31.897	0.100
255.200	-35.746	0.100
255.300	-28.850	0.100
255.400	-40.265	0.100
255.500	-59.406	0.100
255.600	-36.023	0.100
255.700	-39.969	0.100
255.800	-38.300	0.100
255.900	-38.500	0.100
256.000	-29.900	0.100
256.100	-42.713	0.100
256.200	-44.572	0.100
256.300	-25.727	0.100
256.400	-35.970	0.100
256.500	-45.042	0.100
256.600	-32.406	0.100
256.700	-41.833	0.100
256.800	-40.649	0.100
256.900	-36.694	0.100
257.000	-24.099	0.100
257.100	-35.736	0.100
257.200	-30.207	0.100
257.300	-24.932	0.100
257.400	-24.077	0.100
257.500	-39.151	0.100
257.600	-35.756	0.100
257.700	-34.363	0.100
257.800	-31.648	0.100
257.900	-33.616	0.100
258.000	-33.123	0.100
258.100	-33.678	0.100
258.200	-30.671	0.100
258.300	-28.736	0.100
258.400	-18.458	0.100
258.500	-25.649	0.100
258.600	-32.445	0.100
258.700	-37.529	0.100
258.800	-27.243	0.100
258.900	-33.050	0.100
259.000	-28.171	0.100
259.100	-38.677	0.100
259.200	-38.209	0.100
259.300	-36.472	0.100
259.400	-33.825	0.100
259.500	-36.099	0.100
259.600	-25.991	0.100
259.700	-17.381	0.100
259.800	-19.976	0.100
259.900	-22.776	0.100
260.000	-31.393	0.100
260.100	-37.221	0.100
260.200	-28.170	0.100
260.300	-10.303	0.100
260.400	-28.302	0.100
260.500	-29.500	0.100
260.600	-29.068	0.100
260.700	-26.619	0.100
260.800	-40.371	0.100
260.900	-23.390	0.100
261.000	-19.547	0.100
261.100	-32.916	0.100
261.200	-30.441	0.100
261.300	-28.547	0.100
261.400	-30.193	0.100
261.500	-18.103	0.100
261.600	-30.946	0.100
261.700	-26.379	0.100
261.800	-35.926	0.100
261.900	-24.198	0.100
262.000	-25.317	0.100
262.100	-22.294	0.100
262.200	-44.574	0.100
262.300	-27.403	0.100
262.400	-29.662	0.100
262.500	-22.295	0.100
262.600	-29.552	0.100
262.700	-24.628	0.100
262.800	-30.610	0.100
262.900	-28.605	0.100
263.000	-34.947	0.100
263.100	-36.138	0.100
263.200	-12.210	0.100
263.300	-26.137	0.100
263.400	-21.938	0.100
263.500	-26.463	0.100
263.600	-12.433	0.100
263.700	-30.873	0.100
263.800	-33.861	0.100
263.900	-27.365	0.100
264.000	-20.709	0.100
264.100	-19.773	0.100
264.200	-20.821	0.099
264.300	-30.214	0.100
264.400	-25.467	0.099
264.500	-23.350	0.100
264.600	-20.259	0.100
264.700	-24.556	0.099
264.800	-26.226	0.099
264.900	-25.284	0.099
265.000	-30.222	0.100
265.100	-40.302	0.100
265.200	-29.120	0.099
265.300	-16.907	0.100
265.400	-13.474	0.100
265.500	-23.425	0.100
265.600	-34.410	0.100
265.700	-43.463	0.099
265.800	-26.172	0.100
265.900	-15.010	0.100
266.000	-20.298	0.100
266.100	-18.132	0.099
266.200	-34.532	0.100
266.300	-22.426	0.100
266.400	-34.831	0.100
266.500	-25.051	0.100
266.600	-6.727	0.100
266.700	-7.725	0.100
266.800	-27.058	0.100
266.900	-20.396	0.100
267.000	-22.828	0.100
267.100	-8.306	0.100
267.200	-26.131	0.100
267.300	-26.395	0.100
267.400	-18.715	0.100
267.500	-22.448	0.100
267.600	-28.750	0.100
267.700	-24.043	0.100
267.800	-36.214	0.100
267.900	-11.182	0.100
268.000	-19.542	0.100
268.100	-27.650	0.100
268.200	-23.854	0.100
268.300	-19.643	0.099
268.400	-32.315	0.100
268.500	-25.171	0.100
268.600	-31.157	0.099
268.700	-15.608	0.100
268.800	-23.357	0.100
268.900	-28.441	0.099
269.000	-13.784	0.100
269.100	-27.528	0.100
269.200	-18.917	0.100
269.300	-10.594	0.100
269.400	-22.595	0.100
269.500	-28.830	0.100
269.600	-10.976	0.100
269.700	-23.008	0.100
269.800	-11.919	0.100
269.900	-40.888	0.100
270.000	-22.528	0.100
270.100	-20.717	0.099
270.200	-30.346	0.100
270.300	-18.520	0.099
270.400	-31.510	0.100
270.500	-22.721	0.100
270.600	-6.377	0.100
270.700	-23.032	0.100
270.800	-14.851	0.100
270.900	-22.747	0.100
271.000	-22.667	0.100
271.100	-28.997	0.100
271.200	-36.353	0.100
271.300	-39.717	0.099
271.400	-29.639	0.100
271.500	-11.710	0.100
271.600	-8.421	0.100
271.700	-22.915	0.100
271.800	-18.936	0.100
271.900	-23.313	0.100
272.000	-28.141	0.100
272.100	-22.650	0.099
272.200	-9.770	0.100
272.300	-31.681	0.100
272.400	-31.657	0.100
272.500	-19.408	0.100
272.600	-30.966	0.100
272.700	-16.701	0.100
272.800	-32.080	0.100
272.900	-19.414	0.100
273.000	-32.262	0.100
273.100	-11.225	0.100
273.200	-24.361	0.100
273.300	-25.167	0.100
273.400	-12.261	0.099
273.500	-21.930	0.100
273.600	-15.300	0.099
273.700	-26.712	0.100
273.800	-16.949	0.100
273.900	-35.890	0.100
274.000	-25.944	0.100
274.100	-15.359	0.100
274.200	-24.438	0.100
274.300	-25.704	0.100
274.400	-6.515	0.100
274.500	-21.072	0.100
274.600	-19.526	0.100
274.700	-27.232	0.100
274.800	-24.795	0.100
274.900	-21.643	0.100
275.000	-8.904	0.100
275.100	-18.479	0.100
275.200	-2.548	0.100
275.300	-31.547	0.100
275.400	-31.691	0.100
275.500	-22.974	0.100
275.600	-14.687	0.100
275.700	-18.590	0.100
275.800	-28.401	0.100
275.900	-23.009	0.100
276.000	-23.011	0.100
276.100	-18.230	0.100
276.200	-25.216	0.100
276.300	-6.764	0.100
276.400	-18.769	0.100
276.500	-20.908	0.100
276.600	-27.186	0.100
276.700	-20.996	0.100
276.800	-27.364	0.100
276.900	-24.742	0.099
277.000	-12.662	0.100
277.100	-30.617	0.100
277.200	-27.292	0.100
277.300	-14.018	0.100
277.400	-22.807	0.100
277.500	-10.787	0.099
277.600	-22.162	0.100
277.700	-25.550	0.100
277.800	-27.994	0.099
277.900	-16.684	0.100
278.000	-23.399	0.100
278.100	-24.555	0.100
278.200	-2.582	0.100
278.300	-31.694	0.100
278.400	-12.486	0.100
278.500	-7.928	0.100
278.600	-36.800	0.100
278.700	-21.783	0.100
278.800	-20.350	0.100
278.900	-21.142	0.100
279.000	-17.969	0.100
279.100	-16.100	0.100
279.200	-21.735	0.100
279.300	-20.245	0.100
279.400	-21.095	0.100
279.500	-24.262	0.100
279.600	-14.430	0.100
279.700	-30.170	0.099
279.800	-19.938	0.100
279.900	-27.395	0.100
280.000	-21.608	0.100
280.100	-22.728	0.100
280.200	-26.259	0.100
280.300	-23.805	0.100
280.400	-11.549	0.100
280.500	-18.618	0.100
280.600	-16.775	0.100
280.700	-25.892	0.100
280.800	-16.471	0.100
280.900	-31.137	0.100
281.000	-28.652	0.100
281.100	-33.236	0.100
281.200	-13.821	0.100
281.300	-8.635	0.100
281.400	-26.776	0.100
281.500	-12.797	0.100
281.600	-9.419	0.100
281.700	-13.446	0.100
281.800	-33.687	0.100
281.900	-12.088	0.100
282.000	-22.644	0.100
282.100	-16.446	0.100
282.200	-18.769	0.100
282.300	-18.500	0.100
282.400	-12.813	0.100
282.500	-22.431	0.099
282.600	-34.950	0.100
282.700	-21.545	0.100
282.800	-7.657	0.100
282.900	-11.489	0.100
283.000	-39.599	0.100
283.100	-21.331	0.100
283.200	-14.003	0.100
283.300	-9.874	0.100
283.400	-32.806	0.099
283.500	-17.712	0.100
283.600	-25.082	0.100
283.700	-13.867	0.100
283.800	-29.441	0.100
283.900	-26.565	0.100
284.000	-12.978	0.100
284.100	-23.808	0.100
284.200	-27.127	0.099
284.300	-18.223	0.100
284.400	-24.485	0.100
284.500	-19.515	0.100
284.600	-20.859	0.100
284.700	-14.956	0.100
284.800	-14.612	0.100
284.900	-21.436	0.100
285.000	-21.178	0.100
285.100	-26.008	0.099
285.200	-41.295	0.100
285.300	-15.866	0.100
285.400	-24.759	0.099
285.500	-5.927	0.100
285.600	-16.129	0.099
285.700	-13.846	0.100
285.800	-22.230	0.100
285.900	-8.758	0.099
286.000	-18.203	0.100
286.100	-24.357	0.100
286.200	-7.928	0.100
286.300	-35.383	0.100
286.400	-7.577	0.100
286.500	-13.626	0.100
286.600	-37.656	0.100
286.700	-10.645	0.100
286.800	-24.226	0.100
286.900	-25.587	0.099
287.000	-24.748	0.099
287.100	-10.149	0.100
287.200	-26.625	0.100
287.300	-2.838	0.100
287.400	-15.417	0.099
287.500	-30.238	0.099
287.600	-14.257	0.100
287.700	-15.608	0.100
287.800	-6.961	0.100
287.900	-15.385	0.100
288.000	-28.823	0.099
288.100	-19.491	0.099
288.200	-22.983	0.100
288.300	-19.584	0.100
288.400	-24.636	0.100
288.500	-17.642	0.100
288.600	-18.542	0.100
288.700	-11.621	0.100
288.800	-37.644	0.100
288.900	-20.125	0.100
289.000	-15.215	0.100
289.100	-16.942	0.100
289.200	-18.851	0.099
289.300	-13.926	0.100
289.400	-23.466	0.100
289.500	-31.678	0.099
289.600	-18.886	0.100
289.700	-8.497	0.100
289.800	-24.240	0.100
289.900	-15.668	0.100
290.000	-30.935	0.100
290.100	-21.391	0.100
290.200	-6.492	0.100
290.300	-21.432	0.100
290.400	-4.280	0.100
290.500	-18.755	0.100
290.600	-17.724	0.100
290.700	-18.570	0.100
290.800	-21.035	0.100
290.900	-30.673	0.100
291.000	-30.583	0.100
291.100	-15.263	0.100
291.200	-19.274	0.099
291.300	-14.904	0.100
291.400	-12.269	0.100
291.500	-31.327	0.100
291.600	-32.644	0.100
291.700	-26.687	0.100
291.800	-5.772	0.099
291.900	-18.636	0.100
292.000	-29.828	0.100
292.100	-11.352	0.100
292.200	-15.554	0.100
292.300	-14.273	0.100
292.400	-21.222	0.100
292.500	-18.066	0.100
292.600	-4.958	0.100
292.700	-11.393	0.100
292.800	-17.027	0.100
292.900	-34.758	0.099
293.000	-21.314	0.100
293.100	-19.837	0.100
293.200	-11.396	0.100
293.300	-21.569	0.100
293.400	-22.548	0.100
293.500	-18.842	0.100
293.600	-10.510	0.100
293.700	-23.436	0.099
293.800	-14.620	0.099
293.900	-27.481	0.100
294.000	-28.924	0.100
294.100	-8.817	0.100
294.200	-20.636	0.100
294.300	-23.430	0.099
294.400	-27.279	0.099
294.500	-0.638	0.100
294.600	-35.534	0.099
294.700	-14.769	0.100
294.800	-10.614	0.100
294.900	-22.971	0.100
295.000	-23.966	0.100
295.100	-19.982	0.100
295.200	-10.123	0.100
295.300	-3.672	0.099
295.400	-25.919	0.100
295.500	-4.853	0.100
295.600	-28.980	0.100
295.700	-22.867	0.100
295.800	-15.257	0.100
295.900	-18.946	0.099
296.000	-18.722	0.100
296.100	-33.373	0.100
296.200	-28.337	0.099
296.300	-12.967	0.100
296.400	-14.408	0.100
296.500	-28.421	0.100
296.600	-22.062	0.099
296.700	-21.907	0.099
296.800	-14.171	0.100
296.900	-13.262	0.100
297.000	-12.636	0.099
297.100	-24.971	0.100
297.200	-27.963	0.100
297.300	-20.554	0.100
297.400	-13.230	0.100
297.500	-22.948	0.099
297.600	-19.948	0.100
297.700	-16.742	0.100
297.800	-21.591	0.099
297.900	-21.718	0.100
298.000	-21.917	0.100
298.100	-21.091	0.100
298.200	-5.920	0.100
298.300	-22.618	0.100
298.400	-5.519	0.100
298.500	-20.344	0.100
298.600	-26.030	0.100
298.700	-24.594	0.100
298.800	-21.955	0.100
298.900	-10.726	0.100
299.000	-27.828	0.099
299.100	-21.276	0.100
299.200	-20.237	0.100
299.300	-9.090	0.100
299.400	-23.664	0.100
299.500	-9.670	0.100
299.600	-13.918	0.099
299.700	-19.116	0.100
299.800	-21.033	0.100
299.900	-23.385	0.100
300.000	-9.507	0.099
300.100	-11.076	0.100
300.200	1.535	0.100
300.300	-18.574	0.100
300.400	-25.852	0.100
300.500	-14.252	0.099
300.600	-9.123	0.100
300.700	-30.367	0.100
300.800	-8.593	0.099
300.900	-18.053	0.100
301.000	-13.512	0.099
301.100	-16.710	0.100
301.200	-27.502	0.100
301.300	-10.639	0.099
301.400	-23.800	0.100
301.500	-11.230	0.100
301.600	-20.335	0.100
301.700	-11.160	0.100
301.800	-17.085	0.100
301.900	-31.683	0.100
302.000	-9.302	0.100
302.100	-34.977	0.099
302.200	-28.556	0.100
302.300	-25.633	0.100
302.400	-8.964	0.099
302.500	-6.806	0.100
302.600	-26.607	0.100
302.700	-21.922	0.100
302.800	-11.846	0.100
302.900	-32.009	0.100
303.000	-0.453	0.100
303.100	-12.502	0.100
303.200	-28.514	0.100
303.300	-34.137	0.100
303.400	-12.768	0.100
303.500	-22.753	0.099
303.600	-7.881	0.100
303.700	-16.736	0.100
303.800	-23.226	0.100
303.900	-4.496	0.100
304.000	-16.522	0.100
304.100	-20.793	0.099
304.200	-22.376	0.099
304.300	-22.603	0.099
304.400	-17.253	0.099
304.500	-17.879	0.100
304.600	-14.637	0.100
304.700	-11.340	0.100
304.800	-12.419	0.099
304.900	-22.227	0.100
305.000	-19.461	0.099
305.100	-27.591	0.100
305.200	-15.114	0.100
305.300	-20.339	0.100
305.400	-13.777	0.099
305.500	-17.702	0.100
305.600	-22.834	0.100
305.700	-28.014	0.100
305.800	-16.312	0.100
305.900	2.652	0.100
306.000	-28.762	0.099
306.100	-2.891	0.099
306.200	-18.651	0.100
306.300	-26.810	0.100
306.400	-35.755	0.099
306.500	-3.326	0.099
306.600	-6.906	0.100
306.700	-8.785	0.100
306.800	-24.717	0.100
306.900	-21.182	0.100
307.000	-19.035	0.100
307.100	-14.285	0.100
307.200	-17.001	0.099
307.300	-19.778	0.100
307.400	-18.545	0.100
307.500	-23.772	0.099
307.600	-26.460	0.100
307.700	-10.360	0.100
307.800	-29.472	0.099
307.900	-10.095	0.100
308.000	-16.821	0.100
308.100	-22.590	0.099
308.200	-1.963	0.100
308.300	-17.859	0.099
308.400	-17.896	0.100
308.500	-13.831	0.099
308.600	-12.674	0.100
308.700	-4.237	0.100
308.800	-12.227	0.099
308.900	-15.019	0.100
309.000	-21.801	0.100
309.100	-21.815	0.100
309.200	-14.504	0.100
309.300	-28.687	0.100
309.400	-2.403	0.100
309.500	-24.422	0.099
309.600	-21.894	0.100
309.700	-17.413	0.100
309.800	-20.760	0.100
309.900	-18.203	0.099
310.000	-33.817	0.099
310.100	-9.156	0.100
310.200	-6.107	0.100
310.300	-25.023	0.100
310.400	-21.876	0.100
310.500	-15.547	0.100
310.600	-22.202	0.099
310.700	-16.655	0.099
310.800	-9.369	0.100
310.900	-19.716	0.100
311.000	-12.447	0.100
311.100	-22.956	0.100
311.200	-0.173	0.099
311.300	-12.256	0.100
311.400	-25.158	0.099
311.500	-7.769	0.100
311.600	-13.635	0.100
311.700	-12.002	0.100
311.800	-6.250	0.099
311.900	-8.484	0.099
312.000	-35.417	0.099
312.100	-19.597	0.100
312.200	-9.536	0.100
312.300	-27.266	0.100
312.400	-18.858	0.100
312.500	-14.922	0.100
312.600	-16.741	0.099
312.700	-1.622	0.100
312.800	-16.193	0.100
312.900	-20.501	0.100
313.000	-17.625	0.100
313.100	-4.510	0.100
313.200	-7.649	0.100
313.300	-20.587	0.099
313.400	-16.434	0.100
313.500	-39.456	0.100
313.600	-15.037	0.099
313.700	-17.467	0.100
313.800	-13.705	0.099
313.900	-20.850	0.100
314.000	2.145	0.100
314.100	-12.150	0.099
314.200	-15.248	0.100
314.300	-20.694	0.099
314.400	-11.206	0.100
314.500	-2.118	0.100
314.600	-14.702	0.099
314.700	-21.355	0.099
314.800	-13.270	0.099
314.900	-22.192	0.099
315.000	-34.680	0.099
315.100	-16.213	0.099
315.200	8.199	0.100
315.300	-2.908	0.100
315.400	-24.838	0.100
315.500	-29.345	0.100
315.600	-9.642	0.100
315.700	-16.439	0.100
315.800	-26.013	0.100
315.900	-19.165	0.100
316.000	-26.515	0.099
316.100	-4.548	0.100
316.200	-8.911	0.099
316.300	-16.964	0.100
316.400	-22.613	0.100
316.500	-11.328	0.099
316.600	-16.147	0.099
316.700	-15.051	0.100
316.800	-0.552	0.099
316.900	-11.728	0.100
317.000	-21.712	0.099
317.100	-8.952	0.100
317.200	-21.149	0.100
317.300	-24.121	0.100
317.400	-18.149	0.099
317.500	-7.318	0.100
317.600	-18.578	0.100
317.700	-20.963	0.100
317.800	-20.626	0.099
317.900	-25.083	0.100
318.000	-22.501	0.099
318.100	-12.389	0.100
318.200	-13.741	0.099
318.300	-24.830	0.099
318.400	-12.333	0.100
318.500	-8.248	0.099
318.600	-21.135	0.099
318.700	-18.908	0.100
318.800	-14.960	0.099
318.900	-25.522	0.100
319.000	-12.717	0.100
319.100	-15.555	0.100
319.200	-9.322	0.099
319.300	-7.653	0.100
319.400	-15.279	0.099
319.500	-10.958	0.099
319.600	-19.707	0.100
319.700	-10.213	0.100
319.800	-25.789	0.099
319.900	-27.439	0.100
320.000	-5.142	0.100
320.100	-12.070	0.100
320.200	-21.961	0.100
320.300	-13.262	0.100
320.400	-11.870	0.100
320.500	-21.389	0.100
320.600	-23.721	0.099
320.700	-0.830	0.100
320.800	-24.656	0.100
320.900	-9.663	0.100
321.000	-29.858	0.100
321.100	-16.778	0.100
321.200	-19.350	0.099
321.300	-12.105	0.099
321.400	-9.506	0.099
321.500	-13.396	0.100
321.600	-15.309	0.099
321.700	-26.993	0.099
321.800	-19.256	0.100
321.900	-6.840	0.100
322.000	-16.698	0.099
322.100	-33.620	0.099
322.200	-15.497	0.100
322.300	-2.067	0.100
322.400	-15.991	0.100
322.500	-7.528	0.100
322.600	-22.356	0.100
322.700	-19.692	0.099
322.800	-24.412	0.099
322.900	-6.953	0.099
323.000	-14.006	0.099
323.100	-13.136	0.099
323.200	-17.141	0.100
323.300	-17.909	0.099
323.400	-7.659	0.100
323.500	-19.063	0.099
323.600	-13.737	0.099
323.700	-17.212	0.100
323.800	-5.835	0.099
323.900	-16.193	0.100
324.000	-4.293	0.100
324.100	-12.287	0.100
324.200	-14.599	0.100
324.300	-9.917	0.100
324.400	-10.920	0.100
324.500	-24.397	0.099
324.600	-22.326	0.099
324.700	-15.074	0.099
324.800	-10.243	0.100
324.900	-8.184	0.100
325.000	-9.859	0.099
325.100	-18.968	0.100
325.200	-27.582	0.099
325.300	-4.909	0.100
325.400	-18.496	0.100
325.500	-13.785	0.099
325.600	-19.956	0.100
325.700	-10.638	0.100
325.800	-16.284	0.100
325.900	-6.513	0.100
326.000	-9.289	0.100
326.100	-29.393	0.099
326.200	-12.198	0.100
326.300	-33.238	0.099
326.400	-18.166	0.099
326.500	-20.789	0.099
326.600	-1.690	0.100
326.700	-12.420	0.100
326.800	-21.010	0.100
326.900	-13.530	0.099
327.000	-20.270	0.099
327.100	-14.653	0.099
327.200	-28.560	0.100
327.300	-9.430	0.099
327.400	-8.921	0.100
327.500	-13.691	0.099
327.600	-25.329	0.100
327.700	-14.678	0.100
327.800	-4.764	0.100
327.900	-15.629	0.100
328.000	-17.581	0.100
328.100	-26.898	0.099
328.200	-20.225	0.099
328.300	-7.469	0.100
328.400	-17.834	0.100
328.500	-13.864	0.099
328.600	-9.454	0.100
328.700	-12.187	0.100
328.800	-13.952	0.099
328.900	-13.884	0.100
329.000	-25.774	0.100
329.100	-10.397	0.099
329.200	-17.025	0.099
329.300	-5.521	0.100
329.400	-15.726	0.100
329.500	-17.704	0.100
329.600	-13.721	0.099
329.700	-17.910	0.099
329.800	-20.543	0.099
329.900	-14.344	0.100
330.000	-10.743	0.100
330.100	-14.707	0.100
330.200	1.908	0.100
330.300	-3.474	0.099
330.400	-5.409	0.099
330.500	-7.302	0.099
330.600	13.849	0.099
330.700	21.614	0.100
330.800	19.481	0.100
330.900	23.432	0.100
331.000	12.057	0.100
331.100	32.436	0.100
331.200	33.568	0.100
331.300	28.480	0.099
331.400	26.240	0.100
331.500	41.401	0.100
331.600	35.724	0.100
331.700	33.415	0.099
331.800	37.449	0.099
331.900	31.620	0.100
332.000	46.551	0.099
332.100	49.453	0.100
332.200	44.946	0.100
332.300	25.712	0.099
332.400	27.150	0.099
332.500	26.718	0.100
332.600	24.229	0.100
332.700	21.868	0.100
332.800	38.068	0.100
332.900	46.170	0.100
333.000	24.478	0.099
333.100	38.115	0.100
333.200	35.317	0.100
333.300	22.946	0.099
333.400	34.041	0.100
333.500	26.569	0.100
333.600	28.576	0.099
333.700	11.783	0.100
333.800	26.099	0.100
333.900	19.026	0.100
334.000	20.995	0.100
334.100	23.462	0.100
334.200	16.879	0.100
334.300	31.230	0.100
334.400	29.862	0.099
334.500	10.325	0.099
334.600	12.559	0.100
334.700	10.678	0.100
334.800	7.834	0.100
334.900	19.001	0.100
335.000	26.072	0.100
335.100	19.768	0.100
335.200	11.258	0.100
335.300	4.784	0.100
335.400	23.352	0.100
335.500	15.269	0.099
335.600	14.836	0.100
335.700	15.471	0.100
335.800	11.192	0.100
335.900	15.570	0.100
336.000	18.467	0.100
336.100	18.131	0.100
336.200	24.901	0.100
336.300	17.465	0.100
336.400	24.479	0.100
336.500	16.770	0.100
336.600	23.460	0.100
336.700	25.814	0.100
336.800	24.917	0.100
336.900	13.830	0.100
337.000	13.334	0.100
337.100	22.870	0.100
337.200	32.568	0.100
337.300	16.229	0.100
337.400	8.218	0.100
337.500	29.620	0.100
337.600	28.635	0.100
337.700	29.027	0.100
337.800	24.057	0.099
337.900	33.758	0.100
338.000	22.223	0.100
338.100	19.298	0.099
338.200	22.527	0.100
338.300	28.838	0.100
338.400	27.582	0.100
338.500	23.678	0.100
338.600	19.778	0.100
338.700	28.576	0.100
338.800	25.086	0.100
338.900	24.988	0.100
339.000	24.327	0.100
339.100	23.304	0.100
339.200	31.668	0.100
339.300	36.973	0.100
339.400	20.356	0.100
339.500	32.963	0.100
339.600	37.546	0.100
339.700	32.247	0.100
339.800	20.538	0.100
339.900	30.184	0.100
340.000	35.177	0.100
340.100	31.186	0.100
340.200	44.544	0.100
340.300	28.969	0.100
340.400	37.892	0.099
340.500	32.171	0.100
340.600	39.166	0.100
340.700	39.185	0.100
340.800	21.542	0.100
340.900	39.925	0.100
341.000	43.935	0.099
341.100	24.918	0.100
341.200	31.184	0.100
341.300	36.118	0.100
341.400	38.619	0.100
341.500	41.384	0.100
341.600	37.966	0.100
341.700	35.836	0.100
341.800	36.845	0.099
341.900	52.890	0.100
342.000	43.093	0.100
342.100	51.334	0.099
342.200	46.412	0.099
342.300	52.762	0.100
342.400	34.960	0.100
342.500	45.354	0.100
342.600	39.537	0.100
342.700	39.065	0.100
342.800	42.446	0.100
342.900	39.573	0.100
343.000	49.263	0.100
343.100	48.265	0.100
343.200	71.282	0.100
343.300	63.637	0.100
343.400	45.976	0.100
343.500	60.267	0.100
343.600	45.710	0.100
343.700	46.235	0.099
343.800	61.665	0.100
343.900	54.389	0.100
344.000	55.947	0.100
344.100	51.830	0.100
344.200	40.581	0.099
344.300	64.021	0.100
344.400	51.936	0.100
344.500	49.056	0.100
344.600	53.567	0.100
344.700	48.957	0.100
344.800	44.784	0.100
344.900	62.370	0.100
345.000	56.702	0.100
345.100	46.813	0.100
345.200	47.548	0.099
345.300	57.832	0.100
345.400	45.902	0.100
345.500	50.371	0.100
345.600	58.565	0.100
345.700	61.445	0.100
345.800	49.786	0.100
345.900	54.708	0.099
346.000	57.925	0.100
346.100	53.136	0.100
346.200	52.988	0.099
346.300	66.433	0.100
346.400	58.493	0.100
346.500	62.250	0.100
346.600	44.517	0.100
346.700	67.322	0.100
346.800	59.128	0.100
346.900	65.385	0.100
347.000	64.042	0.100
347.100	54.643	0.099
347.200	60.525	0.100
347.300	64.929	0.100
347.400	68.965	0.100
347.500	65.100	0.100
347.600	70.382	0.100
347.700	65.392	0.100
347.800	55.187	0.100
347.900	45.154	0.100
348.000	56.826	0.100
348.100	60.912	0.099
348.200	55.819	0.099
348.300	61.776	0.100
348.400	61.100	0.100
348.500	64.527	0.100
348.600	66.334	0.100
348.700	59.835	0.100
348.800	65.746	0.099
348.900	73.557	0.100
349.000	63.563	0.100
349.100	67.590	0.100
349.200	73.802	0.100
349.300	75.791	0.099
349.400	57.113	0.100
349.500	63.461	0.100
349.600	66.030	0.099
349.700	76.394	0.100
349.800	61.362	0.100
349.900	66.768	0.100
350.000	60.430	0.100
350.100	73.332	0.100
350.200	65.695	0.100
350.300	69.505	0.100
350.400	75.038	0.100
350.500	56.225	0.100
350.600	59.427	0.100
350.700	73.094	0.100
350.800	69.512	0.100
350.900	70.561	0.100
351.000	66.744	0.100
351.100	81.724	0.100
351.200	58.103	0.100
351.300	63.960	0.100
351.400	69.904	0.099
351.500	75.606	0.100
351.600	53.703	0.100
351.700	81.679	0.099
351.800	74.898	0.100
351.900	67.460	0.100
352.000	64.524	0.100
352.100	75.057	0.100
352.200	81.422	0.100
352.300	71.103	0.100
352.400	67.835	0.100
352.500	80.025	0.100
352.600	70.816	0.100
352.700	68.416	0.100
352.800	63.973	0.100
352.900	81.055	0.100
353.000	71.579	0.100
353.100	61.449	0.100
353.200	76.086	0.100
353.300	79.041	0.100
353.400	72.176	0.099
353.500	74.318	0.100
353.600	59.588	0.100
353.700	64.910	0.100
353.800	76.080	0.100
353.900	63.869	0.100
354.000	88.592	0.100
354.100	75.948	0.099
354.200	57.704	0.100
354.300	77.231	0.100
354.400	74.672	0.100
354.500	75.213	0.100
354.600	65.053	0.100
354.700	70.371	0.100
354.800	76.035	0.099
354.900	78.200	0.100
355.000	79.361	0.100
355.100	79.336	0.100
355.200	81.020	0.100
355.300	67.190	0.100
355.400	86.240	0.100
355.500	76.537	0.100
355.600	72.275	0.099
355.700	66.015	0.099
355.800	77.666	0.100
355.900	73.929	0.100
356.000	73.242	0.100
356.100	86.348	0.100
356.200	84.641	0.100
356.300	70.086	0.100
356.400	79.626	0.100
356.500	84.143	0.100
356.600	83.955	0.100
356.700	69.842	0.100
356.800	58.123	0.100
356.900	81.145	0.100
357.000	74.900	0.100
357.100	87.278	0.100
357.200	81.541	0.100
357.300	71.881	0.100
357.400	73.212	0.100
357.500	76.132	0.100
357.600	70.453	0.100
357.700	71.422	0.100
357.800	73.250	0.100
357.900	70.170	0.100
358.000	81.903	0.100
358.100	71.483	0.100
358.200	77.564	0.100
358.300	69.986	0.100
358.400	85.930	0.100
358.500	66.460	0.100
358.600	75.096	0.100
358.700	88.093	0.100
358.800	85.176	0.100
358.900	80.184	0.100
359.000	76.878	0.100
359.100	82.586	0.100
359.200	62.882	0.100
359.300	80.129	0.100
359.400	78.600	0.099
359.500	71.908	0.100
359.600	77.319	0.100
359.700	73.665	0.100
359.800	85.597	0.100
359.900	77.622	0.100
360.000	69.013	0.100
360.100	84.436	0.100
360.200	64.995	0.100
360.300	75.524	0.100
360.400	73.709	0.100
360.500	77.368	0.100
360.600	64.606	0.100
360.700	76.843	0.100
360.800	77.830	0.100
360.900	74.974	0.100
361.000	71.947	0.100
361.100	80.222	0.100
361.200	82.550	0.100
361.300	61.564	0.100
361.400	63.066	0.100
361.500	68.841	0.100
361.600	87.363	0.099
361.700	86.464	0.100
361.800	79.970	0.100
361.900	69.846	0.100
362.000	68.522	0.100
362.100	78.841	0.099
362.200	81.906	0.100
362.300	65.403	0.100
362.400	68.303	0.100
362.500	77.332	0.100
362.600	67.988	0.100
362.700	81.948	0.100
362.800	71.185	0.100
362.900	78.805	0.100
363.000	78.203	0.100
363.100	74.092	0.100
363.200	69.820	0.100
363.300	75.706	0.100
363.400	77.933	0.100
363.500	64.885	0.100
363.600	66.142	0.100
363.700	76.552	0.100
363.800	69.559	0.100
363.900	68.607	0.100
364.000	77.521	0.099
364.100	73.073	0.100
364.200	56.388	0.100
364.300	85.550	0.100
364.400	68.851	0.100
364.500	67.164	0.100
364.600	79.754	0.100
364.700	73.098	0.100
364.800	62.379	0.100
364.900	66.898	0.100
365.000	66.874	0.100
365.100	78.468	0.100
365.200	76.517	0.100
365.300	68.868	0.100
365.400	76.948	0.100
365.500	82.262	0.100
365.600	63.307	0.100
365.700	56.020	0.099
365.800	79.914	0.100
365.900	66.353	0.100
366.000	62.639	0.100
366.100	82.979	0.100
366.200	74.485	0.100
366.300	71.367	0.100
366.400	65.826	0.100
366.500	66.136	0.100
366.600	60.947	0.099
366.700	68.614	0.100
366.800	79.740	0.100
366.900	67.004	0.100
367.000	76.995	0.100
367.100	65.240	0.100
367.200	73.707	0.100
367.300	67.301	0.100
367.400	58.907	0.100
367.500	69.668	0.100
367.600	74.781	0.100
367.700	70.542	0.100
367.800	37.421	0.100
367.900	69.995	0.100
368.000	69.283	0.100
368.100	63.506	0.099
368.200	80.689	0.100
368.300	73.410	0.100
368.400	68.994	0.100
368.500	63.421	0.099
368.600	64.758	0.100
368.700	63.841	0.100
368.800	70.301	0.100
368.900	70.549	0.100
369.000	62.161	0.100
369.100	61.664	0.100
369.200	73.709	0.100
369.300	68.900	0.100
369.400	49.449	0.100
369.500	61.493	0.100
369.600	74.040	0.099
369.700	63.532	0.100
369.800	67.124	0.100
369.900	54.647	0.099
370.000	67.185	0.099
370.100	76.563	0.099
370.200	67.222	0.100
370.300	68.022	0.100
370.400	61.819	0.100
370.500	72.827	0.099
370.600	67.347	0.100
370.700	57.427	0.100
370.800	66.916	0.100
370.900	55.288	0.100
371.000	56.879	0.100
371.100	73.753	0.100
371.200	56.999	0.100
371.300	67.914	0.100
371.400	87.947	0.100
371.500	56.572	0.100
371.600	67.706	0.100
371.700	60.036	0.100
371.800	74.276	0.100
371.900	57.369	0.100
372.000	72.650	0.100
372.100	63.951	0.100
372.200	59.169	0.100
372.300	64.615	0.100
372.400	61.529	0.100
372.500	58.629	0.100
372.600	77.472	0.100
372.700	57.990	0.100
372.800	60.861	0.100
372.900	70.044	0.100
373.000	61.521	0.099
373.100	56.410	0.100
373.200	64.737	0.100
373.300	69.859	0.100
373.400	66.362	0.100
373.500	57.221	0.100
373.600	49.689	0.100
373.700	70.536	0.100
373.800	69.728	0.100
373.900	69.380	0.100
374.000	73.630	0.100
374.100	56.464	0.099
374.200	63.056	0.100
374.300	57.306	0.100
374.400	78.124	0.099
374.500	57.210	0.100
374.600	64.581	0.100
374.700	72.055	0.100
374.800	55.430	0.100
374.900	65.949	0.100
375.000	61.633	0.100
375.100	73.278	0.100
375.200	67.249	0.100
375.300	56.205	0.100
375.400	59.745	0.100
375.500	52.563	0.100
375.600	65.626	0.100
375.700	56.309	0.100
375.800	61.883	0.100
375.900	64.750	0.100
376.000	65.295	0.100
376.100	44.147	0.100
376.200	69.526	0.100
376.300	70.757	0.100
376.400	66.791	0.100
376.500	63.485	0.100
376.600	67.329	0.100
376.700	77.540	0.099
376.800	56.399	0.100
376.900	56.313	0.100
377.000	75.815	0.100
377.100	72.110	0.100
377.200	66.923	0.100
377.300	61.599	0.100
377.400	56.237	0.100
377.500	58.591	0.100
377.600	58.848	0.100
377.700	65.757	0.100
377.800	57.846	0.100
377.900	80.017	0.100
378.000	64.662	0.100
378.100	63.147	0.100
378.200	58.418	0.100
378.300	58.165	0.100
378.400	58.049	0.100
378.500	63.062	0.100
378.600	64.764	0.100
378.700	62.462	0.100
378.800	63.173	0.100
378.900	64.652	0.100
379.000	58.205	0.100
379.100	67.427	0.100
379.200	67.049	0.100
379.300	54.791	0.100
379.400	71.146	0.100
379.500	66.875	0.100
379.600	71.844	0.100
379.700	51.912	0.100
379.800	66.676	0.100
379.900	71.230	0.100
380.000	59.339	0.100
380.100	65.993	0.099
380.200	69.888	0.100
380.300	55.938	0.100
380.400	73.154	0.100
380.500	62.661	0.100
380.600	63.699	0.100
380.700	60.852	0.100
380.800	65.963	0.100
380.900	63.805	0.100
381.000	47.435	0.100
381.100	60.138	0.100
381.200	81.986	0.100
381.300	78.617	0.100
381.400	56.352	0.100
381.500	64.620	0.100
381.600	62.458	0.100
381.700	69.880	0.100
381.800	53.183	0.100
381.900	62.720	0.100
382.000	71.849	0.100
382.100	56.667	0.100
382.200	65.830	0.100
382.300	84.820	0.100
382.400	65.566	0.100
382.500	53.614	0.100
382.600	62.768	0.100
382.700	64.447	0.100
382.800	66.738	0.100
382.900	66.404	0.100
383.000	55.064	0.100
383.100	69.144	0.100
383.200	59.897	0.100
383.300	71.211	0.100
383.400	64.562	0.100
383.500	80.320	0.100
383.600	62.424	0.100
383.700	65.645	0.100
383.800	68.243	0.100
383.900	58.610	0.100
384.000	60.418	0.100
384.100	73.481	0.100
384.200	71.646	0.100
384.300	52.423	0.100
384.400	68.090	0.100
384.500	67.572	0.100
384.600	73.987	0.100
384.700	64.899	0.100
384.800	54.341	0.099
384.900	52.283	0.100
385.000	69.104	0.100
385.100	67.130	0.100
385.200	62.414	0.100
385.300	65.680	0.100
385.400	68.745	0.100
385.500	74.713	0.100
385.600	57.825	0.100
385.700	62.650	0.100
385.800	65.493	0.100
385.900	70.357	0.100
386.000	69.429	0.100
386.100	63.767	0.100
386.200	43.953	0.100
386.300	74.142	0.100
386.400	70.566	0.100
386.500	73.098	0.100
386.600	62.842	0.100
386.700	56.713	0.099
386.800	67.550	0.099
386.900	63.288	0.100
387.000	68.432	0.100
387.100	75.713	0.100
387.200	68.486	0.100
387.300	60.816	0.100
387.400	61.750	0.100
387.500	72.115	0.099
387.600	68.336	0.100
387.700	58.677	0.100
387.800	76.712	0.100
387.900	64.015	0.100
388.000	64.394	0.100
388.100	76.413	0.100
388.200	72.972	0.100
388.300	71.728	0.100
388.400	78.813	0.099
388.500	67.858	0.100
388.600	54.439	0.099
388.700	69.229	0.100
388.800	58.743	0.099
388.900	73.182	0.100
389.000	69.898	0.100
389.100	65.645	0.100
389.200	82.546	0.099
389.300	71.387	0.100
389.400	58.082	0.099
389.500	54.525	0.100
389.600	77.283	0.100
389.700	75.893	0.100
389.800	49.175	0.100
389.900	72.427	0.100
390.000	78.290	0.100
390.100	61.205	0.100
390.200	54.301	0.100
390.300	55.164	0.100
390.400	45.688	0.100
390.500	29.485	0.100
390.600	14.989	0.100
390.700	10.666	0.100
390.800	6.248	0.100
390.900	-8.424	0.100
391.000	-15.090	0.099
391.100	-26.057	0.100
391.200	-43.039	0.100
391.300	-35.469	0.100
391.400	-48.138	0.100
391.500	-58.569	0.100
391.600	-62.666	0.100
391.700	-73.735	0.100
391.800	-92.073	0.100
391.900	-78.393	0.100
392.000	-80.129	0.100
392.100	-87.676	0.100
392.200	-84.750	0.100
392.300	-106.458	0.100
392.400	-82.860	0.100
392.500	-103.745	0.100
392.600	-98.383	0.100
392.700	-91.569	0.100
392.800	-104.798	0.100
392.900	-101.064	0.100
393.000	-108.661	0.100
393.100	-100.582	0.099
393.200	-93.234	0.100
393.300	-88.107	0.100
393.400	-95.465	0.100
393.500	-102.540	0.099
393.600	-95.234	0.099
393.700	-85.385	0.100
393.800	-90.596	0.100
393.900	-99.393	0.100
394.000	-92.235	0.100
394.100	-88.865	0.100
394.200	-86.592	0.100
394.300	-101.367	0.100
394.400	-87.066	0.100
394.500	-90.887	0.100
394.600	-86.177	0.100
394.700	-87.512	0.100
394.800	-88.497	0.100
394.900	-96.296	0.100
395.000	-88.089	0.100
395.100	-82.892	0.100
395.200	-83.560	0.100
395.300	-85.737	0.100
395.400	-70.393	0.100
395.500	-79.953	0.100
395.600	-75.685	0.100
395.700	-76.195	0.100
395.800	-72.325	0.100
395.900	-74.684	0.100
396.000	-73.811	0.100
396.100	-94.810	0.100
396.200	-68.328	0.100
396.300	-73.088	0.100
396.400	-73.735	0.100
396.500	-71.889	0.100
396.600	-51.740	0.100
396.700	-62.981	0.100
396.800	-66.257	0.100
396.900	-64.107	0.100
397.000	-69.817	0.100
397.100	-73.097	0.100
397.200	-57.273	0.100
397.300	-59.201	0.099
397.400	-53.666	0.100
397.500	-68.711	0.100
397.600	-51.730	0.099
397.700	-43.840	0.100
397.800	-55.658	0.100
397.900	-57.126	0.100
398.000	-51.146	0.100
398.100	-62.652	0.100
398.200	-53.383	0.100
398.300	-56.142	0.100
398.400	-46.248	0.100
398.500	-48.008	0.100
398.600	-51.186	0.100
398.700	-39.854	0.100
398.800	-55.443	0.100
398.900	-57.340	0.100
399.000	-51.211	0.100
399.100	-36.224	0.100
399.200	-55.143	0.100
399.300	-32.868	0.100
399.400	-44.919	0.100
399.500	-49.260	0.100
399.600	-56.340	0.100
399.700	-51.890	0.100
399.800	-25.211	0.100
399.900	-49.479	0.100
400.000	-35.274	0.100
400.100	-38.121	0.100
400.200	-46.872	0.100
400.300	-40.180	0.100
400.400	-40.296	0.100
400.500	-34.970	0.100
400.600	-41.542	0.100
400.700	-43.466	0.100
400.800	-47.919	0.100
400.900	-43.089	0.100
401.000	-45.101	0.100
401.100	-47.474	0.100
401.200	-40.935	0.100
401.300	-41.103	0.100
401.400	-30.572	0.100
401.500	-37.778	0.100
401.600	-34.014	0.100
401.700	-34.313	0.100
401.800	-35.454	0.100
401.900	-36.699	0.100
402.000	-45.473	0.100
402.100	-30.756	0.100
402.200	-32.785	0.100
402.300	-29.113	0.100
402.400	-32.569	0.100
402.500	-42.786	0.100
402.600	-26.157	0.100
402.700	-34.465	0.100
402.800	-29.385	0.100
402.900	-38.557	0.100
403.000	-41.377	0.100
403.100	-46.204	0.100
403.200	-31.251	0.100
403.300	-37.855	0.100
403.400	-28.477	0.100
403.500	-21.882	0.100
403.600	-44.664	0.100
403.700	-29.022	0.100
403.800	-28.614	0.100
403.900	-36.397	0.100
404.000	-33.723	0.100
404.100	-39.221	0.100
404.200	-34.979	0.100
404.300	-11.117	0.100
404.400	-38.728	0.100
404.500	-41.734	0.100
404.600	-41.020	0.100
404.700	-36.013	0.100
404.800	-33.705	0.100
404.900	-29.158	0.100
405.000	-30.413	0.100
405.100	-34.001	0.100
405.200	-34.704	0.099
405.300	-23.525	0.100
405.400	-28.769	0.100
405.500	-32.197	0.100
405.600	-42.539	0.100
405.700	-27.842	0.100
405.800	-28.359	0.100
405.900	-29.189	0.100
406.000	-39.855	0.100
406.100	-37.316	0.100
406.200	-29.097	0.100
406.300	-27.876	0.100
406.400	-33.204	0.099
406.500	-18.023	0.100
406.600	-32.457	0.100
406.700	-17.931	0.100
406.800	-33.965	0.100
406.900	-22.060	0.100
407.000	-50.815	0.100
407.100	-38.934	0.100
407.200	-37.004	0.100
407.300	-43.735	0.100
407.400	-26.331	0.100
407.500	-23.786	0.100
407.600	-41.701	0.100
407.700	-35.354	0.100
407.800	-22.350	0.100
407.900	-26.179	0.100
408.000	-46.666	0.100
408.100	-35.922	0.100
408.200	-33.347	0.100
408.300	-12.416	0.100
408.400	-31.164	0.100
408.500	-25.008	0.100
408.600	-31.526	0.100
408.700	-30.699	0.100
408.800	-19.176	0.100
408.900	-32.453	0.100
409.000	-38.328	0.100
409.100	-45.178	0.100
409.200	-20.908	0.100
409.300	-31.072	0.100
409.400	-42.529	0.100
409.500	-28.477	0.100
409.600	-26.223	0.099
409.700	-28.480	0.100
409.800	-26.417	0.099
409.900	-32.772	0.100
410.000	-27.186	0.100
410.100	-39.881	0.100
410.200	-22.116	0.100
410.300	-26.551	0.100
410.400	-36.199	0.099
410.500	-26.254	0.100
410.600	-33.577	0.100
410.700	-22.642	0.100
410.800	-23.090	0.100
410.900	-41.371	0.100
411.000	-16.712	0.100
411.100	-24.025	0.100
411.200	-27.099	0.100
411.300	-26.203	0.100
411.400	-41.300	0.100
411.500	-35.572	0.100
411.600	-24.291	0.100
411.700	-28.990	0.100
411.800	-37.627	0.100
411.900	-24.578	0.100
412.000	-28.980	0.100
412.100	-40.830	0.100
412.200	-33.495	0.100
412.300	-20.220	0.100
412.400	-31.875	0.100
412.500	-24.179	0.100
412.600	-15.411	0.100
412.700	-24.107	0.100
412.800	-29.547	0.100
412.900	-30.362	0.100
413.000	-30.433	0.100
413.100	-33.054	0.099
413.200	-28.275	0.100
413.300	-18.167	0.100
413.400	-26.447	0.100
413.500	-23.060	0.100
413.600	-24.482	0.100
413.700	-31.159	0.100
413.800	-36.326	0.099
413.900	-26.041	0.100
414.000	-15.315	0.100
414.100	-21.127	0.100
414.200	-31.737	0.100
414.300	-26.391	0.100
414.400	-21.207	0.099
414.500	-27.682	0.100
414.600	-24.277	0.099
414.700	-37.407	0.099
414.800	-11.933	0.100
414.900	-28.049	0.100
415.000	-32.774	0.100
415.100	-15.268	0.100
415.200	-30.190	0.099
415.300	-23.152	0.100
415.400	-28.585	0.100
415.500	-27.231	0.100
415.600	-31.715	0.099
415.700	-29.829	0.100
415.800	-25.436	0.099
415.900	-29.543	0.100
416.000	-21.107	0.100
416.100	-25.340	0.100
416.200	-13.767	0.100
416.300	-22.587	0.100
416.400	-23.220	0.100
416.500	-28.830	0.100
416.600	-25.863	0.100
416.700	-32.915	0.100
416.800	-28.706	0.100
416.900	-15.088	0.100
417.000	-33.586	0.100
417.100	-23.993	0.100
417.200	-25.441	0.100
417.300	-26.170	0.100
417.400	-25.079	0.100
417.500	-25.312	0.100
417.600	-21.958	0.100
417.700	-14.534	0.100
417.800	-31.831	0.100
417.900	-34.852	0.100
418.000	-23.686	0.100
418.100	-19.632	0.100
418.200	-32.635	0.100
418.300	-27.160	0.100
418.400	-19.197	0.100
418.500	-14.829	0.100
418.600	-26.921	0.100
418.700	-35.217	0.100
418.800	-28.295	0.100
418.900	-27.200	0.100
419.000	-13.515	0.100
419.100	-27.128	0.100
419.200	-28.394	0.100
419.300	-19.930	0.100
419.400	-26.317	0.100
419.500	-23.254	0.100
419.600	-22.666	0.100
419.700	-24.209	0.100
419.800	-20.886	0.100
419.900	-29.300	0.100
420.000	-35.731	0.099
420.100	-18.025	0.100
420.200	-30.274	0.100
420.300	-15.487	0.100
420.400	-12.328	0.100
420.500	-35.282	0.100
420.600	-25.291	0.100
420.700	-21.235	0.100
420.800	-37.557	0.100
420.900	-32.694	0.100
421.000	-24.317	0.100
421.100	-18.837	0.100
421.200	-15.082	0.100
421.300	-26.923	0.100
421.400	-20.709	0.100
421.500	-23.989	0.100
421.600	-24.922	0.100
421.700	-25.650	0.100
421.800	-32.050	0.100
421.900	-24.881	0.100
422.000	-18.251	0.100
422.100	-13.624	0.100
422.200	-34.689	0.099
422.300	-19.772	0.099
422.400	-18.578	0.100
422.500	-22.240	0.100
422.600	-20.015	0.100
422.700	-7.369	0.100
422.800	-27.340	0.100
422.900	-21.407	0.100
423.000	-17.232	0.100
423.100	-29.676	0.100
423.200	-38.103	0.100
423.300	-29.698	0.100
423.400	-23.354	0.100
423.500	-23.454	0.100
423.600	-33.824	0.100
423.700	-23.464	0.100
423.800	-18.146	0.100
423.900	-29.503	0.100
424.000	-30.792	0.099
424.100	-16.846	0.100
424.200	-23.233	0.100
424.300	-18.680	0.100
424.400	-19.034	0.099
424.500	-17.958	0.100
424.600	-19.351	0.100
424.700	-25.830	0.100
424.800	-20.427	0.100
424.900	-14.653	0.100
425.000	-33.074	0.100
425.100	-17.742	0.100
425.200	-16.078	0.100
425.300	-36.223	0.100
425.400	-33.353	0.100
425.500	-23.522	0.100
425.600	-32.836	0.100
425.700	-33.009	0.100
425.800	-9.881	0.100
425.900	-17.841	0.100
426.000	-23.679	0.100
426.100	-21.230	0.100
426.200	-19.256	0.100
426.300	-26.283	0.100
426.400	-30.820	0.100
426.500	-20.889	0.100
426.600	-16.886	0.100
426.700	-19.647	0.100
426.800	-28.353	0.099
426.900	-33.122	0.100
427.000	-16.400	0.099
427.100	-31.203	0.100
427.200	-24.937	0.100
427.300	-31.474	0.099
427.400	-25.809	0.100
427.500	-20.806	0.100
427.600	-12.518	0.100
427.700	-18.510	0.100
427.800	-34.823	0.100
427.900	-23.680	0.100
428.000	-9.411	0.100
428.100	-4.228	0.100
428.200	-16.967	0.100
428.300	-25.792	0.100
428.400	-23.344	0.100
428.500	-36.214	0.100
428.600	-12.650	0.100
428.700	-25.882	0.100
428.800	-25.982	0.100
428.900	-14.033	0.100
429.000	-23.495	0.100
429.100	-29.956	0.100
429.200	-17.366	0.100
429.300	-29.002	0.100
429.400	-16.150	0.100
429.500	-33.142	0.100
429.600	-36.708	0.100
429.700	-26.221	0.100
429.800	-22.572	0.100
429.900	-4.612	0.100
430.000	-19.904	0.100
430.100	-22.572	0.100
430.200	-26.701	0.100
430.300	-29.252	0.100
430.400	-19.274	0.100
430.500	-23.962	0.100
430.600	-14.452	0.100
430.700	-17.047	0.100
430.800	-21.227	0.100
430.900	-27.517	0.100
431.000	-21.603	0.100
431.100	-25.527	0.100
431.200	-12.668	0.100
431.300	-25.089	0.100
431.400	-22.418	0.100
431.500	-22.211	0.100
431.600	-16.430	0.100
431.700	-24.595	0.100
431.800	-30.426	0.100
431.900	-32.515	0.100
432.000	-20.071	0.100
432.100	-30.634	0.100
432.200	-30.474	0.100
432.300	-24.738	0.100
432.400	-30.424	0.100
432.500	-12.005	0.100
432.600	-14.501	0.100
432.700	-32.667	0.100
432.800	-15.867	0.100
432.900	-25.475	0.100
433.000	-16.754	0.100
433.100	-24.990	0.100
433.200	-18.520	0.100
433.300	-27.018	0.100
433.400	-24.967	0.100
433.500	-25.413	0.100
433.600	-20.921	0.100
433.700	-19.101	0.100
433.800	-20.973	0.100
433.900	-29.287	0.100
434.000	-23.126	0.100
434.100	-20.375	0.100
434.200	-12.747	0.100
434.300	-30.187	0.100
434.400	-15.287	0.100
434.500	-17.910	0.100
434.600	-37.879	0.100
434.700	-14.412	0.100
434.800	-28.696	0.100
434.900	-25.698	0.100
435.000	-34.134	0.100
435.100	-11.220	0.100
435.200	-17.489	0.100
435.300	-19.826	0.100
435.400	-21.839	0.100
435.500	-13.869	0.100
435.600	-17.189	0.100
435.700	-19.486	0.100
435.800	-7.388	0.100
435.900	-32.778	0.100
436.000	-9.758	0.100
436.100	-27.041	0.100
436.200	-39.991	0.100
436.300	-27.611	0.100
436.400	-18.065	0.100
436.500	-26.952	0.100
436.600	-11.887	0.100
436.700	-23.966	0.100
436.800	-19.491	0.100
436.900	-17.632	0.100
437.000	-21.524	0.100
437.100	-28.112	0.100
437.200	-28.809	0.100
437.300	-24.853	0.100
437.400	-31.601	0.100
437.500	-34.696	0.100
437.600	-20.887	0.100
437.700	-19.652	0.100
437.800	-30.991	0.100
437.900	-20.948	0.100
438.000	-21.509	0.100
438.100	-16.228	0.100
438.200	-22.166	0.100
438.300	-22.758	0.100
438.400	-26.747	0.100
438.500	-6.062	0.100
438.600	-21.700	0.100
438.700	-9.346	0.100
438.800	-20.631	0.099
438.900	-26.006	0.100
439.000	-26.195	0.100
439.100	-16.528	0.100
439.200	-27.406	0.100
439.300	-36.657	0.100
439.400	-1.368	0.100
439.500	-21.451	0.100
439.600	-4.613	0.100
439.700	-20.811	0.100
439.800	-38.240	0.100
439.900	-25.623	0.100
440.000	-19.334	0.100
440.100	-13.360	0.100
440.200	-21.341	0.100
440.300	-9.223	0.100
440.400	-19.052	0.100
440.500	-26.410	0.100
440.600	-39.594	0.100
440.700	-23.892	0.100
440.800	-22.109	0.100
440.900	-15.272	0.100
441.000	-29.264	0.100
441.100	-12.847	0.100
441.200	-22.312	0.100
441.300	-18.177	0.100
441.400	-12.348	0.100
441.500	-16.887	0.100
441.600	-19.949	0.100
441.700	-33.588	0.100
441.800	-20.729	0.100
441.900	-18.886	0.100
442.000	-30.082	0.100
442.100	-5.528	0.100
442.200	-22.413	0.100
442.300	-17.257	0.100
442.400	-32.367	0.100
442.500	-17.579	0.100
442.600	-24.796	0.100
442.700	-20.541	0.100
442.800	-19.406	0.100
442.900	-26.278	0.100
443.000	-23.456	0.100
443.100	-23.922	0.100
443.200	-27.800	0.100
443.300	-21.148	0.100
443.400	-9.879	0.100
443.500	-8.310	0.100
443.600	-11.103	0.100
443.700	-30.145	0.100
443.800	-23.880	0.100
443.900	-14.576	0.100
444.000	-37.598	0.100
444.100	-18.522	0.100
444.200	-17.567	0.100
444.300	-17.205	0.100
444.400	-26.729	0.100
444.500	-26.869	0.100
444.600	-22.667	0.100
444.700	-18.984	0.100
444.800	-2.827	0.100
444.900	-21.171	0.100
445.000	-15.855	0.100
445.100	-37.862	0.100
445.200	-12.151	0.100
445.300	-15.737	0.100
445.400	-18.134	0.100
445.500	-14.226	0.100
445.600	-22.338	0.100
445.700	-30.619	0.100
445.800	-18.070	0.100
445.900	-25.143	0.100
446.000	-17.244	0.100
446.100	-20.264	0.100
446.200	-37.648	0.100
446.300	-13.075	0.100
446.400	-22.180	0.100
446.500	-16.810	0.100
446.600	-27.566	0.100
446.700	-10.636	0.100
446.800	-20.088	0.100
446.900	-13.646	0.100
447.000	-18.764	0.100
447.100	-18.818	0.100
447.200	-14.484	0.100
447.300	-26.704	0.100
447.400	-20.049	0.100
447.500	-25.728	0.100
447.600	-18.959	0.100
447.700	-23.073	0.100
447.800	-26.067	0.100
447.900	-14.382	0.100
448.000	-16.618	0.100
448.100	-13.947	0.100
448.200	-27.963	0.100
448.300	-46.526	0.100
448.400	-11.718	0.100
448.500	-14.928	0.100
448.600	-14.618	0.100
448.700	-15.776	0.100
448.800	-25.826	0.100
448.900	-23.536	0.100
449.000	-15.629	0.100
449.100	-16.048	0.100
449.200	-15.201	0.100
449.300	-10.552	0.100
449.400	-17.215	0.100
449.500	-28.003	0.100
449.600	-10.634	0.100
449.700	-24.920	0.100
449.800	-20.819	0.100
449.900	-21.004	0.100
450.000	-25.421	0.100
450.100	-24.843	0.100
450.200	-22.994	0.100
450.300	-22.539	0.100
450.400	-29.124	0.100
450.500	-10.006	0.100
450.600	-25.683	0.100
450.700	-23.619	0.100
450.800	-10.717	0.100
450.900	-25.919	0.100
451.000	-21.848	0.100
451.100	-26.343	0.100
451.200	-14.867	0.100
451.300	-16.701	0.100
451.400	-18.328	0.100
451.500	-29.383	0.100
451.600	-19.223	0.100
451.700	-18.739	0.100
451.800	-12.762	0.100
451.900	-17.327	0.100
452.000	-30.823	0.100
452.100	-30.549	0.100
452.200	-6.573	0.100
452.300	-15.232	0.100
452.400	-13.511	0.100
452.500	-18.272	0.100
452.600	-25.552	0.100
452.700	-17.148	0.100
452.800	-18.987	0.100
452.900	-14.188	0.100
453.000	-15.413	0.100
453.100	-28.206	0.100
453.200	-27.528	0.099
453.300	-26.771	0.100
453.400	-30.417	0.100
453.500	-5.274	0.100
453.600	-10.180	0.100
453.700	-36.299	0.100
453.800	-27.011	0.100
453.900	-29.210	0.100
454.000	-19.650	0.100
454.100	-20.784	0.100
454.200	-17.033	0.100
454.300	-27.187	0.100
454.400	-28.851	0.100
454.500	-24.273	0.100
454.600	-27.072	0.100
454.700	-21.198	0.100
454.800	-3.763	0.100
454.900	-13.259	0.100
455.000	-37.335	0.100
455.100	-15.686	0.100
455.200	-16.969	0.100
455.300	-11.996	0.100
455.400	-12.255	0.100
455.500	-14.576	0.100
455.600	-21.302	0.100
455.700	-40.024	0.100
455.800	-20.967	0.100
455.900	-24.278	0.100
456.000	-11.077	0.100
456.100	-16.427	0.100
456.200	-14.695	0.100
456.300	-22.802	0.100
456.400	-20.031	0.100
456.500	-24.316	0.100
456.600	-12.878	0.100
456.700	-20.896	0.100
456.800	-24.755	0.100
456.900	-18.745	0.100
457.000	-10.872	0.100
457.100	-16.850	0.100
457.200	-26.522	0.100
457.300	-19.388	0.100
457.400	-27.428	0.100
457.500	-24.261	0.100
457.600	-14.064	0.100
457.700	-24.291	0.100
457.800	-7.801	0.100
457.900	-15.355	0.100
458.000	-26.134	0.100
458.100	-21.356	0.100
458.200	-26.168	0.100
458.300	-13.295	0.100
458.400	-13.073	0.100
458.500	-28.310	0.100
458.600	-14.326	0.100
458.700	-7.415	0.100
458.800	-34.009	0.100
458.900	-14.477	0.100
459.000	-20.845	0.100
459.100	-26.767	0.100
459.200	-25.159	0.100
459.300	-22.445	0.100
459.400	-20.559	0.100
459.500	-21.795	0.100
459.600	-28.729	0.100
459.700	-14.897	0.100
459.800	-28.405	0.100
459.900	-28.107	0.100
460.000	-13.279	0.100
460.100	-32.417	0.100
460.200	-34.390	0.100
460.300	-28.896	0.100
460.400	-2.949	0.100
460.500	0.959	0.100
460.600	-40.111	0.100
460.700	-22.575	0.100
460.800	-13.412	0.100
460.900	-23.750	0.100
461.000	-14.117	0.100
461.100	-11.878	0.100
461.200	-25.559	0.099
461.300	-12.618	0.100
461.400	-22.323	0.100
461.500	-25.222	0.100
461.600	-22.393	0.100
461.700	-12.087	0.100
461.800	-7.649	0.100
461.900	-18.822	0.100
462.000	-21.025	0.100
462.100	-14.978	0.100
462.200	-20.639	0.100
462.300	-14.677	0.100
462.400	-16.325	0.100
462.500	-4.893	0.100
462.600	-22.020	0.100
462.700	-14.026	0.100
462.800	-18.135	0.100
462.900	-19.398	0.100
463.000	-25.332	0.100
463.100	-25.472	0.100
463.200	-24.835	0.100
463.300	-22.628	0.100
463.400	-10.740	0.100
463.500	-14.204	0.100
463.600	-21.552	0.100
463.700	-9.461	0.100
463.800	-12.901	0.100
463.900	-15.075	0.100
464.000	-12.336	0.100
464.100	-12.625	0.100
464.200	-28.030	0.100
464.300	-28.338	0.100
464.400	-7.285	0.100
464.500	-19.906	0.100
464.600	-14.441	0.100
464.700	-5.786	0.100
464.800	-17.578	0.100
464.900	-29.851	0.100
465.000	-24.290	0.100
465.100	-11.055	0.100
465.200	-13.161	0.100
465.300	-16.612	0.100
465.400	-32.229	0.100
465.500	-6.859	0.100
465.600	-31.047	0.100
465.700	-24.054	0.100
465.800	-21.906	0.100
465.900	-11.826	0.100
466.000	-9.572	0.100
466.100	-28.151	0.100
466.200	-1.286	0.100
466.300	-22.388	0.100
466.400	-40.555	0.100
466.500	-5.094	0.100
466.600	-8.279	0.100
466.700	-22.314	0.100
466.800	-10.550	0.100
466.900	-13.897	0.100
467.000	-9.027	0.100
467.100	-29.260	0.100
467.200	-17.063	0.100
467.300	-22.096	0.100
467.400	-10.050	0.100
467.500	-15.863	0.100
467.600	-13.120	0.100
467.700	-24.328	0.100
467.800	-0.473	0.100
467.900	-26.105	0.100
468.000	-15.247	0.100
468.100	-12.212	0.100
468.200	-18.804	0.100
468.300	-18.637	0.100
468.400	-23.315	0.100
468.500	-24.023	0.100
468.600	-19.667	0.100
468.700	-6.448	0.100
468.800	-20.255	0.100
468.900	-23.736	0.100
469.000	-14.179	0.100
469.100	-34.905	0.100
469.200	-8.321	0.100
469.300	-15.440	0.100
469.400	-29.344	0.100
469.500	-26.592	0.100
469.600	-26.533	0.100
469.700	-10.717	0.100
469.800	-10.109	0.100
469.900	-18.961	0.100
470.000	-16.404	0.100
470.100	-29.224	0.100
470.200	-13.783	0.100
470.300	-16.901	0.100
470.400	-15.198	0.100
470.500	-26.046	0.100
470.600	-11.776	0.100
470.700	-7.240	0.100
470.800	-23.221	0.100
470.900	-8.158	0.100
471.000	-17.888	0.100
471.100	-27.756	0.100
471.200	-20.470	0.100
471.300	-13.618	0.100
471.400	-10.449	0.100
471.500	-30.470	0.100
471.600	-10.282	0.100
471.700	-16.777	0.100
471.800	-9.181	0.100
471.900	-18.852	0.100
472.000	-20.252	0.100
472.100	-13.228	0.100
472.200	-5.689	0.100
472.300	-21.820	0.100
472.400	-10.301	0.100
472.500	-25.384	0.100
472.600	-9.207	0.100
472.700	-20.121	0.100
472.800	-5.308	0.100
472.900	-19.944	0.100
473.000	-26.858	0.100
473.100	-22.000	0.100
473.200	-19.990	0.100
473.300	-15.007	0.100
473.400	-12.532	0.100
473.500	-27.829	0.100
473.600	-20.517	0.100
473.700	-12.930	0.100
473.800	-10.947	0.100
473.900	-34.128	0.100
474.000	-6.225	0.100
474.100	-21.265	0.100
474.200	-15.457	0.100
474.300	-11.795	0.100
474.400	-24.767	0.100
474.500	1.437	0.100
474.600	-23.935	0.100
474.700	-23.950	0.100
474.800	-2.636	0.100
474.900	-11.770	0.100
475.000	-17.331	0.100
475.100	-20.238	0.100
475.200	-12.949	0.100
475.300	-24.699	0.100
475.400	-14.236	0.100
475.500	-14.214	0.100
475.600	-22.533	0.100
475.700	-15.378	0.100
475.800	-19.176	0.100
475.900	-20.168	0.100
476.000	-22.848	0.100
476.100	-30.774	0.100
476.200	-13.545	0.100
476.300	1.917	0.100
476.400	-18.558	0.100
476.500	-15.604	0.100
476.600	-16.368	0.100
476.700	-9.421	0.100
476.800	-5.676	0.100
476.900	-23.547	0.100
477.000	-8.061	0.100
477.100	-12.649	0.100
477.200	-18.677	0.100
477.300	-18.945	0.100
477.400	-18.894	0.100
477.500	-12.938	0.100
477.600	-36.471	0.100
477.700	-6.133	0.100
477.800	-19.240	0.100
477.900	-17.817	0.100
478.000	-18.967	0.100
478.100	-19.469	0.100
478.200	-19.663	0.100
478.300	-20.867	0.100
478.400	-27.889	0.100
478.500	-8.363	0.100
478.600	-14.956	0.100
478.700	-16.220	0.100
478.800	-11.903	0.100
478.900	-11.185	0.100
479.000	-12.746	0.100
479.100	-24.597	0.100
479.200	-4.831	0.100
479.300	-7.388	0.100
479.400	-16.422	0.100
479.500	-17.497	0.100
479.600	-28.123	0.100
479.700	-16.278	0.100
479.800	-30.489	0.100
479.900	-14.177	0.100
480.000	-39.968	0.100
480.100	-41.629	0.100
480.200	-14.536	0.100
480.300	-16.051	0.100
480.400	-2.957	0.100
480.500	11.587	0.100
480.600	6.232	0.100
480.700	12.401	0.100
480.800	20.366	0.100
480.900	2.030	0.100
481.000	33.461	0.100
481.100	31.824	0.100
481.200	25.029	0.100
481.300	25.325	0.100
481.400	31.956	0.100
481.500	35.333	0.100
481.600	41.507	0.100
481.700	36.266	0.100
481.800	37.866	0.100
481.900	39.032	0.100
482.000	42.214	0.100
482.100	32.077	0.100
482.200	42.821	0.100
482.300	35.842	0.100
482.400	39.263	0.100
482.500	30.561	0.100
482.600	30.132	0.100
482.700	38.418	0.100
482.800	41.983	0.100
482.900	21.423	0.100
483.000	48.136	0.100
483.100	44.434	0.100
483.200	25.325	0.100
483.300	29.417	0.100
483.400	49.432	0.100
483.500	33.663	0.100
483.600	22.442	0.100
483.700	9.219	0.100
483.800	40.304	0.100
483.900	27.440	0.100
484.000	20.125	0.100
484.100	30.960	0.100
484.200	29.804	0.100
484.300	8.787	0.100
484.400	19.653	0.100
484.500	15.872	0.100
484.600	23.470	0.100
484.700	20.501	0.100
484.800	35.203	0.099
484.900	11.228	0.100
485.000	15.434	0.100
485.100	27.690	0.100
485.200	31.381	0.100
485.300	27.051	0.100
485.400	27.378	0.100
485.500	25.074	0.100
485.600	20.242	0.100
485.700	25.778	0.100
485.800	17.915	0.100
485.900	35.674	0.100
486.000	26.335	0.100
486.100	26.170	0.100
486.200	19.604	0.100
486.300	26.779	0.100
486.400	17.379	0.100
486.500	27.535	0.100
486.600	33.269	0.100
486.700	28.163	0.100
486.800	22.995	0.100
486.900	32.365	0.100
487.000	28.289	0.100
487.100	29.109	0.100
487.200	44.217	0.100
487.300	34.289	0.100
487.400	35.148	0.100
487.500	18.201	0.100
487.600	23.195	0.100
487.700	27.075	0.100
487.800	34.144	0.100
487.900	20.895	0.100
488.000	43.760	0.100
488.100	28.372	0.100
488.200	28.592	0.100
488.300	32.997	0.100
488.400	31.532	0.100
488.500	38.209	0.100
488.600	24.192	0.100
488.700	31.600	0.099
488.800	29.357	0.100
488.900	36.293	0.100
489.000	39.087	0.100
489.100	51.928	0.100
489.200	38.944	0.100
489.300	33.711	0.100
489.400	23.247	0.100
489.500	35.232	0.100
489.600	34.934	0.100
489.700	34.914	0.100
489.800	43.002	0.100
489.900	40.859	0.100
490.000	36.246	0.100
490.100	50.106	0.100
490.200	37.909	0.100
490.300	39.798	0.100
490.400	46.558	0.100
490.500	49.192	0.100
490.600	46.842	0.100
490.700	55.469	0.100
490.800	43.522	0.100
490.900	34.972	0.100
491.000	43.270	0.100
491.100	46.157	0.100
491.200	45.701	0.100
491.300	45.608	0.100
491.400	48.561	0.100
491.500	58.655	0.100
491.600	43.112	0.100
491.700	53.874	0.100
491.800	54.865	0.100
491.900	53.251	0.100
492.000	56.365	0.100
492.100	32.381	0.100
492.200	51.116	0.100
492.300	50.677	0.100
492.400	45.204	0.100
492.500	52.551	0.100
492.600	55.867	0.100
492.700	67.823	0.100
492.800	57.501	0.100
492.900	58.029	0.100
493.000	58.002	0.100
493.100	54.466	0.100
493.200	49.036	0.100
493.300	50.907	0.100
493.400	45.951	0.100
493.500	49.925	0.100
493.600	45.506	0.100
493.700	58.280	0.100
493.800	56.870	0.100
493.900	59.195	0.100
494.000	48.706	0.100
494.100	58.074	0.100
494.200	57.197	0.100
494.300	65.874	0.100
494.400	52.988	0.100
494.500	54.792	0.100
494.600	52.496	0.100
494.700	68.756	0.100
494.800	70.405	0.100
494.900	59.253	0.100
495.000	41.480	0.100
495.100	68.347	0.100
495.200	57.789	0.100
495.300	65.795	0.100
495.400	54.743	0.100
495.500	50.752	0.100
495.600	67.244	0.100
495.700	60.995	0.100
495.800	60.840	0.100
495.900	61.085	0.100
496.000	65.889	0.100
496.100	63.704	0.100
496.200	69.070	0.100
496.300	43.794	0.100
496.400	64.844	0.100
496.500	65.594	0.100
496.600	63.035	0.100
496.700	57.437	0.100
496.800	64.324	0.100
496.900	64.683	0.100
497.000	62.986	0.100
497.100	56.282	0.100
497.200	62.701	0.100
497.300	53.255	0.100
497.400	57.906	0.100
497.500	63.164	0.100
497.600	46.580	0.100
497.700	69.812	0.100
497.800	56.480	0.100
497.900	67.042	0.100
498.000	83.321	0.100
498.100	66.053	0.100
498.200	66.068	0.100
498.300	62.585	0.100
498.400	63.780	0.100
498.500	62.102	0.100
498.600	65.479	0.100
498.700	52.520	0.100
498.800	68.471	0.100
498.900	58.037	0.100
499.000	71.285	0.100
499.100	59.680	0.100
499.200	58.552	0.100
499.300	65.884	0.100
499.400	76.627	0.100
499.500	48.753	0.100
499.600	59.174	0.100
499.700	63.394	0.100
499.800	65.716	0.100
499.900	69.288	0.100
500.000	78.429	0.100
500.100	71.502	0.100
500.200	55.693	0.100
500.300	79.197	0.100
500.400	75.556	0.100
500.500	69.566	0.100
500.600	70.559	0.100
500.700	75.583	0.100
500.800	75.510	0.100
500.900	76.193	0.100
501.000	57.708	0.100
501.100	69.581	0.100
501.200	54.032	0.100
501.300	68.247	0.100
501.400	59.501	0.100
501.500	77.147	0.100
501.600	54.066	0.100
501.700	78.749	0.100
501.800	79.744	0.100
501.900	61.454	0.100
502.000	78.734	0.100
502.100	70.670	0.100
502.200	81.266	0.100
502.300	78.438	0.100
502.400	58.291	0.100
502.500	67.716	0.100
502.600	72.968	0.100
502.700	80.242	0.100
502.800	79.069	0.100
502.900	60.797	0.100
503.000	75.366	0.100
503.100	75.734	0.100
503.200	68.415	0.100
503.300	69.843	0.100
503.400	61.316	0.100
503.500	69.067	0.100
503.600	85.966	0.100
503.700	80.719	0.100
503.800	66.692	0.100
503.900	78.477	0.100
504.000	63.476	0.100
504.100	78.786	0.100
504.200	76.362	0.100
504.300	69.243	0.100
504.400	62.820	0.100
504.500	76.628	0.100
504.600	67.039	0.100
504.700	63.875	0.100
504.800	72.724	0.100
504.900	74.688	0.100
505.000	77.779	0.100
505.100	79.150	0.100
505.200	85.911	0.100
505.300	80.030	0.100
505.400	72.675	0.100
505.500	77.419	0.100
505.600	68.754	0.100
505.700	77.468	0.100
505.800	76.136	0.100
505.900	95.429	0.100
506.000	79.967	0.100
506.100	71.841	0.100
506.200	85.594	0.100
506.300	93.552	0.100
506.400	65.299	0.100
506.500	80.490	0.100
506.600	65.233	0.100
506.700	78.091	0.100
506.800	76.129	0.100
506.900	84.004	0.100
507.000	84.468	0.100
507.100	85.140	0.100
507.200	71.537	0.100
507.300	70.616	0.100
507.400	81.667	0.100
507.500	88.756	0.100
507.600	78.671	0.100
507.700	95.398	0.100
507.800	72.189	0.100
507.900	71.938	0.100
508.000	78.870	0.100
508.100	65.610	0.100
508.200	70.766	0.100
508.300	78.663	0.100
508.400	92.470	0.100
508.500	84.759	0.100
508.600	73.319	0.100
508.700	79.019	0.100
508.800	86.024	0.100
508.900	90.147	0.100
509.000	90.526	0.100
509.100	81.735	0.100
509.200	77.010	0.100
509.300	81.105	0.100
509.400	81.642	0.100
509.500	85.215	0.100
509.600	78.084	0.100
509.700	72.181	0.100
509.800	86.772	0.100
509.900	86.562	0.100
510.000	78.745	0.100
510.100	76.440	0.100
510.200	59.041	0.100
510.300	82.648	0.100
510.400	85.969	0.100
510.500	78.432	0.100
510.600	82.650	0.100
510.700	91.287	0.100
510.800	86.929	0.100
510.900	83.943	0.100
511.000	71.787	0.100
511.100	73.756	0.100
511.200	72.917	0.100
511.300	75.642	0.100
511.400	68.989	0.100
511.500	91.219	0.100
511.600	91.756	0.100
511.700	75.393	0.100
511.800	76.556	0.100
511.900	81.688	0.100
512.000	82.507	0.100
512.100	70.877	0.100
512.200	68.532	0.100
512.300	78.902	0.100
512.400	75.169	0.100
512.500	83.212	0.100
512.600	85.270	0.100
512.700	78.205	0.100
512.800	83.614	0.100
512.900	85.661	0.100
513.000	79.369	0.100
513.100	81.433	0.100
513.200	90.369	0.100
513.300	85.936	0.100
513.400	97.331	0.100
513.500	75.500	0.100
513.600	79.061	0.100
513.700	78.504	0.100
513.800	79.878	0.100
513.900	83.516	0.100
514.000	78.235	0.100
514.100	76.262	0.100
514.200	75.258	0.100
514.300	79.261	0.100
514.400	73.935	0.100
514.500	74.372	0.100
514.600	80.298	0.100
514.700	69.351	0.100
514.800	79.664	0.100
514.900	62.871	0.100
515.000	77.134	0.100
515.100	87.568	0.100
515.200	77.119	0.100
515.300	53.148	0.100
515.400	78.984	0.100
515.500	82.735	0.100
515.600	68.915	0.100
515.700	83.516	0.100
515.800	80.618	0.100
515.900	77.779	0.100
516.000	62.973	0.100
516.100	72.834	0.099
516.200	83.331	0.100
516.300	77.647	0.100
516.400	86.198	0.100
516.500	76.266	0.100
516.600	74.643	0.100
516.700	79.585	0.100
516.800	72.772	0.100
516.900	75.462	0.100
517.000	68.945	0.100
517.100	84.384	0.100
517.200	69.636	0.100
517.300	74.055	0.100
517.400	77.836	0.100
517.500	85.190	0.100
517.600	74.785	0.100
517.700	79.633	0.100
517.800	73.061	0.100
517.900	78.574	0.100
518.000	80.196	0.100
518.100	83.143	0.100
518.200	68.845	0.100
518.300	73.439	0.100
518.400	77.435	0.100
518.500	74.181	0.100
518.600	63.221	0.100
518.700	72.771	0.100
518.800	71.982	0.100
518.900	87.022	0.100
519.000	84.908	0.100
519.100	66.129	0.100
519.200	70.240	0.100
519.300	62.738	0.100
519.400	82.987	0.100
519.500	75.657	0.100
519.600	72.334	0.100
519.700	60.434	0.100
519.800	80.993	0.100
519.900	66.411	0.100
520.000	70.694	0.100
520.100	78.548	0.100
520.200	79.803	0.100
520.300	64.097	0.100
520.400	67.611	0.100
520.500	66.890	0.100
520.600	65.249	0.100
520.700	78.746	0.100
520.800	73.147	0.100
520.900	69.077	0.100
521.000	65.166	0.100
521.100	79.162	0.100
521.200	66.497	0.100
521.300	91.435	0.100
521.400	70.967	0.100
521.500	63.028	0.100
521.600	70.445	0.100
521.700	50.105	0.100
521.800	77.056	0.100
521.900	64.941	0.100
522.000	81.304	0.100
522.100	59.680	0.100
522.200	75.783	0.100
522.300	62.930	0.100
522.400	76.246	0.100
522.500	69.742	0.100
522.600	75.285	0.100
522.700	68.432	0.100
522.800	78.982	0.100
522.900	66.145	0.100
523.000	66.948	0.100
523.100	76.639	0.099
523.200	62.099	0.100
523.300	48.053	0.100
523.400	67.479	0.100
523.500	58.116	0.099
523.600	67.791	0.100
523.700	68.056	0.100
523.800	68.993	0.100
523.900	68.523	0.100
524.000	71.051	0.100
524.100	75.745	0.100
524.200	72.288	0.100
524.300	63.244	0.100
524.400	60.478	0.100
524.500	82.773	0.100
524.600	54.666	0.100
524.700	63.950	0.100
524.800	66.930	0.100
524.900	61.112	0.100
525.000	79.112	0.100
525.100	63.035	0.099
525.200	66.113	0.100
525.300	58.096	0.100
525.400	74.303	0.100
525.500	60.350	0.100
525.600	70.316	0.100
525.700	64.456	0.100
525.800	72.360	0.100
525.900	63.999	0.100
526.000	56.037	0.100
526.100	71.591	0.100
526.200	69.737	0.100
526.300	82.433	0.100
526.400	59.214	0.100
526.500	62.832	0.100
526.600	72.142	0.100
526.700	76.315	0.100
526.800	53.383	0.100
526.900	51.176	0.100
527.000	66.271	0.100
527.100	77.326	0.100
527.200	64.079	0.100
527.300	55.449	0.100
527.400	62.317	0.100
527.500	68.754	0.100
527.600	62.051	0.100
527.700	60.049	0.100
527.800	65.283	0.100
527.900	73.767	0.100
528.000	69.266	0.100
528.100	76.116	0.100
528.200	67.745	0.100
528.300	61.759	0.100
528.400	69.590	0.100
528.500	37.456	0.100
528.600	59.592	0.100
528.700	68.589	0.100
528.800	64.702	0.100
528.900	69.200	0.100
529.000	82.831	0.100
529.100	63.462	0.100
529.200	80.089	0.100
529.300	62.315	0.100
529.400	62.597	0.100
529.500	65.274	0.100
529.600	68.504	0.100
529.700	66.302	0.099
529.800	73.723	0.100
529.900	58.922	0.100
530.000	63.181	0.100
530.100	68.437	0.100
530.200	62.774	0.100
530.300	60.879	0.100
530.400	64.916	0.100
530.500	73.686	0.100
530.600	49.200	0.100
530.700	70.582	0.100
530.800	49.180	0.100
530.900	80.711	0.100
531.000	65.891	0.100
531.100	60.198	0.100
531.200	64.412	0.100
531.300	63.186	0.100
531.400	68.953	0.100
531.500	60.151	0.100
531.600	63.476	0.100
531.700	70.089	0.100
531.800	61.702	0.100
531.900	59.839	0.100
532.000	61.064	0.100
532.100	52.274	0.100
532.200	66.289	0.100
532.300	76.032	0.100
532.400	65.061	0.100
532.500	72.907	0.100
532.600	68.185	0.100
532.700	54.389	0.100
532.800	70.911	0.100
532.900	67.753	0.100
533.000	58.126	0.100
533.100	68.192	0.100
533.200	64.257	0.100
533.300	67.476	0.100
533.400	62.984	0.100
533.500	68.519	0.100
533.600	67.255	0.100
533.700	69.564	0.100
533.800	65.962	0.100
533.900	65.129	0.100
534.000	56.913	0.100
534.100	66.180	0.100
534.200	69.964	0.100
534.300	67.845	0.100
534.400	62.156	0.100
534.500	69.846	0.100
534.600	75.605	0.100
534.700	69.149	0.100
534.800	58.156	0.100
534.900	60.710	0.100
535.000	60.157	0.100
535.100	82.476	0.100
535.200	71.374	0.100
535.300	61.607	0.100
535.400	68.330	0.100
535.500	66.065	0.100
535.600	55.047	0.100
535.700	53.912	0.100
535.800	61.541	0.100
535.900	66.225	0.100
536.000	63.221	0.100
536.100	66.265	0.100
536.200	67.411	0.100
536.300	66.854	0.100
536.400	63.126	0.100
536.500	66.175	0.100
536.600	80.202	0.100
536.700	66.286	0.100
536.800	71.190	0.100
536.900	74.129	0.100
537.000	64.436	0.099
537.100	55.827	0.100
537.200	78.483	0.100
537.300	60.986	0.100
537.400	59.249	0.100
537.500	51.326	0.100
537.600	84.766	0.100
537.700	56.667	0.100
537.800	69.141	0.100
537.900	76.499	0.100
538.000	76.309	0.100
538.100	70.764	0.100
538.200	59.082	0.100
538.300	69.732	0.100
538.400	43.933	0.100
538.500	73.523	0.100
538.600	77.723	0.100
538.700	76.071	0.100
538.800	72.222	0.100
538.900	46.023	0.100
539.000	67.888	0.100
539.100	63.161	0.100
539.200	73.851	0.100
539.300	68.244	0.100
539.400	51.986	0.100
539.500	83.925	0.100
539.600	73.884	0.100
539.700	77.488	0.100
539.800	64.644	0.100
539.900	84.282	0.100
540.000	60.369	0.100
540.100	83.968	0.100
540.200	70.544	0.100
540.300	56.832	0.100
540.400	31.562	0.100
540.500	29.102	0.100
540.600	20.900	0.100
540.700	4.301	0.100
540.800	-13.718	0.100
540.900	-21.320	0.100
541.000	-20.767	0.100
541.100	-55.599	0.100
541.200	-61.894	0.100
541.300	-52.231	0.100
541.400	-66.779	0.100
541.500	-90.787	0.100
541.600	-79.547	0.100
541.700	-82.626	0.100
541.800	-103.360	0.100
541.900	-113.261	0.100
542.000	-94.153	0.100
542.100	-99.639	0.100
542.200	-112.594	0.100
542.300	-115.337	0.100
542.400	-110.705	0.100
542.500	-110.990	0.100
542.600	-117.617	0.100
542.700	-111.655	0.100
542.800	-122.360	0.100
542.900	-112.195	0.100
543.000	-115.974	0.100
543.100	-110.430	0.100
543.200	-115.997	0.100
543.300	-114.918	0.100
543.400	-109.312	0.100
543.500	-126.255	0.100
543.600	-103.226	0.100
543.700	-121.324	0.100
543.800	-119.430	0.100
543.900	-101.764	0.100
544.000	-110.384	0.100
544.100	-125.716	0.100
544.200	-109.462	0.100
544.300	-105.476	0.100
544.400	-110.415	0.100
544.500	-91.187	0.100
544.600	-119.798	0.099
544.700	-98.280	0.100
544.800	-93.660	0.100
544.900	-96.045	0.100
545.000	-102.098	0.100
545.100	-99.538	0.100
545.200	-97.865	0.100
545.300	-92.539	0.100
545.400	-108.998	0.099
545.500	-83.456	0.100
545.600	-82.991	0.100
545.700	-84.393	0.100
545.800	-74.314	0.100
545.900	-90.072	0.100
546.000	-80.838	0.100
546.100	-77.351	0.100
546.200	-79.441	0.100
546.300	-77.005	0.100
546.400	-78.460	0.100
546.500	-83.942	0.100
546.600	-79.822	0.100
546.700	-72.298	0.100
546.800	-67.042	0.100
546.900	-74.884	0.100
547.000	-73.716	0.100
547.100	-70.508	0.100
547.200	-65.530	0.100
547.300	-74.611	0.100
547.400	-68.947	0.100
547.500	-63.494	0.100
547.600	-66.828	0.100
547.700	-65.303	0.100
547.800	-77.642	0.100
547.900	-54.562	0.100
548.000	-70.233	0.100
548.100	-49.891	0.100
548.200	-64.692	0.100
548.300	-62.775	0.100
548.400	-64.764	0.100
548.500	-50.337	0.100
548.600	-54.417	0.099
548.700	-48.569	0.099
548.800	-52.217	0.100
548.900	-60.679	0.100
549.000	-51.803	0.100
549.100	-43.999	0.099
549.200	-63.627	0.100
549.300	-42.943	0.100
549.400	-55.649	0.100
549.500	-54.557	0.100
549.600	-47.418	0.099
549.700	-60.256	0.100
549.800	-45.243	0.100
549.900	-47.888	0.100
550.000	-51.849	0.100
550.100	-48.286	0.100
550.200	-53.988	0.100
550.300	-50.324	0.100
550.400	-36.264	0.100
550.500	-48.694	0.100
550.600	-38.348	0.100
550.700	-40.574	0.100
550.800	-44.785	0.100
550.900	-52.184	0.100
551.000	-35.867	0.100
551.100	-52.306	0.100
551.200	-46.834	0.100
551.300	-43.913	0.100
551.400	-43.506	0.100
551.500	-41.873	0.100
551.600	-40.719	0.100
551.700	-47.671	0.100
551.800	-56.060	0.100
551.900	-37.311	0.100
552.000	-38.887	0.100
552.100	-47.767	0.100
552.200	-45.278	0.100
552.300	-44.913	0.100
552.400	-28.910	0.100
552.500	-44.198	0.100
552.600	-47.944	0.100
552.700	-34.728	0.100
552.800	-46.354	0.100
552.900	-36.489	0.100
553.000	-34.934	0.100
553.100	-48.267	0.100
553.200	-48.583	0.100
553.300	-16.816	0.100
553.400	-36.982	0.099
553.500	-42.246	0.100
553.600	-54.766	0.100
553.700	-34.388	0.100
553.800	-41.423	0.100
553.900	-39.757	0.100
554.000	-42.906	0.100
554.100	-35.808	0.100
554.200	-27.416	0.100
554.300	-41.080	0.100
554.400	-32.669	0.100
554.500	-41.548	0.100
554.600	-49.251	0.100
554.700	-39.497	0.100
554.800	-32.353	0.100
554.900	-57.794	0.100
555.000	-33.820	0.100
555.100	-43.754	0.100
555.200	-43.297	0.100
555.300	-43.345	0.100
555.400	-43.745	0.099
555.500	-33.299	0.100
555.600	-24.987	0.100
555.700	-46.416	0.100
555.800	-38.311	0.100
555.900	-33.170	0.100
556.000	-26.347	0.100
556.100	-45.812	0.100
556.200	-29.962	0.100
556.300	-41.817	0.100
556.400	-36.414	0.100
556.500	-40.033	0.100
556.600	-38.029	0.100
556.700	-36.674	0.100
556.800	-32.774	0.100
556.900	-42.737	0.100
557.000	-39.976	0.100
557.100	-44.352	0.100
557.200	-31.805	0.100
557.300	-31.166	0.100
557.400	-26.479	0.100
557.500	-36.714	0.100
557.600	-38.747	0.100
557.700	-47.398	0.100
557.800	-34.261	0.100
557.900	-19.587	0.100
558.000	-36.693	0.100
558.100	-39.915	0.100
558.200	-35.977	0.100
558.300	-52.307	0.100
558.400	-24.348	0.100
558.500	-42.764	0.100
558.600	-41.685	0.100
558.700	-34.920	0.100
558.800	-43.868	0.100
558.900	-24.889	0.100
559.000	-31.464	0.100
559.100	-33.292	0.100
559.200	-36.981	0.100
559.300	-18.458	0.100
559.400	-48.944	0.100
559.500	-32.550	0.100
559.600	-45.714	0.100
559.700	-35.785	0.099
559.800	-17.890	0.100
559.900	-25.730	0.100
560.000	-27.726	0.100
560.100	-30.911	0.100
560.200	-38.839	0.100
560.300	-26.719	0.100
560.400	-27.852	0.100
560.500	-23.040	0.100
560.600	-40.200	0.100
560.700	-35.590	0.100
560.800	-29.607	0.100
560.900	-40.758	0.100
561.000	-30.384	0.100
561.100	-33.714	0.100
561.200	-37.204	0.100
561.300	-40.908	0.100
561.400	-34.039	0.100
561.500	-26.941	0.100
561.600	-39.617	0.100
561.700	-12.801	0.100
561.800	-30.663	0.100
561.900	-27.364	0.100
562.000	-34.160	0.099
562.100	-32.161	0.100
562.200	-42.697	0.100
562.300	-34.596	0.099
562.400	-37.093	0.100
562.500	-29.821	0.100
562.600	-24.131	0.100
562.700	-46.145	0.100
562.800	-28.135	0.100
562.900	-46.109	0.100
563.000	-31.368	0.100
563.100	-41.583	0.100
563.200	-18.144	0.100
563.300	-34.323	0.100
563.400	-37.166	0.099
563.500	-20.484	0.100
563.600	-35.458	0.099
563.700	-28.329	0.100
563.800	-40.443	0.100
563.900	-30.183	0.100
564.000	-20.526	0.100
564.100	-40.289	0.100
564.200	-28.767	0.100
564.300	-27.898	0.100
564.400	-11.231	0.100
564.500	-25.521	0.100
564.600	-26.498	0.100
564.700	-31.820	0.100
564.800	-24.563	0.100
564.900	-27.616	0.100
565.000	-33.541	0.100
565.100	-36.582	0.100
565.200	-23.644	0.100
565.300	-38.967	0.100
565.400	-52.190	0.100
565.500	-29.721	0.100
565.600	-25.869	0.100
565.700	-40.739	0.100
565.800	-21.009	0.099
565.900	-23.393	0.100
566.000	-24.974	0.100
566.100	-29.261	0.100
566.200	-31.837	0.100
566.300	-41.319	0.100
566.400	-23.972	0.100
566.500	-39.055	0.100
566.600	-22.766	0.100
566.700	-14.921	0.100
566.800	-27.834	0.100
566.900	-29.534	0.100
567.000	-24.845	0.100
567.100	-31.406	0.100
567.200	-28.711	0.100
567.300	-33.551	0.100
567.400	-17.623	0.100
567.500	-34.810	0.100
567.600	-39.720	0.100
567.700	-32.144	0.100
567.800	-34.832	0.100
567.900	-22.485	0.100
568.000	-42.712	0.100
568.100	-21.419	0.100
568.200	-36.520	0.100
568.300	-31.069	0.100
568.400	-23.558	0.100
568.500	-28.281	0.100
568.600	-19.365	0.100
568.700	-37.598	0.100
568.800	-21.606	0.100
568.900	-25.007	0.100
569.000	-27.578	0.100
569.100	-24.086	0.100
569.200	-24.526	0.100
569.300	-29.229	0.100
569.400	-46.082	0.100
569.500	-37.597	0.100
569.600	-16.004	0.100
569.700	-20.262	0.100
569.800	-24.513	0.100
569.900	-28.739	0.100
570.000	-46.508	0.100
570.100	-25.480	0.100
570.200	-17.367	0.100
570.300	-20.596	0.100
570.400	-30.775	0.100
570.500	-35.993	0.100
570.600	-24.266	0.100
570.700	-31.453	0.100
570.800	-21.011	0.100
570.900	-33.590	0.100
571.000	-23.408	0.100
571.100	-21.801	0.100
571.200	-24.940	0.100
571.300	-25.069	0.100
571.400	-29.209	0.100
571.500	-25.642	0.100
571.600	-29.007	0.100
571.700	-23.309	0.100
571.800	-22.511	0.100
571.900	-32.509	0.100
572.000	-19.373	0.100
572.100	-22.452	0.100
572.200	-24.373	0.100
572.300	-34.794	0.100
572.400	-33.859	0.100
572.500	-30.420	0.100
572.600	-25.323	0.100
572.700	-14.787	0.100
572.800	-22.985	0.100
572.900	-24.029	0.100
573.000	-20.686	0.100
573.100	-29.574	0.100
573.200	-34.040	0.100
573.300	-27.810	0.100
573.400	-22.513	0.100
573.500	-16.316	0.100
573.600	-26.213	0.100
573.700	-29.317	0.100
573.800	-28.554	0.100
573.900	-33.192	0.100
574.000	-21.233	0.100
574.100	-20.658	0.100
574.200	-27.392	0.100
574.300	-17.993	0.100
574.400	-35.087	0.100
574.500	-34.519	0.100
574.600	-24.774	0.100
574.700	-19.980	0.100
574.800	-25.767	0.100
574.900	-15.445	0.100
575.000	-25.596	0.100
575.100	-25.864	0.100
575.200	-25.428	0.100
575.300	-23.840	0.100
575.400	-25.080	0.100
575.500	-22.261	0.100
575.600	-31.129	0.100
575.700	-28.047	0.100
575.800	-18.575	0.100
575.900	-20.919	0.100
576.000	-34.735	0.100
576.100	-27.830	0.100
576.200	-24.497	0.100
576.300	-28.043	0.100
576.400	-10.388	0.100
576.500	-16.537	0.100
576.600	-37.090	0.100
576.700	-21.374	0.100
576.800	-24.641	0.100
576.900	-16.633	0.100
577.000	-25.715	0.100
577.100	-19.083	0.100
577.200	-22.399	0.100
577.300	-22.816	0.100
577.400	-28.196	0.100
577.500	-26.627	0.100
577.600	-21.660	0.100
577.700	-31.245	0.100
577.800	-40.907	0.100
577.900	-20.167	0.100
578.000	-15.324	0.100
578.100	-26.153	0.100
578.200	-21.522	0.100
578.300	-29.499	0.100
578.400	-25.866	0.100
578.500	-28.574	0.100
578.600	-22.676	0.100
578.700	-25.942	0.100
578.800	-37.970	0.100
578.900	-19.653	0.100
579.000	-29.214	0.100
579.100	-32.894	0.100
579.200	-29.503	0.100
579.300	-26.406	0.100
579.400	-36.269	0.100
579.500	-31.813	0.100
579.600	-44.749	0.100
579.700	-7.094	0.100
579.800	-21.876	0.100
579.900	-23.228	0.100
580.000	-19.956	0.100
580.100	-37.476	0.100
580.200	-25.109	0.100
580.300	-23.353	0.100
580.400	-13.293	0.100
580.500	-24.651	0.100
580.600	-19.580	0.100
580.700	-13.181	0.100
580.800	-29.123	0.100
580.900	-31.518	0.100
581.000	-21.514	0.100
581.100	-26.853	0.100
581.200	-37.442	0.100
581.300	-39.060	0.100
581.400	-21.258	0.100
581.500	-24.681	0.100
581.600	-29.906	0.100
581.700	-38.009	0.100
581.800	-28.166	0.100
581.900	-19.627	0.100
582.000	-22.683	0.100
582.100	-28.077	0.100
582.200	-11.586	0.100
582.300	-29.109	0.100
582.400	-17.754	0.100
582.500	-28.496	0.100
582.600	-12.458	0.100
582.700	-27.021	0.100
582.800	-20.391	0.100
582.900	-21.344	0.100
583.000	-37.888	0.100
583.100	-23.841	0.100
583.200	-19.487	0.100
583.300	-31.582	0.100
583.400	-25.607	0.100
583.500	-20.141	0.100
583.600	-24.816	0.100
583.700	-37.720	0.100
583.800	-18.056	0.100
583.900	-14.853	0.100
584.000	-22.423	0.100
584.100	-35.689	0.099
584.200	-32.387	0.100
584.300	-27.898	0.100
584.400	-20.272	0.100
584.500	-26.550	0.100
584.600	-16.495	0.100
584.700	-32.226	0.100
584.800	-32.877	0.100
584.900	-14.886	0.100
585.000	-31.938	0.100
585.100	-24.078	0.100
585.200	-19.862	0.100
585.300	-30.197	0.100
585.400	-19.261	0.100
585.500	-37.185	0.100
585.600	-18.872	0.100
585.700	-17.579	0.100
585.800	-23.173	0.100
585.900	-20.243	0.100
586.000	-18.367	0.100
586.100	-23.378	0.100
586.200	-28.021	0.100
586.300	-27.205	0.100
586.400	-22.466	0.100
586.500	-41.925	0.100
586.600	-32.551	0.100
586.700	-17.322	0.100
586.800	-14.692	0.100
586.900	-25.209	0.100
587.000	-32.218	0.100
587.100	-15.494	0.100
587.200	-30.453	0.100
587.300	-37.566	0.100
587.400	-28.743	0.100
587.500	-20.962	0.100
587.600	-13.994	0.100
587.700	-27.017	0.100
587.800	-21.737	0.100
587.900	-22.849	0.100
588.000	-33.038	0.100
588.100	-22.432	0.100
588.200	-23.901	0.100
588.300	-41.267	0.100
588.400	-31.535	0.100
588.500	-26.374	0.100
588.600	-13.849	0.100
588.700	-32.011	0.100
588.800	-24.783	0.100
588.900	-21.966	0.100
589.000	-27.323	0.100
589.100	-27.837	0.100
589.200	-22.930	0.100
589.300	-12.614	0.100
589.400	-18.302	0.100
589.500	-37.720	0.100
589.600	-27.892	0.100
589.700	-17.182	0.100
589.800	-21.894	0.100
589.900	-29.480	0.100
590.000	-25.873	0.100
590.100	-29.929	0.100
590.200	-8.134	0.100
590.300	-38.895	0.100
590.400	-31.302	0.100
590.500	-24.361	0.100
590.600	-11.940	0.100
590.700	-27.592	0.100
590.800	-32.101	0.100
590.900	-24.184	0.100
591.000	-27.959	0.100
591.100	-27.761	0.100
591.200	-15.884	0.100
591.300	-17.271	0.100
591.400	-31.558	0.100
591.500	-8.868	0.100
591.600	-14.363	0.100
591.700	-33.543	0.100
591.800	-24.989	0.100
591.900	-29.178	0.100
592.000	-37.880	0.100
592.100	-17.468	0.100
592.200	-18.868	0.100
592.300	-23.815	0.100
592.400	-22.401	0.100
592.500	-21.412	0.100
592.600	-16.819	0.100
592.700	-27.879	0.100
592.800	-21.984	0.100
592.900	-8.869	0.100
593.000	-33.372	0.100
593.100	-13.791	0.100
593.200	-37.947	0.100
593.300	-21.763	0.100
593.400	-8.800	0.100
593.500	-46.879	0.100
593.600	-15.355	0.100
593.700	-23.719	0.100
593.800	-19.667	0.100
593.900	-27.027	0.100
594.000	-19.279	0.100
594.100	-39.526	0.100
594.200	-28.408	0.100
594.300	-19.354	0.100
594.400	-11.127	0.100
594.500	-26.331	0.100
594.600	-23.008	0.100
594.700	-26.445	0.100
594.800	-29.987	0.100
594.900	-16.470	0.100
595.000	-32.004	0.100
595.100	-31.053	0.100
595.200	-15.491	0.100
595.300	-28.203	0.100
595.400	-24.472	0.100
595.500	-16.208	0.100
595.600	-25.166	0.100
595.700	-25.041	0.100
595.800	-19.798	0.100
595.900	-32.558	0.100
596.000	-14.984	0.100
596.100	-8.368	0.100
596.200	-32.898	0.100
596.300	-34.868	0.100
596.400	-18.832	0.100
596.500	-25.021	0.100
596.600	-14.874	0.100
596.700	-28.572	0.100
596.800	-21.391	0.100
596.900	-15.338	0.100
597.000	-13.916	0.100
597.100	-25.632	0.100
597.200	-20.755	0.100
597.300	-26.544	0.100
597.400	-15.229	0.100
597.500	-21.121	0.100
597.600	-14.673	0.100
597.700	-25.637	0.100
597.800	-27.040	0.100
597.900	-18.110	0.100
598.000	-27.527	0.100
598.100	-23.508	0.100
598.200	-17.615	0.100
598.300	-22.393	0.100
598.400	-30.780	0.100
598.500	-41.387	0.100
598.600	-24.962	0.100
598.700	-31.410	0.100
598.800	-35.804	0.100
598.900	-24.962	0.100
599.000	-20.462	0.100
599.100	-21.741	0.100
599.200	-19.481	0.100
599.300	-34.669	0.100
599.400	-13.296	0.100
599.500	-17.688	0.100
599.600	-35.884	0.100
599.700	-26.527	0.100
599.800	-16.421	0.100
599.900	-1.832	0.100
600.000	-33.777	0.100
600.100	-20.164	0.100
600.200	-16.219	0.100
600.300	-32.290	0.100
600.400	-20.554	0.100
600.500	-18.514	0.100
600.600	-38.771	0.100
600.700	-26.315	0.100
600.800	-9.600	0.100
600.900	-30.020	0.100
601.000	-13.438	0.100
601.100	-33.442	0.100
601.200	-20.971	0.100
601.300	-25.098	0.100
601.400	-23.395	0.100
601.500	-10.386	0.100
601.600	-24.206	0.100
601.700	-25.895	0.100
601.800	-25.500	0.100
601.900	-23.557	0.100
602.000	-24.996	0.100
602.100	-11.293	0.100
602.200	-23.436	0.100
602.300	-32.926	0.100
602.400	-22.415	0.100
602.500	-34.482	0.100
602.600	-24.415	0.100
602.700	-17.106	0.100
602.800	-17.147	0.100
602.900	-23.717	0.100
603.000	-12.981	0.100
603.100	-25.114	0.100
603.200	-10.082	0.100
603.300	-31.805	0.100
603.400	-26.811	0.100
603.500	-24.057	0.100
603.600	-14.764	0.100
603.700	-25.734	0.100
603.800	-16.640	0.100
603.900	-21.065	0.100
604.000	-20.155	0.100
604.100	-26.369	0.100
604.200	-12.494	0.100
604.300	-17.668	0.100
604.400	-42.191	0.100
604.500	-27.025	0.100
604.600	-24.922	0.100
604.700	-17.420	0.100
604.800	-21.412	0.100
604.900	-27.727	0.100
605.000	-4.366	0.100
605.100	-30.771	0.100
605.200	-30.312	0.100
605.300	-16.210	0.100
605.400	-15.477	0.100
605.500	-23.171	0.100
605.600	-16.940	0.100
605.700	-34.561	0.100
605.800	-22.057	0.100
605.900	-27.634	0.100
606.000	-26.733	0.100
606.100	-19.755	0.100
606.200	-13.114	0.100
606.300	-9.283	0.100
606.400	-22.550	0.100
606.500	-24.076	0.100
606.600	-19.998	0.100
606.700	-18.877	0.100
606.800	-21.551	0.100
606.900	-17.903	0.100
607.000	-33.299	0.100
607.100	-29.429	0.100
607.200	-32.929	0.100
607.300	-27.551	0.100
607.400	-13.407	0.100
607.500	-19.259	0.100
607.600	-15.868	0.100
607.700	-25.837	0.100
607.800	-12.905	0.100
607.900	-24.235	0.100
608.000	-21.579	0.100
608.100	-21.255	0.100
608.200	-17.841	0.100
608.300	-19.593	0.100
608.400	-12.151	0.100
608.500	-19.647	0.100
608.600	-23.144	0.100
608.700	-25.001	0.100
608.800	-21.018	0.100
608.900	-24.448	0.100
609.000	-26.665	0.100
609.100	-26.446	0.100
609.200	3.749	0.100
609.300	-29.623	0.100
609.400	-34.354	0.100
609.500	-9.078	0.100
609.600	-14.269	0.100
609.700	-22.537	0.100
609.800	-27.725	0.100
609.900	-13.879	0.100
610.000	-18.429	0.100
610.100	-34.789	0.100
610.200	-28.793	0.100
610.300	-17.066	0.100
610.400	-19.440	0.100
610.500	-27.430	0.100
610.600	-15.878	0.100
610.700	-15.223	0.100
610.800	-35.306	0.100
610.900	-31.846	0.100
611.000	-23.290	0.100
611.100	-27.127	0.100
611.200	-13.117	0.100
611.300	-20.999	0.100
611.400	-16.644	0.100
611.500	-26.485	0.100
611.600	-24.006	0.100
611.700	-18.150	0.100
611.800	-21.566	0.100
611.900	-17.284	0.100
612.000	-20.945	0.100
612.100	-27.421	0.100
612.200	-9.670	0.100
612.300	-14.618	0.100
612.400	-14.754	0.100
612.500	-34.291	0.100
612.600	-1.811	0.100
612.700	-26.143	0.100
612.800	-14.526	0.100
612.900	-30.791	0.100
613.000	-31.532	0.100
613.100	-26.871	0.100
613.200	-14.137	0.100
613.300	-13.030	0.100
613.400	-20.527	0.100
613.500	-16.869	0.100
613.600	-23.237	0.100
613.700	-26.008	0.100
613.800	-22.871	0.100
613.900	-28.676	0.100
614.000	-20.615	0.100
614.100	-16.677	0.100
614.200	-26.221	0.100
614.300	-8.958	0.100
614.400	-21.341	0.100
614.500	-21.999	0.100
614.600	-19.865	0.100
614.700	-19.492	0.100
614.800	-19.850	0.100
614.900	-21.647	0.100
615.000	-27.398	0.100
615.100	-23.104	0.100
615.200	-19.599	0.100
615.300	-30.391	0.100
615.400	-24.007	0.100
615.500	-11.923	0.100
615.600	-18.884	0.100
615.700	-18.645	0.100
615.800	-13.737	0.100
615.900	-19.328	0.100
616.000	-20.575	0.100
616.100	-24.537	0.100
616.200	-15.553	0.100
616.300	-25.583	0.100
616.400	-18.290	0.100
616.500	-18.222	0.100
616.600	-26.534	0.100
616.700	-12.415	0.100
616.800	-26.614	0.100
616.900	-18.113	0.100
617.000	-21.658	0.100
617.100	-14.645	0.100
617.200	-23.958	0.100
617.300	-21.731	0.100
617.400	-18.443	0.100
617.500	-15.999	0.100
617.600	-29.196	0.100
617.700	-20.641	0.100
617.800	-23.877	0.100
617.900	-13.473	0.100
618.000	-25.599	0.100
618.100	-9.869	0.100
618.200	-21.005	0.100
618.300	-19.361	0.100
618.400	-26.523	0.100
618.500	-18.818	0.100
618.600	-9.629	0.100
618.700	-12.149	0.100
618.800	-20.432	0.100
618.900	-20.430	0.100
619.000	-25.619	0.100
619.100	-5.142	0.099
619.200	-22.461	0.100
619.300	-19.306	0.100
619.400	-28.610	0.100
619.500	-10.968	0.100
619.600	-36.076	0.100
619.700	-7.708	0.100
619.800	-32.391	0.100
619.900	-19.806	0.100
620.000	-20.194	0.100
620.100	-21.321	0.100
620.200	-8.810	0.100
620.300	-14.736	0.100
620.400	-25.767	0.100
620.500	-4.880	0.100
620.600	-19.144	0.100
620.700	-19.577	0.100
620.800	-34.603	0.099
620.900	-29.954	0.100
621.000	-14.132	0.100
621.100	-23.838	0.100
621.200	-18.283	0.100
621.300	-26.720	0.100
621.400	-17.213	0.100
621.500	-18.291	0.100
621.600	-23.280	0.100
621.700	-34.268	0.100
621.800	-24.737	0.100
621.900	-26.363	0.100
622.000	-12.310	0.100
622.100	-19.014	0.100
622.200	-33.250	0.100
622.300	-23.171	0.100
622.400	-9.860	0.100
622.500	-23.037	0.100
622.600	-13.313	0.100
622.700	-6.374	0.100
622.800	-20.487	0.100
622.900	-19.765	0.100
623.000	-39.195	0.099
623.100	-31.890	0.099
623.200	-7.799	0.100
623.300	-11.628	0.099
623.400	-23.718	0.099
623.500	-18.531	0.100
623.600	-22.632	0.100
623.700	-22.640	0.100
623.800	-27.590	0.100
623.900	-18.232	0.100
624.000	-18.604	0.099
624.100	-14.759	0.100
624.200	-23.108	0.100
624.300	-23.790	0.100
624.400	-18.495	0.100
624.500	-18.739	0.100
624.600	-24.068	0.100
624.700	-19.850	0.100
624.800	-36.060	0.099
624.900	-11.256	0.100
625.000	-14.430	0.099
625.100	-21.507	0.100
625.200	0.233	0.100
625.300	-10.760	0.100
625.400	-10.255	0.100
625.500	-21.618	0.100
625.600	-20.244	0.100
625.700	-18.481	0.100
625.800	-24.597	0.100
625.900	-13.658	0.100
626.000	-13.334	0.100
626.100	-19.105	0.100
626.200	-18.743	0.100
626.300	-24.357	0.100
626.400	-17.109	0.100
626.500	-18.000	0.100
626.600	-23.596	0.100
626.700	-21.711	0.100
626.800	-15.036	0.100
626.900	-16.783	0.100
627.000	-30.934	0.100
627.100	-18.466	0.100
627.200	-12.449	0.100
627.300	-13.245	0.100
627.400	-16.116	0.100
627.500	-25.775	0.100
627.600	-22.732	0.100
627.700	-5.696	0.100
627.800	-21.871	0.100
627.900	-26.744	0.100
628.000	-15.638	0.100
628.100	-12.198	0.100
628.200	-30.657	0.100
628.300	-13.111	0.100
628.400	-23.528	0.100
628.500	-20.797	0.100
628.600	-18.341	0.100
628.700	-17.918	0.100
628.800	-37.717	0.100
628.900	-14.011	0.100
629.000	-3.591	0.100
629.100	-40.188	0.100
629.200	-34.636	0.100
629.300	-30.085	0.100
629.400	-16.144	0.100
629.500	-12.349	0.100
629.600	-20.519	0.100
629.700	-31.865	0.100
629.800	-27.254	0.100
629.900	-16.712	0.100
630.000	1.060	0.100
630.100	-32.511	0.100
630.200	-20.749	0.100
630.300	-11.148	0.100
630.400	-5.976	0.100
630.500	-7.380	0.100
630.600	-2.371	0.100
630.700	-2.060	0.100
630.800	7.457	0.100
630.900	24.023	0.100
631.000	30.818	0.100
631.100	26.727	0.100
631.200	35.149	0.100
631.300	44.410	0.100
631.400	37.669	0.100
631.500	41.324	0.100
631.600	42.978	0.100
631.700	54.923	0.100
631.800	37.292	0.100
631.900	45.778	0.100
632.000	48.511	0.100
632.100	41.455	0.100
632.200	43.220	0.100
632.300	50.768	0.100
632.400	39.930	0.100
632.500	58.216	0.100
632.600	47.649	0.100
632.700	43.680	0.100
632.800	60.892	0.100
632.900	40.746	0.100
633.000	30.960	0.100
633.100	37.143	0.100
633.200	26.799	0.100
633.300	30.717	0.100
633.400	33.795	0.100
633.500	36.647	0.100
633.600	28.942	0.100
633.700	36.170	0.100
633.800	27.620	0.100
633.900	29.624	0.100
634.000	31.485	0.100
634.100	30.854	0.100
634.200	25.751	0.100
634.300	42.831	0.100
634.400	22.509	0.100
634.500	22.782	0.100
634.600	24.168	0.100
634.700	25.007	0.100
634.800	19.137	0.100
634.900	18.837	0.100
635.000	33.169	0.100
635.100	17.377	0.100
635.200	20.977	0.100
635.300	36.782	0.100
635.400	36.328	0.100
635.500	26.634	0.100
635.600	34.405	0.100
635.700	41.112	0.100
635.800	33.619	0.100
635.900	24.095	0.100
636.000	22.770	0.100
636.100	30.221	0.100
636.200	48.396	0.100
636.300	41.641	0.100
636.400	33.368	0.100
636.500	26.687	0.100
636.600	34.625	0.100
636.700	42.952	0.099
636.800	35.818	0.100
636.900	50.240	0.100
637.000	20.835	0.100
637.100	35.017	0.100
637.200	54.979	0.100
637.300	35.143	0.100
637.400	36.962	0.100
637.500	27.239	0.100
637.600	37.414	0.100
637.700	52.125	0.100
637.800	40.488	0.100
637.900	46.564	0.100
638.000	32.845	0.100
638.100	55.013	0.100
638.200	41.576	0.100
638.300	52.653	0.100
638.400	43.466	0.100
638.500	59.571	0.100
638.600	37.476	0.100
638.700	48.017	0.100
638.800	49.940	0.100
638.900	48.947	0.100
639.000	40.636	0.100
639.100	42.122	0.100
639.200	55.557	0.100
639.300	42.911	0.100
639.400	47.405	0.100
639.500	53.793	0.100
639.600	55.074	0.100
639.700	49.298	0.100
639.800	55.350	0.100
639.900	53.446	0.100
640.000	54.611	0.100
640.100	50.741	0.100
640.200	56.815	0.100
640.300	53.215	0.100
640.400	50.858	0.100
640.500	51.302	0.100
640.600	51.764	0.100
640.700	56.440	0.100
640.800	50.128	0.100
640.900	52.400	0.100
641.000	59.097	0.100
641.100	57.635	0.100
641.200	48.671	0.100
641.300	49.982	0.100
641.400	55.118	0.100
641.500	50.596	0.100
641.600	60.722	0.100
641.700	65.872	0.100
641.800	56.257	0.100
641.900	60.241	0.100
642.000	57.099	0.100
642.100	57.422	0.100
642.200	59.077	0.100
642.300	55.910	0.100
642.400	48.694	0.100
642.500	48.600	0.100
642.600	61.836	0.099
642.700	62.356	0.100
642.800	54.294	0.100
642.900	42.987	0.100
643.000	75.006	0.100
643.100	63.938	0.100
643.200	55.963	0.100
643.300	69.968	0.100
643.400	72.467	0.100
643.500	64.787	0.100
643.600	50.438	0.100
643.700	81.232	0.100
643.800	60.481	0.100
643.900	59.821	0.100
644.000	56.650	0.100
644.100	58.369	0.100
644.200	64.434	0.100
644.300	64.259	0.100
644.400	62.393	0.100
644.500	67.449	0.100
644.600	53.655	0.100
644.700	59.290	0.100
644.800	63.425	0.100
644.900	56.158	0.100
645.000	66.505	0.100
645.100	61.690	0.100
645.200	57.542	0.100
645.300	82.868	0.100
645.400	56.068	0.100
645.500	60.961	0.100
645.600	66.502	0.100
645.700	64.821	0.100
645.800	75.583	0.100
645.900	65.236	0.100
646.000	61.900	0.100
646.100	79.288	0.100
646.200	55.750	0.100
646.300	69.031	0.100
646.400	74.720	0.100
646.500	63.797	0.100
646.600	67.144	0.100
646.700	68.919	0.100
646.800	62.723	0.100
646.900	70.003	0.100
647.000	69.490	0.100
647.100	60.032	0.100
647.200	69.683	0.100
647.300	63.717	0.100
647.400	52.165	0.100
647.500	76.711	0.100
647.600	58.633	0.100
647.700	69.936	0.100
647.800	75.252	0.100
647.900	68.586	0.100
648.000	74.344	0.100
648.100	63.684	0.100
648.200	76.922	0.100
648.300	53.964	0.100
648.400	73.363	0.100
648.500	76.204	0.100
648.600	62.629	0.100
648.700	66.443	0.100
648.800	74.604	0.100
648.900	69.426	0.100
649.000	61.290	0.100
649.100	68.781	0.100
649.200	69.840	0.100
649.300	75.720	0.100
649.400	66.722	0.100
649.500	76.850	0.100
649.600	69.422	0.100
649.700	71.670	0.100
649.800	68.235	0.100
649.900	83.264	0.100
650.000	79.861	0.100
650.100	67.972	0.100
650.200	67.588	0.100
650.300	62.005	0.100
650.400	65.318	0.100
650.500	69.383	0.100
650.600	72.214	0.100
650.700	75.859	0.100
650.800	69.957	0.100
650.900	73.880	0.100
651.000	67.449	0.100
651.100	84.232	0.100
651.200	71.671	0.100
651.300	83.557	0.100
651.400	61.440	0.100
651.500	67.855	0.100
651.600	74.327	0.100
651.700	79.447	0.100
651.800	73.672	0.100
651.900	79.321	0.100
652.000	63.032	0.100
652.100	73.246	0.100
652.200	62.930	0.100
652.300	80.680	0.100
652.400	62.360	0.100
652.500	81.004	0.100
652.600	78.715	0.100
652.700	67.801	0.100
652.800	68.211	0.100
652.900	86.433	0.100
653.000	73.263	0.100
653.100	98.143	0.100
653.200	76.062	0.100
653.300	66.068	0.100
653.400	80.769	0.100
653.500	85.651	0.100
653.600	78.729	0.100
653.700	73.092	0.100
653.800	63.293	0.100
653.900	86.199	0.100
654.000	81.435	0.100
654.100	73.094	0.100
654.200	67.935	0.100
654.300	57.516	0.100
654.400	106.125	0.100
654.500	74.022	0.100
654.600	70.080	0.100
654.700	92.530	0.100
654.800	82.952	0.100
654.900	81.294	0.100
655.000	76.913	0.100
655.100	76.359	0.100
655.200	89.197	0.100
655.300	57.985	0.100
655.400	96.394	0.100
655.500	66.573	0.100
655.600	76.513	0.100
655.700	66.461	0.100
655.800	70.564	0.100
655.900	92.097	0.100
656.000	77.088	0.100
656.100	72.933	0.100
656.200	81.375	0.100
656.300	95.050	0.100
656.400	81.497	0.100
656.500	83.996	0.100
656.600	74.116	0.100
656.700	79.813	0.100
656.800	80.042	0.100
656.900	74.228	0.100
657.000	81.941	0.100
657.100	75.799	0.100
657.200	80.376	0.100
657.300	72.221	0.100
657.400	85.604	0.100
657.500	79.530	0.100
657.600	89.433	0.100
657.700	84.719	0.100
657.800	76.711	0.100
657.900	69.943	0.100
658.000	87.638	0.100
658.100	77.070	0.100
658.200	77.623	0.100
658.300	81.134	0.100
658.400	87.295	0.100
658.500	69.833	0.100
658.600	77.367	0.100
658.700	80.886	0.100
658.800	73.878	0.100
658.900	83.958	0.100
659.000	93.329	0.100
659.100	83.402	0.100
659.200	85.993	0.100
659.300	76.343	0.100
659.400	66.075	0.100
659.500	86.398	0.100
659.600	82.007	0.100
659.700	80.088	0.100
659.800	79.416	0.100
659.900	87.552	0.100
660.000	79.939	0.100
660.100	86.730	0.100
660.200	92.147	0.100
660.300	87.343	0.100
660.400	73.283	0.100
660.500	95.277	0.100
660.600	84.902	0.100
660.700	87.397	0.100
660.800	87.485	0.100
660.900	92.790	0.100
661.000	75.463	0.100
661.100	101.335	0.100
661.200	89.182	0.100
661.300	84.015	0.100
661.400	76.093	0.100
661.500	68.272	0.100
661.600	88.328	0.100
661.700	85.850	0.100
661.800	89.612	0.100
661.900	95.508	0.100
662.000	80.896	0.100
662.100	82.640	0.100
662.200	87.733	0.100
662.300	80.318	0.100
662.400	65.036	0.100
662.500	69.246	0.100
662.600	84.140	0.100
662.700	83.843	0.100
662.800	89.548	0.100
662.900	77.461	0.100
663.000	89.186	0.100
663.100	85.381	0.100
663.200	92.309	0.100
663.300	80.018	0.100
663.400	74.957	0.100
663.500	72.986	0.100
663.600	97.476	0.100
663.700	90.223	0.100
663.800	77.777	0.100
663.900	97.350	0.100
664.000	72.347	0.100
664.100	77.765	0.100
664.200	96.029	0.100
664.300	78.779	0.100
664.400	85.880	0.100
664.500	80.705	0.100
664.600	84.024	0.100
664.700	84.047	0.100
664.800	79.378	0.100
664.900	82.052	0.100
665.000	81.964	0.100
665.100	94.768	0.100
665.200	92.405	0.100
665.300	82.363	0.100
665.400	97.640	0.100
665.500	79.902	0.100
665.600	76.654	0.100
665.700	84.993	0.100
665.800	90.551	0.100
665.900	84.759	0.100
666.000	73.894	0.100
666.100	81.429	0.100
666.200	87.556	0.100
666.300	61.618	0.100
666.400	84.314	0.100
666.500	86.311	0.100
666.600	70.563	0.100
666.700	75.321	0.100
666.800	82.864	0.100
666.900	73.335	0.100
667.000	87.708	0.099
667.100	87.767	0.100
667.200	70.052	0.100
667.300	93.303	0.100
667.400	93.485	0.100
667.500	89.980	0.100
667.600	86.220	0.100
667.700	77.209	0.100
667.800	77.157	0.100
667.900	79.822	0.100
668.000	88.329	0.100
668.100	77.665	0.100
668.200	71.594	0.100
668.300	70.951	0.100
668.400	93.306	0.100
668.500	75.595	0.100
668.600	78.381	0.100
668.700	63.591	0.100
668.800	75.179	0.100
668.900	73.002	0.100
669.000	83.301	0.100
669.100	87.543	0.100
669.200	89.438	0.100
669.300	77.236	0.100
669.400	83.120	0.100
669.500	85.872	0.100
669.600	84.233	0.100
669.700	76.097	0.100
669.800	69.048	0.100
669.900	71.768	0.100
670.000	82.346	0.100
670.100	77.755	0.100
670.200	74.449	0.100
670.300	71.785	0.100
670.400	80.737	0.100
670.500	69.127	0.100
670.600	80.179	0.100
670.700	84.303	0.100
670.800	70.956	0.100
670.900	87.136	0.100
671.000	74.049	0.100
671.100	76.275	0.100
671.200	82.211	0.100
671.300	79.643	0.100
671.400	75.395	0.100
671.500	80.550	0.100
671.600	66.800	0.100
671.700	73.123	0.100
671.800	66.865	0.100
671.900	56.442	0.100
672.000	74.869	0.100
672.100	84.195	0.100
672.200	77.734	0.100
672.300	75.983	0.100
672.400	73.038	0.100
672.500	75.933	0.100
672.600	64.297	0.100
672.700	79.686	0.100
672.800	85.759	0.100
672.900	76.339	0.100
673.000	70.957	0.100
673.100	92.571	0.100
673.200	78.456	0.100
673.300	71.422	0.100
673.400	75.314	0.100
673.500	81.587	0.100
673.600	66.213	0.100
673.700	78.298	0.100
673.800	72.749	0.100
673.900	68.006	0.100
674.000	76.437	0.100
674.100	63.539	0.100
674.200	67.913	0.100
674.300	80.125	0.100
674.400	67.567	0.100
674.500	76.707	0.100
674.600	69.944	0.100
674.700	86.750	0.100
674.800	72.226	0.100
674.900	76.682	0.100
675.000	77.607	0.100
675.100	72.960	0.100
675.200	77.772	0.100
675.300	79.710	0.100
675.400	70.638	0.100
675.500	60.120	0.100
675.600	63.151	0.100
675.700	76.450	0.100
675.800	76.908	0.100
675.900	75.822	0.100
676.000	69.971	0.100
676.100	80.322	0.100
676.200	67.856	0.100
676.300	73.286	0.100
676.400	72.955	0.100
676.500	69.911	0.100
676.600	61.413	0.100
676.700	61.409	0.100
676.800	84.653	0.100
676.900	67.076	0.100
677.000	73.031	0.100
677.100	69.328	0.100
677.200	60.480	0.100
677.300	72.424	0.100
677.400	71.949	0.100
677.500	48.839	0.100
677.600	79.985	0.100
677.700	79.385	0.100
677.800	51.157	0.100
677.900	76.707	0.100
678.000	61.171	0.100
678.100	64.938	0.100
678.200	68.320	0.100
678.300	67.785	0.100
678.400	77.881	0.100
678.500	58.755	0.100
678.600	63.696	0.100
678.700	68.720	0.100
678.800	78.335	0.100
678.900	76.567	0.100
679.000	57.917	0.100
679.100	88.202	0.100
679.200	67.963	0.100
679.300	71.600	0.100
679.400	60.851	0.100
679.500	76.311	0.100
679.600	66.365	0.100
679.700	66.317	0.100
679.800	71.716	0.100
679.900	79.840	0.100
680.000	63.792	0.100
680.100	58.754	0.100
680.200	55.806	0.100
680.300	70.475	0.100
680.400	68.683	0.100
680.500	67.803	0.100
680.600	70.072	0.100
680.700	68.017	0.100
680.800	63.298	0.100
680.900	56.654	0.100
681.000	84.458	0.100
681.100	76.968	0.100
681.200	63.688	0.100
681.300	60.164	0.100
681.400	70.803	0.100
681.500	78.399	0.100
681.600	71.786	0.100
681.700	77.476	0.100
681.800	72.876	0.100
681.900	76.953	0.100
682.000	76.681	0.100
682.100	71.464	0.100
682.200	64.457	0.100
682.300	61.622	0.100
682.400	76.844	0.100
682.500	67.669	0.100
682.600	67.739	0.100
682.700	63.806	0.100
682.800	77.010	0.100
682.900	71.496	0.100
683.000	62.229	0.100
683.100	73.202	0.100
683.200	71.708	0.100
683.300	74.948	0.100
683.400	64.864	0.100
683.500	67.358	0.100
683.600	58.748	0.100
683.700	88.029	0.100
683.800	69.474	0.100
683.900	65.179	0.100
684.000	72.344	0.100
684.100	77.469	0.100
684.200	68.526	0.100
684.300	63.126	0.100
684.400	67.433	0.100
684.500	83.798	0.100
684.600	70.478	0.100
684.700	72.726	0.100
684.800	76.157	0.100
684.900	60.572	0.100
685.000	73.640	0.100
685.100	64.751	0.100
685.200	70.384	0.100
685.300	70.827	0.100
685.400	76.843	0.100
685.500	61.483	0.100
685.600	67.755	0.100
685.700	76.218	0.100
685.800	67.601	0.100
685.900	73.290	0.100
686.000	71.173	0.100
686.100	53.776	0.100
686.200	72.803	0.100
686.300	76.754	0.100
686.400	64.129	0.100
686.500	87.334	0.100
686.600	77.563	0.100
686.700	82.150	0.100
686.800	79.881	0.100
686.900	61.357	0.100
687.000	57.691	0.100
687.100	76.792	0.100
687.200	72.594	0.100
687.300	63.214	0.100
687.400	70.535	0.100
687.500	79.236	0.100
687.600	72.110	0.100
687.700	72.277	0.100
687.800	68.966	0.100
687.900	68.087	0.100
688.000	62.901	0.100
688.100	76.817	0.100
688.200	73.441	0.100
688.300	63.331	0.100
688.400	76.877	0.100
688.500	71.843	0.100
688.600	77.873	0.100
688.700	77.890	0.100
688.800	81.379	0.100
688.900	62.034	0.100
689.000	82.413	0.100
689.100	64.340	0.100
689.200	73.104	0.100
689.300	77.602	0.100
689.400	66.210	0.100
689.500	58.711	0.100
689.600	70.725	0.100
689.700	79.655	0.100
689.800	71.924	0.100
689.900	70.735	0.100
690.000	81.361	0.100
690.100	75.995	0.100
690.200	64.801	0.100
690.300	58.416	0.100
690.400	47.810	0.100
690.500	45.341	0.100
690.600	21.992	0.100
690.700	0.925	0.100
690.800	-16.168	0.100
690.900	-23.628	0.100
691.000	-41.466	0.100
691.100	-48.913	0.100
691.200	-59.310	0.100
691.300	-68.834	0.100
691.400	-87.469	0.100
691.500	-86.154	0.100
691.600	-112.694	0.100
691.700	-98.231	0.100
691.800	-117.701	0.100
691.900	-111.203	0.100
692.000	-124.550	0.100
692.100	-111.883	0.100
692.200	-124.747	0.100
692.300	-122.939	0.100
692.400	-136.094	0.100
692.500	-130.575	0.100
692.600	-122.572	0.100
692.700	-137.017	0.100
692.800	-135.526	0.100
692.900	-129.476	0.100
693.000	-130.731	0.100
693.100	-130.749	0.100
693.200	-131.427	0.100
693.300	-146.634	0.100
693.400	-136.524	0.100
693.500	-133.365	0.100
693.600	-124.544	0.100
693.700	-117.547	0.100
693.800	-124.591	0.100
693.900	-127.200	0.100
694.000	-128.962	0.100
694.100	-140.275	0.100
694.200	-128.533	0.100
694.300	-118.895	0.100
694.400	-121.796	0.100
694.500	-115.775	0.100
694.600	-115.257	0.100
694.700	-107.899	0.100
694.800	-113.791	0.100
694.900	-120.949	0.100
695.000	-105.546	0.100
695.100	-115.499	0.100
695.200	-110.899	0.100
695.300	-97.316	0.100
695.400	-108.240	0.100
695.500	-110.363	0.100
695.600	-94.361	0.100
695.700	-97.669	0.100
695.800	-108.828	0.100
695.900	-100.996	0.100
696.000	-78.449	0.100
696.100	-106.561	0.100
696.200	-92.952	0.100
696.300	-93.272	0.100
696.400	-79.216	0.100
696.500	-91.622	0.100
696.600	-89.998	0.100
696.700	-77.747	0.100
696.800	-72.413	0.100
696.900	-87.166	0.100
697.000	-78.439	0.100
697.100	-79.016	0.100
697.200	-73.740	0.100
697.300	-70.338	0.100
697.400	-82.134	0.100
697.500	-64.221	0.100
697.600	-76.524	0.100
697.700	-68.095	0.100
697.800	-69.372	0.100
697.900	-65.231	0.100
698.000	-66.031	0.100
698.100	-67.489	0.100
698.200	-57.566	0.100
698.300	-73.576	0.100
698.400	-65.059	0.100
698.500	-56.554	0.100
698.600	-62.901	0.100
698.700	-63.087	0.100
698.800	-62.095	0.100
698.900	-69.741	0.100
699.000	-66.254	0.100
699.100	-53.925	0.100
699.200	-54.519	0.100
699.300	-64.074	0.100
699.400	-51.636	0.100
699.500	-64.571	0.100
699.600	-52.305	0.100
699.700	-59.431	0.100
699.800	-52.312	0.100
699.900	-53.927	0.100
700.000	-45.492	0.100
700.100	-48.216	0.100
700.200	-64.272	0.099
700.300	-59.623	0.100
700.400	-53.330	0.100
700.500	-51.672	0.100
700.600	-54.362	0.100
700.700	-61.215	0.100
700.800	-56.989	0.100
700.900	-63.881	0.100
701.000	-59.353	0.100
701.100	-45.841	0.100
701.200	-47.271	0.100
701.300	-46.684	0.100
701.400	-61.711	0.100
701.500	-56.425	0.100
701.600	-51.904	0.100
701.700	-37.673	0.100
701.800	-58.383	0.100
701.900	-55.252	0.100
702.000	-54.206	0.100
702.100	-55.252	0.100
702.200	-39.498	0.100
702.300	-50.140	0.100
702.400	-49.413	0.100
702.500	-49.275	0.100
702.600	-38.999	0.100
702.700	-41.810	0.100
702.800	-54.481	0.100
702.900	-48.314	0.100
703.000	-43.486	0.100
703.100	-42.721	0.100
703.200	-44.075	0.100
703.300	-44.673	0.100
703.400	-43.880	0.100
703.500	-50.514	0.100
703.600	-39.930	0.100
703.700	-38.735	0.100
703.800	-45.593	0.100
703.900	-46.326	0.099
704.000	-39.189	0.100
704.100	-41.923	0.100
704.200	-44.479	0.100
704.300	-42.146	0.099
704.400	-47.222	0.100
704.500	-41.896	0.100
704.600	-51.407	0.100
704.700	-33.973	0.100
704.800	-41.758	0.100
704.900	-54.710	0.100
705.000	-45.173	0.100
705.100	-45.635	0.100
705.200	-26.376	0.100
705.300	-31.727	0.100
705.400	-44.386	0.100
705.500	-58.637	0.100
705.600	-42.466	0.100
705.700	-44.684	0.100
705.800	-27.003	0.100
705.900	-53.284	0.100
706.000	-45.872	0.100
706.100	-48.272	0.100
706.200	-45.398	0.100
706.300	-39.788	0.100
706.400	-44.672	0.100
706.500	-35.474	0.100
706.600	-49.944	0.100
706.700	-47.346	0.100
706.800	-48.377	0.100
706.900	-46.748	0.100
707.000	-41.763	0.100
707.100	-43.479	0.100
707.200	-50.384	0.100
707.300	-47.527	0.100
707.400	-35.601	0.100
707.500	-31.158	0.100
707.600	-41.241	0.100
707.700	-45.980	0.100
707.800	-31.733	0.100
707.900	-45.983	0.100
708.000	-28.584	0.100
708.100	-46.590	0.100
708.200	-50.015	0.100
708.300	-33.920	0.100
708.400	-49.538	0.100
708.500	-42.101	0.100
708.600	-53.877	0.100
708.700	-35.257	0.099
708.800	-38.371	0.100
708.900	-33.173	0.099
709.000	-37.491	0.100
709.100	-32.849	0.100
709.200	-50.094	0.100
709.300	-26.483	0.100
709.400	-47.248	0.100
709.500	-36.546	0.100
709.600	-43.263	0.100
709.700	-42.661	0.100
709.800	-38.868	0.100
709.900	-36.738	0.100
710.000	-40.863	0.100
710.100	-31.622	0.100
710.200	-43.893	0.100
710.300	-34.422	0.100
710.400	-40.090	0.100
710.500	-47.720	0.100
710.600	-38.257	0.100
710.700	-35.793	0.100
710.800	-39.313	0.100
710.900	-44.112	0.100
711.000	-34.957	0.100
711.100	-42.984	0.100
711.200	-30.700	0.100
711.300	-44.937	0.099
711.400	-42.910	0.099
711.500	-31.941	0.100
711.600	-45.701	0.099
711.700	-34.646	0.100
711.800	-40.027	0.099
711.900	-27.357	0.100
712.000	-30.980	0.100
712.100	-29.450	0.100
712.200	-32.372	0.100
712.300	-41.650	0.100
712.400	-37.177	0.100
712.500	-25.052	0.100
712.600	-33.896	0.100
712.700	-42.726	0.100
712.800	-36.472	0.100
712.900	-24.876	0.100
713.000	-46.554	0.100
713.100	-31.402	0.100
713.200	-24.854	0.100
713.300	-30.861	0.100
713.400	-47.465	0.100
713.500	-29.131	0.100
713.600	-31.073	0.100
713.700	-32.062	0.100
713.800	-37.820	0.100
713.900	-40.696	0.100
714.000	-28.743	0.100
714.100	-39.143	0.099
714.200	-35.888	0.100
714.300	-33.405	0.100
714.400	-40.306	0.100
714.500	-22.322	0.100
714.600	-34.169	0.100
714.700	-32.889	0.099
714.800	-37.669	0.100
714.900	-34.203	0.100
715.000	-54.699	0.100
715.100	-27.466	0.099
715.200	-23.520	0.100
715.300	-36.728	0.100
715.400	-30.362	0.100
715.500	-28.643	0.100
715.600	-40.792	0.099
715.700	-36.982	0.100
715.800	-42.875	0.100
715.900	-33.312	0.100
716.000	-19.113	0.100
716.100	-46.115	0.100
716.200	-30.805	0.099
716.300	-33.138	0.100
716.400	-43.737	0.100
716.500	-27.626	0.099
716.600	-25.892	0.100
716.700	-30.247	0.100
716.800	-28.955	0.100
716.900	-40.820	0.100
717.000	-33.154	0.100
717.100	-44.306	0.100
717.200	-30.256	0.100
717.300	-27.882	0.100
717.400	-43.486	0.100
717.500	-37.375	0.100
717.600	-32.378	0.099
717.700	-29.427	0.100
717.800	-32.601	0.100
717.900	-21.760	0.100
718.000	-32.856	0.100
718.100	-43.959	0.099
718.200	-37.713	0.100
718.300	-27.521	0.100
718.400	-32.138	0.100
718.500	-35.664	0.100
718.600	-27.014	0.100
718.700	-48.080	0.100
718.800	-31.057	0.100
718.900	-27.124	0.100
719.000	-45.665	0.100
719.100	-25.803	0.100
719.200	-37.008	0.099
719.300	-34.396	0.100
719.400	-35.750	0.100
719.500	-18.831	0.099
719.600	-30.788	0.100
719.700	-30.515	0.100
719.800	-39.434	0.100
719.900	-37.860	0.099
720.000	-31.831	0.100
720.100	-13.147	0.100
720.200	-21.387	0.100
720.300	-39.549	0.100
720.400	-45.714	0.100
720.500	-24.699	0.100
720.600	-26.769	0.100
720.700	-26.546	0.099
720.800	-32.024	0.100
720.900	-22.642	0.100
721.000	-30.218	0.099
721.100	-27.277	0.100
721.200	-21.034	0.099
721.300	-30.842	0.100
721.400	-30.075	0.100
721.500	-28.905	0.100
721.600	-32.360	0.100
721.700	-36.960	0.100
721.800	-39.186	0.100
721.900	-35.144	0.100
722.000	-34.447	0.099
722.100	-29.162	0.100
722.200	-28.361	0.100
722.300	-28.522	0.100
722.400	-24.489	0.100
722.500	-28.245	0.100
722.600	-25.437	0.100
722.700	-30.005	0.100
722.800	-36.830	0.100
722.900	-31.621	0.100
723.000	-33.432	0.100
723.100	-31.925	0.100
723.200	-22.876	0.100
723.300	-24.526	0.100
723.400	-35.754	0.100
723.500	-31.573	0.099
723.600	-49.679	0.100
723.700	-41.624	0.100
723.800	-36.968	0.100
723.900	-33.005	0.100
724.000	-24.544	0.100
724.100	-35.252	0.100
724.200	-35.800	0.100
724.300	-15.657	0.100
724.400	-19.245	0.100
724.500	-24.656	0.100
724.600	-32.948	0.100
724.700	-23.100	0.100
724.800	-40.181	0.100
724.900	-42.767	0.100
725.000	-34.188	0.100
725.100	-36.057	0.100
725.200	-24.195	0.099
725.300	-25.550	0.100
725.400	-25.442	0.100
725.500	-40.555	0.100
725.600	-31.690	0.100
725.700	-21.901	0.100
725.800	-38.890	0.100
725.900	-35.093	0.100
726.000	-21.876	0.100
726.100	-25.252	0.099
726.200	-32.821	0.100
726.300	-28.865	0.100
726.400	-24.961	0.100
726.500	-32.791	0.100
726.600	-33.239	0.100
726.700	-29.381	0.100
726.800	-34.735	0.100
726.900	-13.835	0.100
727.000	-30.730	0.100
727.100	-32.323	0.100
727.200	-18.657	0.100
727.300	-35.201	0.100
727.400	-31.551	0.100
727.500	-27.918	0.100
727.600	-25.482	0.100
727.700	-32.131	0.100
727.800	-27.227	0.100
727.900	-25.890	0.100
728.000	-42.347	0.100
728.100	-33.017	0.100
728.200	-43.583	0.100
728.300	-40.065	0.100
728.400	-26.970	0.100
728.500	-25.332	0.100
728.600	-24.434	0.100
728.700	-29.209	0.100
728.800	-32.435	0.100
728.900	-38.797	0.100
729.000	-18.918	0.100
729.100	-28.168	0.100
729.200	-32.516	0.100
729.300	-19.628	0.100
729.400	-38.757	0.100
729.500	-50.748	0.100
729.600	-28.070	0.100
729.700	-27.829	0.100
729.800	-30.090	0.100
729.900	-36.685	0.100
730.000	-31.800	0.100
730.100	-37.393	0.100
730.200	-38.734	0.100
730.300	-38.849	0.100
730.400	-27.428	0.099
730.500	-27.786	0.100
730.600	-33.186	0.100
730.700	-21.067	0.100
730.800	-33.055	0.100
730.900	-18.639	0.100
731.000	-22.685	0.100
731.100	-17.923	0.100
731.200	-24.894	0.100
731.300	-29.747	0.100
731.400	-35.686	0.100
731.500	-32.639	0.100
731.600	-26.284	0.100
731.700	-25.659	0.100
731.800	-27.041	0.100
731.900	-20.998	0.100
732.000	-21.424	0.100
732.100	-19.628	0.100
732.200	-31.579	0.100
732.300	-20.840	0.100
732.400	-26.542	0.100
732.500	-29.444	0.100
732.600	-25.380	0.100
732.700	-29.087	0.100
732.800	-25.221	0.100
732.900	-25.648	0.100
733.000	-24.306	0.100
733.100	-35.391	0.100
733.200	-31.512	0.100
733.300	-28.460	0.100
733.400	-31.469	0.100
733.500	-15.756	0.100
733.600	-26.487	0.100
733.700	-40.101	0.100
733.800	-18.522	0.099
733.900	-28.696	0.100
734.000	-35.190	0.100
734.100	-42.111	0.100
734.200	-19.785	0.100
734.300	-39.590	0.100
734.400	-24.937	0.099
734.500	-20.350	0.100
734.600	-27.024	0.100
734.700	-27.024	0.100
734.800	-33.279	0.100
734.900	-21.727	0.100
735.000	-29.392	0.100
735.100	-24.163	0.100
735.200	-25.161	0.100
735.300	-40.625	0.100
735.400	-18.489	0.100
735.500	-14.024	0.100
735.600	-31.435	0.100
735.700	-25.234	0.100
735.800	-40.600	0.100
735.900	-15.562	0.100
736.000	-22.091	0.100
736.100	-32.449	0.100
736.200	-22.279	0.100
736.300	-28.165	0.100
736.400	-23.116	0.100
736.500	-29.593	0.100
736.600	-39.615	0.100
736.700	-25.775	0.100
736.800	-10.349	0.100
736.900	-23.757	0.100
737.000	-21.006	0.100
737.100	-23.792	0.100
737.200	-35.023	0.100
737.300	-17.026	0.100
737.400	-38.401	0.100
737.500	-19.488	0.100
737.600	-32.361	0.100
737.700	-15.584	0.100
737.800	-20.915	0.100
737.900	-45.555	0.100
738.000	-27.832	0.100
738.100	-22.894	0.100
738.200	-40.708	0.100
738.300	-37.682	0.100
738.400	-18.518	0.100
738.500	-32.623	0.100
738.600	-19.200	0.100
738.700	-21.260	0.100
738.800	-30.721	0.100
738.900	-14.861	0.100
739.000	-42.069	0.100
739.100	-26.703	0.100
739.200	-19.589	0.100
739.300	-21.680	0.100
739.400	-41.715	0.100
739.500	-25.766	0.100
739.600	-22.537	0.100
739.700	-27.864	0.100
739.800	-24.360	0.100
739.900	-31.558	0.100
740.000	-23.757	0.100
740.100	-26.140	0.100
740.200	-32.487	0.100
740.300	-20.214	0.100
740.400	-32.375	0.100
740.500	-45.584	0.100
740.600	-19.242	0.100
740.700	-28.713	0.100
740.800	-19.886	0.100
740.900	-26.877	0.100
741.000	-39.527	0.100
741.100	-28.417	0.100
741.200	-27.053	0.100
741.300	-29.479	0.100
741.400	-22.764	0.100
741.500	-20.464	0.100
741.600	-31.102	0.100
741.700	-26.328	0.100
741.800	-16.275	0.100
741.900	-26.537	0.100
742.000	-22.733	0.100
742.100	-27.116	0.100
742.200	-25.571	0.100
742.300	-33.721	0.100
742.400	-40.476	0.099
742.500	-19.064	0.100
742.600	-18.795	0.100
742.700	-20.565	0.100
742.800	-19.241	0.100
742.900	-49.843	0.100
743.000	-16.997	0.100
743.100	-14.244	0.100
743.200	-32.215	0.100
743.300	-25.420	0.100
743.400	-8.520	0.100
743.500	-22.772	0.100
743.600	-24.149	0.100
743.700	-27.695	0.100
743.800	-24.175	0.100
743.900	-29.765	0.100
744.000	-20.737	0.100
744.100	-32.738	0.100
744.200	-29.328	0.100
744.300	-20.371	0.100
744.400	-14.162	0.100
744.500	-29.499	0.100
744.600	-14.844	0.100
744.700	-37.058	0.100
744.800	-30.415	0.100
744.900	-21.529	0.100
745.000	-32.812	0.100
745.100	-25.511	0.100
745.200	-24.878	0.100
745.300	-18.669	0.100
745.400	-36.136	0.100
745.500	-17.302	0.100
745.600	-27.685	0.100
745.700	-31.843	0.100
745.800	-31.456	0.100
745.900	-37.667	0.100
746.000	-39.362	0.100
746.100	-4.857	0.100
746.200	-29.454	0.100
746.300	-32.981	0.100
746.400	-17.984	0.100
746.500	-23.073	0.100
746.600	-31.117	0.100
746.700	-17.449	0.100
746.800	-18.385	0.100
746.900	-27.705	0.100
747.000	-27.441	0.100
747.100	-28.489	0.099
747.200	-40.544	0.100
747.300	-25.654	0.100
747.400	-27.210	0.100
747.500	-26.370	0.100
747.600	-13.718	0.100
747.700	-28.103	0.100
747.800	-23.801	0.100
747.900	-28.669	0.100
748.000	-25.493	0.100
748.100	-22.734	0.100
748.200	-33.593	0.100
748.300	-28.399	0.100
748.400	-15.386	0.100
748.500	-36.853	0.100
748.600	-33.243	0.099
748.700	-9.966	0.100
748.800	-18.164	0.100
748.900	-28.294	0.100
749.000	-29.399	0.100
749.100	-22.130	0.100
749.200	-15.892	0.100
749.300	-19.306	0.100
749.400	-19.705	0.100
749.500	-30.167	0.100
749.600	-28.666	0.100
749.700	-28.380	0.100
749.800	-26.779	0.100
749.900	-21.756	0.100
750.000	-28.721	0.100
750.100	-19.523	0.100
750.200	-28.872	0.100
750.300	-20.324	0.100
750.400	-26.661	0.099
750.500	-18.228	0.100
750.600	-39.431	0.099
750.700	-23.326	0.100
750.800	-22.281	0.099
750.900	-29.258	0.099
751.000	-22.630	0.100
751.100	-26.085	0.100
751.200	-5.736	0.100
751.300	-13.521	0.100
751.400	-13.150	0.100
751.500	-36.689	0.100
751.600	-19.350	0.100
751.700	-15.559	0.100
751.800	-22.121	0.100
751.900	-29.963	0.100
752.000	-21.860	0.100
752.100	-24.817	0.100
752.200	-32.113	0.100
752.300	-16.321	0.100
752.400	-15.103	0.100
752.500	-22.189	0.100
752.600	-30.967	0.099
752.700	-22.424	0.100
752.800	-33.097	0.100
752.900	-27.967	0.100
753.000	-29.379	0.100
753.100	-24.494	0.100
753.200	-32.356	0.100
753.300	-17.123	0.100
753.400	-31.979	0.100
753.500	-35.575	0.100
753.600	-21.481	0.100
753.700	-24.149	0.100
753.800	-23.164	0.100
753.900	-36.191	0.100
754.000	-17.037	0.100
754.100	-15.866	0.100
754.200	-26.013	0.100
754.300	-28.459	0.100
754.400	-35.176	0.100
754.500	-13.750	0.100
754.600	-22.808	0.100
754.700	-11.163	0.100
754.800	-32.523	0.099
754.900	-29.954	0.100
755.000	-23.880	0.100
755.100	-15.218	0.100
755.200	-26.560	0.100
755.300	-23.371	0.099
755.400	-24.190	0.100
755.500	-26.732	0.100
755.600	-14.378	0.100
755.700	-31.880	0.100
755.800	-26.072	0.100
755.900	-17.034	0.100
756.000	-17.227	0.100
756.100	-29.432	0.100
756.200	-7.611	0.100
756.300	-32.945	0.100
756.400	-13.018	0.100
756.500	-20.073	0.100
756.600	-23.869	0.100
756.700	-24.716	0.100
756.800	-17.468	0.100
756.900	-25.611	0.100
757.000	-34.227	0.100
757.100	-21.266	0.100
757.200	-21.592	0.100
757.300	-34.529	0.100
757.400	-12.148	0.100
757.500	-26.005	0.100
757.600	-22.501	0.100
757.700	-20.785	0.100
757.800	-25.764	0.100
757.900	-35.282	0.100
758.000	-8.495	0.100
758.100	-15.524	0.100
758.200	-28.088	0.100
758.300	-28.284	0.099
758.400	-43.454	0.100
758.500	-17.908	0.100
758.600	-26.569	0.100
758.700	-21.479	0.099
758.800	-26.113	0.100
758.900	-21.072	0.100
759.000	-24.094	0.100
759.100	-20.560	0.100
759.200	-23.071	0.100
759.300	-25.446	0.100
759.400	-9.411	0.100
759.500	-15.965	0.100
759.600	-30.186	0.100
759.700	-20.146	0.100
759.800	-27.170	0.100
759.900	-21.933	0.100
760.000	-22.006	0.100
760.100	-21.389	0.100
760.200	-27.468	0.100
760.300	-24.008	0.100
760.400	-23.481	0.100
760.500	-21.549	0.100
760.600	-21.300	0.100
760.700	-31.358	0.100
760.800	-23.040	0.100
760.900	-24.813	0.100
761.000	-20.164	0.100
761.100	-23.260	0.100
761.200	-28.827	0.100
761.300	-33.483	0.100
761.400	-26.619	0.100
761.500	-6.082	0.100
761.600	-16.184	0.100
761.700	-29.621	0.100
761.800	-16.238	0.100
761.900	-21.536	0.100
762.000	-25.946	0.100
762.100	-26.806	0.100
762.200	-21.912	0.100
762.300	-20.536	0.100
762.400	-33.488	0.100
762.500	-26.229	0.100
762.600	-29.808	0.100
762.700	-20.413	0.100
762.800	-18.428	0.100
762.900	-20.755	0.100
763.000	-27.024	0.099
763.100	-1.082	0.100
763.200	-18.159	0.100
763.300	-26.907	0.100
763.400	-31.881	0.100
763.500	-27.059	0.100
763.600	-14.980	0.100
763.700	-12.126	0.100
763.800	-18.866	0.100
763.900	-11.460	0.100
764.000	-31.211	0.100
764.100	-23.012	0.100
764.200	-31.304	0.100
764.300	-29.191	0.100
764.400	-16.800	0.100
764.500	-20.276	0.100
764.600	-25.915	0.100
764.700	-19.717	0.100
764.800	-23.971	0.100
764.900	-28.810	0.100
765.000	-15.957	0.100
765.100	-15.718	0.100
765.200	-23.203	0.100
765.300	-15.063	0.100
765.400	-27.404	0.100
765.500	-23.996	0.100
765.600	-16.048	0.100
765.700	-19.326	0.100
765.800	-17.681	0.100
765.900	-24.343	0.100
766.000	-20.112	0.100
766.100	-29.629	0.100
766.200	-28.312	0.100
766.300	-19.753	0.100
766.400	-21.959	0.100
766.500	-19.637	0.100
766.600	-31.070	0.100
766.700	-13.133	0.100
766.800	-20.737	0.100
766.900	-36.716	0.100
767.000	-29.353	0.100
767.100	-14.155	0.100
767.200	-4.445	0.100
767.300	-20.140	0.100
767.400	-26.964	0.100
767.500	-35.800	0.100
767.600	-29.648	0.100
767.700	-19.842	0.100
767.800	-15.568	0.100
767.900	-17.007	0.100
768.000	-27.447	0.100
768.100	-9.417	0.100
768.200	-23.720	0.100
768.300	-15.569	0.100
768.400	-21.135	0.100
768.500	-23.759	0.100
768.600	-33.120	0.100
768.700	-19.495	0.100
768.800	-26.994	0.100
768.900	-17.937	0.100
769.000	-19.341	0.100
769.100	-29.956	0.100
769.200	-13.598	0.100
769.300	-24.512	0.100
769.400	-28.734	0.100
769.500	-26.040	0.100
769.600	-22.834	0.100
769.700	-13.015	0.100
769.800	-22.029	0.100
769.900	-19.165	0.100
770.000	-28.223	0.100
770.100	-20.439	0.100
770.200	-28.036	0.100
770.300	-20.923	0.100
770.400	-19.609	0.100
770.500	-24.625	0.100
770.600	-20.625	0.100
770.700	-23.412	0.100
770.800	-22.520	0.100
770.900	-32.581	0.100
771.000	-22.254	0.100
771.100	-24.784	0.100
771.200	-30.803	0.100
771.300	-17.496	0.100
771.400	-19.803	0.100
771.500	-14.371	0.100
771.600	-29.882	0.100
771.700	-21.648	0.100
771.800	-21.301	0.100
771.900	-32.941	0.100
772.000	-26.004	0.100
772.100	-26.228	0.100
772.200	-20.872	0.100
772.300	-6.267	0.100
772.400	-11.365	0.100
772.500	-33.800	0.100
772.600	-12.922	0.100
772.700	-16.186	0.100
772.800	-14.394	0.100
772.900	-16.322	0.100
773.000	-28.298	0.100
773.100	-23.619	0.100
773.200	-25.206	0.100
773.300	-49.485	0.100
773.400	-33.702	0.100
773.500	-29.351	0.100
773.600	-15.844	0.100
773.700	-12.112	0.100
773.800	-19.365	0.100
773.900	-24.267	0.100
774.000	-24.953	0.100
774.100	-15.446	0.100
774.200	-17.773	0.100
774.300	-19.445	0.100
774.400	-18.533	0.100
774.500	-39.060	0.100
774.600	-18.922	0.100
774.700	-12.239	0.100
774.800	-11.285	0.100
774.900	-22.121	0.100
775.000	-33.437	0.100
775.100	-18.110	0.100
775.200	-21.552	0.100
775.300	-24.152	0.100
775.400	-22.064	0.100
775.500	-21.191	0.100
775.600	-33.193	0.100
775.700	-23.941	0.100
775.800	-31.674	0.100
775.900	-16.514	0.100
776.000	-5.806	0.100
776.100	-27.757	0.100
776.200	-9.133	0.100
776.300	-21.304	0.100
776.400	-28.052	0.100
776.500	-17.659	0.100
776.600	-19.259	0.100
776.700	-25.131	0.100
776.800	-21.842	0.100
776.900	-18.804	0.100
777.000	-12.890	0.100
777.100	-26.603	0.100
777.200	-29.817	0.100
777.300	-23.162	0.100
777.400	-21.873	0.100
777.500	-17.602	0.100
777.600	-23.651	0.100
777.700	-17.890	0.100
777.800	-22.533	0.100
777.900	-19.923	0.100
778.000	-18.784	0.100
778.100	-16.167	0.100
778.200	-22.902	0.100
778.300	-13.961	0.100
778.400	-22.565	0.100
778.500	-15.165	0.100
778.600	-29.446	0.100
778.700	-31.835	0.100
778.800	-20.339	0.100
778.900	-22.804	0.100
779.000	-26.967	0.100
779.100	-23.424	0.100
779.200	-21.071	0.100
779.300	-19.989	0.100
779.400	-25.842	0.100
779.500	-14.971	0.100
779.600	-21.551	0.100
779.700	-4.216	0.100
779.800	-21.176	0.100
779.900	-19.569	0.100
780.000	-19.207	0.100
780.100	-43.190	0.100
780.200	-19.379	0.100
780.300	-11.671	0.100
780.400	-25.449	0.100
780.500	-17.582	0.100
780.600	1.564	0.100
780.700	15.573	0.099
780.800	9.960	0.100
780.900	17.325	0.100
781.000	32.261	0.100
781.100	24.387	0.100
781.200	29.577	0.100
781.300	40.497	0.100
781.400	29.488	0.100
781.500	44.898	0.100
781.600	54.297	0.100
781.700	47.732	0.100
781.800	60.753	0.100
781.900	28.510	0.100
782.000	45.213	0.100
782.100	43.821	0.100
782.200	50.622	0.100
782.300	49.652	0.100
782.400	38.762	0.100
782.500	48.637	0.100
782.600	53.074	0.100
782.700	42.646	0.100
782.800	39.805	0.100
782.900	57.775	0.100
783.000	40.821	0.100
783.100	38.368	0.100
783.200	45.656	0.100
783.300	23.087	0.100
783.400	42.721	0.100
783.500	33.931	0.100
783.600	41.600	0.100
783.700	33.221	0.100
783.800	22.049	0.100
783.900	51.053	0.100
784.000	21.709	0.099
784.100	21.758	0.100
784.200	29.112	0.100
784.300	24.573	0.100
784.400	10.835	0.100
784.500	37.717	0.100
784.600	22.925	0.100
784.700	16.517	0.100
784.800	38.381	0.100
784.900	31.602	0.100
785.000	27.882	0.100
785.100	41.010	0.100
785.200	28.166	0.100
785.300	20.897	0.100
785.400	43.845	0.100
785.500	33.604	0.100
785.600	31.631	0.100
785.700	23.912	0.100
785.800	30.061	0.099
785.900	29.499	0.100
786.000	46.286	0.100
786.100	31.966	0.100
786.200	45.263	0.100
786.300	44.277	0.100
786.400	48.759	0.100
786.500	42.010	0.100
786.600	36.179	0.100
786.700	42.157	0.100
786.800	53.995	0.100
786.900	56.667	0.100
787.000	56.106	0.100
787.100	42.861	0.100
787.200	44.807	0.100
787.300	43.801	0.100
787.400	44.000	0.100
787.500	34.182	0.100
787.600	51.395	0.100
787.700	48.149	0.100
787.800	51.485	0.100
787.900	58.245	0.100
788.000	69.336	0.100
788.100	44.098	0.100
788.200	40.377	0.099
788.300	61.218	0.100
788.400	54.411	0.100
788.500	36.991	0.100
788.600	61.212	0.100
788.700	43.905	0.100
788.800	60.218	0.100
788.900	50.576	0.100
789.000	41.576	0.100
789.100	50.058	0.100
789.200	53.862	0.100
789.300	53.734	0.099
789.400	46.136	0.100
789.500	55.272	0.100
789.600	45.893	0.100
789.700	57.343	0.100
789.800	45.064	0.100
789.900	36.109	0.100
790.000	51.142	0.100
790.100	64.892	0.100
790.200	67.324	0.100
790.300	57.824	0.100
790.400	63.911	0.100
790.500	55.408	0.100
790.600	50.889	0.100
790.700	64.861	0.100
790.800	53.411	0.100
790.900	54.080	0.100
791.000	54.624	0.100
791.100	56.641	0.099
791.200	59.483	0.100
791.300	63.432	0.100
791.400	60.284	0.100
791.500	62.564	0.100
791.600	47.111	0.100
791.700	72.114	0.100
791.800	72.023	0.100
791.900	58.348	0.100
792.000	59.065	0.100
792.100	56.400	0.100
792.200	61.563	0.100
792.300	65.008	0.099
792.400	60.926	0.100
792.500	53.883	0.100
792.600	67.340	0.100
792.700	69.841	0.100
792.800	77.836	0.099
792.900	70.456	0.100
793.000	58.895	0.100
793.100	62.163	0.100
793.200	73.241	0.100
793.300	66.236	0.100
793.400	68.626	0.100
793.500	73.600	0.100
793.600	62.428	0.099
793.700	74.557	0.100
793.800	64.977	0.100
793.900	70.438	0.100
794.000	66.260	0.100
794.100	70.118	0.100
794.200	72.875	0.100
794.300	60.339	0.100
794.400	64.705	0.100
794.500	78.786	0.100
794.600	71.887	0.100
794.700	69.808	0.100
794.800	69.311	0.100
794.900	58.157	0.100
795.000	76.551	0.100
795.100	71.345	0.100
795.200	73.277	0.100
795.300	69.459	0.100
795.400	69.396	0.100
795.500	72.581	0.100
795.600	52.910	0.100
795.700	76.482	0.099
795.800	73.973	0.100
795.900	71.067	0.100
796.000	76.018	0.100
796.100	63.116	0.099
796.200	63.859	0.100
796.300	69.407	0.100
796.400	66.335	0.100
796.500	67.207	0.100
796.600	78.545	0.100
796.700	64.484	0.100
796.800	83.956	0.100
796.900	73.671	0.100
797.000	74.018	0.100
797.100	80.040	0.100
797.200	63.494	0.100
797.300	73.515	0.099
797.400	85.852	0.100
797.500	67.254	0.100
797.600	79.450	0.100
797.700	74.847	0.100
797.800	68.738	0.100
797.900	58.870	0.100
798.000	74.184	0.100
798.100	73.128	0.100
798.200	74.523	0.099
798.300	63.728	0.100
798.400	88.448	0.100
798.500	68.442	0.100
798.600	79.875	0.100
798.700	68.743	0.100
798.800	65.762	0.100
798.900	81.144	0.100
799.000	72.621	0.100
799.100	72.168	0.100
799.200	74.203	0.100
799.300	80.401	0.100
799.400	64.274	0.100
799.500	73.849	0.099
799.600	74.784	0.100
799.700	73.696	0.100
799.800	76.627	0.100
799.900	74.846	0.100
800.000	76.958	0.100
