time /s	I /nA	E /V
0.100	-13.745	0.100
0.200	-6.434	0.100
0.300	-16.167	0.100
0.400	-29.697	0.100
0.500	-28.444	0.100
0.600	-21.802	0.100
0.700	-11.295	0.100
0.800	-10.815	0.100
0.900	-16.564	0.100
1.000	-21.277	0.100
1.100	-19.512	0.100
1.200	-14.030	0.100
1.300	-24.772	0.100
1.400	-21.287	0.100
1.500	-15.768	0.100
1.600	-32.018	0.100
1.700	-20.963	0.100
1.800	-15.862	0.100
1.900	-28.496	0.100
2.000	-20.144	0.100
2.100	-17.007	0.100
2.200	-11.497	0.100
2.300	-9.907	0.100
2.400	-12.638	0.100
2.500	-21.674	0.100
2.600	-14.297	0.100
2.700	-22.365	0.100
2.800	-15.854	0.100
2.900	-18.564	0.100
3.000	-24.829	0.100
3.100	-20.684	0.100
3.200	-29.648	0.100
3.300	-19.337	0.100
3.400	-18.580	0.100
3.500	-11.793	0.100
3.600	-24.364	0.100
3.700	-9.846	0.100
3.800	-1.064	0.100
3.900	-24.657	0.100
4.000	-18.964	0.100
4.100	-23.561	0.100
4.200	-10.488	0.100
4.300	-13.217	0.100
4.400	-17.303	0.100
4.500	-15.751	0.100
4.600	-33.475	0.100
4.700	-13.742	0.100
4.800	-10.995	0.100
4.900	-18.060	0.100
5.000	-20.429	0.100
5.100	-26.788	0.100
5.200	-16.861	0.100
5.300	-19.731	0.100
5.400	-9.485	0.100
5.500	-10.141	0.100
5.600	-23.869	0.100
5.700	-27.747	0.100
5.800	-26.870	0.100
5.900	-18.745	0.100
6.000	-13.090	0.100
6.100	-17.312	0.100
6.200	-3.474	0.100
6.300	-10.301	0.100
6.400	-21.555	0.100
6.500	-11.056	0.100
6.600	-31.844	0.100
6.700	-10.384	0.100
6.800	-22.392	0.100
6.900	-15.863	0.100
7.000	-8.187	0.100
7.100	-23.710	0.100
7.200	-21.047	0.100
7.300	-24.204	0.100
7.400	-7.591	0.100
7.500	-13.026	0.100
7.600	-21.654	0.100
7.700	-10.696	0.100
7.800	-11.865	0.100
7.900	-17.470	0.100
8.000	-20.404	0.100
8.100	-15.159	0.100
8.200	-26.838	0.100
8.300	-26.438	0.100
8.400	-3.818	0.100
8.500	-23.125	0.100
8.600	-3.902	0.100
8.700	-17.615	0.100
8.800	-12.002	0.100
8.900	-31.058	0.100
9.000	-22.326	0.100
9.100	-9.779	0.100
9.200	-8.761	0.100
9.300	-13.936	0.100
9.400	-21.232	0.100
9.500	-18.843	0.100
9.600	-15.027	0.100
9.700	-12.962	0.100
9.800	-17.021	0.100
9.900	-9.988	0.100
10.000	-15.941	0.100
10.100	-16.631	0.100
10.200	-23.503	0.100
10.300	-18.955	0.100
10.400	-16.256	0.100
10.500	-25.950	0.100
10.600	-16.020	0.100
10.700	-4.112	0.100
10.800	-16.797	0.100
10.900	-10.792	0.100
11.000	-24.746	0.100
11.100	-35.826	0.100
11.200	-36.378	0.100
11.300	-6.961	0.100
11.400	-10.767	0.100
11.500	-5.998	0.100
11.600	-16.450	0.100
11.700	-12.685	0.100
11.800	-24.339	0.100
11.900	-35.671	0.100
12.000	-10.138	0.100
12.100	-21.201	0.100
12.200	-17.188	0.100
12.300	-15.772	0.100
12.400	-13.148	0.100
12.500	-17.085	0.100
12.600	-25.800	0.100
12.700	-28.167	0.100
12.800	-17.038	0.100
12.900	-18.943	0.100
13.000	-11.373	0.100
13.100	-5.713	0.100
13.200	-20.374	0.100
13.300	-14.748	0.100
13.400	-19.180	0.100
13.500	-23.794	0.100
13.600	-18.314	0.100
13.700	-19.951	0.100
13.800	-18.321	0.100
13.900	-10.932	0.100
14.000	-15.855	0.100
14.100	-2.934	0.100
14.200	-10.668	0.100
14.300	-4.324	0.100
14.400	-26.919	0.100
14.500	-24.117	0.100
14.600	-16.630	0.100
14.700	-1.139	0.100
14.800	-28.963	0.100
14.900	-11.599	0.100
15.000	-27.245	0.100
15.100	-28.913	0.100
15.200	2.821	0.100
15.300	-13.667	0.100
15.400	-18.758	0.100
15.500	-19.821	0.100
15.600	-23.488	0.100
15.700	-14.206	0.100
15.800	-19.312	0.100
15.900	-21.124	0.100
16.000	-11.174	0.100
16.100	-10.627	0.100
16.200	-13.284	0.100
16.300	-18.556	0.100
16.400	-29.359	0.100
16.500	-19.942	0.100
16.600	-13.249	0.100
16.700	-15.617	0.100
16.800	-20.745	0.100
16.900	-19.868	0.100
17.000	-23.580	0.100
17.100	-22.881	0.100
17.200	-19.087	0.100
17.300	-13.463	0.100
17.400	-15.261	0.100
17.500	-23.704	0.100
17.600	2.462	0.100
17.700	-4.965	0.100
17.800	-36.239	0.100
17.900	-26.623	0.100
18.000	-10.824	0.100
18.100	-13.752	0.100
18.200	-11.975	0.100
18.300	-5.434	0.100
18.400	-26.816	0.100
18.500	-14.465	0.100
18.600	-22.319	0.100
18.700	-4.382	0.100
18.800	-15.388	0.100
18.900	-13.151	0.100
19.000	-25.669	0.100
19.100	-12.126	0.100
19.200	-22.779	0.100
19.300	-24.092	0.100
19.400	-21.800	0.100
19.500	-21.862	0.100
19.600	-7.310	0.100
19.700	-14.049	0.100
19.800	-16.547	0.100
19.900	6.116	0.100
20.000	-25.459	0.100
20.100	-23.003	0.100
20.200	-25.211	0.100
20.300	-25.060	0.100
20.400	-2.432	0.100
20.500	-14.285	0.100
20.600	-27.451	0.100
20.700	-16.228	0.100
20.800	-23.052	0.100
20.900	-23.793	0.100
21.000	-21.414	0.100
21.100	-14.354	0.100
21.200	3.750	0.100
21.300	-35.604	0.100
21.400	-14.269	0.100
21.500	-9.453	0.100
21.600	-20.173	0.100
21.700	-9.958	0.100
21.800	-15.559	0.100
21.900	-17.049	0.100
22.000	-29.003	0.100
22.100	-19.377	0.100
22.200	-12.058	0.100
22.300	-18.575	0.100
22.400	-22.241	0.100
22.500	-28.998	0.100
22.600	-0.984	0.100
22.700	-11.642	0.100
22.800	-19.972	0.100
22.900	-7.459	0.100
23.000	-31.522	0.100
23.100	-22.001	0.100
23.200	-15.379	0.100
23.300	-13.086	0.100
23.400	-18.873	0.100
23.500	-14.068	0.100
23.600	-24.661	0.100
23.700	-25.068	0.100
23.800	-16.118	0.100
23.900	-2.679	0.100
24.000	-15.577	0.100
24.100	-14.497	0.100
24.200	-13.002	0.100
24.300	-17.498	0.100
24.400	-22.874	0.100
24.500	-25.417	0.100
24.600	-6.317	0.100
24.700	-28.941	0.100
24.800	-17.386	0.100
24.900	-16.258	0.100
25.000	-16.478	0.100
25.100	-26.598	0.100
25.200	-14.536	0.100
25.300	-10.063	0.100
25.400	-17.811	0.100
25.500	-17.367	0.100
25.600	-16.969	0.100
25.700	-14.845	0.100
25.800	-23.064	0.100
25.900	-8.225	0.100
26.000	-21.649	0.100
26.100	-4.967	0.100
26.200	-5.094	0.100
26.300	-24.793	0.100
26.400	-24.838	0.100
26.500	-15.379	0.100
26.600	-18.017	0.100
26.700	-2.967	0.100
26.800	-25.215	0.100
26.900	-13.235	0.100
27.000	-9.409	0.100
27.100	-19.001	0.100
27.200	-7.208	0.100
27.300	-20.529	0.100
27.400	-25.481	0.100
27.500	-25.010	0.100
27.600	-20.463	0.100
27.700	-0.231	0.100
27.800	-23.000	0.100
27.900	-23.476	0.100
28.000	-13.038	0.100
28.100	-24.236	0.100
28.200	-19.170	0.100
28.300	-8.753	0.100
28.400	-8.778	0.100
28.500	-10.460	0.100
28.600	-23.014	0.100
28.700	-21.982	0.100
28.800	-24.816	0.100
28.900	-9.654	0.100
29.000	-12.275	0.100
29.100	-21.286	0.100
29.200	-27.683	0.100
29.300	2.132	0.099
29.400	-29.597	0.100
29.500	-24.887	0.100
29.600	-17.685	0.100
29.700	-17.675	0.100
29.800	3.841	0.100
29.900	-7.260	0.100
30.000	1.117	0.100
30.100	6.620	0.100
30.200	13.438	0.100
30.300	24.544	0.100
30.400	33.900	0.100
30.500	34.295	0.100
30.600	44.139	0.100
30.700	53.247	0.100
30.800	40.150	0.100
30.900	37.923	0.100
31.000	28.097	0.100
31.100	42.202	0.100
31.200	48.902	0.100
31.300	53.598	0.100
31.400	26.711	0.100
31.500	54.063	0.100
31.600	41.348	0.100
31.700	57.256	0.100
31.800	46.767	0.100
31.900	47.455	0.100
32.000	43.061	0.100
32.100	42.144	0.100
32.200	36.713	0.100
32.300	23.347	0.100
32.400	32.367	0.100
32.500	33.490	0.100
32.600	37.106	0.100
32.700	40.376	0.100
32.800	31.778	0.100
32.900	27.504	0.100
33.000	45.132	0.100
33.100	23.242	0.100
33.200	24.810	0.100
33.300	35.134	0.100
33.400	37.162	0.100
33.500	17.625	0.100
33.600	9.943	0.100
33.700	21.492	0.100
33.800	28.440	0.100
33.900	26.972	0.100
34.000	8.710	0.100
34.100	25.870	0.100
34.200	41.048	0.100
34.300	15.165	0.100
34.400	21.691	0.100
34.500	41.461	0.100
34.600	35.668	0.100
34.700	37.314	0.100
34.800	28.938	0.100
34.900	29.247	0.100
35.000	31.099	0.100
35.100	34.831	0.100
35.200	36.815	0.100
35.300	49.673	0.100
35.400	43.026	0.100
35.500	44.906	0.100
35.600	45.843	0.100
35.700	45.407	0.100
35.800	51.283	0.100
35.900	46.268	0.100
36.000	59.767	0.100
36.100	50.414	0.100
36.200	49.212	0.100
36.300	54.292	0.100
36.400	61.229	0.100
36.500	44.527	0.100
36.600	35.547	0.100
36.700	49.584	0.100
36.800	37.773	0.100
36.900	57.176	0.100
37.000	53.296	0.100
37.100	65.053	0.100
37.200	64.273	0.100
37.300	60.735	0.100
37.400	63.045	0.100
37.500	64.049	0.100
37.600	57.864	0.100
37.700	58.770	0.100
37.800	70.746	0.100
37.900	61.777	0.100
38.000	78.629	0.100
38.100	44.272	0.100
38.200	67.979	0.100
38.300	71.216	0.100
38.400	72.665	0.100
38.500	63.423	0.100
38.600	60.378	0.100
38.700	62.288	0.100
38.800	64.983	0.100
38.900	67.566	0.100
39.000	67.001	0.100
39.100	66.273	0.100
39.200	65.215	0.100
39.300	66.338	0.100
39.400	63.466	0.100
39.500	73.863	0.100
39.600	66.271	0.100
39.700	76.695	0.100
39.800	82.295	0.100
39.900	66.087	0.100
40.000	78.878	0.100
40.100	69.343	0.100
40.200	62.386	0.100
40.300	63.813	0.100
40.400	55.208	0.100
40.500	68.805	0.100
40.600	70.384	0.100
40.700	67.127	0.100
40.800	75.724	0.100
40.900	71.468	0.100
41.000	77.187	0.100
41.100	71.987	0.100
41.200	71.881	0.100
41.300	63.096	0.100
41.400	77.734	0.100
41.500	74.990	0.100
41.600	78.558	0.100
41.700	66.495	0.100
41.800	73.237	0.100
41.900	78.908	0.100
42.000	67.526	0.100
42.100	76.100	0.100
42.200	70.392	0.100
42.300	66.479	0.100
42.400	73.969	0.100
42.500	76.469	0.100
42.600	71.890	0.100
42.700	81.564	0.100
42.800	81.563	0.100
42.900	61.829	0.100
43.000	80.531	0.100
43.100	74.359	0.100
43.200	65.615	0.100
43.300	66.640	0.100
43.400	78.346	0.100
43.500	56.319	0.100
43.600	68.733	0.100
43.700	73.210	0.100
43.800	61.115	0.100
43.900	82.391	0.100
44.000	76.815	0.100
44.100	67.418	0.100
44.200	73.070	0.100
44.300	62.165	0.100
44.400	52.724	0.100
44.500	60.655	0.100
44.600	79.258	0.100
44.700	72.481	0.100
44.800	76.856	0.100
44.900	71.431	0.100
45.000	77.350	0.100
45.100	59.130	0.100
45.200	81.472	0.100
45.300	74.432	0.100
45.400	65.238	0.100
45.500	68.932	0.100
45.600	66.343	0.100
45.700	70.022	0.100
45.800	65.326	0.100
45.900	85.529	0.100
46.000	62.273	0.100
46.100	68.312	0.100
46.200	72.932	0.100
46.300	61.204	0.100
46.400	70.407	0.100
46.500	60.932	0.100
46.600	69.521	0.100
46.700	65.874	0.100
46.800	59.934	0.100
46.900	67.906	0.100
47.000	61.511	0.100
47.100	61.122	0.100
47.200	63.457	0.100
47.300	77.016	0.100
47.400	69.588	0.100
47.500	67.359	0.100
47.600	78.331	0.100
47.700	62.348	0.100
47.800	59.295	0.100
47.900	72.624	0.100
48.000	75.241	0.100
48.100	70.923	0.100
48.200	61.160	0.100
48.300	66.670	0.100
48.400	65.982	0.100
48.500	56.634	0.100
48.600	73.333	0.100
48.700	64.355	0.100
48.800	61.419	0.100
48.900	60.750	0.100
49.000	65.255	0.100
49.100	54.851	0.100
49.200	66.494	0.100
49.300	54.747	0.100
49.400	64.677	0.100
49.500	60.159	0.100
49.600	56.397	0.100
49.700	60.871	0.100
49.800	61.238	0.100
49.900	65.207	0.100
50.000	48.590	0.100
50.100	60.810	0.100
50.200	75.419	0.100
50.300	57.791	0.100
50.400	52.283	0.100
50.500	62.939	0.100
50.600	57.086	0.100
50.700	69.220	0.100
50.800	77.143	0.100
50.900	58.992	0.100
51.000	70.367	0.100
51.100	52.256	0.100
51.200	65.377	0.100
51.300	67.400	0.100
51.400	51.914	0.100
51.500	69.129	0.100
51.600	55.330	0.100
51.700	53.225	0.100
51.800	50.362	0.100
51.900	60.268	0.100
52.000	63.176	0.100
52.100	56.502	0.100
52.200	59.530	0.100
52.300	48.262	0.100
52.400	54.785	0.100
52.500	47.696	0.100
52.600	59.065	0.100
52.700	50.654	0.100
52.800	71.981	0.100
52.900	48.784	0.100
53.000	55.117	0.100
53.100	69.561	0.100
53.200	61.626	0.100
53.300	62.628	0.100
53.400	58.343	0.100
53.500	57.576	0.100
53.600	67.363	0.100
53.700	60.678	0.100
53.800	58.599	0.100
53.900	48.649	0.100
54.000	57.558	0.100
54.100	70.594	0.100
54.200	61.589	0.100
54.300	42.612	0.100
54.400	57.330	0.100
54.500	54.912	0.100
54.600	72.735	0.100
54.700	67.222	0.100
54.800	40.102	0.100
54.900	64.318	0.100
55.000	60.389	0.100
55.100	64.956	0.100
55.200	56.029	0.100
55.300	55.388	0.100
55.400	54.743	0.100
55.500	54.329	0.100
55.600	53.844	0.100
55.700	56.786	0.100
55.800	33.524	0.100
55.900	58.678	0.100
56.000	56.707	0.100
56.100	40.124	0.100
56.200	75.635	0.100
56.300	54.969	0.100
56.400	40.797	0.100
56.500	54.511	0.100
56.600	45.830	0.100
56.700	52.766	0.100
56.800	67.445	0.100
56.900	55.945	0.100
57.000	55.261	0.100
57.100	59.327	0.100
57.200	60.591	0.100
57.300	47.209	0.100
57.400	53.468	0.100
57.500	57.440	0.100
57.600	59.927	0.100
57.700	55.431	0.100
57.800	51.366	0.100
57.900	65.165	0.100
58.000	49.505	0.100
58.100	59.525	0.100
58.200	57.391	0.100
58.300	35.185	0.100
58.400	53.548	0.100
58.500	74.811	0.100
58.600	59.707	0.100
58.700	39.600	0.100
58.800	61.013	0.100
58.900	53.114	0.100
59.000	41.820	0.100
59.100	55.308	0.100
59.200	38.391	0.100
59.300	51.748	0.100
59.400	48.306	0.100
59.500	50.741	0.100
59.600	57.300	0.100
59.700	61.322	0.100
59.800	58.045	0.100
59.900	52.109	0.100
60.000	58.578	0.100
60.100	61.111	0.100
60.200	50.990	0.100
60.300	48.880	0.100
60.400	59.582	0.100
60.500	47.521	0.100
60.600	57.949	0.100
60.700	62.851	0.100
60.800	51.111	0.100
60.900	63.595	0.100
61.000	58.692	0.100
61.100	50.679	0.100
61.200	51.893	0.100
61.300	46.886	0.100
61.400	50.257	0.100
61.500	47.865	0.100
61.600	62.565	0.100
61.700	60.012	0.100
61.800	45.879	0.100
61.900	57.887	0.100
62.000	62.578	0.100
62.100	58.679	0.100
62.200	56.546	0.100
62.300	56.388	0.100
62.400	57.423	0.100
62.500	54.926	0.100
62.600	45.555	0.100
62.700	59.705	0.100
62.800	60.723	0.100
62.900	45.240	0.100
63.000	55.210	0.100
63.100	62.649	0.100
63.200	57.247	0.100
63.300	53.990	0.100
63.400	59.565	0.100
63.500	61.144	0.100
63.600	48.957	0.100
63.700	58.885	0.100
63.800	37.027	0.100
63.900	34.420	0.100
64.000	65.448	0.100
64.100	66.106	0.100
64.200	55.029	0.100
64.300	53.203	0.100
64.400	52.324	0.100
64.500	55.676	0.100
64.600	45.630	0.100
64.700	38.186	0.100
64.800	72.443	0.100
64.900	58.238	0.100
65.000	65.411	0.100
65.100	60.516	0.100
65.200	39.750	0.100
65.300	46.481	0.100
65.400	66.967	0.100
65.500	54.203	0.100
65.600	51.846	0.100
65.700	63.524	0.100
65.800	54.002	0.100
65.900	57.357	0.100
66.000	50.926	0.100
66.100	52.053	0.100
66.200	63.283	0.100
66.300	54.431	0.100
66.400	46.751	0.100
66.500	42.249	0.100
66.600	41.674	0.100
66.700	70.850	0.100
66.800	62.487	0.100
66.900	46.375	0.100
67.000	75.792	0.100
67.100	50.723	0.099
67.200	47.804	0.100
67.300	58.189	0.100
67.400	61.277	0.100
67.500	64.044	0.100
67.600	62.160	0.100
67.700	53.125	0.100
67.800	61.352	0.100
67.900	52.274	0.100
68.000	44.898	0.100
68.100	66.619	0.100
68.200	66.961	0.100
68.300	63.649	0.100
68.400	55.097	0.100
68.500	58.157	0.100
68.600	55.018	0.100
68.700	58.671	0.100
68.800	65.783	0.100
68.900	60.495	0.100
69.000	52.896	0.100
69.100	58.029	0.100
69.200	60.792	0.100
69.300	60.545	0.100
69.400	55.063	0.100
69.500	64.770	0.100
69.600	57.604	0.100
69.700	60.866	0.100
69.800	58.697	0.100
69.900	52.127	0.100
70.000	66.670	0.100
70.100	50.350	0.100
70.200	52.066	0.100
70.300	58.576	0.100
70.400	59.040	0.100
70.500	61.937	0.100
70.600	52.397	0.100
70.700	68.557	0.100
70.800	64.980	0.100
70.900	63.562	0.100
71.000	65.862	0.099
71.100	52.005	0.100
71.200	59.020	0.100
71.300	57.661	0.100
71.400	61.567	0.100
71.500	55.132	0.100
71.600	60.896	0.100
71.700	61.119	0.100
71.800	65.841	0.100
71.900	86.501	0.100
72.000	49.888	0.100
72.100	51.320	0.100
72.200	62.814	0.100
72.300	69.475	0.100
72.400	55.981	0.100
72.500	61.223	0.100
72.600	62.855	0.100
72.700	49.907	0.100
72.800	57.116	0.100
72.900	69.599	0.100
73.000	61.427	0.099
73.100	65.792	0.100
73.200	59.616	0.099
73.300	58.762	0.100
73.400	68.067	0.100
73.500	61.850	0.100
73.600	58.821	0.100
73.700	65.409	0.100
73.800	70.613	0.100
73.900	70.008	0.100
74.000	51.931	0.100
74.100	57.729	0.100
74.200	58.797	0.100
74.300	70.700	0.100
74.400	75.474	0.100
74.500	62.372	0.100
74.600	56.541	0.100
74.700	68.506	0.100
74.800	67.054	0.100
74.900	69.787	0.100
75.000	70.457	0.100
75.100	49.901	0.100
75.200	70.412	0.100
75.300	66.682	0.100
75.400	67.063	0.100
75.500	62.931	0.100
75.600	66.319	0.100
75.700	72.520	0.100
75.800	70.595	0.100
75.900	52.288	0.100
76.000	63.261	0.100
76.100	59.516	0.100
76.200	62.408	0.100
76.300	68.702	0.100
76.400	72.320	0.100
76.500	79.066	0.100
76.600	78.410	0.100
76.700	68.930	0.100
76.800	46.660	0.100
76.900	62.406	0.100
77.000	64.721	0.100
77.100	64.491	0.100
77.200	59.556	0.100
77.300	67.795	0.100
77.400	57.885	0.100
77.500	71.693	0.100
77.600	72.025	0.100
77.700	62.388	0.100
77.800	75.443	0.100
77.900	63.704	0.100
78.000	63.243	0.100
78.100	74.142	0.100
78.200	76.165	0.100
78.300	71.735	0.100
78.400	58.350	0.100
78.500	63.612	0.100
78.600	61.607	0.099
78.700	65.251	0.100
78.800	61.088	0.100
78.900	71.094	0.100
79.000	67.757	0.100
79.100	67.033	0.100
79.200	65.981	0.100
79.300	70.886	0.100
79.400	63.121	0.100
79.500	64.301	0.100
79.600	62.396	0.100
79.700	67.361	0.100
79.800	71.173	0.100
79.900	58.973	0.100
80.000	73.126	0.100
80.100	63.330	0.100
80.200	67.905	0.100
80.300	57.957	0.100
80.400	64.625	0.100
80.500	59.728	0.100
80.600	77.624	0.100
80.700	62.796	0.100
80.800	73.356	0.100
80.900	61.407	0.100
81.000	60.627	0.100
81.100	72.841	0.100
81.200	74.887	0.100
81.300	56.081	0.100
81.400	70.306	0.100
81.500	69.240	0.100
81.600	65.526	0.100
81.700	66.362	0.100
81.800	80.632	0.100
81.900	59.208	0.100
82.000	52.988	0.100
82.100	85.150	0.100
82.200	73.822	0.100
82.300	63.295	0.100
82.400	58.014	0.100
82.500	73.413	0.100
82.600	57.704	0.100
82.700	69.886	0.100
82.800	69.394	0.100
82.900	72.791	0.100
83.000	67.704	0.100
83.100	69.597	0.100
83.200	51.468	0.100
83.300	82.923	0.100
83.400	72.855	0.100
83.500	78.379	0.100
83.600	58.088	0.100
83.700	62.444	0.100
83.800	66.435	0.100
83.900	70.258	0.100
84.000	81.206	0.100
84.100	65.826	0.100
84.200	49.070	0.100
84.300	72.113	0.100
84.400	68.909	0.100
84.500	56.939	0.100
84.600	69.930	0.100
84.700	76.038	0.100
84.800	75.585	0.100
84.900	74.859	0.100
85.000	52.675	0.100
85.100	71.045	0.100
85.200	60.295	0.100
85.300	72.362	0.100
85.400	70.428	0.100
85.500	66.356	0.100
85.600	70.482	0.100
85.700	70.224	0.100
85.800	71.469	0.100
85.900	77.001	0.100
86.000	74.269	0.100
86.100	59.148	0.100
86.200	52.863	0.100
86.300	70.393	0.100
86.400	73.087	0.100
86.500	64.415	0.100
86.600	74.242	0.100
86.700	70.298	0.100
86.800	69.855	0.100
86.900	66.790	0.100
87.000	65.420	0.100
87.100	64.928	0.100
87.200	74.248	0.100
87.300	60.623	0.100
87.400	68.112	0.100
87.500	68.752	0.100
87.600	57.592	0.100
87.700	76.178	0.100
87.800	64.374	0.100
87.900	65.579	0.100
88.000	78.685	0.100
88.100	73.398	0.100
88.200	71.342	0.100
88.300	73.241	0.100
88.400	61.667	0.100
88.500	67.169	0.100
88.600	86.790	0.100
88.700	67.453	0.100
88.800	67.864	0.100
88.900	63.023	0.100
89.000	72.268	0.100
89.100	75.714	0.100
89.200	64.465	0.100
89.300	72.162	0.100
89.400	73.475	0.100
89.500	61.006	0.100
89.600	80.103	0.100
89.700	64.811	0.100
89.800	65.249	0.100
89.900	59.107	0.100
90.000	47.647	0.100
90.100	30.508	0.100
90.200	23.832	0.100
90.300	16.072	0.100
90.400	5.250	0.100
90.500	-11.307	0.100
90.600	-15.608	0.100
90.700	-2.351	0.100
90.800	-21.949	0.100
90.900	-17.431	0.100
91.000	-20.673	0.100
91.100	-28.054	0.100
91.200	-33.934	0.100
91.300	-39.899	0.100
91.400	-26.237	0.100
91.500	-47.155	0.100
91.600	-47.808	0.100
91.700	-48.205	0.100
91.800	-38.139	0.100
91.900	-33.120	0.100
92.000	-46.421	0.100
92.100	-42.856	0.100
92.200	-45.903	0.100
92.300	-35.190	0.100
92.400	-42.903	0.100
92.500	-40.237	0.100
92.600	-32.356	0.100
92.700	-40.870	0.100
92.800	-59.595	0.100
92.900	-53.121	0.100
93.000	-40.506	0.100
93.100	-41.540	0.100
93.200	-44.157	0.100
93.300	-37.452	0.100
93.400	-40.196	0.100
93.500	-30.610	0.100
93.600	-25.462	0.100
93.700	-30.102	0.100
93.800	-46.314	0.100
93.900	-42.080	0.100
94.000	-36.082	0.100
94.100	-48.869	0.100
94.200	-34.876	0.100
94.300	-24.745	0.100
94.400	-19.059	0.100
94.500	-52.648	0.100
94.600	-36.037	0.100
94.700	-25.726	0.100
94.800	-29.569	0.100
94.900	-21.908	0.100
95.000	-47.757	0.100
95.100	-36.352	0.100
95.200	-26.048	0.100
95.300	-17.954	0.100
95.400	-28.878	0.100
95.500	-29.483	0.100
95.600	-21.244	0.100
95.700	-34.555	0.100
95.800	-20.969	0.100
95.900	-38.629	0.100
96.000	-31.640	0.100
96.100	-25.119	0.100
96.200	-19.591	0.100
96.300	-19.982	0.100
96.400	-25.854	0.100
96.500	-27.206	0.100
96.600	-32.349	0.100
96.700	-31.064	0.100
96.800	-25.068	0.100
96.900	-20.053	0.100
97.000	-43.648	0.100
97.100	-25.561	0.100
97.200	-17.437	0.100
97.300	-12.042	0.100
97.400	-19.582	0.100
97.500	-25.665	0.100
97.600	-35.224	0.100
97.700	-39.100	0.100
97.800	-36.377	0.100
97.900	-18.278	0.100
98.000	-15.407	0.100
98.100	-22.104	0.100
98.200	-25.219	0.100
98.300	-37.284	0.100
98.400	-25.730	0.100
98.500	-21.087	0.100
98.600	-25.446	0.100
98.700	-30.885	0.100
98.800	-19.436	0.100
98.900	-17.658	0.100
99.000	-28.628	0.100
99.100	-14.094	0.100
99.200	-40.149	0.100
99.300	-21.969	0.100
99.400	-22.340	0.099
99.500	-21.265	0.100
99.600	-30.827	0.100
99.700	-34.782	0.100
99.800	-19.633	0.100
99.900	-28.265	0.100
100.000	-15.672	0.100
100.100	-20.604	0.100
100.200	-23.720	0.100
100.300	-17.853	0.100
100.400	-23.961	0.100
100.500	-26.013	0.100
100.600	-23.741	0.100
100.700	-19.500	0.100
100.800	-23.821	0.100
100.900	-22.322	0.100
101.000	-35.383	0.100
101.100	-25.256	0.100
101.200	-26.979	0.100
101.300	-19.757	0.100
101.400	-28.908	0.100
101.500	-36.322	0.100
101.600	-27.835	0.100
101.700	-35.177	0.100
101.800	-9.859	0.100
101.900	-31.202	0.100
102.000	-33.208	0.100
102.100	-27.997	0.100
102.200	-19.173	0.100
102.300	-10.274	0.100
102.400	-47.142	0.100
102.500	-19.509	0.100
102.600	-17.539	0.100
102.700	-22.806	0.100
102.800	-30.311	0.100
102.900	-24.348	0.100
103.000	-40.302	0.100
103.100	-41.500	0.100
103.200	-23.753	0.100
103.300	-13.289	0.100
103.400	-28.008	0.100
103.500	-34.699	0.100
103.600	-29.734	0.100
103.700	-42.311	0.100
103.800	-24.801	0.100
103.900	-33.938	0.100
104.000	-28.666	0.100
104.100	-21.685	0.100
104.200	-40.432	0.100
104.300	-33.373	0.100
104.400	-27.160	0.100
104.500	-22.973	0.100
104.600	-29.472	0.100
104.700	-14.918	0.100
104.800	-17.499	0.100
104.900	-26.289	0.100
105.000	-25.301	0.099
105.100	-30.479	0.100
105.200	-30.345	0.100
105.300	-30.000	0.100
105.400	-24.136	0.100
105.500	-33.801	0.100
105.600	-31.806	0.100
105.700	-32.313	0.100
105.800	-28.419	0.100
105.900	-33.135	0.100
106.000	-36.012	0.100
106.100	-31.181	0.100
106.200	-30.791	0.100
106.300	-37.913	0.100
106.400	-32.294	0.100
106.500	-29.506	0.100
106.600	-43.583	0.099
106.700	-17.713	0.099
106.800	-22.110	0.100
106.900	-22.040	0.100
107.000	-35.442	0.100
107.100	-28.634	0.100
107.200	-31.364	0.100
107.300	-30.313	0.099
107.400	-27.946	0.100
107.500	-27.517	0.100
107.600	-27.870	0.100
107.700	-35.236	0.100
107.800	-32.315	0.099
107.900	-19.465	0.100
108.000	-27.666	0.100
108.100	-32.495	0.100
108.200	-36.903	0.100
108.300	-40.816	0.100
108.400	-36.696	0.100
108.500	-33.178	0.100
108.600	-18.992	0.100
108.700	-36.194	0.100
108.800	-22.850	0.100
108.900	-26.509	0.100
109.000	-40.694	0.100
109.100	-25.079	0.100
109.200	-31.805	0.100
109.300	-35.106	0.100
109.400	-27.003	0.100
109.500	-44.744	0.100
109.600	-30.117	0.100
109.700	-28.169	0.099
109.800	-28.507	0.100
109.900	-35.899	0.100
110.000	-34.653	0.100
110.100	-18.815	0.100
110.200	-35.568	0.100
110.300	-34.378	0.100
110.400	-25.437	0.100
110.500	-35.355	0.100
110.600	-35.048	0.100
110.700	-22.875	0.100
110.800	-30.146	0.100
110.900	-36.235	0.100
111.000	-22.493	0.100
111.100	-28.583	0.100
111.200	-31.241	0.100
111.300	-44.092	0.100
111.400	-32.216	0.100
111.500	-47.208	0.100
111.600	-25.701	0.100
111.700	-26.671	0.100
111.800	-53.203	0.100
111.900	-42.944	0.099
112.000	-37.759	0.099
112.100	-35.020	0.100
112.200	-22.839	0.100
112.300	-35.242	0.100
112.400	-39.570	0.100
112.500	-18.754	0.100
112.600	-35.493	0.100
112.700	-27.138	0.100
112.800	-37.158	0.100
112.900	-24.967	0.099
113.000	-32.807	0.100
113.100	-31.280	0.099
113.200	-27.020	0.100
113.300	-44.041	0.100
113.400	-36.439	0.100
113.500	-31.827	0.100
113.600	-32.137	0.100
113.700	-36.301	0.100
113.800	-29.421	0.100
113.900	-40.772	0.099
114.000	-28.682	0.100
114.100	-19.090	0.100
114.200	-27.307	0.099
114.300	-44.538	0.100
114.400	-37.077	0.100
114.500	-53.273	0.099
114.600	-27.717	0.100
114.700	-29.742	0.100
114.800	-37.474	0.100
114.900	-21.469	0.100
115.000	-24.433	0.100
115.100	-35.495	0.100
115.200	-37.256	0.100
115.300	-30.106	0.100
115.400	-39.524	0.100
115.500	-39.866	0.100
115.600	-39.190	0.100
115.700	-18.319	0.100
115.800	-24.215	0.100
115.900	-22.610	0.100
116.000	-36.371	0.100
116.100	-39.674	0.100
116.200	-29.365	0.100
116.300	-28.989	0.100
116.400	-40.837	0.100
116.500	-29.179	0.099
116.600	-34.316	0.100
116.700	-30.622	0.100
116.800	-17.417	0.100
116.900	-34.182	0.100
117.000	-41.755	0.100
117.100	-38.824	0.100
117.200	-32.490	0.100
117.300	-34.528	0.100
117.400	-39.292	0.100
117.500	-35.031	0.100
117.600	-42.167	0.100
117.700	-35.434	0.100
117.800	-37.775	0.100
117.900	-29.189	0.100
118.000	-36.660	0.100
118.100	-24.266	0.100
118.200	-37.666	0.100
118.300	-30.776	0.100
118.400	-43.412	0.100
118.500	-39.304	0.100
118.600	-24.222	0.100
118.700	-37.628	0.100
118.800	-32.699	0.100
118.900	-35.146	0.100
119.000	-41.040	0.100
119.100	-45.941	0.100
119.200	-27.736	0.100
119.300	-27.402	0.100
119.400	-31.330	0.100
119.500	-27.264	0.100
119.600	-39.189	0.100
119.700	-30.203	0.100
119.800	-31.049	0.100
119.900	-31.539	0.100
120.000	-39.738	0.100
120.100	-27.696	0.100
120.200	-46.259	0.100
120.300	-24.619	0.100
120.400	-37.298	0.100
120.500	-36.716	0.100
120.600	-27.529	0.100
120.700	-32.938	0.100
120.800	-28.229	0.100
120.900	-32.795	0.100
121.000	-33.374	0.100
121.100	-26.668	0.100
121.200	-29.239	0.100
121.300	-29.845	0.100
121.400	-18.456	0.100
121.500	-27.217	0.100
121.600	-28.585	0.100
121.700	-27.572	0.100
121.800	-34.683	0.100
121.900	-33.649	0.100
122.000	-19.462	0.100
122.100	-26.514	0.100
122.200	-31.609	0.100
122.300	-39.475	0.100
122.400	-28.170	0.100
122.500	-30.117	0.100
122.600	-32.525	0.100
122.700	-34.377	0.100
122.800	-33.019	0.100
122.900	-31.414	0.100
123.000	-33.678	0.100
123.100	-31.999	0.100
123.200	-29.959	0.100
123.300	-32.221	0.100
123.400	-20.859	0.100
123.500	-28.562	0.100
123.600	-34.217	0.100
123.700	-28.863	0.100
123.800	-52.022	0.100
123.900	-43.586	0.100
124.000	-19.669	0.100
124.100	-23.183	0.100
124.200	-27.512	0.100
124.300	-17.023	0.100
124.400	-39.108	0.100
124.500	-40.997	0.100
124.600	-26.007	0.100
124.700	-43.233	0.100
124.800	-31.854	0.100
124.900	-26.522	0.100
125.000	-25.120	0.100
125.100	-32.998	0.100
125.200	-38.023	0.100
125.300	-31.325	0.100
125.400	-41.359	0.100
125.500	-41.475	0.100
125.600	-22.247	0.100
125.700	-37.463	0.100
125.800	-34.952	0.100
125.900	-19.394	0.100
126.000	-27.893	0.100
126.100	-30.435	0.100
126.200	-36.082	0.099
126.300	-28.509	0.100
126.400	-24.342	0.100
126.500	-36.202	0.100
126.600	-21.986	0.100
126.700	-35.071	0.100
126.800	-25.552	0.100
126.900	-29.311	0.100
127.000	-44.503	0.100
127.100	-38.595	0.100
127.200	-34.156	0.100
127.300	-25.674	0.100
127.400	-29.558	0.100
127.500	-45.296	0.100
127.600	-26.911	0.100
127.700	-41.226	0.100
127.800	-23.337	0.100
127.900	-31.714	0.100
128.000	-38.982	0.100
128.100	-28.346	0.100
128.200	-31.105	0.099
128.300	-32.343	0.100
128.400	-31.190	0.100
128.500	-32.191	0.100
128.600	-23.668	0.100
128.700	-23.740	0.100
128.800	-28.822	0.100
128.900	-37.714	0.100
129.000	-44.829	0.100
129.100	-24.211	0.100
129.200	-37.127	0.100
129.300	-29.746	0.100
129.400	-17.818	0.100
129.500	-27.990	0.099
129.600	-37.007	0.099
129.700	-25.119	0.100
129.800	-9.138	0.100
129.900	-33.164	0.100
130.000	-40.824	0.100
130.100	-51.076	0.100
130.200	-38.828	0.100
130.300	-35.267	0.100
130.400	-25.869	0.100
130.500	-25.266	0.100
130.600	-36.581	0.100
130.700	-25.215	0.100
130.800	-28.740	0.100
130.900	-41.712	0.099
131.000	-29.901	0.100
131.100	-29.189	0.100
131.200	-29.039	0.100
131.300	-23.898	0.100
131.400	-37.352	0.100
131.500	-17.927	0.100
131.600	-21.940	0.100
131.700	-33.292	0.099
131.800	-34.987	0.100
131.900	-30.642	0.099
132.000	-33.778	0.100
132.100	-33.514	0.099
132.200	-37.645	0.099
132.300	-19.272	0.100
132.400	-20.871	0.100
132.500	-31.820	0.100
132.600	-32.385	0.099
132.700	-28.446	0.100
132.800	-33.705	0.100
132.900	-30.777	0.100
133.000	-24.459	0.100
133.100	-26.903	0.099
133.200	-35.275	0.099
133.300	-28.266	0.099
133.400	-22.919	0.100
133.500	-26.955	0.100
133.600	-34.438	0.100
133.700	-30.161	0.100
133.800	-26.624	0.100
133.900	-26.387	0.100
134.000	-22.033	0.100
134.100	-31.341	0.100
134.200	-36.479	0.100
134.300	-44.150	0.100
134.400	-35.739	0.100
134.500	-30.784	0.100
134.600	-27.229	0.100
134.700	-37.185	0.100
134.800	-18.620	0.099
134.900	-11.819	0.100
135.000	-40.474	0.100
135.100	-28.437	0.100
135.200	-40.367	0.100
135.300	-47.900	0.100
135.400	-26.231	0.100
135.500	-25.540	0.100
135.600	-30.033	0.100
135.700	-29.617	0.099
135.800	-31.428	0.100
135.900	-37.489	0.099
136.000	-29.566	0.100
136.100	-38.926	0.100
136.200	-34.226	0.099
136.300	-38.594	0.100
136.400	-35.232	0.099
136.500	-21.889	0.100
136.600	-8.556	0.100
136.700	-24.358	0.099
136.800	-35.208	0.100
136.900	-23.117	0.100
137.000	-29.669	0.099
137.100	-31.407	0.100
137.200	-40.520	0.100
137.300	-25.955	0.100
137.400	-27.308	0.100
137.500	-27.928	0.100
137.600	-32.577	0.100
137.700	-27.880	0.100
137.800	-19.701	0.100
137.900	-30.581	0.100
138.000	-32.967	0.100
138.100	-33.905	0.100
138.200	-26.777	0.100
138.300	-27.185	0.100
138.400	-27.198	0.100
138.500	-33.392	0.100
138.600	-26.264	0.100
138.700	-14.153	0.100
138.800	-22.044	0.100
138.900	-41.508	0.100
139.000	-26.305	0.100
139.100	-38.299	0.100
139.200	-17.128	0.100
139.300	-26.028	0.100
139.400	-19.698	0.100
139.500	-14.989	0.100
139.600	-25.613	0.100
139.700	-34.222	0.100
139.800	-36.842	0.099
139.900	-25.672	0.100
140.000	-40.122	0.100
140.100	-21.689	0.099
140.200	-23.448	0.099
140.300	-27.039	0.100
140.400	-22.111	0.100
140.500	-22.548	0.100
140.600	-32.055	0.099
140.700	-18.601	0.100
140.800	-35.950	0.100
140.900	-35.886	0.100
141.000	-25.330	0.100
141.100	-35.949	0.100
141.200	-29.668	0.099
141.300	-33.909	0.100
141.400	-34.335	0.100
141.500	-25.975	0.100
141.600	-32.042	0.099
141.700	-21.553	0.100
141.800	-20.886	0.100
141.900	-38.691	0.100
142.000	-33.811	0.099
142.100	-32.912	0.099
142.200	-28.634	0.099
142.300	-17.901	0.099
142.400	-25.810	0.100
142.500	-27.406	0.100
142.600	-30.484	0.100
142.700	-23.716	0.100
142.800	-14.426	0.100
142.900	-37.552	0.100
143.000	-32.046	0.100
143.100	-29.518	0.100
143.200	-29.958	0.100
143.300	-16.477	0.100
143.400	-22.501	0.100
143.500	-33.770	0.100
143.600	-23.043	0.100
143.700	-15.583	0.100
143.800	-30.538	0.100
143.900	-29.421	0.100
144.000	-31.594	0.100
144.100	-25.966	0.100
144.200	-30.188	0.099
144.300	-32.311	0.100
144.400	-32.274	0.100
144.500	-26.450	0.100
144.600	-40.067	0.099
144.700	-26.117	0.099
144.800	-29.194	0.100
144.900	-30.543	0.100
145.000	-15.372	0.100
145.100	-37.572	0.100
145.200	-35.474	0.099
145.300	-27.475	0.100
145.400	-20.736	0.100
145.500	-27.971	0.099
145.600	-22.087	0.100
145.700	-26.082	0.100
145.800	-29.541	0.100
145.900	-26.925	0.100
146.000	-21.145	0.099
146.100	-29.244	0.100
146.200	-49.279	0.100
146.300	-32.067	0.100
146.400	-14.726	0.099
146.500	-26.944	0.100
146.600	-24.002	0.099
146.700	-15.494	0.099
146.800	-43.319	0.100
146.900	-24.303	0.099
147.000	-23.850	0.100
147.100	-21.781	0.100
147.200	-30.444	0.099
147.300	-29.724	0.100
147.400	-25.016	0.100
147.500	-24.816	0.099
147.600	-23.589	0.100
147.700	-22.697	0.100
147.800	-20.383	0.099
147.900	-22.849	0.100
148.000	-23.440	0.100
148.100	-27.352	0.099
148.200	-20.345	0.100
148.300	-35.670	0.100
148.400	-27.792	0.100
148.500	-29.493	0.100
148.600	-32.338	0.099
148.700	-31.696	0.099
148.800	-31.666	0.099
148.900	-24.216	0.100
149.000	-37.070	0.100
149.100	-23.183	0.099
149.200	-11.847	0.100
149.300	-25.543	0.099
149.400	-36.633	0.099
149.500	-20.843	0.099
149.600	-18.479	0.100
149.700	-31.542	0.100
149.800	-23.976	0.099
149.900	-28.964	0.100
150.000	-12.404	0.100
150.100	-28.835	0.099
150.200	-30.961	0.100
150.300	-16.666	0.100
150.400	-22.574	0.100
150.500	-27.038	0.099
150.600	-41.301	0.100
150.700	-21.191	0.100
150.800	-28.944	0.100
150.900	-24.666	0.100
151.000	-28.340	0.100
151.100	-35.313	0.099
151.200	-28.433	0.099
151.300	-31.101	0.100
151.400	-26.675	0.100
151.500	-23.220	0.100
151.600	-20.881	0.099
151.700	-21.712	0.100
151.800	-17.585	0.100
151.900	-26.993	0.100
152.000	-25.366	0.100
152.100	-36.780	0.099
152.200	-22.936	0.100
152.300	-26.249	0.099
152.400	-24.503	0.099
152.500	-21.912	0.099
152.600	-34.292	0.100
152.700	-27.046	0.099
152.800	-44.258	0.100
152.900	-14.162	0.100
153.000	-26.558	0.100
153.100	-20.481	0.099
153.200	-22.004	0.100
153.300	-38.716	0.099
153.400	-19.221	0.100
153.500	-21.649	0.100
153.600	-38.338	0.099
153.700	-15.670	0.100
153.800	-23.738	0.099
153.900	-32.740	0.100
154.000	-15.285	0.100
154.100	-4.562	0.100
154.200	-24.970	0.100
154.300	-47.881	0.099
154.400	-13.717	0.100
154.500	-23.195	0.100
154.600	-24.425	0.100
154.700	-20.872	0.100
154.800	-30.463	0.100
154.900	-17.087	0.100
155.000	-44.869	0.100
155.100	-23.973	0.100
155.200	-18.598	0.100
155.300	-31.409	0.100
155.400	-18.022	0.100
155.500	-15.410	0.100
155.600	-17.528	0.100
155.700	-24.235	0.100
155.800	-12.057	0.100
155.900	-25.955	0.100
156.000	-17.263	0.100
156.100	-25.227	0.100
156.200	-30.972	0.099
156.300	-31.199	0.099
156.400	-18.091	0.100
156.500	-28.453	0.100
156.600	-35.253	0.100
156.700	-21.537	0.100
156.800	-19.143	0.100
156.900	-28.332	0.100
157.000	-26.762	0.100
157.100	-25.511	0.100
157.200	-32.357	0.100
157.300	-19.080	0.099
157.400	-18.927	0.100
157.500	-22.789	0.100
157.600	-29.575	0.100
157.700	-12.229	0.100
157.800	-15.349	0.100
157.900	-15.168	0.100
158.000	-32.826	0.100
158.100	-23.442	0.100
158.200	-11.207	0.100
158.300	-28.363	0.100
158.400	-23.058	0.100
158.500	-26.312	0.100
158.600	-20.312	0.100
158.700	-27.530	0.100
158.800	-36.015	0.100
158.900	-24.142	0.100
159.000	-39.122	0.099
159.100	-27.619	0.100
159.200	-16.993	0.099
159.300	-22.626	0.100
159.400	-23.526	0.100
159.500	-27.494	0.100
159.600	-10.782	0.100
159.700	-32.852	0.100
159.800	-8.756	0.100
159.900	-27.033	0.100
160.000	-23.690	0.100
160.100	-21.518	0.100
160.200	-35.035	0.099
160.300	-30.162	0.100
160.400	-36.382	0.099
160.500	-19.161	0.100
160.600	-30.448	0.100
160.700	-14.503	0.100
160.800	-24.626	0.100
160.900	-22.976	0.100
161.000	-24.974	0.099
161.100	-28.976	0.100
161.200	-23.850	0.100
161.300	-21.946	0.100
161.400	-27.587	0.100
161.500	-35.322	0.099
161.600	-22.911	0.100
161.700	-15.339	0.100
161.800	-17.242	0.099
161.900	-17.232	0.100
162.000	-24.666	0.100
162.100	-21.509	0.100
162.200	-34.256	0.099
162.300	-23.485	0.099
162.400	-23.368	0.100
162.500	-31.556	0.099
162.600	-19.817	0.100
162.700	-31.257	0.100
162.800	-22.464	0.099
162.900	-23.202	0.100
163.000	-20.715	0.100
163.100	-21.134	0.100
163.200	-24.321	0.100
163.300	-21.051	0.100
163.400	-23.259	0.100
163.500	-31.715	0.100
163.600	-26.632	0.100
163.700	-14.143	0.100
163.800	-28.465	0.100
163.900	-33.585	0.099
164.000	-24.701	0.099
164.100	-17.381	0.100
164.200	-22.110	0.100
164.300	-12.506	0.100
164.400	-22.019	0.100
164.500	-17.522	0.100
164.600	-24.944	0.100
164.700	-23.080	0.100
164.800	-18.630	0.100
164.900	-23.049	0.100
165.000	-29.869	0.100
165.100	-18.402	0.100
165.200	-20.049	0.100
165.300	-23.295	0.100
165.400	-22.609	0.100
165.500	-29.824	0.100
165.600	-29.502	0.100
165.700	-15.215	0.100
165.800	-24.079	0.100
165.900	-21.799	0.100
166.000	-26.325	0.100
166.100	-24.285	0.100
166.200	-22.215	0.100
166.300	-30.057	0.100
166.400	-30.657	0.100
166.500	-29.275	0.100
166.600	-26.835	0.100
166.700	-20.105	0.100
166.800	-16.100	0.100
166.900	-34.281	0.099
167.000	-16.341	0.100
167.100	-17.113	0.100
167.200	-24.137	0.100
167.300	-27.708	0.100
167.400	-18.202	0.100
167.500	-25.527	0.100
167.600	-27.838	0.100
167.700	-29.273	0.100
167.800	-23.562	0.100
167.900	-24.847	0.100
168.000	-15.514	0.100
168.100	-14.673	0.100
168.200	-17.030	0.100
168.300	-23.602	0.100
168.400	-21.310	0.100
168.500	-32.313	0.100
168.600	-12.571	0.100
168.700	-28.706	0.100
168.800	-27.824	0.100
168.900	-30.357	0.100
169.000	-15.498	0.100
169.100	-27.055	0.099
169.200	-14.569	0.100
169.300	-27.479	0.099
169.400	-20.421	0.100
169.500	-27.132	0.100
169.600	-24.775	0.100
169.700	-18.779	0.100
169.800	-42.485	0.100
169.900	-18.229	0.100
170.000	-8.435	0.100
170.100	-28.300	0.100
170.200	-22.795	0.100
170.300	-36.696	0.100
170.400	-29.723	0.100
170.500	-14.442	0.100
170.600	-14.210	0.100
170.700	-14.376	0.100
170.800	-19.042	0.100
170.900	-22.156	0.100
171.000	-28.953	0.100
171.100	-22.490	0.100
171.200	-27.029	0.100
171.300	-21.040	0.100
171.400	-20.426	0.100
171.500	-25.028	0.100
171.600	-22.725	0.100
171.700	-19.994	0.100
171.800	-14.932	0.100
171.900	-19.164	0.100
172.000	-17.312	0.100
172.100	-17.574	0.100
172.200	-16.738	0.100
172.300	-23.551	0.100
172.400	-27.279	0.099
172.500	-21.590	0.100
172.600	-19.266	0.100
172.700	-25.633	0.100
172.800	-19.475	0.100
172.900	-15.972	0.100
173.000	-30.908	0.100
173.100	-21.368	0.100
173.200	-23.048	0.100
173.300	-40.624	0.100
173.400	-17.495	0.100
173.500	-11.099	0.100
173.600	-29.630	0.100
173.700	-13.181	0.099
173.800	-21.673	0.100
173.900	-11.838	0.100
174.000	-16.530	0.100
174.100	-28.280	0.100
174.200	-21.144	0.100
174.300	-13.779	0.100
174.400	-27.470	0.100
174.500	-16.299	0.100
174.600	-14.407	0.100
174.700	-14.247	0.100
174.800	-28.846	0.100
174.900	-40.849	0.100
175.000	-23.908	0.099
175.100	-18.133	0.100
175.200	-24.487	0.100
175.300	-20.911	0.100
175.400	-25.952	0.099
175.500	-22.996	0.100
175.600	-17.203	0.100
175.700	-13.447	0.100
175.800	-18.242	0.100
175.900	-24.593	0.100
176.000	-21.308	0.100
176.100	-9.833	0.100
176.200	-30.779	0.100
176.300	-23.559	0.100
176.400	-24.117	0.100
176.500	-13.108	0.100
176.600	-28.085	0.099
176.700	-17.733	0.100
176.800	-21.694	0.100
176.900	-20.122	0.100
177.000	-22.309	0.100
177.100	-16.510	0.100
177.200	-26.236	0.100
177.300	-33.202	0.100
177.400	-13.550	0.100
177.500	-20.221	0.100
177.600	-8.974	0.100
177.700	-29.353	0.100
177.800	-13.722	0.100
177.900	-27.907	0.100
178.000	-21.602	0.100
178.100	-19.349	0.100
178.200	-17.675	0.100
178.300	-13.760	0.100
178.400	-7.921	0.100
178.500	-8.279	0.100
178.600	-22.504	0.099
178.700	-29.948	0.100
178.800	-15.570	0.100
178.900	-26.204	0.100
179.000	-22.046	0.100
179.100	-21.550	0.100
179.200	-28.556	0.100
179.300	-33.466	0.100
179.400	-12.439	0.099
179.500	-14.577	0.100
179.600	-24.425	0.100
179.700	-11.132	0.099
179.800	-14.458	0.100
179.900	0.292	0.099
180.000	2.016	0.100
180.100	5.112	0.100
180.200	27.693	0.099
180.300	12.202	0.100
180.400	31.975	0.100
180.500	28.598	0.100
180.600	28.313	0.100
180.700	45.097	0.100
180.800	40.987	0.100
180.900	35.080	0.100
181.000	47.813	0.100
181.100	43.858	0.100
181.200	38.584	0.099
181.300	49.456	0.099
181.400	50.970	0.099
181.500	45.187	0.099
181.600	36.953	0.099
181.700	43.895	0.099
181.800	46.746	0.100
181.900	50.268	0.100
182.000	33.210	0.100
182.100	45.801	0.099
182.200	38.215	0.100
182.300	49.975	0.100
182.400	42.457	0.099
182.500	48.327	0.100
182.600	22.469	0.100
182.700	39.450	0.100
182.800	55.856	0.100
182.900	38.317	0.099
183.000	35.065	0.100
183.100	34.240	0.099
183.200	24.151	0.100
183.300	36.304	0.100
183.400	32.957	0.100
183.500	32.981	0.100
183.600	21.853	0.100
183.700	34.392	0.099
183.800	37.081	0.100
183.900	26.433	0.100
184.000	35.286	0.100
184.100	21.759	0.100
184.200	39.151	0.100
184.300	38.309	0.100
184.400	24.355	0.100
184.500	35.742	0.100
184.600	29.959	0.100
184.700	18.017	0.100
184.800	40.374	0.100
184.900	31.512	0.100
185.000	24.438	0.100
185.100	47.902	0.100
185.200	31.410	0.100
185.300	39.283	0.100
185.400	44.767	0.100
185.500	34.269	0.100
185.600	42.579	0.100
185.700	45.103	0.100
185.800	45.883	0.100
185.900	42.366	0.100
186.000	39.984	0.100
186.100	57.383	0.100
186.200	43.931	0.100
186.300	63.231	0.100
186.400	41.613	0.100
186.500	61.406	0.100
186.600	53.134	0.100
186.700	51.007	0.100
186.800	50.486	0.100
186.900	58.237	0.100
187.000	63.886	0.100
187.100	57.907	0.100
187.200	58.153	0.100
187.300	58.438	0.100
187.400	55.399	0.100
187.500	71.062	0.100
187.600	67.494	0.100
187.700	71.747	0.100
187.800	71.182	0.100
187.900	67.672	0.100
188.000	65.552	0.100
188.100	69.216	0.100
188.200	66.309	0.100
188.300	83.851	0.100
188.400	69.241	0.100
188.500	73.886	0.100
188.600	71.012	0.099
188.700	56.674	0.100
188.800	70.927	0.100
188.900	77.959	0.099
189.000	87.360	0.100
189.100	72.686	0.100
189.200	58.980	0.100
189.300	72.474	0.100
189.400	75.252	0.100
189.500	85.029	0.100
189.600	76.752	0.100
189.700	74.478	0.100
189.800	80.975	0.100
189.900	74.663	0.100
190.000	77.081	0.100
190.100	71.491	0.100
190.200	86.933	0.100
190.300	77.056	0.100
190.400	73.053	0.099
190.500	66.664	0.100
190.600	75.903	0.100
190.700	90.656	0.100
190.800	79.185	0.100
190.900	76.139	0.100
191.000	77.309	0.100
191.100	79.771	0.100
191.200	90.522	0.100
191.300	64.521	0.100
191.400	81.317	0.099
191.500	74.328	0.100
191.600	84.441	0.100
191.700	80.538	0.100
191.800	83.672	0.100
191.900	80.504	0.100
192.000	81.645	0.100
192.100	86.765	0.100
192.200	71.269	0.100
192.300	78.206	0.100
192.400	73.630	0.100
192.500	72.231	0.100
192.600	91.078	0.100
192.700	77.793	0.100
192.800	73.394	0.100
192.900	62.299	0.100
193.000	90.459	0.100
193.100	80.485	0.100
193.200	82.227	0.100
193.300	77.619	0.100
193.400	83.340	0.100
193.500	86.867	0.100
193.600	75.144	0.100
193.700	70.113	0.100
193.800	73.121	0.100
193.900	79.662	0.100
194.000	72.200	0.100
194.100	74.611	0.100
194.200	76.091	0.100
194.300	85.944	0.100
194.400	79.556	0.100
194.500	67.999	0.100
194.600	72.169	0.100
194.700	64.904	0.100
194.800	85.635	0.100
194.900	78.273	0.100
195.000	84.645	0.100
195.100	72.336	0.100
195.200	73.628	0.100
195.300	65.215	0.099
195.400	80.768	0.100
195.500	73.383	0.100
195.600	80.205	0.100
195.700	70.793	0.100
195.800	81.724	0.099
195.900	70.356	0.100
196.000	78.405	0.100
196.100	65.857	0.100
196.200	74.870	0.100
196.300	86.724	0.100
196.400	80.794	0.100
196.500	71.813	0.100
196.600	57.811	0.100
196.700	84.267	0.100
196.800	61.296	0.100
196.900	80.913	0.100
197.000	78.956	0.100
197.100	78.133	0.100
197.200	69.931	0.100
197.300	62.480	0.100
197.400	74.043	0.100
197.500	81.573	0.100
197.600	84.414	0.100
197.700	65.289	0.100
197.800	71.937	0.100
197.900	81.715	0.100
198.000	79.575	0.100
198.100	67.748	0.100
198.200	67.809	0.100
198.300	81.140	0.100
198.400	80.704	0.100
198.500	77.861	0.100
198.600	74.369	0.100
198.700	73.664	0.100
198.800	67.310	0.099
198.900	74.532	0.100
199.000	82.957	0.099
199.100	85.065	0.099
199.200	57.776	0.100
199.300	74.417	0.100
199.400	69.255	0.099
199.500	71.259	0.100
199.600	83.684	0.100
199.700	61.017	0.100
199.800	67.988	0.100
199.900	85.084	0.100
200.000	73.446	0.100
200.100	67.763	0.100
200.200	62.878	0.100
200.300	71.736	0.100
200.400	72.328	0.099
200.500	67.492	0.100
200.600	64.347	0.100
200.700	83.122	0.100
200.800	57.512	0.100
200.900	73.587	0.100
201.000	82.932	0.100
201.100	71.221	0.100
201.200	77.454	0.100
201.300	61.932	0.100
201.400	63.744	0.100
201.500	55.477	0.100
201.600	59.958	0.100
201.700	82.890	0.100
201.800	74.067	0.100
201.900	71.211	0.100
202.000	68.073	0.100
202.100	74.731	0.100
202.200	81.133	0.100
202.300	65.572	0.100
202.400	68.605	0.100
202.500	66.638	0.099
202.600	61.329	0.100
202.700	79.263	0.100
202.800	67.436	0.100
202.900	70.173	0.100
203.000	81.445	0.100
203.100	72.719	0.100
203.200	54.413	0.100
203.300	70.591	0.100
203.400	72.514	0.100
203.500	62.903	0.100
203.600	80.961	0.100
203.700	78.372	0.100
203.800	83.754	0.100
203.900	60.618	0.100
204.000	62.537	0.100
204.100	56.305	0.099
204.200	67.255	0.100
204.300	66.777	0.100
204.400	46.908	0.100
204.500	75.725	0.100
204.600	69.246	0.100
204.700	67.928	0.100
204.800	59.835	0.100
204.900	62.341	0.100
205.000	80.557	0.100
205.100	83.378	0.100
205.200	63.035	0.100
205.300	74.305	0.100
205.400	69.505	0.100
205.500	70.839	0.100
205.600	62.642	0.100
205.700	67.141	0.100
205.800	83.976	0.100
205.900	65.093	0.100
206.000	73.639	0.100
206.100	74.281	0.100
206.200	62.710	0.100
206.300	50.659	0.100
206.400	70.512	0.100
206.500	69.335	0.100
206.600	70.020	0.100
206.700	74.666	0.100
206.800	78.612	0.100
206.900	76.338	0.100
207.000	76.560	0.100
207.100	60.342	0.100
207.200	57.484	0.100
207.300	61.276	0.100
207.400	77.340	0.100
207.500	76.562	0.100
207.600	64.001	0.100
207.700	66.401	0.100
207.800	83.499	0.100
207.900	79.314	0.100
208.000	70.760	0.100
208.100	69.855	0.100
208.200	60.846	0.099
208.300	67.256	0.100
208.400	64.793	0.100
208.500	57.650	0.100
208.600	78.402	0.100
208.700	65.289	0.099
208.800	76.542	0.100
208.900	71.734	0.099
209.000	62.363	0.100
209.100	70.463	0.100
209.200	73.435	0.100
209.300	74.409	0.100
209.400	55.330	0.100
209.500	66.918	0.100
209.600	67.798	0.100
209.700	66.232	0.100
209.800	84.116	0.100
209.900	73.329	0.100
210.000	64.897	0.100
210.100	70.336	0.100
210.200	64.680	0.100
210.300	65.830	0.100
210.400	68.049	0.100
210.500	70.972	0.100
210.600	80.342	0.100
210.700	57.236	0.100
210.800	71.566	0.100
210.900	58.725	0.100
211.000	64.824	0.100
211.100	72.346	0.100
211.200	76.834	0.100
211.300	75.039	0.100
211.400	70.360	0.100
211.500	63.182	0.100
211.600	68.233	0.100
211.700	69.390	0.100
211.800	78.512	0.100
211.900	62.427	0.100
212.000	71.010	0.100
212.100	77.112	0.100
212.200	54.048	0.100
212.300	62.910	0.100
212.400	60.753	0.100
212.500	59.447	0.099
212.600	58.933	0.100
212.700	74.993	0.100
212.800	75.897	0.100
212.900	57.892	0.100
213.000	72.068	0.100
213.100	73.720	0.100
213.200	55.201	0.100
213.300	69.223	0.100
213.400	69.404	0.100
213.500	71.829	0.100
213.600	68.536	0.100
213.700	86.213	0.100
213.800	44.643	0.100
213.900	62.909	0.100
214.000	71.575	0.100
214.100	66.527	0.100
214.200	61.921	0.100
214.300	69.998	0.099
214.400	76.834	0.100
214.500	57.966	0.100
214.600	67.272	0.100
214.700	57.726	0.100
214.800	81.922	0.100
214.900	68.590	0.099
215.000	69.982	0.100
215.100	72.164	0.100
215.200	73.898	0.100
215.300	80.410	0.100
215.400	79.521	0.100
215.500	65.817	0.100
215.600	64.458	0.100
215.700	66.464	0.099
215.800	73.151	0.100
215.900	57.031	0.099
216.000	77.240	0.100
216.100	72.419	0.100
216.200	59.679	0.100
216.300	75.082	0.100
216.400	74.759	0.100
216.500	73.487	0.100
216.600	77.708	0.100
216.700	77.736	0.100
216.800	70.918	0.100
216.900	73.304	0.100
217.000	60.085	0.100
217.100	72.391	0.100
217.200	59.864	0.100
217.300	80.176	0.100
217.400	63.382	0.100
217.500	64.166	0.100
217.600	65.964	0.100
217.700	70.544	0.100
217.800	65.144	0.100
217.900	74.844	0.100
218.000	73.492	0.100
218.100	79.850	0.100
218.200	70.137	0.100
218.300	84.712	0.100
218.400	78.574	0.100
218.500	68.754	0.100
218.600	71.266	0.100
218.700	63.710	0.100
218.800	61.840	0.100
218.900	76.125	0.100
219.000	77.613	0.100
219.100	66.988	0.100
219.200	80.976	0.100
219.300	72.970	0.100
219.400	67.902	0.100
219.500	71.040	0.100
219.600	72.170	0.100
219.700	82.293	0.100
219.800	79.518	0.100
219.900	56.597	0.100
220.000	61.318	0.100
220.100	65.525	0.100
220.200	52.227	0.100
220.300	76.705	0.100
220.400	86.537	0.100
220.500	75.354	0.100
220.600	74.708	0.100
220.700	65.304	0.100
220.800	75.857	0.100
220.900	73.976	0.100
221.000	80.742	0.100
221.100	58.725	0.099
221.200	60.483	0.100
221.300	76.211	0.100
221.400	74.261	0.100
221.500	72.023	0.100
221.600	75.792	0.100
221.700	64.288	0.100
221.800	74.768	0.100
221.900	74.594	0.100
222.000	83.513	0.100
222.100	70.114	0.100
222.200	74.285	0.100
222.300	65.400	0.100
222.400	74.810	0.100
222.500	72.081	0.100
222.600	76.077	0.100
222.700	80.709	0.100
222.800	81.468	0.100
222.900	72.580	0.100
223.000	61.466	0.100
223.100	68.927	0.100
223.200	81.152	0.100
223.300	82.322	0.100
223.400	64.516	0.100
223.500	74.439	0.100
223.600	75.688	0.100
223.700	68.896	0.100
223.800	66.240	0.100
223.900	67.445	0.100
224.000	68.658	0.100
224.100	74.852	0.100
224.200	73.582	0.100
224.300	80.730	0.100
224.400	77.916	0.100
224.500	72.780	0.100
224.600	71.576	0.100
224.700	63.667	0.100
224.800	74.882	0.100
224.900	67.366	0.100
225.000	55.711	0.100
225.100	87.429	0.100
225.200	67.044	0.100
225.300	79.182	0.099
225.400	63.990	0.100
225.500	64.558	0.100
225.600	81.530	0.100
225.700	60.925	0.100
225.800	73.645	0.100
225.900	79.812	0.100
226.000	65.630	0.100
226.100	72.614	0.100
226.200	74.024	0.100
226.300	72.160	0.100
226.400	64.805	0.100
226.500	73.402	0.100
226.600	72.591	0.100
226.700	69.438	0.100
226.800	85.563	0.100
226.900	70.265	0.100
227.000	76.026	0.100
227.100	65.273	0.100
227.200	71.897	0.100
227.300	85.937	0.100
227.400	56.909	0.100
227.500	73.835	0.100
227.600	75.433	0.100
227.700	73.945	0.100
227.800	77.057	0.100
227.900	71.849	0.100
228.000	67.427	0.100
228.100	68.074	0.100
228.200	72.111	0.100
228.300	75.314	0.100
228.400	81.961	0.100
228.500	83.324	0.100
228.600	67.107	0.100
228.700	58.066	0.100
228.800	71.410	0.100
228.900	75.945	0.100
229.000	80.895	0.100
229.100	76.580	0.100
229.200	78.995	0.100
229.300	71.568	0.100
229.400	85.171	0.100
229.500	82.283	0.100
229.600	60.300	0.100
229.700	70.288	0.100
229.800	75.228	0.100
229.900	78.188	0.100
230.000	84.909	0.100
230.100	75.436	0.100
230.200	61.103	0.100
230.300	54.974	0.100
230.400	71.049	0.099
230.500	76.418	0.100
230.600	70.285	0.100
230.700	68.976	0.100
230.800	67.476	0.100
230.900	79.844	0.100
231.000	75.088	0.100
231.100	78.534	0.100
231.200	85.255	0.100
231.300	64.738	0.100
231.400	63.982	0.100
231.500	77.374	0.100
231.600	75.935	0.100
231.700	86.583	0.100
231.800	83.304	0.100
231.900	71.694	0.100
232.000	61.781	0.100
232.100	69.430	0.100
232.200	75.291	0.100
232.300	79.809	0.100
232.400	75.606	0.100
232.500	64.996	0.100
232.600	67.437	0.100
232.700	79.635	0.100
232.800	63.113	0.100
232.900	62.781	0.100
233.000	70.163	0.100
233.100	80.475	0.100
233.200	77.340	0.100
233.300	70.699	0.100
233.400	78.704	0.100
233.500	62.917	0.100
233.600	66.015	0.100
233.700	71.685	0.100
233.800	78.522	0.100
233.900	77.592	0.100
234.000	75.261	0.100
234.100	73.526	0.100
234.200	83.865	0.100
234.300	73.973	0.100
234.400	78.294	0.100
234.500	66.283	0.100
234.600	79.962	0.100
234.700	70.055	0.100
234.800	71.673	0.100
234.900	75.080	0.100
235.000	79.300	0.100
235.100	66.871	0.100
235.200	75.555	0.100
235.300	73.422	0.100
235.400	69.943	0.100
235.500	83.842	0.100
235.600	71.535	0.100
235.700	80.805	0.100
235.800	67.906	0.100
235.900	56.890	0.100
236.000	69.238	0.100
236.100	57.638	0.100
236.200	76.468	0.100
236.300	73.582	0.100
236.400	73.935	0.100
236.500	74.837	0.100
236.600	79.243	0.100
236.700	71.647	0.100
236.800	84.566	0.100
236.900	67.384	0.100
237.000	60.018	0.100
237.100	75.473	0.100
237.200	71.990	0.100
237.300	74.578	0.100
237.400	78.438	0.100
237.500	68.456	0.100
237.600	83.171	0.100
237.700	82.596	0.100
237.800	74.477	0.100
237.900	87.468	0.100
238.000	65.256	0.100
238.100	73.191	0.100
238.200	67.584	0.100
238.300	56.463	0.100
238.400	74.477	0.100
238.500	84.260	0.100
238.600	77.201	0.100
238.700	64.747	0.100
238.800	89.991	0.100
238.900	69.298	0.100
239.000	84.267	0.100
239.100	81.830	0.100
239.200	81.539	0.100
239.300	71.553	0.100
239.400	68.512	0.100
239.500	80.951	0.100
239.600	79.441	0.100
239.700	57.489	0.100
239.800	80.019	0.100
239.900	58.617	0.100
240.000	42.133	0.100
240.100	50.043	0.100
240.200	18.990	0.100
240.300	13.178	0.100
240.400	13.931	0.100
240.500	6.800	0.100
240.600	-14.855	0.100
240.700	-12.221	0.100
240.800	-15.407	0.100
240.900	-19.515	0.100
241.000	-25.101	0.100
241.100	-27.406	0.100
241.200	-41.938	0.100
241.300	-34.352	0.100
241.400	-52.860	0.100
241.500	-49.635	0.100
241.600	-38.146	0.100
241.700	-43.505	0.100
241.800	-63.154	0.100
241.900	-60.295	0.100
242.000	-43.242	0.100
242.100	-57.508	0.100
242.200	-65.332	0.100
242.300	-45.574	0.100
242.400	-54.751	0.100
242.500	-51.357	0.100
242.600	-58.322	0.100
242.700	-47.893	0.100
242.800	-60.462	0.100
242.900	-50.218	0.100
243.000	-37.305	0.100
243.100	-53.622	0.100
243.200	-61.818	0.100
243.300	-51.556	0.100
243.400	-53.717	0.100
243.500	-48.772	0.100
243.600	-49.769	0.100
243.700	-56.006	0.100
243.800	-57.462	0.100
243.900	-59.816	0.100
244.000	-36.224	0.100
244.100	-43.252	0.100
244.200	-34.607	0.100
244.300	-39.076	0.100
244.400	-44.933	0.100
244.500	-53.880	0.100
244.600	-46.236	0.100
244.700	-52.199	0.100
244.800	-40.111	0.100
244.900	-43.716	0.100
245.000	-34.655	0.100
245.100	-43.186	0.100
245.200	-51.746	0.100
245.300	-28.001	0.100
245.400	-28.917	0.100
245.500	-35.373	0.100
245.600	-39.472	0.100
245.700	-46.659	0.100
245.800	-41.123	0.100
245.900	-45.629	0.100
246.000	-18.265	0.100
246.100	-40.999	0.100
246.200	-41.818	0.100
246.300	-37.802	0.100
246.400	-45.472	0.100
246.500	-30.211	0.100
246.600	-33.475	0.100
246.700	-36.866	0.100
246.800	-28.596	0.100
246.900	-37.208	0.100
247.000	-39.759	0.100
247.100	-22.773	0.100
247.200	-39.168	0.100
247.300	-32.443	0.100
247.400	-28.840	0.100
247.500	-28.038	0.100
247.600	-33.588	0.100
247.700	-39.746	0.100
247.800	-35.647	0.100
247.900	-36.686	0.100
248.000	-22.759	0.100
248.100	-35.430	0.100
248.200	-30.551	0.100
248.300	-26.419	0.100
248.400	-55.065	0.100
248.500	-45.142	0.100
248.600	-40.268	0.100
248.700	-27.653	0.100
248.800	-30.699	0.100
248.900	-20.406	0.100
249.000	-35.909	0.100
249.100	-37.046	0.100
249.200	-25.138	0.100
249.300	-20.904	0.099
249.400	-27.976	0.100
249.500	-33.970	0.100
249.600	-40.497	0.100
249.700	-33.494	0.100
249.800	-27.316	0.100
249.900	-29.754	0.100
250.000	-31.449	0.100
250.100	-30.110	0.100
250.200	-31.628	0.100
250.300	-45.622	0.100
250.400	-32.838	0.100
250.500	-29.851	0.100
250.600	-45.636	0.100
250.700	-32.564	0.100
250.800	-31.018	0.100
250.900	-27.005	0.100
251.000	-38.809	0.100
251.100	-30.290	0.100
251.200	-30.252	0.100
251.300	-36.414	0.100
251.400	-39.897	0.100
251.500	-29.650	0.100
251.600	-34.256	0.100
251.700	-27.810	0.100
251.800	-41.182	0.100
251.900	-33.006	0.100
252.000	-35.749	0.100
252.100	-31.455	0.100
252.200	-46.083	0.100
252.300	-21.595	0.100
252.400	-34.613	0.100
252.500	-40.463	0.100
252.600	-46.275	0.099
252.700	-26.734	0.100
252.800	-22.165	0.100
252.900	-28.555	0.100
253.000	-42.098	0.100
253.100	-32.933	0.100
253.200	-31.885	0.100
253.300	-41.287	0.099
253.400	-38.025	0.100
253.500	-40.468	0.099
253.600	-22.861	0.100
253.700	-35.812	0.100
253.800	-43.015	0.100
253.900	-34.471	0.100
254.000	-32.140	0.100
254.100	-37.161	0.100
254.200	-37.407	0.100
254.300	-37.203	0.100
254.400	-34.559	0.100
254.500	-32.932	0.100
254.600	-36.104	0.100
254.700	-38.798	0.100
254.800	-34.232	0.100
254.900	-43.515	0.100
255.000	-36.706	0.100
255.100	-30.988	0.100
255.200	-44.531	0.099
255.300	-40.299	0.100
255.400	-42.098	0.099
255.500	-30.310	0.100
255.600	-24.011	0.100
255.700	-36.285	0.100
255.800	-44.038	0.100
255.900	-42.108	0.100
256.000	-44.031	0.100
256.100	-36.720	0.100
256.200	-34.022	0.100
256.300	-52.336	0.100
256.400	-31.382	0.100
256.500	-12.946	0.100
256.600	-41.125	0.100
256.700	-50.010	0.100
256.800	-46.365	0.100
256.900	-48.284	0.099
257.000	-32.553	0.100
257.100	-33.080	0.100
257.200	-27.878	0.100
257.300	-47.245	0.100
257.400	-32.713	0.100
257.500	-31.247	0.100
257.600	-28.918	0.100
257.700	-41.249	0.100
257.800	-30.622	0.100
257.900	-34.511	0.100
258.000	-37.779	0.100
258.100	-48.072	0.100
258.200	-44.377	0.100
258.300	-26.984	0.100
258.400	-43.106	0.100
258.500	-40.679	0.100
258.600	-41.588	0.100
258.700	-41.629	0.100
258.800	-25.973	0.100
258.900	-37.805	0.100
259.000	-45.874	0.100
259.100	-43.877	0.100
259.200	-42.758	0.100
259.300	-37.339	0.100
259.400	-26.197	0.100
259.500	-33.920	0.100
259.600	-43.975	0.100
259.700	-39.895	0.100
259.800	-34.051	0.100
259.900	-50.666	0.100
260.000	-41.087	0.100
260.100	-31.815	0.100
260.200	-35.785	0.100
260.300	-33.751	0.100
260.400	-31.368	0.100
260.500	-34.639	0.100
260.600	-47.069	0.100
260.700	-41.061	0.100
260.800	-35.264	0.100
260.900	-33.027	0.100
261.000	-35.145	0.100
261.100	-40.545	0.100
261.200	-28.536	0.100
261.300	-30.964	0.100
261.400	-32.173	0.100
261.500	-43.742	0.100
261.600	-44.696	0.100
261.700	-53.342	0.099
261.800	-28.124	0.100
261.900	-27.022	0.100
262.000	-39.779	0.100
262.100	-33.348	0.100
262.200	-44.777	0.100
262.300	-42.543	0.100
262.400	-41.798	0.100
262.500	-40.080	0.100
262.600	-33.757	0.100
262.700	-45.523	0.100
262.800	-41.304	0.100
262.900	-44.022	0.100
263.000	-53.171	0.100
263.100	-19.518	0.100
263.200	-49.295	0.100
263.300	-35.946	0.100
263.400	-33.966	0.100
263.500	-37.066	0.100
263.600	-37.300	0.100
263.700	-45.913	0.100
263.800	-34.227	0.100
263.900	-40.910	0.100
264.000	-43.952	0.100
264.100	-18.681	0.100
264.200	-34.904	0.100
264.300	-44.731	0.100
264.400	-30.407	0.100
264.500	-21.150	0.100
264.600	-38.075	0.100
264.700	-50.357	0.100
264.800	-44.284	0.100
264.900	-29.347	0.100
265.000	-35.249	0.100
265.100	-41.649	0.099
265.200	-31.955	0.100
265.300	-41.233	0.100
265.400	-33.984	0.100
265.500	-31.045	0.100
265.600	-37.684	0.100
265.700	-40.661	0.100
265.800	-49.188	0.100
265.900	-34.242	0.100
266.000	-26.962	0.100
266.100	-28.953	0.100
266.200	-44.313	0.100
266.300	-36.973	0.100
266.400	-39.386	0.100
266.500	-36.407	0.100
266.600	-47.918	0.100
266.700	-39.331	0.100
266.800	-50.494	0.100
266.900	-27.451	0.100
267.000	-27.715	0.100
267.100	-34.247	0.100
267.200	-32.333	0.100
267.300	-37.962	0.100
267.400	-36.116	0.100
267.500	-31.470	0.100
267.600	-45.109	0.100
267.700	-33.941	0.100
267.800	-40.721	0.100
267.900	-41.402	0.100
268.000	-31.206	0.100
268.100	-40.488	0.100
268.200	-39.371	0.100
268.300	-44.517	0.100
268.400	-29.600	0.100
268.500	-29.053	0.100
268.600	-34.741	0.100
268.700	-43.129	0.100
268.800	-24.804	0.100
268.900	-44.762	0.100
269.000	-39.646	0.100
269.100	-48.637	0.100
269.200	-39.546	0.100
269.300	-44.996	0.099
269.400	-34.005	0.099
269.500	-32.546	0.100
269.600	-22.650	0.100
269.700	-39.231	0.100
269.800	-35.756	0.099
269.900	-34.058	0.100
270.000	-39.748	0.100
270.100	-41.642	0.100
270.200	-29.405	0.100
270.300	-23.948	0.100
270.400	-42.238	0.100
270.500	-50.292	0.100
270.600	-33.750	0.100
270.700	-28.517	0.100
270.800	-27.838	0.099
270.900	-40.452	0.100
271.000	-33.470	0.100
271.100	-36.462	0.100
271.200	-48.892	0.100
271.300	-26.664	0.100
271.400	-51.807	0.100
271.500	-39.268	0.100
271.600	-38.261	0.100
271.700	-43.052	0.100
271.800	-37.472	0.100
271.900	-33.577	0.100
272.000	-34.121	0.100
272.100	-47.829	0.100
272.200	-33.458	0.100
272.300	-38.231	0.100
272.400	-40.886	0.100
272.500	-28.790	0.099
272.600	-34.129	0.100
272.700	-46.538	0.100
272.800	-31.729	0.100
272.900	-39.310	0.100
273.000	-36.762	0.100
273.100	-29.640	0.100
273.200	-47.221	0.100
273.300	-47.001	0.100
273.400	-39.901	0.100
273.500	-33.720	0.100
273.600	-39.090	0.100
273.700	-21.958	0.100
273.800	-31.886	0.100
273.900	-25.247	0.100
274.000	-35.379	0.100
274.100	-36.066	0.100
274.200	-55.390	0.100
274.300	-39.623	0.100
274.400	-30.266	0.100
274.500	-42.488	0.100
274.600	-38.787	0.100
274.700	-27.588	0.100
274.800	-40.104	0.100
274.900	-48.699	0.100
275.000	-36.997	0.100
275.100	-34.298	0.100
275.200	-36.289	0.100
275.300	-32.975	0.100
275.400	-34.468	0.100
275.500	-43.797	0.100
275.600	-46.603	0.100
275.700	-32.175	0.100
275.800	-37.282	0.100
275.900	-37.981	0.099
276.000	-36.593	0.099
276.100	-38.301	0.100
276.200	-28.685	0.100
276.300	-26.733	0.100
276.400	-38.260	0.100
276.500	-23.903	0.100
276.600	-35.517	0.100
276.700	-38.074	0.100
276.800	-40.573	0.100
276.900	-33.634	0.100
277.000	-35.333	0.100
277.100	-30.554	0.100
277.200	-29.254	0.100
277.300	-31.798	0.100
277.400	-36.622	0.100
277.500	-45.249	0.100
277.600	-30.969	0.100
277.700	-37.231	0.100
277.800	-37.359	0.100
277.900	-28.541	0.100
278.000	-28.336	0.100
278.100	-45.800	0.100
278.200	-37.764	0.100
278.300	-30.741	0.100
278.400	-35.255	0.100
278.500	-37.857	0.100
278.600	-41.120	0.100
278.700	-45.547	0.100
278.800	-34.711	0.100
278.900	-24.862	0.100
279.000	-37.562	0.100
279.100	-34.896	0.100
279.200	-31.635	0.100
279.300	-36.588	0.100
279.400	-31.107	0.100
279.500	-36.992	0.100
279.600	-39.190	0.100
279.700	-41.851	0.100
279.800	-37.862	0.100
279.900	-14.504	0.100
280.000	-38.975	0.100
280.100	-23.326	0.100
280.200	-38.380	0.100
280.300	-25.809	0.100
280.400	-34.420	0.100
280.500	-37.858	0.100
280.600	-40.989	0.100
280.700	-41.974	0.100
280.800	-30.601	0.100
280.900	-39.212	0.100
281.000	-36.225	0.100
281.100	-34.921	0.100
281.200	-49.154	0.100
281.300	-41.221	0.100
281.400	-33.375	0.100
281.500	-36.740	0.100
281.600	-29.870	0.100
281.700	-43.795	0.100
281.800	-39.626	0.100
281.900	-34.756	0.099
282.000	-27.213	0.100
282.100	-30.862	0.100
282.200	-31.017	0.100
282.300	-33.755	0.100
282.400	-34.393	0.099
282.500	-42.390	0.099
282.600	-37.710	0.100
282.700	-30.075	0.100
282.800	-43.417	0.100
282.900	-18.915	0.100
283.000	-32.777	0.100
283.100	-25.381	0.100
283.200	-40.591	0.100
283.300	-33.368	0.100
283.400	-34.272	0.100
283.500	-36.830	0.100
283.600	-34.647	0.100
283.700	-33.779	0.100
283.800	-38.914	0.100
283.900	-33.598	0.100
284.000	-29.697	0.099
284.100	-34.783	0.100
284.200	-38.841	0.100
284.300	-36.909	0.100
284.400	-18.864	0.100
284.500	-31.017	0.100
284.600	-46.743	0.100
284.700	-39.966	0.100
284.800	-23.606	0.100
284.900	-57.851	0.100
285.000	-26.044	0.100
285.100	-30.861	0.100
285.200	-26.361	0.100
285.300	-33.426	0.099
285.400	-56.666	0.100
285.500	-36.765	0.100
285.600	-23.878	0.100
285.700	-35.446	0.100
285.800	-44.332	0.100
285.900	-21.752	0.100
286.000	-31.161	0.100
286.100	-28.330	0.100
286.200	-23.424	0.100
286.300	-23.631	0.100
286.400	-30.058	0.100
286.500	-38.796	0.100
286.600	-30.232	0.100
286.700	-38.576	0.100
286.800	-24.095	0.100
286.900	-17.500	0.100
287.000	-32.283	0.100
287.100	-48.166	0.100
287.200	-43.633	0.100
287.300	-36.065	0.100
287.400	-37.809	0.100
287.500	-31.434	0.100
287.600	-28.065	0.100
287.700	-48.440	0.099
287.800	-28.325	0.100
287.900	-38.638	0.100
288.000	-27.881	0.100
288.100	-42.686	0.100
288.200	-39.849	0.100
288.300	-25.013	0.100
288.400	-32.749	0.100
288.500	-36.258	0.100
288.600	-34.564	0.100
288.700	-29.432	0.100
288.800	-27.145	0.100
288.900	-39.188	0.100
289.000	-32.916	0.100
289.100	-34.487	0.100
289.200	-25.630	0.100
289.300	-36.683	0.100
289.400	-31.660	0.100
289.500	-38.287	0.100
289.600	-31.496	0.100
289.700	-25.635	0.100
289.800	-37.755	0.100
289.900	-27.751	0.100
290.000	-23.952	0.100
290.100	-29.709	0.100
290.200	-35.638	0.100
290.300	-33.092	0.099
290.400	-42.477	0.100
290.500	-19.389	0.100
290.600	-38.034	0.100
290.700	-31.978	0.100
290.800	-32.424	0.100
290.900	-31.438	0.100
291.000	-39.774	0.100
291.100	-8.122	0.100
291.200	-40.995	0.100
291.300	-33.071	0.099
291.400	-38.759	0.100
291.500	-34.975	0.100
291.600	-32.019	0.100
291.700	-29.307	0.100
291.800	-25.440	0.100
291.900	-31.498	0.100
292.000	-30.091	0.100
292.100	-26.612	0.100
292.200	-36.794	0.100
292.300	-30.846	0.100
292.400	-40.372	0.100
292.500	-33.251	0.100
292.600	-22.718	0.100
292.700	-30.611	0.100
292.800	-29.616	0.100
292.900	-29.677	0.100
293.000	-32.932	0.099
293.100	-14.412	0.100
293.200	-31.443	0.100
293.300	-41.813	0.100
293.400	-41.083	0.100
293.500	-31.625	0.100
293.600	-38.768	0.100
293.700	-39.716	0.100
293.800	-21.429	0.100
293.900	-18.095	0.100
294.000	-30.869	0.100
294.100	-29.578	0.100
294.200	-31.119	0.100
294.300	-29.049	0.100
294.400	-22.413	0.100
294.500	-26.388	0.100
294.600	-26.370	0.100
294.700	-44.328	0.100
294.800	-29.458	0.099
294.900	-25.545	0.100
295.000	-32.308	0.100
295.100	-14.049	0.100
295.200	-18.806	0.100
295.300	-30.636	0.100
295.400	-42.453	0.100
295.500	-26.024	0.100
295.600	-51.319	0.100
295.700	-32.421	0.100
295.800	-27.037	0.100
295.900	-26.965	0.100
296.000	-31.850	0.100
296.100	-19.694	0.100
296.200	-37.661	0.100
296.300	-40.362	0.100
296.400	-25.417	0.100
296.500	-32.320	0.100
296.600	-39.276	0.100
296.700	-26.548	0.100
296.800	-27.497	0.100
296.900	-31.311	0.100
297.000	-28.265	0.100
297.100	-32.739	0.099
297.200	-29.782	0.100
297.300	-33.050	0.100
297.400	-26.656	0.100
297.500	-37.376	0.100
297.600	-26.021	0.100
297.700	-21.353	0.100
297.800	-28.111	0.100
297.900	-27.537	0.100
298.000	-31.441	0.100
298.100	-18.224	0.100
298.200	-18.713	0.100
298.300	-34.920	0.100
298.400	-25.220	0.100
298.500	-37.953	0.100
298.600	-20.174	0.099
298.700	-22.291	0.100
298.800	-34.078	0.100
298.900	-23.020	0.100
299.000	-43.122	0.100
299.100	-17.735	0.100
299.200	-38.497	0.100
299.300	-41.946	0.100
299.400	-31.783	0.100
299.500	-25.252	0.100
299.600	-36.019	0.100
299.700	-26.930	0.100
299.800	-31.644	0.100
299.900	-14.775	0.100
300.000	-30.469	0.100
300.100	-38.653	0.100
300.200	-40.789	0.100
300.300	-22.149	0.100
300.400	-28.544	0.100
300.500	-24.749	0.100
300.600	-21.986	0.100
300.700	-35.365	0.100
300.800	-19.556	0.100
300.900	-21.557	0.100
301.000	-23.121	0.100
301.100	-48.021	0.100
301.200	-21.483	0.100
301.300	-23.538	0.100
301.400	-24.422	0.100
301.500	-23.448	0.100
301.600	-16.126	0.100
301.700	-30.182	0.100
301.800	-24.997	0.100
301.900	-38.935	0.100
302.000	-23.442	0.100
302.100	-34.611	0.100
302.200	-39.033	0.100
302.300	-22.421	0.100
302.400	-29.952	0.100
302.500	-30.693	0.100
302.600	-29.352	0.100
302.700	-32.925	0.100
302.800	-27.190	0.100
302.900	-31.440	0.100
303.000	-24.805	0.100
303.100	-24.213	0.100
303.200	-33.314	0.100
303.300	-29.715	0.100
303.400	-35.760	0.100
303.500	-28.055	0.100
303.600	-25.239	0.100
303.700	-19.946	0.100
303.800	-25.302	0.100
303.900	-30.035	0.100
304.000	-29.638	0.100
304.100	-33.187	0.100
304.200	-37.054	0.100
304.300	-21.138	0.100
304.400	-34.422	0.100
304.500	-19.269	0.100
304.600	-32.759	0.100
304.700	-37.716	0.100
304.800	-18.571	0.100
304.900	-27.832	0.100
305.000	-22.091	0.100
305.100	-23.337	0.100
305.200	-34.103	0.100
305.300	-25.389	0.100
305.400	-31.062	0.100
305.500	-28.625	0.100
305.600	-28.101	0.100
305.700	-29.359	0.100
305.800	-13.103	0.100
305.900	-25.960	0.100
306.000	-32.508	0.100
306.100	-30.646	0.100
306.200	-34.712	0.100
306.300	-17.129	0.100
306.400	-31.673	0.100
306.500	-31.390	0.100
306.600	-38.784	0.100
306.700	-16.811	0.100
306.800	-14.825	0.100
306.900	-33.934	0.100
307.000	-36.842	0.100
307.100	-30.122	0.100
307.200	-17.729	0.100
307.300	-33.888	0.099
307.400	-33.557	0.100
307.500	-28.438	0.100
307.600	-48.428	0.100
307.700	-25.424	0.100
307.800	-14.842	0.100
307.900	-31.095	0.100
308.000	-30.290	0.100
308.100	-34.992	0.100
308.200	-31.226	0.100
308.300	-24.807	0.100
308.400	-51.819	0.100
308.500	-23.651	0.100
308.600	-21.286	0.100
308.700	-17.762	0.100
308.800	-28.799	0.100
308.900	-39.385	0.100
309.000	-31.592	0.100
309.100	-33.168	0.100
309.200	-25.293	0.100
309.300	-29.445	0.100
309.400	-28.341	0.100
309.500	-35.010	0.100
309.600	-28.523	0.100
309.700	-21.122	0.100
309.800	-24.676	0.100
309.900	-26.545	0.100
310.000	-24.502	0.100
310.100	-25.769	0.100
310.200	-48.118	0.100
310.300	-18.471	0.100
310.400	-16.603	0.100
310.500	-21.166	0.100
310.600	-20.782	0.100
310.700	-37.230	0.100
310.800	-19.200	0.100
310.900	-26.915	0.100
311.000	-31.329	0.100
311.100	-19.512	0.100
311.200	-25.996	0.100
311.300	-42.533	0.100
311.400	-29.191	0.100
311.500	-15.254	0.100
311.600	-30.645	0.100
311.700	-29.660	0.100
311.800	-28.019	0.100
311.900	-28.773	0.100
312.000	-27.369	0.100
312.100	-34.518	0.100
312.200	-24.303	0.100
312.300	-26.829	0.100
312.400	-24.093	0.100
312.500	-20.533	0.100
312.600	-19.549	0.100
312.700	-34.683	0.100
312.800	-40.426	0.100
312.900	-31.288	0.100
313.000	-27.509	0.100
313.100	-23.407	0.100
313.200	-20.751	0.100
313.300	-29.198	0.100
313.400	-16.577	0.100
313.500	-28.543	0.100
313.600	-17.001	0.100
313.700	-19.503	0.100
313.800	-35.852	0.100
313.900	-5.164	0.100
314.000	-17.232	0.100
314.100	-36.541	0.100
314.200	-27.505	0.100
314.300	-23.065	0.100
314.400	-22.970	0.100
314.500	-32.879	0.100
314.600	-35.687	0.100
314.700	-23.410	0.099
314.800	-27.562	0.100
314.900	-32.523	0.100
315.000	-21.556	0.100
315.100	-20.578	0.100
315.200	-28.713	0.100
315.300	-19.667	0.100
315.400	-35.562	0.100
315.500	-24.081	0.100
315.600	-40.417	0.100
315.700	-4.849	0.100
315.800	-27.013	0.100
315.900	-32.427	0.100
316.000	-30.427	0.099
316.100	-25.884	0.100
316.200	-39.586	0.100
316.300	-14.839	0.100
316.400	-39.602	0.100
316.500	-22.675	0.099
316.600	-20.590	0.100
316.700	-26.626	0.100
316.800	-26.376	0.100
316.900	-21.879	0.100
317.000	-37.877	0.100
317.100	-20.433	0.100
317.200	-11.425	0.100
317.300	-28.035	0.100
317.400	-40.818	0.100
317.500	-23.292	0.100
317.600	-19.096	0.100
317.700	-21.906	0.100
317.800	-14.734	0.100
317.900	-37.020	0.100
318.000	-44.912	0.100
318.100	-12.672	0.100
318.200	-26.183	0.099
318.300	-19.776	0.100
318.400	-31.005	0.100
318.500	-26.761	0.100
318.600	-24.658	0.100
318.700	-29.417	0.100
318.800	-32.532	0.100
318.900	-34.958	0.100
319.000	-31.149	0.100
319.100	-28.821	0.100
319.200	-18.650	0.100
319.300	-34.268	0.100
319.400	-22.586	0.100
319.500	-23.220	0.100
319.600	-27.871	0.100
319.700	-31.374	0.100
319.800	-9.877	0.100
319.900	-21.863	0.100
320.000	-25.508	0.100
320.100	-17.957	0.100
320.200	-19.472	0.100
320.300	-29.594	0.099
320.400	-26.864	0.100
320.500	-23.272	0.100
320.600	-31.311	0.100
320.700	-20.152	0.100
320.800	-22.479	0.100
320.900	-24.565	0.100
321.000	-32.305	0.100
321.100	-21.356	0.100
321.200	-24.966	0.100
321.300	-22.465	0.100
321.400	-33.188	0.100
321.500	-27.116	0.100
321.600	-19.771	0.100
321.700	-28.563	0.099
321.800	-13.497	0.100
321.900	-31.810	0.100
322.000	-32.731	0.100
322.100	-25.242	0.100
322.200	-27.193	0.100
322.300	-9.037	0.099
322.400	-14.659	0.100
322.500	-25.900	0.100
322.600	-26.027	0.100
322.700	-26.843	0.100
322.800	-27.966	0.100
322.900	-32.201	0.100
323.000	-17.178	0.100
323.100	-20.598	0.100
323.200	-28.862	0.100
323.300	-11.003	0.099
323.400	-23.191	0.100
323.500	-24.486	0.100
323.600	-24.988	0.100
323.700	-35.878	0.100
323.800	-21.117	0.100
323.900	-21.222	0.100
324.000	-22.010	0.100
324.100	-17.345	0.100
324.200	-18.321	0.100
324.300	-22.556	0.100
324.400	-19.751	0.100
324.500	-26.847	0.100
324.600	-28.034	0.100
324.700	-34.906	0.100
324.800	-19.523	0.100
324.900	-17.493	0.100
325.000	-14.296	0.100
325.100	-22.223	0.100
325.200	-19.859	0.100
325.300	-22.443	0.100
325.400	-32.259	0.100
325.500	-35.677	0.100
325.600	-34.480	0.100
325.700	-34.396	0.100
325.800	-7.962	0.100
325.900	-21.685	0.100
326.000	-21.092	0.100
326.100	-24.931	0.100
326.200	-16.890	0.100
326.300	-23.648	0.100
326.400	-28.366	0.100
326.500	-32.981	0.100
326.600	-19.337	0.100
326.700	-20.593	0.100
326.800	-21.041	0.100
326.900	-16.498	0.100
327.000	-24.753	0.100
327.100	-33.813	0.100
327.200	-23.844	0.100
327.300	-13.867	0.100
327.400	-13.578	0.100
327.500	-38.611	0.100
327.600	-17.837	0.100
327.700	-21.772	0.100
327.800	-26.307	0.100
327.900	-23.686	0.100
328.000	-22.246	0.100
328.100	-18.135	0.100
328.200	-35.264	0.100
328.300	-12.905	0.100
328.400	-22.854	0.100
328.500	-20.594	0.100
328.600	-39.719	0.100
328.700	-14.805	0.100
328.800	-17.270	0.100
328.900	-33.401	0.100
329.000	-28.776	0.100
329.100	-37.534	0.100
329.200	-27.007	0.100
329.300	-13.241	0.100
329.400	-20.249	0.100
329.500	-23.855	0.100
329.600	-33.392	0.100
329.700	-33.669	0.100
329.800	-4.440	0.100
329.900	-11.220	0.100
330.000	-20.831	0.100
330.100	-19.058	0.100
330.200	21.255	0.100
330.300	35.059	0.100
330.400	28.040	0.100
330.500	38.429	0.100
330.600	33.717	0.100
330.700	53.073	0.100
330.800	52.991	0.100
330.900	45.632	0.100
331.000	43.581	0.100
331.100	61.566	0.100
331.200	35.262	0.100
331.300	66.644	0.100
331.400	50.250	0.100
331.500	49.555	0.100
331.600	54.833	0.100
331.700	67.595	0.100
331.800	43.535	0.100
331.900	38.116	0.100
332.000	53.908	0.100
332.100	27.951	0.100
332.200	44.178	0.100
332.300	40.088	0.100
332.400	45.679	0.100
332.500	43.166	0.100
332.600	42.090	0.100
332.700	32.923	0.100
332.800	52.719	0.100
332.900	31.367	0.100
333.000	35.412	0.100
333.100	33.557	0.100
333.200	26.393	0.100
333.300	28.352	0.100
333.400	39.975	0.100
333.500	39.790	0.100
333.600	26.591	0.100
333.700	5.828	0.100
333.800	35.997	0.100
333.900	45.284	0.100
334.000	32.415	0.100
334.100	27.612	0.100
334.200	28.683	0.100
334.300	29.806	0.100
334.400	31.673	0.100
334.500	23.799	0.100
334.600	29.888	0.100
334.700	41.210	0.100
334.800	28.377	0.100
334.900	42.444	0.100
335.000	30.166	0.100
335.100	45.028	0.100
335.200	48.428	0.100
335.300	45.825	0.100
335.400	37.943	0.100
335.500	57.606	0.100
335.600	37.993	0.100
335.700	45.900	0.100
335.800	45.996	0.100
335.900	48.874	0.100
336.000	71.244	0.100
336.100	63.266	0.100
336.200	50.156	0.100
336.300	47.563	0.100
336.400	56.376	0.100
336.500	68.354	0.100
336.600	65.154	0.100
336.700	53.930	0.100
336.800	67.762	0.100
336.900	59.082	0.100
337.000	54.051	0.100
337.100	60.350	0.100
337.200	64.677	0.100
337.300	75.361	0.100
337.400	71.071	0.100
337.500	65.213	0.100
337.600	65.568	0.100
337.700	62.105	0.100
337.800	74.718	0.100
337.900	75.310	0.100
338.000	74.888	0.100
338.100	63.558	0.100
338.200	68.572	0.100
338.300	71.188	0.100
338.400	56.893	0.100
338.500	73.996	0.100
338.600	84.122	0.100
338.700	79.814	0.100
338.800	70.071	0.100
338.900	69.966	0.100
339.000	75.367	0.100
339.100	84.204	0.100
339.200	73.177	0.100
339.300	74.280	0.100
339.400	85.575	0.100
339.500	82.516	0.100
339.600	77.532	0.100
339.700	60.035	0.100
339.800	74.681	0.100
339.900	87.193	0.100
340.000	79.066	0.100
340.100	69.209	0.100
340.200	63.623	0.100
340.300	89.408	0.100
340.400	77.484	0.100
340.500	69.387	0.100
340.600	90.330	0.100
340.700	80.484	0.100
340.800	75.232	0.100
340.900	74.966	0.100
341.000	83.535	0.100
341.100	77.394	0.100
341.200	74.447	0.100
341.300	62.962	0.100
341.400	75.080	0.100
341.500	81.391	0.100
341.600	72.229	0.100
341.700	95.082	0.100
341.800	80.410	0.100
341.900	75.074	0.100
342.000	83.636	0.100
342.100	88.222	0.100
342.200	71.992	0.100
342.300	82.272	0.100
342.400	88.943	0.100
342.500	79.892	0.100
342.600	86.308	0.100
342.700	88.792	0.099
342.800	81.924	0.100
342.900	82.410	0.100
343.000	72.131	0.100
343.100	79.879	0.100
343.200	84.436	0.100
343.300	84.494	0.100
343.400	67.639	0.100
343.500	77.625	0.100
343.600	84.105	0.100
343.700	80.908	0.100
343.800	78.675	0.100
343.900	80.527	0.100
344.000	79.058	0.100
344.100	57.870	0.100
344.200	77.796	0.100
344.300	79.400	0.100
344.400	78.963	0.100
344.500	70.144	0.100
344.600	68.259	0.100
344.700	82.122	0.100
344.800	75.048	0.100
344.900	68.954	0.100
345.000	92.494	0.100
345.100	80.096	0.100
345.200	81.454	0.100
345.300	74.542	0.100
345.400	80.260	0.100
345.500	72.498	0.100
345.600	69.718	0.100
345.700	91.209	0.100
345.800	76.930	0.100
345.900	76.870	0.100
346.000	89.380	0.100
346.100	84.598	0.100
346.200	76.090	0.100
346.300	74.834	0.100
346.400	78.515	0.100
346.500	68.270	0.100
346.600	79.166	0.100
346.700	73.940	0.100
346.800	72.230	0.100
346.900	72.410	0.100
347.000	81.811	0.100
347.100	81.594	0.100
347.200	88.043	0.100
347.300	75.556	0.100
347.400	86.158	0.100
347.500	77.770	0.100
347.600	77.422	0.100
347.700	72.113	0.100
347.800	72.320	0.100
347.900	77.896	0.100
348.000	81.392	0.100
348.100	83.543	0.100
348.200	70.004	0.100
348.300	75.734	0.100
348.400	59.513	0.100
348.500	68.595	0.100
348.600	83.278	0.100
348.700	66.781	0.100
348.800	80.467	0.100
348.900	80.439	0.100
349.000	78.662	0.100
349.100	81.157	0.100
349.200	79.426	0.100
349.300	67.915	0.100
349.400	82.528	0.100
349.500	73.603	0.100
349.600	73.704	0.100
349.700	71.217	0.100
349.800	65.379	0.100
349.900	82.253	0.100
350.000	74.648	0.100
350.100	65.063	0.100
350.200	66.589	0.100
350.300	71.227	0.100
350.400	69.876	0.100
350.500	73.014	0.100
350.600	79.169	0.100
350.700	66.513	0.100
350.800	61.835	0.100
350.900	69.690	0.100
351.000	67.971	0.100
351.100	81.858	0.100
351.200	70.891	0.100
351.300	75.324	0.100
351.400	74.521	0.100
351.500	69.358	0.100
351.600	72.588	0.100
351.700	51.244	0.100
351.800	74.251	0.100
351.900	77.389	0.100
352.000	72.985	0.100
352.100	80.261	0.100
352.200	51.530	0.100
352.300	60.636	0.100
352.400	61.219	0.100
352.500	73.016	0.100
352.600	69.478	0.100
352.700	75.209	0.100
352.800	78.265	0.100
352.900	68.341	0.100
353.000	80.388	0.100
353.100	51.437	0.100
353.200	61.254	0.100
353.300	77.121	0.100
353.400	79.281	0.100
353.500	72.306	0.100
353.600	70.384	0.100
353.700	54.601	0.100
353.800	64.837	0.100
353.900	56.384	0.100
354.000	81.543	0.100
354.100	75.567	0.100
354.200	76.944	0.100
354.300	57.924	0.100
354.400	53.924	0.100
354.500	71.206	0.100
354.600	70.370	0.100
354.700	70.615	0.100
354.800	60.079	0.100
354.900	67.069	0.100
355.000	53.192	0.100
355.100	74.124	0.100
355.200	74.977	0.100
355.300	55.211	0.100
355.400	66.428	0.100
355.500	73.622	0.100
355.600	78.364	0.100
355.700	59.335	0.100
355.800	75.526	0.100
355.900	63.539	0.100
356.000	70.671	0.100
356.100	78.561	0.100
356.200	78.222	0.100
356.300	68.039	0.100
356.400	59.432	0.100
356.500	62.514	0.100
356.600	67.540	0.100
356.700	81.190	0.100
356.800	67.462	0.100
356.900	70.079	0.100
357.000	60.698	0.100
357.100	69.533	0.100
357.200	78.306	0.100
357.300	69.670	0.100
357.400	61.298	0.100
357.500	65.653	0.100
357.600	72.795	0.100
357.700	57.234	0.100
357.800	84.494	0.100
357.900	69.944	0.100
358.000	58.716	0.100
358.100	93.587	0.100
358.200	76.120	0.100
358.300	63.694	0.100
358.400	60.482	0.100
358.500	66.697	0.100
358.600	74.627	0.100
358.700	73.283	0.100
358.800	74.792	0.100
358.900	70.808	0.100
359.000	60.448	0.100
359.100	69.558	0.100
359.200	79.417	0.100
359.300	68.077	0.100
359.400	67.717	0.100
359.500	75.855	0.100
359.600	76.506	0.100
359.700	85.455	0.100
359.800	76.117	0.100
359.900	59.334	0.100
360.000	62.624	0.100
360.100	70.612	0.100
360.200	78.759	0.100
360.300	83.875	0.100
360.400	74.693	0.100
360.500	74.339	0.100
360.600	66.241	0.100
360.700	91.225	0.100
360.800	69.799	0.100
360.900	63.640	0.100
361.000	76.230	0.100
361.100	80.161	0.100
361.200	64.260	0.100
361.300	61.414	0.100
361.400	64.017	0.100
361.500	72.158	0.100
361.600	59.624	0.100
361.700	65.976	0.100
361.800	80.697	0.100
361.900	70.272	0.100
362.000	80.870	0.100
362.100	68.933	0.100
362.200	66.247	0.100
362.300	76.296	0.100
362.400	76.525	0.100
362.500	77.114	0.100
362.600	86.600	0.100
362.700	80.723	0.100
362.800	77.245	0.100
362.900	54.216	0.100
363.000	79.501	0.100
363.100	75.304	0.100
363.200	82.606	0.100
363.300	62.741	0.100
363.400	81.410	0.100
363.500	61.805	0.100
363.600	74.658	0.100
363.700	77.910	0.100
363.800	66.382	0.100
363.900	85.017	0.100
364.000	77.948	0.100
364.100	76.639	0.100
364.200	75.306	0.100
364.300	80.991	0.100
364.400	66.633	0.100
364.500	61.163	0.100
364.600	74.728	0.100
364.700	76.391	0.100
364.800	76.120	0.100
364.900	63.635	0.100
365.000	64.359	0.100
365.100	76.088	0.100
365.200	93.203	0.100
365.300	70.630	0.100
365.400	62.408	0.100
365.500	75.465	0.100
365.600	53.060	0.100
365.700	80.471	0.100
365.800	92.696	0.100
365.900	65.853	0.100
366.000	68.993	0.100
366.100	82.960	0.100
366.200	83.473	0.100
366.300	78.386	0.100
366.400	64.520	0.100
366.500	73.010	0.100
366.600	75.383	0.100
366.700	77.791	0.100
366.800	75.838	0.100
366.900	72.390	0.100
367.000	77.513	0.100
367.100	66.683	0.100
367.200	84.287	0.100
367.300	90.113	0.100
367.400	83.900	0.100
367.500	71.380	0.100
367.600	78.372	0.100
367.700	67.986	0.100
367.800	76.301	0.100
367.900	72.740	0.100
368.000	77.825	0.100
368.100	66.936	0.100
368.200	60.777	0.100
368.300	61.002	0.100
368.400	79.176	0.100
368.500	64.515	0.100
368.600	85.688	0.100
368.700	83.980	0.100
368.800	70.093	0.100
368.900	58.401	0.100
369.000	65.254	0.100
369.100	70.372	0.100
369.200	70.203	0.100
369.300	63.663	0.100
369.400	77.492	0.100
369.500	66.504	0.100
369.600	65.313	0.100
369.700	74.550	0.099
369.800	76.415	0.100
369.900	67.470	0.100
370.000	67.981	0.100
370.100	78.311	0.100
370.200	66.462	0.100
370.300	82.796	0.100
370.400	84.755	0.100
370.500	73.832	0.100
370.600	71.914	0.100
370.700	81.726	0.100
370.800	79.209	0.099
370.900	81.737	0.100
371.000	68.568	0.100
371.100	71.489	0.100
371.200	78.372	0.100
371.300	92.441	0.100
371.400	71.155	0.100
371.500	70.653	0.100
371.600	73.000	0.100
371.700	74.776	0.100
371.800	71.631	0.100
371.900	65.928	0.100
372.000	72.010	0.100
372.100	76.130	0.100
372.200	71.506	0.100
372.300	72.899	0.100
372.400	81.088	0.100
372.500	67.388	0.100
372.600	72.069	0.100
372.700	75.733	0.100
372.800	79.089	0.099
372.900	77.385	0.099
373.000	77.686	0.100
373.100	70.872	0.099
373.200	83.733	0.100
373.300	74.434	0.100
373.400	79.646	0.100
373.500	77.256	0.100
373.600	72.999	0.100
373.700	79.019	0.100
373.800	64.791	0.100
373.900	72.913	0.099
374.000	73.378	0.100
374.100	74.624	0.100
374.200	78.474	0.100
374.300	75.734	0.100
374.400	83.045	0.100
374.500	77.726	0.100
374.600	77.332	0.100
374.700	72.723	0.099
374.800	75.765	0.100
374.900	71.516	0.100
375.000	78.890	0.100
375.100	72.177	0.100
375.200	77.299	0.100
375.300	92.652	0.099
375.400	80.957	0.100
375.500	92.114	0.100
375.600	68.312	0.100
375.700	57.593	0.100
375.800	83.395	0.100
375.900	79.654	0.100
376.000	68.702	0.100
376.100	76.678	0.100
376.200	67.682	0.100
376.300	80.347	0.099
376.400	80.392	0.100
376.500	75.405	0.100
376.600	65.834	0.100
376.700	83.733	0.099
376.800	81.490	0.100
376.900	76.270	0.100
377.000	77.103	0.100
377.100	64.780	0.100
377.200	78.492	0.100
377.300	69.567	0.100
377.400	84.359	0.100
377.500	76.136	0.100
377.600	67.374	0.100
377.700	86.428	0.100
377.800	70.215	0.100
377.900	77.845	0.099
378.000	72.208	0.100
378.100	74.954	0.100
378.200	71.286	0.100
378.300	66.066	0.100
378.400	89.066	0.099
378.500	73.718	0.100
378.600	90.990	0.100
378.700	81.889	0.100
378.800	72.675	0.100
378.900	80.705	0.099
379.000	66.162	0.100
379.100	83.151	0.099
379.200	78.255	0.100
379.300	76.246	0.099
379.400	84.584	0.099
379.500	83.658	0.100
379.600	66.286	0.100
379.700	92.792	0.100
379.800	74.444	0.100
379.900	71.184	0.100
380.000	74.232	0.100
380.100	80.365	0.100
380.200	75.105	0.099
380.300	70.443	0.099
380.400	85.633	0.100
380.500	65.619	0.099
380.600	78.407	0.100
380.700	78.289	0.099
380.800	76.599	0.100
380.900	73.921	0.099
381.000	87.668	0.100
381.100	86.807	0.100
381.200	74.601	0.100
381.300	75.402	0.100
381.400	75.942	0.100
381.500	67.339	0.099
381.600	73.322	0.100
381.700	76.108	0.100
381.800	67.775	0.100
381.900	80.841	0.099
382.000	80.804	0.099
382.100	69.477	0.100
382.200	74.182	0.099
382.300	79.325	0.099
382.400	61.295	0.099
382.500	74.708	0.099
382.600	78.251	0.099
382.700	84.750	0.099
382.800	91.837	0.099
382.900	67.986	0.099
383.000	82.813	0.100
383.100	76.494	0.099
383.200	83.814	0.099
383.300	92.361	0.100
383.400	95.036	0.099
383.500	84.382	0.099
383.600	83.281	0.099
383.700	83.545	0.099
383.800	68.595	0.100
383.900	81.343	0.099
384.000	63.821	0.099
384.100	80.513	0.099
384.200	77.437	0.099
384.300	72.705	0.099
384.400	99.097	0.099
384.500	71.752	0.099
384.600	79.755	0.099
384.700	86.510	0.099
384.800	73.307	0.099
384.900	86.470	0.099
385.000	94.539	0.099
385.100	70.544	0.099
385.200	90.450	0.099
385.300	63.746	0.100
385.400	68.163	0.099
385.500	74.830	0.099
385.600	72.800	0.099
385.700	66.818	0.099
385.800	70.213	0.099
385.900	63.691	0.099
386.000	86.144	0.099
386.100	81.280	0.099
386.200	80.841	0.099
386.300	95.428	0.099
386.400	71.168	0.099
386.500	75.510	0.099
386.600	76.484	0.099
386.700	77.255	0.099
386.800	70.202	0.099
386.900	91.392	0.099
387.000	66.863	0.099
387.100	84.161	0.099
387.200	82.350	0.100
387.300	86.235	0.099
387.400	86.139	0.099
387.500	91.528	0.099
387.600	77.208	0.099
387.700	69.281	0.099
387.800	79.682	0.099
387.900	76.828	0.099
388.000	73.834	0.099
388.100	70.829	0.099
388.200	98.587	0.099
388.300	81.332	0.099
388.400	83.393	0.099
388.500	78.304	0.099
388.600	83.313	0.099
388.700	83.517	0.099
388.800	75.907	0.099
388.900	72.217	0.099
389.000	63.420	0.099
389.100	68.228	0.099
389.200	87.760	0.100
389.300	84.167	0.099
389.400	90.838	0.099
389.500	66.916	0.099
389.600	69.450	0.099
389.700	85.033	0.099
389.800	67.652	0.099
389.900	80.444	0.099
390.000	76.065	0.099
390.100	42.164	0.099
390.200	35.154	0.099
390.300	18.565	0.099
390.400	24.183	0.099
390.500	-3.778	0.099
390.600	-6.287	0.099
390.700	-17.189	0.099
390.800	-21.321	0.099
390.900	-31.041	0.099
391.000	-31.475	0.099
391.100	-43.167	0.099
391.200	-53.369	0.099
391.300	-43.858	0.099
391.400	-34.473	0.099
391.500	-53.740	0.099
391.600	-43.938	0.099
391.700	-58.263	0.099
391.800	-63.617	0.099
391.900	-53.390	0.099
392.000	-61.634	0.099
392.100	-68.863	0.099
392.200	-58.422	0.099
392.300	-68.582	0.099
392.400	-64.127	0.099
392.500	-57.150	0.099
392.600	-55.613	0.099
392.700	-58.752	0.099
392.800	-51.252	0.099
392.900	-68.160	0.099
393.000	-56.758	0.099
393.100	-54.754	0.099
393.200	-59.717	0.099
393.300	-67.967	0.099
393.400	-45.880	0.099
393.500	-49.695	0.099
393.600	-49.182	0.099
393.700	-59.262	0.099
393.800	-58.272	0.099
393.900	-45.314	0.099
394.000	-60.534	0.099
394.100	-44.741	0.099
394.200	-47.670	0.099
394.300	-49.840	0.099
394.400	-51.677	0.099
394.500	-50.302	0.099
394.600	-48.988	0.099
394.700	-45.175	0.099
394.800	-45.072	0.099
394.900	-47.178	0.099
395.000	-49.661	0.099
395.100	-26.494	0.099
395.200	-53.558	0.099
395.300	-37.783	0.099
395.400	-48.829	0.099
395.500	-44.791	0.099
395.600	-44.134	0.099
395.700	-41.971	0.099
395.800	-35.903	0.099
395.900	-36.792	0.099
396.000	-46.989	0.099
396.100	-56.757	0.099
396.200	-41.373	0.099
396.300	-37.591	0.099
396.400	-37.582	0.099
396.500	-35.830	0.099
396.600	-41.890	0.099
396.700	-38.931	0.099
396.800	-36.307	0.099
396.900	-41.629	0.099
397.000	-39.069	0.099
397.100	-31.782	0.099
397.200	-40.984	0.099
397.300	-44.389	0.099
397.400	-42.861	0.099
397.500	-48.909	0.099
397.600	-35.631	0.099
397.700	-19.547	0.099
397.800	-46.381	0.099
397.900	-37.943	0.099
398.000	-53.964	0.099
398.100	-33.076	0.099
398.200	-40.090	0.099
398.300	-39.442	0.099
398.400	-18.877	0.099
398.500	-55.760	0.099
398.600	-53.577	0.099
398.700	-32.756	0.099
398.800	-33.073	0.099
398.900	-26.157	0.099
399.000	-40.319	0.099
399.100	-38.892	0.099
399.200	-31.955	0.099
399.300	-50.508	0.099
399.400	-27.254	0.099
399.500	-51.025	0.099
399.600	-45.524	0.099
399.700	-34.187	0.099
399.800	-45.665	0.099
399.900	-42.257	0.099
400.000	-42.500	0.099
400.100	-46.342	0.099
400.200	-42.012	0.099
400.300	-42.843	0.099
400.400	-42.210	0.099
400.500	-47.335	0.099
400.600	-41.826	0.099
400.700	-37.102	0.099
400.800	-49.481	0.099
400.900	-45.176	0.099
401.000	-42.057	0.099
401.100	-39.666	0.099
401.200	-41.780	0.099
401.300	-39.440	0.099
401.400	-35.933	0.099
401.500	-33.412	0.099
401.600	-35.229	0.099
401.700	-41.301	0.099
401.800	-35.957	0.099
401.900	-42.683	0.099
402.000	-32.890	0.099
402.100	-39.379	0.099
402.200	-33.412	0.099
402.300	-58.593	0.099
402.400	-38.737	0.099
402.500	-43.945	0.099
402.600	-35.200	0.099
402.700	-61.678	0.099
402.800	-44.345	0.099
402.900	-41.219	0.099
403.000	-35.832	0.099
403.100	-39.548	0.099
403.200	-47.234	0.099
403.300	-45.298	0.099
403.400	-49.111	0.099
403.500	-40.227	0.099
403.600	-25.584	0.099
403.700	-46.564	0.099
403.800	-46.216	0.099
403.900	-34.942	0.099
404.000	-44.424	0.099
404.100	-46.902	0.099
404.200	-50.554	0.099
404.300	-45.005	0.099
404.400	-42.559	0.099
404.500	-46.268	0.099
404.600	-37.311	0.099
404.700	-35.624	0.099
404.800	-48.037	0.099
404.900	-46.836	0.099
405.000	-37.336	0.099
405.100	-45.271	0.099
405.200	-37.815	0.099
405.300	-57.080	0.099
405.400	-37.471	0.099
405.500	-33.736	0.099
405.600	-49.574	0.099
405.700	-42.040	0.099
405.800	-46.279	0.099
405.900	-35.122	0.099
406.000	-33.971	0.099
406.100	-42.097	0.099
406.200	-38.763	0.099
406.300	-47.569	0.099
406.400	-37.260	0.099
406.500	-34.315	0.099
406.600	-41.195	0.099
406.700	-40.055	0.099
406.800	-41.610	0.099
406.900	-49.783	0.099
407.000	-41.421	0.099
407.100	-38.298	0.099
407.200	-54.401	0.099
407.300	-43.318	0.099
407.400	-51.362	0.099
407.500	-36.164	0.099
407.600	-58.144	0.099
407.700	-46.965	0.099
407.800	-50.984	0.099
407.900	-46.100	0.099
408.000	-44.915	0.099
408.100	-42.875	0.099
408.200	-30.745	0.099
408.300	-38.349	0.099
408.400	-41.866	0.099
408.500	-52.605	0.099
408.600	-42.463	0.099
408.700	-47.594	0.099
408.800	-51.363	0.099
408.900	-51.092	0.099
409.000	-39.284	0.099
409.100	-27.561	0.099
409.200	-40.925	0.099
409.300	-51.082	0.099
409.400	-54.108	0.099
409.500	-33.904	0.099
409.600	-43.496	0.099
409.700	-53.508	0.099
409.800	-41.019	0.099
409.900	-36.360	0.099
410.000	-30.159	0.099
410.100	-44.979	0.099
410.200	-40.399	0.099
410.300	-43.616	0.099
410.400	-51.499	0.099
410.500	-44.823	0.099
410.600	-40.125	0.099
410.700	-53.519	0.099
410.800	-42.302	0.099
410.900	-39.833	0.099
411.000	-56.660	0.099
411.100	-54.911	0.099
411.200	-29.508	0.099
411.300	-34.121	0.099
411.400	-41.125	0.099
411.500	-46.726	0.099
411.600	-40.041	0.099
411.700	-45.793	0.099
411.800	-54.013	0.099
411.900	-40.201	0.099
412.000	-44.751	0.099
412.100	-38.978	0.099
412.200	-42.205	0.099
412.300	-59.338	0.099
412.400	-52.962	0.099
412.500	-41.408	0.099
412.600	-47.524	0.099
412.700	-45.070	0.099
412.800	-48.801	0.099
412.900	-45.469	0.099
413.000	-23.736	0.099
413.100	-42.692	0.099
413.200	-52.439	0.099
413.300	-54.534	0.099
413.400	-41.154	0.099
413.500	-30.693	0.099
413.600	-39.338	0.099
413.700	-44.512	0.099
413.800	-38.090	0.099
413.900	-42.562	0.099
414.000	-55.415	0.099
414.100	-33.594	0.099
414.200	-47.770	0.099
414.300	-49.620	0.099
414.400	-32.036	0.099
414.500	-50.476	0.099
414.600	-41.368	0.099
414.700	-34.253	0.099
414.800	-36.928	0.099
414.900	-46.241	0.099
415.000	-37.073	0.099
415.100	-41.684	0.099
415.200	-47.452	0.099
415.300	-44.649	0.099
415.400	-47.055	0.099
415.500	-51.205	0.099
415.600	-43.246	0.099
415.700	-38.256	0.099
415.800	-41.718	0.099
415.900	-42.306	0.099
416.000	-49.216	0.099
416.100	-41.092	0.099
416.200	-38.072	0.099
416.300	-39.536	0.099
416.400	-51.751	0.099
416.500	-31.245	0.099
416.600	-39.941	0.099
416.700	-42.382	0.099
416.800	-50.843	0.099
416.900	-38.879	0.099
417.000	-36.423	0.099
417.100	-33.551	0.099
417.200	-36.784	0.099
417.300	-51.091	0.099
417.400	-42.631	0.099
417.500	-44.665	0.099
417.600	-36.004	0.099
417.700	-30.216	0.099
417.800	-49.725	0.099
417.900	-41.089	0.099
418.000	-35.032	0.099
418.100	-41.987	0.099
418.200	-46.281	0.099
418.300	-44.552	0.099
418.400	-38.452	0.099
418.500	-46.403	0.099
418.600	-42.256	0.099
418.700	-26.645	0.099
418.800	-44.258	0.099
418.900	-44.058	0.099
419.000	-38.524	0.099
419.100	-41.817	0.099
419.200	-48.341	0.099
419.300	-33.593	0.099
419.400	-38.549	0.099
419.500	-36.081	0.099
419.600	-47.745	0.099
419.700	-51.940	0.099
419.800	-34.585	0.099
419.900	-20.306	0.099
420.000	-35.695	0.099
420.100	-45.304	0.099
420.200	-37.624	0.099
420.300	-39.500	0.099
420.400	-44.781	0.099
420.500	-36.409	0.099
420.600	-50.750	0.099
420.700	-54.356	0.099
420.800	-41.341	0.099
420.900	-43.304	0.099
421.000	-49.611	0.099
421.100	-39.848	0.099
421.200	-31.471	0.099
421.300	-35.915	0.099
421.400	-50.377	0.099
421.500	-34.921	0.099
421.600	-40.322	0.099
421.700	-33.832	0.099
421.800	-42.217	0.099
421.900	-32.190	0.099
422.000	-39.546	0.099
422.100	-37.885	0.099
422.200	-47.976	0.099
422.300	-35.631	0.099
422.400	-40.878	0.099
422.500	-42.712	0.099
422.600	-43.390	0.099
422.700	-49.408	0.099
422.800	-37.548	0.099
422.900	-42.614	0.099
423.000	-45.156	0.099
423.100	-37.159	0.099
423.200	-25.668	0.099
423.300	-52.161	0.099
423.400	-46.279	0.099
423.500	-35.488	0.099
423.600	-43.801	0.099
423.700	-41.888	0.099
423.800	-52.442	0.099
423.900	-49.776	0.099
424.000	-36.158	0.099
424.100	-39.169	0.099
424.200	-46.319	0.099
424.300	-28.022	0.099
424.400	-45.049	0.099
424.500	-31.925	0.099
424.600	-49.593	0.099
424.700	-37.243	0.099
424.800	-30.292	0.099
424.900	-37.568	0.099
425.000	-46.892	0.099
425.100	-34.865	0.099
425.200	-42.240	0.099
425.300	-28.188	0.099
425.400	-35.443	0.099
425.500	-31.406	0.099
425.600	-41.183	0.099
425.700	-38.550	0.099
425.800	-39.618	0.099
425.900	-40.357	0.099
426.000	-40.364	0.099
426.100	-41.865	0.099
426.200	-35.031	0.099
426.300	-30.494	0.099
426.400	-40.764	0.099
426.500	-38.457	0.099
426.600	-45.763	0.099
426.700	-63.817	0.099
426.800	-40.800	0.099
426.900	-32.960	0.099
427.000	-33.091	0.099
427.100	-41.350	0.099
427.200	-41.450	0.099
427.300	-44.860	0.099
427.400	-26.861	0.099
427.500	-39.778	0.099
427.600	-19.888	0.099
427.700	-38.478	0.099
427.800	-36.814	0.099
427.900	-39.105	0.099
428.000	-40.547	0.099
428.100	-47.227	0.099
428.200	-42.700	0.099
428.300	-33.130	0.099
428.400	-41.975	0.099
428.500	-34.722	0.099
428.600	-34.434	0.099
428.700	-36.248	0.099
428.800	-47.398	0.099
428.900	-43.407	0.099
429.000	-45.196	0.099
429.100	-24.867	0.099
429.200	-26.420	0.099
429.300	-48.698	0.099
429.400	-42.755	0.099
429.500	-52.069	0.099
429.600	-28.442	0.099
429.700	-32.065	0.099
429.800	-38.130	0.099
429.900	-31.649	0.099
430.000	-41.201	0.099
430.100	-39.115	0.099
430.200	-34.974	0.099
430.300	-40.205	0.099
430.400	-53.391	0.099
430.500	-41.827	0.099
430.600	-40.847	0.099
430.700	-35.440	0.099
430.800	-25.354	0.099
430.900	-40.497	0.099
431.000	-35.732	0.099
431.100	-43.639	0.099
431.200	-25.257	0.099
431.300	-33.108	0.099
431.400	-44.928	0.099
431.500	-37.334	0.099
431.600	-35.049	0.099
431.700	-39.787	0.099
431.800	-37.281	0.099
431.900	-44.760	0.099
432.000	-50.809	0.099
432.100	-36.533	0.099
432.200	-36.030	0.099
432.300	-38.712	0.099
432.400	-40.813	0.099
432.500	-37.257	0.099
432.600	-38.274	0.099
432.700	-28.631	0.099
432.800	-37.227	0.099
432.900	-45.715	0.099
433.000	-29.802	0.099
433.100	-34.354	0.099
433.200	-28.287	0.099
433.300	-44.786	0.099
433.400	-44.230	0.099
433.500	-35.064	0.099
433.600	-50.820	0.099
433.700	-34.367	0.099
433.800	-20.976	0.099
433.900	-34.049	0.099
434.000	-56.901	0.099
434.100	-39.606	0.099
434.200	-47.357	0.099
434.300	-28.022	0.099
434.400	-25.756	0.099
434.500	-40.492	0.099
434.600	-30.444	0.099
434.700	-28.784	0.099
434.800	-50.123	0.099
434.900	-45.949	0.099
435.000	-39.685	0.099
435.100	-27.641	0.099
435.200	-27.256	0.099
435.300	-39.429	0.099
435.400	-32.136	0.099
435.500	-41.424	0.099
435.600	-35.337	0.099
435.700	-41.612	0.099
435.800	-35.856	0.099
435.900	-34.472	0.099
436.000	-33.696	0.099
436.100	-24.820	0.099
436.200	-32.320	0.099
436.300	-37.088	0.099
436.400	-49.046	0.099
436.500	-34.376	0.099
436.600	-33.263	0.099
436.700	-45.867	0.099
436.800	-44.678	0.099
436.900	-38.195	0.099
437.000	-31.455	0.099
437.100	-37.444	0.099
437.200	-31.613	0.099
437.300	-43.427	0.099
437.400	-32.979	0.099
437.500	-38.200	0.099
437.600	-36.757	0.099
437.700	-29.280	0.099
437.800	-33.845	0.099
437.900	-33.644	0.099
438.000	-20.398	0.099
438.100	-37.585	0.099
438.200	-37.814	0.099
438.300	-36.002	0.099
438.400	-38.940	0.099
438.500	-38.905	0.099
438.600	-19.028	0.099
438.700	-36.395	0.099
438.800	-37.297	0.099
438.900	-28.601	0.099
439.000	-43.035	0.099
439.100	-36.825	0.099
439.200	-36.890	0.099
439.300	-39.579	0.099
439.400	-34.053	0.099
439.500	-36.829	0.099
439.600	-38.538	0.099
439.700	-33.106	0.099
439.800	-21.442	0.099
439.900	-28.473	0.099
440.000	-38.223	0.099
440.100	-31.956	0.099
440.200	-48.012	0.099
440.300	-28.102	0.099
440.400	-39.613	0.099
440.500	-40.303	0.099
440.600	-28.659	0.099
440.700	-25.045	0.099
440.800	-37.556	0.099
440.900	-37.365	0.099
441.000	-32.986	0.099
441.100	-45.971	0.099
441.200	-30.855	0.099
441.300	-19.446	0.099
441.400	-44.676	0.099
441.500	-27.750	0.099
441.600	-43.694	0.099
441.700	-28.054	0.099
441.800	-28.773	0.099
441.900	-39.600	0.099
442.000	-33.109	0.099
442.100	-41.433	0.099
442.200	-36.135	0.099
442.300	-25.296	0.099
442.400	-27.580	0.099
442.500	-27.117	0.099
442.600	-37.486	0.099
442.700	-39.277	0.099
442.800	-40.289	0.099
442.900	-37.582	0.099
443.000	-43.685	0.099
443.100	-34.512	0.099
443.200	-36.353	0.099
443.300	-46.082	0.099
443.400	-24.490	0.099
443.500	-34.101	0.099
443.600	-42.223	0.099
443.700	-29.354	0.099
443.800	-33.558	0.099
443.900	-35.346	0.099
444.000	-29.848	0.099
444.100	-21.963	0.099
444.200	-34.311	0.099
444.300	-14.620	0.099
444.400	-37.540	0.099
444.500	-53.196	0.099
444.600	-43.854	0.099
444.700	-37.010	0.099
444.800	-32.601	0.099
444.900	-22.910	0.099
445.000	-18.507	0.099
445.100	-29.304	0.099
445.200	-35.749	0.099
445.300	-37.324	0.099
445.400	-41.355	0.099
445.500	-19.538	0.099
445.600	-30.259	0.099
445.700	-42.447	0.099
445.800	-32.657	0.099
445.900	-40.411	0.099
446.000	-38.542	0.099
446.100	-26.132	0.099
446.200	-31.199	0.099
446.300	-26.435	0.099
446.400	-37.685	0.099
446.500	-38.245	0.099
446.600	-29.606	0.099
446.700	-34.440	0.099
446.800	-33.127	0.099
446.900	-39.160	0.099
447.000	-35.128	0.099
447.100	-31.419	0.099
447.200	-25.405	0.099
447.300	-38.899	0.099
447.400	-40.077	0.099
447.500	-30.598	0.099
447.600	-28.803	0.099
447.700	-40.055	0.099
447.800	-41.662	0.099
447.900	-43.419	0.099
448.000	-24.763	0.099
448.100	-32.209	0.099
448.200	-38.424	0.099
448.300	-36.269	0.099
448.400	-32.769	0.099
448.500	-30.999	0.099
448.600	-25.923	0.099
448.700	-35.684	0.099
448.800	-24.818	0.099
448.900	-24.726	0.099
449.000	-34.488	0.099
449.100	-33.738	0.099
449.200	-34.846	0.099
449.300	-22.605	0.099
449.400	-26.736	0.099
449.500	-34.221	0.099
449.600	-36.427	0.099
449.700	-34.461	0.099
449.800	-27.718	0.099
449.900	-28.428	0.099
450.000	-31.801	0.099
450.100	-26.665	0.099
450.200	-32.601	0.099
450.300	-33.876	0.099
450.400	-32.384	0.099
450.500	-34.018	0.099
450.600	-41.425	0.099
450.700	-33.337	0.099
450.800	-19.965	0.099
450.900	-33.851	0.099
451.000	-22.106	0.099
451.100	-29.122	0.099
451.200	-31.797	0.099
451.300	-35.742	0.099
451.400	-36.537	0.099
451.500	-29.073	0.099
451.600	-31.155	0.099
451.700	-36.053	0.099
451.800	-17.430	0.099
451.900	-23.952	0.099
452.000	-34.265	0.099
452.100	-39.760	0.099
452.200	-30.912	0.099
452.300	-27.680	0.099
452.400	-23.144	0.099
452.500	-35.654	0.099
452.600	-34.717	0.099
452.700	-35.420	0.099
452.800	-35.279	0.099
452.900	-41.837	0.099
453.000	-29.323	0.099
453.100	-34.630	0.099
453.200	-24.076	0.099
453.300	-25.470	0.099
453.400	-28.168	0.099
453.500	-30.239	0.099
453.600	-31.386	0.099
453.700	-25.455	0.099
453.800	-32.644	0.099
453.900	-44.166	0.099
454.000	-35.317	0.099
454.100	-28.679	0.099
454.200	-41.501	0.099
454.300	-21.512	0.099
454.400	-41.668	0.099
454.500	-25.744	0.100
454.600	-24.807	0.100
454.700	-32.840	0.100
454.800	-28.172	0.100
454.900	-46.162	0.100
455.000	-22.432	0.100
455.100	-24.992	0.100
455.200	-30.159	0.100
455.300	-22.746	0.100
455.400	-41.336	0.100
455.500	-14.106	0.100
455.600	-20.198	0.100
455.700	-30.398	0.100
455.800	-18.960	0.100
455.900	-19.792	0.100
456.000	-39.676	0.100
456.100	-21.101	0.100
456.200	-14.994	0.100
456.300	-28.607	0.100
456.400	-38.729	0.100
456.500	-36.342	0.100
456.600	-39.840	0.100
456.700	-27.956	0.100
456.800	-17.326	0.100
456.900	-27.948	0.100
457.000	-44.283	0.100
457.100	-32.242	0.100
457.200	-24.405	0.100
457.300	-25.721	0.100
457.400	-25.070	0.100
457.500	-27.859	0.100
457.600	-29.191	0.100
457.700	-31.675	0.100
457.800	-39.181	0.100
457.900	-33.393	0.100
458.000	-19.533	0.100
458.100	-34.734	0.100
458.200	-38.447	0.100
458.300	-8.352	0.100
458.400	-39.447	0.100
458.500	-39.123	0.100
458.600	-26.860	0.100
458.700	-26.800	0.100
458.800	-31.518	0.100
458.900	-23.323	0.100
459.000	-36.141	0.100
459.100	-43.418	0.100
459.200	-26.969	0.100
459.300	-35.914	0.100
459.400	-24.631	0.100
459.500	-26.538	0.100
459.600	-36.344	0.100
459.700	-33.891	0.100
459.800	-32.197	0.100
459.900	-33.422	0.100
460.000	-38.654	0.100
460.100	-33.648	0.100
460.200	-6.199	0.100
460.300	-29.031	0.100
460.400	-26.909	0.100
460.500	-36.371	0.100
460.600	-36.085	0.100
460.700	-24.572	0.100
460.800	-13.330	0.100
460.900	-45.135	0.100
461.000	-26.702	0.100
461.100	-34.070	0.100
461.200	-27.602	0.100
461.300	-19.600	0.100
461.400	-26.549	0.100
461.500	-30.237	0.100
461.600	-31.061	0.100
461.700	-26.633	0.100
461.800	-22.191	0.100
461.900	-35.919	0.100
462.000	-47.598	0.100
462.100	-24.619	0.100
462.200	-39.519	0.100
462.300	-30.769	0.100
462.400	-11.611	0.100
462.500	-22.082	0.100
462.600	-20.531	0.100
462.700	-30.467	0.100
462.800	-31.275	0.100
462.900	-34.147	0.100
463.000	-27.327	0.100
463.100	-25.994	0.100
463.200	-38.269	0.100
463.300	-30.369	0.100
463.400	-19.890	0.100
463.500	-33.144	0.100
463.600	-24.093	0.100
463.700	-19.516	0.100
463.800	-19.184	0.100
463.900	-16.643	0.100
464.000	-32.727	0.100
464.100	-36.223	0.100
464.200	-20.451	0.100
464.300	-30.715	0.100
464.400	-19.248	0.100
464.500	-24.395	0.100
464.600	-29.098	0.100
464.700	-29.042	0.100
464.800	-29.444	0.100
464.900	-25.210	0.100
465.000	-26.357	0.100
465.100	-29.547	0.100
465.200	-35.394	0.100
465.300	-28.128	0.100
465.400	-24.791	0.100
465.500	-19.572	0.100
465.600	-20.201	0.100
465.700	-27.156	0.100
465.800	-26.336	0.100
465.900	-29.911	0.100
466.000	-29.648	0.100
466.100	-39.573	0.100
466.200	-17.001	0.100
466.300	-27.440	0.100
466.400	-38.111	0.100
466.500	-11.601	0.100
466.600	-21.359	0.100
466.700	-34.515	0.100
466.800	-22.395	0.100
466.900	-17.370	0.100
467.000	-31.656	0.100
467.100	-24.801	0.100
467.200	-29.018	0.100
467.300	-26.978	0.100
467.400	-31.339	0.100
467.500	-29.912	0.100
467.600	-23.224	0.100
467.700	-27.853	0.100
467.800	-30.323	0.100
467.900	-27.893	0.100
468.000	-29.948	0.100
468.100	-41.542	0.100
468.200	-4.943	0.100
468.300	-17.369	0.100
468.400	-25.329	0.100
468.500	-30.577	0.100
468.600	-37.347	0.100
468.700	-31.116	0.100
468.800	-17.634	0.100
468.900	-21.305	0.100
469.000	-21.064	0.100
469.100	-26.991	0.100
469.200	-21.795	0.100
469.300	-29.725	0.100
469.400	-21.392	0.100
469.500	-33.385	0.100
469.600	-22.554	0.100
469.700	-34.840	0.100
469.800	-22.046	0.100
469.900	-25.758	0.100
470.000	-23.920	0.100
470.100	-25.954	0.100
470.200	-17.673	0.100
470.300	-31.290	0.100
470.400	-18.459	0.100
470.500	-32.171	0.100
470.600	-30.102	0.100
470.700	-23.225	0.100
470.800	-29.099	0.100
470.900	-24.088	0.100
471.000	-24.699	0.100
471.100	-24.031	0.100
471.200	-22.867	0.100
471.300	-24.966	0.100
471.400	-21.037	0.100
471.500	-32.112	0.100
471.600	-30.994	0.100
471.700	-23.888	0.100
471.800	-20.328	0.100
471.900	-30.807	0.100
472.000	-20.601	0.100
472.100	-6.660	0.100
472.200	-34.746	0.100
472.300	-30.627	0.100
472.400	-30.518	0.100
472.500	-14.084	0.100
472.600	-24.917	0.100
472.700	-27.566	0.100
472.800	-23.077	0.100
472.900	-19.498	0.100
473.000	-39.392	0.100
473.100	-18.796	0.100
473.200	-23.406	0.100
473.300	-36.891	0.100
473.400	-31.587	0.100
473.500	-17.096	0.100
473.600	-39.837	0.100
473.700	-23.901	0.100
473.800	-26.623	0.100
473.900	-27.158	0.100
474.000	-24.986	0.100
474.100	-17.773	0.100
474.200	-33.505	0.100
474.300	-16.327	0.100
474.400	-23.362	0.100
474.500	-33.341	0.100
474.600	-9.598	0.100
474.700	-37.989	0.100
474.800	-21.958	0.100
474.900	-29.282	0.100
475.000	-30.890	0.100
475.100	-35.622	0.100
475.200	-14.796	0.100
475.300	-31.188	0.100
475.400	-20.397	0.100
475.500	-23.705	0.100
475.600	-14.900	0.100
475.700	-25.382	0.100
475.800	-24.307	0.100
475.900	-30.324	0.100
476.000	-25.145	0.100
476.100	-31.081	0.100
476.200	-23.936	0.100
476.300	-25.470	0.100
476.400	-28.770	0.100
476.500	-17.409	0.100
476.600	-17.720	0.100
476.700	-30.830	0.100
476.800	-24.967	0.100
476.900	-26.354	0.100
477.000	-19.133	0.100
477.100	-21.503	0.100
477.200	-23.078	0.100
477.300	-27.968	0.100
477.400	-25.034	0.100
477.500	-17.882	0.100
477.600	-32.913	0.100
477.700	-39.871	0.100
477.800	-18.952	0.100
477.900	-22.429	0.100
478.000	-30.174	0.100
478.100	-28.264	0.100
478.200	-10.452	0.100
478.300	-25.206	0.100
478.400	-29.559	0.100
478.500	-35.459	0.100
478.600	-31.188	0.100
478.700	-15.488	0.100
478.800	-44.474	0.099
478.900	-29.919	0.100
479.000	-30.628	0.100
479.100	-17.799	0.100
479.200	-20.670	0.100
479.300	-16.481	0.100
479.400	-21.430	0.100
479.500	-25.331	0.100
479.600	-24.875	0.100
479.700	-25.065	0.100
479.800	-39.683	0.099
479.900	-25.780	0.100
480.000	-19.376	0.099
480.100	-1.692	0.100
480.200	11.962	0.100
480.300	26.247	0.099
480.400	34.302	0.100
480.500	31.219	0.100
480.600	53.231	0.100
480.700	53.622	0.100
480.800	49.609	0.100
480.900	40.347	0.100
481.000	56.229	0.100
481.100	44.944	0.100
481.200	51.674	0.100
481.300	53.102	0.100
481.400	52.002	0.100
481.500	49.050	0.099
481.600	52.769	0.100
481.700	48.802	0.100
481.800	67.910	0.100
481.900	52.128	0.100
482.000	44.343	0.100
482.100	55.076	0.100
482.200	42.644	0.100
482.300	26.091	0.100
482.400	47.085	0.100
482.500	44.763	0.100
482.600	48.059	0.100
482.700	23.548	0.100
482.800	46.838	0.100
482.900	45.068	0.100
483.000	38.614	0.100
483.100	26.454	0.100
483.200	42.008	0.100
483.300	30.449	0.100
483.400	42.922	0.100
483.500	23.901	0.100
483.600	37.749	0.100
483.700	32.539	0.100
483.800	28.227	0.100
483.900	32.645	0.100
484.000	22.539	0.100
484.100	32.882	0.100
484.200	35.292	0.100
484.300	39.205	0.100
484.400	36.653	0.100
484.500	24.938	0.100
484.600	30.422	0.100
484.700	41.101	0.100
484.800	43.751	0.100
484.900	46.728	0.100
485.000	27.302	0.100
485.100	41.841	0.100
485.200	44.870	0.100
485.300	40.070	0.100
485.400	43.892	0.100
485.500	44.364	0.100
485.600	39.529	0.100
485.700	54.559	0.100
485.800	53.499	0.100
485.900	53.544	0.100
486.000	61.322	0.100
486.100	49.970	0.100
486.200	50.058	0.100
486.300	54.240	0.100
486.400	51.579	0.100
486.500	59.317	0.100
486.600	59.173	0.100
486.700	59.647	0.100
486.800	55.913	0.100
486.900	82.188	0.100
487.000	67.209	0.100
487.100	63.369	0.100
487.200	53.315	0.100
487.300	49.886	0.100
487.400	78.592	0.100
487.500	72.579	0.100
487.600	65.558	0.100
487.700	71.497	0.100
487.800	73.367	0.099
487.900	61.892	0.100
488.000	66.400	0.100
488.100	75.461	0.100
488.200	76.089	0.100
488.300	70.369	0.100
488.400	79.242	0.100
488.500	72.117	0.100
488.600	78.874	0.100
488.700	76.393	0.100
488.800	75.456	0.100
488.900	71.822	0.100
489.000	71.190	0.100
489.100	77.251	0.100
489.200	72.948	0.100
489.300	76.768	0.100
489.400	69.960	0.100
489.500	80.586	0.100
489.600	73.649	0.100
489.700	79.902	0.100
489.800	76.191	0.100
489.900	74.209	0.100
490.000	77.659	0.100
490.100	75.114	0.100
490.200	75.057	0.100
490.300	67.164	0.100
490.400	78.442	0.100
490.500	74.903	0.100
490.600	84.506	0.100
490.700	76.698	0.100
490.800	64.695	0.100
490.900	80.148	0.100
491.000	71.932	0.100
491.100	76.181	0.100
491.200	72.644	0.100
491.300	81.166	0.100
491.400	78.171	0.100
491.500	83.858	0.100
491.600	75.135	0.100
491.700	89.248	0.100
491.800	88.025	0.100
491.900	74.386	0.100
492.000	66.578	0.100
492.100	80.127	0.100
492.200	81.889	0.100
492.300	74.635	0.100
492.400	76.060	0.100
492.500	85.198	0.100
492.600	79.780	0.100
492.700	87.149	0.100
492.800	69.389	0.100
492.900	79.557	0.100
493.000	76.976	0.100
493.100	79.929	0.100
493.200	87.781	0.100
493.300	81.282	0.100
493.400	77.255	0.100
493.500	79.958	0.100
493.600	83.158	0.100
493.700	64.086	0.100
493.800	80.777	0.100
493.900	73.528	0.100
494.000	88.335	0.100
494.100	70.130	0.100
494.200	84.838	0.100
494.300	88.728	0.100
494.400	72.608	0.100
494.500	75.540	0.100
494.600	77.380	0.100
494.700	74.032	0.100
494.800	73.618	0.100
494.900	79.585	0.100
495.000	73.662	0.100
495.100	79.382	0.100
495.200	80.942	0.100
495.300	69.647	0.100
495.400	81.373	0.100
495.500	86.862	0.100
495.600	62.880	0.100
495.700	74.003	0.100
495.800	78.079	0.100
495.900	82.000	0.100
496.000	90.589	0.100
496.100	81.407	0.100
496.200	74.061	0.100
496.300	72.953	0.100
496.400	78.789	0.100
496.500	71.534	0.100
496.600	76.152	0.100
496.700	71.071	0.100
496.800	70.903	0.100
496.900	88.716	0.100
497.000	80.252	0.099
497.100	69.851	0.100
497.200	78.766	0.100
497.300	90.610	0.100
497.400	78.746	0.100
497.500	72.784	0.100
497.600	74.625	0.099
497.700	86.743	0.100
497.800	76.123	0.100
497.900	71.583	0.100
498.000	79.078	0.100
498.100	68.873	0.100
498.200	86.555	0.100
498.300	74.423	0.100
498.400	75.862	0.100
498.500	73.577	0.100
498.600	62.266	0.100
498.700	72.533	0.100
498.800	72.169	0.100
498.900	86.817	0.100
499.000	75.811	0.100
499.100	64.769	0.100
499.200	70.471	0.100
499.300	76.645	0.100
499.400	78.588	0.100
499.500	66.512	0.100
499.600	84.114	0.100
499.700	83.565	0.100
499.800	79.454	0.100
499.900	65.751	0.100
500.000	80.823	0.100
500.100	56.310	0.100
500.200	78.895	0.100
500.300	73.564	0.100
500.400	64.112	0.100
500.500	73.434	0.100
500.600	82.242	0.100
500.700	68.248	0.100
500.800	65.053	0.100
500.900	73.231	0.100
501.000	56.702	0.100
501.100	73.359	0.100
501.200	76.166	0.100
501.300	73.039	0.100
501.400	63.578	0.100
501.500	84.216	0.100
501.600	76.213	0.100
501.700	74.137	0.100
501.800	62.746	0.100
501.900	67.059	0.100
502.000	60.394	0.100
502.100	79.713	0.100
502.200	79.228	0.100
502.300	69.526	0.100
502.400	60.965	0.100
502.500	75.094	0.100
502.600	71.776	0.100
502.700	68.344	0.100
502.800	69.581	0.100
502.900	54.704	0.100
503.000	76.616	0.100
503.100	67.910	0.100
503.200	70.805	0.100
503.300	67.500	0.100
503.400	64.670	0.100
503.500	68.037	0.100
503.600	51.420	0.100
503.700	88.073	0.100
503.800	81.204	0.100
503.900	53.350	0.100
504.000	65.664	0.100
504.100	79.248	0.100
504.200	77.984	0.100
504.300	70.504	0.100
504.400	67.323	0.100
504.500	60.007	0.100
504.600	67.689	0.100
504.700	65.718	0.100
504.800	64.165	0.100
504.900	64.913	0.100
505.000	89.452	0.100
505.100	80.795	0.100
505.200	67.328	0.100
505.300	78.301	0.100
505.400	64.079	0.100
505.500	67.381	0.100
505.600	69.923	0.100
505.700	67.772	0.100
505.800	72.202	0.100
505.900	70.295	0.100
506.000	55.157	0.100
506.100	75.956	0.100
506.200	76.036	0.100
506.300	73.356	0.100
506.400	71.619	0.100
506.500	82.180	0.100
506.600	73.012	0.100
506.700	66.953	0.100
506.800	67.115	0.100
506.900	67.287	0.100
507.000	74.853	0.100
507.100	79.449	0.100
507.200	62.260	0.100
507.300	65.173	0.100
507.400	70.142	0.100
507.500	74.437	0.100
507.600	68.895	0.100
507.700	64.832	0.100
507.800	64.732	0.100
507.900	66.631	0.100
508.000	73.646	0.100
508.100	70.066	0.100
508.200	74.635	0.100
508.300	60.540	0.100
508.400	79.835	0.100
508.500	85.172	0.100
508.600	63.255	0.100
508.700	69.048	0.100
508.800	75.846	0.100
508.900	76.782	0.100
509.000	67.092	0.100
509.100	84.429	0.100
509.200	73.549	0.100
509.300	62.073	0.100
509.400	72.878	0.100
509.500	71.648	0.100
509.600	68.987	0.100
509.700	58.819	0.100
509.800	72.549	0.100
509.900	62.343	0.100
510.000	68.038	0.100
510.100	86.326	0.100
510.200	69.938	0.100
510.300	64.198	0.100
510.400	63.928	0.100
510.500	71.676	0.100
510.600	87.254	0.100
510.700	84.953	0.100
510.800	74.184	0.100
510.900	74.877	0.100
511.000	76.376	0.100
511.100	72.532	0.100
511.200	79.179	0.100
511.300	72.970	0.100
511.400	78.037	0.100
511.500	70.669	0.100
511.600	63.917	0.100
511.700	70.869	0.100
511.800	69.046	0.100
511.900	63.615	0.100
512.000	79.580	0.100
512.100	73.008	0.100
512.200	68.136	0.100
512.300	64.544	0.100
512.400	73.572	0.100
512.500	72.484	0.100
512.600	77.209	0.100
512.700	74.000	0.100
512.800	72.124	0.100
512.900	64.570	0.100
513.000	72.932	0.100
513.100	73.697	0.100
513.200	62.636	0.100
513.300	63.749	0.100
513.400	72.159	0.100
513.500	84.959	0.100
513.600	85.003	0.100
513.700	73.454	0.100
513.800	81.777	0.100
513.900	68.101	0.100
514.000	63.612	0.100
514.100	69.232	0.100
514.200	81.562	0.100
514.300	75.046	0.100
514.400	72.444	0.100
514.500	70.092	0.100
514.600	73.256	0.100
514.700	74.276	0.100
514.800	75.306	0.100
514.900	64.861	0.100
515.000	82.823	0.100
515.100	85.058	0.100
515.200	75.697	0.100
515.300	70.533	0.100
515.400	72.243	0.100
515.500	69.668	0.100
515.600	67.947	0.100
515.700	84.351	0.100
515.800	81.035	0.100
515.900	79.924	0.100
516.000	69.031	0.100
516.100	68.070	0.100
516.200	72.641	0.100
516.300	80.932	0.100
516.400	72.399	0.100
516.500	70.813	0.100
516.600	76.387	0.100
516.700	56.443	0.100
516.800	72.129	0.100
516.900	82.300	0.100
517.000	88.417	0.100
517.100	77.049	0.100
517.200	77.007	0.100
517.300	72.859	0.100
517.400	87.232	0.100
517.500	82.790	0.100
517.600	73.205	0.100
517.700	81.336	0.100
517.800	75.991	0.100
517.900	48.551	0.100
518.000	72.984	0.100
518.100	78.506	0.100
518.200	84.470	0.100
518.300	77.751	0.100
518.400	73.680	0.099
518.500	74.747	0.100
518.600	76.200	0.100
518.700	74.232	0.100
518.800	81.958	0.100
518.900	81.814	0.100
519.000	77.637	0.100
519.100	76.699	0.100
519.200	71.775	0.100
519.300	86.547	0.100
519.400	79.067	0.100
519.500	71.566	0.100
519.600	77.695	0.099
519.700	73.540	0.100
519.800	78.224	0.100
519.900	67.229	0.100
520.000	77.616	0.100
520.100	78.780	0.100
520.200	78.039	0.100
520.300	79.049	0.100
520.400	81.519	0.100
520.500	82.762	0.100
520.600	83.888	0.100
520.700	83.036	0.100
520.800	76.335	0.100
520.900	63.518	0.100
521.000	74.569	0.100
521.100	74.571	0.100
521.200	91.946	0.100
521.300	75.710	0.100
521.400	79.352	0.100
521.500	76.756	0.100
521.600	76.497	0.100
521.700	66.001	0.100
521.800	81.399	0.100
521.900	87.769	0.100
522.000	89.828	0.100
522.100	69.095	0.100
522.200	79.321	0.100
522.300	79.727	0.100
522.400	71.462	0.100
522.500	78.791	0.100
522.600	67.299	0.100
522.700	86.604	0.100
522.800	73.545	0.100
522.900	70.020	0.100
523.000	89.158	0.100
523.100	72.343	0.100
523.200	79.614	0.100
523.300	79.905	0.100
523.400	78.857	0.100
523.500	74.186	0.100
523.600	71.799	0.100
523.700	82.853	0.100
523.800	58.229	0.100
523.900	89.492	0.100
524.000	88.192	0.100
524.100	70.763	0.100
524.200	86.283	0.100
524.300	75.217	0.100
524.400	78.244	0.100
524.500	78.955	0.100
524.600	81.264	0.100
524.700	80.165	0.100
524.800	65.034	0.100
524.900	79.700	0.100
525.000	90.290	0.100
525.100	70.926	0.100
525.200	80.878	0.100
525.300	68.363	0.100
525.400	65.638	0.100
525.500	80.691	0.100
525.600	99.551	0.100
525.700	84.090	0.100
525.800	70.704	0.100
525.900	74.670	0.100
526.000	72.307	0.100
526.100	78.908	0.100
526.200	70.702	0.100
526.300	68.926	0.100
526.400	78.639	0.100
526.500	93.108	0.100
526.600	73.831	0.100
526.700	79.339	0.100
526.800	78.830	0.100
526.900	86.621	0.100
527.000	87.453	0.100
527.100	77.436	0.100
527.200	81.039	0.100
527.300	81.437	0.100
527.400	86.855	0.100
527.500	76.537	0.100
527.600	66.237	0.100
527.700	77.035	0.100
527.800	81.774	0.100
527.900	86.810	0.100
528.000	86.007	0.100
528.100	77.896	0.100
528.200	78.564	0.100
528.300	81.761	0.100
528.400	74.723	0.100
528.500	74.999	0.100
528.600	67.920	0.100
528.700	72.608	0.100
528.800	97.520	0.100
528.900	79.508	0.100
529.000	77.395	0.100
529.100	73.373	0.100
529.200	91.484	0.100
529.300	82.621	0.100
529.400	74.246	0.100
529.500	83.266	0.100
529.600	88.666	0.100
529.700	73.303	0.100
529.800	71.921	0.100
529.900	69.562	0.100
530.000	72.248	0.100
530.100	83.508	0.100
530.200	75.339	0.100
530.300	76.844	0.100
530.400	98.760	0.100
530.500	79.378	0.100
530.600	84.986	0.100
530.700	69.202	0.100
530.800	86.630	0.100
530.900	72.724	0.100
531.000	89.237	0.100
531.100	66.664	0.100
531.200	80.325	0.100
531.300	83.602	0.100
531.400	76.243	0.100
531.500	77.464	0.100
531.600	76.217	0.100
531.700	90.584	0.100
531.800	82.104	0.100
531.900	79.196	0.100
532.000	88.334	0.100
532.100	74.297	0.100
532.200	75.144	0.100
532.300	66.637	0.100
532.400	82.367	0.100
532.500	69.168	0.100
532.600	94.224	0.100
532.700	91.449	0.100
532.800	71.286	0.100
532.900	84.859	0.100
533.000	82.441	0.100
533.100	69.483	0.100
533.200	75.696	0.100
533.300	76.620	0.100
533.400	83.370	0.100
533.500	84.670	0.100
533.600	87.873	0.100
533.700	91.283	0.100
533.800	79.764	0.100
533.900	75.597	0.100
534.000	81.280	0.100
534.100	78.795	0.100
534.200	84.483	0.100
534.300	84.027	0.100
534.400	82.387	0.100
534.500	74.594	0.100
534.600	63.247	0.100
534.700	64.216	0.100
534.800	84.544	0.100
534.900	72.765	0.100
535.000	90.871	0.100
535.100	72.686	0.100
535.200	87.345	0.100
535.300	87.595	0.100
535.400	82.941	0.100
535.500	94.661	0.100
535.600	78.972	0.100
535.700	85.185	0.100
535.800	83.922	0.100
535.900	75.962	0.100
536.000	75.675	0.100
536.100	86.727	0.100
536.200	96.714	0.100
536.300	69.010	0.100
536.400	84.278	0.100
536.500	82.126	0.100
536.600	84.714	0.100
536.700	90.577	0.100
536.800	73.263	0.100
536.900	81.300	0.100
537.000	86.025	0.100
537.100	92.847	0.100
537.200	62.106	0.100
537.300	82.559	0.100
537.400	84.299	0.100
537.500	86.990	0.100
537.600	72.998	0.100
537.700	89.860	0.100
537.800	77.350	0.100
537.900	82.834	0.100
538.000	81.141	0.100
538.100	92.049	0.100
538.200	74.104	0.100
538.300	73.015	0.100
538.400	101.023	0.100
538.500	95.859	0.100
538.600	76.955	0.100
538.700	78.799	0.100
538.800	76.577	0.100
538.900	66.871	0.100
539.000	87.639	0.100
539.100	80.978	0.100
539.200	76.876	0.100
539.300	87.832	0.100
539.400	78.605	0.100
539.500	74.677	0.100
539.600	76.492	0.100
539.700	79.233	0.100
539.800	86.955	0.100
539.900	63.172	0.100
540.000	75.316	0.100
540.100	52.837	0.100
540.200	44.643	0.100
540.300	35.688	0.100
540.400	29.581	0.100
540.500	9.266	0.100
540.600	-12.521	0.100
540.700	-5.138	0.100
540.800	-2.749	0.100
540.900	-32.949	0.100
541.000	-24.909	0.100
541.100	-38.931	0.100
541.200	-42.171	0.100
541.300	-52.644	0.100
541.400	-54.982	0.100
541.500	-59.157	0.100
541.600	-46.221	0.100
541.700	-57.335	0.100
541.800	-66.345	0.100
541.900	-63.525	0.100
542.000	-73.151	0.100
542.100	-54.315	0.100
542.200	-81.896	0.100
542.300	-56.429	0.100
542.400	-64.308	0.100
542.500	-70.241	0.100
542.600	-69.869	0.100
542.700	-63.408	0.100
542.800	-69.798	0.100
542.900	-60.678	0.100
543.000	-61.172	0.100
543.100	-57.849	0.100
543.200	-55.215	0.100
543.300	-47.684	0.100
543.400	-59.025	0.100
543.500	-60.618	0.100
543.600	-62.283	0.100
543.700	-65.654	0.100
543.800	-62.384	0.100
543.900	-75.127	0.100
544.000	-61.833	0.100
544.100	-46.109	0.100
544.200	-42.123	0.100
544.300	-61.480	0.100
544.400	-55.562	0.100
544.500	-47.370	0.100
544.600	-66.281	0.100
544.700	-40.792	0.100
544.800	-51.039	0.100
544.900	-46.717	0.100
545.000	-56.441	0.100
545.100	-60.217	0.100
545.200	-54.086	0.100
545.300	-46.845	0.100
545.400	-38.489	0.100
545.500	-53.175	0.100
545.600	-44.150	0.100
545.700	-45.922	0.100
545.800	-48.466	0.100
545.900	-50.326	0.100
546.000	-40.762	0.100
546.100	-54.741	0.100
546.200	-46.222	0.100
546.300	-39.223	0.100
546.400	-29.752	0.100
546.500	-38.665	0.100
546.600	-45.621	0.100
546.700	-48.120	0.100
546.800	-39.412	0.100
546.900	-40.168	0.100
547.000	-37.869	0.100
547.100	-41.699	0.100
547.200	-45.184	0.100
547.300	-40.170	0.100
547.400	-40.606	0.100
547.500	-48.319	0.100
547.600	-38.290	0.100
547.700	-35.172	0.100
547.800	-58.182	0.100
547.900	-50.504	0.100
548.000	-42.943	0.100
548.100	-54.053	0.100
548.200	-36.852	0.100
548.300	-53.647	0.100
548.400	-37.623	0.100
548.500	-26.380	0.100
548.600	-33.725	0.100
548.700	-42.304	0.100
548.800	-48.608	0.100
548.900	-31.473	0.100
549.000	-50.343	0.100
549.100	-35.241	0.100
549.200	-40.446	0.100
549.300	-44.170	0.100
549.400	-29.215	0.100
549.500	-39.945	0.100
549.600	-60.596	0.100
549.700	-39.293	0.100
549.800	-37.112	0.100
549.900	-50.844	0.100
550.000	-39.831	0.100
550.100	-40.962	0.100
550.200	-44.861	0.100
550.300	-58.876	0.100
550.400	-43.860	0.100
550.500	-41.825	0.100
550.600	-41.713	0.100
550.700	-52.535	0.100
550.800	-28.116	0.100
550.900	-49.309	0.100
551.000	-45.043	0.100
551.100	-39.123	0.100
551.200	-35.583	0.100
551.300	-44.988	0.100
551.400	-50.919	0.100
551.500	-50.853	0.100
551.600	-54.680	0.100
551.700	-45.853	0.100
551.800	-52.222	0.100
551.900	-51.626	0.100
552.000	-47.316	0.100
552.100	-44.356	0.100
552.200	-39.791	0.100
552.300	-35.699	0.100
552.400	-46.246	0.100
552.500	-55.330	0.100
552.600	-34.220	0.100
552.700	-34.828	0.100
552.800	-37.509	0.100
552.900	-66.505	0.100
553.000	-36.952	0.100
553.100	-55.719	0.100
553.200	-43.896	0.100
553.300	-57.698	0.100
553.400	-45.444	0.100
553.500	-38.705	0.100
553.600	-40.641	0.100
553.700	-39.069	0.100
553.800	-60.632	0.100
553.900	-44.835	0.100
554.000	-45.015	0.100
554.100	-36.946	0.100
554.200	-32.498	0.100
554.300	-42.823	0.100
554.400	-46.496	0.100
554.500	-51.142	0.100
554.600	-42.575	0.100
554.700	-51.385	0.100
554.800	-38.198	0.100
554.900	-55.821	0.100
555.000	-46.712	0.100
555.100	-46.360	0.100
555.200	-47.155	0.100
555.300	-50.961	0.100
555.400	-47.173	0.100
555.500	-46.933	0.100
555.600	-47.330	0.100
555.700	-66.731	0.100
555.800	-38.590	0.100
555.900	-40.575	0.100
556.000	-51.711	0.100
556.100	-48.621	0.100
556.200	-38.946	0.100
556.300	-65.337	0.100
556.400	-40.789	0.100
556.500	-46.734	0.100
556.600	-46.903	0.100
556.700	-47.003	0.100
556.800	-52.344	0.100
556.900	-49.191	0.100
557.000	-47.881	0.100
557.100	-45.493	0.100
557.200	-54.685	0.100
557.300	-47.486	0.100
557.400	-47.553	0.100
557.500	-39.053	0.100
557.600	-41.569	0.100
557.700	-26.739	0.100
557.800	-64.723	0.100
557.900	-48.017	0.100
558.000	-39.568	0.100
558.100	-55.912	0.100
558.200	-35.099	0.100
558.300	-47.999	0.100
558.400	-32.743	0.100
558.500	-38.729	0.100
558.600	-41.618	0.100
558.700	-44.775	0.100
558.800	-51.968	0.100
558.900	-48.082	0.100
559.000	-37.981	0.100
559.100	-47.750	0.100
559.200	-45.012	0.100
559.300	-51.029	0.100
559.400	-40.840	0.100
559.500	-54.155	0.100
559.600	-50.227	0.100
559.700	-46.241	0.100
559.800	-43.646	0.100
559.900	-49.099	0.100
560.000	-45.390	0.100
560.100	-53.372	0.100
560.200	-51.330	0.100
560.300	-51.250	0.100
560.400	-35.525	0.100
560.500	-40.876	0.100
560.600	-44.500	0.100
560.700	-46.134	0.100
560.800	-52.649	0.100
560.900	-46.910	0.100
561.000	-54.994	0.100
561.100	-39.730	0.100
561.200	-48.444	0.100
561.300	-53.523	0.100
561.400	-50.362	0.100
561.500	-37.761	0.100
561.600	-44.725	0.100
561.700	-46.670	0.100
561.800	-35.850	0.100
561.900	-38.289	0.100
562.000	-38.892	0.100
562.100	-51.020	0.100
562.200	-42.665	0.100
562.300	-49.233	0.100
562.400	-40.695	0.100
562.500	-47.773	0.100
562.600	-34.981	0.100
562.700	-33.726	0.100
562.800	-47.044	0.100
562.900	-51.483	0.100
563.000	-47.155	0.100
563.100	-46.487	0.100
563.200	-42.722	0.100
563.300	-48.106	0.100
563.400	-57.016	0.100
563.500	-41.935	0.100
563.600	-38.046	0.100
563.700	-49.385	0.100
563.800	-46.012	0.100
563.900	-40.601	0.100
564.000	-39.463	0.100
564.100	-50.463	0.100
564.200	-38.252	0.100
564.300	-31.912	0.100
564.400	-54.025	0.100
564.500	-49.244	0.100
564.600	-37.433	0.100
564.700	-41.770	0.100
564.800	-44.757	0.100
564.900	-39.658	0.100
565.000	-51.640	0.100
565.100	-46.312	0.100
565.200	-49.236	0.100
565.300	-37.999	0.100
565.400	-41.099	0.100
565.500	-49.214	0.100
565.600	-40.924	0.100
565.700	-42.834	0.100
565.800	-31.430	0.100
565.900	-49.845	0.100
566.000	-48.178	0.100
566.100	-38.097	0.100
566.200	-50.000	0.100
566.300	-44.470	0.100
566.400	-38.728	0.100
566.500	-42.353	0.100
566.600	-40.890	0.100
566.700	-36.596	0.100
566.800	-41.236	0.100
566.900	-41.492	0.100
567.000	-46.716	0.100
567.100	-33.969	0.100
567.200	-39.597	0.100
567.300	-37.991	0.100
567.400	-41.291	0.099
567.500	-49.898	0.100
567.600	-61.377	0.100
567.700	-32.321	0.100
567.800	-39.545	0.100
567.900	-34.190	0.100
568.000	-43.677	0.100
568.100	-53.731	0.100
568.200	-51.102	0.100
568.300	-35.402	0.100
568.400	-41.842	0.100
568.500	-42.664	0.100
568.600	-43.652	0.100
568.700	-47.007	0.100
568.800	-40.548	0.100
568.900	-42.521	0.100
569.000	-53.425	0.100
569.100	-44.867	0.100
569.200	-35.719	0.100
569.300	-44.683	0.100
569.400	-38.853	0.100
569.500	-53.189	0.100
569.600	-28.141	0.099
569.700	-38.113	0.100
569.800	-45.359	0.100
569.900	-49.628	0.100
570.000	-45.497	0.100
570.100	-46.464	0.100
570.200	-35.114	0.100
570.300	-25.657	0.100
570.400	-47.724	0.100
570.500	-43.836	0.100
570.600	-42.940	0.100
570.700	-43.099	0.100
570.800	-37.429	0.100
570.900	-48.519	0.100
571.000	-38.645	0.100
571.100	-30.246	0.100
571.200	-40.768	0.100
571.300	-50.095	0.100
571.400	-43.954	0.100
571.500	-42.110	0.100
571.600	-45.362	0.100
571.700	-47.083	0.100
571.800	-56.718	0.100
571.900	-33.937	0.100
572.000	-28.395	0.100
572.100	-39.863	0.100
572.200	-41.480	0.100
572.300	-42.334	0.100
572.400	-45.854	0.100
572.500	-51.467	0.100
572.600	-41.208	0.100
572.700	-32.037	0.100
572.800	-41.073	0.100
572.900	-34.364	0.100
573.000	-46.906	0.100
573.100	-40.078	0.100
573.200	-45.918	0.100
573.300	-40.038	0.100
573.400	-41.742	0.100
573.500	-29.625	0.100
573.600	-37.074	0.100
573.700	-47.099	0.100
573.800	-30.787	0.100
573.900	-60.857	0.100
574.000	-38.488	0.100
574.100	-41.212	0.100
574.200	-36.602	0.100
574.300	-48.377	0.100
574.400	-36.775	0.100
574.500	-42.771	0.100
574.600	-33.763	0.100
574.700	-39.577	0.100
574.800	-33.199	0.100
574.900	-40.184	0.100
575.000	-44.204	0.100
575.100	-39.644	0.100
575.200	-48.203	0.100
575.300	-40.757	0.100
575.400	-57.609	0.099
575.500	-42.982	0.100
575.600	-35.289	0.100
575.700	-49.743	0.100
575.800	-36.621	0.100
575.900	-29.830	0.100
576.000	-37.837	0.100
576.100	-44.403	0.100
576.200	-44.862	0.100
576.300	-53.568	0.100
576.400	-44.571	0.100
576.500	-37.128	0.100
576.600	-38.197	0.100
576.700	-34.814	0.100
576.800	-53.343	0.100
576.900	-36.695	0.100
577.000	-42.191	0.100
577.100	-34.344	0.100
577.200	-31.976	0.100
577.300	-36.880	0.100
577.400	-39.271	0.100
577.500	-39.952	0.100
577.600	-35.930	0.100
577.700	-38.358	0.100
577.800	-42.226	0.100
577.900	-51.273	0.100
578.000	-46.092	0.100
578.100	-43.377	0.100
578.200	-38.270	0.100
578.300	-50.426	0.100
578.400	-52.616	0.100
578.500	-31.377	0.100
578.600	-40.036	0.100
578.700	-33.865	0.100
578.800	-36.635	0.100
578.900	-39.837	0.100
579.000	-32.949	0.100
579.100	-40.435	0.100
579.200	-44.829	0.100
579.300	-42.012	0.100
579.400	-32.535	0.100
579.500	-35.816	0.100
579.600	-47.377	0.100
579.700	-24.512	0.100
579.800	-33.857	0.100
579.900	-54.494	0.100
580.000	-31.352	0.100
580.100	-39.220	0.100
580.200	-38.846	0.100
580.300	-40.683	0.100
580.400	-29.225	0.100
580.500	-46.507	0.100
580.600	-35.237	0.100
580.700	-42.373	0.100
580.800	-40.896	0.100
580.900	-49.178	0.100
581.000	-45.165	0.100
581.100	-46.582	0.100
581.200	-25.345	0.100
581.300	-38.175	0.100
581.400	-32.910	0.100
581.500	-42.115	0.100
581.600	-40.279	0.100
581.700	-35.188	0.100
581.800	-42.856	0.100
581.900	-38.398	0.100
582.000	-42.922	0.100
582.100	-29.095	0.100
582.200	-34.064	0.100
582.300	-35.386	0.100
582.400	-34.862	0.100
582.500	-38.850	0.100
582.600	-32.685	0.100
582.700	-34.840	0.100
582.800	-34.072	0.100
582.900	-35.737	0.100
583.000	-56.129	0.100
583.100	-37.467	0.100
583.200	-34.086	0.100
583.300	-39.334	0.100
583.400	-30.153	0.100
583.500	-34.778	0.100
583.600	-36.107	0.100
583.700	-53.197	0.100
583.800	-41.007	0.100
583.900	-37.403	0.100
584.000	-45.180	0.100
584.100	-40.517	0.100
584.200	-33.698	0.100
584.300	-36.493	0.100
584.400	-36.171	0.100
584.500	-51.466	0.100
584.600	-29.409	0.100
584.700	-39.737	0.100
584.800	-32.138	0.100
584.900	-51.267	0.100
585.000	-34.308	0.100
585.100	-29.465	0.100
585.200	-42.241	0.100
585.300	-35.327	0.100
585.400	-41.271	0.100
585.500	-34.685	0.100
585.600	-44.497	0.100
585.700	-34.655	0.100
585.800	-41.400	0.100
585.900	-34.784	0.100
586.000	-33.224	0.100
586.100	-30.225	0.100
586.200	-47.560	0.100
586.300	-38.265	0.100
586.400	-46.640	0.100
586.500	-31.894	0.100
586.600	-49.073	0.100
586.700	-42.294	0.100
586.800	-38.417	0.100
586.900	-31.164	0.100
587.000	-26.339	0.100
587.100	-42.770	0.100
587.200	-44.901	0.100
587.300	-40.221	0.100
587.400	-57.530	0.100
587.500	-19.595	0.100
587.600	-36.767	0.100
587.700	-48.863	0.100
587.800	-39.430	0.100
587.900	-38.316	0.100
588.000	-26.293	0.100
588.100	-30.982	0.100
588.200	-41.540	0.100
588.300	-39.798	0.100
588.400	-32.830	0.100
588.500	-30.102	0.100
588.600	-34.302	0.100
588.700	-42.086	0.100
588.800	-39.115	0.100
588.900	-30.505	0.100
589.000	-32.132	0.100
589.100	-49.325	0.100
589.200	-55.454	0.100
589.300	-35.434	0.100
589.400	-34.542	0.100
589.500	-36.066	0.100
589.600	-38.915	0.100
589.700	-32.447	0.100
589.800	-28.529	0.100
589.900	-48.434	0.100
590.000	-47.763	0.100
590.100	-49.510	0.100
590.200	-40.424	0.100
590.300	-37.998	0.100
590.400	-33.735	0.100
590.500	-21.625	0.100
590.600	-38.604	0.100
590.700	-31.862	0.100
590.800	-41.896	0.100
590.900	-38.341	0.100
591.000	-37.917	0.100
591.100	-29.242	0.100
591.200	-26.948	0.100
591.300	-38.252	0.100
591.400	-39.837	0.100
591.500	-35.631	0.100
591.600	-43.035	0.100
591.700	-42.901	0.100
591.800	-36.131	0.100
591.900	-43.242	0.100
592.000	-29.630	0.100
592.100	-47.230	0.100
592.200	-29.524	0.100
592.300	-18.654	0.100
592.400	-33.534	0.100
592.500	-42.771	0.100
592.600	-23.125	0.100
592.700	-38.446	0.100
592.800	-37.662	0.100
592.900	-44.846	0.100
593.000	-31.344	0.100
593.100	-31.822	0.100
593.200	-37.677	0.100
593.300	-31.025	0.100
593.400	-28.207	0.100
593.500	-28.771	0.100
593.600	-21.814	0.100
593.700	-37.716	0.100
593.800	-31.694	0.100
593.900	-30.293	0.100
594.000	-34.217	0.100
594.100	-33.772	0.100
594.200	-49.020	0.100
594.300	-20.632	0.100
594.400	-31.487	0.100
594.500	-38.836	0.100
594.600	-41.917	0.100
594.700	-38.231	0.100
594.800	-44.085	0.100
594.900	-51.003	0.100
595.000	-41.867	0.100
595.100	-28.369	0.100
595.200	-38.386	0.100
595.300	-21.324	0.100
595.400	-32.969	0.100
595.500	-42.628	0.100
595.600	-37.783	0.100
595.700	-32.229	0.100
595.800	-30.590	0.100
595.900	-34.123	0.100
596.000	-28.564	0.100
596.100	-48.942	0.100
596.200	-33.457	0.100
596.300	-32.246	0.100
596.400	-43.706	0.100
596.500	-35.915	0.100
596.600	-41.061	0.100
596.700	-37.730	0.100
596.800	-27.644	0.100
596.900	-31.697	0.100
597.000	-38.322	0.100
597.100	-29.393	0.100
597.200	-34.447	0.100
597.300	-31.718	0.100
597.400	-42.366	0.100
597.500	-47.824	0.100
597.600	-25.818	0.100
597.700	-34.421	0.100
597.800	-40.960	0.100
597.900	-40.756	0.100
598.000	-27.586	0.100
598.100	-32.257	0.100
598.200	-48.083	0.100
598.300	-40.796	0.100
598.400	-31.837	0.100
598.500	-24.643	0.100
598.600	-25.290	0.100
598.700	-38.217	0.100
598.800	-35.781	0.100
598.900	-34.184	0.100
599.000	-27.986	0.100
599.100	-44.717	0.100
599.200	-41.751	0.100
599.300	-36.396	0.100
599.400	-33.170	0.100
599.500	-25.361	0.100
599.600	-32.422	0.100
599.700	-36.412	0.100
599.800	-34.251	0.100
599.900	-39.054	0.100
600.000	-39.076	0.100
600.100	-28.482	0.100
600.200	-29.797	0.100
600.300	-37.773	0.100
600.400	-32.807	0.100
600.500	-19.907	0.100
600.600	-45.628	0.100
600.700	-27.304	0.100
600.800	-28.235	0.100
600.900	-33.760	0.100
601.000	-29.465	0.100
601.100	-33.114	0.100
601.200	-28.918	0.100
601.300	-23.128	0.100
601.400	-40.813	0.100
601.500	-39.364	0.100
601.600	-35.588	0.100
601.700	-34.709	0.100
601.800	-36.751	0.100
601.900	-41.911	0.100
602.000	-24.353	0.100
602.100	-27.942	0.100
602.200	-38.698	0.100
602.300	-27.907	0.100
602.400	-28.412	0.100
602.500	-20.961	0.100
602.600	-35.009	0.100
602.700	-22.074	0.100
602.800	-38.350	0.100
602.900	-37.070	0.100
603.000	-14.922	0.100
603.100	-37.842	0.100
603.200	-21.735	0.100
603.300	-21.554	0.100
603.400	-32.989	0.100
603.500	-29.228	0.100
603.600	-26.885	0.100
603.700	-37.875	0.100
603.800	-40.804	0.100
603.900	-43.084	0.100
604.000	-43.809	0.100
604.100	-18.986	0.100
604.200	-17.145	0.100
604.300	-27.422	0.100
604.400	-34.427	0.100
604.500	-25.865	0.100
604.600	-27.152	0.100
604.700	-39.841	0.100
604.800	-30.069	0.100
604.900	-28.408	0.100
605.000	-42.947	0.100
605.100	-32.024	0.100
605.200	-37.042	0.100
605.300	-32.071	0.100
605.400	-36.700	0.100
605.500	-40.541	0.100
605.600	-27.108	0.100
605.700	-36.395	0.100
605.800	-24.874	0.100
605.900	-27.152	0.100
606.000	-33.399	0.100
606.100	-39.129	0.100
606.200	-25.236	0.100
606.300	-23.036	0.100
606.400	-39.110	0.100
606.500	-27.457	0.100
606.600	-34.861	0.100
606.700	-42.424	0.100
606.800	-35.803	0.100
606.900	-19.330	0.100
607.000	-35.112	0.100
607.100	-25.556	0.100
607.200	-31.656	0.100
607.300	-32.270	0.100
607.400	-32.980	0.100
607.500	-28.465	0.100
607.600	-23.729	0.099
607.700	-37.596	0.100
607.800	-32.506	0.100
607.900	-28.425	0.100
608.000	-31.889	0.100
608.100	-26.778	0.100
608.200	-44.827	0.100
608.300	-24.755	0.100
608.400	-25.375	0.100
608.500	-22.238	0.100
608.600	-26.905	0.100
608.700	-22.225	0.100
608.800	-20.369	0.100
608.900	-30.757	0.100
609.000	-36.846	0.100
609.100	-35.870	0.100
609.200	-39.617	0.100
609.300	-20.695	0.100
609.400	-19.964	0.100
609.500	-41.037	0.100
609.600	-26.026	0.100
609.700	-41.492	0.100
609.800	-22.093	0.100
609.900	-31.450	0.100
610.000	-25.578	0.100
610.100	-22.886	0.100
610.200	-33.157	0.100
610.300	-31.191	0.100
610.400	-38.128	0.100
610.500	-28.251	0.100
610.600	-34.328	0.100
610.700	-28.274	0.100
610.800	-27.079	0.100
610.900	-27.043	0.100
611.000	-16.646	0.100
611.100	-45.540	0.100
611.200	-17.871	0.100
611.300	-28.213	0.100
611.400	-30.275	0.100
611.500	-22.442	0.100
611.600	-41.252	0.100
611.700	-34.284	0.100
611.800	-23.775	0.100
611.900	-34.202	0.100
612.000	-21.827	0.100
612.100	-28.464	0.100
612.200	-38.555	0.100
612.300	-40.791	0.100
612.400	-19.216	0.100
612.500	-32.825	0.100
612.600	-40.100	0.100
612.700	-22.460	0.100
612.800	-29.853	0.100
612.900	-29.524	0.100
613.000	-28.091	0.100
613.100	-39.496	0.100
613.200	-28.350	0.100
613.300	-32.931	0.100
613.400	-19.674	0.100
613.500	-32.680	0.100
613.600	-27.043	0.100
613.700	-24.243	0.100
613.800	-30.596	0.100
613.900	-24.410	0.100
614.000	-33.315	0.100
614.100	-29.616	0.100
614.200	-38.367	0.100
614.300	-28.424	0.100
614.400	-18.534	0.100
614.500	-21.045	0.100
614.600	-41.736	0.100
614.700	-27.455	0.100
614.800	-29.930	0.100
614.900	-22.985	0.100
615.000	-17.819	0.100
615.100	-18.621	0.100
615.200	-28.483	0.100
615.300	-31.786	0.100
615.400	-30.122	0.100
615.500	-39.502	0.100
615.600	-27.257	0.100
615.700	-31.517	0.100
615.800	-26.479	0.100
615.900	-31.899	0.100
616.000	-21.314	0.100
616.100	-22.970	0.100
616.200	-27.375	0.100
616.300	-30.197	0.100
616.400	-25.294	0.100
616.500	-25.504	0.100
616.600	-23.512	0.100
616.700	-50.874	0.100
616.800	-36.304	0.100
616.900	-20.781	0.100
617.000	-37.981	0.100
617.100	-30.730	0.100
617.200	-31.228	0.100
617.300	-24.130	0.100
617.400	-15.820	0.100
617.500	-31.809	0.100
617.600	-40.798	0.100
617.700	-20.582	0.100
617.800	-17.996	0.100
617.900	-25.378	0.100
618.000	-29.732	0.100
618.100	-20.538	0.100
618.200	-29.030	0.100
618.300	-28.868	0.100
618.400	-40.765	0.100
618.500	-24.819	0.100
618.600	-32.620	0.100
618.700	-34.643	0.100
618.800	-25.399	0.100
618.900	-27.414	0.100
619.000	-30.658	0.100
619.100	-30.319	0.100
619.200	-30.012	0.100
619.300	-21.096	0.100
619.400	-14.783	0.100
619.500	-31.503	0.100
619.600	-26.960	0.100
619.700	-35.737	0.100
619.800	-18.037	0.100
619.900	-27.439	0.100
620.000	-23.025	0.100
620.100	-29.492	0.100
620.200	-21.755	0.100
620.300	-33.299	0.100
620.400	-29.812	0.100
620.500	-25.150	0.100
620.600	-32.824	0.100
620.700	-37.622	0.100
620.800	-29.847	0.100
620.900	-23.682	0.100
621.000	-27.616	0.100
621.100	-12.246	0.100
621.200	-13.886	0.100
621.300	-13.718	0.100
621.400	-39.368	0.100
621.500	-24.800	0.100
621.600	-26.801	0.100
621.700	-29.174	0.100
621.800	-24.790	0.100
621.900	-35.893	0.100
622.000	-20.587	0.100
622.100	-19.309	0.100
622.200	-25.701	0.100
622.300	-23.654	0.100
622.400	-33.236	0.100
622.500	-28.871	0.100
622.600	-34.785	0.100
622.700	-23.191	0.100
622.800	-28.773	0.100
622.900	-31.610	0.100
623.000	-34.906	0.100
623.100	-27.356	0.100
623.200	-17.955	0.100
623.300	-42.011	0.100
623.400	-31.763	0.100
623.500	-32.213	0.100
623.600	-27.896	0.100
623.700	-28.984	0.100
623.800	-26.128	0.100
623.900	-17.895	0.100
624.000	-21.948	0.100
624.100	-27.555	0.100
624.200	-25.700	0.100
624.300	-22.068	0.100
624.400	-28.085	0.100
624.500	-17.914	0.100
624.600	-30.083	0.100
624.700	-31.148	0.100
624.800	-23.759	0.100
624.900	-29.517	0.100
625.000	-31.578	0.100
625.100	-21.481	0.100
625.200	-39.126	0.100
625.300	-19.045	0.100
625.400	-13.784	0.100
625.500	-30.422	0.100
625.600	-39.709	0.100
625.700	-38.859	0.100
625.800	-25.023	0.100
625.900	-21.193	0.100
626.000	-27.158	0.100
626.100	-24.376	0.100
626.200	-25.093	0.100
626.300	-22.775	0.100
626.400	-31.323	0.100
626.500	-31.633	0.100
626.600	-30.140	0.100
626.700	-22.827	0.100
626.800	-25.500	0.100
626.900	-13.883	0.100
627.000	-17.809	0.100
627.100	-43.970	0.100
627.200	-27.481	0.100
627.300	-30.817	0.100
627.400	-34.444	0.100
627.500	-13.950	0.100
627.600	-19.269	0.100
627.700	-19.777	0.100
627.800	-29.956	0.100
627.900	-33.131	0.100
628.000	-20.801	0.100
628.100	-35.320	0.100
628.200	-26.055	0.100
628.300	-14.216	0.100
628.400	-23.204	0.100
628.500	-31.465	0.100
628.600	-19.260	0.100
628.700	-16.844	0.100
628.800	-29.047	0.100
628.900	-32.798	0.100
629.000	-16.078	0.100
629.100	-22.624	0.100
629.200	-32.432	0.100
629.300	-27.210	0.100
629.400	-25.046	0.100
629.500	-33.849	0.100
629.600	-25.572	0.100
629.700	-21.803	0.100
629.800	-36.465	0.100
629.900	-23.985	0.100
630.000	-10.700	0.099
630.100	-29.272	0.100
630.200	3.696	0.100
630.300	13.173	0.100
630.400	36.666	0.100
630.500	50.081	0.100
630.600	45.270	0.100
630.700	55.988	0.100
630.800	47.013	0.100
630.900	47.626	0.100
631.000	52.832	0.100
631.100	61.730	0.100
631.200	58.602	0.100
631.300	44.946	0.100
631.400	58.247	0.100
631.500	53.847	0.100
631.600	66.955	0.100
631.700	52.371	0.100
631.800	54.880	0.100
631.900	45.649	0.100
632.000	44.695	0.100
632.100	36.345	0.100
632.200	39.110	0.100
632.300	50.508	0.100
632.400	43.221	0.100
632.500	48.881	0.100
632.600	40.074	0.100
632.700	37.676	0.100
632.800	34.034	0.100
632.900	42.870	0.100
633.000	46.252	0.100
633.100	42.700	0.100
633.200	52.658	0.100
633.300	41.830	0.100
633.400	27.960	0.100
633.500	36.893	0.100
633.600	46.821	0.100
633.700	40.283	0.100
633.800	45.000	0.100
633.900	42.953	0.100
634.000	40.423	0.100
634.100	15.704	0.100
634.200	39.146	0.100
634.300	36.786	0.100
634.400	13.717	0.100
634.500	23.860	0.100
634.600	28.409	0.100
634.700	26.641	0.100
634.800	41.776	0.100
634.900	43.368	0.100
635.000	46.601	0.100
635.100	45.217	0.100
635.200	47.136	0.100
635.300	41.975	0.100
635.400	52.493	0.100
635.500	45.474	0.100
635.600	43.133	0.100
635.700	52.529	0.100
635.800	41.390	0.100
635.900	47.323	0.100
636.000	59.681	0.100
636.100	59.770	0.100
636.200	56.071	0.100
636.300	48.511	0.100
636.400	61.476	0.100
636.500	54.083	0.100
636.600	63.609	0.100
636.700	54.228	0.100
636.800	74.291	0.100
636.900	61.348	0.100
637.000	60.068	0.100
637.100	52.507	0.100
637.200	70.545	0.100
637.300	56.263	0.100
637.400	68.582	0.100
637.500	68.013	0.100
637.600	71.065	0.100
637.700	70.659	0.100
637.800	62.556	0.100
637.900	59.910	0.100
638.000	74.199	0.100
638.100	72.495	0.100
638.200	74.011	0.100
638.300	73.512	0.100
638.400	60.926	0.100
638.500	76.388	0.100
638.600	68.309	0.100
638.700	65.640	0.100
638.800	74.000	0.100
638.900	71.548	0.100
639.000	74.585	0.100
639.100	69.737	0.100
639.200	80.335	0.100
639.300	68.528	0.100
639.400	75.127	0.100
639.500	74.187	0.100
639.600	69.722	0.100
639.700	61.583	0.100
639.800	85.326	0.100
639.900	79.100	0.100
640.000	83.992	0.100
640.100	70.774	0.100
640.200	86.118	0.100
640.300	66.054	0.100
640.400	85.686	0.100
640.500	75.709	0.100
640.600	78.391	0.100
640.700	78.691	0.100
640.800	67.081	0.100
640.900	67.647	0.100
641.000	61.160	0.100
641.100	84.421	0.100
641.200	84.732	0.100
641.300	81.199	0.100
641.400	95.990	0.100
641.500	67.280	0.100
641.600	79.081	0.100
641.700	78.343	0.100
641.800	89.851	0.100
641.900	66.637	0.100
642.000	76.170	0.100
642.100	76.834	0.100
642.200	88.451	0.100
642.300	72.401	0.100
642.400	77.200	0.100
642.500	85.534	0.100
642.600	83.756	0.100
642.700	72.245	0.100
642.800	94.882	0.100
642.900	69.514	0.100
643.000	61.969	0.100
643.100	78.596	0.100
643.200	70.793	0.100
643.300	72.095	0.100
643.400	65.973	0.100
643.500	75.871	0.100
643.600	98.915	0.100
643.700	78.623	0.100
643.800	76.796	0.100
643.900	84.500	0.100
644.000	77.302	0.100
644.100	77.161	0.100
644.200	72.088	0.100
644.300	76.895	0.100
644.400	81.286	0.100
644.500	72.812	0.100
644.600	77.544	0.100
644.700	79.467	0.100
644.800	76.317	0.100
644.900	81.391	0.100
645.000	73.893	0.100
645.100	96.288	0.100
645.200	80.448	0.100
645.300	68.597	0.100
645.400	73.333	0.100
645.500	82.167	0.100
645.600	77.577	0.100
645.700	67.123	0.100
645.800	67.359	0.100
645.900	74.344	0.100
646.000	81.546	0.100
646.100	75.736	0.100
646.200	78.433	0.100
646.300	67.044	0.100
646.400	67.861	0.100
646.500	97.457	0.100
646.600	79.815	0.100
646.700	80.456	0.100
646.800	82.465	0.100
646.900	85.908	0.100
647.000	83.975	0.100
647.100	81.938	0.100
647.200	86.680	0.100
647.300	65.627	0.100
647.400	78.184	0.100
647.500	71.559	0.100
647.600	69.640	0.100
647.700	71.475	0.100
647.800	80.366	0.100
647.900	75.486	0.100
648.000	72.642	0.100
648.100	71.116	0.100
648.200	74.717	0.100
648.300	80.014	0.100
648.400	62.677	0.100
648.500	77.870	0.100
648.600	83.439	0.100
648.700	75.789	0.100
648.800	78.838	0.100
648.900	77.678	0.100
649.000	75.362	0.100
649.100	74.866	0.100
649.200	69.298	0.100
649.300	75.596	0.100
649.400	70.777	0.100
649.500	75.787	0.100
649.600	67.963	0.100
649.700	72.895	0.100
649.800	76.313	0.100
649.900	69.200	0.100
650.000	68.702	0.100
650.100	80.920	0.100
650.200	75.971	0.100
650.300	72.062	0.100
650.400	81.350	0.100
650.500	70.436	0.100
650.600	81.263	0.100
650.700	70.474	0.100
650.800	70.066	0.100
650.900	66.624	0.100
651.000	96.880	0.100
651.100	74.846	0.100
651.200	74.067	0.100
651.300	80.467	0.100
651.400	62.036	0.100
651.500	82.896	0.100
651.600	69.979	0.100
651.700	72.586	0.100
651.800	68.256	0.100
651.900	67.027	0.100
652.000	62.624	0.100
652.100	69.245	0.100
652.200	63.963	0.100
652.300	71.129	0.100
652.400	83.626	0.100
652.500	61.809	0.100
652.600	74.886	0.100
652.700	63.824	0.100
652.800	85.687	0.100
652.900	74.496	0.100
653.000	67.334	0.100
653.100	70.135	0.100
653.200	80.638	0.100
653.300	74.766	0.100
653.400	73.559	0.100
653.500	71.071	0.100
653.600	77.047	0.100
653.700	74.031	0.100
653.800	64.243	0.100
653.900	76.231	0.100
654.000	70.646	0.100
654.100	67.361	0.100
654.200	75.580	0.100
654.300	70.704	0.100
654.400	70.790	0.100
654.500	85.455	0.100
654.600	70.186	0.100
654.700	67.891	0.100
654.800	65.573	0.100
654.900	70.508	0.100
655.000	70.964	0.100
655.100	65.069	0.100
655.200	72.801	0.100
655.300	68.097	0.100
655.400	72.908	0.100
655.500	54.949	0.100
655.600	77.514	0.100
655.700	60.016	0.100
655.800	63.313	0.100
655.900	73.143	0.100
656.000	79.835	0.100
656.100	68.404	0.100
656.200	77.431	0.100
656.300	66.021	0.100
656.400	86.311	0.100
656.500	64.487	0.100
656.600	69.619	0.100
656.700	71.585	0.100
656.800	69.548	0.100
656.900	71.192	0.100
657.000	65.530	0.100
657.100	67.607	0.100
657.200	70.128	0.100
657.300	69.584	0.100
657.400	75.885	0.100
657.500	75.079	0.100
657.600	58.931	0.100
657.700	75.324	0.100
657.800	72.205	0.100
657.900	82.940	0.100
658.000	67.124	0.100
658.100	84.241	0.100
658.200	67.287	0.100
658.300	64.205	0.100
658.400	77.630	0.100
658.500	72.868	0.100
658.600	71.902	0.100
658.700	64.134	0.100
658.800	65.279	0.100
658.900	66.935	0.100
659.000	76.835	0.100
659.100	79.383	0.100
659.200	68.872	0.100
659.300	68.377	0.100
659.400	79.823	0.100
659.500	76.349	0.100
659.600	79.974	0.100
659.700	73.282	0.100
659.800	73.662	0.100
659.900	70.668	0.100
660.000	67.709	0.100
660.100	62.742	0.100
660.200	75.208	0.100
660.300	74.088	0.100
660.400	74.883	0.100
660.500	71.807	0.100
660.600	77.928	0.100
660.700	65.844	0.100
660.800	67.966	0.100
660.900	80.237	0.100
661.000	64.003	0.100
661.100	77.697	0.100
661.200	70.581	0.100
661.300	76.742	0.100
661.400	69.566	0.100
661.500	77.496	0.100
661.600	82.567	0.100
661.700	69.752	0.100
661.800	88.990	0.100
661.900	71.672	0.100
662.000	64.948	0.100
662.100	74.774	0.100
662.200	68.304	0.100
662.300	60.928	0.100
662.400	70.003	0.100
662.500	56.063	0.100
662.600	80.904	0.100
662.700	73.301	0.100
662.800	65.554	0.100
662.900	80.428	0.100
663.000	81.085	0.100
663.100	70.764	0.100
663.200	64.546	0.100
663.300	62.918	0.100
663.400	80.793	0.100
663.500	77.093	0.100
663.600	82.588	0.100
663.700	76.920	0.100
663.800	74.875	0.100
663.900	80.002	0.100
664.000	75.339	0.100
664.100	68.692	0.100
664.200	72.947	0.100
664.300	69.562	0.100
664.400	83.468	0.100
664.500	79.671	0.100
664.600	76.951	0.100
664.700	70.701	0.100
664.800	62.713	0.100
664.900	70.509	0.100
665.000	79.765	0.100
665.100	91.639	0.100
665.200	76.118	0.100
665.300	74.313	0.100
665.400	75.198	0.100
665.500	69.563	0.100
665.600	71.507	0.100
665.700	89.487	0.100
665.800	72.906	0.100
665.900	77.092	0.100
666.000	69.020	0.100
666.100	94.843	0.100
666.200	79.265	0.100
666.300	72.478	0.100
666.400	80.404	0.100
666.500	64.216	0.100
666.600	80.267	0.100
666.700	81.541	0.100
666.800	84.743	0.100
666.900	62.748	0.100
667.000	81.434	0.100
667.100	85.502	0.100
667.200	71.726	0.100
667.300	76.619	0.100
667.400	81.153	0.100
667.500	74.519	0.100
667.600	68.247	0.100
667.700	82.200	0.100
667.800	77.897	0.100
667.900	67.831	0.100
668.000	65.532	0.100
668.100	76.428	0.100
668.200	92.151	0.100
668.300	84.343	0.100
668.400	79.364	0.100
668.500	79.811	0.100
668.600	82.445	0.100
668.700	83.809	0.100
668.800	75.166	0.100
668.900	77.648	0.100
669.000	72.965	0.100
669.100	76.893	0.100
669.200	92.085	0.100
669.300	76.172	0.100
669.400	74.024	0.100
669.500	79.107	0.100
669.600	79.916	0.100
669.700	90.626	0.100
669.800	71.207	0.100
669.900	79.208	0.100
670.000	73.444	0.100
670.100	73.092	0.100
670.200	72.851	0.100
670.300	84.988	0.100
670.400	84.461	0.100
670.500	86.728	0.100
670.600	73.524	0.100
670.700	87.640	0.100
670.800	75.406	0.100
670.900	72.530	0.100
671.000	77.750	0.100
671.100	77.624	0.100
671.200	68.786	0.100
671.300	74.742	0.100
671.400	73.724	0.100
671.500	86.479	0.100
671.600	81.711	0.100
671.700	74.085	0.100
671.800	87.339	0.100
671.900	72.896	0.100
672.000	88.695	0.100
672.100	76.858	0.100
672.200	72.434	0.100
672.300	66.924	0.100
672.400	83.003	0.100
672.500	73.604	0.100
672.600	70.216	0.100
672.700	89.732	0.100
672.800	81.245	0.100
672.900	86.926	0.100
673.000	84.000	0.100
673.100	75.801	0.100
673.200	81.443	0.100
673.300	79.751	0.100
673.400	77.284	0.100
673.500	55.344	0.100
673.600	77.998	0.100
673.700	65.961	0.100
673.800	85.769	0.100
673.900	83.085	0.100
674.000	77.611	0.100
674.100	59.591	0.100
674.200	84.289	0.100
674.300	89.902	0.100
674.400	75.715	0.100
674.500	78.471	0.100
674.600	84.270	0.100
674.700	81.922	0.100
674.800	81.314	0.100
674.900	74.068	0.100
675.000	88.718	0.100
675.100	81.502	0.100
675.200	81.600	0.100
675.300	82.077	0.100
675.400	87.894	0.100
675.500	72.847	0.100
675.600	71.813	0.100
675.700	84.871	0.100
675.800	82.433	0.100
675.900	73.855	0.100
676.000	82.600	0.100
676.100	83.683	0.100
676.200	74.591	0.100
676.300	83.708	0.100
676.400	74.669	0.100
676.500	94.351	0.100
676.600	81.362	0.100
676.700	71.771	0.100
676.800	79.053	0.100
676.900	70.824	0.100
677.000	76.901	0.100
677.100	87.624	0.100
677.200	87.378	0.099
677.300	96.166	0.100
677.400	82.832	0.100
677.500	65.431	0.100
677.600	80.645	0.100
677.700	70.080	0.100
677.800	85.008	0.100
677.900	103.762	0.100
678.000	85.930	0.100
678.100	66.482	0.100
678.200	70.410	0.100
678.300	77.554	0.100
678.400	76.854	0.100
678.500	92.659	0.100
678.600	83.130	0.100
678.700	77.059	0.100
678.800	69.573	0.100
678.900	90.411	0.100
679.000	87.759	0.100
679.100	84.593	0.100
679.200	76.167	0.100
679.300	86.108	0.100
679.400	90.031	0.100
679.500	80.551	0.100
679.600	78.524	0.100
679.700	86.227	0.100
679.800	83.787	0.099
679.900	88.097	0.100
680.000	64.232	0.100
680.100	79.902	0.100
680.200	81.891	0.100
680.300	82.978	0.100
680.400	78.530	0.100
680.500	63.380	0.100
680.600	92.476	0.100
680.700	77.279	0.100
680.800	73.644	0.100
680.900	82.929	0.100
681.000	93.420	0.100
681.100	78.289	0.100
681.200	86.805	0.100
681.300	83.026	0.099
681.400	76.909	0.100
681.500	83.959	0.100
681.600	81.616	0.100
681.700	80.703	0.100
681.800	73.460	0.100
681.900	76.780	0.100
682.000	84.415	0.099
682.100	82.639	0.100
682.200	73.037	0.100
682.300	87.886	0.100
682.400	78.786	0.100
682.500	90.125	0.100
682.600	84.868	0.100
682.700	75.618	0.100
682.800	86.248	0.100
682.900	80.841	0.100
683.000	79.534	0.100
683.100	82.288	0.100
683.200	78.784	0.100
683.300	84.382	0.100
683.400	90.982	0.100
683.500	82.976	0.100
683.600	86.127	0.100
683.700	84.079	0.100
683.800	75.562	0.100
683.900	78.606	0.100
684.000	88.320	0.100
684.100	91.692	0.100
684.200	70.406	0.100
684.300	62.150	0.100
684.400	73.745	0.100
684.500	89.475	0.100
684.600	78.598	0.100
684.700	86.884	0.100
684.800	76.706	0.100
684.900	75.733	0.100
685.000	85.116	0.100
685.100	84.448	0.100
685.200	87.225	0.100
685.300	85.681	0.100
685.400	77.183	0.100
685.500	61.114	0.100
685.600	82.329	0.100
685.700	94.915	0.100
685.800	91.709	0.100
685.900	85.032	0.100
686.000	87.575	0.100
686.100	74.001	0.100
686.200	81.165	0.100
686.300	84.169	0.100
686.400	86.183	0.100
686.500	85.157	0.100
686.600	82.893	0.100
686.700	84.773	0.100
686.800	73.764	0.100
686.900	82.305	0.099
687.000	89.107	0.100
687.100	85.992	0.100
687.200	78.951	0.100
687.300	62.805	0.100
687.400	76.423	0.099
687.500	93.880	0.100
687.600	71.523	0.100
687.700	83.105	0.100
687.800	80.535	0.100
687.900	83.286	0.100
688.000	78.096	0.100
688.100	76.137	0.100
688.200	80.200	0.100
688.300	94.619	0.100
688.400	81.403	0.100
688.500	69.367	0.100
688.600	73.636	0.100
688.700	80.938	0.100
688.800	87.634	0.100
688.900	72.345	0.100
689.000	86.320	0.099
689.100	88.580	0.099
689.200	85.021	0.100
689.300	76.620	0.100
689.400	75.034	0.100
689.500	87.747	0.100
689.600	83.706	0.100
689.700	81.876	0.100
689.800	89.946	0.100
689.900	79.850	0.100
690.000	72.174	0.100
690.100	59.301	0.100
690.200	41.401	0.100
690.300	39.272	0.100
690.400	28.782	0.100
690.500	30.682	0.100
690.600	9.375	0.100
690.700	1.861	0.100
690.800	-8.727	0.100
690.900	-18.942	0.100
691.000	-38.302	0.100
691.100	-34.662	0.100
691.200	-37.179	0.100
691.300	-32.672	0.100
691.400	-51.763	0.100
691.500	-60.681	0.099
691.600	-53.461	0.099
691.700	-57.694	0.100
691.800	-56.541	0.099
691.900	-57.237	0.100
692.000	-57.673	0.100
692.100	-86.520	0.100
692.200	-66.826	0.100
692.300	-76.053	0.100
692.400	-64.352	0.100
692.500	-67.852	0.100
692.600	-59.795	0.100
692.700	-56.651	0.100
692.800	-72.254	0.100
692.900	-70.644	0.100
693.000	-58.694	0.100
693.100	-80.086	0.100
693.200	-66.555	0.100
693.300	-58.858	0.100
693.400	-65.330	0.100
693.500	-69.937	0.100
693.600	-61.328	0.100
693.700	-69.434	0.100
693.800	-64.885	0.100
693.900	-59.002	0.100
694.000	-55.965	0.100
694.100	-60.824	0.100
694.200	-62.884	0.100
694.300	-58.639	0.100
694.400	-52.145	0.100
694.500	-55.786	0.100
694.600	-54.337	0.100
694.700	-55.982	0.100
694.800	-53.984	0.100
694.900	-54.647	0.100
695.000	-58.523	0.100
695.100	-50.961	0.100
695.200	-49.751	0.100
695.300	-43.169	0.100
695.400	-42.387	0.100
695.500	-36.217	0.100
695.600	-61.242	0.100
695.700	-51.257	0.100
695.800	-41.661	0.100
695.900	-43.769	0.100
696.000	-51.181	0.100
696.100	-49.718	0.100
696.200	-51.980	0.100
696.300	-44.984	0.100
696.400	-53.854	0.100
696.500	-48.379	0.100
696.600	-54.602	0.099
696.700	-44.859	0.100
696.800	-56.731	0.100
696.900	-36.159	0.100
697.000	-29.675	0.100
697.100	-33.436	0.100
697.200	-40.733	0.100
697.300	-38.490	0.100
697.400	-47.496	0.100
697.500	-58.615	0.100
697.600	-47.205	0.100
697.700	-53.714	0.100
697.800	-45.379	0.100
697.900	-51.075	0.100
698.000	-40.213	0.100
698.100	-40.050	0.100
698.200	-53.371	0.100
698.300	-43.339	0.100
698.400	-49.750	0.100
698.500	-37.103	0.100
698.600	-38.923	0.100
698.700	-48.591	0.100
698.800	-55.699	0.100
698.900	-60.219	0.100
699.000	-55.517	0.100
699.100	-44.351	0.100
699.200	-50.050	0.099
699.300	-51.838	0.099
699.400	-47.328	0.099
699.500	-40.273	0.100
699.600	-36.842	0.099
699.700	-42.651	0.100
699.800	-54.185	0.100
699.900	-49.683	0.100
700.000	-44.769	0.100
700.100	-53.651	0.099
700.200	-50.119	0.100
700.300	-59.332	0.099
700.400	-41.084	0.099
700.500	-29.851	0.100
700.600	-51.036	0.100
700.700	-38.698	0.100
700.800	-50.582	0.100
700.900	-42.502	0.100
701.000	-58.576	0.100
701.100	-46.657	0.100
701.200	-49.891	0.100
701.300	-45.343	0.100
701.400	-40.175	0.100
701.500	-41.364	0.100
701.600	-60.929	0.100
701.700	-43.614	0.100
701.800	-44.721	0.100
701.900	-59.261	0.100
702.000	-38.667	0.100
702.100	-40.833	0.100
702.200	-46.248	0.100
702.300	-44.871	0.100
702.400	-33.929	0.100
702.500	-49.039	0.100
702.600	-66.177	0.100
702.700	-46.139	0.100
702.800	-48.841	0.100
702.900	-55.623	0.100
703.000	-59.079	0.100
703.100	-35.676	0.100
703.200	-46.506	0.100
703.300	-45.958	0.100
703.400	-40.801	0.100
703.500	-51.074	0.100
703.600	-58.568	0.100
703.700	-40.565	0.100
703.800	-28.031	0.100
703.900	-43.469	0.100
704.000	-52.064	0.100
704.100	-45.778	0.100
704.200	-37.884	0.100
704.300	-43.454	0.100
704.400	-51.298	0.100
704.500	-70.318	0.100
704.600	-37.303	0.100
704.700	-49.849	0.100
704.800	-50.144	0.100
704.900	-45.431	0.100
705.000	-59.171	0.100
705.100	-32.936	0.100
705.200	-36.438	0.100
705.300	-34.766	0.100
705.400	-48.227	0.100
705.500	-45.379	0.100
705.600	-49.125	0.100
705.700	-53.999	0.100
705.800	-41.761	0.100
705.900	-38.710	0.100
706.000	-52.876	0.100
706.100	-52.290	0.100
706.200	-48.344	0.100
706.300	-52.811	0.100
706.400	-47.743	0.100
706.500	-41.907	0.100
706.600	-49.365	0.100
706.700	-56.886	0.100
706.800	-57.389	0.100
706.900	-52.319	0.100
707.000	-42.424	0.100
707.100	-47.439	0.099
707.200	-57.015	0.100
707.300	-51.328	0.100
707.400	-48.685	0.100
707.500	-51.110	0.100
707.600	-37.268	0.100
707.700	-52.463	0.100
707.800	-55.829	0.100
707.900	-46.677	0.100
708.000	-59.010	0.100
708.100	-48.953	0.100
708.200	-34.284	0.100
708.300	-65.111	0.100
708.400	-45.163	0.100
708.500	-42.424	0.100
708.600	-47.378	0.100
708.700	-47.639	0.100
708.800	-43.353	0.100
708.900	-51.772	0.100
709.000	-46.394	0.100
709.100	-64.951	0.100
709.200	-47.293	0.100
709.300	-39.287	0.100
709.400	-40.604	0.100
709.500	-49.926	0.100
709.600	-47.152	0.100
709.700	-46.487	0.100
709.800	-43.953	0.100
709.900	-45.078	0.100
710.000	-60.972	0.100
710.100	-47.961	0.100
710.200	-50.507	0.100
710.300	-50.072	0.100
710.400	-51.917	0.100
710.500	-38.152	0.100
710.600	-55.451	0.100
710.700	-45.258	0.100
710.800	-45.024	0.100
710.900	-53.389	0.100
711.000	-51.097	0.100
711.100	-56.311	0.100
711.200	-44.432	0.100
711.300	-41.204	0.100
711.400	-45.762	0.100
711.500	-58.300	0.100
711.600	-52.072	0.100
711.700	-39.716	0.100
711.800	-46.059	0.100
711.900	-36.644	0.100
712.000	-48.244	0.100
712.100	-38.874	0.100
712.200	-53.813	0.100
712.300	-60.336	0.100
712.400	-48.232	0.100
712.500	-38.762	0.100
712.600	-57.285	0.100
712.700	-42.144	0.100
712.800	-53.179	0.099
712.900	-48.821	0.100
713.000	-39.179	0.100
713.100	-61.741	0.100
713.200	-46.250	0.100
713.300	-62.879	0.100
713.400	-52.948	0.100
713.500	-42.990	0.100
713.600	-37.073	0.100
713.700	-48.513	0.100
713.800	-48.856	0.100
713.900	-33.261	0.099
714.000	-40.429	0.100
714.100	-41.402	0.100
714.200	-57.143	0.100
714.300	-43.417	0.100
714.400	-51.072	0.100
714.500	-41.922	0.100
714.600	-57.297	0.100
714.700	-43.442	0.100
714.800	-38.465	0.100
714.900	-47.281	0.100
715.000	-44.158	0.100
715.100	-40.299	0.100
715.200	-50.888	0.100
715.300	-42.473	0.100
715.400	-54.247	0.100
715.500	-47.099	0.100
715.600	-36.169	0.100
715.700	-44.154	0.100
715.800	-50.315	0.100
715.900	-42.802	0.100
716.000	-55.250	0.100
716.100	-54.318	0.100
716.200	-40.145	0.100
716.300	-41.396	0.100
716.400	-39.559	0.100
716.500	-57.403	0.100
716.600	-45.918	0.100
716.700	-52.001	0.100
716.800	-56.382	0.100
716.900	-58.541	0.100
717.000	-31.009	0.100
717.100	-45.000	0.100
717.200	-47.804	0.100
717.300	-47.947	0.100
717.400	-47.468	0.100
717.500	-49.582	0.100
717.600	-51.226	0.100
717.700	-40.125	0.100
717.800	-39.301	0.100
717.900	-56.282	0.100
718.000	-43.982	0.100
718.100	-48.694	0.100
718.200	-51.574	0.100
718.300	-35.742	0.100
718.400	-39.190	0.100
718.500	-51.678	0.100
718.600	-48.519	0.100
718.700	-35.961	0.100
718.800	-45.184	0.100
718.900	-52.380	0.100
719.000	-44.260	0.100
719.100	-42.219	0.100
719.200	-49.023	0.100
719.300	-45.984	0.100
719.400	-53.417	0.100
719.500	-48.521	0.100
719.600	-57.499	0.100
719.700	-40.360	0.100
719.800	-48.355	0.100
719.900	-44.286	0.100
720.000	-36.182	0.100
720.100	-47.999	0.100
720.200	-49.271	0.100
720.300	-47.486	0.100
720.400	-43.510	0.100
720.500	-39.572	0.100
720.600	-53.126	0.100
720.700	-36.552	0.100
720.800	-41.853	0.100
720.900	-42.798	0.100
721.000	-40.102	0.100
721.100	-56.264	0.100
721.200	-41.592	0.100
721.300	-42.117	0.100
721.400	-50.714	0.100
721.500	-38.853	0.100
721.600	-31.047	0.100
721.700	-51.151	0.100
721.800	-50.809	0.100
721.900	-42.708	0.099
722.000	-44.816	0.100
722.100	-46.387	0.100
722.200	-38.377	0.100
722.300	-46.300	0.100
722.400	-44.356	0.100
722.500	-48.916	0.100
722.600	-40.672	0.099
722.700	-32.446	0.100
722.800	-46.262	0.100
722.900	-40.776	0.100
723.000	-45.048	0.100
723.100	-36.531	0.099
723.200	-37.722	0.100
723.300	-45.305	0.100
723.400	-38.389	0.100
723.500	-45.763	0.100
723.600	-51.151	0.100
723.700	-36.323	0.100
723.800	-45.237	0.100
723.900	-48.546	0.100
724.000	-27.434	0.100
724.100	-54.126	0.100
724.200	-49.153	0.100
724.300	-46.052	0.100
724.400	-28.558	0.100
724.500	-51.519	0.100
724.600	-53.144	0.100
724.700	-45.589	0.099
724.800	-33.899	0.100
724.900	-38.431	0.100
725.000	-42.372	0.100
725.100	-48.662	0.100
725.200	-34.159	0.100
725.300	-48.205	0.100
725.400	-38.210	0.100
725.500	-41.414	0.100
725.600	-52.452	0.100
725.700	-51.731	0.100
725.800	-48.024	0.100
725.900	-52.919	0.100
726.000	-60.976	0.100
726.100	-34.799	0.100
726.200	-34.946	0.100
726.300	-20.392	0.100
726.400	-46.051	0.100
726.500	-53.505	0.100
726.600	-42.550	0.100
726.700	-30.924	0.100
726.800	-34.172	0.100
726.900	-41.033	0.100
727.000	-53.810	0.100
727.100	-46.996	0.100
727.200	-43.260	0.100
727.300	-38.650	0.100
727.400	-24.768	0.100
727.500	-36.300	0.100
727.600	-52.632	0.100
727.700	-41.870	0.100
727.800	-30.463	0.100
727.900	-46.035	0.099
728.000	-39.774	0.100
728.100	-45.890	0.100
728.200	-36.864	0.100
728.300	-43.706	0.100
728.400	-38.859	0.100
728.500	-41.040	0.100
728.600	-39.734	0.100
728.700	-35.641	0.100
728.800	-53.043	0.100
728.900	-54.690	0.100
729.000	-31.005	0.100
729.100	-34.210	0.100
729.200	-45.010	0.100
729.300	-44.015	0.100
729.400	-52.258	0.100
729.500	-33.401	0.100
729.600	-35.708	0.100
729.700	-43.090	0.100
729.800	-39.643	0.100
729.900	-35.715	0.100
730.000	-37.286	0.100
730.100	-45.497	0.100
730.200	-51.232	0.100
730.300	-34.419	0.100
730.400	-36.005	0.100
730.500	-37.149	0.100
730.600	-39.521	0.100
730.700	-45.996	0.100
730.800	-37.116	0.100
730.900	-29.090	0.100
731.000	-41.600	0.100
731.100	-42.972	0.100
731.200	-46.165	0.100
731.300	-25.632	0.100
731.400	-57.534	0.100
731.500	-32.715	0.100
731.600	-51.048	0.100
731.700	-37.875	0.100
731.800	-25.415	0.100
731.900	-35.681	0.100
732.000	-47.118	0.100
732.100	-33.400	0.100
732.200	-35.796	0.100
732.300	-54.792	0.099
732.400	-30.914	0.100
732.500	-34.172	0.100
732.600	-41.476	0.100
732.700	-41.087	0.100
732.800	-30.791	0.100
732.900	-37.836	0.100
733.000	-37.187	0.100
733.100	-34.251	0.100
733.200	-36.886	0.100
733.300	-38.837	0.100
733.400	-44.213	0.100
733.500	-34.964	0.100
733.600	-45.698	0.100
733.700	-40.053	0.099
733.800	-43.351	0.100
733.900	-37.449	0.100
734.000	-46.412	0.100
734.100	-38.436	0.100
734.200	-38.743	0.100
734.300	-33.255	0.100
734.400	-28.140	0.100
734.500	-57.752	0.100
734.600	-52.252	0.100
734.700	-40.955	0.100
734.800	-41.397	0.100
734.900	-32.125	0.100
735.000	-47.989	0.100
735.100	-47.638	0.100
735.200	-25.638	0.100
735.300	-34.815	0.100
735.400	-35.687	0.100
735.500	-51.904	0.100
735.600	-36.324	0.100
735.700	-23.429	0.100
735.800	-43.961	0.100
735.900	-35.119	0.100
736.000	-33.125	0.100
736.100	-44.963	0.100
736.200	-26.311	0.100
736.300	-32.400	0.100
736.400	-30.638	0.100
736.500	-32.893	0.100
736.600	-36.513	0.100
736.700	-44.836	0.100
736.800	-45.012	0.100
736.900	-31.861	0.100
737.000	-49.631	0.100
737.100	-34.453	0.100
737.200	-42.814	0.100
737.300	-43.898	0.100
737.400	-33.388	0.100
737.500	-32.334	0.100
737.600	-43.132	0.100
737.700	-31.401	0.100
737.800	-37.781	0.100
737.900	-26.522	0.100
738.000	-29.551	0.100
738.100	-36.673	0.100
738.200	-47.192	0.100
738.300	-38.213	0.100
738.400	-34.353	0.100
738.500	-35.025	0.100
738.600	-36.776	0.100
738.700	-38.362	0.100
738.800	-33.334	0.100
738.900	-36.231	0.100
739.000	-51.317	0.099
739.100	-35.877	0.100
739.200	-39.116	0.100
739.300	-35.384	0.100
739.400	-26.636	0.100
739.500	-40.152	0.100
739.600	-37.308	0.100
739.700	-15.825	0.100
739.800	-35.010	0.100
739.900	-43.214	0.100
740.000	-37.484	0.100
740.100	-26.661	0.100
740.200	-42.866	0.100
740.300	-44.525	0.100
740.400	-35.250	0.100
740.500	-46.950	0.100
740.600	-30.905	0.100
740.700	-46.896	0.100
740.800	-40.871	0.100
740.900	-43.423	0.100
741.000	-41.250	0.100
741.100	-27.616	0.100
741.200	-23.646	0.100
741.300	-45.130	0.100
741.400	-40.634	0.100
741.500	-30.386	0.100
741.600	-49.625	0.100
741.700	-26.300	0.100
741.800	-29.949	0.100
741.900	-32.649	0.100
742.000	-35.476	0.100
742.100	-41.360	0.100
742.200	-37.244	0.100
742.300	-36.594	0.100
742.400	-45.812	0.100
742.500	-54.544	0.100
742.600	-49.937	0.100
742.700	-38.923	0.100
742.800	-22.951	0.100
742.900	-23.681	0.100
743.000	-36.295	0.100
743.100	-37.131	0.100
743.200	-52.934	0.100
743.300	-20.493	0.100
743.400	-29.184	0.100
743.500	-38.479	0.100
743.600	-34.000	0.100
743.700	-38.454	0.100
743.800	-51.234	0.100
743.900	-30.526	0.100
744.000	-31.563	0.100
744.100	-36.732	0.100
744.200	-34.796	0.100
744.300	-40.812	0.100
744.400	-23.419	0.100
744.500	-28.845	0.100
744.600	-35.949	0.100
744.700	-41.655	0.100
744.800	-41.436	0.100
744.900	-44.757	0.100
745.000	-33.918	0.100
745.100	-36.075	0.100
745.200	-39.418	0.100
745.300	-40.391	0.100
745.400	-22.329	0.100
745.500	-25.546	0.100
745.600	-42.788	0.100
745.700	-45.240	0.100
745.800	-34.189	0.100
745.900	-34.293	0.100
746.000	-32.937	0.100
746.100	-29.144	0.100
746.200	-30.795	0.100
746.300	-39.192	0.100
746.400	-48.029	0.100
746.500	-34.271	0.100
746.600	-23.198	0.100
746.700	-29.560	0.100
746.800	-33.702	0.100
746.900	-31.598	0.100
747.000	-34.701	0.100
747.100	-32.054	0.100
747.200	-44.073	0.100
747.300	-30.074	0.100
747.400	-36.247	0.100
747.500	-41.524	0.100
747.600	-35.745	0.100
747.700	-29.804	0.100
747.800	-41.116	0.100
747.900	-44.185	0.100
748.000	-33.329	0.100
748.100	-46.441	0.100
748.200	-52.578	0.100
748.300	-28.604	0.100
748.400	-43.134	0.100
748.500	-44.006	0.100
748.600	-24.527	0.100
748.700	-36.897	0.100
748.800	-56.710	0.100
748.900	-21.427	0.100
749.000	-27.272	0.100
749.100	-45.823	0.100
749.200	-45.668	0.100
749.300	-31.692	0.100
749.400	-30.008	0.100
749.500	-37.227	0.100
749.600	-38.046	0.100
749.700	-43.230	0.100
749.800	-31.441	0.100
749.900	-24.908	0.100
750.000	-27.096	0.100
750.100	-33.724	0.100
750.200	-28.782	0.100
750.300	-34.711	0.100
750.400	-39.521	0.100
750.500	-37.785	0.100
750.600	-47.893	0.100
750.700	-29.867	0.100
750.800	-32.664	0.100
750.900	-38.522	0.100
751.000	-30.006	0.100
751.100	-31.781	0.100
751.200	-28.671	0.100
751.300	-28.107	0.100
751.400	-33.447	0.100
751.500	-36.574	0.100
751.600	-26.664	0.100
751.700	-31.575	0.100
751.800	-34.761	0.100
751.900	-37.581	0.100
752.000	-45.369	0.100
752.100	-26.925	0.100
752.200	-33.369	0.100
752.300	-35.121	0.100
752.400	-45.625	0.100
752.500	-30.499	0.100
752.600	-42.903	0.100
752.700	-38.827	0.100
752.800	-26.598	0.100
752.900	-36.338	0.100
753.000	-25.104	0.100
753.100	-18.729	0.100
753.200	-38.874	0.100
753.300	-26.659	0.100
753.400	-41.735	0.100
753.500	-33.233	0.100
753.600	-34.403	0.100
753.700	-38.224	0.100
753.800	-24.809	0.100
753.900	-24.547	0.100
754.000	-37.913	0.100
754.100	-33.573	0.100
754.200	-29.337	0.100
754.300	-31.245	0.100
754.400	-28.738	0.100
754.500	-39.081	0.100
754.600	-38.386	0.100
754.700	-39.797	0.100
754.800	-28.122	0.100
754.900	-30.009	0.100
755.000	-35.510	0.100
755.100	-42.470	0.100
755.200	-33.730	0.100
755.300	-26.995	0.100
755.400	-33.171	0.100
755.500	-36.635	0.100
755.600	-27.758	0.100
755.700	-28.722	0.100
755.800	-31.531	0.100
755.900	-43.463	0.100
756.000	-38.718	0.100
756.100	-49.215	0.100
756.200	-39.441	0.100
756.300	-24.909	0.100
756.400	-43.572	0.100
756.500	-30.770	0.100
756.600	-26.136	0.099
756.700	-44.008	0.100
756.800	-29.230	0.100
756.900	-24.947	0.100
757.000	-29.901	0.100
757.100	-42.255	0.100
757.200	-29.953	0.100
757.300	-19.348	0.100
757.400	-15.820	0.100
757.500	-39.310	0.100
757.600	-31.511	0.100
757.700	-44.639	0.100
757.800	-31.925	0.100
757.900	-25.775	0.100
758.000	-35.604	0.100
758.100	-42.762	0.100
758.200	-29.970	0.100
758.300	-31.276	0.100
758.400	-22.536	0.100
758.500	-27.777	0.100
758.600	-34.271	0.100
758.700	-35.182	0.100
758.800	-28.268	0.100
758.900	-30.959	0.100
759.000	-29.034	0.100
759.100	-25.734	0.100
759.200	-16.386	0.100
759.300	-39.924	0.100
759.400	-49.249	0.100
759.500	-31.371	0.100
759.600	-27.056	0.100
759.700	-27.225	0.100
759.800	-30.227	0.100
759.900	-33.689	0.100
760.000	-33.480	0.100
760.100	-6.448	0.100
760.200	-50.233	0.100
760.300	-33.109	0.100
760.400	-31.671	0.100
760.500	-26.363	0.100
760.600	-44.686	0.100
760.700	-37.286	0.100
760.800	-37.309	0.100
760.900	-27.237	0.100
761.000	-32.235	0.100
761.100	-35.022	0.100
761.200	-40.635	0.100
761.300	-32.714	0.100
761.400	-23.023	0.100
761.500	-35.378	0.100
761.600	-34.480	0.100
761.700	-30.016	0.100
761.800	-34.321	0.100
761.900	-32.270	0.100
762.000	-26.729	0.100
762.100	-34.851	0.100
762.200	-35.695	0.100
762.300	-33.619	0.100
762.400	-22.222	0.100
762.500	-31.496	0.100
762.600	-20.779	0.100
762.700	-31.150	0.100
762.800	-31.648	0.100
762.900	-20.081	0.100
763.000	-34.877	0.100
763.100	-31.566	0.100
763.200	-30.319	0.100
763.300	-33.083	0.100
763.400	-29.982	0.100
763.500	-24.711	0.100
763.600	-33.451	0.100
763.700	-24.196	0.100
763.800	-30.842	0.100
763.900	-38.968	0.100
764.000	-33.199	0.100
764.100	-27.658	0.100
764.200	-23.699	0.100
764.300	-27.523	0.100
764.400	-35.909	0.100
764.500	-31.431	0.100
764.600	-27.602	0.100
764.700	-28.880	0.100
764.800	-23.716	0.100
764.900	-37.853	0.100
765.000	-35.923	0.100
765.100	-25.280	0.100
765.200	-27.695	0.100
765.300	-35.196	0.100
765.400	-18.442	0.100
765.500	-36.909	0.100
765.600	-21.827	0.100
765.700	-23.629	0.100
765.800	-18.936	0.100
765.900	-38.788	0.100
766.000	-35.588	0.100
766.100	-18.784	0.100
766.200	-29.781	0.100
766.300	-30.930	0.100
766.400	-34.182	0.100
766.500	-50.847	0.100
766.600	-15.282	0.100
766.700	-30.749	0.100
766.800	-22.353	0.100
766.900	-37.940	0.100
767.000	-30.298	0.100
767.100	-26.643	0.100
767.200	-39.293	0.100
767.300	-32.878	0.100
767.400	-39.776	0.100
767.500	-16.388	0.100
767.600	-35.719	0.100
767.700	-27.190	0.100
767.800	-26.775	0.100
767.900	-41.714	0.100
768.000	-18.972	0.100
768.100	-20.223	0.100
768.200	-27.375	0.100
768.300	-31.786	0.100
768.400	-26.940	0.100
768.500	-24.049	0.100
768.600	-27.884	0.100
768.700	-33.748	0.100
768.800	-42.685	0.100
768.900	-27.337	0.100
769.000	-30.527	0.100
769.100	-31.186	0.100
769.200	-40.929	0.100
769.300	-44.972	0.100
769.400	-18.083	0.100
769.500	-31.243	0.100
769.600	-35.390	0.100
769.700	-25.215	0.100
769.800	-27.639	0.100
769.900	-22.270	0.100
770.000	-30.787	0.100
770.100	-36.246	0.100
770.200	-22.718	0.100
770.300	-14.739	0.100
770.400	-34.402	0.100
770.500	-38.212	0.100
770.600	-41.881	0.100
770.700	-25.745	0.100
770.800	-37.811	0.100
770.900	-26.634	0.100
771.000	-11.392	0.100
771.100	-25.727	0.100
771.200	-29.454	0.100
771.300	-23.682	0.100
771.400	-32.930	0.100
771.500	-36.212	0.100
771.600	-14.052	0.100
771.700	-23.543	0.100
771.800	-30.573	0.100
771.900	-38.443	0.100
772.000	-35.400	0.100
772.100	-25.541	0.100
772.200	-41.378	0.100
772.300	-31.345	0.100
772.400	-33.334	0.100
772.500	-22.325	0.100
772.600	-35.975	0.100
772.700	-37.212	0.100
772.800	-19.806	0.100
772.900	-30.833	0.100
773.000	-17.962	0.100
773.100	-22.074	0.100
773.200	-42.381	0.100
773.300	-26.438	0.100
773.400	-22.716	0.100
773.500	-21.074	0.100
773.600	-36.817	0.100
773.700	-41.779	0.100
773.800	-22.050	0.100
773.900	-24.227	0.100
774.000	-22.382	0.100
774.100	-20.581	0.100
774.200	-31.648	0.100
774.300	-38.737	0.100
774.400	-25.772	0.100
774.500	-20.735	0.100
774.600	-27.626	0.100
774.700	-22.767	0.100
774.800	-27.333	0.100
774.900	-22.223	0.100
775.000	-41.034	0.100
775.100	-35.270	0.100
775.200	-29.813	0.100
775.300	-26.131	0.100
775.400	-34.214	0.100
775.500	-23.107	0.100
775.600	-38.433	0.100
775.700	-17.436	0.100
775.800	-29.243	0.100
775.900	-37.300	0.100
776.000	-26.263	0.100
776.100	-38.335	0.100
776.200	-33.574	0.100
776.300	-23.023	0.100
776.400	-25.574	0.100
776.500	-17.597	0.100
776.600	-26.672	0.100
776.700	-32.320	0.100
776.800	-24.331	0.100
776.900	-35.738	0.100
777.000	-29.076	0.100
777.100	-23.305	0.100
777.200	-18.305	0.100
777.300	-32.529	0.100
777.400	-25.644	0.100
777.500	-44.536	0.100
777.600	-18.847	0.100
777.700	-19.073	0.100
777.800	-27.956	0.100
777.900	-30.059	0.100
778.000	-41.932	0.100
778.100	-27.558	0.100
778.200	-24.375	0.100
778.300	-15.562	0.100
778.400	-32.765	0.100
778.500	-31.882	0.100
778.600	-25.769	0.100
778.700	-40.550	0.100
778.800	-33.904	0.100
778.900	-31.634	0.100
779.000	-21.466	0.100
779.100	-42.451	0.100
779.200	-31.930	0.100
779.300	-23.328	0.100
779.400	-22.138	0.100
779.500	-40.579	0.100
779.600	-36.068	0.100
779.700	-36.003	0.100
779.800	-23.453	0.100
779.900	-27.492	0.100
780.000	-29.228	0.100
780.100	-8.122	0.100
780.200	0.365	0.100
780.300	15.095	0.100
780.400	27.055	0.100
780.500	40.796	0.100
780.600	50.200	0.100
780.700	36.357	0.100
780.800	47.084	0.100
780.900	52.342	0.100
781.000	49.393	0.100
781.100	50.476	0.100
781.200	64.165	0.100
781.300	66.649	0.099
781.400	50.308	0.100
781.500	52.382	0.100
781.600	42.010	0.100
781.700	53.768	0.100
781.800	41.390	0.100
781.900	55.522	0.100
782.000	52.706	0.100
782.100	57.393	0.100
782.200	51.887	0.100
782.300	51.859	0.100
782.400	42.291	0.100
782.500	52.627	0.100
782.600	40.632	0.100
782.700	63.052	0.100
782.800	47.690	0.100
782.900	40.542	0.100
783.000	29.427	0.100
783.100	25.536	0.100
783.200	46.011	0.100
783.300	22.859	0.100
783.400	45.479	0.100
783.500	33.907	0.100
783.600	41.323	0.100
783.700	39.669	0.100
783.800	32.402	0.100
783.900	37.447	0.100
784.000	42.348	0.100
784.100	27.079	0.100
784.200	48.125	0.100
784.300	42.901	0.100
784.400	27.636	0.100
784.500	37.388	0.100
784.600	40.843	0.100
784.700	31.753	0.100
784.800	40.219	0.100
784.900	32.780	0.100
785.000	41.025	0.100
785.100	49.839	0.100
785.200	34.745	0.100
785.300	45.330	0.100
785.400	45.100	0.100
785.500	40.449	0.100
785.600	52.592	0.100
785.700	52.140	0.100
785.800	60.060	0.100
785.900	58.893	0.100
786.000	55.830	0.100
786.100	50.344	0.100
786.200	56.627	0.100
786.300	43.874	0.100
786.400	56.076	0.100
786.500	57.238	0.100
786.600	46.777	0.100
786.700	60.509	0.100
786.800	57.408	0.100
786.900	62.986	0.100
787.000	62.949	0.100
787.100	65.263	0.100
787.200	51.374	0.100
787.300	59.251	0.100
787.400	56.396	0.100
787.500	64.774	0.100
787.600	81.161	0.100
787.700	61.619	0.100
787.800	76.813	0.100
787.900	45.026	0.100
788.000	54.470	0.100
788.100	67.158	0.100
788.200	78.721	0.100
788.300	77.349	0.100
788.400	76.203	0.100
788.500	77.395	0.100
788.600	60.377	0.100
788.700	79.803	0.100
788.800	70.034	0.100
788.900	65.894	0.100
789.000	92.944	0.100
789.100	83.055	0.100
789.200	60.965	0.100
789.300	72.372	0.100
789.400	73.287	0.100
789.500	81.517	0.100
789.600	78.809	0.100
789.700	66.714	0.100
789.800	77.243	0.100
789.900	85.496	0.100
790.000	78.844	0.100
790.100	72.148	0.100
790.200	72.469	0.100
790.300	78.594	0.100
790.400	80.639	0.100
790.500	91.236	0.100
790.600	73.299	0.100
790.700	77.260	0.100
790.800	74.171	0.100
790.900	68.611	0.100
791.000	79.448	0.100
791.100	86.390	0.100
791.200	66.818	0.100
791.300	68.070	0.100
791.400	77.352	0.100
791.500	90.102	0.100
791.600	74.926	0.100
791.700	83.999	0.100
791.800	60.383	0.100
791.900	75.665	0.100
792.000	83.900	0.100
792.100	66.359	0.100
792.200	80.480	0.100
792.300	89.774	0.100
792.400	84.539	0.100
792.500	80.532	0.100
792.600	75.330	0.100
792.700	80.037	0.100
792.800	81.186	0.100
792.900	73.378	0.100
793.000	79.112	0.100
793.100	78.446	0.100
793.200	77.596	0.100
793.300	71.449	0.100
793.400	70.812	0.100
793.500	87.928	0.100
793.600	82.707	0.100
793.700	75.192	0.100
793.800	71.904	0.100
793.900	73.775	0.100
794.000	66.991	0.100
794.100	84.099	0.100
794.200	78.363	0.100
794.300	85.014	0.100
794.400	68.835	0.100
794.500	78.947	0.100
794.600	82.695	0.100
794.700	68.090	0.100
794.800	83.328	0.100
794.900	76.731	0.100
795.000	68.501	0.100
795.100	94.030	0.100
795.200	73.548	0.100
795.300	83.039	0.100
795.400	73.071	0.100
795.500	81.557	0.100
795.600	78.121	0.100
795.700	56.807	0.100
795.800	85.848	0.100
795.900	80.862	0.100
796.000	84.949	0.100
796.100	73.644	0.100
796.200	70.083	0.100
796.300	75.704	0.100
796.400	80.720	0.100
796.500	81.264	0.099
796.600	68.832	0.100
796.700	72.142	0.100
796.800	70.590	0.100
796.900	83.376	0.100
797.000	91.165	0.100
797.100	74.952	0.100
797.200	70.014	0.100
797.300	88.877	0.100
797.400	69.917	0.100
797.500	61.521	0.100
797.600	84.978	0.100
797.700	71.788	0.100
797.800	67.033	0.100
797.900	59.321	0.099
798.000	76.345	0.100
798.100	84.768	0.100
798.200	83.258	0.100
798.300	66.527	0.100
798.400	76.107	0.100
798.500	77.114	0.100
798.600	78.281	0.100
798.700	75.034	0.100
798.800	62.296	0.100
798.900	71.872	0.100
799.000	80.815	0.100
799.100	74.538	0.100
799.200	79.541	0.100
799.300	78.556	0.100
799.400	66.128	0.100
799.500	63.728	0.100
799.600	84.156	0.100
799.700	68.960	0.100
799.800	79.826	0.100
799.900	72.205	0.100
800.000	72.284	0.100
