time /s	I /nA	E /V
0.100	6.894	0.100
0.200	-2.481	0.100
0.300	-4.781	0.100
0.400	2.709	0.100
0.500	-10.552	0.100
0.600	-0.752	0.100
0.700	-3.042	0.100
0.800	10.913	0.100
0.900	2.705	0.100
1.000	-17.060	0.100
1.100	-6.782	0.100
1.200	-15.769	0.100
1.300	-9.857	0.100
1.400	-5.095	0.100
1.500	-2.824	0.100
1.600	10.856	0.100
1.700	15.400	0.100
1.800	6.853	0.100
1.900	-13.563	0.100
2.000	-8.029	0.100
2.100	-6.208	0.100
2.200	9.502	0.100
2.300	-1.308	0.100
2.400	-4.278	0.100
2.500	-0.666	0.100
2.600	-7.453	0.100
2.700	0.027	0.100
2.800	1.581	0.100
2.900	-7.358	0.100
3.000	-5.459	0.100
3.100	-8.805	0.100
3.200	-11.723	0.100
3.300	-12.073	0.100
3.400	-4.221	0.100
3.500	-8.747	0.100
3.600	3.611	0.100
3.700	-8.034	0.100
3.800	-8.095	0.100
3.900	-13.210	0.100
4.000	5.907	0.100
4.100	-1.138	0.100
4.200	-7.779	0.100
4.300	-3.449	0.100
4.400	0.033	0.100
4.500	-14.108	0.100
4.600	8.703	0.100
4.700	0.436	0.100
4.800	-1.117	0.100
4.900	-10.402	0.100
5.000	9.836	0.100
5.100	-5.592	0.100
5.200	0.180	0.100
5.300	-1.828	0.100
5.400	-9.979	0.100
5.500	-1.339	0.100
5.600	-1.883	0.100
5.700	-4.711	0.100
5.800	1.027	0.100
5.900	5.871	0.100
6.000	3.497	0.100
6.100	-8.632	0.100
6.200	-6.385	0.100
6.300	-2.229	0.100
6.400	-13.791	0.100
6.500	-14.196	0.100
6.600	-1.611	0.100
6.700	-10.127	0.100
6.800	-6.017	0.100
6.900	-1.690	0.100
7.000	-7.867	0.100
7.100	-11.157	0.100
7.200	-1.900	0.100
7.300	5.824	0.100
7.400	0.576	0.100
7.500	-8.253	0.100
7.600	-10.526	0.100
7.700	-2.360	0.100
7.800	2.087	0.100
7.900	-3.292	0.100
8.000	-5.439	0.100
8.100	-5.548	0.100
8.200	-17.985	0.100
8.300	5.021	0.100
8.400	-2.000	0.100
8.500	-8.455	0.100
8.600	1.216	0.100
8.700	-1.936	0.100
8.800	-7.068	0.100
8.900	-16.345	0.100
9.000	-2.161	0.100
9.100	10.532	0.100
9.200	-7.184	0.100
9.300	-5.124	0.100
9.400	-4.057	0.100
9.500	-11.208	0.100
9.600	-0.004	0.100
9.700	-0.696	0.100
9.800	0.817	0.100
9.900	1.117	0.100
10.000	-7.209	0.100
10.100	0.609	0.100
10.200	-11.013	0.100
10.300	-5.484	0.100
10.400	-4.641	0.100
10.500	2.080	0.100
10.600	4.756	0.100
10.700	-5.455	0.100
10.800	-8.472	0.100
10.900	-4.403	0.100
11.000	-1.772	0.100
11.100	0.874	0.100
11.200	-1.699	0.100
11.300	-5.048	0.100
11.400	2.212	0.100
11.500	-1.186	0.100
11.600	-5.222	0.100
11.700	-21.008	0.100
11.800	5.137	0.100
11.900	-13.779	0.100
12.000	-2.329	0.100
12.100	2.888	0.100
12.200	2.803	0.100
12.300	-5.711	0.100
12.400	-6.694	0.100
12.500	4.076	0.100
12.600	-5.546	0.100
12.700	-8.011	0.100
12.800	-7.388	0.100
12.900	-0.701	0.100
13.000	3.457	0.100
13.100	-7.215	0.100
13.200	-5.927	0.100
13.300	0.921	0.100
13.400	3.609	0.100
13.500	9.071	0.100
13.600	-14.843	0.100
13.700	-3.424	0.100
13.800	-2.323	0.100
13.900	3.702	0.100
14.000	-1.148	0.100
14.100	-3.514	0.100
14.200	-4.222	0.100
14.300	-0.964	0.100
14.400	-13.739	0.100
14.500	-5.186	0.100
14.600	-4.462	0.100
14.700	2.742	0.100
14.800	-15.411	0.100
14.900	7.142	0.100
15.000	-6.888	0.100
15.100	-4.395	0.100
15.200	-2.713	0.100
15.300	-4.293	0.100
15.400	1.614	0.100
15.500	-13.117	0.100
15.600	-17.026	0.100
15.700	-2.980	0.100
15.800	-17.775	0.100
15.900	9.717	0.100
16.000	7.261	0.100
16.100	9.968	0.100
16.200	-11.128	0.100
16.300	-9.939	0.100
16.400	-16.552	0.100
16.500	-13.228	0.100
16.600	4.222	0.100
16.700	5.520	0.100
16.800	4.759	0.100
16.900	-5.025	0.100
17.000	2.305	0.100
17.100	-8.690	0.100
17.200	-9.913	0.100
17.300	2.440	0.100
17.400	-0.633	0.100
17.500	-11.424	0.100
17.600	5.660	0.100
17.700	3.765	0.100
17.800	4.341	0.100
17.900	-6.057	0.100
18.000	-20.715	0.100
18.100	-0.355	0.100
18.200	-7.233	0.100
18.300	4.416	0.100
18.400	-11.184	0.100
18.500	-1.486	0.100
18.600	-17.957	0.100
18.700	-6.831	0.100
18.800	3.133	0.100
18.900	-4.859	0.100
19.000	-4.034	0.100
19.100	3.107	0.100
19.200	5.592	0.100
19.300	-13.805	0.100
19.400	-6.475	0.100
19.500	7.904	0.100
19.600	11.544	0.100
19.700	-4.421	0.100
19.800	3.931	0.100
19.900	-14.787	0.100
20.000	-12.147	0.100
20.100	-2.435	0.100
20.200	5.375	0.100
20.300	-1.705	0.100
20.400	-9.921	0.100
20.500	-15.069	0.100
20.600	-14.339	0.100
20.700	-1.419	0.100
20.800	-3.415	0.100
20.900	0.430	0.100
21.000	-5.385	0.100
21.100	-6.731	0.100
21.200	9.540	0.100
21.300	-16.334	0.100
21.400	-11.802	0.100
21.500	11.487	0.100
21.600	-12.177	0.100
21.700	6.355	0.100
21.800	-0.364	0.100
21.900	-6.942	0.100
22.000	5.711	0.100
22.100	-5.219	0.100
22.200	-14.629	0.100
22.300	4.048	0.100
22.400	3.568	0.100
22.500	-1.130	0.100
22.600	-5.999	0.100
22.700	-10.722	0.100
22.800	-5.197	0.100
22.900	0.211	0.100
23.000	7.612	0.100
23.100	-1.088	0.100
23.200	-0.411	0.100
23.300	10.910	0.100
23.400	-6.980	0.100
23.500	-1.127	0.100
23.600	-11.114	0.100
23.700	-6.863	0.100
23.800	-9.066	0.100
23.900	2.438	0.100
24.000	-15.173	0.100
24.100	3.264	0.100
24.200	-7.489	0.100
24.300	2.925	0.100
24.400	2.863	0.100
24.500	-3.229	0.100
24.600	-1.545	0.100
24.700	-6.387	0.100
24.800	2.620	0.100
24.900	0.034	0.100
25.000	7.735	0.100
25.100	5.575	0.100
25.200	-5.176	0.100
25.300	9.154	0.100
25.400	7.924	0.100
25.500	-7.590	0.100
25.600	-10.634	0.100
25.700	6.784	0.100
25.800	-0.444	0.100
25.900	-3.737	0.100
26.000	-6.178	0.100
26.100	-3.083	0.100
26.200	2.244	0.100
26.300	-12.480	0.100
26.400	-0.885	0.100
26.500	-12.431	0.100
26.600	10.290	0.100
26.700	-2.212	0.100
26.800	-2.414	0.100
26.900	-1.070	0.100
27.000	-9.533	0.100
27.100	-0.344	0.100
27.200	4.970	0.100
27.300	-7.440	0.100
27.400	-12.802	0.100
27.500	-7.883	0.100
27.600	-1.755	0.100
27.700	-5.486	0.100
27.800	7.481	0.100
27.900	-10.487	0.100
28.000	3.893	0.100
28.100	-2.022	0.100
28.200	-6.602	0.100
28.300	-6.032	0.100
28.400	0.489	0.100
28.500	0.706	0.100
28.600	-1.145	0.100
28.700	-9.401	0.100
28.800	-5.615	0.100
28.900	2.805	0.100
29.000	-10.854	0.100
29.100	9.991	0.100
29.200	-9.501	0.100
29.300	0.872	0.100
29.400	-14.297	0.100
29.500	4.473	0.100
29.600	-1.483	0.100
29.700	-0.244	0.100
29.800	-0.397	0.100
29.900	-6.599	0.100
30.000	1.667	0.100
30.100	12.197	0.100
30.200	-5.303	0.100
30.300	22.830	0.100
30.400	12.241	0.100
30.500	-0.140	0.100
30.600	9.178	0.100
30.700	12.462	0.100
30.800	1.155	0.100
30.900	15.030	0.100
31.000	12.909	0.100
31.100	-5.540	0.100
31.200	15.992	0.100
31.300	0.042	0.100
31.400	-1.212	0.100
31.500	21.360	0.100
31.600	19.595	0.100
31.700	6.188	0.100
31.800	-0.204	0.100
31.900	8.591	0.100
32.000	18.178	0.100
32.100	24.798	0.100
32.200	1.143	0.100
32.300	16.470	0.100
32.400	5.580	0.100
32.500	16.243	0.100
32.600	20.245	0.100
32.700	19.450	0.100
32.800	7.206	0.100
32.900	10.717	0.100
33.000	24.514	0.100
33.100	0.447	0.100
33.200	11.247	0.100
33.300	23.320	0.100
33.400	31.908	0.100
33.500	24.094	0.100
33.600	14.975	0.100
33.700	24.918	0.100
33.800	5.332	0.100
33.900	10.300	0.100
34.000	6.340	0.100
34.100	23.875	0.100
34.200	18.430	0.100
34.300	12.880	0.100
34.400	6.963	0.100
34.500	35.781	0.100
34.600	33.344	0.100
34.700	19.383	0.100
34.800	17.998	0.100
34.900	32.107	0.100
35.000	17.961	0.100
35.100	33.795	0.100
35.200	20.226	0.100
35.300	23.522	0.100
35.400	18.326	0.100
35.500	29.125	0.100
35.600	20.335	0.100
35.700	35.890	0.100
35.800	31.845	0.100
35.900	31.440	0.100
36.000	34.599	0.100
36.100	28.654	0.100
36.200	18.030	0.100
36.300	37.947	0.100
36.400	35.490	0.100
36.500	36.823	0.100
36.600	25.973	0.100
36.700	29.531	0.100
36.800	23.134	0.100
36.900	19.697	0.100
37.000	36.759	0.100
37.100	48.985	0.100
37.200	37.064	0.100
37.300	35.329	0.100
37.400	39.863	0.100
37.500	36.458	0.100
37.600	35.412	0.100
37.700	38.610	0.100
37.800	28.994	0.100
37.900	34.650	0.100
38.000	34.177	0.100
38.100	34.988	0.100
38.200	46.071	0.100
38.300	46.264	0.100
38.400	46.860	0.100
38.500	28.283	0.100
38.600	41.820	0.100
38.700	55.135	0.100
38.800	31.271	0.100
38.900	32.925	0.100
39.000	44.662	0.100
39.100	52.817	0.100
39.200	42.000	0.100
39.300	37.416	0.100
39.400	40.511	0.100
39.500	44.661	0.100
39.600	26.983	0.100
39.700	33.406	0.100
39.800	39.738	0.100
39.900	34.931	0.100
40.000	33.916	0.100
40.100	47.736	0.100
40.200	45.513	0.100
40.300	41.710	0.100
40.400	34.068	0.100
40.500	40.028	0.100
40.600	29.630	0.100
40.700	38.057	0.100
40.800	27.775	0.100
40.900	18.740	0.100
41.000	44.495	0.100
41.100	47.802	0.100
41.200	49.381	0.100
41.300	39.702	0.100
41.400	40.473	0.100
41.500	38.307	0.100
41.600	32.452	0.100
41.700	36.456	0.100
41.800	39.365	0.100
41.900	40.921	0.100
42.000	35.258	0.100
42.100	22.009	0.100
42.200	43.466	0.100
42.300	41.899	0.100
42.400	27.674	0.100
42.500	27.465	0.100
42.600	36.570	0.100
42.700	36.938	0.100
42.800	43.813	0.100
42.900	33.361	0.100
43.000	32.706	0.100
43.100	44.485	0.100
43.200	37.868	0.100
43.300	35.638	0.100
43.400	29.240	0.100
43.500	30.581	0.100
43.600	34.289	0.100
43.700	35.467	0.100
43.800	47.125	0.100
43.900	41.685	0.100
44.000	30.130	0.100
44.100	36.028	0.100
44.200	39.134	0.100
44.300	27.725	0.100
44.400	41.378	0.100
44.500	37.799	0.100
44.600	45.393	0.100
44.700	37.296	0.100
44.800	25.070	0.100
44.900	40.581	0.100
45.000	32.658	0.100
45.100	34.707	0.100
45.200	29.733	0.100
45.300	40.325	0.100
45.400	23.550	0.100
45.500	41.350	0.100
45.600	39.703	0.100
45.700	32.685	0.100
45.800	31.301	0.100
45.900	36.221	0.100
46.000	25.187	0.100
46.100	40.824	0.100
46.200	26.653	0.100
46.300	39.095	0.100
46.400	49.161	0.100
46.500	33.114	0.100
46.600	30.128	0.100
46.700	48.595	0.100
46.800	21.052	0.100
46.900	33.543	0.100
47.000	35.664	0.100
47.100	34.457	0.100
47.200	31.420	0.100
47.300	39.373	0.100
47.400	28.763	0.100
47.500	33.773	0.100
47.600	16.366	0.100
47.700	42.024	0.100
47.800	37.402	0.100
47.900	24.382	0.100
48.000	39.431	0.100
48.100	32.259	0.100
48.200	33.043	0.100
48.300	25.208	0.100
48.400	35.264	0.100
48.500	41.306	0.100
48.600	34.773	0.100
48.700	17.732	0.100
48.800	39.638	0.100
48.900	29.977	0.100
49.000	35.367	0.100
49.100	31.712	0.100
49.200	28.958	0.100
49.300	44.931	0.100
49.400	47.187	0.100
49.500	34.367	0.100
49.600	23.866	0.100
49.700	39.709	0.100
49.800	36.326	0.100
49.900	26.832	0.100
50.000	39.745	0.100
50.100	34.155	0.100
50.200	17.438	0.100
50.300	38.176	0.100
50.400	32.256	0.100
50.500	38.831	0.100
50.600	34.836	0.100
50.700	35.114	0.100
50.800	34.555	0.100
50.900	30.589	0.100
51.000	30.940	0.100
51.100	36.857	0.100
51.200	32.515	0.100
51.300	42.737	0.100
51.400	6.654	0.100
51.500	39.603	0.100
51.600	29.068	0.100
51.700	34.484	0.100
51.800	40.969	0.100
51.900	30.278	0.100
52.000	35.928	0.100
52.100	33.920	0.100
52.200	33.939	0.100
52.300	39.033	0.100
52.400	48.828	0.100
52.500	32.817	0.100
52.600	35.963	0.100
52.700	47.463	0.100
52.800	39.833	0.100
52.900	31.926	0.100
53.000	26.050	0.100
53.100	39.632	0.100
53.200	47.712	0.100
53.300	47.842	0.100
53.400	32.403	0.100
53.500	25.524	0.100
53.600	39.877	0.100
53.700	40.026	0.100
53.800	38.491	0.100
53.900	35.390	0.100
54.000	42.069	0.100
54.100	30.324	0.100
54.200	43.119	0.100
54.300	38.418	0.100
54.400	40.406	0.100
54.500	43.794	0.100
54.600	45.468	0.100
54.700	35.963	0.100
54.800	37.195	0.100
54.900	44.805	0.100
55.000	34.385	0.100
55.100	47.132	0.100
55.200	50.625	0.100
55.300	33.344	0.100
55.400	38.879	0.100
55.500	31.090	0.100
55.600	44.212	0.100
55.700	30.525	0.100
55.800	35.026	0.100
55.900	42.105	0.100
56.000	54.113	0.100
56.100	44.720	0.100
56.200	34.527	0.100
56.300	44.867	0.100
56.400	35.622	0.100
56.500	42.929	0.100
56.600	42.366	0.100
56.700	46.245	0.100
56.800	44.927	0.100
56.900	36.381	0.100
57.000	46.760	0.100
57.100	32.751	0.100
57.200	46.112	0.100
57.300	56.722	0.100
57.400	42.169	0.100
57.500	48.177	0.100
57.600	38.224	0.100
57.700	36.384	0.100
57.800	40.072	0.100
57.900	54.495	0.100
58.000	35.890	0.100
58.100	39.034	0.100
58.200	41.009	0.100
58.300	51.134	0.100
58.400	49.783	0.100
58.500	54.371	0.100
58.600	37.415	0.100
58.700	37.545	0.100
58.800	43.400	0.100
58.900	50.896	0.100
59.000	44.639	0.100
59.100	45.281	0.100
59.200	42.722	0.100
59.300	40.539	0.100
59.400	52.859	0.100
59.500	36.725	0.100
59.600	48.244	0.100
59.700	51.110	0.100
59.800	53.033	0.100
59.900	36.152	0.100
60.000	46.793	0.100
60.100	31.644	0.100
60.200	42.381	0.100
60.300	47.212	0.100
60.400	57.678	0.100
60.500	59.967	0.100
60.600	50.615	0.100
60.700	47.882	0.100
60.800	44.543	0.100
60.900	46.465	0.100
61.000	45.550	0.100
61.100	44.211	0.100
61.200	56.062	0.100
61.300	48.712	0.100
61.400	44.283	0.100
61.500	42.567	0.100
61.600	55.792	0.100
61.700	44.418	0.100
61.800	53.226	0.100
61.900	50.937	0.100
62.000	38.420	0.100
62.100	37.442	0.100
62.200	36.365	0.100
62.300	61.959	0.100
62.400	52.842	0.100
62.500	44.360	0.100
62.600	48.127	0.100
62.700	43.248	0.100
62.800	51.630	0.100
62.900	52.601	0.100
63.000	34.523	0.100
63.100	44.206	0.100
63.200	47.792	0.100
63.300	52.287	0.100
63.400	48.555	0.100
63.500	41.522	0.100
63.600	21.550	0.100
63.700	43.598	0.100
63.800	56.157	0.100
63.900	44.574	0.100
64.000	35.899	0.100
64.100	51.473	0.100
64.200	49.076	0.100
64.300	46.364	0.100
64.400	51.048	0.100
64.500	50.844	0.100
64.600	46.970	0.100
64.700	33.105	0.100
64.800	52.234	0.100
64.900	51.733	0.100
65.000	52.488	0.100
65.100	46.262	0.100
65.200	46.485	0.100
65.300	45.333	0.100
65.400	41.879	0.100
65.500	41.097	0.100
65.600	45.426	0.100
65.700	44.014	0.100
65.800	45.953	0.100
65.900	48.355	0.100
66.000	57.645	0.100
66.100	59.105	0.100
66.200	48.354	0.100
66.300	41.300	0.100
66.400	56.344	0.100
66.500	48.627	0.100
66.600	49.087	0.100
66.700	44.038	0.100
66.800	47.982	0.100
66.900	57.440	0.100
67.000	43.397	0.100
67.100	58.870	0.100
67.200	47.103	0.100
67.300	44.277	0.100
67.400	44.851	0.100
67.500	60.063	0.100
67.600	47.676	0.100
67.700	48.627	0.100
67.800	45.651	0.100
67.900	57.867	0.100
68.000	48.102	0.100
68.100	49.773	0.100
68.200	56.646	0.100
68.300	25.073	0.100
68.400	46.187	0.100
68.500	48.919	0.100
68.600	47.146	0.100
68.700	54.854	0.100
68.800	52.778	0.100
68.900	55.070	0.100
69.000	39.221	0.100
69.100	50.576	0.100
69.200	39.672	0.100
69.300	65.630	0.100
69.400	48.590	0.100
69.500	34.320	0.100
69.600	64.927	0.100
69.700	60.258	0.100
69.800	39.949	0.100
69.900	48.655	0.100
70.000	42.476	0.100
70.100	38.573	0.100
70.200	55.092	0.100
70.300	41.978	0.100
70.400	55.286	0.100
70.500	65.908	0.100
70.600	48.550	0.100
70.700	50.298	0.100
70.800	45.239	0.100
70.900	49.555	0.100
71.000	38.377	0.100
71.100	46.460	0.100
71.200	60.605	0.100
71.300	46.034	0.100
71.400	57.061	0.100
71.500	62.215	0.100
71.600	56.326	0.100
71.700	51.915	0.100
71.800	40.398	0.100
71.900	41.534	0.100
72.000	53.632	0.100
72.100	46.100	0.100
72.200	57.465	0.100
72.300	52.489	0.100
72.400	61.641	0.100
72.500	44.795	0.100
72.600	61.491	0.100
72.700	59.430	0.100
72.800	41.778	0.100
72.900	60.812	0.100
73.000	54.984	0.100
73.100	48.368	0.100
73.200	48.783	0.100
73.300	42.801	0.100
73.400	52.357	0.100
73.500	63.413	0.100
73.600	52.922	0.100
73.700	55.069	0.100
73.800	48.887	0.100
73.900	62.881	0.100
74.000	58.782	0.100
74.100	44.951	0.100
74.200	51.761	0.100
74.300	57.208	0.100
74.400	45.314	0.100
74.500	50.361	0.100
74.600	51.420	0.100
74.700	40.112	0.100
74.800	67.335	0.100
74.900	44.814	0.100
75.000	49.087	0.100
75.100	61.841	0.100
75.200	50.976	0.100
75.300	54.618	0.100
75.400	50.274	0.100
75.500	51.154	0.100
75.600	58.253	0.100
75.700	61.554	0.100
75.800	56.635	0.100
75.900	66.826	0.100
76.000	57.840	0.100
76.100	46.886	0.100
76.200	48.208	0.100
76.300	55.197	0.100
76.400	53.589	0.100
76.500	45.870	0.100
76.600	58.776	0.100
76.700	54.697	0.100
76.800	49.682	0.100
76.900	58.220	0.100
77.000	63.137	0.100
77.100	57.373	0.100
77.200	45.270	0.100
77.300	46.014	0.100
77.400	67.103	0.100
77.500	62.737	0.100
77.600	39.451	0.100
77.700	60.614	0.100
77.800	50.693	0.100
77.900	67.678	0.100
78.000	55.348	0.100
78.100	61.485	0.100
78.200	47.195	0.100
78.300	50.592	0.100
78.400	59.224	0.100
78.500	53.517	0.100
78.600	46.946	0.100
78.700	55.184	0.100
78.800	44.315	0.100
78.900	62.314	0.100
79.000	60.313	0.100
79.100	65.367	0.100
79.200	57.906	0.100
79.300	62.573	0.100
79.400	46.562	0.100
79.500	48.458	0.100
79.600	62.021	0.100
79.700	54.179	0.100
79.800	62.524	0.100
79.900	48.039	0.100
80.000	70.221	0.100
80.100	46.536	0.100
80.200	45.816	0.100
80.300	60.315	0.100
80.400	62.047	0.100
80.500	62.566	0.100
80.600	58.877	0.100
80.700	51.275	0.100
80.800	62.408	0.100
80.900	63.106	0.100
81.000	55.655	0.100
81.100	44.638	0.100
81.200	44.134	0.100
81.300	63.385	0.100
81.400	52.299	0.100
81.500	63.192	0.100
81.600	60.584	0.100
81.700	52.544	0.100
81.800	61.426	0.100
81.900	59.919	0.100
82.000	57.885	0.100
82.100	63.462	0.100
82.200	53.032	0.100
82.300	69.253	0.100
82.400	53.553	0.100
82.500	66.094	0.100
82.600	63.375	0.100
82.700	63.746	0.100
82.800	80.235	0.100
82.900	45.637	0.100
83.000	66.933	0.100
83.100	50.782	0.100
83.200	56.900	0.100
83.300	54.096	0.100
83.400	63.625	0.100
83.500	59.188	0.100
83.600	58.554	0.100
83.700	72.499	0.100
83.800	67.181	0.100
83.900	57.261	0.100
84.000	65.986	0.100
84.100	53.624	0.100
84.200	68.524	0.100
84.300	64.081	0.100
84.400	53.937	0.100
84.500	51.437	0.100
84.600	77.453	0.100
84.700	68.197	0.100
84.800	69.362	0.100
84.900	57.273	0.100
85.000	56.200	0.100
85.100	53.439	0.100
85.200	64.153	0.100
85.300	50.630	0.100
85.400	61.629	0.100
85.500	60.554	0.100
85.600	64.899	0.100
85.700	68.681	0.100
85.800	54.845	0.100
85.900	56.503	0.100
86.000	63.302	0.100
86.100	79.221	0.100
86.200	62.232	0.100
86.300	62.120	0.100
86.400	63.977	0.100
86.500	56.331	0.100
86.600	54.907	0.100
86.700	55.301	0.100
86.800	61.062	0.100
86.900	58.518	0.100
87.000	65.318	0.100
87.100	63.461	0.100
87.200	59.355	0.100
87.300	58.463	0.100
87.400	71.064	0.100
87.500	80.320	0.100
87.600	66.059	0.100
87.700	58.932	0.100
87.800	55.621	0.100
87.900	58.996	0.100
88.000	62.058	0.100
88.100	63.089	0.099
88.200	60.212	0.099
88.300	60.951	0.099
88.400	64.229	0.099
88.500	66.489	0.099
88.600	64.413	0.099
88.700	69.661	0.099
88.800	61.169	0.099
88.900	68.149	0.099
89.000	55.767	0.099
89.100	61.816	0.099
89.200	57.556	0.099
89.300	73.792	0.099
89.400	65.266	0.099
89.500	64.900	0.099
89.600	57.745	0.099
89.700	68.994	0.099
89.800	56.984	0.099
89.900	65.624	0.099
90.000	55.254	0.099
90.100	60.140	0.099
90.200	43.101	0.099
90.300	49.360	0.099
90.400	45.320	0.099
90.500	40.475	0.099
90.600	32.596	0.099
90.700	38.718	0.099
90.800	12.462	0.099
90.900	12.711	0.099
91.000	11.767	0.099
91.100	0.650	0.099
91.200	-4.299	0.099
91.300	-13.016	0.099
91.400	-6.751	0.099
91.500	-20.990	0.099
91.600	-21.724	0.099
91.700	-26.835	0.099
91.800	-34.889	0.099
91.900	-43.932	0.099
92.000	-45.892	0.099
92.100	-29.165	0.099
92.200	-28.179	0.099
92.300	-37.706	0.099
92.400	-44.848	0.099
92.500	-51.909	0.099
92.600	-43.139	0.099
92.700	-58.836	0.099
92.800	-58.815	0.099
92.900	-56.788	0.099
93.000	-64.915	0.099
93.100	-49.560	0.099
93.200	-68.641	0.099
93.300	-56.558	0.099
93.400	-72.791	0.099
93.500	-65.129	0.099
93.600	-69.292	0.099
93.700	-66.216	0.099
93.800	-74.572	0.099
93.900	-62.866	0.099
94.000	-62.163	0.099
94.100	-57.114	0.099
94.200	-64.988	0.099
94.300	-84.909	0.099
94.400	-63.511	0.099
94.500	-74.698	0.099
94.600	-72.741	0.099
94.700	-62.683	0.099
94.800	-66.743	0.099
94.900	-60.398	0.099
95.000	-67.271	0.099
95.100	-69.702	0.099
95.200	-70.538	0.099
95.300	-76.738	0.099
95.400	-71.974	0.099
95.500	-70.116	0.099
95.600	-65.859	0.099
95.700	-70.426	0.099
95.800	-73.657	0.099
95.900	-64.843	0.099
96.000	-59.789	0.099
96.100	-61.275	0.099
96.200	-70.698	0.099
96.300	-71.748	0.099
96.400	-67.921	0.099
96.500	-61.051	0.099
96.600	-53.439	0.099
96.700	-61.844	0.099
96.800	-57.489	0.099
96.900	-65.183	0.099
97.000	-43.711	0.099
97.100	-52.861	0.099
97.200	-70.886	0.099
97.300	-47.476	0.099
97.400	-52.228	0.099
97.500	-53.151	0.099
97.600	-53.564	0.099
97.700	-50.430	0.099
97.800	-54.552	0.099
97.900	-41.301	0.099
98.000	-44.292	0.099
98.100	-54.333	0.099
98.200	-51.897	0.099
98.300	-58.719	0.099
98.400	-49.528	0.099
98.500	-43.304	0.099
98.600	-58.111	0.099
98.700	-64.890	0.099
98.800	-47.515	0.099
98.900	-52.182	0.099
99.000	-35.827	0.099
99.100	-37.849	0.099
99.200	-42.297	0.099
99.300	-33.415	0.099
99.400	-52.788	0.099
99.500	-47.848	0.099
99.600	-36.805	0.099
99.700	-49.861	0.099
99.800	-50.184	0.099
99.900	-40.041	0.099
100.000	-41.139	0.099
100.100	-33.831	0.099
100.200	-41.707	0.099
100.300	-46.537	0.099
100.400	-41.476	0.099
100.500	-50.681	0.099
100.600	-35.252	0.099
100.700	-40.105	0.099
100.800	-35.658	0.099
100.900	-32.837	0.099
101.000	-46.541	0.099
101.100	-37.816	0.099
101.200	-34.292	0.099
101.300	-35.306	0.099
101.400	-45.755	0.099
101.500	-35.001	0.099
101.600	-26.501	0.099
101.700	-40.594	0.099
101.800	-42.777	0.099
101.900	-42.593	0.099
102.000	-44.655	0.099
102.100	-35.018	0.099
102.200	-27.175	0.099
102.300	-28.015	0.099
102.400	-37.158	0.099
102.500	-53.263	0.099
102.600	-28.671	0.099
102.700	-28.751	0.099
102.800	-30.349	0.099
102.900	-30.204	0.099
103.000	-29.312	0.099
103.100	-31.168	0.099
103.200	-35.886	0.099
103.300	-27.532	0.099
103.400	-28.375	0.099
103.500	-21.613	0.099
103.600	-40.597	0.099
103.700	-26.488	0.099
103.800	-35.924	0.099
103.900	-20.834	0.099
104.000	-24.427	0.099
104.100	-35.271	0.099
104.200	-44.637	0.099
104.300	-40.207	0.099
104.400	-15.558	0.099
104.500	-35.620	0.099
104.600	-41.951	0.099
104.700	-14.928	0.099
104.800	-35.171	0.099
104.900	-25.164	0.099
105.000	-31.941	0.099
105.100	-19.637	0.099
105.200	-17.386	0.099
105.300	-27.844	0.099
105.400	-41.226	0.099
105.500	-40.218	0.099
105.600	-24.677	0.099
105.700	-36.564	0.099
105.800	-29.824	0.099
105.900	-22.911	0.099
106.000	-25.011	0.099
106.100	-35.302	0.099
106.200	-29.782	0.099
106.300	-40.004	0.099
106.400	-21.421	0.099
106.500	-28.726	0.099
106.600	-32.398	0.099
106.700	-23.325	0.100
106.800	-33.375	0.100
106.900	-25.484	0.100
107.000	-26.067	0.099
107.100	-27.849	0.099
107.200	-6.018	0.099
107.300	-39.319	0.099
107.400	-36.600	0.099
107.500	-26.902	0.099
107.600	-21.522	0.099
107.700	-26.655	0.099
107.800	-37.225	0.100
107.900	-28.650	0.099
108.000	-31.288	0.099
108.100	-26.759	0.099
108.200	-22.032	0.099
108.300	-25.687	0.099
108.400	-24.940	0.099
108.500	-27.521	0.099
108.600	-27.706	0.099
108.700	-17.076	0.099
108.800	-29.015	0.099
108.900	-29.062	0.099
109.000	-42.334	0.099
109.100	-19.126	0.099
109.200	-18.798	0.099
109.300	-31.803	0.099
109.400	-15.724	0.099
109.500	-18.507	0.099
109.600	-20.273	0.099
109.700	-25.745	0.099
109.800	-36.412	0.099
109.900	-23.774	0.099
110.000	-23.296	0.099
110.100	-33.564	0.099
110.200	-30.630	0.099
110.300	-20.521	0.099
110.400	-26.802	0.099
110.500	-17.519	0.099
110.600	-23.893	0.099
110.700	-14.141	0.099
110.800	-24.315	0.100
110.900	-20.977	0.100
111.000	-35.388	0.100
111.100	-15.220	0.099
111.200	-27.595	0.100
111.300	-26.485	0.100
111.400	-19.844	0.100
111.500	-47.393	0.099
111.600	-21.040	0.100
111.700	-20.912	0.099
111.800	-22.567	0.100
111.900	-29.909	0.100
112.000	-9.241	0.099
112.100	-16.527	0.100
112.200	-24.334	0.099
112.300	-23.686	0.100
112.400	-13.715	0.099
112.500	-20.260	0.100
112.600	-14.763	0.099
112.700	-12.113	0.099
112.800	-23.077	0.100
112.900	-29.978	0.100
113.000	-28.583	0.099
113.100	-22.170	0.100
113.200	-25.327	0.100
113.300	-20.234	0.100
113.400	-13.734	0.100
113.500	-29.123	0.100
113.600	-17.891	0.099
113.700	-21.900	0.100
113.800	-29.501	0.099
113.900	-16.432	0.100
114.000	-9.584	0.100
114.100	-19.468	0.100
114.200	-28.930	0.099
114.300	-25.051	0.100
114.400	-17.843	0.100
114.500	-21.102	0.100
114.600	-34.927	0.099
114.700	-9.480	0.099
114.800	-12.271	0.100
114.900	-13.184	0.100
115.000	-24.860	0.100
115.100	-29.267	0.099
115.200	-10.647	0.100
115.300	-21.748	0.100
115.400	-14.857	0.099
115.500	-9.166	0.100
115.600	-24.902	0.100
115.700	-20.411	0.100
115.800	-22.109	0.099
115.900	-19.002	0.100
116.000	-29.801	0.100
116.100	-13.480	0.100
116.200	-19.064	0.100
116.300	-15.205	0.100
116.400	-17.180	0.100
116.500	-20.521	0.100
116.600	-1.415	0.100
116.700	-14.007	0.100
116.800	-17.610	0.100
116.900	-14.191	0.100
117.000	-30.991	0.100
117.100	-24.044	0.100
117.200	-2.995	0.100
117.300	-9.936	0.100
117.400	-11.213	0.100
117.500	-21.132	0.100
117.600	-14.925	0.100
117.700	-24.653	0.100
117.800	-16.517	0.100
117.900	-11.051	0.100
118.000	-16.070	0.100
118.100	-23.403	0.100
118.200	-19.844	0.100
118.300	-16.475	0.100
118.400	-15.388	0.100
118.500	-26.062	0.100
118.600	-12.838	0.100
118.700	-17.236	0.100
118.800	-11.422	0.099
118.900	-2.729	0.100
119.000	-20.583	0.100
119.100	-16.833	0.100
119.200	-24.061	0.100
119.300	-21.915	0.100
119.400	-6.015	0.100
119.500	-26.178	0.100
119.600	-10.629	0.100
119.700	-11.819	0.100
119.800	-17.182	0.100
119.900	-21.005	0.100
120.000	-8.391	0.100
120.100	-11.594	0.099
120.200	-13.396	0.100
120.300	-16.659	0.100
120.400	-24.975	0.100
120.500	-8.164	0.100
120.600	-13.011	0.100
120.700	-14.124	0.100
120.800	-31.732	0.100
120.900	-11.004	0.100
121.000	-18.910	0.100
121.100	-11.251	0.100
121.200	-7.647	0.100
121.300	-7.746	0.100
121.400	-18.418	0.100
121.500	-37.269	0.100
121.600	-25.209	0.099
121.700	-8.304	0.100
121.800	-10.443	0.100
121.900	-15.479	0.099
122.000	-20.384	0.100
122.100	-7.091	0.100
122.200	-10.689	0.100
122.300	-10.042	0.100
122.400	-12.636	0.100
122.500	-25.623	0.100
122.600	-7.230	0.100
122.700	-29.867	0.100
122.800	-13.276	0.100
122.900	-14.482	0.100
123.000	-15.050	0.100
123.100	-12.110	0.100
123.200	-7.610	0.099
123.300	-9.619	0.100
123.400	-15.876	0.100
123.500	-18.933	0.100
123.600	-1.812	0.100
123.700	-21.804	0.100
123.800	-17.767	0.100
123.900	-7.264	0.100
124.000	-20.444	0.100
124.100	-8.379	0.100
124.200	-14.606	0.099
124.300	-27.056	0.100
124.400	-12.599	0.100
124.500	-21.266	0.100
124.600	-13.306	0.100
124.700	-10.027	0.100
124.800	-13.908	0.100
124.900	-29.773	0.100
125.000	-6.336	0.100
125.100	-18.075	0.100
125.200	-8.441	0.100
125.300	-13.427	0.100
125.400	-26.563	0.100
125.500	-12.690	0.100
125.600	-19.332	0.100
125.700	1.734	0.100
125.800	-27.601	0.100
125.900	-15.868	0.100
126.000	-15.022	0.100
126.100	-13.974	0.100
126.200	-25.308	0.100
126.300	-28.179	0.100
126.400	-10.381	0.100
126.500	1.348	0.100
126.600	-10.807	0.100
126.700	-13.233	0.100
126.800	-12.898	0.100
126.900	-11.565	0.100
127.000	-13.539	0.100
127.100	-10.001	0.099
127.200	-7.343	0.099
127.300	-7.323	0.100
127.400	-15.637	0.100
127.500	-9.398	0.099
127.600	-13.008	0.099
127.700	-22.200	0.100
127.800	-21.186	0.099
127.900	-14.804	0.099
128.000	-22.325	0.100
128.100	-24.717	0.100
128.200	-16.524	0.099
128.300	-11.864	0.099
128.400	-9.540	0.100
128.500	-4.261	0.099
128.600	-3.224	0.099
128.700	-15.865	0.100
128.800	-13.609	0.100
128.900	-19.669	0.099
129.000	-26.345	0.100
129.100	-14.763	0.100
129.200	-18.163	0.100
129.300	-15.924	0.099
129.400	-26.709	0.099
129.500	-12.748	0.099
129.600	-15.585	0.099
129.700	1.578	0.099
129.800	-11.806	0.099
129.900	3.054	0.099
130.000	0.510	0.099
130.100	-18.421	0.100
130.200	-22.003	0.099
130.300	-17.460	0.100
130.400	-19.403	0.100
130.500	-4.769	0.100
130.600	-12.756	0.100
130.700	-11.223	0.099
130.800	-21.076	0.100
130.900	-15.580	0.100
131.000	-8.673	0.099
131.100	-19.213	0.099
131.200	-5.229	0.099
131.300	-10.143	0.099
131.400	-12.022	0.099
131.500	-11.278	0.099
131.600	-16.793	0.100
131.700	-29.822	0.099
131.800	-12.533	0.100
131.900	-14.759	0.099
132.000	-20.409	0.100
132.100	-28.113	0.100
132.200	-3.548	0.099
132.300	-7.179	0.100
132.400	-13.663	0.099
132.500	-13.100	0.100
132.600	-17.538	0.099
132.700	-33.025	0.100
132.800	-7.677	0.099
132.900	-1.540	0.099
133.000	-14.783	0.100
133.100	1.266	0.099
133.200	-17.911	0.099
133.300	-8.455	0.099
133.400	9.075	0.099
133.500	-7.822	0.099
133.600	-1.516	0.099
133.700	-28.641	0.100
133.800	-15.634	0.099
133.900	-18.721	0.099
134.000	-19.210	0.099
134.100	-1.678	0.099
134.200	-9.562	0.099
134.300	-12.436	0.099
134.400	-3.918	0.099
134.500	-15.131	0.099
134.600	-26.993	0.100
134.700	-7.251	0.099
134.800	-3.262	0.099
134.900	-14.962	0.099
135.000	-12.548	0.099
135.100	-15.631	0.099
135.200	-14.584	0.099
135.300	-8.021	0.099
135.400	-20.517	0.099
135.500	-20.016	0.099
135.600	10.163	0.099
135.700	-6.064	0.099
135.800	-19.098	0.099
135.900	-24.034	0.100
136.000	-11.333	0.099
136.100	-16.886	0.099
136.200	-19.313	0.100
136.300	-20.395	0.099
136.400	-8.399	0.099
136.500	-22.176	0.099
136.600	-16.959	0.099
136.700	-17.829	0.099
136.800	-10.531	0.099
136.900	-12.550	0.099
137.000	-9.657	0.099
137.100	-16.749	0.099
137.200	-8.962	0.099
137.300	-23.190	0.100
137.400	-8.275	0.099
137.500	-12.902	0.099
137.600	-0.651	0.099
137.700	-14.059	0.099
137.800	-21.140	0.100
137.900	-1.871	0.099
138.000	-8.582	0.099
138.100	-13.448	0.100
138.200	-1.076	0.099
138.300	-4.587	0.100
138.400	-21.591	0.100
138.500	-1.060	0.099
138.600	-18.630	0.099
138.700	-30.032	0.100
138.800	-4.570	0.100
138.900	-2.756	0.100
139.000	-24.119	0.100
139.100	-23.002	0.100
139.200	-7.332	0.100
139.300	-10.347	0.100
139.400	-22.330	0.100
139.500	-11.017	0.099
139.600	-7.348	0.100
139.700	-16.089	0.100
139.800	-14.696	0.099
139.900	-11.819	0.100
140.000	-18.650	0.100
140.100	-9.930	0.100
140.200	-18.053	0.100
140.300	-19.287	0.100
140.400	-3.340	0.099
140.500	-4.228	0.100
140.600	-16.260	0.100
140.700	-7.440	0.099
140.800	-7.234	0.099
140.900	1.044	0.100
141.000	-21.026	0.100
141.100	-13.589	0.100
141.200	-8.586	0.100
141.300	-26.078	0.100
141.400	4.887	0.100
141.500	-14.819	0.100
141.600	-9.091	0.100
141.700	-7.042	0.100
141.800	-11.381	0.100
141.900	-14.180	0.100
142.000	-5.870	0.099
142.100	-18.547	0.100
142.200	-11.696	0.100
142.300	-11.817	0.100
142.400	-2.849	0.100
142.500	-10.284	0.100
142.600	-5.950	0.100
142.700	-4.066	0.099
142.800	-12.810	0.100
142.900	-12.534	0.100
143.000	-8.895	0.099
143.100	-15.265	0.100
143.200	-21.389	0.100
143.300	-12.509	0.099
143.400	-1.863	0.100
143.500	2.996	0.099
143.600	-26.019	0.100
143.700	-9.304	0.100
143.800	-6.673	0.100
143.900	-11.118	0.099
144.000	-30.450	0.100
144.100	-5.623	0.100
144.200	-9.164	0.100
144.300	-6.698	0.100
144.400	-3.405	0.100
144.500	-10.705	0.100
144.600	-9.791	0.100
144.700	-13.347	0.100
144.800	-13.586	0.100
144.900	-9.371	0.100
145.000	-7.304	0.100
145.100	-16.383	0.100
145.200	-11.647	0.100
145.300	-19.218	0.100
145.400	-0.219	0.100
145.500	-3.429	0.100
145.600	-10.499	0.100
145.700	-18.337	0.100
145.800	-7.795	0.100
145.900	-12.333	0.100
146.000	-17.981	0.100
146.100	-28.125	0.100
146.200	-14.513	0.100
146.300	4.917	0.100
146.400	-2.993	0.100
146.500	-7.493	0.100
146.600	-11.261	0.100
146.700	-18.168	0.100
146.800	-4.389	0.100
146.900	-10.287	0.100
147.000	-14.361	0.100
147.100	-12.096	0.100
147.200	-8.102	0.100
147.300	-22.568	0.100
147.400	-14.772	0.100
147.500	-9.163	0.100
147.600	-8.265	0.100
147.700	-10.173	0.100
147.800	-7.889	0.100
147.900	-13.484	0.100
148.000	-12.380	0.100
148.100	-21.674	0.100
148.200	-14.435	0.100
148.300	-4.804	0.100
148.400	-5.546	0.100
148.500	-0.433	0.100
148.600	-21.342	0.100
148.700	-14.560	0.100
148.800	-13.986	0.100
148.900	-10.135	0.100
149.000	-7.342	0.100
149.100	-1.054	0.100
149.200	-4.173	0.100
149.300	-11.453	0.100
149.400	-7.547	0.100
149.500	-15.963	0.100
149.600	-28.924	0.100
149.700	-9.528	0.100
149.800	-7.366	0.100
149.900	-14.417	0.100
150.000	-2.155	0.099
150.100	-7.158	0.100
150.200	-9.998	0.100
150.300	-20.811	0.100
150.400	-16.827	0.100
150.500	-9.555	0.100
150.600	-10.302	0.100
150.700	-4.309	0.099
150.800	-1.676	0.100
150.900	-1.037	0.100
151.000	-12.874	0.100
151.100	-6.159	0.100
151.200	-8.762	0.100
151.300	-30.496	0.100
151.400	-6.566	0.100
151.500	-8.774	0.100
151.600	-10.854	0.099
151.700	-14.510	0.100
151.800	-12.922	0.100
151.900	-16.102	0.100
152.000	1.303	0.100
152.100	-6.708	0.100
152.200	-12.212	0.100
152.300	-11.890	0.100
152.400	-9.030	0.100
152.500	-11.932	0.100
152.600	-6.055	0.100
152.700	-11.048	0.099
152.800	-22.603	0.100
152.900	-10.773	0.099
153.000	-2.570	0.100
153.100	-7.455	0.099
153.200	-14.409	0.100
153.300	-20.656	0.100
153.400	-4.428	0.099
153.500	-8.867	0.099
153.600	-8.488	0.099
153.700	-16.056	0.100
153.800	-18.778	0.100
153.900	-5.698	0.099
154.000	-5.972	0.099
154.100	-17.654	0.100
154.200	-13.474	0.100
154.300	-6.972	0.099
154.400	-6.758	0.100
154.500	-21.128	0.100
154.600	-4.119	0.099
154.700	-10.960	0.100
154.800	-15.020	0.099
154.900	-16.441	0.099
155.000	-2.215	0.099
155.100	-11.449	0.100
155.200	-6.409	0.099
155.300	-7.564	0.099
155.400	-11.987	0.099
155.500	-16.546	0.099
155.600	-7.441	0.099
155.700	-5.373	0.099
155.800	-11.770	0.099
155.900	-6.043	0.099
156.000	-7.469	0.099
156.100	-19.806	0.099
156.200	-12.000	0.099
156.300	-5.214	0.099
156.400	-13.183	0.099
156.500	-23.505	0.099
156.600	-7.397	0.099
156.700	3.368	0.099
156.800	-8.906	0.099
156.900	-8.485	0.099
157.000	-21.918	0.099
157.100	-5.256	0.099
157.200	-5.258	0.099
157.300	-20.009	0.099
157.400	-9.613	0.099
157.500	-2.495	0.099
157.600	-8.203	0.099
157.700	-16.235	0.099
157.800	-13.840	0.099
157.900	-21.266	0.099
158.000	-20.914	0.099
158.100	-4.173	0.099
158.200	-12.792	0.099
158.300	-6.852	0.099
158.400	4.343	0.099
158.500	-11.643	0.099
158.600	-15.518	0.099
158.700	-10.126	0.099
158.800	1.773	0.099
158.900	0.386	0.099
159.000	-15.933	0.099
159.100	-8.227	0.099
159.200	-19.908	0.099
159.300	-10.071	0.099
159.400	-12.132	0.099
159.500	-7.339	0.099
159.600	-15.391	0.099
159.700	-5.594	0.099
159.800	-14.745	0.099
159.900	-17.416	0.099
160.000	-3.979	0.099
160.100	-3.444	0.099
160.200	-16.089	0.099
160.300	-9.679	0.099
160.400	-9.692	0.099
160.500	-16.519	0.099
160.600	-0.125	0.099
160.700	-1.667	0.099
160.800	-11.551	0.099
160.900	-17.901	0.099
161.000	-11.459	0.099
161.100	-15.553	0.099
161.200	-11.339	0.099
161.300	-17.925	0.099
161.400	-11.211	0.099
161.500	-6.880	0.099
161.600	-3.324	0.099
161.700	-17.719	0.099
161.800	-12.556	0.099
161.900	-10.703	0.099
162.000	-20.736	0.099
162.100	-28.111	0.099
162.200	-1.606	0.099
162.300	-9.052	0.099
162.400	-7.780	0.099
162.500	-0.963	0.099
162.600	-10.610	0.099
162.700	-9.317	0.099
162.800	-20.206	0.099
162.900	-15.252	0.099
163.000	-5.559	0.099
163.100	-5.520	0.099
163.200	-8.798	0.099
163.300	-9.484	0.099
163.400	-10.617	0.099
163.500	-12.585	0.099
163.600	3.055	0.099
163.700	-9.832	0.099
163.800	-1.248	0.099
163.900	-14.524	0.099
164.000	-4.903	0.099
164.100	-13.891	0.099
164.200	-23.041	0.099
164.300	-16.353	0.099
164.400	-6.017	0.099
164.500	-5.015	0.099
164.600	-18.283	0.099
164.700	4.528	0.099
164.800	-10.888	0.099
164.900	-12.888	0.099
165.000	-2.738	0.099
165.100	-9.324	0.099
165.200	-11.611	0.099
165.300	-11.970	0.099
165.400	-11.126	0.099
165.500	1.991	0.099
165.600	-3.247	0.099
165.700	-0.810	0.099
165.800	-25.268	0.099
165.900	-5.971	0.099
166.000	-4.893	0.099
166.100	-13.435	0.099
166.200	3.402	0.099
166.300	-9.353	0.099
166.400	-13.079	0.099
166.500	0.286	0.099
166.600	-3.532	0.100
166.700	-22.098	0.099
166.800	-1.030	0.100
166.900	-15.122	0.100
167.000	-17.124	0.100
167.100	-1.220	0.100
167.200	-16.128	0.100
167.300	-2.233	0.100
167.400	-2.484	0.100
167.500	-27.408	0.100
167.600	0.656	0.099
167.700	-6.647	0.100
167.800	-7.101	0.099
167.900	-8.214	0.099
168.000	-4.879	0.100
168.100	8.845	0.099
168.200	-24.463	0.100
168.300	-13.278	0.100
168.400	-9.765	0.099
168.500	-19.148	0.100
168.600	-15.623	0.099
168.700	-3.619	0.099
168.800	-19.754	0.100
168.900	-8.077	0.099
169.000	-12.178	0.100
169.100	-10.774	0.100
169.200	-31.896	0.100
169.300	2.174	0.099
169.400	0.921	0.099
169.500	-17.186	0.100
169.600	-4.628	0.100
169.700	-9.796	0.099
169.800	-6.670	0.100
169.900	1.715	0.100
170.000	-14.558	0.100
170.100	-11.436	0.100
170.200	-13.444	0.099
170.300	9.183	0.099
170.400	-9.571	0.099
170.500	-7.821	0.099
170.600	-4.913	0.100
170.700	-7.489	0.099
170.800	-21.181	0.100
170.900	-12.094	0.099
171.000	-2.201	0.099
171.100	-12.107	0.100
171.200	-4.940	0.099
171.300	-6.323	0.099
171.400	-8.480	0.099
171.500	-17.283	0.100
171.600	-15.509	0.099
171.700	-9.759	0.100
171.800	-12.979	0.100
171.900	-1.662	0.099
172.000	-6.988	0.100
172.100	-1.231	0.100
172.200	-10.933	0.100
172.300	-2.554	0.100
172.400	-17.149	0.100
172.500	-11.255	0.100
172.600	-14.856	0.100
172.700	-14.840	0.100
172.800	-26.810	0.100
172.900	-14.912	0.100
173.000	-13.566	0.100
173.100	0.110	0.100
173.200	-1.517	0.100
173.300	-14.828	0.100
173.400	-0.690	0.100
173.500	-0.068	0.100
173.600	-12.689	0.100
173.700	-12.770	0.100
173.800	1.307	0.100
173.900	-1.346	0.100
174.000	-14.150	0.100
174.100	-8.098	0.100
174.200	-9.587	0.100
174.300	-2.065	0.100
174.400	-3.757	0.100
174.500	-11.098	0.100
174.600	-5.840	0.100
174.700	-17.775	0.100
174.800	-1.617	0.100
174.900	-12.870	0.100
175.000	-12.150	0.100
175.100	-12.484	0.100
175.200	-5.088	0.100
175.300	-0.851	0.100
175.400	-4.434	0.100
175.500	-2.704	0.100
175.600	-12.183	0.100
175.700	-10.339	0.100
175.800	-7.499	0.100
175.900	-9.229	0.100
176.000	-1.550	0.100
176.100	-3.381	0.100
176.200	-21.757	0.100
176.300	-2.895	0.100
176.400	-13.826	0.100
176.500	-3.462	0.100
176.600	-15.053	0.100
176.700	-19.671	0.100
176.800	-3.511	0.100
176.900	-4.820	0.100
177.000	-7.403	0.100
177.100	-15.727	0.100
177.200	-23.603	0.100
177.300	-20.252	0.100
177.400	3.940	0.100
177.500	-9.935	0.100
177.600	-12.436	0.100
177.700	-5.695	0.100
177.800	-3.304	0.100
177.900	-20.047	0.100
178.000	-11.372	0.100
178.100	-3.932	0.099
178.200	-23.282	0.099
178.300	-15.118	0.099
178.400	-14.252	0.100
178.500	-8.346	0.099
178.600	-0.329	0.099
178.700	-3.097	0.099
178.800	-1.951	0.099
178.900	-5.861	0.100
179.000	-16.159	0.099
179.100	-14.802	0.099
179.200	-3.010	0.099
179.300	-5.506	0.099
179.400	-5.381	0.100
179.500	-0.958	0.099
179.600	-5.684	0.100
179.700	-7.391	0.100
179.800	-10.631	0.100
179.900	-2.918	0.099
180.000	-9.629	0.099
180.100	1.517	0.099
180.200	-3.258	0.099
180.300	-12.270	0.100
180.400	1.107	0.099
180.500	35.557	0.099
180.600	25.355	0.099
180.700	23.072	0.100
180.800	18.215	0.099
180.900	31.019	0.099
181.000	36.555	0.099
181.100	41.514	0.099
181.200	39.757	0.099
181.300	48.656	0.099
181.400	54.177	0.099
181.500	42.192	0.099
181.600	47.310	0.099
181.700	43.774	0.099
181.800	54.084	0.099
181.900	57.868	0.099
182.000	52.923	0.099
182.100	39.687	0.099
182.200	30.010	0.099
182.300	50.795	0.099
182.400	41.287	0.099
182.500	21.062	0.099
182.600	40.599	0.099
182.700	39.980	0.099
182.800	49.738	0.099
182.900	43.529	0.099
183.000	49.016	0.099
183.100	34.587	0.099
183.200	29.267	0.099
183.300	38.438	0.099
183.400	39.677	0.099
183.500	38.721	0.099
183.600	46.787	0.099
183.700	31.115	0.099
183.800	37.913	0.099
183.900	38.882	0.099
184.000	31.944	0.099
184.100	28.269	0.099
184.200	32.410	0.099
184.300	23.432	0.099
184.400	26.516	0.099
184.500	48.647	0.099
184.600	49.879	0.099
184.700	30.279	0.099
184.800	23.550	0.099
184.900	28.293	0.099
185.000	31.535	0.099
185.100	19.954	0.099
185.200	33.739	0.099
185.300	44.734	0.099
185.400	33.632	0.099
185.500	52.275	0.099
185.600	41.350	0.099
185.700	23.210	0.099
185.800	34.467	0.099
185.900	30.301	0.099
186.000	33.555	0.099
186.100	30.905	0.099
186.200	31.446	0.099
186.300	36.684	0.099
186.400	35.509	0.099
186.500	47.183	0.099
186.600	36.451	0.099
186.700	38.603	0.099
186.800	28.509	0.099
186.900	46.519	0.099
187.000	37.248	0.099
187.100	49.595	0.099
187.200	39.481	0.099
187.300	35.299	0.099
187.400	37.035	0.099
187.500	37.594	0.099
187.600	49.649	0.099
187.700	41.103	0.099
187.800	36.265	0.099
187.900	50.963	0.099
188.000	40.106	0.099
188.100	47.400	0.099
188.200	42.122	0.099
188.300	32.354	0.099
188.400	52.120	0.099
188.500	50.184	0.099
188.600	53.212	0.099
188.700	38.040	0.099
188.800	49.496	0.099
188.900	47.445	0.099
189.000	55.415	0.099
189.100	52.013	0.099
189.200	60.450	0.099
189.300	42.545	0.099
189.400	53.732	0.099
189.500	47.564	0.099
189.600	62.837	0.099
189.700	49.753	0.099
189.800	42.966	0.099
189.900	55.320	0.099
190.000	46.997	0.099
190.100	54.017	0.099
190.200	59.716	0.099
190.300	54.795	0.099
190.400	59.366	0.099
190.500	55.437	0.099
190.600	69.141	0.099
190.700	57.400	0.099
190.800	49.350	0.099
190.900	53.227	0.099
191.000	61.374	0.099
191.100	61.119	0.099
191.200	67.430	0.099
191.300	60.114	0.099
191.400	56.885	0.099
191.500	62.008	0.099
191.600	53.026	0.099
191.700	64.554	0.099
191.800	49.030	0.099
191.900	69.440	0.099
192.000	55.301	0.099
192.100	59.369	0.099
192.200	53.096	0.099
192.300	52.358	0.099
192.400	59.413	0.099
192.500	57.600	0.099
192.600	57.263	0.099
192.700	65.251	0.099
192.800	59.827	0.099
192.900	54.549	0.099
193.000	72.369	0.099
193.100	64.124	0.099
193.200	61.382	0.099
193.300	55.429	0.099
193.400	65.059	0.099
193.500	62.959	0.099
193.600	79.145	0.099
193.700	61.751	0.099
193.800	57.524	0.099
193.900	57.774	0.099
194.000	59.053	0.099
194.100	64.365	0.099
194.200	66.556	0.099
194.300	68.999	0.099
194.400	66.648	0.099
194.500	57.990	0.099
194.600	62.587	0.099
194.700	69.827	0.100
194.800	70.686	0.100
194.900	65.649	0.100
195.000	56.233	0.100
195.100	61.444	0.100
195.200	67.774	0.100
195.300	57.204	0.100
195.400	62.860	0.100
195.500	59.596	0.100
195.600	61.342	0.100
195.700	66.257	0.100
195.800	74.648	0.100
195.900	71.736	0.100
196.000	59.088	0.100
196.100	74.002	0.100
196.200	55.848	0.100
196.300	62.130	0.100
196.400	68.833	0.100
196.500	62.249	0.100
196.600	67.275	0.100
196.700	64.913	0.100
196.800	59.290	0.100
196.900	59.983	0.100
197.000	73.602	0.100
197.100	61.239	0.100
197.200	68.155	0.100
197.300	66.035	0.100
197.400	73.078	0.100
197.500	49.632	0.100
197.600	62.697	0.100
197.700	63.055	0.100
197.800	63.351	0.100
197.900	68.586	0.100
198.000	60.632	0.100
198.100	76.267	0.100
198.200	60.846	0.100
198.300	58.809	0.100
198.400	62.472	0.100
198.500	50.022	0.100
198.600	58.367	0.100
198.700	75.213	0.100
198.800	63.057	0.100
198.900	64.050	0.100
199.000	70.280	0.100
199.100	58.842	0.100
199.200	69.080	0.100
199.300	72.215	0.100
199.400	64.543	0.100
199.500	67.385	0.100
199.600	59.991	0.100
199.700	57.538	0.100
199.800	58.847	0.100
199.900	54.494	0.100
200.000	59.241	0.100
200.100	73.074	0.100
200.200	75.568	0.100
200.300	55.226	0.100
200.400	64.455	0.100
200.500	50.436	0.100
200.600	68.757	0.100
200.700	63.615	0.100
200.800	69.867	0.100
200.900	75.098	0.100
201.000	65.255	0.100
201.100	71.913	0.100
201.200	61.324	0.100
201.300	68.305	0.100
201.400	74.310	0.100
201.500	67.365	0.100
201.600	66.335	0.100
201.700	67.966	0.100
201.800	72.870	0.100
201.900	67.935	0.100
202.000	47.872	0.100
202.100	70.388	0.100
202.200	59.649	0.100
202.300	80.644	0.100
202.400	58.261	0.100
202.500	63.005	0.100
202.600	76.795	0.100
202.700	47.636	0.100
202.800	64.947	0.100
202.900	73.173	0.100
203.000	65.261	0.100
203.100	64.101	0.100
203.200	69.534	0.100
203.300	75.070	0.100
203.400	70.986	0.100
203.500	62.848	0.100
203.600	78.441	0.100
203.700	78.215	0.100
203.800	56.139	0.100
203.900	63.404	0.100
204.000	64.023	0.100
204.100	82.717	0.100
204.200	69.016	0.100
204.300	65.385	0.100
204.400	56.210	0.100
204.500	69.972	0.100
204.600	59.004	0.100
204.700	74.619	0.100
204.800	67.183	0.100
204.900	70.923	0.100
205.000	65.035	0.100
205.100	77.899	0.100
205.200	76.283	0.100
205.300	77.143	0.100
205.400	62.681	0.100
205.500	66.693	0.100
205.600	68.904	0.100
205.700	61.557	0.100
205.800	79.814	0.100
205.900	75.435	0.099
206.000	67.168	0.099
206.100	65.057	0.099
206.200	68.384	0.099
206.300	66.873	0.099
206.400	69.236	0.099
206.500	70.220	0.099
206.600	66.298	0.099
206.700	63.726	0.099
206.800	58.885	0.099
206.900	71.449	0.099
207.000	82.715	0.099
207.100	76.604	0.099
207.200	58.943	0.099
207.300	63.550	0.099
207.400	63.945	0.099
207.500	78.760	0.099
207.600	54.754	0.099
207.700	79.836	0.099
207.800	80.855	0.099
207.900	93.928	0.099
208.000	70.510	0.099
208.100	61.775	0.099
208.200	70.316	0.099
208.300	79.780	0.099
208.400	59.462	0.099
208.500	71.081	0.099
208.600	66.209	0.099
208.700	66.097	0.099
208.800	65.732	0.099
208.900	72.383	0.099
209.000	58.359	0.099
209.100	72.748	0.099
209.200	63.357	0.099
209.300	95.053	0.099
209.400	71.337	0.099
209.500	70.044	0.099
209.600	64.675	0.099
209.700	77.566	0.099
209.800	68.147	0.099
209.900	73.911	0.099
210.000	81.147	0.099
210.100	65.212	0.099
210.200	58.566	0.099
210.300	69.280	0.099
210.400	66.790	0.099
210.500	70.084	0.099
210.600	64.165	0.099
210.700	71.147	0.099
210.800	75.242	0.099
210.900	78.611	0.099
211.000	70.392	0.099
211.100	70.148	0.099
211.200	71.764	0.099
211.300	87.127	0.099
211.400	93.389	0.099
211.500	72.274	0.099
211.600	75.331	0.099
211.700	66.264	0.099
211.800	76.352	0.099
211.900	64.527	0.099
212.000	63.646	0.099
212.100	75.432	0.099
212.200	67.828	0.099
212.300	64.388	0.099
212.400	69.669	0.099
212.500	71.928	0.099
212.600	68.010	0.099
212.700	74.074	0.099
212.800	63.325	0.099
212.900	87.322	0.099
213.000	80.614	0.099
213.100	74.881	0.099
213.200	74.931	0.099
213.300	90.812	0.099
213.400	65.522	0.099
213.500	69.509	0.099
213.600	67.862	0.099
213.700	62.004	0.099
213.800	76.516	0.099
213.900	66.772	0.099
214.000	64.095	0.099
214.100	75.886	0.099
214.200	84.704	0.099
214.300	69.123	0.099
214.400	73.875	0.099
214.500	71.423	0.099
214.600	75.154	0.099
214.700	79.711	0.099
214.800	78.995	0.099
214.900	75.591	0.099
215.000	81.387	0.099
215.100	70.763	0.099
215.200	67.709	0.099
215.300	79.421	0.099
215.400	75.630	0.099
215.500	86.625	0.099
215.600	87.484	0.099
215.700	63.259	0.099
215.800	59.798	0.099
215.900	68.049	0.099
216.000	72.356	0.099
216.100	81.401	0.099
216.200	89.401	0.099
216.300	76.378	0.099
216.400	73.849	0.099
216.500	53.205	0.099
216.600	70.286	0.099
216.700	81.875	0.099
216.800	73.167	0.099
216.900	61.534	0.099
217.000	89.146	0.099
217.100	79.169	0.099
217.200	76.135	0.099
217.300	59.021	0.099
217.400	65.353	0.099
217.500	75.359	0.099
217.600	86.136	0.099
217.700	76.607	0.099
217.800	71.554	0.099
217.900	82.765	0.099
218.000	66.591	0.099
218.100	71.110	0.099
218.200	87.682	0.099
218.300	80.690	0.099
218.400	75.867	0.099
218.500	66.207	0.099
218.600	70.296	0.099
218.700	64.590	0.099
218.800	53.050	0.099
218.900	74.597	0.099
219.000	81.565	0.099
219.100	79.665	0.099
219.200	61.554	0.099
219.300	76.459	0.099
219.400	73.238	0.099
219.500	70.178	0.099
219.600	66.987	0.099
219.700	61.751	0.099
219.800	80.878	0.099
219.900	76.147	0.099
220.000	80.195	0.099
220.100	76.021	0.099
220.200	77.158	0.099
220.300	68.208	0.099
220.400	56.829	0.099
220.500	89.734	0.099
220.600	78.129	0.099
220.700	73.694	0.099
220.800	83.265	0.099
220.900	66.590	0.099
221.000	78.672	0.099
221.100	85.357	0.099
221.200	66.163	0.099
221.300	73.709	0.099
221.400	72.025	0.099
221.500	71.128	0.099
221.600	71.704	0.099
221.700	63.263	0.099
221.800	74.541	0.099
221.900	72.085	0.099
222.000	71.324	0.099
222.100	85.312	0.099
222.200	67.279	0.099
222.300	69.299	0.099
222.400	75.342	0.099
222.500	81.300	0.099
222.600	67.135	0.100
222.700	78.035	0.100
222.800	83.526	0.100
222.900	70.792	0.100
223.000	70.273	0.100
223.100	78.081	0.100
223.200	62.470	0.100
223.300	67.323	0.100
223.400	77.039	0.100
223.500	73.663	0.100
223.600	80.077	0.100
223.700	75.389	0.100
223.800	73.238	0.100
223.900	74.874	0.100
224.000	75.443	0.100
224.100	58.264	0.100
224.200	77.930	0.100
224.300	78.316	0.100
224.400	61.575	0.100
224.500	70.100	0.100
224.600	74.462	0.100
224.700	94.432	0.100
224.800	70.033	0.100
224.900	69.401	0.100
225.000	73.235	0.100
225.100	76.934	0.100
225.200	72.695	0.100
225.300	79.009	0.100
225.400	62.908	0.100
225.500	64.015	0.100
225.600	84.568	0.100
225.700	71.225	0.100
225.800	69.881	0.100
225.900	82.933	0.100
226.000	74.223	0.100
226.100	73.994	0.100
226.200	66.658	0.100
226.300	71.942	0.100
226.400	78.003	0.100
226.500	80.845	0.100
226.600	64.819	0.100
226.700	79.098	0.100
226.800	78.368	0.100
226.900	89.564	0.100
227.000	73.166	0.100
227.100	69.172	0.100
227.200	64.073	0.100
227.300	72.228	0.100
227.400	70.277	0.100
227.500	76.049	0.100
227.600	64.497	0.100
227.700	82.974	0.100
227.800	71.186	0.100
227.900	70.622	0.100
228.000	76.394	0.100
228.100	69.783	0.100
228.200	75.073	0.100
228.300	72.372	0.100
228.400	75.213	0.100
228.500	68.953	0.100
228.600	72.367	0.100
228.700	67.517	0.100
228.800	73.511	0.100
228.900	74.470	0.100
229.000	80.308	0.100
229.100	66.699	0.100
229.200	66.584	0.100
229.300	72.247	0.100
229.400	65.786	0.100
229.500	63.347	0.100
229.600	75.104	0.100
229.700	76.591	0.100
229.800	81.895	0.100
229.900	70.061	0.100
230.000	70.612	0.100
230.100	68.804	0.100
230.200	88.701	0.100
230.300	58.485	0.100
230.400	71.283	0.100
230.500	64.504	0.100
230.600	83.544	0.100
230.700	78.021	0.100
230.800	68.684	0.100
230.900	77.022	0.100
231.000	70.903	0.100
231.100	82.111	0.100
231.200	60.722	0.100
231.300	70.928	0.100
231.400	66.610	0.100
231.500	84.502	0.100
231.600	75.214	0.100
231.700	61.794	0.100
231.800	62.021	0.100
231.900	71.424	0.100
232.000	72.314	0.100
232.100	78.161	0.100
232.200	73.150	0.100
232.300	71.474	0.100
232.400	74.229	0.100
232.500	77.035	0.100
232.600	56.561	0.100
232.700	73.269	0.100
232.800	78.899	0.100
232.900	68.999	0.100
233.000	75.855	0.100
233.100	72.791	0.100
233.200	74.245	0.100
233.300	63.292	0.100
233.400	75.607	0.100
233.500	74.939	0.100
233.600	71.410	0.100
233.700	61.461	0.100
233.800	67.365	0.100
233.900	77.020	0.100
234.000	71.959	0.100
234.100	73.327	0.100
234.200	75.729	0.100
234.300	63.923	0.100
234.400	65.988	0.100
234.500	80.716	0.100
234.600	78.118	0.100
234.700	76.191	0.100
234.800	67.122	0.100
234.900	73.703	0.100
235.000	75.395	0.100
235.100	66.364	0.100
235.200	73.692	0.100
235.300	69.886	0.100
235.400	69.468	0.100
235.500	68.494	0.100
235.600	72.320	0.100
235.700	63.342	0.100
235.800	60.362	0.100
235.900	76.064	0.100
236.000	79.075	0.100
236.100	77.865	0.100
236.200	68.677	0.100
236.300	67.898	0.100
236.400	80.335	0.100
236.500	66.281	0.100
236.600	68.500	0.100
236.700	65.734	0.100
236.800	67.955	0.100
236.900	68.628	0.100
237.000	72.858	0.100
237.100	66.879	0.100
237.200	73.240	0.100
237.300	69.037	0.100
237.400	71.587	0.100
237.500	67.783	0.100
237.600	81.894	0.100
237.700	66.391	0.100
237.800	69.500	0.100
237.900	70.365	0.100
238.000	56.692	0.100
238.100	59.099	0.100
238.200	72.830	0.100
238.300	59.016	0.100
238.400	74.707	0.100
238.500	70.524	0.100
238.600	70.021	0.100
238.700	73.458	0.100
238.800	66.403	0.100
238.900	72.978	0.100
239.000	78.382	0.100
239.100	59.918	0.100
239.200	76.426	0.100
239.300	73.278	0.100
239.400	78.058	0.100
239.500	62.020	0.100
239.600	66.110	0.100
239.700	66.779	0.100
239.800	65.844	0.100
239.900	67.329	0.100
240.000	75.052	0.100
240.100	70.536	0.100
240.200	50.198	0.100
240.300	48.799	0.100
240.400	40.067	0.100
240.500	26.956	0.100
240.600	21.916	0.100
240.700	3.358	0.100
240.800	7.412	0.100
240.900	-27.062	0.100
241.000	-21.669	0.100
241.100	-31.182	0.100
241.200	-32.944	0.100
241.300	-35.530	0.100
241.400	-40.849	0.100
241.500	-49.434	0.100
241.600	-55.096	0.100
241.700	-67.379	0.100
241.800	-70.053	0.100
241.900	-67.933	0.100
242.000	-60.246	0.100
242.100	-74.710	0.100
242.200	-82.784	0.100
242.300	-91.143	0.100
242.400	-100.282	0.100
242.500	-87.767	0.100
242.600	-92.593	0.100
242.700	-92.667	0.100
242.800	-75.469	0.100
242.900	-93.298	0.100
243.000	-96.242	0.100
243.100	-83.361	0.100
243.200	-94.371	0.100
243.300	-95.305	0.100
243.400	-88.663	0.100
243.500	-87.437	0.100
243.600	-95.794	0.100
243.700	-93.383	0.100
243.800	-101.260	0.100
243.900	-88.872	0.100
244.000	-92.979	0.100
244.100	-103.486	0.100
244.200	-89.339	0.100
244.300	-87.693	0.100
244.400	-97.718	0.100
244.500	-88.673	0.100
244.600	-93.749	0.100
244.700	-92.598	0.100
244.800	-87.522	0.100
244.900	-111.061	0.100
245.000	-87.505	0.100
245.100	-87.301	0.100
245.200	-68.332	0.100
245.300	-79.296	0.100
245.400	-91.930	0.100
245.500	-82.673	0.100
245.600	-81.917	0.100
245.700	-81.601	0.100
245.800	-78.734	0.100
245.900	-77.545	0.100
246.000	-74.302	0.100
246.100	-81.046	0.100
246.200	-73.844	0.100
246.300	-68.149	0.100
246.400	-78.856	0.100
246.500	-74.590	0.100
246.600	-75.853	0.100
246.700	-74.688	0.100
246.800	-70.712	0.100
246.900	-71.081	0.100
247.000	-71.740	0.100
247.100	-68.726	0.100
247.200	-76.420	0.100
247.300	-62.998	0.100
247.400	-70.196	0.100
247.500	-70.038	0.100
247.600	-60.180	0.100
247.700	-58.062	0.100
247.800	-68.544	0.100
247.900	-60.870	0.100
248.000	-55.621	0.100
248.100	-48.699	0.100
248.200	-62.755	0.100
248.300	-50.917	0.100
248.400	-57.828	0.100
248.500	-61.344	0.100
248.600	-60.678	0.100
248.700	-58.427	0.100
248.800	-51.356	0.100
248.900	-60.769	0.100
249.000	-53.222	0.100
249.100	-59.914	0.100
249.200	-58.616	0.100
249.300	-60.031	0.100
249.400	-48.421	0.100
249.500	-51.610	0.100
249.600	-56.439	0.100
249.700	-39.423	0.100
249.800	-50.571	0.100
249.900	-50.433	0.099
250.000	-66.227	0.100
250.100	-40.781	0.100
250.200	-42.605	0.100
250.300	-44.347	0.100
250.400	-43.974	0.100
250.500	-44.134	0.100
250.600	-58.374	0.100
250.700	-46.938	0.100
250.800	-42.838	0.100
250.900	-49.608	0.100
251.000	-45.795	0.100
251.100	-51.254	0.100
251.200	-45.926	0.100
251.300	-36.049	0.100
251.400	-49.605	0.100
251.500	-33.034	0.100
251.600	-40.613	0.100
251.700	-35.992	0.100
251.800	-35.214	0.100
251.900	-38.218	0.100
252.000	-59.359	0.100
252.100	-37.648	0.100
252.200	-41.317	0.100
252.300	-51.910	0.100
252.400	-36.573	0.100
252.500	-32.640	0.100
252.600	-39.470	0.100
252.700	-41.295	0.100
252.800	-38.073	0.100
252.900	-50.217	0.100
253.000	-36.062	0.100
253.100	-30.650	0.100
253.200	-42.395	0.100
253.300	-44.571	0.100
253.400	-39.247	0.100
253.500	-44.143	0.100
253.600	-42.709	0.100
253.700	-37.390	0.100
253.800	-58.120	0.100
253.900	-37.240	0.100
254.000	-29.864	0.100
254.100	-53.404	0.100
254.200	-41.567	0.100
254.300	-36.235	0.100
254.400	-31.265	0.100
254.500	-40.546	0.100
254.600	-27.684	0.100
254.700	-39.220	0.100
254.800	-45.466	0.100
254.900	-37.514	0.100
255.000	-35.912	0.100
255.100	-36.109	0.100
255.200	-29.954	0.100
255.300	-39.483	0.100
255.400	-33.441	0.100
255.500	-43.253	0.100
255.600	-31.690	0.100
255.700	-38.103	0.100
255.800	-42.863	0.100
255.900	-42.259	0.100
256.000	-24.263	0.100
256.100	-43.242	0.100
256.200	-41.832	0.100
256.300	-32.995	0.100
256.400	-34.538	0.100
256.500	-28.839	0.100
256.600	-35.703	0.100
256.700	-34.409	0.100
256.800	-40.413	0.100
256.900	-36.723	0.100
257.000	-48.509	0.100
257.100	-39.701	0.100
257.200	-36.366	0.100
257.300	-36.573	0.100
257.400	-40.957	0.100
257.500	-28.253	0.100
257.600	-30.481	0.100
257.700	-43.017	0.100
257.800	-33.323	0.100
257.900	-34.318	0.100
258.000	-31.946	0.100
258.100	-28.681	0.100
258.200	-27.163	0.100
258.300	-37.290	0.100
258.400	-19.776	0.100
258.500	-31.691	0.100
258.600	-36.678	0.100
258.700	-40.967	0.100
258.800	-23.761	0.100
258.900	-26.253	0.100
259.000	-41.832	0.100
259.100	-43.252	0.100
259.200	-19.544	0.100
259.300	-29.822	0.100
259.400	-34.082	0.100
259.500	-31.392	0.100
259.600	-34.042	0.100
259.700	-42.648	0.100
259.800	-34.312	0.100
259.900	-41.367	0.100
260.000	-24.823	0.100
260.100	-22.980	0.100
260.200	-33.906	0.100
260.300	-36.481	0.100
260.400	-40.351	0.100
260.500	-29.973	0.100
260.600	-29.013	0.100
260.700	-34.265	0.100
260.800	-39.321	0.100
260.900	-25.519	0.100
261.000	-43.308	0.100
261.100	-28.636	0.100
261.200	-30.033	0.100
261.300	-23.320	0.100
261.400	-35.626	0.100
261.500	-25.327	0.100
261.600	-30.155	0.100
261.700	-26.974	0.100
261.800	-56.436	0.100
261.900	-31.601	0.100
262.000	-31.407	0.100
262.100	-33.396	0.100
262.200	-34.291	0.100
262.300	-25.771	0.100
262.400	-24.891	0.100
262.500	-27.816	0.100
262.600	-30.955	0.100
262.700	-33.825	0.100
262.800	-29.062	0.100
262.900	-34.062	0.100
263.000	-18.334	0.100
263.100	-26.312	0.100
263.200	-25.845	0.100
263.300	-28.585	0.100
263.400	-34.248	0.100
263.500	-37.871	0.100
263.600	-28.008	0.100
263.700	-41.390	0.100
263.800	-13.786	0.100
263.900	-35.277	0.100
264.000	-21.915	0.100
264.100	-26.372	0.100
264.200	-32.415	0.100
264.300	-18.319	0.100
264.400	-23.583	0.100
264.500	-32.035	0.100
264.600	-31.891	0.100
264.700	-22.425	0.100
264.800	-28.171	0.100
264.900	-28.236	0.100
265.000	-32.114	0.100
265.100	-28.208	0.100
265.200	-28.308	0.100
265.300	-20.629	0.100
265.400	-18.414	0.100
265.500	-22.466	0.100
265.600	-30.271	0.100
265.700	-25.527	0.100
265.800	-36.859	0.100
265.900	-16.019	0.100
266.000	-27.740	0.100
266.100	-35.436	0.100
266.200	-32.576	0.100
266.300	-18.889	0.100
266.400	-26.609	0.100
266.500	-28.281	0.100
266.600	-34.733	0.100
266.700	-27.692	0.100
266.800	-22.403	0.100
266.900	-28.821	0.100
267.000	-28.386	0.100
267.100	-30.153	0.100
267.200	-9.924	0.100
267.300	-26.766	0.100
267.400	-35.701	0.100
267.500	-17.937	0.100
267.600	-20.291	0.100
267.700	-20.781	0.100
267.800	-40.960	0.100
267.900	-32.388	0.100
268.000	-24.890	0.100
268.100	-15.768	0.100
268.200	-28.462	0.100
268.300	-24.994	0.100
268.400	-29.906	0.100
268.500	-26.879	0.100
268.600	-28.647	0.100
268.700	-23.501	0.100
268.800	-22.240	0.100
268.900	-24.366	0.100
269.000	-15.920	0.100
269.100	-26.887	0.100
269.200	-21.396	0.100
269.300	-23.673	0.100
269.400	-20.499	0.100
269.500	-18.231	0.100
269.600	-33.397	0.100
269.700	-28.904	0.100
269.800	-25.059	0.100
269.900	-20.642	0.100
270.000	-33.982	0.100
270.100	-19.524	0.100
270.200	-22.955	0.100
270.300	-41.393	0.100
270.400	-41.646	0.100
270.500	-21.585	0.100
270.600	-12.770	0.100
270.700	-31.711	0.100
270.800	-41.557	0.100
270.900	-27.300	0.100
271.000	-29.642	0.100
271.100	-22.150	0.100
271.200	-22.185	0.100
271.300	-22.386	0.100
271.400	-22.782	0.100
271.500	-25.316	0.100
271.600	-24.969	0.100
271.700	-23.938	0.100
271.800	-30.845	0.100
271.900	-24.724	0.100
272.000	-13.523	0.100
272.100	-24.397	0.100
272.200	-25.379	0.100
272.300	-12.951	0.100
272.400	-27.020	0.100
272.500	-27.560	0.100
272.600	-24.333	0.100
272.700	-13.886	0.100
272.800	-34.150	0.100
272.900	-22.172	0.100
273.000	-25.188	0.100
273.100	-30.502	0.100
273.200	-16.126	0.100
273.300	-23.464	0.100
273.400	-22.671	0.100
273.500	-23.304	0.100
273.600	-26.538	0.100
273.700	-46.902	0.100
273.800	-37.739	0.100
273.900	-19.789	0.100
274.000	-18.987	0.100
274.100	-11.805	0.100
274.200	-20.343	0.100
274.300	-19.807	0.100
274.400	-23.278	0.100
274.500	-37.125	0.100
274.600	-14.700	0.100
274.700	-19.863	0.100
274.800	-17.563	0.100
274.900	-18.909	0.100
275.000	-17.002	0.100
275.100	-33.296	0.100
275.200	-23.142	0.100
275.300	-12.045	0.100
275.400	-31.664	0.100
275.500	-23.535	0.100
275.600	-10.688	0.100
275.700	-31.824	0.100
275.800	-26.073	0.100
275.900	-23.569	0.100
276.000	-25.280	0.100
276.100	-27.011	0.100
276.200	-24.399	0.100
276.300	-34.381	0.100
276.400	-30.990	0.100
276.500	-5.521	0.100
276.600	-20.846	0.100
276.700	-33.549	0.100
276.800	-22.393	0.100
276.900	-22.011	0.100
277.000	-20.368	0.100
277.100	-17.486	0.100
277.200	-18.943	0.100
277.300	-29.088	0.100
277.400	-21.550	0.100
277.500	-22.053	0.100
277.600	-23.197	0.100
277.700	-28.467	0.100
277.800	-18.692	0.100
277.900	-36.686	0.100
278.000	-27.067	0.100
278.100	-15.054	0.100
278.200	-32.255	0.100
278.300	-14.754	0.100
278.400	-29.416	0.100
278.500	-13.649	0.100
278.600	-16.415	0.100
278.700	-24.736	0.100
278.800	-18.955	0.100
278.900	-26.023	0.100
279.000	-31.686	0.100
279.100	-26.721	0.100
279.200	-24.839	0.100
279.300	-22.906	0.100
279.400	-34.145	0.100
279.500	-30.313	0.100
279.600	-11.245	0.100
279.700	-18.722	0.100
279.800	-28.535	0.100
279.900	-14.744	0.100
280.000	-36.018	0.100
280.100	-25.090	0.100
280.200	-20.456	0.100
280.300	-20.240	0.100
280.400	-25.376	0.100
280.500	-23.393	0.100
280.600	-17.591	0.100
280.700	-25.482	0.100
280.800	-13.448	0.100
280.900	-28.445	0.100
281.000	-26.110	0.100
281.100	-9.204	0.100
281.200	-16.386	0.100
281.300	-16.273	0.100
281.400	-22.755	0.100
281.500	-27.838	0.100
281.600	-20.220	0.100
281.700	-17.873	0.100
281.800	-30.912	0.100
281.900	-19.338	0.100
282.000	-17.696	0.100
282.100	-29.058	0.100
282.200	-24.333	0.100
282.300	-20.671	0.100
282.400	-16.698	0.100
282.500	-14.211	0.100
282.600	-17.736	0.100
282.700	-32.147	0.100
282.800	-25.096	0.100
282.900	-16.171	0.100
283.000	-26.728	0.100
283.100	-25.615	0.100
283.200	-22.708	0.100
283.300	-9.606	0.100
283.400	-17.730	0.100
283.500	-8.460	0.100
283.600	-20.967	0.100
283.700	-25.041	0.100
283.800	-20.646	0.100
283.900	-18.157	0.100
284.000	-10.445	0.100
284.100	-16.677	0.100
284.200	-14.007	0.100
284.300	-20.538	0.100
284.400	-22.009	0.100
284.500	-15.227	0.100
284.600	-18.484	0.100
284.700	-31.993	0.100
284.800	-18.418	0.100
284.900	-28.867	0.100
285.000	-28.596	0.100
285.100	-3.366	0.100
285.200	-15.871	0.100
285.300	-28.564	0.100
285.400	-22.890	0.100
285.500	-27.573	0.100
285.600	-23.362	0.100
285.700	-29.332	0.100
285.800	-29.873	0.100
285.900	-17.654	0.100
286.000	-8.203	0.100
286.100	-8.900	0.100
286.200	-22.849	0.100
286.300	-12.409	0.100
286.400	-16.593	0.100
286.500	-12.952	0.100
286.600	-18.852	0.100
286.700	-34.086	0.100
286.800	-21.787	0.100
286.900	-18.945	0.100
287.000	-34.088	0.100
287.100	-13.813	0.100
287.200	-10.490	0.100
287.300	-33.310	0.100
287.400	-25.925	0.100
287.500	-25.340	0.100
287.600	-25.936	0.100
287.700	-25.641	0.100
287.800	-8.023	0.100
287.900	-10.646	0.100
288.000	-17.364	0.100
288.100	-23.421	0.100
288.200	-15.299	0.100
288.300	-22.327	0.100
288.400	-11.391	0.100
288.500	-26.032	0.100
288.600	-13.916	0.100
288.700	-19.611	0.100
288.800	-20.265	0.100
288.900	-15.313	0.100
289.000	-18.837	0.100
289.100	-22.767	0.100
289.200	-33.124	0.100
289.300	-12.151	0.100
289.400	-10.682	0.100
289.500	-28.489	0.100
289.600	-10.321	0.100
289.700	-21.081	0.100
289.800	-24.432	0.100
289.900	-25.086	0.100
290.000	-11.295	0.100
290.100	-19.680	0.100
290.200	-20.156	0.100
290.300	-28.754	0.100
290.400	-8.786	0.100
290.500	-31.025	0.100
290.600	-32.417	0.100
290.700	-26.298	0.100
290.800	-8.460	0.100
290.900	-14.121	0.100
291.000	-24.969	0.100
291.100	-23.064	0.100
291.200	-20.199	0.100
291.300	-21.659	0.100
291.400	-17.015	0.100
291.500	-24.736	0.100
291.600	-23.856	0.100
291.700	-17.090	0.100
291.800	-19.739	0.100
291.900	-10.293	0.100
292.000	-26.428	0.100
292.100	-32.275	0.100
292.200	-11.739	0.100
292.300	-9.477	0.100
292.400	-11.089	0.100
292.500	-28.693	0.100
292.600	-28.488	0.100
292.700	-11.444	0.100
292.800	-9.919	0.100
292.900	-19.515	0.100
293.000	-18.789	0.100
293.100	-19.316	0.100
293.200	-18.971	0.100
293.300	-24.821	0.100
293.400	-17.064	0.100
293.500	-23.016	0.100
293.600	-11.899	0.100
293.700	-12.452	0.100
293.800	-22.060	0.100
293.900	-23.535	0.100
294.000	-28.085	0.100
294.100	-25.871	0.100
294.200	-21.012	0.100
294.300	-31.175	0.100
294.400	-24.052	0.100
294.500	-15.328	0.100
294.600	-14.068	0.100
294.700	-13.071	0.100
294.800	-13.727	0.100
294.900	-17.169	0.100
295.000	-16.650	0.100
295.100	-13.652	0.100
295.200	-12.715	0.100
295.300	-8.325	0.100
295.400	-14.053	0.100
295.500	-19.728	0.100
295.600	-12.164	0.100
295.700	-19.492	0.100
295.800	-28.625	0.100
295.900	-27.533	0.100
296.000	-22.803	0.100
296.100	-11.145	0.100
296.200	-22.152	0.100
296.300	-19.013	0.100
296.400	-10.528	0.100
296.500	-22.492	0.100
296.600	-23.541	0.100
296.700	-23.027	0.100
296.800	-19.880	0.100
296.900	-20.055	0.100
297.000	-24.955	0.100
297.100	-17.439	0.100
297.200	-27.173	0.100
297.300	-1.793	0.100
297.400	-11.246	0.100
297.500	-11.851	0.100
297.600	-13.076	0.100
297.700	-11.258	0.100
297.800	-28.657	0.100
297.900	-16.274	0.100
298.000	-20.681	0.100
298.100	-19.782	0.100
298.200	-31.629	0.100
298.300	-19.625	0.100
298.400	-22.418	0.100
298.500	-18.050	0.100
298.600	-10.066	0.100
298.700	-15.430	0.100
298.800	-27.055	0.100
298.900	-14.786	0.100
299.000	-6.448	0.100
299.100	-22.825	0.100
299.200	-12.478	0.100
299.300	-26.509	0.100
299.400	-20.220	0.100
299.500	-23.562	0.100
299.600	-26.643	0.100
299.700	-9.046	0.100
299.800	-5.158	0.100
299.900	-15.922	0.100
300.000	-20.976	0.100
300.100	-21.579	0.100
300.200	-18.414	0.100
300.300	-19.399	0.100
300.400	-5.383	0.100
300.500	-19.177	0.100
300.600	-21.478	0.100
300.700	-21.345	0.100
300.800	-20.679	0.100
300.900	-22.736	0.100
301.000	-11.545	0.100
301.100	-23.379	0.100
301.200	-17.334	0.100
301.300	-21.284	0.100
301.400	-28.198	0.100
301.500	-10.027	0.100
301.600	-24.280	0.100
301.700	-7.128	0.100
301.800	-10.508	0.100
301.900	-22.626	0.100
302.000	-21.795	0.100
302.100	-17.335	0.100
302.200	-20.861	0.100
302.300	-25.186	0.100
302.400	-12.400	0.100
302.500	-25.453	0.100
302.600	-17.445	0.100
302.700	-15.709	0.100
302.800	-19.848	0.100
302.900	-16.958	0.100
303.000	-22.827	0.100
303.100	-33.381	0.100
303.200	-18.466	0.100
303.300	-12.299	0.100
303.400	-14.949	0.100
303.500	-18.710	0.100
303.600	-15.698	0.100
303.700	-16.010	0.100
303.800	-13.015	0.100
303.900	-29.475	0.100
304.000	-25.918	0.100
304.100	-9.605	0.099
304.200	-15.172	0.099
304.300	-8.504	0.099
304.400	-5.406	0.099
304.500	-19.712	0.099
304.600	-19.175	0.099
304.700	-20.522	0.099
304.800	-22.526	0.099
304.900	-18.240	0.099
305.000	-22.312	0.099
305.100	-20.779	0.099
305.200	-12.689	0.099
305.300	-20.167	0.099
305.400	-7.622	0.099
305.500	-20.974	0.099
305.600	-16.285	0.099
305.700	-18.383	0.099
305.800	-23.039	0.099
305.900	-16.944	0.099
306.000	-8.464	0.099
306.100	-16.142	0.099
306.200	-22.510	0.099
306.300	-12.913	0.099
306.400	-10.420	0.099
306.500	-17.116	0.099
306.600	-24.948	0.099
306.700	-18.850	0.099
306.800	-17.099	0.099
306.900	-13.238	0.099
307.000	-27.951	0.099
307.100	-13.881	0.099
307.200	-15.674	0.099
307.300	-8.500	0.099
307.400	-10.081	0.099
307.500	-17.368	0.099
307.600	-25.533	0.099
307.700	-19.095	0.099
307.800	-11.962	0.099
307.900	-9.939	0.099
308.000	-26.350	0.099
308.100	-10.162	0.099
308.200	-21.779	0.099
308.300	-6.772	0.099
308.400	-23.174	0.099
308.500	-22.803	0.099
308.600	-5.084	0.099
308.700	-19.960	0.099
308.800	-6.233	0.099
308.900	-8.759	0.099
309.000	-16.489	0.099
309.100	-24.971	0.099
309.200	-14.639	0.099
309.300	-20.836	0.099
309.400	-13.530	0.099
309.500	-24.701	0.099
309.600	-16.902	0.099
309.700	-10.527	0.099
309.800	-21.369	0.099
309.900	-0.447	0.099
310.000	-12.411	0.099
310.100	-10.166	0.099
310.200	-22.390	0.099
310.300	-22.023	0.099
310.400	-15.644	0.099
310.500	-12.060	0.099
310.600	-7.203	0.099
310.700	-20.279	0.099
310.800	-23.769	0.099
310.900	-30.664	0.099
311.000	-16.992	0.099
311.100	-19.681	0.099
311.200	-20.416	0.099
311.300	-5.019	0.099
311.400	-13.390	0.099
311.500	-23.274	0.099
311.600	-15.269	0.099
311.700	-20.014	0.099
311.800	-16.948	0.099
311.900	-22.827	0.099
312.000	-9.530	0.099
312.100	-23.925	0.099
312.200	-12.960	0.099
312.300	-24.797	0.099
312.400	-5.211	0.099
312.500	-5.249	0.099
312.600	-15.992	0.099
312.700	-16.437	0.099
312.800	-22.459	0.099
312.900	-26.279	0.099
313.000	-18.444	0.099
313.100	-12.888	0.099
313.200	-11.718	0.099
313.300	-9.238	0.099
313.400	-14.811	0.099
313.500	-20.717	0.099
313.600	-21.312	0.099
313.700	-13.159	0.099
313.800	-14.389	0.099
313.900	-19.416	0.099
314.000	-16.710	0.099
314.100	-15.323	0.099
314.200	-20.627	0.099
314.300	-14.520	0.099
314.400	-23.140	0.099
314.500	-15.621	0.099
314.600	-20.626	0.099
314.700	-10.212	0.099
314.800	-15.780	0.099
314.900	-16.305	0.099
315.000	-26.857	0.099
315.100	-22.507	0.099
315.200	-10.924	0.099
315.300	-4.030	0.099
315.400	-23.483	0.099
315.500	-14.104	0.099
315.600	-11.641	0.099
315.700	-18.146	0.099
315.800	-21.172	0.099
315.900	-14.578	0.099
316.000	-6.693	0.099
316.100	-4.369	0.099
316.200	-32.856	0.099
316.300	-22.803	0.099
316.400	-26.423	0.099
316.500	-18.743	0.099
316.600	-13.245	0.099
316.700	-6.572	0.099
316.800	-15.836	0.099
316.900	-18.433	0.099
317.000	-12.499	0.099
317.100	-14.288	0.099
317.200	-23.052	0.099
317.300	-17.841	0.099
317.400	-15.509	0.099
317.500	-5.145	0.099
317.600	-20.986	0.099
317.700	-16.638	0.099
317.800	-8.182	0.099
317.900	-21.050	0.099
318.000	-25.953	0.099
318.100	-8.156	0.099
318.200	-25.958	0.099
318.300	-14.793	0.099
318.400	-15.016	0.099
318.500	-18.095	0.099
318.600	-13.735	0.099
318.700	-11.430	0.099
318.800	-10.205	0.099
318.900	-17.313	0.099
319.000	-18.706	0.099
319.100	-24.706	0.099
319.200	-22.248	0.099
319.300	-14.220	0.099
319.400	-19.609	0.099
319.500	-32.036	0.099
319.600	-19.807	0.099
319.700	-6.822	0.099
319.800	-3.325	0.099
319.900	-29.019	0.100
320.000	-19.579	0.099
320.100	-6.119	0.099
320.200	-12.497	0.099
320.300	-7.140	0.099
320.400	-17.528	0.100
320.500	-10.582	0.100
320.600	-18.527	0.100
320.700	-14.791	0.100
320.800	-9.278	0.100
320.900	-18.034	0.100
321.000	-13.557	0.100
321.100	-3.883	0.100
321.200	-18.860	0.100
321.300	-14.850	0.100
321.400	-28.523	0.100
321.500	-9.991	0.100
321.600	-19.875	0.100
321.700	-13.117	0.100
321.800	-11.911	0.100
321.900	-15.606	0.100
322.000	-24.350	0.100
322.100	-17.821	0.100
322.200	-14.599	0.100
322.300	-12.849	0.100
322.400	-21.355	0.100
322.500	0.585	0.100
322.600	-3.191	0.100
322.700	-14.675	0.100
322.800	-15.975	0.100
322.900	-5.232	0.100
323.000	-13.722	0.100
323.100	-12.028	0.100
323.200	-18.308	0.100
323.300	-13.925	0.100
323.400	-14.811	0.100
323.500	-17.617	0.100
323.600	-23.868	0.100
323.700	-12.188	0.100
323.800	-13.237	0.100
323.900	-24.520	0.100
324.000	-8.415	0.100
324.100	-16.924	0.100
324.200	-20.290	0.100
324.300	-18.382	0.100
324.400	-6.924	0.100
324.500	-18.558	0.100
324.600	-13.105	0.100
324.700	-22.265	0.100
324.800	-6.935	0.100
324.900	-22.911	0.100
325.000	-7.108	0.100
325.100	-21.213	0.100
325.200	-6.941	0.100
325.300	-6.161	0.100
325.400	-9.786	0.100
325.500	-14.801	0.100
325.600	1.922	0.100
325.700	-17.687	0.100
325.800	-16.300	0.100
325.900	-13.307	0.100
326.000	-18.323	0.100
326.100	-20.830	0.100
326.200	-12.316	0.100
326.300	-12.353	0.100
326.400	-12.012	0.100
326.500	-18.827	0.100
326.600	-6.902	0.100
326.700	-16.017	0.100
326.800	-14.848	0.100
326.900	-19.297	0.100
327.000	-17.396	0.100
327.100	-25.622	0.100
327.200	-13.923	0.100
327.300	-13.063	0.100
327.400	-3.260	0.100
327.500	-15.583	0.100
327.600	-17.594	0.100
327.700	-16.490	0.100
327.800	-0.987	0.100
327.900	-9.630	0.100
328.000	-6.374	0.100
328.100	-18.206	0.100
328.200	-16.558	0.100
328.300	-10.377	0.100
328.400	-15.951	0.100
328.500	-26.605	0.100
328.600	-6.097	0.100
328.700	-7.305	0.100
328.800	-17.694	0.100
328.900	-6.010	0.100
329.000	-10.181	0.100
329.100	-24.555	0.100
329.200	-21.638	0.100
329.300	-12.449	0.100
329.400	-3.497	0.100
329.500	-19.109	0.100
329.600	-20.216	0.100
329.700	-15.487	0.100
329.800	-11.874	0.100
329.900	-10.325	0.100
330.000	-15.082	0.100
330.100	-17.043	0.100
330.200	13.669	0.100
330.300	-4.287	0.100
330.400	8.682	0.100
330.500	11.174	0.100
330.600	17.271	0.100
330.700	13.201	0.100
330.800	11.239	0.100
330.900	26.701	0.100
331.000	43.113	0.100
331.100	24.905	0.100
331.200	29.785	0.100
331.300	38.670	0.100
331.400	19.031	0.100
331.500	29.281	0.100
331.600	42.112	0.100
331.700	46.325	0.100
331.800	43.453	0.100
331.900	37.420	0.100
332.000	31.413	0.100
332.100	36.016	0.100
332.200	32.667	0.100
332.300	35.059	0.100
332.400	35.705	0.100
332.500	31.968	0.100
332.600	32.485	0.100
332.700	38.384	0.100
332.800	34.721	0.100
332.900	25.682	0.100
333.000	27.491	0.100
333.100	40.263	0.100
333.200	22.024	0.100
333.300	35.193	0.100
333.400	22.180	0.100
333.500	20.593	0.100
333.600	24.580	0.100
333.700	14.351	0.100
333.800	24.403	0.100
333.900	20.219	0.100
334.000	23.818	0.100
334.100	23.319	0.100
334.200	31.931	0.100
334.300	26.422	0.100
334.400	20.281	0.100
334.500	17.645	0.100
334.600	24.651	0.100
334.700	19.260	0.100
334.800	10.375	0.100
334.900	21.568	0.100
335.000	16.885	0.100
335.100	21.418	0.100
335.200	23.653	0.100
335.300	17.638	0.100
335.400	12.239	0.100
335.500	25.215	0.100
335.600	32.542	0.100
335.700	15.533	0.100
335.800	19.825	0.100
335.900	25.674	0.100
336.000	23.115	0.100
336.100	20.965	0.100
336.200	21.274	0.100
336.300	26.975	0.100
336.400	21.001	0.100
336.500	15.818	0.100
336.600	23.779	0.100
336.700	36.489	0.100
336.800	27.083	0.100
336.900	20.499	0.100
337.000	20.770	0.100
337.100	29.451	0.100
337.200	25.749	0.100
337.300	8.266	0.100
337.400	13.891	0.100
337.500	16.882	0.100
337.600	22.075	0.100
337.700	31.889	0.100
337.800	12.336	0.100
337.900	12.381	0.100
338.000	15.317	0.100
338.100	40.478	0.100
338.200	23.034	0.100
338.300	18.872	0.100
338.400	15.962	0.100
338.500	28.505	0.100
338.600	31.837	0.100
338.700	12.427	0.100
338.800	35.386	0.100
338.900	26.442	0.100
339.000	20.458	0.100
339.100	17.287	0.100
339.200	28.512	0.100
339.300	33.210	0.100
339.400	22.986	0.100
339.500	21.740	0.100
339.600	37.867	0.100
339.700	29.099	0.100
339.800	32.994	0.100
339.900	23.455	0.100
340.000	24.941	0.100
340.100	28.911	0.100
340.200	32.921	0.100
340.300	38.465	0.100
340.400	22.909	0.100
340.500	29.973	0.100
340.600	26.492	0.100
340.700	28.148	0.100
340.800	29.348	0.100
340.900	31.478	0.100
341.000	41.476	0.100
341.100	39.523	0.100
341.200	37.490	0.100
341.300	41.207	0.100
341.400	37.002	0.100
341.500	35.506	0.100
341.600	32.515	0.100
341.700	29.395	0.100
341.800	31.416	0.100
341.900	49.147	0.100
342.000	34.377	0.100
342.100	33.786	0.100
342.200	23.403	0.100
342.300	49.373	0.100
342.400	47.968	0.100
342.500	32.308	0.100
342.600	38.469	0.100
342.700	39.254	0.100
342.800	32.808	0.100
342.900	50.284	0.100
343.000	34.292	0.100
343.100	42.700	0.100
343.200	64.999	0.100
343.300	47.211	0.100
343.400	44.386	0.100
343.500	38.748	0.100
343.600	32.021	0.100
343.700	59.544	0.100
343.800	46.455	0.100
343.900	52.822	0.100
344.000	50.344	0.100
344.100	53.655	0.100
344.200	42.436	0.100
344.300	37.391	0.100
344.400	55.737	0.100
344.500	57.552	0.100
344.600	43.797	0.100
344.700	50.220	0.100
344.800	53.959	0.100
344.900	48.234	0.100
345.000	41.715	0.100
345.100	47.453	0.100
345.200	43.410	0.100
345.300	56.928	0.100
345.400	57.323	0.100
345.500	58.146	0.100
345.600	46.982	0.100
345.700	51.769	0.100
345.800	45.524	0.100
345.900	57.619	0.100
346.000	61.390	0.100
346.100	67.709	0.100
346.200	48.689	0.100
346.300	59.238	0.100
346.400	60.641	0.100
346.500	49.431	0.100
346.600	41.576	0.100
346.700	56.064	0.100
346.800	50.557	0.100
346.900	61.250	0.100
347.000	62.427	0.100
347.100	57.685	0.100
347.200	60.182	0.100
347.300	60.194	0.100
347.400	50.976	0.100
347.500	69.417	0.100
347.600	48.076	0.100
347.700	56.024	0.100
347.800	59.279	0.100
347.900	60.450	0.100
348.000	65.042	0.100
348.100	46.092	0.100
348.200	68.768	0.100
348.300	56.956	0.100
348.400	53.843	0.100
348.500	64.092	0.100
348.600	47.387	0.100
348.700	45.483	0.100
348.800	58.912	0.100
348.900	56.840	0.100
349.000	62.637	0.100
349.100	49.742	0.100
349.200	51.551	0.100
349.300	60.629	0.100
349.400	65.586	0.100
349.500	66.232	0.100
349.600	58.515	0.100
349.700	54.011	0.100
349.800	67.046	0.100
349.900	51.631	0.100
350.000	62.798	0.100
350.100	64.997	0.100
350.200	61.705	0.100
350.300	58.063	0.100
350.400	69.704	0.100
350.500	70.006	0.100
350.600	58.557	0.100
350.700	67.936	0.100
350.800	66.506	0.100
350.900	56.537	0.100
351.000	63.890	0.100
351.100	64.562	0.100
351.200	69.751	0.100
351.300	61.989	0.100
351.400	66.706	0.100
351.500	73.016	0.100
351.600	64.944	0.100
351.700	63.135	0.100
351.800	63.609	0.100
351.900	50.221	0.100
352.000	72.158	0.100
352.100	60.170	0.100
352.200	62.136	0.100
352.300	74.007	0.100
352.400	71.768	0.100
352.500	67.851	0.100
352.600	68.583	0.100
352.700	63.921	0.100
352.800	65.767	0.100
352.900	52.700	0.100
353.000	62.124	0.100
353.100	59.088	0.100
353.200	75.186	0.100
353.300	80.633	0.100
353.400	59.619	0.100
353.500	60.352	0.100
353.600	73.895	0.100
353.700	66.675	0.100
353.800	70.622	0.100
353.900	48.189	0.100
354.000	63.741	0.100
354.100	72.313	0.100
354.200	79.191	0.100
354.300	61.331	0.100
354.400	75.327	0.100
354.500	68.857	0.100
354.600	61.491	0.100
354.700	64.719	0.100
354.800	62.876	0.100
354.900	78.288	0.100
355.000	68.651	0.100
355.100	68.877	0.100
355.200	67.493	0.100
355.300	65.822	0.100
355.400	60.699	0.100
355.500	65.143	0.100
355.600	70.602	0.100
355.700	65.180	0.100
355.800	69.801	0.100
355.900	73.612	0.100
356.000	74.534	0.100
356.100	65.855	0.100
356.200	67.457	0.100
356.300	72.822	0.100
356.400	78.764	0.100
356.500	68.484	0.100
356.600	58.658	0.100
356.700	69.983	0.100
356.800	74.152	0.100
356.900	73.218	0.100
357.000	75.286	0.100
357.100	62.169	0.100
357.200	62.233	0.100
357.300	81.998	0.100
357.400	70.713	0.100
357.500	76.980	0.100
357.600	59.281	0.100
357.700	63.778	0.100
357.800	65.487	0.100
357.900	72.573	0.100
358.000	74.216	0.100
358.100	66.186	0.100
358.200	72.713	0.100
358.300	62.528	0.100
358.400	63.420	0.100
358.500	61.363	0.100
358.600	68.255	0.100
358.700	75.312	0.100
358.800	75.061	0.100
358.900	72.048	0.100
359.000	71.324	0.100
359.100	67.454	0.100
359.200	69.015	0.100
359.300	72.652	0.100
359.400	64.793	0.100
359.500	78.395	0.100
359.600	67.955	0.100
359.700	68.407	0.099
359.800	77.683	0.099
359.900	74.034	0.099
360.000	70.925	0.099
360.100	72.546	0.099
360.200	64.528	0.099
360.300	87.684	0.099
360.400	66.859	0.099
360.500	65.186	0.099
360.600	71.326	0.099
360.700	68.631	0.099
360.800	76.931	0.099
360.900	70.145	0.099
361.000	63.832	0.099
361.100	65.188	0.099
361.200	75.914	0.099
361.300	58.050	0.099
361.400	65.760	0.099
361.500	77.088	0.099
361.600	80.502	0.099
361.700	70.574	0.099
361.800	61.628	0.099
361.900	74.662	0.099
362.000	72.765	0.099
362.100	63.447	0.099
362.200	55.388	0.099
362.300	68.992	0.099
362.400	74.574	0.099
362.500	70.301	0.099
362.600	71.225	0.099
362.700	67.184	0.099
362.800	73.237	0.099
362.900	67.450	0.099
363.000	68.706	0.099
363.100	68.309	0.099
363.200	75.265	0.099
363.300	65.053	0.099
363.400	75.444	0.099
363.500	52.331	0.099
363.600	62.622	0.099
363.700	76.245	0.099
363.800	79.015	0.099
363.900	75.262	0.099
364.000	73.376	0.099
364.100	63.075	0.099
364.200	69.987	0.099
364.300	69.736	0.099
364.400	71.588	0.099
364.500	69.591	0.099
364.600	52.511	0.099
364.700	66.071	0.099
364.800	64.879	0.099
364.900	70.237	0.099
365.000	73.104	0.099
365.100	61.306	0.099
365.200	74.580	0.099
365.300	57.745	0.099
365.400	66.530	0.099
365.500	69.768	0.099
365.600	68.709	0.099
365.700	72.797	0.099
365.800	64.437	0.099
365.900	70.283	0.099
366.000	62.363	0.099
366.100	60.326	0.099
366.200	73.218	0.099
366.300	58.556	0.099
366.400	56.748	0.099
366.500	76.523	0.099
366.600	71.198	0.099
366.700	71.499	0.099
366.800	64.813	0.099
366.900	69.599	0.099
367.000	60.318	0.099
367.100	75.435	0.099
367.200	69.381	0.099
367.300	64.953	0.099
367.400	67.749	0.099
367.500	71.364	0.099
367.600	69.124	0.099
367.700	54.906	0.099
367.800	60.232	0.099
367.900	53.981	0.099
368.000	66.368	0.099
368.100	62.238	0.099
368.200	69.603	0.099
368.300	72.491	0.099
368.400	64.249	0.099
368.500	65.162	0.099
368.600	71.968	0.099
368.700	60.595	0.099
368.800	75.618	0.099
368.900	55.792	0.099
369.000	58.653	0.099
369.100	75.015	0.099
369.200	71.630	0.099
369.300	67.407	0.099
369.400	62.570	0.099
369.500	72.663	0.099
369.600	61.040	0.099
369.700	58.653	0.099
369.800	66.953	0.099
369.900	63.799	0.099
370.000	68.206	0.099
370.100	64.939	0.099
370.200	60.939	0.099
370.300	60.557	0.099
370.400	56.254	0.099
370.500	66.391	0.099
370.600	54.728	0.099
370.700	61.722	0.099
370.800	48.811	0.099
370.900	55.039	0.099
371.000	55.107	0.099
371.100	77.177	0.099
371.200	67.530	0.099
371.300	67.066	0.099
371.400	59.696	0.099
371.500	48.713	0.099
371.600	81.923	0.099
371.700	59.953	0.099
371.800	73.747	0.099
371.900	61.752	0.099
372.000	61.309	0.099
372.100	70.578	0.099
372.200	64.684	0.099
372.300	70.258	0.099
372.400	54.599	0.099
372.500	54.190	0.099
372.600	68.228	0.099
372.700	63.209	0.099
372.800	60.391	0.099
372.900	59.148	0.099
373.000	62.161	0.099
373.100	56.524	0.099
373.200	62.051	0.099
373.300	58.419	0.099
373.400	53.620	0.099
373.500	68.103	0.099
373.600	69.277	0.099
373.700	65.018	0.099
373.800	55.617	0.099
373.900	58.515	0.099
374.000	61.315	0.099
374.100	62.940	0.099
374.200	69.418	0.099
374.300	67.730	0.099
374.400	51.909	0.099
374.500	56.092	0.099
374.600	65.762	0.099
374.700	61.864	0.099
374.800	62.873	0.099
374.900	65.357	0.099
375.000	66.265	0.099
375.100	62.310	0.099
375.200	56.741	0.099
375.300	55.986	0.099
375.400	59.529	0.099
375.500	58.435	0.099
375.600	59.263	0.099
375.700	63.241	0.099
375.800	59.634	0.099
375.900	59.520	0.099
376.000	51.934	0.099
376.100	65.574	0.099
376.200	54.534	0.099
376.300	71.349	0.099
376.400	66.607	0.099
376.500	51.345	0.099
376.600	56.907	0.099
376.700	69.785	0.099
376.800	57.998	0.099
376.900	60.893	0.099
377.000	67.477	0.099
377.100	53.375	0.099
377.200	56.016	0.099
377.300	60.414	0.099
377.400	61.417	0.099
377.500	58.523	0.099
377.600	59.067	0.099
377.700	62.331	0.099
377.800	68.907	0.099
377.900	49.712	0.099
378.000	60.110	0.099
378.100	57.563	0.099
378.200	57.373	0.099
378.300	62.259	0.099
378.400	45.971	0.099
378.500	51.522	0.099
378.600	64.970	0.099
378.700	65.458	0.099
378.800	68.352	0.099
378.900	57.594	0.099
379.000	61.323	0.099
379.100	61.127	0.099
379.200	66.442	0.100
379.300	65.543	0.100
379.400	60.885	0.099
379.500	73.022	0.100
379.600	59.171	0.100
379.700	58.457	0.100
379.800	58.421	0.100
379.900	72.133	0.100
380.000	63.775	0.100
380.100	60.414	0.100
380.200	58.523	0.100
380.300	60.857	0.100
380.400	56.611	0.100
380.500	60.903	0.100
380.600	61.947	0.100
380.700	59.924	0.100
380.800	71.927	0.100
380.900	56.939	0.100
381.000	62.369	0.100
381.100	74.068	0.100
381.200	62.519	0.100
381.300	58.475	0.100
381.400	58.781	0.100
381.500	55.347	0.100
381.600	61.147	0.100
381.700	63.765	0.100
381.800	61.827	0.100
381.900	69.259	0.100
382.000	55.859	0.100
382.100	69.624	0.100
382.200	54.731	0.100
382.300	57.801	0.100
382.400	62.207	0.100
382.500	63.570	0.100
382.600	52.926	0.100
382.700	70.051	0.100
382.800	68.195	0.100
382.900	56.793	0.100
383.000	73.953	0.100
383.100	61.080	0.100
383.200	65.280	0.100
383.300	69.780	0.100
383.400	66.308	0.100
383.500	53.946	0.100
383.600	66.804	0.100
383.700	66.834	0.100
383.800	70.270	0.100
383.900	60.969	0.100
384.000	65.622	0.100
384.100	63.595	0.100
384.200	55.759	0.100
384.300	51.542	0.100
384.400	63.204	0.100
384.500	67.389	0.100
384.600	59.939	0.100
384.700	55.483	0.100
384.800	60.627	0.100
384.900	66.291	0.100
385.000	62.813	0.100
385.100	61.352	0.100
385.200	64.817	0.100
385.300	67.685	0.100
385.400	52.490	0.100
385.500	69.696	0.100
385.600	58.992	0.100
385.700	70.115	0.100
385.800	75.741	0.100
385.900	70.439	0.100
386.000	53.673	0.100
386.100	63.198	0.100
386.200	55.744	0.100
386.300	63.359	0.100
386.400	67.276	0.100
386.500	49.891	0.100
386.600	57.888	0.100
386.700	74.744	0.100
386.800	63.421	0.100
386.900	68.084	0.100
387.000	59.523	0.100
387.100	60.820	0.100
387.200	66.367	0.100
387.300	65.948	0.100
387.400	66.148	0.100
387.500	62.407	0.100
387.600	53.309	0.100
387.700	63.935	0.100
387.800	62.557	0.100
387.900	61.597	0.100
388.000	55.867	0.100
388.100	64.009	0.100
388.200	59.405	0.100
388.300	67.979	0.100
388.400	65.726	0.100
388.500	67.538	0.100
388.600	52.012	0.100
388.700	63.993	0.100
388.800	67.138	0.100
388.900	56.478	0.100
389.000	72.821	0.100
389.100	61.854	0.100
389.200	59.015	0.100
389.300	67.991	0.100
389.400	59.746	0.100
389.500	63.740	0.100
389.600	72.888	0.100
389.700	69.982	0.100
389.800	65.373	0.100
389.900	64.246	0.100
390.000	58.663	0.100
390.100	58.228	0.100
390.200	43.076	0.100
390.300	42.774	0.100
390.400	39.501	0.100
390.500	18.502	0.100
390.600	28.811	0.100
390.700	0.035	0.100
390.800	0.783	0.100
390.900	-21.598	0.100
391.000	-17.406	0.100
391.100	-20.971	0.100
391.200	-33.791	0.100
391.300	-32.214	0.100
391.400	-40.050	0.100
391.500	-47.201	0.100
391.600	-46.744	0.100
391.700	-64.198	0.100
391.800	-59.741	0.100
391.900	-71.989	0.100
392.000	-67.479	0.100
392.100	-65.782	0.100
392.200	-71.903	0.100
392.300	-62.207	0.100
392.400	-81.977	0.100
392.500	-69.872	0.100
392.600	-86.151	0.100
392.700	-84.285	0.100
392.800	-79.441	0.100
392.900	-90.232	0.100
393.000	-84.776	0.100
393.100	-86.495	0.100
393.200	-72.575	0.100
393.300	-88.706	0.100
393.400	-100.934	0.100
393.500	-94.201	0.100
393.600	-84.955	0.100
393.700	-79.040	0.100
393.800	-61.053	0.100
393.900	-78.052	0.100
394.000	-78.994	0.100
394.100	-80.880	0.100
394.200	-76.692	0.100
394.300	-88.783	0.100
394.400	-78.643	0.100
394.500	-72.003	0.100
394.600	-72.934	0.100
394.700	-67.158	0.100
394.800	-78.710	0.100
394.900	-68.214	0.100
395.000	-76.150	0.100
395.100	-63.373	0.100
395.200	-62.600	0.100
395.300	-69.594	0.100
395.400	-81.411	0.100
395.500	-74.966	0.100
395.600	-72.222	0.100
395.700	-63.818	0.100
395.800	-64.550	0.100
395.900	-64.924	0.100
396.000	-66.614	0.100
396.100	-61.765	0.100
396.200	-67.260	0.100
396.300	-59.431	0.100
396.400	-45.454	0.100
396.500	-56.655	0.100
396.600	-67.551	0.100
396.700	-65.258	0.100
396.800	-49.809	0.100
396.900	-52.105	0.100
397.000	-55.646	0.100
397.100	-45.708	0.100
397.200	-50.995	0.100
397.300	-58.964	0.100
397.400	-46.315	0.100
397.500	-49.908	0.100
397.600	-44.226	0.100
397.700	-47.677	0.100
397.800	-68.213	0.100
397.900	-52.190	0.100
398.000	-40.820	0.100
398.100	-41.760	0.100
398.200	-36.964	0.100
398.300	-40.540	0.100
398.400	-40.038	0.100
398.500	-43.307	0.100
398.600	-47.474	0.100
398.700	-51.787	0.100
398.800	-51.066	0.100
398.900	-42.189	0.100
399.000	-41.725	0.100
399.100	-42.950	0.100
399.200	-35.371	0.100
399.300	-33.071	0.100
399.400	-40.812	0.100
399.500	-37.179	0.100
399.600	-36.304	0.100
399.700	-42.593	0.100
399.800	-39.686	0.100
399.900	-34.625	0.100
400.000	-38.035	0.100
400.100	-54.172	0.100
400.200	-36.000	0.100
400.300	-35.066	0.100
400.400	-39.859	0.100
400.500	-33.572	0.100
400.600	-42.128	0.100
400.700	-43.982	0.100
400.800	-35.009	0.100
400.900	-29.820	0.100
401.000	-30.905	0.100
401.100	-37.093	0.100
401.200	-20.535	0.100
401.300	-26.663	0.100
401.400	-21.709	0.100
401.500	-35.345	0.100
401.600	-46.620	0.100
401.700	-34.679	0.100
401.800	-27.781	0.100
401.900	-26.892	0.100
402.000	-26.407	0.100
402.100	-41.134	0.100
402.200	-38.861	0.100
402.300	-35.744	0.100
402.400	-27.214	0.100
402.500	-27.619	0.100
402.600	-36.296	0.100
402.700	-38.747	0.100
402.800	-41.005	0.100
402.900	-32.731	0.100
403.000	-25.318	0.100
403.100	-21.175	0.100
403.200	-39.342	0.100
403.300	-36.360	0.100
403.400	-19.591	0.100
403.500	-20.241	0.100
403.600	-36.102	0.100
403.700	-29.193	0.100
403.800	-30.791	0.100
403.900	-33.314	0.100
404.000	-25.543	0.100
404.100	-35.891	0.100
404.200	-33.506	0.100
404.300	-23.157	0.100
404.400	-30.137	0.100
404.500	-34.918	0.100
404.600	-43.393	0.100
404.700	-35.675	0.100
404.800	-30.037	0.100
404.900	-32.105	0.100
405.000	-26.399	0.100
405.100	-16.663	0.100
405.200	-32.754	0.100
405.300	-30.193	0.100
405.400	-27.666	0.100
405.500	-32.164	0.100
405.600	-34.125	0.100
405.700	-37.577	0.100
405.800	-41.628	0.100
405.900	-37.300	0.100
406.000	-19.359	0.100
406.100	-30.406	0.100
406.200	-21.505	0.100
406.300	-27.422	0.100
406.400	-41.900	0.100
406.500	-28.746	0.100
406.600	-31.260	0.100
406.700	-32.316	0.100
406.800	-25.709	0.100
406.900	-32.076	0.100
407.000	-35.409	0.100
407.100	-26.150	0.100
407.200	-29.280	0.100
407.300	-31.324	0.100
407.400	-25.653	0.100
407.500	-12.883	0.100
407.600	-19.592	0.100
407.700	-24.323	0.100
407.800	-23.680	0.100
407.900	-28.760	0.100
408.000	-31.778	0.100
408.100	-27.786	0.100
408.200	-18.735	0.100
408.300	-28.959	0.100
408.400	-37.551	0.100
408.500	-17.071	0.100
408.600	-19.691	0.100
408.700	-19.102	0.100
408.800	-20.118	0.100
408.900	-39.544	0.100
409.000	-30.803	0.100
409.100	-32.979	0.100
409.200	-32.614	0.100
409.300	-24.507	0.100
409.400	-26.967	0.100
409.500	-26.988	0.100
409.600	-20.277	0.100
409.700	-29.972	0.100
409.800	-26.990	0.100
409.900	-18.229	0.100
410.000	-27.240	0.100
410.100	-35.544	0.100
410.200	-23.556	0.100
410.300	-40.799	0.100
410.400	-22.678	0.100
410.500	-19.039	0.100
410.600	-35.763	0.100
410.700	-24.722	0.100
410.800	-20.256	0.100
410.900	-35.484	0.100
411.000	-24.925	0.100
411.100	-26.760	0.100
411.200	-20.198	0.100
411.300	-33.903	0.100
411.400	-23.501	0.100
411.500	-28.300	0.100
411.600	-30.855	0.100
411.700	-5.740	0.100
411.800	-39.710	0.100
411.900	-32.921	0.100
412.000	-24.275	0.100
412.100	-23.836	0.100
412.200	-27.589	0.100
412.300	-16.150	0.100
412.400	-19.393	0.100
412.500	-30.857	0.100
412.600	-27.447	0.100
412.700	-26.191	0.100
412.800	-29.897	0.100
412.900	-30.694	0.100
413.000	-30.761	0.100
413.100	-27.075	0.100
413.200	-23.461	0.100
413.300	-44.779	0.100
413.400	-30.947	0.100
413.500	-32.189	0.100
413.600	-22.206	0.100
413.700	-17.871	0.100
413.800	-11.759	0.100
413.900	-33.915	0.100
414.000	-23.720	0.100
414.100	-36.692	0.100
414.200	-29.309	0.100
414.300	-21.638	0.100
414.400	-30.657	0.100
414.500	-28.223	0.100
414.600	-21.438	0.100
414.700	-27.629	0.100
414.800	-39.049	0.100
414.900	-30.663	0.100
415.000	-15.513	0.100
415.100	-19.818	0.100
415.200	-16.268	0.100
415.300	-19.909	0.100
415.400	-36.881	0.100
415.500	-30.418	0.100
415.600	-26.960	0.100
415.700	-29.025	0.100
415.800	-17.774	0.100
415.900	-20.086	0.100
416.000	-31.345	0.100
416.100	-25.384	0.100
416.200	-19.586	0.100
416.300	-26.084	0.100
416.400	-26.791	0.100
416.500	-23.721	0.100
416.600	-21.046	0.100
416.700	-17.049	0.100
416.800	-33.326	0.100
416.900	-23.523	0.100
417.000	-26.947	0.100
417.100	-19.359	0.100
417.200	-20.658	0.100
417.300	-34.883	0.100
417.400	-30.161	0.100
417.500	-26.755	0.100
417.600	-25.525	0.100
417.700	-26.661	0.100
417.800	-38.682	0.100
417.900	-28.180	0.100
418.000	-24.353	0.100
418.100	-26.491	0.100
418.200	-25.174	0.100
418.300	-25.730	0.100
418.400	-23.889	0.100
418.500	-13.842	0.100
418.600	-25.085	0.100
418.700	-30.971	0.100
418.800	-21.713	0.100
418.900	-15.883	0.100
419.000	-15.418	0.100
419.100	-32.856	0.100
419.200	-17.529	0.100
419.300	-25.689	0.100
419.400	-24.095	0.100
419.500	-17.408	0.100
419.600	-36.148	0.100
419.700	-16.391	0.100
419.800	-42.069	0.100
419.900	-23.523	0.100
420.000	-14.478	0.100
420.100	-17.278	0.100
420.200	-30.190	0.100
420.300	-23.052	0.100
420.400	-20.580	0.100
420.500	-9.630	0.100
420.600	-19.450	0.100
420.700	-25.721	0.100
420.800	-25.408	0.100
420.900	-23.942	0.100
421.000	-33.210	0.100
421.100	-19.918	0.100
421.200	-29.969	0.100
421.300	-23.741	0.100
421.400	-20.418	0.100
421.500	-10.966	0.100
421.600	-22.281	0.100
421.700	-26.212	0.100
421.800	-20.336	0.100
421.900	-17.736	0.100
422.000	-22.976	0.100
422.100	-25.903	0.100
422.200	-21.431	0.100
422.300	-31.282	0.100
422.400	-22.402	0.100
422.500	-35.520	0.100
422.600	-27.885	0.100
422.700	-31.140	0.100
422.800	-26.111	0.100
422.900	-25.261	0.100
423.000	-26.215	0.100
423.100	-21.131	0.100
423.200	-24.519	0.100
423.300	-28.074	0.100
423.400	-23.139	0.100
423.500	-13.902	0.100
423.600	-37.485	0.100
423.700	-27.676	0.100
423.800	-30.362	0.100
423.900	-34.512	0.100
424.000	-23.448	0.100
424.100	-10.460	0.100
424.200	-20.737	0.100
424.300	-28.369	0.100
424.400	-13.983	0.100
424.500	-21.887	0.100
424.600	-18.435	0.100
424.700	-40.204	0.100
424.800	-21.160	0.100
424.900	-20.966	0.100
425.000	-21.307	0.100
425.100	-25.981	0.100
425.200	-20.807	0.100
425.300	-11.458	0.100
425.400	-21.059	0.100
425.500	-22.785	0.100
425.600	-29.938	0.100
425.700	-30.576	0.100
425.800	-22.756	0.100
425.900	-30.179	0.100
426.000	-21.557	0.100
426.100	-24.530	0.100
426.200	-31.140	0.100
426.300	-16.136	0.100
426.400	-18.216	0.100
426.500	-13.420	0.100
426.600	-20.027	0.100
426.700	-6.263	0.100
426.800	-23.209	0.100
426.900	-33.014	0.100
427.000	-18.612	0.100
427.100	-16.622	0.100
427.200	-14.827	0.100
427.300	-23.424	0.100
427.400	-21.709	0.100
427.500	-24.036	0.100
427.600	-33.702	0.100
427.700	-35.459	0.100
427.800	-22.589	0.100
427.900	-21.234	0.100
428.000	-17.651	0.100
428.100	-14.571	0.100
428.200	-19.746	0.100
428.300	-31.970	0.100
428.400	-23.171	0.100
428.500	-23.039	0.100
428.600	-22.676	0.100
428.700	-21.449	0.100
428.800	-20.470	0.100
428.900	-17.347	0.100
429.000	-18.235	0.100
429.100	-26.062	0.100
429.200	-22.555	0.100
429.300	-27.632	0.100
429.400	-22.012	0.100
429.500	-14.242	0.100
429.600	-15.975	0.100
429.700	-24.587	0.100
429.800	-23.647	0.100
429.900	-22.188	0.100
430.000	-26.582	0.100
430.100	-13.933	0.100
430.200	-19.265	0.100
430.300	-14.771	0.100
430.400	-24.031	0.100
430.500	-21.872	0.100
430.600	-19.904	0.100
430.700	-16.599	0.100
430.800	-26.656	0.100
430.900	-18.078	0.100
431.000	-22.085	0.100
431.100	-35.248	0.100
431.200	-7.329	0.100
431.300	-25.150	0.100
431.400	-20.943	0.100
431.500	-24.289	0.100
431.600	-20.937	0.100
431.700	-20.363	0.100
431.800	-19.765	0.100
431.900	-18.322	0.100
432.000	-23.377	0.100
432.100	-25.764	0.100
432.200	-28.748	0.100
432.300	-26.940	0.100
432.400	-20.617	0.100
432.500	-31.594	0.100
432.600	-16.889	0.100
432.700	-11.280	0.100
432.800	-26.871	0.100
432.900	-18.420	0.100
433.000	-16.936	0.100
433.100	-12.833	0.100
433.200	-19.818	0.100
433.300	-22.781	0.100
433.400	-28.146	0.100
433.500	-35.306	0.100
433.600	-24.454	0.100
433.700	-18.025	0.100
433.800	-23.714	0.100
433.900	-23.765	0.100
434.000	-22.811	0.100
434.100	-21.636	0.100
434.200	-20.054	0.100
434.300	-21.616	0.100
434.400	-24.269	0.100
434.500	-32.695	0.100
434.600	-12.839	0.100
434.700	-33.224	0.100
434.800	-25.234	0.100
434.900	-14.326	0.100
435.000	-16.792	0.100
435.100	-33.356	0.100
435.200	-26.811	0.100
435.300	-22.796	0.100
435.400	-14.936	0.100
435.500	-21.182	0.100
435.600	-25.934	0.100
435.700	-21.377	0.100
435.800	-32.287	0.100
435.900	-22.088	0.100
436.000	-21.976	0.100
436.100	-19.815	0.100
436.200	-25.093	0.100
436.300	-37.642	0.100
436.400	-9.200	0.100
436.500	-12.031	0.100
436.600	-30.340	0.100
436.700	-14.310	0.100
436.800	-24.046	0.100
436.900	-35.470	0.100
437.000	-16.883	0.100
437.100	-29.712	0.100
437.200	-14.725	0.100
437.300	-8.831	0.100
437.400	-18.610	0.100
437.500	-19.806	0.100
437.600	-21.982	0.100
437.700	-16.923	0.100
437.800	-28.730	0.100
437.900	-21.987	0.100
438.000	-27.433	0.100
438.100	-25.022	0.100
438.200	-18.336	0.100
438.300	-23.816	0.100
438.400	-22.573	0.100
438.500	-30.000	0.100
438.600	-19.856	0.100
438.700	-17.262	0.100
438.800	-17.368	0.100
438.900	-17.536	0.100
439.000	-22.660	0.100
439.100	-22.669	0.100
439.200	-14.225	0.100
439.300	-19.474	0.100
439.400	-22.746	0.100
439.500	-30.832	0.100
439.600	-9.740	0.100
439.700	-12.668	0.100
439.800	-11.950	0.100
439.900	-23.476	0.100
440.000	-20.811	0.100
440.100	-25.439	0.100
440.200	-23.646	0.100
440.300	-28.545	0.100
440.400	-15.438	0.100
440.500	-5.523	0.100
440.600	-22.801	0.100
440.700	-22.651	0.100
440.800	-24.954	0.099
440.900	-34.513	0.100
441.000	-14.860	0.100
441.100	-8.926	0.100
441.200	-24.308	0.100
441.300	-13.727	0.100
441.400	-20.960	0.100
441.500	-26.404	0.100
441.600	-37.137	0.100
441.700	-31.755	0.100
441.800	-23.264	0.100
441.900	-14.762	0.100
442.000	-11.659	0.100
442.100	-14.200	0.100
442.200	-18.151	0.100
442.300	-12.824	0.100
442.400	-15.666	0.100
442.500	-26.015	0.100
442.600	-22.141	0.100
442.700	-12.140	0.100
442.800	-15.378	0.100
442.900	-16.720	0.100
443.000	-16.012	0.100
443.100	-28.926	0.100
443.200	-18.823	0.100
443.300	-16.836	0.100
443.400	-22.335	0.100
443.500	-26.777	0.100
443.600	-17.165	0.100
443.700	-19.314	0.100
443.800	-27.464	0.100
443.900	-19.014	0.100
444.000	-15.423	0.100
444.100	-15.525	0.100
444.200	-21.796	0.100
444.300	-24.269	0.100
444.400	-26.957	0.100
444.500	-19.890	0.100
444.600	-43.781	0.100
444.700	-18.108	0.100
444.800	-9.412	0.100
444.900	-28.180	0.100
445.000	-15.468	0.100
445.100	-15.693	0.100
445.200	-20.116	0.100
445.300	-29.150	0.100
445.400	-28.885	0.100
445.500	-9.249	0.100
445.600	-25.334	0.100
445.700	-17.398	0.100
445.800	-43.265	0.100
445.900	-4.718	0.100
446.000	-8.365	0.100
446.100	-20.009	0.100
446.200	-20.929	0.100
446.300	-17.622	0.100
446.400	-18.244	0.100
446.500	-22.803	0.100
446.600	-18.930	0.100
446.700	-28.489	0.100
446.800	-27.969	0.100
446.900	-18.840	0.100
447.000	-26.219	0.100
447.100	-2.156	0.100
447.200	-21.969	0.100
447.300	-14.720	0.100
447.400	-27.216	0.100
447.500	-16.515	0.100
447.600	-20.848	0.100
447.700	-18.206	0.100
447.800	-26.424	0.100
447.900	-21.101	0.100
448.000	-22.915	0.100
448.100	-10.135	0.100
448.200	-22.627	0.100
448.300	-14.646	0.100
448.400	-22.106	0.100
448.500	-20.777	0.100
448.600	-26.641	0.100
448.700	-23.064	0.100
448.800	-22.225	0.100
448.900	-17.228	0.100
449.000	-26.527	0.100
449.100	-15.557	0.100
449.200	-28.731	0.100
449.300	-18.516	0.100
449.400	-14.461	0.099
449.500	-21.115	0.100
449.600	-29.942	0.099
449.700	-25.048	0.100
449.800	-18.326	0.100
449.900	-11.476	0.100
450.000	-18.205	0.100
450.100	-14.038	0.100
450.200	-16.953	0.100
450.300	-23.003	0.100
450.400	-18.126	0.100
450.500	-23.711	0.100
450.600	-22.453	0.100
450.700	-26.519	0.100
450.800	-27.509	0.100
450.900	-10.201	0.100
451.000	-12.256	0.100
451.100	-21.802	0.100
451.200	-30.275	0.100
451.300	-7.590	0.100
451.400	-25.331	0.100
451.500	-15.044	0.100
451.600	-21.359	0.100
451.700	-21.116	0.100
451.800	-19.339	0.100
451.900	-19.935	0.100
452.000	-26.049	0.100
452.100	-23.896	0.100
452.200	-7.858	0.100
452.300	-25.847	0.100
452.400	-19.129	0.100
452.500	-10.567	0.100
452.600	-32.342	0.100
452.700	-11.458	0.099
452.800	-20.854	0.100
452.900	-11.994	0.100
453.000	-13.929	0.100
453.100	-16.167	0.100
453.200	-14.506	0.100
453.300	-15.958	0.100
453.400	-23.296	0.100
453.500	-22.511	0.100
453.600	-28.045	0.100
453.700	-20.887	0.100
453.800	-18.230	0.100
453.900	-10.768	0.100
454.000	-16.101	0.100
454.100	-22.153	0.100
454.200	-33.512	0.100
454.300	-19.937	0.100
454.400	-18.221	0.100
454.500	-7.124	0.100
454.600	-9.380	0.100
454.700	-29.412	0.100
454.800	-20.948	0.100
454.900	-12.828	0.100
455.000	-12.493	0.100
455.100	-25.410	0.100
455.200	-4.145	0.100
455.300	-10.202	0.100
455.400	-12.560	0.100
455.500	-20.646	0.100
455.600	-15.707	0.100
455.700	-32.651	0.100
455.800	-17.284	0.100
455.900	0.590	0.100
456.000	-11.259	0.100
456.100	-27.754	0.100
456.200	-17.787	0.100
456.300	-20.108	0.100
456.400	-8.138	0.100
456.500	-18.640	0.100
456.600	-18.535	0.100
456.700	-19.785	0.100
456.800	-15.772	0.100
456.900	-18.425	0.100
457.000	-25.053	0.100
457.100	-12.269	0.100
457.200	-23.821	0.100
457.300	-20.488	0.100
457.400	-17.643	0.100
457.500	-14.734	0.100
457.600	-18.374	0.100
457.700	-13.084	0.100
457.800	-23.383	0.100
457.900	-15.263	0.100
458.000	-15.353	0.100
458.100	-21.413	0.100
458.200	-25.877	0.100
458.300	-24.741	0.100
458.400	-29.071	0.100
458.500	-15.895	0.100
458.600	-15.348	0.100
458.700	-20.680	0.100
458.800	-18.880	0.100
458.900	-25.365	0.100
459.000	-18.432	0.100
459.100	-8.586	0.100
459.200	-12.731	0.100
459.300	-20.019	0.100
459.400	-13.937	0.100
459.500	-18.129	0.100
459.600	-9.219	0.100
459.700	-15.741	0.100
459.800	-13.519	0.100
459.900	-21.195	0.100
460.000	-21.574	0.100
460.100	-16.762	0.100
460.200	-33.321	0.100
460.300	-9.047	0.100
460.400	-7.445	0.100
460.500	-32.145	0.100
460.600	-22.239	0.099
460.700	-5.049	0.100
460.800	-15.386	0.100
460.900	-16.705	0.100
461.000	-15.002	0.100
461.100	-16.849	0.100
461.200	-21.999	0.100
461.300	-26.086	0.100
461.400	-20.992	0.100
461.500	-18.235	0.100
461.600	-19.224	0.100
461.700	-16.185	0.100
461.800	-23.786	0.100
461.900	-20.747	0.100
462.000	-14.653	0.100
462.100	-13.934	0.100
462.200	-12.544	0.100
462.300	-12.753	0.100
462.400	-11.121	0.100
462.500	-13.135	0.100
462.600	-23.719	0.100
462.700	-18.393	0.100
462.800	-16.043	0.100
462.900	-21.682	0.100
463.000	-12.913	0.100
463.100	-19.410	0.100
463.200	-27.526	0.100
463.300	-10.803	0.100
463.400	-13.698	0.100
463.500	-32.701	0.100
463.600	-21.312	0.100
463.700	-10.009	0.100
463.800	-20.247	0.100
463.900	-19.311	0.100
464.000	-27.664	0.099
464.100	-15.098	0.100
464.200	-7.396	0.100
464.300	-14.210	0.100
464.400	-21.114	0.100
464.500	-11.094	0.100
464.600	-25.267	0.100
464.700	-28.745	0.100
464.800	-14.298	0.100
464.900	-14.535	0.100
465.000	-24.428	0.100
465.100	-10.436	0.100
465.200	-13.760	0.100
465.300	-14.517	0.100
465.400	-18.840	0.100
465.500	-16.249	0.100
465.600	-8.007	0.100
465.700	-33.327	0.100
465.800	-16.654	0.100
465.900	-7.391	0.100
466.000	-13.610	0.100
466.100	-8.819	0.099
466.200	-11.514	0.100
466.300	-24.732	0.100
466.400	-19.854	0.100
466.500	-5.278	0.100
466.600	-16.325	0.100
466.700	-16.760	0.100
466.800	-22.587	0.100
466.900	-9.728	0.100
467.000	-15.488	0.100
467.100	-6.289	0.100
467.200	-15.194	0.100
467.300	-17.368	0.100
467.400	-22.963	0.100
467.500	-16.292	0.100
467.600	-16.116	0.100
467.700	-25.587	0.100
467.800	-4.590	0.100
467.900	-11.036	0.100
468.000	-10.443	0.100
468.100	-33.037	0.100
468.200	-11.079	0.100
468.300	-15.932	0.100
468.400	-18.375	0.100
468.500	-19.313	0.100
468.600	-13.212	0.100
468.700	-18.685	0.100
468.800	-23.490	0.100
468.900	-12.302	0.100
469.000	-9.793	0.100
469.100	-13.038	0.100
469.200	-21.989	0.100
469.300	-14.635	0.100
469.400	-27.621	0.100
469.500	-12.601	0.100
469.600	-21.219	0.100
469.700	-7.260	0.100
469.800	-9.242	0.100
469.900	-20.828	0.100
470.000	-15.467	0.100
470.100	-24.807	0.100
470.200	-26.041	0.100
470.300	-2.525	0.100
470.400	-18.084	0.100
470.500	-20.715	0.100
470.600	-22.498	0.100
470.700	-24.865	0.100
470.800	-20.161	0.100
470.900	-1.338	0.100
471.000	-7.101	0.100
471.100	-17.769	0.100
471.200	-20.490	0.100
471.300	-16.412	0.100
471.400	-8.984	0.100
471.500	-20.049	0.100
471.600	-13.411	0.100
471.700	-10.167	0.100
471.800	-17.643	0.100
471.900	-14.646	0.100
472.000	-21.230	0.100
472.100	-17.809	0.100
472.200	-14.650	0.100
472.300	-16.091	0.100
472.400	-5.444	0.100
472.500	-14.738	0.100
472.600	-14.302	0.100
472.700	-20.025	0.100
472.800	-14.570	0.100
472.900	-12.383	0.100
473.000	-19.539	0.100
473.100	-12.023	0.100
473.200	-17.309	0.100
473.300	-13.727	0.100
473.400	-23.826	0.100
473.500	-12.902	0.100
473.600	-11.283	0.100
473.700	-17.362	0.100
473.800	-16.581	0.100
473.900	-4.613	0.100
474.000	-11.171	0.100
474.100	-24.390	0.100
474.200	-13.153	0.100
474.300	-9.817	0.100
474.400	-0.548	0.100
474.500	-18.680	0.100
474.600	-18.480	0.100
474.700	-7.723	0.100
474.800	-18.261	0.100
474.900	-19.617	0.100
475.000	-18.782	0.100
475.100	-14.742	0.100
475.200	-10.032	0.100
475.300	-20.849	0.100
475.400	-26.191	0.100
475.500	-4.881	0.100
475.600	-12.071	0.100
475.700	-27.232	0.100
475.800	-16.407	0.100
475.900	-12.942	0.100
476.000	-18.302	0.100
476.100	-18.956	0.100
476.200	-7.273	0.100
476.300	-10.821	0.100
476.400	-23.684	0.100
476.500	-6.908	0.100
476.600	-12.074	0.100
476.700	-16.741	0.100
476.800	-12.977	0.100
476.900	-10.019	0.100
477.000	-13.337	0.100
477.100	-23.213	0.100
477.200	-17.606	0.100
477.300	-13.015	0.100
477.400	-12.795	0.100
477.500	-21.517	0.100
477.600	-22.255	0.100
477.700	-32.155	0.100
477.800	-21.461	0.099
477.900	-8.019	0.100
478.000	-4.880	0.099
478.100	-18.856	0.100
478.200	-7.980	0.100
478.300	-15.661	0.100
478.400	-12.355	0.100
478.500	-17.249	0.100
478.600	-14.764	0.100
478.700	-16.799	0.100
478.800	-12.526	0.100
478.900	-16.621	0.100
479.000	-8.227	0.100
479.100	-11.691	0.100
479.200	-21.627	0.100
479.300	-13.765	0.099
479.400	-13.395	0.100
479.500	-14.446	0.100
479.600	-15.026	0.100
479.700	-21.286	0.100
479.800	-9.270	0.100
479.900	-18.097	0.100
480.000	-9.965	0.100
480.100	-18.360	0.100
480.200	-7.418	0.100
480.300	-8.832	0.100
480.400	6.975	0.100
480.500	10.926	0.100
480.600	0.553	0.100
480.700	10.522	0.100
480.800	30.800	0.100
480.900	30.212	0.100
481.000	28.305	0.100
481.100	23.837	0.100
481.200	17.979	0.100
481.300	35.958	0.100
481.400	39.454	0.100
481.500	38.927	0.100
481.600	37.222	0.100
481.700	20.177	0.100
481.800	32.909	0.100
481.900	46.444	0.100
482.000	40.755	0.100
482.100	43.958	0.100
482.200	26.462	0.100
482.300	35.558	0.100
482.400	32.288	0.100
482.500	28.195	0.100
482.600	36.378	0.100
482.700	36.774	0.100
482.800	31.299	0.100
482.900	28.704	0.100
483.000	33.449	0.100
483.100	37.789	0.100
483.200	27.040	0.100
483.300	14.024	0.100
483.400	18.198	0.100
483.500	35.275	0.100
483.600	24.719	0.100
483.700	27.440	0.100
483.800	29.201	0.100
483.900	25.806	0.100
484.000	16.781	0.100
484.100	21.085	0.100
484.200	17.079	0.100
484.300	28.885	0.100
484.400	19.044	0.100
484.500	9.233	0.100
484.600	21.691	0.100
484.700	23.996	0.100
484.800	16.756	0.100
484.900	28.082	0.100
485.000	30.762	0.100
485.100	20.890	0.100
485.200	7.748	0.100
485.300	18.658	0.100
485.400	21.860	0.100
485.500	20.116	0.100
485.600	21.015	0.100
485.700	26.259	0.100
485.800	18.043	0.100
485.900	25.327	0.100
486.000	17.589	0.100
486.100	14.066	0.100
486.200	17.415	0.100
486.300	24.277	0.100
486.400	30.118	0.100
486.500	18.297	0.100
486.600	30.288	0.100
486.700	23.403	0.100
486.800	22.649	0.100
486.900	18.669	0.100
487.000	23.397	0.100
487.100	33.728	0.100
487.200	30.187	0.100
487.300	28.941	0.100
487.400	46.285	0.100
487.500	22.548	0.100
487.600	23.906	0.100
487.700	30.862	0.100
487.800	27.179	0.100
487.900	26.043	0.100
488.000	25.878	0.100
488.100	22.180	0.100
488.200	21.117	0.100
488.300	28.378	0.100
488.400	19.587	0.100
488.500	20.298	0.100
488.600	22.116	0.100
488.700	33.193	0.100
488.800	39.984	0.100
488.900	33.351	0.100
489.000	29.128	0.100
489.100	25.666	0.100
489.200	30.106	0.100
489.300	20.380	0.100
489.400	36.696	0.100
489.500	26.126	0.100
489.600	31.059	0.100
489.700	41.455	0.100
489.800	33.050	0.100
489.900	16.457	0.100
490.000	29.470	0.100
490.100	34.991	0.100
490.200	37.212	0.100
490.300	40.034	0.100
490.400	41.503	0.100
490.500	22.680	0.100
490.600	36.352	0.100
490.700	42.773	0.100
490.800	33.440	0.100
490.900	44.567	0.100
491.000	43.292	0.100
491.100	43.055	0.100
491.200	46.422	0.100
491.300	39.494	0.100
491.400	33.447	0.100
491.500	40.608	0.100
491.600	43.746	0.100
491.700	28.652	0.100
491.800	39.925	0.100
491.900	46.169	0.100
492.000	34.229	0.100
492.100	61.415	0.100
492.200	52.230	0.100
492.300	45.253	0.100
492.400	49.694	0.100
492.500	47.107	0.100
492.600	55.671	0.100
492.700	32.779	0.100
492.800	28.506	0.100
492.900	36.946	0.100
493.000	67.280	0.100
493.100	60.914	0.100
493.200	52.823	0.100
493.300	38.276	0.100
493.400	42.115	0.100
493.500	39.938	0.100
493.600	52.225	0.100
493.700	50.494	0.100
493.800	45.088	0.100
493.900	49.110	0.100
494.000	54.598	0.100
494.100	49.384	0.100
494.200	38.444	0.100
494.300	48.556	0.100
494.400	51.045	0.100
494.500	41.837	0.100
494.600	48.476	0.100
494.700	61.643	0.100
494.800	49.819	0.100
494.900	51.065	0.100
495.000	64.612	0.100
495.100	53.282	0.100
495.200	52.487	0.100
495.300	50.820	0.100
495.400	44.808	0.100
495.500	60.267	0.100
495.600	54.436	0.100
495.700	63.166	0.100
495.800	70.620	0.100
495.900	44.785	0.100
496.000	56.745	0.100
496.100	62.512	0.100
496.200	55.958	0.100
496.300	58.666	0.100
496.400	54.272	0.100
496.500	58.284	0.100
496.600	62.154	0.100
496.700	60.392	0.100
496.800	60.667	0.100
496.900	75.536	0.100
497.000	68.041	0.100
497.100	57.583	0.100
497.200	54.937	0.100
497.300	45.594	0.100
497.400	52.849	0.100
497.500	65.005	0.100
497.600	59.667	0.100
497.700	63.616	0.100
497.800	72.445	0.100
497.900	63.514	0.100
498.000	55.762	0.100
498.100	50.692	0.100
498.200	69.030	0.100
498.300	58.569	0.100
498.400	73.199	0.100
498.500	67.103	0.100
498.600	63.043	0.100
498.700	72.023	0.100
498.800	65.480	0.100
498.900	57.234	0.100
499.000	65.523	0.100
499.100	66.311	0.100
499.200	64.954	0.100
499.300	73.196	0.100
499.400	67.646	0.100
499.500	49.200	0.100
499.600	68.626	0.100
499.700	65.072	0.100
499.800	57.538	0.100
499.900	74.697	0.100
500.000	69.448	0.100
500.100	69.837	0.100
500.200	55.664	0.100
500.300	68.877	0.100
500.400	64.493	0.100
500.500	66.745	0.100
500.600	67.955	0.100
500.700	70.386	0.100
500.800	64.651	0.100
500.900	73.320	0.100
501.000	60.952	0.100
501.100	67.705	0.100
501.200	65.874	0.100
501.300	62.510	0.100
501.400	70.757	0.100
501.500	59.690	0.100
501.600	77.560	0.100
501.700	69.504	0.100
501.800	56.057	0.100
501.900	63.727	0.100
502.000	73.116	0.100
502.100	70.261	0.100
502.200	60.354	0.100
502.300	74.732	0.100
502.400	66.719	0.100
502.500	73.258	0.100
502.600	73.940	0.100
502.700	61.622	0.100
502.800	70.398	0.100
502.900	68.635	0.100
503.000	54.707	0.100
503.100	75.887	0.100
503.200	77.786	0.100
503.300	58.143	0.100
503.400	76.966	0.100
503.500	78.795	0.100
503.600	67.864	0.100
503.700	58.112	0.100
503.800	63.405	0.100
503.900	68.327	0.100
504.000	67.597	0.100
504.100	80.545	0.100
504.200	77.144	0.100
504.300	69.735	0.100
504.400	76.106	0.100
504.500	73.609	0.100
504.600	63.651	0.100
504.700	76.104	0.100
504.800	76.725	0.100
504.900	63.828	0.100
505.000	61.763	0.100
505.100	70.156	0.100
505.200	61.654	0.100
505.300	75.247	0.100
505.400	58.985	0.100
505.500	76.344	0.100
505.600	81.238	0.100
505.700	79.314	0.100
505.800	74.574	0.100
505.900	68.936	0.100
506.000	75.020	0.100
506.100	76.472	0.100
506.200	67.513	0.100
506.300	75.905	0.100
506.400	81.042	0.100
506.500	73.074	0.100
506.600	71.149	0.100
506.700	70.736	0.100
506.800	76.129	0.100
506.900	77.997	0.100
507.000	77.291	0.100
507.100	68.357	0.100
507.200	61.932	0.100
507.300	70.872	0.100
507.400	80.858	0.100
507.500	70.854	0.100
507.600	75.265	0.100
507.700	79.373	0.100
507.800	67.037	0.100
507.900	74.062	0.100
508.000	83.891	0.100
508.100	75.409	0.100
508.200	75.496	0.100
508.300	70.241	0.100
508.400	69.009	0.100
508.500	69.410	0.100
508.600	61.749	0.100
508.700	75.454	0.100
508.800	81.458	0.100
508.900	81.897	0.100
509.000	73.096	0.100
509.100	74.375	0.100
509.200	77.952	0.100
509.300	72.225	0.100
509.400	55.132	0.100
509.500	67.280	0.100
509.600	63.009	0.100
509.700	72.066	0.100
509.800	86.307	0.100
509.900	80.330	0.100
510.000	79.757	0.100
510.100	67.810	0.100
510.200	59.091	0.100
510.300	73.482	0.100
510.400	60.197	0.100
510.500	79.726	0.100
510.600	69.425	0.100
510.700	56.604	0.100
510.800	81.397	0.100
510.900	75.549	0.100
511.000	81.712	0.100
511.100	71.705	0.100
511.200	71.532	0.100
511.300	67.134	0.100
511.400	64.034	0.100
511.500	79.315	0.100
511.600	84.162	0.100
511.700	63.724	0.100
511.800	71.205	0.100
511.900	74.384	0.100
512.000	73.431	0.100
512.100	79.883	0.100
512.200	80.552	0.100
512.300	84.895	0.100
512.400	84.610	0.100
512.500	69.052	0.100
512.600	69.131	0.100
512.700	70.708	0.100
512.800	66.205	0.100
512.900	76.464	0.100
513.000	77.377	0.100
513.100	79.072	0.100
513.200	62.215	0.100
513.300	65.770	0.100
513.400	72.718	0.100
513.500	85.228	0.100
513.600	71.482	0.100
513.700	71.431	0.100
513.800	73.112	0.100
513.900	74.077	0.100
514.000	78.709	0.100
514.100	77.337	0.100
514.200	79.460	0.100
514.300	59.943	0.100
514.400	74.884	0.100
514.500	71.566	0.100
514.600	60.422	0.100
514.700	79.329	0.100
514.800	81.758	0.100
514.900	72.422	0.100
515.000	62.657	0.100
515.100	77.407	0.100
515.200	75.248	0.100
515.300	72.598	0.100
515.400	71.737	0.100
515.500	71.625	0.100
515.600	70.219	0.100
515.700	65.646	0.100
515.800	80.157	0.100
515.900	69.284	0.100
516.000	71.457	0.100
516.100	63.439	0.100
516.200	57.261	0.100
516.300	63.816	0.100
516.400	83.220	0.100
516.500	81.288	0.100
516.600	65.301	0.100
516.700	68.536	0.100
516.800	84.392	0.100
516.900	62.505	0.100
517.000	71.308	0.100
517.100	60.448	0.100
517.200	74.955	0.100
517.300	71.022	0.100
517.400	70.838	0.100
517.500	67.706	0.100
517.600	64.888	0.100
517.700	54.415	0.100
517.800	76.309	0.100
517.900	75.574	0.100
518.000	57.794	0.100
518.100	65.349	0.100
518.200	66.103	0.100
518.300	66.264	0.100
518.400	55.380	0.100
518.500	78.669	0.100
518.600	66.782	0.100
518.700	52.844	0.100
518.800	68.731	0.100
518.900	73.953	0.100
519.000	59.813	0.100
519.100	64.094	0.100
519.200	67.877	0.100
519.300	64.521	0.100
519.400	62.438	0.100
519.500	67.034	0.100
519.600	65.036	0.100
519.700	62.928	0.100
519.800	74.578	0.100
519.900	60.775	0.100
520.000	56.972	0.100
520.100	62.183	0.100
520.200	73.542	0.100
520.300	64.438	0.100
520.400	67.878	0.100
520.500	62.264	0.100
520.600	66.098	0.100
520.700	69.623	0.100
520.800	64.591	0.100
520.900	66.984	0.100
521.000	60.951	0.100
521.100	65.740	0.100
521.200	65.045	0.100
521.300	67.805	0.100
521.400	63.588	0.100
521.500	69.187	0.100
521.600	66.745	0.100
521.700	71.324	0.100
521.800	59.854	0.100
521.900	63.290	0.100
522.000	45.951	0.100
522.100	65.255	0.100
522.200	69.834	0.100
522.300	68.182	0.100
522.400	56.947	0.100
522.500	70.281	0.100
522.600	69.461	0.100
522.700	61.523	0.100
522.800	63.792	0.100
522.900	65.857	0.100
523.000	53.463	0.100
523.100	70.394	0.100
523.200	55.545	0.100
523.300	59.928	0.100
523.400	55.449	0.100
523.500	57.957	0.100
523.600	67.002	0.100
523.700	60.228	0.100
523.800	47.600	0.100
523.900	57.261	0.100
524.000	64.106	0.100
524.100	64.960	0.100
524.200	69.433	0.100
524.300	57.539	0.100
524.400	56.958	0.100
524.500	67.374	0.100
524.600	76.685	0.100
524.700	42.097	0.100
524.800	64.066	0.100
524.900	60.226	0.100
525.000	48.383	0.100
525.100	60.435	0.100
525.200	64.560	0.100
525.300	53.183	0.100
525.400	63.196	0.100
525.500	55.315	0.100
525.600	68.137	0.100
525.700	61.869	0.100
525.800	66.321	0.100
525.900	70.566	0.100
526.000	48.189	0.100
526.100	66.389	0.100
526.200	59.416	0.100
526.300	62.182	0.100
526.400	59.263	0.100
526.500	58.972	0.100
526.600	69.748	0.100
526.700	57.017	0.100
526.800	58.719	0.100
526.900	51.424	0.100
527.000	65.616	0.100
527.100	52.971	0.100
527.200	61.538	0.100
527.300	55.917	0.100
527.400	56.478	0.100
527.500	46.432	0.100
527.600	56.419	0.100
527.700	59.627	0.100
527.800	70.670	0.100
527.900	57.232	0.100
528.000	51.148	0.100
528.100	46.020	0.100
528.200	57.490	0.100
528.300	51.786	0.100
528.400	48.015	0.100
528.500	59.789	0.100
528.600	64.126	0.100
528.700	64.635	0.100
528.800	50.766	0.100
528.900	65.539	0.100
529.000	57.558	0.100
529.100	63.152	0.100
529.200	62.407	0.100
529.300	60.927	0.100
529.400	54.362	0.100
529.500	58.618	0.100
529.600	57.861	0.100
529.700	49.387	0.100
529.800	56.558	0.100
529.900	63.820	0.100
530.000	54.275	0.100
530.100	58.319	0.100
530.200	58.301	0.100
530.300	56.250	0.100
530.400	48.644	0.100
530.500	68.174	0.100
530.600	64.175	0.100
530.700	63.076	0.100
530.800	70.543	0.100
530.900	58.464	0.100
531.000	64.296	0.100
531.100	53.100	0.100
531.200	66.896	0.100
531.300	55.149	0.100
531.400	49.260	0.100
531.500	55.523	0.100
531.600	63.554	0.100
531.700	80.735	0.100
531.800	52.128	0.100
531.900	56.229	0.100
532.000	52.531	0.100
532.100	59.233	0.100
532.200	69.336	0.100
532.300	68.366	0.100
532.400	59.449	0.100
532.500	63.438	0.100
532.600	63.522	0.100
532.700	55.938	0.100
532.800	63.284	0.100
532.900	63.173	0.100
533.000	60.016	0.100
533.100	62.385	0.100
533.200	59.150	0.100
533.300	62.425	0.100
533.400	60.187	0.100
533.500	69.444	0.100
533.600	63.508	0.100
533.700	54.344	0.100
533.800	64.583	0.100
533.900	56.908	0.100
534.000	64.599	0.100
534.100	58.027	0.100
534.200	63.022	0.100
534.300	66.246	0.100
534.400	58.355	0.100
534.500	63.103	0.100
534.600	71.317	0.100
534.700	69.906	0.100
534.800	50.527	0.100
534.900	66.085	0.100
535.000	51.619	0.100
535.100	58.627	0.100
535.200	63.215	0.100
535.300	69.801	0.100
535.400	54.865	0.100
535.500	57.854	0.100
535.600	65.604	0.100
535.700	61.448	0.100
535.800	67.296	0.100
535.900	39.444	0.100
536.000	53.416	0.100
536.100	60.445	0.100
536.200	59.666	0.100
536.300	60.115	0.100
536.400	65.134	0.100
536.500	68.534	0.100
536.600	72.111	0.100
536.700	56.800	0.100
536.800	53.475	0.100
536.900	72.663	0.100
537.000	74.299	0.100
537.100	67.442	0.100
537.200	61.374	0.100
537.300	70.298	0.100
537.400	55.643	0.100
537.500	44.718	0.100
537.600	68.611	0.100
537.700	76.472	0.100
537.800	61.394	0.100
537.900	62.393	0.100
538.000	62.198	0.100
538.100	44.914	0.100
538.200	58.754	0.100
538.300	68.534	0.100
538.400	72.576	0.100
538.500	62.731	0.100
538.600	62.087	0.100
538.700	67.359	0.100
538.800	52.251	0.100
538.900	64.782	0.100
539.000	60.904	0.100
539.100	63.932	0.100
539.200	70.873	0.100
539.300	61.360	0.100
539.400	63.238	0.100
539.500	63.292	0.100
539.600	66.571	0.100
539.700	65.889	0.100
539.800	56.035	0.100
539.900	65.307	0.100
540.000	64.123	0.100
540.100	60.896	0.100
540.200	42.374	0.100
540.300	45.215	0.100
540.400	37.797	0.100
540.500	40.625	0.100
540.600	26.549	0.100
540.700	-11.290	0.100
540.800	-20.836	0.100
540.900	-19.642	0.100
541.000	-21.026	0.100
541.100	-53.669	0.100
541.200	-25.881	0.100
541.300	-65.640	0.100
541.400	-47.017	0.100
541.500	-62.105	0.100
541.600	-77.028	0.100
541.700	-75.155	0.100
541.800	-83.633	0.100
541.900	-87.401	0.100
542.000	-76.468	0.100
542.100	-85.728	0.100
542.200	-95.940	0.100
542.300	-103.311	0.100
542.400	-89.866	0.100
542.500	-93.637	0.100
542.600	-109.045	0.100
542.700	-105.088	0.100
542.800	-100.001	0.100
542.900	-104.770	0.100
543.000	-96.080	0.100
543.100	-94.333	0.100
543.200	-98.061	0.100
543.300	-99.833	0.100
543.400	-87.862	0.100
543.500	-105.799	0.100
543.600	-100.433	0.100
543.700	-93.775	0.100
543.800	-95.401	0.100
543.900	-92.958	0.100
544.000	-99.473	0.100
544.100	-90.331	0.100
544.200	-99.334	0.100
544.300	-96.712	0.100
544.400	-88.788	0.100
544.500	-84.854	0.100
544.600	-94.045	0.100
544.700	-89.185	0.100
544.800	-78.793	0.100
544.900	-83.139	0.100
545.000	-85.168	0.100
545.100	-82.482	0.100
545.200	-87.464	0.100
545.300	-80.528	0.100
545.400	-62.749	0.100
545.500	-87.934	0.100
545.600	-72.057	0.100
545.700	-95.811	0.100
545.800	-67.640	0.100
545.900	-67.996	0.100
546.000	-68.659	0.100
546.100	-68.092	0.100
546.200	-63.539	0.100
546.300	-71.884	0.100
546.400	-54.907	0.100
546.500	-73.038	0.100
546.600	-58.957	0.100
546.700	-66.430	0.100
546.800	-68.123	0.100
546.900	-66.539	0.100
547.000	-57.331	0.100
547.100	-59.638	0.100
547.200	-57.413	0.100
547.300	-59.347	0.100
547.400	-54.575	0.100
547.500	-64.905	0.100
547.600	-60.181	0.100
547.700	-48.207	0.100
547.800	-54.664	0.100
547.900	-55.761	0.100
548.000	-45.464	0.100
548.100	-57.822	0.100
548.200	-46.880	0.100
548.300	-51.609	0.100
548.400	-39.468	0.100
548.500	-48.907	0.100
548.600	-38.169	0.100
548.700	-56.813	0.100
548.800	-51.552	0.100
548.900	-38.176	0.100
549.000	-47.458	0.100
549.100	-47.061	0.100
549.200	-29.504	0.100
549.300	-51.645	0.100
549.400	-37.123	0.100
549.500	-45.092	0.100
549.600	-50.054	0.100
549.700	-43.305	0.100
549.800	-34.602	0.100
549.900	-40.978	0.100
550.000	-45.974	0.100
550.100	-42.004	0.100
550.200	-37.090	0.100
550.300	-28.773	0.100
550.400	-38.334	0.100
550.500	-36.037	0.100
550.600	-45.380	0.100
550.700	-38.126	0.100
550.800	-33.739	0.100
550.900	-39.088	0.100
551.000	-47.623	0.100
551.100	-33.930	0.100
551.200	-43.683	0.100
551.300	-35.080	0.100
551.400	-33.084	0.100
551.500	-38.418	0.100
551.600	-37.447	0.100
551.700	-32.348	0.100
551.800	-40.113	0.100
551.900	-32.821	0.100
552.000	-35.279	0.100
552.100	-43.523	0.100
552.200	-32.410	0.100
552.300	-30.238	0.100
552.400	-36.694	0.100
552.500	-29.045	0.100
552.600	-36.366	0.100
552.700	-38.194	0.100
552.800	-30.412	0.100
552.900	-27.183	0.100
553.000	-29.160	0.100
553.100	-41.398	0.100
553.200	-32.379	0.100
553.300	-36.835	0.100
553.400	-36.990	0.100
553.500	-28.501	0.100
553.600	-32.407	0.100
553.700	-35.730	0.100
553.800	-46.973	0.100
553.900	-22.595	0.100
554.000	-23.827	0.100
554.100	-36.779	0.100
554.200	-36.918	0.100
554.300	-37.051	0.100
554.400	-27.545	0.100
554.500	-28.558	0.100
554.600	-31.119	0.100
554.700	-30.184	0.100
554.800	-39.898	0.100
554.900	-30.799	0.100
555.000	-26.421	0.100
555.100	-28.969	0.100
555.200	-31.667	0.100
555.300	-26.347	0.100
555.400	-28.432	0.100
555.500	-43.516	0.100
555.600	-28.340	0.100
555.700	-31.431	0.100
555.800	-21.098	0.100
555.900	-34.022	0.100
556.000	-19.875	0.100
556.100	-37.085	0.100
556.200	-39.206	0.100
556.300	-28.649	0.100
556.400	-41.396	0.100
556.500	-34.832	0.100
556.600	-39.976	0.100
556.700	-27.419	0.100
556.800	-31.406	0.100
556.900	-28.369	0.100
557.000	-29.696	0.100
557.100	-33.211	0.100
557.200	-26.120	0.100
557.300	-27.375	0.100
557.400	-30.920	0.100
557.500	-35.815	0.100
557.600	-31.646	0.100
557.700	-19.200	0.100
557.800	-22.576	0.100
557.900	-39.886	0.100
558.000	-23.853	0.100
558.100	-46.601	0.100
558.200	-30.069	0.100
558.300	-27.569	0.100
558.400	-33.666	0.100
558.500	-28.992	0.100
558.600	-31.975	0.100
558.700	-30.530	0.100
558.800	-26.046	0.100
558.900	-29.756	0.100
559.000	-36.472	0.100
559.100	-23.654	0.100
559.200	-27.245	0.100
559.300	-38.505	0.100
559.400	-24.363	0.100
559.500	-33.602	0.100
559.600	-30.209	0.100
559.700	-25.527	0.100
559.800	-31.429	0.100
559.900	-36.685	0.100
560.000	-33.498	0.100
560.100	-22.877	0.100
560.200	-25.354	0.100
560.300	-41.585	0.100
560.400	-31.933	0.100
560.500	-32.924	0.100
560.600	-39.945	0.100
560.700	-19.664	0.100
560.800	-28.107	0.100
560.900	-26.545	0.100
561.000	-33.804	0.100
561.100	-35.546	0.100
561.200	-24.146	0.100
561.300	-34.837	0.100
561.400	-26.081	0.100
561.500	-31.352	0.100
561.600	-16.808	0.100
561.700	-41.828	0.100
561.800	-36.016	0.100
561.900	-19.937	0.100
562.000	-21.203	0.100
562.100	-29.513	0.100
562.200	-26.904	0.100
562.300	-27.768	0.100
562.400	-37.846	0.100
562.500	-35.713	0.100
562.600	-21.025	0.100
562.700	-21.191	0.100
562.800	-24.192	0.100
562.900	-25.561	0.100
563.000	-29.483	0.100
563.100	-32.630	0.100
563.200	-22.277	0.100
563.300	-25.273	0.100
563.400	-44.984	0.100
563.500	-18.054	0.100
563.600	-32.106	0.100
563.700	-33.914	0.100
563.800	-20.337	0.100
563.900	-25.914	0.100
564.000	-27.499	0.100
564.100	-26.539	0.100
564.200	-45.208	0.100
564.300	-27.445	0.100
564.400	-28.018	0.100
564.500	-33.006	0.100
564.600	-33.613	0.100
564.700	-29.875	0.100
564.800	-26.429	0.100
564.900	-21.894	0.100
565.000	-31.841	0.100
565.100	-30.454	0.100
565.200	-22.674	0.100
565.300	-33.902	0.100
565.400	-30.357	0.100
565.500	-29.233	0.100
565.600	-24.709	0.100
565.700	-38.877	0.100
565.800	-20.767	0.100
565.900	-28.140	0.100
566.000	-27.430	0.100
566.100	-24.393	0.100
566.200	-23.718	0.100
566.300	-32.365	0.100
566.400	-33.800	0.100
566.500	-32.438	0.100
566.600	-29.325	0.100
566.700	-22.189	0.100
566.800	-34.994	0.100
566.900	-31.389	0.100
567.000	-40.619	0.100
567.100	-18.007	0.100
567.200	-18.714	0.100
567.300	-36.337	0.100
567.400	-19.345	0.100
567.500	-35.836	0.100
567.600	-39.812	0.100
567.700	-37.963	0.100
567.800	-19.126	0.100
567.900	-17.292	0.100
568.000	-23.207	0.100
568.100	-25.123	0.100
568.200	-25.829	0.100
568.300	-24.818	0.100
568.400	-27.803	0.100
568.500	-39.844	0.100
568.600	-34.229	0.100
568.700	-30.774	0.100
568.800	-21.388	0.100
568.900	-18.895	0.100
569.000	-26.409	0.100
569.100	-27.779	0.100
569.200	-29.123	0.100
569.300	-24.807	0.100
569.400	-34.909	0.100
569.500	-31.346	0.100
569.600	-27.782	0.100
569.700	-21.697	0.100
569.800	-27.664	0.100
569.900	-25.424	0.100
570.000	-22.635	0.100
570.100	-10.063	0.100
570.200	-29.455	0.100
570.300	-29.049	0.100
570.400	-15.480	0.100
570.500	-19.486	0.100
570.600	-26.840	0.100
570.700	-19.846	0.100
570.800	-24.992	0.100
570.900	-29.408	0.100
571.000	-33.115	0.100
571.100	-29.355	0.100
571.200	-24.130	0.100
571.300	-27.316	0.100
571.400	-19.539	0.100
571.500	-30.037	0.100
571.600	-29.784	0.100
571.700	-20.804	0.100
571.800	-26.504	0.100
571.900	-24.031	0.100
572.000	-30.267	0.100
572.100	-23.551	0.100
572.200	-35.923	0.100
572.300	-29.631	0.100
572.400	-32.471	0.100
572.500	-14.607	0.100
572.600	-30.244	0.100
572.700	-30.468	0.100
572.800	-17.877	0.100
572.900	-29.046	0.100
573.000	-23.269	0.100
573.100	-23.703	0.100
573.200	-22.439	0.100
573.300	-39.150	0.100
573.400	-26.864	0.100
573.500	-20.955	0.100
573.600	-29.514	0.100
573.700	-32.148	0.100
573.800	-25.943	0.100
573.900	-24.283	0.100
574.000	-25.760	0.100
574.100	-22.402	0.100
574.200	-21.778	0.100
574.300	-31.503	0.100
574.400	-25.269	0.100
574.500	-30.430	0.100
574.600	-23.404	0.100
574.700	-28.136	0.100
574.800	-29.019	0.100
574.900	-24.807	0.100
575.000	-23.457	0.100
575.100	-26.848	0.100
575.200	-28.530	0.100
575.300	-23.877	0.100
575.400	-24.725	0.100
575.500	-19.904	0.100
575.600	-18.958	0.100
575.700	-28.522	0.100
575.800	-26.891	0.100
575.900	-21.888	0.100
576.000	-23.363	0.100
576.100	-24.313	0.100
576.200	-31.228	0.100
576.300	-19.392	0.100
576.400	-21.898	0.100
576.500	-26.590	0.100
576.600	-24.146	0.100
576.700	-25.161	0.100
576.800	-32.790	0.100
576.900	-36.311	0.100
577.000	-19.741	0.100
577.100	-27.383	0.100
577.200	-36.169	0.100
577.300	-17.117	0.100
577.400	-27.604	0.100
577.500	-24.521	0.100
577.600	-20.563	0.100
577.700	-26.214	0.100
577.800	-24.197	0.100
577.900	-20.490	0.100
578.000	-25.672	0.100
578.100	-22.474	0.100
578.200	-28.187	0.100
578.300	-24.102	0.100
578.400	-22.905	0.100
578.500	-27.377	0.100
578.600	-27.050	0.100
578.700	-31.959	0.100
578.800	-15.005	0.100
578.900	-19.846	0.100
579.000	-16.761	0.100
579.100	-13.315	0.100
579.200	-27.927	0.100
579.300	-25.712	0.100
579.400	-18.444	0.100
579.500	-25.521	0.100
579.600	-22.519	0.100
579.700	-22.438	0.100
579.800	-25.139	0.100
579.900	-31.819	0.100
580.000	-39.099	0.100
580.100	-13.276	0.100
580.200	-28.101	0.100
580.300	-18.236	0.100
580.400	-22.750	0.100
580.500	-17.562	0.100
580.600	-23.652	0.100
580.700	-19.851	0.100
580.800	-26.324	0.100
580.900	-31.064	0.100
581.000	-26.869	0.100
581.100	-19.316	0.100
581.200	-28.476	0.100
581.300	-42.299	0.100
581.400	-15.035	0.100
581.500	-14.550	0.100
581.600	-34.620	0.100
581.700	-26.584	0.100
581.800	-13.465	0.100
581.900	-24.921	0.100
582.000	-19.456	0.100
582.100	-30.146	0.100
582.200	-22.034	0.100
582.300	-24.595	0.100
582.400	-22.012	0.100
582.500	-27.232	0.100
582.600	-20.051	0.100
582.700	-30.985	0.100
582.800	-39.129	0.100
582.900	-29.197	0.100
583.000	-13.814	0.100
583.100	-20.554	0.100
583.200	-17.117	0.100
583.300	-21.229	0.100
583.400	-29.681	0.100
583.500	-21.877	0.100
583.600	-33.476	0.100
583.700	-26.545	0.100
583.800	-14.374	0.100
583.900	-22.669	0.100
584.000	-26.894	0.100
584.100	-34.971	0.100
584.200	-20.898	0.100
584.300	-19.524	0.100
584.400	-10.804	0.100
584.500	-12.589	0.100
584.600	-16.046	0.100
584.700	-24.590	0.100
584.800	-28.699	0.100
584.900	-26.435	0.100
585.000	-21.657	0.100
585.100	-15.973	0.100
585.200	-19.396	0.100
585.300	-29.831	0.100
585.400	-31.493	0.100
585.500	-36.605	0.100
585.600	-15.159	0.100
585.700	-29.731	0.100
585.800	-21.952	0.100
585.900	-15.266	0.100
586.000	-32.423	0.100
586.100	-16.137	0.100
586.200	-21.995	0.100
586.300	-26.795	0.100
586.400	-22.822	0.100
586.500	-17.026	0.100
586.600	-22.692	0.100
586.700	-33.492	0.100
586.800	-30.909	0.100
586.900	-32.458	0.100
587.000	-20.993	0.100
587.100	-24.000	0.100
587.200	-22.671	0.100
587.300	-20.103	0.100
587.400	-14.084	0.100
587.500	-10.435	0.100
587.600	-10.388	0.100
587.700	-31.925	0.100
587.800	-20.919	0.100
587.900	-13.616	0.100
588.000	-30.036	0.100
588.100	-13.636	0.100
588.200	-4.541	0.100
588.300	-15.136	0.100
588.400	-24.901	0.100
588.500	-39.087	0.100
588.600	-22.421	0.100
588.700	-18.939	0.100
588.800	-18.242	0.100
588.900	-24.471	0.100
589.000	-40.767	0.100
589.100	-18.934	0.100
589.200	-26.077	0.100
589.300	-18.789	0.100
589.400	-15.571	0.100
589.500	-27.370	0.100
589.600	-31.129	0.100
589.700	-18.075	0.100
589.800	-10.196	0.100
589.900	-26.720	0.100
590.000	-24.879	0.100
590.100	-30.231	0.099
590.200	-16.042	0.100
590.300	-19.682	0.100
590.400	-13.883	0.099
590.500	-22.953	0.100
590.600	-24.444	0.100
590.700	-27.210	0.100
590.800	-17.510	0.100
590.900	-22.182	0.100
591.000	-22.873	0.100
591.100	-23.734	0.100
591.200	-14.633	0.100
591.300	-24.674	0.100
591.400	-27.740	0.100
591.500	-27.951	0.100
591.600	-19.216	0.100
591.700	-20.574	0.100
591.800	-19.092	0.100
591.900	-20.312	0.100
592.000	-24.624	0.100
592.100	-14.785	0.100
592.200	-5.632	0.100
592.300	-36.236	0.100
592.400	-21.446	0.100
592.500	-39.468	0.100
592.600	-15.944	0.100
592.700	-12.218	0.100
592.800	-10.164	0.100
592.900	-17.770	0.100
593.000	-35.303	0.100
593.100	-37.124	0.100
593.200	-19.880	0.100
593.300	-15.061	0.100
593.400	-20.383	0.100
593.500	-16.210	0.100
593.600	-25.804	0.100
593.700	-23.633	0.100
593.800	-28.056	0.099
593.900	-15.025	0.100
594.000	-26.829	0.100
594.100	-24.576	0.100
594.200	-18.414	0.100
594.300	-20.517	0.100
594.400	-30.066	0.100
594.500	-28.551	0.100
594.600	-11.162	0.100
594.700	-29.412	0.100
594.800	-19.293	0.100
594.900	-21.997	0.100
595.000	-25.402	0.100
595.100	-21.972	0.100
595.200	-20.041	0.100
595.300	-14.750	0.100
595.400	-43.360	0.100
595.500	-23.200	0.100
595.600	-23.986	0.100
595.700	-18.171	0.100
595.800	-12.401	0.100
595.900	-15.979	0.100
596.000	-23.052	0.100
596.100	-21.004	0.100
596.200	-26.133	0.100
596.300	-22.453	0.100
596.400	-14.044	0.100
596.500	-13.336	0.100
596.600	-21.382	0.100
596.700	-29.617	0.100
596.800	-28.216	0.100
596.900	-14.173	0.100
597.000	-24.005	0.100
597.100	-32.602	0.100
597.200	-30.901	0.100
597.300	-25.720	0.100
597.400	-7.122	0.100
597.500	-14.165	0.100
597.600	-5.186	0.100
597.700	-21.784	0.100
597.800	-19.360	0.100
597.900	-16.044	0.100
598.000	-25.471	0.100
598.100	-17.911	0.100
598.200	-28.291	0.100
598.300	-18.502	0.100
598.400	-11.332	0.100
598.500	-21.533	0.100
598.600	-26.642	0.100
598.700	-28.999	0.100
598.800	-12.260	0.100
598.900	-16.644	0.100
599.000	-16.140	0.100
599.100	-17.994	0.100
599.200	-32.254	0.100
599.300	-19.314	0.100
599.400	-15.535	0.100
599.500	-15.984	0.100
599.600	-18.678	0.100
599.700	-25.261	0.100
599.800	-17.183	0.100
599.900	-24.752	0.100
600.000	-23.194	0.100
600.100	-16.040	0.100
600.200	-24.853	0.100
600.300	-24.918	0.100
600.400	-13.581	0.100
600.500	-20.540	0.100
600.600	-21.507	0.100
600.700	-6.199	0.100
600.800	-21.788	0.100
600.900	-32.716	0.100
601.000	-15.441	0.100
601.100	-19.498	0.100
601.200	-36.417	0.100
601.300	-13.848	0.100
601.400	-19.894	0.100
601.500	-17.772	0.100
601.600	-34.156	0.100
601.700	-31.431	0.100
601.800	-17.148	0.100
601.900	-16.076	0.100
602.000	-31.347	0.100
602.100	-19.355	0.100
602.200	-16.389	0.100
602.300	-15.866	0.100
602.400	-12.865	0.100
602.500	-25.895	0.100
602.600	-34.517	0.100
602.700	-26.837	0.100
602.800	-12.204	0.100
602.900	-10.553	0.100
603.000	-13.777	0.100
603.100	-14.957	0.100
603.200	-35.225	0.100
603.300	-16.570	0.100
603.400	-22.824	0.100
603.500	-14.558	0.100
603.600	-22.614	0.100
603.700	-26.072	0.100
603.800	-14.997	0.100
603.900	-24.625	0.100
604.000	-9.223	0.100
604.100	-4.356	0.100
604.200	-17.310	0.100
604.300	-28.211	0.100
604.400	-25.210	0.100
604.500	-25.694	0.100
604.600	-25.500	0.100
604.700	-27.237	0.100
604.800	-25.544	0.100
604.900	-14.522	0.100
605.000	-16.008	0.100
605.100	-17.808	0.100
605.200	-25.256	0.099
605.300	-8.533	0.100
605.400	-15.527	0.100
605.500	-23.204	0.100
605.600	-25.308	0.100
605.700	-17.966	0.100
605.800	-19.257	0.100
605.900	-19.555	0.100
606.000	-18.063	0.100
606.100	-12.860	0.100
606.200	-8.994	0.100
606.300	-18.920	0.100
606.400	-29.453	0.100
606.500	-13.788	0.100
606.600	-18.117	0.100
606.700	-20.752	0.100
606.800	-16.645	0.100
606.900	-27.951	0.100
607.000	-13.677	0.100
607.100	-15.226	0.100
607.200	-10.482	0.100
607.300	-15.751	0.100
607.400	-19.569	0.100
607.500	-25.437	0.100
607.600	-20.503	0.100
607.700	-11.845	0.100
607.800	-16.404	0.100
607.900	-17.918	0.100
608.000	-19.851	0.100
608.100	-32.079	0.100
608.200	-19.540	0.100
608.300	-20.421	0.100
608.400	-26.605	0.100
608.500	-15.411	0.100
608.600	-19.997	0.100
608.700	-19.256	0.100
608.800	-15.970	0.100
608.900	-19.791	0.100
609.000	-19.970	0.100
609.100	-25.786	0.100
609.200	-24.129	0.100
609.300	-13.405	0.100
609.400	-10.563	0.100
609.500	-10.556	0.100
609.600	-23.110	0.100
609.700	-27.287	0.100
609.800	-28.414	0.100
609.900	-15.024	0.100
610.000	-19.441	0.100
610.100	-19.441	0.100
610.200	-24.262	0.100
610.300	-16.021	0.100
610.400	-21.256	0.100
610.500	-14.770	0.100
610.600	-10.066	0.100
610.700	-18.231	0.100
610.800	-6.286	0.100
610.900	-19.879	0.100
611.000	-24.512	0.100
611.100	-24.894	0.100
611.200	-21.056	0.100
611.300	-22.462	0.100
611.400	-20.240	0.100
611.500	-19.360	0.100
611.600	-15.739	0.100
611.700	-11.932	0.100
611.800	-6.965	0.100
611.900	-13.450	0.100
612.000	-19.086	0.100
612.100	-18.643	0.100
612.200	-18.170	0.100
612.300	-21.310	0.100
612.400	-9.594	0.100
612.500	-12.723	0.100
612.600	-6.976	0.100
612.700	-21.075	0.100
612.800	-19.289	0.100
612.900	-18.845	0.100
613.000	-11.174	0.100
613.100	-22.994	0.100
613.200	-12.078	0.100
613.300	-14.198	0.100
613.400	-27.837	0.100
613.500	-19.969	0.100
613.600	-16.649	0.100
613.700	-15.278	0.100
613.800	-16.103	0.100
613.900	-12.110	0.100
614.000	-14.905	0.100
614.100	-20.589	0.100
614.200	-34.242	0.100
614.300	-9.955	0.100
614.400	-8.517	0.100
614.500	-35.012	0.100
614.600	-25.791	0.100
614.700	-15.487	0.100
614.800	-31.148	0.100
614.900	-17.849	0.100
615.000	-29.554	0.100
615.100	-14.991	0.100
615.200	-8.076	0.100
615.300	-14.355	0.100
615.400	-22.553	0.100
615.500	-33.492	0.100
615.600	-16.395	0.100
615.700	-15.226	0.100
615.800	-6.199	0.100
615.900	-19.837	0.100
616.000	-28.213	0.100
616.100	-20.668	0.100
616.200	-19.243	0.100
616.300	-11.931	0.100
616.400	-17.365	0.100
616.500	-23.088	0.100
616.600	-14.833	0.100
616.700	-18.000	0.100
616.800	-23.568	0.100
616.900	-15.071	0.100
617.000	-20.368	0.100
617.100	-15.925	0.100
617.200	-12.465	0.100
617.300	-17.282	0.100
617.400	-18.424	0.100
617.500	-10.060	0.100
617.600	-26.865	0.100
617.700	-13.515	0.100
617.800	-11.653	0.100
617.900	-14.083	0.100
618.000	-25.408	0.100
618.100	-19.549	0.100
618.200	-17.385	0.100
618.300	-19.226	0.100
618.400	-15.193	0.100
618.500	-9.503	0.100
618.600	-12.667	0.100
618.700	-19.062	0.100
618.800	-15.655	0.100
618.900	-22.268	0.100
619.000	-26.979	0.100
619.100	-18.933	0.100
619.200	-16.507	0.100
619.300	-20.113	0.100
619.400	-27.553	0.100
619.500	-17.773	0.100
619.600	-14.373	0.100
619.700	-14.444	0.100
619.800	-13.881	0.100
619.900	-14.353	0.100
620.000	-14.320	0.100
620.100	-17.292	0.100
620.200	-23.662	0.100
620.300	-11.286	0.100
620.400	-17.017	0.100
620.500	-29.953	0.100
620.600	-15.239	0.100
620.700	-13.193	0.100
620.800	-11.270	0.100
620.900	-12.027	0.100
621.000	-33.652	0.100
621.100	-17.445	0.100
621.200	-22.767	0.100
621.300	-3.865	0.100
621.400	-9.560	0.100
621.500	-18.185	0.100
621.600	-25.798	0.100
621.700	-16.520	0.100
621.800	-12.938	0.100
621.900	-19.097	0.100
622.000	-22.069	0.100
622.100	-17.617	0.100
622.200	-10.549	0.100
622.300	-31.464	0.100
622.400	-18.960	0.100
622.500	-8.996	0.100
622.600	-21.708	0.100
622.700	-16.708	0.100
622.800	-27.878	0.100
622.900	-9.623	0.100
623.000	-15.199	0.100
623.100	-12.220	0.100
623.200	-15.390	0.100
623.300	-11.353	0.100
623.400	-24.644	0.100
623.500	-12.387	0.100
623.600	-23.671	0.100
623.700	-24.261	0.100
623.800	-17.056	0.100
623.900	-10.014	0.100
624.000	-29.403	0.100
624.100	-9.546	0.100
624.200	-23.942	0.100
624.300	-29.219	0.100
624.400	-21.564	0.100
624.500	-25.556	0.100
624.600	0.835	0.100
624.700	-13.581	0.100
624.800	-15.477	0.100
624.900	-19.623	0.100
625.000	-27.507	0.100
625.100	-12.909	0.100
625.200	-10.693	0.100
625.300	-16.639	0.100
625.400	-16.783	0.100
625.500	-17.896	0.100
625.600	-19.600	0.100
625.700	-18.950	0.100
625.800	-23.181	0.100
625.900	-9.636	0.100
626.000	-22.474	0.100
626.100	-21.377	0.100
626.200	-10.759	0.100
626.300	-14.272	0.100
626.400	-13.807	0.100
626.500	-19.968	0.100
626.600	-3.932	0.100
626.700	-28.070	0.100
626.800	-8.303	0.100
626.900	-19.201	0.100
627.000	-10.756	0.100
627.100	-15.406	0.100
627.200	-17.264	0.100
627.300	-8.481	0.100
627.400	-17.154	0.100
627.500	-22.672	0.100
627.600	-16.193	0.100
627.700	-13.126	0.100
627.800	-26.086	0.100
627.900	-24.024	0.100
628.000	-22.132	0.100
628.100	-13.858	0.100
628.200	-22.784	0.100
628.300	-31.660	0.100
628.400	-7.141	0.100
628.500	-21.323	0.100
628.600	-8.032	0.100
628.700	-12.428	0.100
628.800	-28.940	0.100
628.900	-23.478	0.100
629.000	-7.686	0.100
629.100	-25.190	0.100
629.200	-5.869	0.100
629.300	-4.766	0.100
629.400	-5.375	0.100
629.500	-24.322	0.100
629.600	-10.003	0.100
629.700	-18.933	0.100
629.800	-1.363	0.100
629.900	-20.248	0.100
630.000	-12.897	0.100
630.100	-17.715	0.100
630.200	-20.703	0.100
630.300	-3.874	0.100
630.400	3.837	0.100
630.500	11.320	0.100
630.600	4.634	0.100
630.700	7.577	0.100
630.800	10.035	0.100
630.900	44.968	0.100
631.000	20.275	0.100
631.100	36.114	0.100
631.200	30.701	0.100
631.300	30.670	0.100
631.400	47.392	0.100
631.500	37.922	0.100
631.600	32.489	0.100
631.700	42.606	0.100
631.800	37.452	0.100
631.900	47.718	0.100
632.000	45.716	0.100
632.100	50.504	0.100
632.200	35.736	0.100
632.300	47.431	0.100
632.400	49.165	0.100
632.500	21.574	0.100
632.600	38.300	0.100
632.700	44.282	0.100
632.800	39.762	0.100
632.900	31.488	0.100
633.000	45.833	0.100
633.100	40.629	0.100
633.200	37.334	0.100
633.300	44.636	0.100
633.400	40.948	0.100
633.500	35.685	0.100
633.600	28.907	0.100
633.700	35.246	0.100
633.800	14.588	0.100
633.900	23.767	0.100
634.000	18.851	0.100
634.100	23.430	0.100
634.200	34.652	0.100
634.300	34.417	0.100
634.400	36.716	0.100
634.500	23.087	0.100
634.600	11.960	0.100
634.700	21.013	0.100
634.800	31.273	0.100
634.900	26.947	0.100
635.000	33.083	0.100
635.100	35.115	0.100
635.200	23.590	0.100
635.300	20.639	0.100
635.400	33.718	0.100
635.500	20.718	0.100
635.600	33.206	0.100
635.700	17.795	0.100
635.800	33.074	0.100
635.900	39.699	0.100
636.000	28.469	0.100
636.100	30.211	0.100
636.200	26.046	0.100
636.300	40.107	0.100
636.400	40.448	0.100
636.500	24.014	0.100
636.600	45.210	0.100
636.700	33.496	0.100
636.800	40.176	0.100
636.900	52.058	0.100
637.000	31.499	0.100
637.100	16.591	0.100
637.200	46.655	0.100
637.300	41.421	0.100
637.400	35.520	0.100
637.500	31.521	0.100
637.600	46.693	0.100
637.700	49.118	0.100
637.800	53.901	0.100
637.900	47.266	0.100
638.000	36.141	0.100
638.100	39.048	0.100
638.200	48.376	0.100
638.300	41.917	0.100
638.400	39.128	0.100
638.500	43.168	0.100
638.600	44.161	0.099
638.700	47.754	0.100
638.800	36.847	0.100
638.900	43.081	0.100
639.000	40.687	0.100
639.100	41.835	0.100
639.200	42.619	0.100
639.300	48.271	0.100
639.400	58.481	0.100
639.500	33.292	0.100
639.600	48.699	0.100
639.700	45.511	0.100
639.800	44.434	0.100
639.900	45.225	0.100
640.000	47.940	0.100
640.100	47.282	0.100
640.200	59.561	0.100
640.300	49.874	0.100
640.400	48.661	0.100
640.500	52.988	0.100
640.600	48.629	0.100
640.700	54.197	0.100
640.800	50.272	0.100
640.900	49.638	0.100
641.000	45.027	0.100
641.100	53.502	0.100
641.200	66.324	0.100
641.300	54.234	0.100
641.400	42.209	0.100
641.500	44.638	0.100
641.600	37.060	0.100
641.700	49.380	0.100
641.800	56.415	0.100
641.900	51.918	0.100
642.000	49.581	0.100
642.100	58.894	0.100
642.200	56.912	0.100
642.300	51.072	0.100
642.400	70.467	0.100
642.500	49.897	0.100
642.600	50.558	0.100
642.700	57.298	0.100
642.800	52.094	0.100
642.900	63.273	0.100
643.000	58.962	0.100
643.100	70.836	0.100
643.200	50.188	0.100
643.300	61.167	0.100
643.400	55.694	0.100
643.500	51.934	0.100
643.600	57.092	0.100
643.700	71.596	0.100
643.800	62.346	0.100
643.900	64.021	0.100
644.000	59.325	0.100
644.100	63.082	0.100
644.200	69.924	0.100
644.300	60.602	0.100
644.400	65.245	0.100
644.500	56.879	0.100
644.600	54.597	0.100
644.700	62.401	0.100
644.800	55.846	0.100
644.900	59.387	0.100
645.000	53.651	0.100
645.100	62.440	0.100
645.200	53.355	0.100
645.300	67.220	0.100
645.400	56.779	0.100
645.500	71.423	0.100
645.600	61.542	0.100
645.700	60.384	0.100
645.800	52.320	0.100
645.900	68.140	0.100
646.000	65.662	0.100
646.100	61.277	0.100
646.200	74.483	0.100
646.300	57.789	0.100
646.400	75.638	0.100
646.500	62.677	0.100
646.600	60.664	0.100
646.700	58.447	0.100
646.800	66.091	0.100
646.900	69.473	0.100
647.000	48.309	0.100
647.100	71.336	0.100
647.200	70.017	0.100
647.300	67.992	0.100
647.400	52.491	0.100
647.500	60.760	0.100
647.600	66.537	0.100
647.700	68.421	0.100
647.800	73.676	0.100
647.900	62.100	0.100
648.000	72.006	0.100
648.100	56.520	0.100
648.200	75.798	0.100
648.300	70.154	0.100
648.400	65.939	0.100
648.500	62.761	0.100
648.600	67.724	0.100
648.700	68.862	0.100
648.800	58.179	0.100
648.900	83.015	0.100
649.000	74.880	0.100
649.100	63.359	0.100
649.200	61.116	0.100
649.300	56.631	0.100
649.400	73.109	0.100
649.500	82.427	0.100
649.600	72.763	0.100
649.700	72.820	0.100
649.800	61.789	0.100
649.900	60.928	0.100
650.000	60.626	0.100
650.100	68.290	0.100
650.200	65.886	0.100
650.300	69.460	0.100
650.400	70.433	0.100
650.500	68.074	0.100
650.600	61.046	0.100
650.700	71.646	0.100
650.800	64.427	0.100
650.900	68.578	0.100
651.000	75.544	0.100
651.100	75.570	0.100
651.200	67.835	0.100
651.300	52.273	0.100
651.400	84.162	0.100
651.500	76.860	0.100
651.600	57.976	0.100
651.700	74.929	0.100
651.800	77.002	0.100
651.900	77.160	0.100
652.000	67.409	0.100
652.100	67.476	0.100
652.200	78.760	0.100
652.300	70.984	0.100
652.400	67.644	0.100
652.500	76.502	0.100
652.600	63.410	0.100
652.700	64.249	0.100
652.800	71.823	0.100
652.900	60.226	0.100
653.000	79.312	0.100
653.100	66.957	0.100
653.200	72.662	0.100
653.300	75.523	0.100
653.400	81.561	0.100
653.500	64.983	0.100
653.600	79.970	0.100
653.700	80.148	0.100
653.800	72.783	0.100
653.900	74.272	0.100
654.000	74.469	0.100
654.100	73.329	0.100
654.200	75.544	0.100
654.300	70.501	0.100
654.400	74.574	0.100
654.500	77.310	0.100
654.600	83.615	0.100
654.700	70.693	0.100
654.800	66.817	0.100
654.900	55.804	0.100
655.000	80.436	0.100
655.100	73.028	0.100
655.200	72.262	0.100
655.300	80.371	0.100
655.400	70.005	0.100
655.500	76.369	0.100
655.600	64.008	0.100
655.700	77.447	0.100
655.800	78.707	0.100
655.900	71.950	0.100
656.000	73.985	0.100
656.100	71.687	0.100
656.200	76.359	0.100
656.300	63.893	0.100
656.400	78.635	0.100
656.500	82.443	0.100
656.600	75.876	0.100
656.700	84.082	0.100
656.800	72.340	0.100
656.900	80.401	0.100
657.000	72.250	0.100
657.100	70.354	0.100
657.200	67.460	0.100
657.300	91.260	0.100
657.400	75.157	0.100
657.500	81.056	0.100
657.600	72.758	0.100
657.700	85.254	0.100
657.800	75.139	0.100
657.900	78.699	0.100
658.000	70.789	0.100
658.100	69.387	0.100
658.200	62.715	0.100
658.300	67.913	0.100
658.400	83.196	0.100
658.500	76.765	0.100
658.600	73.563	0.100
658.700	67.447	0.100
658.800	87.560	0.100
658.900	80.099	0.100
659.000	82.418	0.100
659.100	91.759	0.100
659.200	81.564	0.100
659.300	82.342	0.100
659.400	84.456	0.100
659.500	77.854	0.100
659.600	67.791	0.100
659.700	75.813	0.100
659.800	84.336	0.100
659.900	66.667	0.100
660.000	73.216	0.100
660.100	85.543	0.100
660.200	79.776	0.100
660.300	82.827	0.100
660.400	78.472	0.100
660.500	62.567	0.100
660.600	75.914	0.100
660.700	72.984	0.100
660.800	78.981	0.100
660.900	78.876	0.100
661.000	76.514	0.100
661.100	61.689	0.100
661.200	92.605	0.100
661.300	92.525	0.100
661.400	80.884	0.100
661.500	75.617	0.100
661.600	72.631	0.100
661.700	74.709	0.100
661.800	69.099	0.100
661.900	65.066	0.100
662.000	79.322	0.100
662.100	90.595	0.100
662.200	69.723	0.100
662.300	88.920	0.100
662.400	77.553	0.100
662.500	80.395	0.100
662.600	81.148	0.100
662.700	80.631	0.100
662.800	84.997	0.100
662.900	80.402	0.100
663.000	75.908	0.100
663.100	78.550	0.100
663.200	72.899	0.100
663.300	79.844	0.100
663.400	70.702	0.100
663.500	86.470	0.100
663.600	66.472	0.100
663.700	79.672	0.100
663.800	78.428	0.100
663.900	76.657	0.100
664.000	74.017	0.100
664.100	73.237	0.100
664.200	83.719	0.100
664.300	76.471	0.100
664.400	72.696	0.100
664.500	66.146	0.100
664.600	78.482	0.100
664.700	77.868	0.100
664.800	82.262	0.100
664.900	71.193	0.100
665.000	79.001	0.100
665.100	70.755	0.100
665.200	81.232	0.100
665.300	74.706	0.100
665.400	81.042	0.100
665.500	76.157	0.100
665.600	84.839	0.100
665.700	64.152	0.100
665.800	72.661	0.100
665.900	89.084	0.100
666.000	71.884	0.100
666.100	69.127	0.100
666.200	73.484	0.100
666.300	71.811	0.100
666.400	68.088	0.100
666.500	89.468	0.100
666.600	94.450	0.100
666.700	70.427	0.100
666.800	78.070	0.100
666.900	66.417	0.100
667.000	77.368	0.100
667.100	73.490	0.100
667.200	67.192	0.100
667.300	84.816	0.100
667.400	73.759	0.100
667.500	70.311	0.100
667.600	68.705	0.100
667.700	67.212	0.100
667.800	70.689	0.100
667.900	71.668	0.100
668.000	75.859	0.100
668.100	55.419	0.100
668.200	75.248	0.100
668.300	73.284	0.100
668.400	76.370	0.100
668.500	79.355	0.100
668.600	76.773	0.100
668.700	70.947	0.100
668.800	74.796	0.100
668.900	69.132	0.100
669.000	68.562	0.100
669.100	67.348	0.100
669.200	67.394	0.100
669.300	71.949	0.100
669.400	71.315	0.100
669.500	72.618	0.100
669.600	84.670	0.100
669.700	60.675	0.100
669.800	78.131	0.100
669.900	67.941	0.100
670.000	69.283	0.100
670.100	76.243	0.100
670.200	64.414	0.100
670.300	67.952	0.100
670.400	74.476	0.100
670.500	73.436	0.100
670.600	77.049	0.100
670.700	59.556	0.100
670.800	66.251	0.100
670.900	66.129	0.100
671.000	68.316	0.100
671.100	68.257	0.100
671.200	87.597	0.100
671.300	78.292	0.100
671.400	66.803	0.100
671.500	52.681	0.100
671.600	73.242	0.100
671.700	85.641	0.100
671.800	66.613	0.100
671.900	71.695	0.100
672.000	76.157	0.100
672.100	65.025	0.100
672.200	73.565	0.099
672.300	69.413	0.100
672.400	56.525	0.100
672.500	72.353	0.100
672.600	68.081	0.100
672.700	70.877	0.100
672.800	60.448	0.100
672.900	62.055	0.100
673.000	73.248	0.100
673.100	69.715	0.100
673.200	74.253	0.100
673.300	69.701	0.100
673.400	53.106	0.100
673.500	68.044	0.100
673.600	53.915	0.100
673.700	77.713	0.100
673.800	64.331	0.100
673.900	67.984	0.100
674.000	78.722	0.100
674.100	57.646	0.100
674.200	67.075	0.100
674.300	63.747	0.100
674.400	65.496	0.100
674.500	67.099	0.100
674.600	58.116	0.100
674.700	77.030	0.100
674.800	66.197	0.100
674.900	60.719	0.099
675.000	53.336	0.100
675.100	63.130	0.100
675.200	81.745	0.100
675.300	55.946	0.100
675.400	60.396	0.100
675.500	65.006	0.100
675.600	66.594	0.100
675.700	72.954	0.100
675.800	71.018	0.100
675.900	73.422	0.100
676.000	56.559	0.100
676.100	67.209	0.100
676.200	61.273	0.100
676.300	74.585	0.100
676.400	68.779	0.100
676.500	64.723	0.100
676.600	64.098	0.100
676.700	65.519	0.100
676.800	49.976	0.100
676.900	50.382	0.100
677.000	82.166	0.100
677.100	61.553	0.100
677.200	62.642	0.100
677.300	65.761	0.100
677.400	61.754	0.100
677.500	55.214	0.099
677.600	73.851	0.100
677.700	74.061	0.100
677.800	64.803	0.100
677.900	62.002	0.100
678.000	62.601	0.100
678.100	58.669	0.100
678.200	58.277	0.100
678.300	68.112	0.100
678.400	61.036	0.100
678.500	53.161	0.100
678.600	55.516	0.100
678.700	62.762	0.100
678.800	65.889	0.100
678.900	70.431	0.100
679.000	74.039	0.100
679.100	67.302	0.100
679.200	52.861	0.100
679.300	62.699	0.100
679.400	67.043	0.100
679.500	54.074	0.100
679.600	70.781	0.100
679.700	67.963	0.100
679.800	59.044	0.100
679.900	63.767	0.100
680.000	71.429	0.100
680.100	64.840	0.100
680.200	76.231	0.100
680.300	53.711	0.100
680.400	59.393	0.100
680.500	69.487	0.100
680.600	71.159	0.100
680.700	59.594	0.100
680.800	59.418	0.100
680.900	72.560	0.100
681.000	52.471	0.100
681.100	69.611	0.100
681.200	51.992	0.100
681.300	64.826	0.100
681.400	63.471	0.100
681.500	55.158	0.100
681.600	67.591	0.100
681.700	72.308	0.100
681.800	70.993	0.100
681.900	61.235	0.100
682.000	58.171	0.100
682.100	58.825	0.100
682.200	64.347	0.100
682.300	59.360	0.100
682.400	54.605	0.100
682.500	59.039	0.100
682.600	74.580	0.100
682.700	63.679	0.100
682.800	75.171	0.100
682.900	52.858	0.100
683.000	53.161	0.100
683.100	67.007	0.100
683.200	67.364	0.100
683.300	68.116	0.100
683.400	55.342	0.100
683.500	69.951	0.100
683.600	82.962	0.100
683.700	54.386	0.100
683.800	66.966	0.100
683.900	63.125	0.100
684.000	63.320	0.100
684.100	57.085	0.100
684.200	60.276	0.100
684.300	59.223	0.100
684.400	54.236	0.100
684.500	70.595	0.100
684.600	72.753	0.100
684.700	61.438	0.100
684.800	70.574	0.100
684.900	61.467	0.100
685.000	60.736	0.100
685.100	76.250	0.100
685.200	63.825	0.100
685.300	58.550	0.099
685.400	57.788	0.100
685.500	67.127	0.100
685.600	51.673	0.100
685.700	67.573	0.100
685.800	83.246	0.100
685.900	73.871	0.100
686.000	73.852	0.100
686.100	66.928	0.100
686.200	62.472	0.100
686.300	60.792	0.100
686.400	68.127	0.100
686.500	74.121	0.100
686.600	61.773	0.100
686.700	67.569	0.100
686.800	61.380	0.100
686.900	52.427	0.100
687.000	72.137	0.100
687.100	62.195	0.100
687.200	54.982	0.100
687.300	72.195	0.100
687.400	72.185	0.100
687.500	71.618	0.100
687.600	53.837	0.100
687.700	70.662	0.100
687.800	83.505	0.100
687.900	69.522	0.100
688.000	62.358	0.100
688.100	71.737	0.100
688.200	72.469	0.100
688.300	49.359	0.100
688.400	69.854	0.100
688.500	73.178	0.100
688.600	69.958	0.100
688.700	68.358	0.100
688.800	61.648	0.100
688.900	53.994	0.100
689.000	57.093	0.100
689.100	66.008	0.100
689.200	76.166	0.100
689.300	62.746	0.100
689.400	61.395	0.100
689.500	65.265	0.100
689.600	52.190	0.100
689.700	60.886	0.100
689.800	75.234	0.100
689.900	80.901	0.100
690.000	63.816	0.100
690.100	63.250	0.100
690.200	53.247	0.100
690.300	55.627	0.100
690.400	35.305	0.100
690.500	31.644	0.100
690.600	16.625	0.100
690.700	-11.582	0.100
690.800	-16.597	0.100
690.900	-37.488	0.100
691.000	-46.857	0.100
691.100	-51.529	0.100
691.200	-59.537	0.100
691.300	-62.342	0.100
691.400	-78.629	0.100
691.500	-82.240	0.100
691.600	-100.783	0.100
691.700	-92.469	0.100
691.800	-96.251	0.100
691.900	-104.863	0.100
692.000	-108.182	0.100
692.100	-121.485	0.100
692.200	-114.236	0.100
692.300	-115.796	0.100
692.400	-121.584	0.100
692.500	-102.028	0.100
692.600	-118.679	0.100
692.700	-122.010	0.100
692.800	-121.123	0.100
692.900	-120.991	0.100
693.000	-110.741	0.100
693.100	-124.965	0.100
693.200	-128.071	0.100
693.300	-108.522	0.100
693.400	-103.061	0.100
693.500	-130.902	0.100
693.600	-128.432	0.100
693.700	-111.651	0.100
693.800	-106.190	0.100
693.900	-109.681	0.100
694.000	-110.734	0.100
694.100	-113.792	0.100
694.200	-108.694	0.100
694.300	-98.300	0.100
694.400	-106.752	0.100
694.500	-108.477	0.100
694.600	-107.075	0.100
694.700	-96.996	0.100
694.800	-105.233	0.100
694.900	-106.308	0.100
695.000	-102.755	0.100
695.100	-104.106	0.100
695.200	-108.908	0.100
695.300	-99.419	0.100
695.400	-84.170	0.100
695.500	-82.379	0.100
695.600	-84.599	0.100
695.700	-82.584	0.100
695.800	-81.506	0.100
695.900	-80.561	0.100
696.000	-83.574	0.100
696.100	-86.793	0.100
696.200	-68.114	0.100
696.300	-83.519	0.100
696.400	-72.537	0.100
696.500	-96.398	0.100
696.600	-87.954	0.100
696.700	-77.418	0.100
696.800	-77.963	0.100
696.900	-62.717	0.100
697.000	-64.943	0.100
697.100	-87.191	0.100
697.200	-68.711	0.100
697.300	-55.899	0.100
697.400	-61.204	0.100
697.500	-74.908	0.100
697.600	-60.862	0.100
697.700	-71.693	0.100
697.800	-69.713	0.100
697.900	-66.456	0.100
698.000	-45.384	0.100
698.100	-45.668	0.100
698.200	-51.506	0.100
698.300	-66.027	0.100
698.400	-67.976	0.100
698.500	-53.003	0.100
698.600	-54.259	0.100
698.700	-52.475	0.100
698.800	-46.548	0.100
698.900	-53.971	0.100
699.000	-48.699	0.100
699.100	-49.012	0.100
699.200	-48.306	0.100
699.300	-44.322	0.100
699.400	-46.442	0.100
699.500	-45.432	0.100
699.600	-52.200	0.100
699.700	-61.116	0.100
699.800	-49.178	0.100
699.900	-39.719	0.100
700.000	-44.446	0.100
700.100	-38.378	0.100
700.200	-44.903	0.100
700.300	-47.552	0.100
700.400	-43.185	0.100
700.500	-42.135	0.100
700.600	-44.986	0.100
700.700	-42.802	0.100
700.800	-48.220	0.100
700.900	-52.649	0.100
701.000	-51.201	0.100
701.100	-45.019	0.100
701.200	-32.914	0.100
701.300	-38.688	0.100
701.400	-36.691	0.100
701.500	-44.435	0.100
701.600	-40.955	0.100
701.700	-41.779	0.100
701.800	-52.157	0.100
701.900	-43.290	0.100
702.000	-39.840	0.100
702.100	-40.579	0.100
702.200	-36.588	0.100
702.300	-38.540	0.100
702.400	-36.831	0.100
702.500	-39.676	0.100
702.600	-37.320	0.100
702.700	-36.917	0.100
702.800	-37.538	0.100
702.900	-45.598	0.100
703.000	-41.981	0.100
703.100	-32.538	0.100
703.200	-43.879	0.100
703.300	-37.192	0.100
703.400	-42.356	0.100
703.500	-41.991	0.100
703.600	-34.645	0.100
703.700	-41.268	0.100
703.800	-38.807	0.100
703.900	-43.562	0.100
704.000	-40.494	0.100
704.100	-44.988	0.100
704.200	-44.672	0.100
704.300	-39.279	0.100
704.400	-34.698	0.100
704.500	-31.273	0.100
704.600	-32.891	0.099
704.700	-49.283	0.100
704.800	-43.182	0.100
704.900	-30.711	0.099
705.000	-38.679	0.100
705.100	-33.419	0.100
705.200	-43.157	0.100
705.300	-43.381	0.100
705.400	-44.572	0.100
705.500	-34.913	0.100
705.600	-30.585	0.100
705.700	-32.986	0.100
705.800	-49.996	0.100
705.900	-36.359	0.100
706.000	-20.979	0.100
706.100	-38.002	0.100
706.200	-28.392	0.100
706.300	-53.954	0.100
706.400	-32.388	0.100
706.500	-30.766	0.100
706.600	-43.510	0.100
706.700	-39.830	0.100
706.800	-33.494	0.099
706.900	-35.975	0.100
707.000	-34.016	0.100
707.100	-38.309	0.100
707.200	-32.338	0.100
707.300	-45.844	0.100
707.400	-44.595	0.100
707.500	-25.742	0.100
707.600	-36.420	0.100
707.700	-39.798	0.100
707.800	-35.758	0.100
707.900	-37.914	0.100
708.000	-32.573	0.100
708.100	-41.462	0.100
708.200	-32.365	0.100
708.300	-32.544	0.100
708.400	-33.375	0.100
708.500	-44.660	0.100
708.600	-41.004	0.100
708.700	-34.093	0.100
708.800	-29.440	0.100
708.900	-27.714	0.100
709.000	-36.788	0.100
709.100	-32.921	0.100
709.200	-38.180	0.100
709.300	-32.342	0.100
709.400	-31.521	0.100
709.500	-43.530	0.100
709.600	-28.031	0.100
709.700	-40.406	0.100
709.800	-51.334	0.100
709.900	-33.131	0.100
710.000	-35.920	0.100
710.100	-39.866	0.100
710.200	-25.569	0.100
710.300	-25.191	0.100
710.400	-25.658	0.100
710.500	-33.661	0.100
710.600	-41.530	0.100
710.700	-41.038	0.100
710.800	-26.339	0.100
710.900	-25.473	0.100
711.000	-31.418	0.100
711.100	-50.612	0.099
711.200	-35.520	0.100
711.300	-24.573	0.100
711.400	-35.123	0.100
711.500	-30.572	0.100
711.600	-36.491	0.100
711.700	-37.645	0.100
711.800	-45.345	0.100
711.900	-36.062	0.100
712.000	-37.624	0.100
712.100	-28.270	0.100
712.200	-28.152	0.100
712.300	-38.328	0.100
712.400	-29.219	0.100
712.500	-36.699	0.100
712.600	-33.505	0.100
712.700	-32.235	0.100
712.800	-25.670	0.100
712.900	-34.483	0.099
713.000	-27.799	0.100
713.100	-36.788	0.100
713.200	-21.383	0.100
713.300	-36.532	0.100
713.400	-37.249	0.100
713.500	-40.073	0.100
713.600	-35.277	0.100
713.700	-23.773	0.100
713.800	-42.340	0.100
713.900	-41.599	0.100
714.000	-27.429	0.100
714.100	-38.265	0.100
714.200	-32.030	0.100
714.300	-34.054	0.100
714.400	-27.658	0.100
714.500	-33.530	0.100
714.600	-27.102	0.100
714.700	-24.056	0.100
714.800	-31.364	0.100
714.900	-43.469	0.100
715.000	-27.018	0.100
715.100	-27.277	0.100
715.200	-42.806	0.100
715.300	-23.991	0.100
715.400	-37.821	0.100
715.500	-38.676	0.100
715.600	-28.828	0.100
715.700	-30.086	0.100
715.800	-28.459	0.100
715.900	-21.644	0.100
716.000	-32.415	0.100
716.100	-34.694	0.100
716.200	-30.477	0.100
716.300	-31.105	0.100
716.400	-31.732	0.100
716.500	-34.743	0.100
716.600	-26.300	0.100
716.700	-36.981	0.100
716.800	-35.644	0.100
716.900	-27.074	0.100
717.000	-25.184	0.100
717.100	-32.013	0.100
717.200	-36.256	0.100
717.300	-34.086	0.100
717.400	-34.900	0.100
717.500	-31.297	0.100
717.600	-30.915	0.100
717.700	-28.384	0.100
717.800	-22.114	0.100
717.900	-32.500	0.100
718.000	-35.477	0.100
718.100	-41.447	0.100
718.200	-33.193	0.100
718.300	-29.435	0.100
718.400	-30.193	0.100
718.500	-38.546	0.100
718.600	-24.655	0.100
718.700	-33.668	0.100
718.800	-23.027	0.100
718.900	-26.547	0.100
719.000	-31.637	0.100
719.100	-27.460	0.100
719.200	-29.335	0.100
719.300	-41.608	0.100
719.400	-24.649	0.100
719.500	-39.289	0.100
719.600	-21.450	0.100
719.700	-37.045	0.100
719.800	-28.922	0.100
719.900	-26.958	0.100
720.000	-31.822	0.100
720.100	-38.878	0.100
720.200	-30.764	0.100
720.300	-41.150	0.100
720.400	-30.013	0.100
720.500	-30.557	0.100
720.600	-38.827	0.100
720.700	-33.456	0.100
720.800	-27.334	0.100
720.900	-30.064	0.100
721.000	-29.799	0.100
721.100	-39.338	0.100
721.200	-27.998	0.100
721.300	-29.688	0.100
721.400	-24.971	0.099
721.500	-31.751	0.100
721.600	-30.923	0.100
721.700	-31.475	0.100
721.800	-31.331	0.100
721.900	-31.764	0.100
722.000	-30.326	0.100
722.100	-36.783	0.100
722.200	-29.710	0.100
722.300	-33.093	0.100
722.400	-29.151	0.100
722.500	-26.637	0.100
722.600	-23.744	0.100
722.700	-40.017	0.100
722.800	-35.282	0.100
722.900	-21.480	0.100
723.000	-34.669	0.100
723.100	-31.117	0.100
723.200	-38.559	0.100
723.300	-34.128	0.100
723.400	-21.998	0.100
723.500	-44.184	0.100
723.600	-29.301	0.100
723.700	-20.483	0.100
723.800	-9.903	0.100
723.900	-32.754	0.100
724.000	-32.847	0.100
724.100	-19.973	0.100
724.200	-28.038	0.100
724.300	-35.060	0.100
724.400	-16.536	0.100
724.500	-32.591	0.100
724.600	-31.082	0.100
724.700	-19.837	0.100
724.800	-25.084	0.100
724.900	-36.816	0.100
725.000	-35.578	0.100
725.100	-33.996	0.100
725.200	-26.620	0.100
725.300	-28.983	0.100
725.400	-33.397	0.100
725.500	-22.089	0.100
725.600	-29.871	0.100
725.700	-27.861	0.100
725.800	-38.425	0.100
725.900	-35.925	0.100
726.000	-19.489	0.100
726.100	-25.723	0.100
726.200	-24.075	0.100
726.300	-19.025	0.100
726.400	-28.409	0.100
726.500	-32.992	0.100
726.600	-23.845	0.100
726.700	-28.600	0.100
726.800	-31.129	0.100
726.900	-20.304	0.100
727.000	-32.557	0.100
727.100	-35.572	0.100
727.200	-26.682	0.100
727.300	-31.671	0.100
727.400	-34.264	0.100
727.500	-19.537	0.100
727.600	-18.040	0.100
727.700	-26.704	0.100
727.800	-26.988	0.100
727.900	-34.652	0.100
728.000	-23.787	0.100
728.100	-26.338	0.100
728.200	-20.438	0.100
728.300	-25.627	0.100
728.400	-19.131	0.100
728.500	-22.730	0.100
728.600	-26.479	0.100
728.700	-38.857	0.100
728.800	-20.958	0.100
728.900	-28.620	0.100
729.000	-29.846	0.100
729.100	-19.534	0.100
729.200	-21.577	0.100
729.300	-32.603	0.100
729.400	-28.048	0.100
729.500	-25.636	0.100
729.600	-20.782	0.100
729.700	-19.035	0.100
729.800	-38.066	0.100
729.900	-21.273	0.100
730.000	-28.431	0.100
730.100	-34.543	0.100
730.200	-22.069	0.100
730.300	-23.243	0.100
730.400	-24.464	0.100
730.500	-40.346	0.100
730.600	-35.271	0.100
730.700	-23.540	0.100
730.800	-29.255	0.100
730.900	-34.944	0.100
731.000	-27.402	0.100
731.100	-26.751	0.100
731.200	-31.139	0.100
731.300	-29.989	0.100
731.400	-11.335	0.100
731.500	-22.009	0.100
731.600	-39.702	0.100
731.700	-23.292	0.100
731.800	-22.935	0.100
731.900	-26.892	0.100
732.000	-37.415	0.100
732.100	-22.708	0.100
732.200	-29.628	0.100
732.300	-25.817	0.100
732.400	-32.314	0.100
732.500	-31.057	0.100
732.600	-22.037	0.100
732.700	-27.288	0.100
732.800	-30.935	0.100
732.900	-27.974	0.100
733.000	-25.435	0.100
733.100	-20.289	0.100
733.200	-28.974	0.100
733.300	-21.159	0.100
733.400	-29.632	0.100
733.500	-23.355	0.100
733.600	-24.452	0.100
733.700	-24.615	0.100
733.800	-37.892	0.100
733.900	-28.501	0.100
734.000	-37.749	0.100
734.100	-32.155	0.100
734.200	-24.979	0.100
734.300	-20.457	0.100
734.400	-33.156	0.100
734.500	-30.635	0.100
734.600	-26.561	0.100
734.700	-28.142	0.100
734.800	-20.481	0.100
734.900	-24.694	0.100
735.000	-22.862	0.100
735.100	-29.550	0.100
735.200	-23.977	0.100
735.300	-36.833	0.100
735.400	-23.215	0.100
735.500	-25.649	0.100
735.600	-23.822	0.100
735.700	-17.083	0.100
735.800	-33.770	0.100
735.900	-24.188	0.100
736.000	-45.989	0.100
736.100	-20.429	0.100
736.200	-28.954	0.100
736.300	-15.880	0.100
736.400	-30.676	0.100
736.500	-26.044	0.100
736.600	-24.940	0.100
736.700	-29.397	0.100
736.800	-35.940	0.100
736.900	-28.466	0.100
737.000	-20.664	0.100
737.100	-28.229	0.100
737.200	-22.027	0.100
737.300	-32.335	0.100
737.400	-18.942	0.100
737.500	-19.408	0.100
737.600	-23.976	0.100
737.700	-33.619	0.100
737.800	-16.045	0.100
737.900	-23.539	0.100
738.000	-25.684	0.100
738.100	-19.200	0.100
738.200	-31.755	0.100
738.300	-21.930	0.100
738.400	-21.055	0.100
738.500	-23.317	0.100
738.600	-28.558	0.100
738.700	-33.459	0.100
738.800	-28.436	0.100
738.900	-17.112	0.099
739.000	-24.599	0.100
739.100	-20.776	0.100
739.200	-22.623	0.100
739.300	-28.877	0.100
739.400	-25.183	0.100
739.500	-28.276	0.100
739.600	-32.179	0.100
739.700	-23.344	0.100
739.800	-20.572	0.100
739.900	-25.961	0.100
740.000	-35.950	0.100
740.100	-22.221	0.100
740.200	-27.162	0.100
740.300	-30.342	0.100
740.400	-20.574	0.100
740.500	-21.801	0.100
740.600	-21.320	0.100
740.700	-23.525	0.100
740.800	-31.780	0.100
740.900	-22.983	0.100
741.000	-25.230	0.100
741.100	-21.050	0.100
741.200	-21.788	0.100
741.300	-20.455	0.100
741.400	-26.451	0.099
741.500	-28.953	0.100
741.600	-28.235	0.100
741.700	-21.053	0.100
741.800	-26.925	0.100
741.900	-9.851	0.100
742.000	-18.956	0.100
742.100	-22.067	0.100
742.200	-20.909	0.100
742.300	-20.020	0.100
742.400	-30.769	0.100
742.500	-22.596	0.100
742.600	-18.875	0.100
742.700	-22.999	0.100
742.800	-25.207	0.100
742.900	-10.368	0.100
743.000	-35.467	0.100
743.100	-29.582	0.100
743.200	-26.991	0.100
743.300	-23.102	0.100
743.400	-26.565	0.100
743.500	-38.027	0.100
743.600	-20.922	0.100
743.700	-23.768	0.100
743.800	-18.581	0.100
743.900	-28.618	0.100
744.000	-28.951	0.100
744.100	-13.539	0.100
744.200	-31.376	0.100
744.300	-29.155	0.100
744.400	-26.220	0.100
744.500	-22.978	0.100
744.600	-20.757	0.100
744.700	-14.810	0.100
744.800	-20.948	0.100
744.900	-29.328	0.100
745.000	-27.700	0.100
745.100	-33.115	0.100
745.200	-7.551	0.100
745.300	-24.079	0.100
745.400	-28.160	0.100
745.500	-28.853	0.100
745.600	-17.827	0.100
745.700	-19.351	0.100
745.800	-21.580	0.100
745.900	-16.595	0.100
746.000	-27.208	0.100
746.100	-13.743	0.100
746.200	-16.332	0.100
746.300	-35.512	0.100
746.400	-20.272	0.100
746.500	-21.018	0.100
746.600	-24.898	0.100
746.700	-26.217	0.100
746.800	-24.897	0.100
746.900	-24.497	0.100
747.000	-33.301	0.100
747.100	-14.417	0.100
747.200	-19.565	0.100
747.300	-28.845	0.100
747.400	-22.104	0.100
747.500	-28.160	0.100
747.600	-25.710	0.100
747.700	-20.940	0.099
747.800	-21.790	0.100
747.900	-35.418	0.100
748.000	-17.992	0.100
748.100	-24.899	0.100
748.200	-27.572	0.100
748.300	-19.028	0.099
748.400	-13.174	0.100
748.500	-24.088	0.100
748.600	-27.151	0.100
748.700	-27.682	0.100
748.800	-23.659	0.100
748.900	-23.730	0.100
749.000	-26.828	0.100
749.100	-22.862	0.100
749.200	-14.864	0.100
749.300	-18.528	0.100
749.400	-25.990	0.100
749.500	-25.050	0.100
749.600	-31.634	0.100
749.700	-15.256	0.100
749.800	-29.325	0.100
749.900	-30.016	0.100
750.000	-32.841	0.100
750.100	-16.947	0.100
750.200	-9.074	0.100
750.300	-17.490	0.100
750.400	-19.721	0.100
750.500	-18.984	0.100
750.600	-25.886	0.100
750.700	-28.467	0.099
750.800	-28.889	0.100
750.900	-19.760	0.100
751.000	-25.833	0.099
751.100	-17.170	0.100
751.200	-26.877	0.100
751.300	-27.359	0.099
751.400	-30.523	0.100
751.500	-40.684	0.100
751.600	-22.330	0.100
751.700	-23.546	0.099
751.800	-16.288	0.100
751.900	-25.962	0.100
752.000	-21.849	0.100
752.100	-11.515	0.100
752.200	-25.173	0.100
752.300	-33.526	0.100
752.400	-31.112	0.100
752.500	-10.668	0.100
752.600	-18.749	0.100
752.700	-26.231	0.100
752.800	-26.785	0.100
752.900	-27.377	0.100
753.000	-22.725	0.100
753.100	-21.071	0.100
753.200	-29.939	0.100
753.300	-29.880	0.100
753.400	-22.137	0.100
753.500	-37.271	0.100
753.600	-22.618	0.100
753.700	-26.374	0.100
753.800	-14.270	0.100
753.900	-19.113	0.100
754.000	-24.555	0.100
754.100	-21.063	0.100
754.200	-17.904	0.100
754.300	-33.904	0.100
754.400	-20.886	0.100
754.500	-15.018	0.100
754.600	-13.773	0.100
754.700	-25.921	0.100
754.800	-14.715	0.100
754.900	-36.147	0.100
755.000	-20.038	0.100
755.100	-23.530	0.100
755.200	-13.684	0.100
755.300	-16.213	0.100
755.400	-21.571	0.100
755.500	-20.258	0.100
755.600	-35.850	0.100
755.700	-12.098	0.100
755.800	-31.581	0.100
755.900	-25.593	0.100
756.000	-27.601	0.100
756.100	-20.056	0.100
756.200	-17.492	0.100
756.300	-22.934	0.100
756.400	-22.353	0.100
756.500	-30.060	0.100
756.600	-30.098	0.100
756.700	-14.543	0.100
756.800	-17.937	0.100
756.900	-31.986	0.099
757.000	-15.908	0.100
757.100	-14.467	0.100
757.200	-19.787	0.100
757.300	-19.035	0.100
757.400	-26.809	0.100
757.500	-25.794	0.100
757.600	-21.825	0.100
757.700	-17.730	0.100
757.800	-11.871	0.100
757.900	-24.715	0.100
758.000	-22.157	0.100
758.100	-38.096	0.100
758.200	-36.157	0.099
758.300	-22.524	0.100
758.400	-3.050	0.100
758.500	-14.185	0.100
758.600	-19.671	0.100
758.700	-15.972	0.100
758.800	-21.965	0.100
758.900	-25.818	0.100
759.000	-12.018	0.100
759.100	-16.981	0.100
759.200	-25.058	0.099
759.300	-28.877	0.100
759.400	-26.325	0.100
759.500	-23.974	0.100
759.600	-16.049	0.100
759.700	-21.499	0.100
759.800	-13.602	0.100
759.900	-15.690	0.100
760.000	-19.125	0.100
760.100	-23.928	0.100
760.200	-25.187	0.100
760.300	-23.749	0.100
760.400	-12.486	0.100
760.500	-20.521	0.100
760.600	-30.384	0.100
760.700	-21.270	0.100
760.800	-19.490	0.100
760.900	-20.161	0.100
761.000	-22.907	0.100
761.100	-21.839	0.100
761.200	-21.590	0.100
761.300	-22.290	0.100
761.400	-22.047	0.100
761.500	-14.204	0.100
761.600	-31.102	0.100
761.700	-21.144	0.100
761.800	-19.438	0.099
761.900	-15.637	0.100
762.000	-27.961	0.100
762.100	-29.996	0.100
762.200	-17.081	0.100
762.300	-27.248	0.100
762.400	-29.704	0.100
762.500	-7.210	0.100
762.600	-18.903	0.100
762.700	-22.655	0.100
762.800	-12.180	0.100
762.900	-16.606	0.100
763.000	-17.227	0.100
763.100	-24.406	0.100
763.200	-19.699	0.100
763.300	-14.477	0.100
763.400	-15.033	0.100
763.500	-19.290	0.100
763.600	-24.814	0.100
763.700	-24.966	0.100
763.800	-20.784	0.100
763.900	-15.086	0.100
764.000	-18.036	0.100
764.100	-23.872	0.100
764.200	-30.609	0.100
764.300	-22.029	0.100
764.400	-24.665	0.100
764.500	-16.517	0.100
764.600	-29.862	0.100
764.700	-16.731	0.100
764.800	-15.117	0.100
764.900	-18.231	0.100
765.000	-18.107	0.100
765.100	-31.198	0.100
765.200	-15.967	0.100
765.300	-22.445	0.100
765.400	-22.433	0.100
765.500	-25.906	0.100
765.600	-20.113	0.100
765.700	-17.210	0.100
765.800	-32.703	0.099
765.900	-25.854	0.100
766.000	-16.552	0.100
766.100	-27.402	0.100
766.200	-12.494	0.100
766.300	-17.546	0.100
766.400	-14.869	0.100
766.500	-20.674	0.100
766.600	-16.382	0.100
766.700	-21.030	0.100
766.800	-13.900	0.100
766.900	-29.227	0.100
767.000	-11.726	0.100
767.100	-7.497	0.100
767.200	-25.665	0.099
767.300	-18.291	0.100
767.400	-23.225	0.100
767.500	-6.672	0.100
767.600	-26.275	0.100
767.700	-24.122	0.100
767.800	-9.286	0.100
767.900	-20.614	0.100
768.000	-19.352	0.100
768.100	-20.654	0.100
768.200	-33.288	0.100
768.300	-16.948	0.100
768.400	-32.592	0.100
768.500	-19.838	0.100
768.600	-23.274	0.100
768.700	-18.014	0.100
768.800	-22.168	0.100
768.900	-12.389	0.100
769.000	-18.734	0.100
769.100	-8.833	0.100
769.200	-28.910	0.100
769.300	-25.586	0.100
769.400	-10.199	0.100
769.500	-21.241	0.100
769.600	-11.654	0.100
769.700	-22.135	0.100
769.800	-29.186	0.100
769.900	-0.574	0.100
770.000	-29.267	0.100
770.100	-13.523	0.100
770.200	-20.831	0.100
770.300	-17.694	0.100
770.400	-18.553	0.100
770.500	-16.621	0.100
770.600	-27.249	0.100
770.700	-25.333	0.100
770.800	-22.363	0.100
770.900	-21.861	0.099
771.000	-6.124	0.100
771.100	-24.426	0.100
771.200	-10.285	0.100
771.300	-21.550	0.099
771.400	-22.737	0.100
771.500	-29.540	0.100
771.600	-17.555	0.100
771.700	-24.035	0.100
771.800	-19.455	0.100
771.900	-12.867	0.100
772.000	-17.905	0.100
772.100	-24.383	0.100
772.200	-18.978	0.100
772.300	-21.527	0.100
772.400	-15.263	0.100
772.500	-21.900	0.100
772.600	-28.995	0.100
772.700	-25.023	0.100
772.800	-13.906	0.100
772.900	-22.789	0.100
773.000	-14.335	0.100
773.100	-20.289	0.100
773.200	-19.541	0.100
773.300	-18.337	0.100
773.400	-8.619	0.100
773.500	-26.515	0.100
773.600	-27.410	0.100
773.700	-12.199	0.100
773.800	-12.739	0.100
773.900	-17.694	0.100
774.000	-20.266	0.100
774.100	-19.511	0.100
774.200	-29.462	0.100
774.300	-23.923	0.100
774.400	-22.369	0.100
774.500	-14.863	0.100
774.600	-14.398	0.100
774.700	-8.642	0.100
774.800	-16.109	0.100
774.900	-20.142	0.100
775.000	-35.453	0.100
775.100	-15.901	0.100
775.200	-21.501	0.100
775.300	-30.554	0.100
775.400	-27.599	0.100
775.500	-8.625	0.100
775.600	-31.416	0.099
775.700	-22.430	0.100
775.800	-27.746	0.099
775.900	-9.588	0.100
776.000	-7.748	0.100
776.100	-21.783	0.100
776.200	-24.800	0.100
776.300	-19.167	0.100
776.400	-20.226	0.100
776.500	-14.457	0.100
776.600	-24.108	0.100
776.700	-31.614	0.100
776.800	-23.326	0.100
776.900	-23.287	0.100
777.000	-24.661	0.100
777.100	-4.449	0.100
777.200	-12.881	0.100
777.300	-4.829	0.100
777.400	-30.744	0.100
777.500	-14.603	0.099
777.600	-5.376	0.100
777.700	-13.931	0.100
777.800	-17.305	0.100
777.900	-22.754	0.100
778.000	-20.043	0.100
778.100	-23.526	0.100
778.200	-19.757	0.100
778.300	-9.431	0.100
778.400	-27.244	0.100
778.500	-24.576	0.100
778.600	-16.627	0.100
778.700	-17.292	0.100
778.800	-22.873	0.100
778.900	-16.558	0.100
779.000	-27.001	0.100
779.100	-18.840	0.100
779.200	-19.508	0.100
779.300	-20.115	0.100
779.400	-15.030	0.100
779.500	-23.091	0.100
779.600	-10.834	0.100
779.700	-14.679	0.100
779.800	-16.433	0.100
779.900	-14.684	0.100
780.000	-36.731	0.100
780.100	-23.753	0.100
780.200	-15.408	0.100
780.300	-7.865	0.100
780.400	-12.407	0.100
780.500	1.238	0.100
780.600	15.685	0.100
780.700	7.460	0.100
780.800	23.708	0.100
780.900	26.670	0.100
781.000	35.951	0.099
781.100	38.944	0.100
781.200	36.080	0.100
781.300	45.987	0.100
781.400	44.434	0.100
781.500	53.028	0.100
781.600	50.105	0.100
781.700	29.537	0.100
781.800	48.411	0.100
781.900	45.315	0.100
782.000	44.813	0.100
782.100	54.056	0.100
782.200	57.142	0.100
782.300	40.021	0.100
782.400	43.261	0.100
782.500	43.539	0.100
782.600	47.267	0.100
782.700	49.564	0.100
782.800	40.701	0.100
782.900	40.606	0.100
783.000	43.182	0.100
783.100	39.069	0.100
783.200	37.711	0.100
783.300	36.778	0.100
783.400	35.909	0.100
783.500	32.268	0.100
783.600	41.797	0.100
783.700	40.313	0.100
783.800	45.060	0.100
783.900	40.018	0.100
784.000	38.922	0.100
784.100	35.304	0.100
784.200	30.278	0.100
784.300	35.999	0.100
784.400	29.993	0.100
784.500	31.653	0.100
784.600	35.102	0.100
784.700	25.727	0.100
784.800	27.585	0.100
784.900	35.564	0.100
785.000	31.210	0.100
785.100	42.272	0.100
785.200	32.523	0.100
785.300	26.471	0.100
785.400	35.905	0.100
785.500	33.471	0.100
785.600	44.620	0.100
785.700	52.803	0.100
785.800	44.250	0.100
785.900	42.030	0.100
786.000	49.015	0.100
786.100	36.697	0.100
786.200	40.037	0.100
786.300	41.320	0.100
786.400	50.842	0.100
786.500	51.020	0.100
786.600	44.991	0.100
786.700	43.772	0.100
786.800	53.426	0.100
786.900	50.599	0.100
787.000	50.739	0.100
787.100	56.413	0.100
787.200	55.562	0.100
787.300	43.166	0.100
787.400	39.615	0.100
787.500	48.301	0.100
787.600	45.456	0.100
787.700	52.369	0.100
787.800	53.632	0.100
787.900	51.298	0.100
788.000	50.356	0.100
788.100	46.880	0.100
788.200	55.472	0.100
788.300	47.671	0.100
788.400	50.492	0.100
788.500	60.534	0.100
788.600	60.691	0.100
788.700	39.378	0.100
788.800	51.138	0.100
788.900	69.792	0.100
789.000	62.341	0.100
789.100	46.750	0.100
789.200	46.758	0.100
789.300	48.816	0.100
789.400	55.468	0.100
789.500	53.102	0.100
789.600	62.758	0.100
789.700	54.693	0.100
789.800	57.296	0.100
789.900	64.383	0.100
790.000	41.990	0.100
790.100	49.287	0.100
790.200	56.644	0.100
790.300	49.857	0.100
790.400	66.500	0.100
790.500	71.680	0.100
790.600	50.352	0.100
790.700	56.674	0.100
790.800	57.209	0.100
790.900	61.093	0.100
791.000	56.092	0.100
791.100	64.068	0.100
791.200	62.819	0.100
791.300	55.175	0.100
791.400	55.077	0.100
791.500	63.542	0.100
791.600	72.305	0.100
791.700	67.592	0.100
791.800	53.294	0.100
791.900	58.425	0.100
792.000	65.649	0.100
792.100	62.066	0.100
792.200	61.102	0.100
792.300	67.499	0.100
792.400	62.473	0.100
792.500	66.595	0.100
792.600	50.586	0.099
792.700	80.638	0.100
792.800	59.744	0.100
792.900	59.410	0.100
793.000	68.332	0.100
793.100	67.320	0.100
793.200	64.273	0.100
793.300	61.870	0.100
793.400	67.439	0.100
793.500	62.791	0.099
793.600	68.447	0.100
793.700	76.382	0.100
793.800	64.363	0.100
793.900	58.620	0.100
794.000	64.744	0.100
794.100	71.703	0.100
794.200	68.926	0.100
794.300	66.493	0.100
794.400	55.550	0.100
794.500	75.628	0.100
794.600	70.834	0.100
794.700	59.901	0.100
794.800	53.531	0.100
794.900	60.613	0.100
795.000	71.665	0.100
795.100	58.882	0.100
795.200	69.933	0.099
795.300	65.454	0.100
795.400	56.397	0.100
795.500	69.668	0.100
795.600	70.781	0.100
795.700	66.186	0.100
795.800	82.214	0.100
795.900	66.092	0.100
796.000	64.956	0.100
796.100	66.307	0.100
796.200	75.593	0.100
796.300	61.592	0.100
796.400	72.673	0.100
796.500	70.136	0.100
796.600	62.424	0.100
796.700	62.838	0.100
796.800	68.992	0.100
796.900	77.350	0.100
797.000	70.363	0.100
797.100	60.618	0.100
797.200	76.273	0.100
797.300	69.233	0.100
797.400	69.379	0.100
797.500	70.058	0.100
797.600	69.504	0.099
797.700	72.096	0.100
797.800	70.754	0.100
797.900	53.542	0.100
798.000	64.890	0.100
798.100	65.050	0.100
798.200	73.793	0.100
798.300	78.530	0.100
798.400	75.503	0.100
798.500	73.850	0.100
798.600	68.362	0.099
798.700	77.564	0.100
798.800	85.261	0.100
798.900	87.717	0.100
799.000	55.919	0.100
799.100	62.174	0.100
799.200	79.127	0.100
799.300	77.090	0.100
799.400	68.214	0.100
799.500	83.878	0.100
799.600	74.667	0.100
799.700	69.251	0.100
799.800	78.120	0.100
799.900	79.800	0.100
800.000	67.730	0.099
