time /s	I /nA	E /V
0.100	-19.606	0.100
0.200	-15.485	0.100
0.300	-20.140	0.100
0.400	-34.633	0.099
0.500	-14.259	0.100
0.600	-18.425	0.100
0.700	-19.479	0.100
0.800	-13.073	0.100
0.900	-13.754	0.100
1.000	-18.865	0.100
1.100	-25.538	0.100
1.200	-33.060	0.100
1.300	-13.586	0.100
1.400	-20.158	0.100
1.500	-15.701	0.100
1.600	-16.050	0.100
1.700	-17.859	0.100
1.800	-31.736	0.100
1.900	-6.712	0.099
2.000	-16.655	0.100
2.100	-12.815	0.099
2.200	-17.686	0.100
2.300	-17.034	0.099
2.400	-24.288	0.100
2.500	-11.979	0.099
2.600	-22.083	0.100
2.700	-29.985	0.100
2.800	-11.012	0.100
2.900	-25.353	0.100
3.000	-6.412	0.100
3.100	-15.060	0.099
3.200	-7.968	0.100
3.300	-16.413	0.100
3.400	-21.963	0.100
3.500	-19.937	0.100
3.600	-16.422	0.100
3.700	-12.682	0.099
3.800	-13.238	0.100
3.900	-12.151	0.100
4.000	-18.517	0.100
4.100	-13.686	0.100
4.200	-18.497	0.100
4.300	-21.829	0.100
4.400	-19.925	0.100
4.500	-26.340	0.100
4.600	-13.417	0.099
4.700	-14.343	0.100
4.800	-27.411	0.100
4.900	-25.439	0.100
5.000	-6.036	0.100
5.100	-6.159	0.100
5.200	-16.965	0.100
5.300	-15.523	0.100
5.400	-13.553	0.100
5.500	-21.821	0.100
5.600	-12.431	0.100
5.700	-18.574	0.100
5.800	-23.339	0.100
5.900	-27.325	0.100
6.000	-6.792	0.100
6.100	-19.906	0.100
6.200	-20.554	0.100
6.300	-14.080	0.100
6.400	-18.595	0.100
6.500	-13.054	0.100
6.600	-27.968	0.100
6.700	-18.697	0.100
6.800	-9.754	0.100
6.900	-19.078	0.100
7.000	-17.697	0.100
7.100	-20.195	0.100
7.200	-20.382	0.100
7.300	-32.883	0.099
7.400	-6.051	0.100
7.500	-29.404	0.100
7.600	-17.399	0.100
7.700	-21.170	0.100
7.800	-15.252	0.100
7.900	-12.985	0.100
8.000	-16.138	0.100
8.100	-21.673	0.100
8.200	-23.144	0.100
8.300	-14.345	0.100
8.400	-13.540	0.100
8.500	-10.358	0.100
8.600	-12.207	0.100
8.700	-21.852	0.100
8.800	-19.099	0.100
8.900	-22.939	0.100
9.000	-15.800	0.100
9.100	-16.462	0.100
9.200	-12.845	0.100
9.300	-20.459	0.100
9.400	-17.100	0.100
9.500	-18.324	0.100
9.600	-19.556	0.100
9.700	-24.258	0.100
9.800	-24.430	0.100
9.900	-31.794	0.100
10.000	-13.257	0.100
10.100	-20.100	0.100
10.200	-7.535	0.100
10.300	-21.910	0.100
10.400	-16.279	0.100
10.500	-8.746	0.100
10.600	-17.319	0.100
10.700	-17.716	0.100
10.800	-23.367	0.100
10.900	-29.222	0.100
11.000	-31.433	0.100
11.100	-4.695	0.100
11.200	-12.321	0.100
11.300	-15.112	0.100
11.400	-19.548	0.100
11.500	-24.009	0.100
11.600	-11.885	0.100
11.700	-9.751	0.100
11.800	-18.004	0.100
11.900	-13.447	0.100
12.000	-13.026	0.100
12.100	-17.483	0.100
12.200	-22.024	0.100
12.300	-9.590	0.100
12.400	-14.718	0.100
12.500	-31.257	0.100
12.600	-11.635	0.100
12.700	-11.178	0.100
12.800	-10.642	0.100
12.900	-13.518	0.100
13.000	-24.326	0.100
13.100	-11.133	0.100
13.200	-17.052	0.100
13.300	-19.565	0.100
13.400	-13.686	0.100
13.500	-26.587	0.100
13.600	-21.972	0.100
13.700	-15.598	0.100
13.800	-10.250	0.100
13.900	-19.790	0.100
14.000	-25.768	0.100
14.100	-11.847	0.100
14.200	-17.338	0.100
14.300	-38.760	0.100
14.400	-16.866	0.100
14.500	-13.546	0.100
14.600	-19.052	0.100
14.700	-17.382	0.100
14.800	-13.989	0.100
14.900	-19.318	0.100
15.000	-13.079	0.100
15.100	-28.423	0.100
15.200	-15.806	0.100
15.300	-10.140	0.100
15.400	-9.793	0.100
15.500	-15.909	0.100
15.600	-17.347	0.100
15.700	-28.412	0.100
15.800	-19.005	0.100
15.900	-20.053	0.100
16.000	-17.132	0.100
16.100	-8.950	0.100
16.200	-12.490	0.100
16.300	-9.562	0.100
16.400	-15.083	0.100
16.500	-22.607	0.100
16.600	-19.037	0.100
16.700	-16.672	0.100
16.800	-19.295	0.100
16.900	-22.537	0.100
17.000	-19.297	0.100
17.100	-19.059	0.100
17.200	-21.756	0.100
17.300	-6.833	0.100
17.400	-10.339	0.100
17.500	-17.196	0.100
17.600	-29.092	0.100
17.700	-15.131	0.100
17.800	-5.006	0.100
17.900	-15.576	0.100
18.000	-16.962	0.100
18.100	-38.707	0.100
18.200	-10.708	0.100
18.300	-18.924	0.100
18.400	-6.418	0.100
18.500	-20.826	0.100
18.600	-13.099	0.100
18.700	-8.264	0.100
18.800	-19.735	0.100
18.900	-10.173	0.100
19.000	-18.400	0.100
19.100	-15.943	0.100
19.200	-19.947	0.100
19.300	-3.706	0.100
19.400	-9.133	0.100
19.500	-21.154	0.100
19.600	-2.127	0.100
19.700	-13.662	0.100
19.800	-21.458	0.100
19.900	-16.268	0.100
20.000	-15.870	0.100
20.100	-22.528	0.100
20.200	-20.651	0.100
20.300	-16.412	0.100
20.400	-28.497	0.100
20.500	-13.570	0.100
20.600	-28.451	0.100
20.700	-8.129	0.100
20.800	-19.965	0.100
20.900	-26.412	0.100
21.000	-14.417	0.100
21.100	-16.306	0.100
21.200	-10.470	0.100
21.300	-17.615	0.100
21.400	-23.624	0.100
21.500	-10.592	0.100
21.600	-19.978	0.100
21.700	-20.534	0.100
21.800	-13.000	0.100
21.900	-19.129	0.100
22.000	-20.926	0.100
22.100	-21.710	0.100
22.200	-15.470	0.100
22.300	-10.136	0.100
22.400	-22.021	0.100
22.500	-13.068	0.100
22.600	-24.581	0.100
22.700	-19.404	0.100
22.800	-13.882	0.100
22.900	-22.969	0.100
23.000	-21.970	0.100
23.100	-17.279	0.100
23.200	-1.365	0.100
23.300	-9.064	0.100
23.400	-37.950	0.100
23.500	-8.115	0.100
23.600	-3.835	0.100
23.700	-10.599	0.100
23.800	-27.090	0.100
23.900	-17.358	0.100
24.000	-11.904	0.100
24.100	-30.599	0.100
24.200	-34.142	0.100
24.300	-21.047	0.100
24.400	-10.978	0.100
24.500	-9.628	0.100
24.600	-10.228	0.100
24.700	-20.032	0.100
24.800	-20.995	0.100
24.900	-15.345	0.100
25.000	-9.147	0.100
25.100	-24.890	0.100
25.200	-12.938	0.100
25.300	-8.155	0.100
25.400	-15.391	0.100
25.500	-26.570	0.100
25.600	-27.316	0.100
25.700	-22.192	0.100
25.800	-2.183	0.100
25.900	-14.488	0.100
26.000	-20.890	0.100
26.100	-9.317	0.100
26.200	-1.862	0.100
26.300	-17.486	0.100
26.400	-17.485	0.100
26.500	-20.690	0.100
26.600	-11.236	0.100
26.700	-17.596	0.100
26.800	-12.038	0.100
26.900	-30.125	0.100
27.000	-27.694	0.100
27.100	-11.231	0.100
27.200	-4.978	0.100
27.300	-6.296	0.100
27.400	-20.786	0.100
27.500	-17.203	0.100
27.600	-16.958	0.100
27.700	-10.822	0.100
27.800	-7.994	0.100
27.900	-20.733	0.100
28.000	-18.862	0.100
28.100	-19.684	0.100
28.200	-13.960	0.100
28.300	-14.813	0.100
28.400	-14.434	0.100
28.500	-11.831	0.100
28.600	-24.155	0.100
28.700	-17.900	0.100
28.800	-15.720	0.100
28.900	-28.662	0.100
29.000	0.460	0.100
29.100	-12.404	0.100
29.200	-20.390	0.100
29.300	-14.769	0.100
29.400	-15.678	0.100
29.500	-26.437	0.100
29.600	-15.406	0.100
29.700	-19.781	0.100
29.800	-16.994	0.100
29.900	-1.491	0.100
30.000	-7.479	0.100
30.100	-3.377	0.100
30.200	21.471	0.100
30.300	14.826	0.100
30.400	35.369	0.099
30.500	21.928	0.100
30.600	38.356	0.100
30.700	36.572	0.100
30.800	43.862	0.100
30.900	38.327	0.100
31.000	34.091	0.100
31.100	40.899	0.100
31.200	41.063	0.100
31.300	46.667	0.100
31.400	34.657	0.100
31.500	41.927	0.100
31.600	40.443	0.100
31.700	43.045	0.100
31.800	51.242	0.100
31.900	36.364	0.100
32.000	38.525	0.100
32.100	41.799	0.100
32.200	46.302	0.100
32.300	38.069	0.100
32.400	45.223	0.100
32.500	38.955	0.100
32.600	35.753	0.100
32.700	38.134	0.100
32.800	26.049	0.100
32.900	30.909	0.100
33.000	40.518	0.100
33.100	47.358	0.100
33.200	35.217	0.100
33.300	36.366	0.100
33.400	45.503	0.100
33.500	28.761	0.100
33.600	31.832	0.100
33.700	16.762	0.100
33.800	37.866	0.100
33.900	27.570	0.100
34.000	28.578	0.100
34.100	27.447	0.100
34.200	28.581	0.100
34.300	33.504	0.100
34.400	25.690	0.100
34.500	24.028	0.100
34.600	22.319	0.100
34.700	41.057	0.100
34.800	33.510	0.100
34.900	30.696	0.100
35.000	18.842	0.100
35.100	33.807	0.100
35.200	39.928	0.100
35.300	42.890	0.100
35.400	40.678	0.100
35.500	44.590	0.100
35.600	36.410	0.100
35.700	44.489	0.100
35.800	39.758	0.100
35.900	43.060	0.100
36.000	47.179	0.100
36.100	45.214	0.100
36.200	53.253	0.100
36.300	45.427	0.100
36.400	56.211	0.100
36.500	40.979	0.100
36.600	42.196	0.100
36.700	45.367	0.100
36.800	54.152	0.100
36.900	54.791	0.100
37.000	46.713	0.100
37.100	56.534	0.100
37.200	48.216	0.100
37.300	48.549	0.100
37.400	44.996	0.100
37.500	43.064	0.100
37.600	63.702	0.100
37.700	52.124	0.100
37.800	49.595	0.100
37.900	46.951	0.100
38.000	50.440	0.100
38.100	55.296	0.100
38.200	52.842	0.100
38.300	43.381	0.100
38.400	52.144	0.100
38.500	73.864	0.100
38.600	59.908	0.100
38.700	64.305	0.100
38.800	59.793	0.100
38.900	59.506	0.100
39.000	47.935	0.100
39.100	60.098	0.100
39.200	65.951	0.100
39.300	55.015	0.100
39.400	61.227	0.100
39.500	65.529	0.100
39.600	62.273	0.100
39.700	55.877	0.100
39.800	58.845	0.100
39.900	65.094	0.100
40.000	58.223	0.100
40.100	71.679	0.100
40.200	60.237	0.100
40.300	66.605	0.100
40.400	71.938	0.100
40.500	67.753	0.100
40.600	61.636	0.100
40.700	65.679	0.100
40.800	67.530	0.100
40.900	62.513	0.100
41.000	59.641	0.100
41.100	67.871	0.100
41.200	60.882	0.100
41.300	74.839	0.100
41.400	69.444	0.100
41.500	65.950	0.100
41.600	49.176	0.100
41.700	61.882	0.100
41.800	72.870	0.100
41.900	69.992	0.100
42.000	65.882	0.100
42.100	69.871	0.100
42.200	76.500	0.100
42.300	67.759	0.100
42.400	65.563	0.100
42.500	81.482	0.100
42.600	72.579	0.100
42.700	75.575	0.100
42.800	81.562	0.100
42.900	73.153	0.100
43.000	68.492	0.100
43.100	68.968	0.100
43.200	78.984	0.100
43.300	70.607	0.100
43.400	72.582	0.100
43.500	68.274	0.100
43.600	66.318	0.100
43.700	65.164	0.100
43.800	70.183	0.100
43.900	85.564	0.100
44.000	74.739	0.100
44.100	73.693	0.100
44.200	69.489	0.100
44.300	72.833	0.100
44.400	80.293	0.100
44.500	80.829	0.100
44.600	76.574	0.100
44.700	64.083	0.100
44.800	78.997	0.100
44.900	75.884	0.100
45.000	76.378	0.100
45.100	75.449	0.100
45.200	71.907	0.100
45.300	71.608	0.100
45.400	80.497	0.100
45.500	72.000	0.100
45.600	73.673	0.100
45.700	79.731	0.100
45.800	75.300	0.100
45.900	75.233	0.100
46.000	79.866	0.100
46.100	79.784	0.100
46.200	68.796	0.100
46.300	82.005	0.100
46.400	78.258	0.100
46.500	74.333	0.100
46.600	63.823	0.100
46.700	78.042	0.100
46.800	79.236	0.100
46.900	74.779	0.100
47.000	72.798	0.100
47.100	72.639	0.100
47.200	69.983	0.100
47.300	62.866	0.100
47.400	87.063	0.100
47.500	91.465	0.100
47.600	57.876	0.100
47.700	73.900	0.100
47.800	71.629	0.100
47.900	69.562	0.100
48.000	75.889	0.100
48.100	81.192	0.100
48.200	77.508	0.100
48.300	66.737	0.100
48.400	75.609	0.100
48.500	84.161	0.100
48.600	81.266	0.100
48.700	68.293	0.100
48.800	76.801	0.100
48.900	76.136	0.100
49.000	76.748	0.100
49.100	67.352	0.100
49.200	76.353	0.100
49.300	67.335	0.100
49.400	76.711	0.100
49.500	81.606	0.100
49.600	63.129	0.100
49.700	83.318	0.100
49.800	72.487	0.100
49.900	66.088	0.100
50.000	80.140	0.100
50.100	61.976	0.100
50.200	67.136	0.100
50.300	68.624	0.100
50.400	70.208	0.100
50.500	86.492	0.100
50.600	80.844	0.100
50.700	78.388	0.100
50.800	59.358	0.100
50.900	69.819	0.100
51.000	69.057	0.100
51.100	74.909	0.100
51.200	69.082	0.100
51.300	67.866	0.100
51.400	73.056	0.100
51.500	76.564	0.100
51.600	59.838	0.100
51.700	76.896	0.100
51.800	70.745	0.100
51.900	69.557	0.100
52.000	65.810	0.100
52.100	69.345	0.100
52.200	73.592	0.100
52.300	62.415	0.100
52.400	73.687	0.100
52.500	70.194	0.100
52.600	73.398	0.100
52.700	57.689	0.100
52.800	78.119	0.100
52.900	66.424	0.100
53.000	72.843	0.100
53.100	64.610	0.100
53.200	72.557	0.100
53.300	75.049	0.100
53.400	57.426	0.100
53.500	68.422	0.100
53.600	56.870	0.100
53.700	63.571	0.100
53.800	62.277	0.100
53.900	59.937	0.100
54.000	74.503	0.100
54.100	55.905	0.100
54.200	69.837	0.100
54.300	69.694	0.100
54.400	60.164	0.100
54.500	74.428	0.100
54.600	67.813	0.100
54.700	61.735	0.100
54.800	56.480	0.100
54.900	57.030	0.100
55.000	60.776	0.100
55.100	69.778	0.100
55.200	68.074	0.100
55.300	64.653	0.100
55.400	62.103	0.100
55.500	65.541	0.100
55.600	62.522	0.100
55.700	59.803	0.100
55.800	56.389	0.100
55.900	54.300	0.100
56.000	55.365	0.100
56.100	70.095	0.100
56.200	59.684	0.100
56.300	68.126	0.100
56.400	55.727	0.100
56.500	69.078	0.100
56.600	71.769	0.100
56.700	61.143	0.100
56.800	71.777	0.100
56.900	52.168	0.100
57.000	60.597	0.100
57.100	54.757	0.100
57.200	66.462	0.100
57.300	72.677	0.100
57.400	58.254	0.100
57.500	64.843	0.100
57.600	51.752	0.100
57.700	53.421	0.100
57.800	70.082	0.100
57.900	57.147	0.100
58.000	51.061	0.100
58.100	74.945	0.100
58.200	54.989	0.100
58.300	70.755	0.100
58.400	61.691	0.100
58.500	57.834	0.100
58.600	65.734	0.100
58.700	60.828	0.100
58.800	55.066	0.100
58.900	64.555	0.100
59.000	53.457	0.100
59.100	59.393	0.100
59.200	60.004	0.100
59.300	62.404	0.100
59.400	52.713	0.100
59.500	63.852	0.100
59.600	66.579	0.100
59.700	54.026	0.100
59.800	59.436	0.100
59.900	50.119	0.100
60.000	46.867	0.100
60.100	58.646	0.100
60.200	43.515	0.100
60.300	67.544	0.100
60.400	65.466	0.100
60.500	59.763	0.100
60.600	65.650	0.100
60.700	49.503	0.100
60.800	62.215	0.100
60.900	63.244	0.100
61.000	59.125	0.100
61.100	57.183	0.100
61.200	57.925	0.100
61.300	67.640	0.100
61.400	64.717	0.100
61.500	59.988	0.100
61.600	55.102	0.100
61.700	61.259	0.100
61.800	47.319	0.100
61.900	59.196	0.100
62.000	64.968	0.100
62.100	56.744	0.100
62.200	46.339	0.100
62.300	57.359	0.100
62.400	54.178	0.100
62.500	51.783	0.100
62.600	62.486	0.100
62.700	63.990	0.100
62.800	73.255	0.100
62.900	49.917	0.100
63.000	43.415	0.100
63.100	52.345	0.100
63.200	58.186	0.100
63.300	57.078	0.100
63.400	60.874	0.100
63.500	54.778	0.100
63.600	63.152	0.100
63.700	60.172	0.100
63.800	67.789	0.100
63.900	59.303	0.100
64.000	66.095	0.100
64.100	61.900	0.100
64.200	56.905	0.100
64.300	58.885	0.100
64.400	58.502	0.100
64.500	60.842	0.100
64.600	51.745	0.100
64.700	59.952	0.100
64.800	66.348	0.100
64.900	65.905	0.100
65.000	54.129	0.100
65.100	47.591	0.100
65.200	67.996	0.100
65.300	63.173	0.100
65.400	56.849	0.100
65.500	55.202	0.100
65.600	52.767	0.100
65.700	63.399	0.100
65.800	63.145	0.100
65.900	62.060	0.100
66.000	62.203	0.100
66.100	48.850	0.100
66.200	59.497	0.100
66.300	61.718	0.100
66.400	60.255	0.100
66.500	62.538	0.100
66.600	61.961	0.100
66.700	65.658	0.100
66.800	64.297	0.100
66.900	56.434	0.100
67.000	59.932	0.100
67.100	66.533	0.100
67.200	70.687	0.100
67.300	56.908	0.100
67.400	51.542	0.100
67.500	64.462	0.100
67.600	70.783	0.100
67.700	58.360	0.100
67.800	46.215	0.100
67.900	65.114	0.100
68.000	60.188	0.100
68.100	60.008	0.100
68.200	77.742	0.100
68.300	65.445	0.100
68.400	70.595	0.100
68.500	60.386	0.100
68.600	61.011	0.100
68.700	61.522	0.100
68.800	67.589	0.100
68.900	69.908	0.100
69.000	56.817	0.100
69.100	52.003	0.100
69.200	55.323	0.100
69.300	67.577	0.100
69.400	49.163	0.100
69.500	59.490	0.100
69.600	62.431	0.100
69.700	67.780	0.100
69.800	72.929	0.100
69.900	64.613	0.100
70.000	60.489	0.100
70.100	60.329	0.100
70.200	67.734	0.100
70.300	77.070	0.100
70.400	63.068	0.100
70.500	56.337	0.100
70.600	66.221	0.100
70.700	62.468	0.100
70.800	65.704	0.100
70.900	73.405	0.100
71.000	68.655	0.100
71.100	57.772	0.100
71.200	64.290	0.100
71.300	67.679	0.100
71.400	65.498	0.100
71.500	75.660	0.100
71.600	61.438	0.100
71.700	60.914	0.100
71.800	58.739	0.100
71.900	65.481	0.100
72.000	67.008	0.100
72.100	69.565	0.100
72.200	58.130	0.100
72.300	68.201	0.100
72.400	54.640	0.100
72.500	70.207	0.100
72.600	64.795	0.100
72.700	54.888	0.100
72.800	65.652	0.100
72.900	64.333	0.100
73.000	65.125	0.100
73.100	52.643	0.100
73.200	63.293	0.100
73.300	80.520	0.100
73.400	73.402	0.100
73.500	64.394	0.100
73.600	85.014	0.100
73.700	53.928	0.100
73.800	67.699	0.100
73.900	59.265	0.100
74.000	69.319	0.100
74.100	69.400	0.100
74.200	68.873	0.100
74.300	62.722	0.100
74.400	64.943	0.100
74.500	72.950	0.100
74.600	66.942	0.100
74.700	64.189	0.100
74.800	69.946	0.100
74.900	72.065	0.100
75.000	67.160	0.100
75.100	66.503	0.100
75.200	68.356	0.100
75.300	69.719	0.100
75.400	62.838	0.100
75.500	78.889	0.100
75.600	62.083	0.100
75.700	64.524	0.100
75.800	59.659	0.100
75.900	69.691	0.100
76.000	67.414	0.100
76.100	70.372	0.100
76.200	72.048	0.100
76.300	58.389	0.100
76.400	73.470	0.100
76.500	70.327	0.100
76.600	66.015	0.100
76.700	71.885	0.100
76.800	76.885	0.100
76.900	74.099	0.100
77.000	66.973	0.100
77.100	69.611	0.100
77.200	69.237	0.100
77.300	68.202	0.100
77.400	67.472	0.100
77.500	69.675	0.100
77.600	61.878	0.100
77.700	64.460	0.100
77.800	71.143	0.100
77.900	72.851	0.100
78.000	68.925	0.100
78.100	62.821	0.100
78.200	61.650	0.100
78.300	71.417	0.100
78.400	79.996	0.100
78.500	63.190	0.100
78.600	58.832	0.100
78.700	67.018	0.100
78.800	83.514	0.100
78.900	78.418	0.100
79.000	77.161	0.100
79.100	75.383	0.100
79.200	65.219	0.100
79.300	76.665	0.100
79.400	73.859	0.100
79.500	71.315	0.100
79.600	58.324	0.100
79.700	76.688	0.100
79.800	74.926	0.100
79.900	66.991	0.100
80.000	68.546	0.100
80.100	70.263	0.100
80.200	71.343	0.100
80.300	70.392	0.100
80.400	66.758	0.100
80.500	64.190	0.100
80.600	66.419	0.100
80.700	69.151	0.100
80.800	74.078	0.100
80.900	67.329	0.100
81.000	72.001	0.100
81.100	54.306	0.100
81.200	71.053	0.100
81.300	71.837	0.100
81.400	72.200	0.100
81.500	68.508	0.100
81.600	67.569	0.100
81.700	74.025	0.100
81.800	71.342	0.100
81.900	69.784	0.100
82.000	75.121	0.100
82.100	75.446	0.100
82.200	66.529	0.100
82.300	71.617	0.100
82.400	77.713	0.100
82.500	64.828	0.100
82.600	58.939	0.100
82.700	70.640	0.100
82.800	73.200	0.100
82.900	68.495	0.100
83.000	84.410	0.100
83.100	74.284	0.100
83.200	75.811	0.100
83.300	78.531	0.100
83.400	62.590	0.100
83.500	59.877	0.100
83.600	92.757	0.100
83.700	60.581	0.100
83.800	66.657	0.100
83.900	60.023	0.100
84.000	72.476	0.100
84.100	63.327	0.100
84.200	71.520	0.100
84.300	67.396	0.100
84.400	73.393	0.100
84.500	64.190	0.100
84.600	70.105	0.100
84.700	72.185	0.100
84.800	82.229	0.100
84.900	71.118	0.100
85.000	74.877	0.100
85.100	69.028	0.100
85.200	70.371	0.100
85.300	68.120	0.100
85.400	73.451	0.100
85.500	72.198	0.100
85.600	73.118	0.100
85.700	66.952	0.100
85.800	71.765	0.100
85.900	86.713	0.100
86.000	65.820	0.100
86.100	76.158	0.100
86.200	66.559	0.100
86.300	68.313	0.100
86.400	62.526	0.100
86.500	75.596	0.100
86.600	69.837	0.100
86.700	80.564	0.100
86.800	74.187	0.100
86.900	74.746	0.100
87.000	65.174	0.100
87.100	75.222	0.100
87.200	62.870	0.100
87.300	76.730	0.100
87.400	72.317	0.100
87.500	85.130	0.100
87.600	71.995	0.100
87.700	79.889	0.100
87.800	69.770	0.100
87.900	63.968	0.100
88.000	60.984	0.100
88.100	84.273	0.100
88.200	73.028	0.100
88.300	71.219	0.100
88.400	62.530	0.100
88.500	74.549	0.100
88.600	77.515	0.100
88.700	70.581	0.100
88.800	69.922	0.100
88.900	74.524	0.100
89.000	77.293	0.100
89.100	79.477	0.100
89.200	66.431	0.100
89.300	77.516	0.100
89.400	70.172	0.100
89.500	78.118	0.100
89.600	74.894	0.100
89.700	61.592	0.100
89.800	68.560	0.100
89.900	49.474	0.100
90.000	53.513	0.100
90.100	34.178	0.100
90.200	32.474	0.100
90.300	4.217	0.100
90.400	-6.170	0.100
90.500	-11.370	0.100
90.600	-21.197	0.100
90.700	-32.155	0.100
90.800	-38.250	0.100
90.900	-42.685	0.100
91.000	-42.689	0.100
91.100	-49.386	0.100
91.200	-55.422	0.100
91.300	-66.479	0.100
91.400	-62.162	0.100
91.500	-69.475	0.100
91.600	-61.062	0.100
91.700	-84.932	0.100
91.800	-64.242	0.100
91.900	-76.410	0.100
92.000	-73.228	0.100
92.100	-80.090	0.100
92.200	-80.773	0.100
92.300	-65.281	0.100
92.400	-74.098	0.100
92.500	-77.289	0.100
92.600	-72.776	0.100
92.700	-76.059	0.100
92.800	-78.810	0.100
92.900	-73.373	0.100
93.000	-74.249	0.100
93.100	-71.786	0.100
93.200	-85.760	0.100
93.300	-79.631	0.100
93.400	-65.173	0.100
93.500	-65.559	0.100
93.600	-70.666	0.100
93.700	-68.447	0.100
93.800	-56.058	0.100
93.900	-57.967	0.100
94.000	-75.015	0.100
94.100	-61.443	0.100
94.200	-72.687	0.100
94.300	-56.629	0.100
94.400	-61.815	0.100
94.500	-53.118	0.100
94.600	-58.429	0.100
94.700	-64.509	0.100
94.800	-53.186	0.100
94.900	-49.033	0.100
95.000	-43.957	0.100
95.100	-51.321	0.100
95.200	-51.681	0.100
95.300	-51.768	0.100
95.400	-45.512	0.100
95.500	-54.534	0.100
95.600	-43.551	0.100
95.700	-51.499	0.100
95.800	-45.180	0.100
95.900	-39.899	0.100
96.000	-34.106	0.100
96.100	-42.644	0.100
96.200	-40.771	0.100
96.300	-42.521	0.100
96.400	-55.171	0.100
96.500	-36.963	0.100
96.600	-42.506	0.100
96.700	-36.798	0.100
96.800	-43.318	0.100
96.900	-48.194	0.100
97.000	-38.349	0.100
97.100	-29.275	0.100
97.200	-36.050	0.100
97.300	-52.259	0.100
97.400	-43.551	0.100
97.500	-32.965	0.100
97.600	-44.477	0.100
97.700	-31.055	0.100
97.800	-28.482	0.100
97.900	-26.073	0.100
98.000	-27.426	0.100
98.100	-39.783	0.100
98.200	-31.854	0.100
98.300	-50.888	0.100
98.400	-34.596	0.100
98.500	-23.291	0.100
98.600	-31.730	0.100
98.700	-28.376	0.100
98.800	-35.065	0.100
98.900	-37.553	0.100
99.000	-35.708	0.100
99.100	-27.541	0.100
99.200	-24.152	0.100
99.300	-35.849	0.100
99.400	-33.625	0.100
99.500	-32.982	0.100
99.600	-23.543	0.100
99.700	-35.314	0.100
99.800	-32.803	0.100
99.900	-28.956	0.100
100.000	-28.961	0.100
100.100	-37.788	0.100
100.200	-26.896	0.100
100.300	-28.524	0.100
100.400	-25.062	0.100
100.500	-25.108	0.100
100.600	-43.083	0.100
100.700	-42.666	0.100
100.800	-26.239	0.100
100.900	-33.503	0.100
101.000	-36.583	0.100
101.100	-31.713	0.100
101.200	-40.283	0.100
101.300	-38.901	0.100
101.400	-30.743	0.100
101.500	-37.747	0.100
101.600	-21.881	0.100
101.700	-29.842	0.100
101.800	-28.982	0.100
101.900	-40.305	0.100
102.000	-32.578	0.100
102.100	-32.955	0.100
102.200	-37.147	0.100
102.300	-38.644	0.100
102.400	-27.608	0.100
102.500	-23.008	0.100
102.600	-31.146	0.100
102.700	-34.976	0.100
102.800	-42.285	0.100
102.900	-31.418	0.100
103.000	-31.126	0.100
103.100	-35.798	0.100
103.200	-33.159	0.100
103.300	-30.335	0.100
103.400	-32.228	0.100
103.500	-33.367	0.100
103.600	-35.978	0.100
103.700	-35.030	0.100
103.800	-26.632	0.100
103.900	-29.543	0.100
104.000	-43.350	0.100
104.100	-38.758	0.100
104.200	-31.863	0.100
104.300	-30.987	0.100
104.400	-27.514	0.100
104.500	-32.878	0.100
104.600	-35.873	0.100
104.700	-21.114	0.100
104.800	-24.461	0.100
104.900	-32.417	0.100
105.000	-29.646	0.100
105.100	-33.230	0.100
105.200	-35.426	0.100
105.300	-31.826	0.100
105.400	-34.004	0.100
105.500	-41.247	0.100
105.600	-45.791	0.100
105.700	-14.319	0.100
105.800	-41.445	0.100
105.900	-30.472	0.100
106.000	-36.748	0.100
106.100	-24.614	0.100
106.200	-39.948	0.100
106.300	-40.360	0.100
106.400	-30.638	0.100
106.500	-32.945	0.100
106.600	-35.871	0.100
106.700	-36.988	0.100
106.800	-29.006	0.100
106.900	-32.724	0.100
107.000	-27.981	0.100
107.100	-44.250	0.100
107.200	-33.573	0.100
107.300	-38.508	0.100
107.400	-30.759	0.100
107.500	-33.592	0.100
107.600	-35.857	0.100
107.700	-32.633	0.100
107.800	-32.894	0.100
107.900	-37.397	0.100
108.000	-29.804	0.100
108.100	-29.391	0.100
108.200	-35.665	0.100
108.300	-36.651	0.100
108.400	-31.802	0.100
108.500	-39.975	0.100
108.600	-33.751	0.100
108.700	-27.468	0.100
108.800	-27.676	0.100
108.900	-28.834	0.100
109.000	-42.143	0.100
109.100	-35.368	0.100
109.200	-27.018	0.100
109.300	-47.060	0.100
109.400	-33.082	0.100
109.500	-31.672	0.100
109.600	-33.432	0.100
109.700	-30.158	0.100
109.800	-30.857	0.100
109.900	-31.850	0.100
110.000	-31.376	0.100
110.100	-25.072	0.100
110.200	-35.087	0.100
110.300	-32.842	0.100
110.400	-36.193	0.100
110.500	-39.746	0.100
110.600	-33.699	0.100
110.700	-35.995	0.100
110.800	-37.042	0.100
110.900	-37.357	0.100
111.000	-33.581	0.100
111.100	-36.361	0.100
111.200	-38.501	0.100
111.300	-21.208	0.100
111.400	-25.245	0.100
111.500	-24.382	0.100
111.600	-36.511	0.100
111.700	-35.069	0.100
111.800	-37.288	0.100
111.900	-33.839	0.100
112.000	-21.247	0.100
112.100	-33.489	0.100
112.200	-44.815	0.100
112.300	-30.496	0.100
112.400	-36.177	0.100
112.500	-41.491	0.100
112.600	-49.455	0.100
112.700	-34.026	0.100
112.800	-26.033	0.100
112.900	-38.730	0.100
113.000	-26.436	0.100
113.100	-38.123	0.100
113.200	-34.799	0.100
113.300	-33.260	0.100
113.400	-35.106	0.100
113.500	-34.117	0.100
113.600	-33.562	0.100
113.700	-41.790	0.100
113.800	-28.271	0.100
113.900	-36.847	0.100
114.000	-24.292	0.100
114.100	-35.278	0.100
114.200	-28.472	0.100
114.300	-28.181	0.100
114.400	-45.638	0.100
114.500	-37.975	0.100
114.600	-31.387	0.100
114.700	-36.543	0.100
114.800	-42.412	0.100
114.900	-38.817	0.100
115.000	-33.681	0.100
115.100	-32.354	0.100
115.200	-29.378	0.100
115.300	-27.068	0.100
115.400	-35.713	0.100
115.500	-28.961	0.100
115.600	-40.624	0.100
115.700	-29.428	0.100
115.800	-26.536	0.100
115.900	-27.986	0.100
116.000	-38.531	0.100
116.100	-28.256	0.100
116.200	-44.622	0.100
116.300	-40.766	0.100
116.400	-43.222	0.100
116.500	-36.421	0.100
116.600	-31.107	0.100
116.700	-33.637	0.100
116.800	-31.715	0.100
116.900	-29.401	0.100
117.000	-36.667	0.100
117.100	-35.827	0.100
117.200	-35.235	0.100
117.300	-40.180	0.100
117.400	-32.180	0.100
117.500	-27.400	0.100
117.600	-32.111	0.100
117.700	-36.624	0.100
117.800	-30.948	0.100
117.900	-26.591	0.100
118.000	-40.034	0.100
118.100	-38.726	0.100
118.200	-33.316	0.100
118.300	-32.086	0.100
118.400	-23.006	0.100
118.500	-27.157	0.100
118.600	-36.182	0.100
118.700	-27.038	0.100
118.800	-33.996	0.100
118.900	-39.631	0.100
119.000	-35.008	0.100
119.100	-35.117	0.100
119.200	-38.297	0.100
119.300	-39.563	0.100
119.400	-42.036	0.100
119.500	-29.431	0.100
119.600	-24.583	0.100
119.700	-22.568	0.100
119.800	-29.801	0.100
119.900	-23.498	0.100
120.000	-34.069	0.100
120.100	-29.648	0.100
120.200	-25.431	0.100
120.300	-41.072	0.100
120.400	-41.523	0.100
120.500	-32.758	0.100
120.600	-25.723	0.100
120.700	-23.901	0.100
120.800	-29.481	0.100
120.900	-32.357	0.100
121.000	-29.639	0.100
121.100	-25.730	0.100
121.200	-29.193	0.100
121.300	-30.328	0.100
121.400	-26.953	0.100
121.500	-36.611	0.100
121.600	-27.133	0.100
121.700	-35.064	0.100
121.800	-45.010	0.100
121.900	-33.403	0.100
122.000	-34.182	0.100
122.100	-31.631	0.100
122.200	-33.721	0.100
122.300	-40.691	0.100
122.400	-29.576	0.100
122.500	-34.801	0.100
122.600	-34.230	0.100
122.700	-34.305	0.100
122.800	-33.766	0.100
122.900	-38.544	0.100
123.000	-33.705	0.100
123.100	-27.431	0.100
123.200	-35.190	0.100
123.300	-33.694	0.100
123.400	-38.822	0.100
123.500	-21.705	0.100
123.600	-29.205	0.100
123.700	-52.297	0.100
123.800	-34.161	0.100
123.900	-25.578	0.100
124.000	-29.692	0.100
124.100	-26.923	0.100
124.200	-32.456	0.100
124.300	-24.452	0.100
124.400	-25.567	0.100
124.500	-40.286	0.100
124.600	-25.969	0.100
124.700	-33.774	0.100
124.800	-28.693	0.100
124.900	-33.303	0.100
125.000	-29.605	0.100
125.100	-27.053	0.100
125.200	-26.875	0.100
125.300	-38.402	0.100
125.400	-35.247	0.100
125.500	-31.228	0.100
125.600	-34.456	0.100
125.700	-34.170	0.100
125.800	-29.927	0.100
125.900	-37.857	0.100
126.000	-37.760	0.100
126.100	-27.762	0.100
126.200	-23.943	0.100
126.300	-36.915	0.100
126.400	-30.774	0.100
126.500	-26.372	0.100
126.600	-38.459	0.100
126.700	-34.100	0.100
126.800	-31.734	0.100
126.900	-35.036	0.100
127.000	-18.278	0.100
127.100	-29.434	0.100
127.200	-24.756	0.100
127.300	-36.295	0.100
127.400	-32.149	0.100
127.500	-31.580	0.100
127.600	-43.917	0.100
127.700	-39.796	0.100
127.800	-31.137	0.100
127.900	-25.423	0.100
128.000	-28.778	0.100
128.100	-39.803	0.100
128.200	-28.251	0.100
128.300	-30.770	0.100
128.400	-26.293	0.100
128.500	-38.488	0.100
128.600	-28.840	0.100
128.700	-23.148	0.100
128.800	-42.996	0.100
128.900	-41.997	0.100
129.000	-41.851	0.100
129.100	-30.846	0.100
129.200	-32.949	0.100
129.300	-22.458	0.100
129.400	-27.887	0.100
129.500	-40.435	0.100
129.600	-27.965	0.100
129.700	-44.470	0.100
129.800	-26.127	0.100
129.900	-28.498	0.100
130.000	-40.533	0.100
130.100	-24.478	0.100
130.200	-39.986	0.100
130.300	-29.362	0.100
130.400	-29.030	0.100
130.500	-30.266	0.100
130.600	-22.803	0.100
130.700	-29.696	0.100
130.800	-25.213	0.100
130.900	-16.192	0.100
131.000	-28.908	0.100
131.100	-46.601	0.100
131.200	-26.112	0.100
131.300	-25.988	0.100
131.400	-23.302	0.100
131.500	-46.973	0.100
131.600	-33.962	0.100
131.700	-23.428	0.100
131.800	-19.161	0.100
131.900	-40.504	0.100
132.000	-28.053	0.100
132.100	-35.180	0.100
132.200	-33.145	0.100
132.300	-21.830	0.100
132.400	-29.611	0.100
132.500	-32.960	0.100
132.600	-30.058	0.100
132.700	-32.227	0.100
132.800	-30.419	0.100
132.900	-31.461	0.100
133.000	-33.168	0.100
133.100	-22.824	0.100
133.200	-38.806	0.100
133.300	-20.607	0.100
133.400	-36.142	0.100
133.500	-25.831	0.100
133.600	-29.265	0.100
133.700	-21.784	0.100
133.800	-36.947	0.100
133.900	-36.119	0.100
134.000	-20.876	0.100
134.100	-26.566	0.100
134.200	-34.063	0.100
134.300	-31.675	0.100
134.400	-31.007	0.100
134.500	-38.044	0.100
134.600	-31.112	0.100
134.700	-27.196	0.100
134.800	-41.265	0.100
134.900	-23.202	0.100
135.000	-28.460	0.100
135.100	-34.900	0.100
135.200	-30.161	0.100
135.300	-27.928	0.100
135.400	-30.407	0.100
135.500	-23.513	0.100
135.600	-30.700	0.100
135.700	-39.850	0.100
135.800	-33.818	0.100
135.900	-31.221	0.100
136.000	-13.261	0.100
136.100	-29.342	0.100
136.200	-29.633	0.100
136.300	-37.921	0.100
136.400	-35.940	0.100
136.500	-33.574	0.100
136.600	-34.934	0.100
136.700	-17.132	0.100
136.800	-32.251	0.100
136.900	-24.058	0.100
137.000	-19.537	0.100
137.100	-25.282	0.100
137.200	-13.920	0.100
137.300	-30.786	0.100
137.400	-32.406	0.100
137.500	-29.743	0.100
137.600	-34.925	0.100
137.700	-38.256	0.100
137.800	-16.341	0.100
137.900	-10.696	0.100
138.000	-25.437	0.100
138.100	-23.542	0.100
138.200	-37.622	0.100
138.300	-30.872	0.100
138.400	-25.935	0.100
138.500	-19.773	0.100
138.600	-34.524	0.100
138.700	-26.525	0.100
138.800	-27.199	0.100
138.900	-21.004	0.100
139.000	-23.666	0.100
139.100	-33.151	0.100
139.200	-12.745	0.100
139.300	-24.170	0.100
139.400	-39.518	0.100
139.500	-35.150	0.100
139.600	-35.944	0.100
139.700	-32.389	0.100
139.800	-25.060	0.100
139.900	-33.626	0.100
140.000	-22.087	0.100
140.100	-35.760	0.100
140.200	-26.611	0.100
140.300	-19.300	0.100
140.400	-33.240	0.100
140.500	-27.354	0.100
140.600	-27.546	0.100
140.700	-24.420	0.100
140.800	-24.925	0.100
140.900	-20.717	0.100
141.000	-33.915	0.100
141.100	-33.434	0.100
141.200	-27.676	0.100
141.300	-29.482	0.100
141.400	-24.232	0.100
141.500	-20.654	0.100
141.600	-24.158	0.100
141.700	-21.974	0.100
141.800	-32.032	0.100
141.900	-14.500	0.100
142.000	-24.186	0.100
142.100	-28.301	0.100
142.200	-30.791	0.100
142.300	-27.639	0.100
142.400	-28.395	0.100
142.500	-29.615	0.100
142.600	-16.395	0.100
142.700	-39.548	0.100
142.800	-40.055	0.100
142.900	-21.830	0.100
143.000	-22.523	0.100
143.100	-29.370	0.100
143.200	-28.610	0.100
143.300	-32.830	0.100
143.400	-25.883	0.100
143.500	-29.994	0.100
143.600	-17.127	0.100
143.700	-28.434	0.100
143.800	-31.874	0.100
143.900	-40.640	0.100
144.000	-28.340	0.100
144.100	-23.229	0.100
144.200	-15.555	0.100
144.300	-36.178	0.100
144.400	-32.669	0.100
144.500	-10.691	0.100
144.600	-36.937	0.100
144.700	-22.951	0.100
144.800	-16.042	0.100
144.900	-29.217	0.100
145.000	-19.620	0.100
145.100	-14.673	0.100
145.200	-30.340	0.100
145.300	-21.177	0.100
145.400	-45.726	0.100
145.500	-32.727	0.100
145.600	-22.810	0.100
145.700	-30.302	0.100
145.800	-24.801	0.100
145.900	-21.811	0.100
146.000	-16.081	0.100
146.100	-25.870	0.100
146.200	-23.684	0.100
146.300	-34.694	0.100
146.400	-19.458	0.100
146.500	-20.362	0.100
146.600	-32.418	0.100
146.700	-20.310	0.100
146.800	-26.875	0.100
146.900	-27.069	0.100
147.000	-19.631	0.100
147.100	-28.553	0.100
147.200	-31.988	0.100
147.300	-28.124	0.100
147.400	-20.304	0.100
147.500	-20.694	0.100
147.600	-30.602	0.100
147.700	-17.425	0.100
147.800	-27.718	0.100
147.900	-28.574	0.100
148.000	-26.914	0.100
148.100	-26.531	0.100
148.200	-25.134	0.100
148.300	-21.038	0.100
148.400	-26.263	0.100
148.500	-29.494	0.100
148.600	-21.918	0.100
148.700	-18.169	0.100
148.800	-25.743	0.100
148.900	-32.171	0.100
149.000	-37.349	0.100
149.100	-13.907	0.100
149.200	-17.685	0.100
149.300	-18.378	0.100
149.400	-25.777	0.100
149.500	-21.420	0.100
149.600	-24.353	0.100
149.700	-22.003	0.100
149.800	-38.262	0.100
149.900	-21.490	0.100
150.000	-32.627	0.100
150.100	-20.773	0.100
150.200	-34.675	0.100
150.300	-23.706	0.100
150.400	-11.119	0.100
150.500	-18.995	0.100
150.600	-19.679	0.100
150.700	-29.385	0.100
150.800	-21.735	0.100
150.900	-24.960	0.100
151.000	-31.847	0.100
151.100	-17.521	0.100
151.200	-18.024	0.100
151.300	-27.032	0.100
151.400	-36.571	0.100
151.500	-24.678	0.100
151.600	-22.553	0.100
151.700	-39.668	0.100
151.800	-13.889	0.100
151.900	-24.987	0.100
152.000	-32.460	0.100
152.100	-18.070	0.100
152.200	-30.093	0.100
152.300	-7.255	0.100
152.400	-25.690	0.100
152.500	-17.129	0.100
152.600	-20.604	0.100
152.700	-20.834	0.100
152.800	-30.141	0.100
152.900	-17.670	0.100
153.000	-26.490	0.100
153.100	-26.240	0.100
153.200	-14.405	0.100
153.300	-25.483	0.100
153.400	-20.294	0.100
153.500	-28.533	0.100
153.600	-23.965	0.100
153.700	-14.444	0.100
153.800	-11.485	0.100
153.900	-12.001	0.100
154.000	-21.051	0.100
154.100	-38.982	0.100
154.200	-20.742	0.100
154.300	-17.560	0.100
154.400	-19.297	0.100
154.500	-31.376	0.100
154.600	-27.500	0.100
154.700	-14.824	0.100
154.800	-30.463	0.100
154.900	-33.285	0.100
155.000	-23.018	0.100
155.100	-33.193	0.100
155.200	-19.953	0.100
155.300	-21.125	0.100
155.400	-24.741	0.100
155.500	-29.849	0.100
155.600	-25.056	0.100
155.700	-21.432	0.100
155.800	-21.425	0.100
155.900	-28.100	0.100
156.000	-41.245	0.100
156.100	-16.277	0.100
156.200	-15.866	0.100
156.300	-24.709	0.100
156.400	-26.975	0.100
156.500	-19.055	0.100
156.600	-16.558	0.100
156.700	-35.007	0.100
156.800	-13.267	0.100
156.900	-22.748	0.100
157.000	-26.580	0.100
157.100	-33.178	0.100
157.200	-17.084	0.100
157.300	-23.897	0.100
157.400	-21.373	0.100
157.500	-16.453	0.100
157.600	-24.058	0.100
157.700	-26.041	0.100
157.800	-16.869	0.100
157.900	-33.454	0.100
158.000	-21.001	0.100
158.100	-25.175	0.100
158.200	-24.321	0.100
158.300	-24.153	0.100
158.400	-14.149	0.100
158.500	-26.295	0.100
158.600	-22.040	0.100
158.700	-27.575	0.100
158.800	-28.298	0.100
158.900	-24.234	0.100
159.000	-31.257	0.100
159.100	-6.368	0.100
159.200	-12.874	0.100
159.300	-21.384	0.100
159.400	-21.167	0.100
159.500	-20.514	0.100
159.600	-23.143	0.100
159.700	-25.030	0.100
159.800	-27.653	0.100
159.900	-28.171	0.100
160.000	-17.867	0.100
160.100	-22.599	0.100
160.200	-29.769	0.100
160.300	-14.307	0.100
160.400	-16.489	0.100
160.500	-30.353	0.100
160.600	-24.902	0.100
160.700	-10.754	0.100
160.800	-14.365	0.100
160.900	-20.193	0.100
161.000	-31.056	0.100
161.100	-27.629	0.100
161.200	-25.919	0.100
161.300	-19.646	0.100
161.400	-23.601	0.100
161.500	-13.720	0.100
161.600	-33.187	0.100
161.700	-19.095	0.100
161.800	-21.772	0.100
161.900	-16.869	0.100
162.000	-23.908	0.100
162.100	-27.062	0.100
162.200	-21.152	0.100
162.300	-29.302	0.100
162.400	-19.031	0.100
162.500	-15.546	0.100
162.600	-19.101	0.100
162.700	-32.953	0.100
162.800	-23.962	0.100
162.900	-25.356	0.100
163.000	-18.289	0.100
163.100	-17.548	0.100
163.200	-21.746	0.100
163.300	-25.544	0.100
163.400	-17.748	0.100
163.500	-19.820	0.100
163.600	-14.905	0.100
163.700	-16.767	0.100
163.800	-30.446	0.100
163.900	-23.582	0.100
164.000	-23.267	0.100
164.100	-15.426	0.100
164.200	-15.843	0.100
164.300	-17.495	0.100
164.400	-19.134	0.100
164.500	-23.115	0.100
164.600	-28.188	0.100
164.700	-15.023	0.100
164.800	-35.639	0.100
164.900	-8.076	0.100
165.000	-7.869	0.100
165.100	-20.066	0.100
165.200	-10.122	0.100
165.300	-21.369	0.100
165.400	-28.220	0.100
165.500	-19.772	0.100
165.600	-19.891	0.100
165.700	-25.862	0.100
165.800	-10.802	0.100
165.900	-15.442	0.100
166.000	-20.662	0.100
166.100	-21.938	0.100
166.200	-31.862	0.100
166.300	-13.006	0.100
166.400	-13.636	0.100
166.500	-25.272	0.100
166.600	-10.542	0.100
166.700	-32.000	0.100
166.800	-19.382	0.100
166.900	-18.742	0.100
167.000	-15.106	0.100
167.100	-21.353	0.100
167.200	-29.711	0.100
167.300	-22.520	0.100
167.400	-28.089	0.100
167.500	-15.724	0.100
167.600	-17.991	0.100
167.700	-23.622	0.100
167.800	-31.010	0.100
167.900	-21.030	0.100
168.000	-21.416	0.100
168.100	-17.063	0.100
168.200	-20.076	0.100
168.300	-24.125	0.100
168.400	-29.269	0.100
168.500	-14.919	0.100
168.600	-19.168	0.100
168.700	-27.474	0.100
168.800	-29.366	0.100
168.900	-26.854	0.100
169.000	-18.928	0.100
169.100	-3.786	0.100
169.200	-21.292	0.100
169.300	-21.562	0.100
169.400	-20.341	0.100
169.500	-14.586	0.100
169.600	-29.708	0.100
169.700	-13.657	0.100
169.800	-32.586	0.100
169.900	-11.248	0.100
170.000	-7.915	0.100
170.100	-21.485	0.100
170.200	-21.521	0.100
170.300	-37.347	0.100
170.400	-16.792	0.100
170.500	-7.530	0.100
170.600	-23.691	0.100
170.700	-14.575	0.100
170.800	-19.819	0.100
170.900	-9.115	0.100
171.000	-28.763	0.100
171.100	-18.513	0.100
171.200	-25.040	0.100
171.300	-19.466	0.100
171.400	-24.566	0.100
171.500	-13.521	0.100
171.600	-19.274	0.100
171.700	-22.204	0.100
171.800	-22.556	0.100
171.900	-24.812	0.100
172.000	-34.081	0.100
172.100	-35.129	0.100
172.200	-13.119	0.100
172.300	-14.381	0.100
172.400	-21.922	0.100
172.500	-13.760	0.100
172.600	-22.766	0.100
172.700	-6.252	0.100
172.800	-18.972	0.100
172.900	-13.918	0.100
173.000	-23.616	0.100
173.100	-12.511	0.100
173.200	-13.175	0.100
173.300	-27.753	0.100
173.400	-25.126	0.100
173.500	-9.115	0.100
173.600	-22.843	0.100
173.700	-23.587	0.100
173.800	-22.723	0.100
173.900	-22.576	0.100
174.000	-24.738	0.100
174.100	-13.336	0.100
174.200	-22.575	0.100
174.300	-20.571	0.100
174.400	-17.273	0.100
174.500	-16.481	0.100
174.600	-15.163	0.100
174.700	-27.136	0.100
174.800	-25.726	0.100
174.900	-20.536	0.100
175.000	-18.238	0.100
175.100	-21.157	0.100
175.200	-26.515	0.100
175.300	-20.646	0.100
175.400	-15.211	0.100
175.500	-24.721	0.100
175.600	-22.103	0.100
175.700	-13.924	0.100
175.800	-22.936	0.100
175.900	-5.805	0.100
176.000	-21.152	0.100
176.100	-17.860	0.100
176.200	-10.243	0.100
176.300	-5.604	0.100
176.400	-13.488	0.100
176.500	-27.009	0.100
176.600	-24.653	0.100
176.700	-17.243	0.100
176.800	-15.822	0.100
176.900	-26.762	0.100
177.000	-21.593	0.100
177.100	-17.599	0.100
177.200	-39.403	0.100
177.300	-20.181	0.100
177.400	-20.958	0.100
177.500	-26.218	0.100
177.600	-11.080	0.100
177.700	-29.052	0.100
177.800	-20.195	0.100
177.900	-8.876	0.100
178.000	-16.026	0.100
178.100	-18.328	0.100
178.200	-20.829	0.100
178.300	-18.387	0.100
178.400	-16.593	0.100
178.500	-11.115	0.100
178.600	-32.549	0.100
178.700	-18.104	0.100
178.800	-14.966	0.100
178.900	-20.807	0.100
179.000	-38.231	0.100
179.100	-23.832	0.100
179.200	-20.096	0.100
179.300	-16.739	0.100
179.400	-13.471	0.100
179.500	-14.304	0.100
179.600	-19.362	0.100
179.700	-14.409	0.100
179.800	-23.149	0.100
179.900	-12.898	0.100
180.000	-16.801	0.100
180.100	0.409	0.100
180.200	5.594	0.100
180.300	22.730	0.100
180.400	17.060	0.100
180.500	30.156	0.100
180.600	25.852	0.100
180.700	29.793	0.100
180.800	40.404	0.100
180.900	45.877	0.100
181.000	42.942	0.100
181.100	49.734	0.100
181.200	51.149	0.100
181.300	52.615	0.100
181.400	60.657	0.100
181.500	52.204	0.100
181.600	33.424	0.100
181.700	47.532	0.100
181.800	53.472	0.100
181.900	54.337	0.100
182.000	54.324	0.100
182.100	51.182	0.100
182.200	45.127	0.100
182.300	46.288	0.100
182.400	42.445	0.100
182.500	46.218	0.100
182.600	43.756	0.100
182.700	44.693	0.100
182.800	38.763	0.100
182.900	36.922	0.100
183.000	48.861	0.100
183.100	47.487	0.100
183.200	40.701	0.100
183.300	53.256	0.100
183.400	37.140	0.100
183.500	36.394	0.100
183.600	42.699	0.100
183.700	32.644	0.100
183.800	39.182	0.100
183.900	32.414	0.100
184.000	55.356	0.100
184.100	45.210	0.100
184.200	51.817	0.100
184.300	32.285	0.100
184.400	32.083	0.100
184.500	34.970	0.100
184.600	32.626	0.100
184.700	40.415	0.100
184.800	34.885	0.100
184.900	38.909	0.100
185.000	31.377	0.100
185.100	51.927	0.100
185.200	48.576	0.100
185.300	54.880	0.100
185.400	46.699	0.100
185.500	54.972	0.100
185.600	45.935	0.100
185.700	58.022	0.100
185.800	51.500	0.100
185.900	62.321	0.100
186.000	49.243	0.100
186.100	51.088	0.100
186.200	53.398	0.100
186.300	57.372	0.100
186.400	66.067	0.100
186.500	58.150	0.100
186.600	60.409	0.100
186.700	55.847	0.100
186.800	55.192	0.100
186.900	78.414	0.100
187.000	65.237	0.100
187.100	61.184	0.100
187.200	75.091	0.100
187.300	64.667	0.100
187.400	66.258	0.100
187.500	59.805	0.100
187.600	68.123	0.100
187.700	73.183	0.100
187.800	76.138	0.100
187.900	61.099	0.100
188.000	66.975	0.100
188.100	69.718	0.100
188.200	57.540	0.100
188.300	77.075	0.100
188.400	69.169	0.100
188.500	84.746	0.100
188.600	87.589	0.100
188.700	80.004	0.100
188.800	78.139	0.100
188.900	77.187	0.100
189.000	77.667	0.100
189.100	67.279	0.100
189.200	72.642	0.100
189.300	70.525	0.100
189.400	79.463	0.100
189.500	77.433	0.100
189.600	75.874	0.100
189.700	74.912	0.100
189.800	85.617	0.100
189.900	59.848	0.100
190.000	90.025	0.100
190.100	87.113	0.100
190.200	75.176	0.100
190.300	77.869	0.100
190.400	73.388	0.100
190.500	80.004	0.100
190.600	77.962	0.100
190.700	87.614	0.100
190.800	80.631	0.100
190.900	77.311	0.100
191.000	73.128	0.100
191.100	88.003	0.100
191.200	86.451	0.100
191.300	79.676	0.100
191.400	79.364	0.100
191.500	82.743	0.100
191.600	81.264	0.100
191.700	84.756	0.100
191.800	70.911	0.100
191.900	86.152	0.100
192.000	88.525	0.100
192.100	78.701	0.100
192.200	79.552	0.100
192.300	73.821	0.100
192.400	80.607	0.100
192.500	82.848	0.100
192.600	78.168	0.100
192.700	80.449	0.100
192.800	83.781	0.100
192.900	88.621	0.100
193.000	91.869	0.100
193.100	84.368	0.100
193.200	81.565	0.100
193.300	75.161	0.100
193.400	82.089	0.100
193.500	79.635	0.100
193.600	75.600	0.100
193.700	70.860	0.100
193.800	81.975	0.100
193.900	77.836	0.100
194.000	81.256	0.100
194.100	79.429	0.100
194.200	78.710	0.100
194.300	72.697	0.100
194.400	78.077	0.100
194.500	71.346	0.100
194.600	89.020	0.100
194.700	92.660	0.100
194.800	83.021	0.100
194.900	86.665	0.100
195.000	75.360	0.100
195.100	82.327	0.100
195.200	81.118	0.100
195.300	72.638	0.100
195.400	79.865	0.100
195.500	80.018	0.100
195.600	90.440	0.100
195.700	83.794	0.100
195.800	74.986	0.100
195.900	86.479	0.100
196.000	75.176	0.100
196.100	81.481	0.100
196.200	76.551	0.100
196.300	61.292	0.100
196.400	78.103	0.100
196.500	81.455	0.100
196.600	86.424	0.100
196.700	72.409	0.100
196.800	80.354	0.100
196.900	72.667	0.100
197.000	69.130	0.100
197.100	98.191	0.100
197.200	75.230	0.100
197.300	75.698	0.100
197.400	73.891	0.100
197.500	87.385	0.100
197.600	80.685	0.100
197.700	80.487	0.100
197.800	79.528	0.100
197.900	74.948	0.100
198.000	79.501	0.100
198.100	78.190	0.100
198.200	73.423	0.100
198.300	75.873	0.100
198.400	86.167	0.100
198.500	75.049	0.100
198.600	79.037	0.100
198.700	75.812	0.100
198.800	75.930	0.100
198.900	84.170	0.100
199.000	76.425	0.100
199.100	81.151	0.100
199.200	85.224	0.100
199.300	73.503	0.100
199.400	61.509	0.100
199.500	76.709	0.100
199.600	73.552	0.100
199.700	75.356	0.100
199.800	92.599	0.100
199.900	82.310	0.100
200.000	80.768	0.100
200.100	72.277	0.100
200.200	66.270	0.100
200.300	77.036	0.100
200.400	83.486	0.100
200.500	74.475	0.100
200.600	63.569	0.100
200.700	75.143	0.100
200.800	73.820	0.100
200.900	73.213	0.100
201.000	78.729	0.100
201.100	77.157	0.100
201.200	79.328	0.100
201.300	77.384	0.100
201.400	78.563	0.100
201.500	71.278	0.100
201.600	79.801	0.100
201.700	68.331	0.100
201.800	80.007	0.100
201.900	73.728	0.100
202.000	65.569	0.100
202.100	87.867	0.100
202.200	80.396	0.100
202.300	72.236	0.100
202.400	82.933	0.100
202.500	69.436	0.100
202.600	63.158	0.100
202.700	71.856	0.100
202.800	67.799	0.100
202.900	71.929	0.100
203.000	83.509	0.100
203.100	78.361	0.100
203.200	73.173	0.100
203.300	76.602	0.100
203.400	75.245	0.100
203.500	74.064	0.100
203.600	68.367	0.100
203.700	76.916	0.100
203.800	66.240	0.100
203.900	79.505	0.100
204.000	71.919	0.100
204.100	79.708	0.100
204.200	77.920	0.100
204.300	70.638	0.100
204.400	55.578	0.100
204.500	66.183	0.100
204.600	67.451	0.100
204.700	70.583	0.100
204.800	89.288	0.100
204.900	62.599	0.100
205.000	74.192	0.100
205.100	66.362	0.100
205.200	80.321	0.100
205.300	74.517	0.100
205.400	78.652	0.100
205.500	68.170	0.100
205.600	75.078	0.100
205.700	72.518	0.100
205.800	62.605	0.100
205.900	76.083	0.100
206.000	69.983	0.100
206.100	79.422	0.100
206.200	73.082	0.100
206.300	73.461	0.100
206.400	77.167	0.100
206.500	72.237	0.100
206.600	77.086	0.100
206.700	66.502	0.100
206.800	77.805	0.100
206.900	83.051	0.100
207.000	74.846	0.100
207.100	62.361	0.100
207.200	67.150	0.100
207.300	76.909	0.100
207.400	67.142	0.100
207.500	70.332	0.100
207.600	69.525	0.100
207.700	73.254	0.100
207.800	75.245	0.100
207.900	80.544	0.100
208.000	70.059	0.100
208.100	67.660	0.100
208.200	71.074	0.100
208.300	82.957	0.100
208.400	70.712	0.100
208.500	70.594	0.100
208.600	73.015	0.100
208.700	76.203	0.100
208.800	56.216	0.100
208.900	72.652	0.100
209.000	53.123	0.100
209.100	75.187	0.100
209.200	73.592	0.100
209.300	70.633	0.100
209.400	69.617	0.100
209.500	60.842	0.100
209.600	65.728	0.100
209.700	82.155	0.100
209.800	82.279	0.100
209.900	65.127	0.100
210.000	77.389	0.100
210.100	69.955	0.100
210.200	78.395	0.100
210.300	84.163	0.100
210.400	70.437	0.100
210.500	67.237	0.100
210.600	79.413	0.100
210.700	71.797	0.100
210.800	82.311	0.100
210.900	59.653	0.100
211.000	70.763	0.100
211.100	67.984	0.100
211.200	79.130	0.100
211.300	61.977	0.100
211.400	69.328	0.100
211.500	86.353	0.100
211.600	79.436	0.100
211.700	80.441	0.100
211.800	68.371	0.100
211.900	78.382	0.100
212.000	74.760	0.100
212.100	71.400	0.100
212.200	75.902	0.100
212.300	74.597	0.100
212.400	74.673	0.100
212.500	80.128	0.100
212.600	84.219	0.100
212.700	72.597	0.100
212.800	57.847	0.100
212.900	78.616	0.100
213.000	71.275	0.100
213.100	76.860	0.100
213.200	74.423	0.100
213.300	72.536	0.100
213.400	72.338	0.100
213.500	74.135	0.100
213.600	79.480	0.100
213.700	87.822	0.100
213.800	78.239	0.100
213.900	79.679	0.100
214.000	69.786	0.100
214.100	81.885	0.100
214.200	71.321	0.100
214.300	60.993	0.100
214.400	72.502	0.100
214.500	63.692	0.100
214.600	76.544	0.100
214.700	81.927	0.100
214.800	74.632	0.100
214.900	82.148	0.100
215.000	66.678	0.100
215.100	65.756	0.100
215.200	82.916	0.100
215.300	77.129	0.100
215.400	80.283	0.100
215.500	76.189	0.100
215.600	70.003	0.100
215.700	80.684	0.100
215.800	57.043	0.100
215.900	71.196	0.100
216.000	70.285	0.100
216.100	66.818	0.100
216.200	80.507	0.100
216.300	74.004	0.100
216.400	77.139	0.100
216.500	71.946	0.100
216.600	69.527	0.100
216.700	67.739	0.100
216.800	63.310	0.100
216.900	84.248	0.100
217.000	66.313	0.100
217.100	74.558	0.100
217.200	77.049	0.100
217.300	79.525	0.100
217.400	62.392	0.100
217.500	68.639	0.100
217.600	74.040	0.100
217.700	67.484	0.100
217.800	72.320	0.100
217.900	72.268	0.100
218.000	72.865	0.100
218.100	60.778	0.100
218.200	75.081	0.100
218.300	73.474	0.100
218.400	65.989	0.100
218.500	75.447	0.100
218.600	65.151	0.100
218.700	74.258	0.100
218.800	78.999	0.100
218.900	90.230	0.100
219.000	78.441	0.100
219.100	68.986	0.100
219.200	80.607	0.100
219.300	59.040	0.100
219.400	70.550	0.100
219.500	79.575	0.100
219.600	68.731	0.100
219.700	75.423	0.100
219.800	93.246	0.100
219.900	68.598	0.100
220.000	69.730	0.100
220.100	76.695	0.100
220.200	54.732	0.100
220.300	74.679	0.100
220.400	71.931	0.100
220.500	77.399	0.100
220.600	80.412	0.100
220.700	77.733	0.100
220.800	68.139	0.100
220.900	79.606	0.100
221.000	89.941	0.100
221.100	76.622	0.100
221.200	66.513	0.100
221.300	79.458	0.100
221.400	80.880	0.100
221.500	70.841	0.100
221.600	66.276	0.100
221.700	73.583	0.100
221.800	85.089	0.100
221.900	65.777	0.100
222.000	59.151	0.100
222.100	84.910	0.100
222.200	71.135	0.100
222.300	73.686	0.100
222.400	79.502	0.100
222.500	78.249	0.100
222.600	66.635	0.100
222.700	77.973	0.100
222.800	77.794	0.100
222.900	72.434	0.100
223.000	77.184	0.100
223.100	77.214	0.100
223.200	77.862	0.100
223.300	63.834	0.100
223.400	81.363	0.100
223.500	74.747	0.100
223.600	73.151	0.100
223.700	69.364	0.100
223.800	86.634	0.100
223.900	81.925	0.100
224.000	61.614	0.100
224.100	69.833	0.100
224.200	74.532	0.100
224.300	81.867	0.100
224.400	64.527	0.100
224.500	54.133	0.100
224.600	72.823	0.100
224.700	77.678	0.100
224.800	72.686	0.100
224.900	63.360	0.100
225.000	75.109	0.100
225.100	83.362	0.100
225.200	70.733	0.100
225.300	73.172	0.100
225.400	62.362	0.100
225.500	78.230	0.100
225.600	78.767	0.100
225.700	74.997	0.100
225.800	81.032	0.100
225.900	72.677	0.100
226.000	66.085	0.100
226.100	76.232	0.100
226.200	87.781	0.100
226.300	73.799	0.100
226.400	77.200	0.100
226.500	83.000	0.100
226.600	79.849	0.100
226.700	62.995	0.100
226.800	79.912	0.100
226.900	74.729	0.100
227.000	58.984	0.100
227.100	67.936	0.100
227.200	74.804	0.100
227.300	82.669	0.100
227.400	79.704	0.100
227.500	81.132	0.100
227.600	77.852	0.100
227.700	77.159	0.100
227.800	65.526	0.100
227.900	84.575	0.100
228.000	78.030	0.100
228.100	75.422	0.100
228.200	71.487	0.100
228.300	64.668	0.100
228.400	67.655	0.100
228.500	84.954	0.100
228.600	77.139	0.100
228.700	71.444	0.100
228.800	74.820	0.100
228.900	75.451	0.100
229.000	73.566	0.100
229.100	73.738	0.100
229.200	72.214	0.100
229.300	89.307	0.100
229.400	79.193	0.100
229.500	68.227	0.100
229.600	70.180	0.100
229.700	95.471	0.100
229.800	84.023	0.100
229.900	70.922	0.100
230.000	78.328	0.100
230.100	82.351	0.100
230.200	79.886	0.100
230.300	69.455	0.100
230.400	65.852	0.100
230.500	78.222	0.100
230.600	59.244	0.100
230.700	78.947	0.100
230.800	84.766	0.100
230.900	75.340	0.100
231.000	71.581	0.100
231.100	74.123	0.100
231.200	78.399	0.100
231.300	77.274	0.100
231.400	79.388	0.100
231.500	63.375	0.100
231.600	85.029	0.100
231.700	83.333	0.100
231.800	78.566	0.100
231.900	71.084	0.100
232.000	76.826	0.100
232.100	78.680	0.100
232.200	77.526	0.100
232.300	74.345	0.100
232.400	52.722	0.100
232.500	79.664	0.100
232.600	68.843	0.100
232.700	75.015	0.100
232.800	81.299	0.100
232.900	71.729	0.100
233.000	77.196	0.100
233.100	83.870	0.100
233.200	78.407	0.100
233.300	72.353	0.100
233.400	80.856	0.100
233.500	77.727	0.100
233.600	71.717	0.100
233.700	78.289	0.100
233.800	78.099	0.100
233.900	72.033	0.100
234.000	70.769	0.100
234.100	80.751	0.100
234.200	78.062	0.100
234.300	79.537	0.100
234.400	81.716	0.100
234.500	64.512	0.100
234.600	78.781	0.100
234.700	66.029	0.100
234.800	83.805	0.100
234.900	76.789	0.100
235.000	76.086	0.100
235.100	79.233	0.100
235.200	60.081	0.100
235.300	81.835	0.100
235.400	80.743	0.100
235.500	65.694	0.100
235.600	81.513	0.100
235.700	74.549	0.100
235.800	72.285	0.100
235.900	81.368	0.100
236.000	57.584	0.100
236.100	81.572	0.100
236.200	78.621	0.100
236.300	78.796	0.100
236.400	80.550	0.100
236.500	91.633	0.100
236.600	74.331	0.100
236.700	82.629	0.100
236.800	69.235	0.100
236.900	82.711	0.100
237.000	79.252	0.100
237.100	59.535	0.100
237.200	74.366	0.100
237.300	79.820	0.100
237.400	74.468	0.100
237.500	69.786	0.100
237.600	71.281	0.100
237.700	75.172	0.100
237.800	68.234	0.100
237.900	81.259	0.100
238.000	89.683	0.100
238.100	80.851	0.100
238.200	61.838	0.100
238.300	81.355	0.100
238.400	68.203	0.100
238.500	91.006	0.100
238.600	75.886	0.100
238.700	68.090	0.100
238.800	67.387	0.100
238.900	68.063	0.100
239.000	76.664	0.100
239.100	84.508	0.100
239.200	79.688	0.100
239.300	75.470	0.100
239.400	79.924	0.100
239.500	64.216	0.100
239.600	77.008	0.100
239.700	68.103	0.100
239.800	66.658	0.100
239.900	75.791	0.100
240.000	62.965	0.100
240.100	44.565	0.100
240.200	26.181	0.100
240.300	12.734	0.100
240.400	-7.802	0.100
240.500	-10.087	0.100
240.600	-28.324	0.100
240.700	-36.153	0.100
240.800	-34.684	0.100
240.900	-46.803	0.100
241.000	-60.545	0.100
241.100	-73.708	0.100
241.200	-58.944	0.100
241.300	-64.816	0.100
241.400	-76.754	0.100
241.500	-86.761	0.100
241.600	-84.884	0.100
241.700	-97.700	0.100
241.800	-115.248	0.100
241.900	-84.221	0.100
242.000	-88.878	0.100
242.100	-87.345	0.100
242.200	-89.920	0.100
242.300	-104.956	0.100
242.400	-86.428	0.100
242.500	-97.845	0.100
242.600	-94.982	0.100
242.700	-84.286	0.100
242.800	-79.164	0.100
242.900	-86.301	0.100
243.000	-81.707	0.100
243.100	-78.006	0.100
243.200	-83.494	0.100
243.300	-81.799	0.100
243.400	-94.592	0.100
243.500	-72.511	0.100
243.600	-80.517	0.100
243.700	-85.564	0.100
243.800	-74.181	0.100
243.900	-92.950	0.100
244.000	-77.587	0.100
244.100	-76.419	0.100
244.200	-76.560	0.100
244.300	-57.523	0.100
244.400	-67.074	0.100
244.500	-67.076	0.100
244.600	-60.328	0.100
244.700	-72.450	0.100
244.800	-85.849	0.100
244.900	-60.677	0.099
245.000	-76.732	0.100
245.100	-71.535	0.100
245.200	-48.759	0.100
245.300	-55.764	0.100
245.400	-68.008	0.100
245.500	-46.827	0.100
245.600	-50.426	0.100
245.700	-51.610	0.100
245.800	-60.642	0.100
245.900	-44.492	0.100
246.000	-55.040	0.100
246.100	-69.577	0.100
246.200	-44.816	0.100
246.300	-57.448	0.100
246.400	-61.255	0.100
246.500	-52.592	0.100
246.600	-46.636	0.100
246.700	-51.259	0.100
246.800	-57.890	0.100
246.900	-50.202	0.100
247.000	-40.294	0.100
247.100	-43.933	0.100
247.200	-47.050	0.100
247.300	-49.258	0.100
247.400	-44.104	0.100
247.500	-57.953	0.100
247.600	-48.640	0.100
247.700	-41.597	0.100
247.800	-47.593	0.100
247.900	-46.508	0.100
248.000	-37.371	0.100
248.100	-35.919	0.100
248.200	-46.704	0.100
248.300	-35.916	0.100
248.400	-51.173	0.100
248.500	-53.913	0.100
248.600	-37.314	0.100
248.700	-40.323	0.100
248.800	-31.741	0.100
248.900	-37.432	0.100
249.000	-42.876	0.100
249.100	-44.642	0.100
249.200	-35.423	0.100
249.300	-46.207	0.100
249.400	-35.396	0.100
249.500	-37.209	0.100
249.600	-42.828	0.100
249.700	-30.835	0.100
249.800	-41.449	0.100
249.900	-38.522	0.100
250.000	-35.798	0.100
250.100	-46.013	0.100
250.200	-36.220	0.100
250.300	-40.880	0.100
250.400	-53.043	0.100
250.500	-56.440	0.100
250.600	-35.065	0.100
250.700	-47.631	0.100
250.800	-28.032	0.100
250.900	-41.234	0.100
251.000	-33.763	0.100
251.100	-54.996	0.100
251.200	-49.423	0.100
251.300	-37.804	0.100
251.400	-34.773	0.100
251.500	-35.742	0.100
251.600	-47.410	0.100
251.700	-40.872	0.100
251.800	-46.833	0.100
251.900	-29.455	0.100
252.000	-43.215	0.100
252.100	-38.895	0.100
252.200	-40.068	0.099
252.300	-35.574	0.100
252.400	-37.644	0.100
252.500	-42.816	0.100
252.600	-39.742	0.100
252.700	-48.005	0.100
252.800	-31.677	0.100
252.900	-35.472	0.100
253.000	-37.449	0.100
253.100	-42.529	0.100
253.200	-39.380	0.100
253.300	-51.569	0.100
253.400	-44.451	0.100
253.500	-48.233	0.100
253.600	-35.019	0.100
253.700	-30.257	0.100
253.800	-37.887	0.100
253.900	-40.091	0.100
254.000	-27.777	0.100
254.100	-38.336	0.100
254.200	-43.571	0.100
254.300	-40.284	0.100
254.400	-33.364	0.100
254.500	-32.806	0.100
254.600	-38.195	0.100
254.700	-46.376	0.100
254.800	-40.785	0.100
254.900	-46.559	0.100
255.000	-34.259	0.100
255.100	-48.797	0.100
255.200	-39.528	0.100
255.300	-39.039	0.100
255.400	-41.369	0.100
255.500	-43.552	0.100
255.600	-41.625	0.100
255.700	-43.675	0.100
255.800	-27.029	0.100
255.900	-46.777	0.100
256.000	-49.297	0.100
256.100	-25.700	0.100
256.200	-47.711	0.100
256.300	-39.772	0.100
256.400	-45.568	0.100
256.500	-38.096	0.100
256.600	-35.328	0.100
256.700	-39.314	0.100
256.800	-32.214	0.100
256.900	-45.883	0.100
257.000	-53.762	0.100
257.100	-53.131	0.100
257.200	-42.583	0.100
257.300	-40.404	0.100
257.400	-32.766	0.100
257.500	-40.301	0.100
257.600	-39.501	0.100
257.700	-42.494	0.100
257.800	-44.056	0.100
257.900	-44.662	0.100
258.000	-41.515	0.100
258.100	-40.621	0.100
258.200	-52.139	0.100
258.300	-39.430	0.100
258.400	-31.131	0.100
258.500	-46.629	0.100
258.600	-34.993	0.100
258.700	-33.030	0.100
258.800	-42.230	0.100
258.900	-30.598	0.100
259.000	-47.672	0.100
259.100	-46.418	0.099
259.200	-33.988	0.100
259.300	-39.139	0.100
259.400	-40.115	0.100
259.500	-39.710	0.100
259.600	-31.138	0.100
259.700	-35.570	0.100
259.800	-35.711	0.100
259.900	-46.943	0.100
260.000	-41.614	0.100
260.100	-55.187	0.100
260.200	-46.648	0.100
260.300	-41.375	0.100
260.400	-36.774	0.100
260.500	-45.471	0.100
260.600	-32.960	0.100
260.700	-41.234	0.100
260.800	-46.856	0.100
260.900	-43.181	0.100
261.000	-49.439	0.100
261.100	-29.637	0.100
261.200	-42.619	0.100
261.300	-45.047	0.100
261.400	-42.242	0.100
261.500	-44.244	0.100
261.600	-45.816	0.100
261.700	-43.980	0.100
261.800	-37.781	0.100
261.900	-32.231	0.100
262.000	-37.240	0.100
262.100	-56.223	0.100
262.200	-29.784	0.100
262.300	-40.951	0.100
262.400	-37.478	0.100
262.500	-44.560	0.100
262.600	-57.194	0.100
262.700	-40.377	0.100
262.800	-42.128	0.100
262.900	-46.189	0.100
263.000	-28.781	0.100
263.100	-33.818	0.100
263.200	-51.383	0.100
263.300	-44.720	0.100
263.400	-37.591	0.100
263.500	-43.884	0.100
263.600	-33.021	0.100
263.700	-47.082	0.100
263.800	-52.666	0.100
263.900	-36.794	0.100
264.000	-36.355	0.100
264.100	-50.068	0.100
264.200	-38.048	0.100
264.300	-42.213	0.100
264.400	-37.507	0.100
264.500	-30.750	0.100
264.600	-45.597	0.100
264.700	-45.849	0.100
264.800	-44.065	0.100
264.900	-38.905	0.100
265.000	-37.004	0.100
265.100	-37.593	0.100
265.200	-34.884	0.100
265.300	-29.439	0.100
265.400	-31.993	0.100
265.500	-48.183	0.100
265.600	-39.762	0.100
265.700	-44.354	0.100
265.800	-41.412	0.100
265.900	-37.721	0.100
266.000	-42.770	0.100
266.100	-31.523	0.100
266.200	-36.862	0.100
266.300	-34.353	0.100
266.400	-40.757	0.100
266.500	-42.370	0.100
266.600	-50.201	0.100
266.700	-40.285	0.100
266.800	-41.858	0.100
266.900	-41.413	0.100
267.000	-29.802	0.100
267.100	-43.473	0.100
267.200	-52.516	0.100
267.300	-45.300	0.100
267.400	-31.059	0.100
267.500	-40.365	0.100
267.600	-45.514	0.100
267.700	-38.896	0.100
267.800	-44.466	0.100
267.900	-38.030	0.100
268.000	-47.848	0.100
268.100	-41.603	0.100
268.200	-30.215	0.099
268.300	-29.445	0.100
268.400	-37.582	0.100
268.500	-28.355	0.100
268.600	-43.819	0.100
268.700	-46.006	0.100
268.800	-33.407	0.100
268.900	-42.727	0.100
269.000	-35.319	0.100
269.100	-40.575	0.100
269.200	-48.660	0.100
269.300	-54.193	0.100
269.400	-33.993	0.100
269.500	-31.618	0.099
269.600	-24.421	0.100
269.700	-42.437	0.100
269.800	-40.520	0.100
269.900	-48.532	0.100
270.000	-39.716	0.100
270.100	-41.879	0.100
270.200	-26.281	0.100
270.300	-45.136	0.100
270.400	-53.602	0.100
270.500	-42.172	0.100
270.600	-37.171	0.100
270.700	-25.807	0.100
270.800	-33.904	0.100
270.900	-42.230	0.100
271.000	-42.720	0.100
271.100	-51.368	0.099
271.200	-31.088	0.100
271.300	-35.503	0.100
271.400	-37.783	0.100
271.500	-49.207	0.100
271.600	-36.631	0.100
271.700	-32.309	0.100
271.800	-34.579	0.100
271.900	-38.787	0.100
272.000	-42.310	0.100
272.100	-29.076	0.100
272.200	-50.714	0.100
272.300	-40.083	0.100
272.400	-32.183	0.100
272.500	-29.011	0.100
272.600	-50.778	0.100
272.700	-32.921	0.100
272.800	-27.797	0.100
272.900	-50.359	0.100
273.000	-35.093	0.100
273.100	-47.272	0.100
273.200	-31.117	0.100
273.300	-35.764	0.100
273.400	-34.392	0.100
273.500	-23.806	0.100
273.600	-37.152	0.100
273.700	-33.268	0.100
273.800	-39.563	0.100
273.900	-37.896	0.100
274.000	-37.213	0.100
274.100	-35.626	0.100
274.200	-42.575	0.099
274.300	-30.352	0.100
274.400	-40.699	0.100
274.500	-44.420	0.100
274.600	-41.564	0.100
274.700	-39.374	0.100
274.800	-34.189	0.100
274.900	-36.523	0.100
275.000	-32.593	0.100
275.100	-27.679	0.100
275.200	-34.116	0.100
275.300	-47.604	0.100
275.400	-37.972	0.100
275.500	-43.683	0.100
275.600	-41.162	0.100
275.700	-36.702	0.100
275.800	-28.469	0.100
275.900	-44.636	0.100
276.000	-36.384	0.100
276.100	-42.329	0.100
276.200	-52.651	0.100
276.300	-41.958	0.100
276.400	-24.862	0.100
276.500	-51.017	0.100
276.600	-40.243	0.100
276.700	-36.062	0.100
276.800	-25.804	0.100
276.900	-32.864	0.100
277.000	-29.068	0.100
277.100	-33.911	0.100
277.200	-47.816	0.100
277.300	-40.938	0.100
277.400	-26.477	0.100
277.500	-47.957	0.100
277.600	-42.964	0.100
277.700	-34.997	0.100
277.800	-29.111	0.100
277.900	-32.194	0.100
278.000	-29.373	0.100
278.100	-42.405	0.100
278.200	-44.116	0.100
278.300	-34.692	0.100
278.400	-25.592	0.100
278.500	-42.395	0.100
278.600	-34.845	0.100
278.700	-37.043	0.100
278.800	-28.071	0.100
278.900	-36.490	0.100
279.000	-37.915	0.100
279.100	-37.142	0.100
279.200	-37.652	0.100
279.300	-29.014	0.100
279.400	-34.422	0.100
279.500	-32.554	0.100
279.600	-28.616	0.100
279.700	-45.837	0.100
279.800	-36.929	0.100
279.900	-32.435	0.100
280.000	-37.395	0.100
280.100	-37.281	0.100
280.200	-40.492	0.100
280.300	-26.289	0.100
280.400	-35.867	0.100
280.500	-43.144	0.100
280.600	-51.718	0.100
280.700	-33.754	0.100
280.800	-35.959	0.100
280.900	-27.807	0.100
281.000	-41.439	0.100
281.100	-37.703	0.100
281.200	-30.564	0.100
281.300	-36.592	0.100
281.400	-24.693	0.100
281.500	-33.575	0.100
281.600	-30.133	0.100
281.700	-32.537	0.100
281.800	-38.594	0.100
281.900	-50.996	0.100
282.000	-36.024	0.100
282.100	-30.340	0.100
282.200	-39.158	0.100
282.300	-45.742	0.100
282.400	-19.723	0.100
282.500	-46.424	0.100
282.600	-36.558	0.100
282.700	-38.934	0.100
282.800	-37.634	0.100
282.900	-23.970	0.100
283.000	-31.719	0.100
283.100	-36.750	0.100
283.200	-41.245	0.100
283.300	-36.460	0.100
283.400	-42.851	0.100
283.500	-26.475	0.100
283.600	-42.994	0.100
283.700	-29.487	0.100
283.800	-35.026	0.100
283.900	-30.672	0.100
284.000	-30.232	0.100
284.100	-34.363	0.100
284.200	-34.127	0.099
284.300	-37.773	0.100
284.400	-23.372	0.100
284.500	-39.310	0.099
284.600	-39.576	0.100
284.700	-33.360	0.100
284.800	-42.614	0.100
284.900	-40.932	0.099
285.000	-18.971	0.100
285.100	-35.209	0.100
285.200	-33.799	0.100
285.300	-33.818	0.100
285.400	-33.741	0.100
285.500	-39.341	0.100
285.600	-37.915	0.100
285.700	-28.526	0.100
285.800	-36.975	0.100
285.900	-34.806	0.100
286.000	-26.761	0.100
286.100	-30.156	0.100
286.200	-18.276	0.100
286.300	-29.969	0.100
286.400	-37.026	0.100
286.500	-30.591	0.100
286.600	-31.143	0.100
286.700	-30.504	0.100
286.800	-45.140	0.100
286.900	-30.048	0.100
287.000	-37.272	0.100
287.100	-27.385	0.100
287.200	-54.072	0.100
287.300	-40.880	0.100
287.400	-35.767	0.100
287.500	-34.417	0.100
287.600	-39.086	0.100
287.700	-33.539	0.100
287.800	-38.743	0.100
287.900	-29.608	0.100
288.000	-35.737	0.100
288.100	-33.740	0.100
288.200	-36.493	0.100
288.300	-34.127	0.100
288.400	-11.810	0.100
288.500	-24.835	0.100
288.600	-39.124	0.100
288.700	-32.223	0.100
288.800	-20.409	0.100
288.900	-25.235	0.100
289.000	-39.731	0.100
289.100	-35.549	0.100
289.200	-35.220	0.100
289.300	-42.576	0.100
289.400	-31.569	0.100
289.500	-21.306	0.100
289.600	-32.202	0.100
289.700	-26.955	0.100
289.800	-38.127	0.100
289.900	-43.755	0.100
290.000	-31.219	0.100
290.100	-40.462	0.100
290.200	-23.391	0.100
290.300	-23.793	0.100
290.400	-29.993	0.100
290.500	-28.632	0.100
290.600	-40.190	0.100
290.700	-34.060	0.100
290.800	-21.998	0.100
290.900	-34.508	0.100
291.000	-28.485	0.100
291.100	-32.355	0.100
291.200	-30.354	0.100
291.300	-15.991	0.100
291.400	-26.344	0.100
291.500	-26.556	0.100
291.600	-38.039	0.100
291.700	-28.298	0.100
291.800	-40.900	0.100
291.900	-25.965	0.100
292.000	-27.826	0.100
292.100	-25.262	0.100
292.200	-18.529	0.100
292.300	-38.370	0.100
292.400	-37.039	0.100
292.500	-30.845	0.100
292.600	-28.443	0.100
292.700	-18.968	0.100
292.800	-29.317	0.100
292.900	-29.314	0.100
293.000	-36.814	0.100
293.100	-24.224	0.100
293.200	-45.445	0.100
293.300	-33.320	0.100
293.400	-23.120	0.100
293.500	-23.995	0.100
293.600	-24.599	0.100
293.700	-33.652	0.100
293.800	-26.048	0.100
293.900	-28.770	0.100
294.000	-33.563	0.100
294.100	-26.024	0.100
294.200	-19.215	0.100
294.300	-34.629	0.100
294.400	-25.423	0.100
294.500	-32.328	0.100
294.600	-27.191	0.100
294.700	-30.531	0.100
294.800	-41.964	0.100
294.900	-32.616	0.100
295.000	-25.992	0.100
295.100	-35.117	0.100
295.200	-27.229	0.100
295.300	-33.088	0.100
295.400	-31.188	0.100
295.500	-37.292	0.100
295.600	-25.259	0.100
295.700	-29.706	0.100
295.800	-22.638	0.100
295.900	-34.786	0.100
296.000	-24.825	0.100
296.100	-22.030	0.100
296.200	-28.930	0.100
296.300	-43.328	0.100
296.400	-25.211	0.100
296.500	-26.636	0.100
296.600	-24.607	0.100
296.700	-33.575	0.100
296.800	-32.762	0.100
296.900	-26.113	0.100
297.000	-18.450	0.100
297.100	-25.989	0.100
297.200	-31.732	0.100
297.300	-22.674	0.100
297.400	-24.853	0.100
297.500	-24.341	0.100
297.600	-24.036	0.100
297.700	-31.808	0.100
297.800	-26.407	0.100
297.900	-31.950	0.100
298.000	-55.023	0.100
298.100	-28.793	0.100
298.200	-23.482	0.100
298.300	-29.647	0.100
298.400	-33.764	0.100
298.500	-38.872	0.100
298.600	-28.847	0.100
298.700	-30.275	0.100
298.800	-41.279	0.099
298.900	-36.047	0.100
299.000	-19.994	0.100
299.100	-13.906	0.100
299.200	-24.691	0.100
299.300	-35.949	0.100
299.400	-25.059	0.100
299.500	-24.628	0.100
299.600	-43.595	0.100
299.700	-29.686	0.100
299.800	-30.852	0.100
299.900	-28.236	0.100
300.000	-31.445	0.100
300.100	-25.241	0.100
300.200	-15.443	0.100
300.300	-25.520	0.100
300.400	-31.705	0.100
300.500	-18.847	0.100
300.600	-27.121	0.100
300.700	-31.801	0.100
300.800	-27.696	0.100
300.900	-38.473	0.100
301.000	-21.606	0.100
301.100	-40.108	0.100
301.200	-37.789	0.100
301.300	-11.909	0.100
301.400	-22.837	0.100
301.500	-27.510	0.100
301.600	-34.692	0.100
301.700	-17.771	0.100
301.800	-26.738	0.100
301.900	-26.704	0.100
302.000	-30.801	0.100
302.100	-34.443	0.100
302.200	-23.402	0.100
302.300	-26.999	0.100
302.400	-25.573	0.100
302.500	-23.726	0.100
302.600	-34.248	0.100
302.700	-40.784	0.100
302.800	-34.332	0.100
302.900	-25.966	0.100
303.000	-30.372	0.100
303.100	-22.326	0.100
303.200	-22.253	0.100
303.300	-21.062	0.100
303.400	-28.315	0.100
303.500	-12.746	0.100
303.600	-28.863	0.100
303.700	-34.270	0.100
303.800	-27.542	0.100
303.900	-28.850	0.100
304.000	-33.525	0.100
304.100	-27.232	0.100
304.200	-21.007	0.100
304.300	-24.474	0.100
304.400	-32.573	0.100
304.500	-24.233	0.100
304.600	-31.504	0.100
304.700	-24.578	0.100
304.800	-20.877	0.100
304.900	-33.037	0.100
305.000	-32.588	0.100
305.100	-24.853	0.100
305.200	-24.659	0.100
305.300	-25.795	0.100
305.400	-26.140	0.100
305.500	-26.221	0.100
305.600	-28.999	0.100
305.700	-29.638	0.100
305.800	-32.564	0.100
305.900	-24.091	0.100
306.000	-27.091	0.100
306.100	-14.842	0.100
306.200	-26.059	0.100
306.300	-23.114	0.100
306.400	-33.065	0.100
306.500	-29.812	0.100
306.600	-26.279	0.100
306.700	-23.213	0.099
306.800	-30.702	0.100
306.900	-28.610	0.100
307.000	-24.019	0.100
307.100	-16.491	0.100
307.200	-25.697	0.100
307.300	-28.323	0.100
307.400	-31.052	0.100
307.500	-31.014	0.100
307.600	-20.944	0.100
307.700	-26.054	0.100
307.800	-37.227	0.100
307.900	-34.007	0.100
308.000	-39.958	0.099
308.100	-20.907	0.100
308.200	-16.861	0.100
308.300	-28.512	0.100
308.400	-20.322	0.100
308.500	-27.793	0.100
308.600	-33.643	0.100
308.700	-29.868	0.100
308.800	-31.063	0.100
308.900	-25.026	0.100
309.000	-22.048	0.100
309.100	-26.558	0.100
309.200	-31.204	0.100
309.300	-15.539	0.100
309.400	-32.178	0.100
309.500	-21.927	0.100
309.600	-22.436	0.100
309.700	-22.328	0.100
309.800	-34.401	0.100
309.900	-36.981	0.100
310.000	-29.832	0.100
310.100	-19.153	0.100
310.200	-34.637	0.100
310.300	-13.121	0.100
310.400	-23.533	0.100
310.500	-32.424	0.100
310.600	-30.673	0.100
310.700	-38.682	0.100
310.800	-8.703	0.100
310.900	-17.911	0.100
311.000	-21.156	0.100
311.100	-22.637	0.100
311.200	-8.985	0.100
311.300	-33.153	0.100
311.400	-24.524	0.100
311.500	-49.998	0.100
311.600	-21.525	0.100
311.700	-21.175	0.100
311.800	-25.671	0.100
311.900	-17.868	0.100
312.000	-25.103	0.100
312.100	-27.657	0.100
312.200	-25.517	0.100
312.300	-24.509	0.100
312.400	-26.465	0.100
312.500	-29.495	0.100
312.600	-29.966	0.100
312.700	-15.239	0.100
312.800	-14.929	0.100
312.900	-24.915	0.100
313.000	-22.345	0.100
313.100	-17.961	0.100
313.200	-26.198	0.100
313.300	-27.275	0.100
313.400	-38.609	0.100
313.500	-34.561	0.100
313.600	-23.704	0.100
313.700	-10.312	0.100
313.800	-17.467	0.100
313.900	-30.947	0.100
314.000	-37.392	0.100
314.100	-20.619	0.100
314.200	-21.859	0.100
314.300	-12.425	0.100
314.400	-20.206	0.100
314.500	-7.628	0.100
314.600	-16.512	0.100
314.700	-23.915	0.100
314.800	-25.724	0.100
314.900	-30.199	0.100
315.000	-26.733	0.100
315.100	-17.161	0.100
315.200	-27.179	0.100
315.300	-29.943	0.100
315.400	-10.644	0.100
315.500	-30.338	0.100
315.600	-22.051	0.100
315.700	-32.686	0.100
315.800	-11.996	0.100
315.900	-30.010	0.100
316.000	-24.750	0.100
316.100	-19.852	0.100
316.200	-29.032	0.100
316.300	-22.095	0.100
316.400	-27.778	0.100
316.500	-38.122	0.100
316.600	-25.138	0.100
316.700	-19.662	0.100
316.800	-26.495	0.100
316.900	-5.554	0.100
317.000	-31.979	0.100
317.100	-43.943	0.100
317.200	-12.238	0.100
317.300	-19.329	0.100
317.400	-34.975	0.100
317.500	-19.911	0.100
317.600	-26.022	0.100
317.700	-31.080	0.100
317.800	-29.503	0.100
317.900	-25.946	0.100
318.000	-33.612	0.100
318.100	-23.058	0.100
318.200	-31.543	0.100
318.300	-19.145	0.100
318.400	-26.541	0.100
318.500	-13.690	0.100
318.600	-24.887	0.100
318.700	-19.382	0.100
318.800	-40.231	0.100
318.900	-18.012	0.100
319.000	-25.448	0.100
319.100	-37.495	0.100
319.200	-22.375	0.100
319.300	-12.213	0.100
319.400	-21.831	0.100
319.500	-24.113	0.100
319.600	-23.866	0.100
319.700	-35.968	0.100
319.800	-23.744	0.100
319.900	-23.067	0.100
320.000	-20.404	0.100
320.100	-24.573	0.100
320.200	-12.835	0.100
320.300	-24.855	0.100
320.400	-21.983	0.100
320.500	-22.673	0.100
320.600	-30.711	0.100
320.700	-15.615	0.100
320.800	-22.661	0.100
320.900	-29.716	0.100
321.000	-19.275	0.100
321.100	-21.825	0.100
321.200	-25.515	0.100
321.300	-23.361	0.100
321.400	-18.717	0.100
321.500	-14.252	0.100
321.600	-24.844	0.100
321.700	-21.499	0.100
321.800	-26.727	0.100
321.900	-18.022	0.100
322.000	-22.082	0.100
322.100	-28.097	0.100
322.200	-24.415	0.100
322.300	-26.945	0.100
322.400	-22.348	0.100
322.500	-17.004	0.100
322.600	-19.362	0.100
322.700	-23.883	0.100
322.800	-24.843	0.100
322.900	-27.698	0.100
323.000	-18.467	0.100
323.100	-19.083	0.100
323.200	-30.390	0.100
323.300	-24.735	0.100
323.400	-18.265	0.100
323.500	-26.048	0.100
323.600	-20.185	0.100
323.700	-24.615	0.100
323.800	-9.321	0.100
323.900	-25.473	0.100
324.000	-32.067	0.100
324.100	-33.547	0.100
324.200	-27.219	0.100
324.300	-14.541	0.100
324.400	-18.571	0.100
324.500	-18.077	0.100
324.600	-22.618	0.100
324.700	-26.006	0.100
324.800	-33.164	0.100
324.900	-28.880	0.100
325.000	-24.563	0.100
325.100	-15.376	0.100
325.200	-23.995	0.100
325.300	-17.698	0.100
325.400	-4.605	0.100
325.500	-29.179	0.100
325.600	-5.607	0.100
325.700	-24.209	0.100
325.800	-25.336	0.100
325.900	-30.286	0.100
326.000	-17.804	0.100
326.100	-25.163	0.100
326.200	-21.604	0.100
326.300	-42.941	0.100
326.400	-18.351	0.100
326.500	-22.405	0.100
326.600	-31.227	0.100
326.700	-25.944	0.100
326.800	-15.390	0.100
326.900	-21.215	0.100
327.000	-37.209	0.100
327.100	-9.354	0.100
327.200	-16.400	0.100
327.300	-21.383	0.100
327.400	-24.200	0.100
327.500	-27.328	0.100
327.600	-27.994	0.100
327.700	-13.444	0.100
327.800	-23.624	0.100
327.900	-16.140	0.100
328.000	-21.834	0.100
328.100	-16.240	0.100
328.200	-17.202	0.100
328.300	-22.864	0.100
328.400	-28.888	0.100
328.500	-24.661	0.100
328.600	-17.913	0.100
328.700	-22.205	0.100
328.800	-16.217	0.100
328.900	-39.646	0.100
329.000	-29.936	0.100
329.100	-19.310	0.100
329.200	-25.450	0.100
329.300	-20.077	0.100
329.400	-21.643	0.100
329.500	-20.552	0.100
329.600	-28.432	0.100
329.700	-23.184	0.100
329.800	-12.726	0.100
329.900	-26.494	0.100
330.000	-6.853	0.100
330.100	1.723	0.100
330.200	3.185	0.100
330.300	-2.522	0.100
330.400	24.329	0.100
330.500	19.212	0.100
330.600	30.573	0.100
330.700	50.310	0.100
330.800	46.693	0.100
330.900	45.495	0.100
331.000	39.261	0.100
331.100	69.435	0.100
331.200	68.043	0.100
331.300	56.051	0.100
331.400	60.139	0.100
331.500	60.329	0.100
331.600	56.020	0.100
331.700	52.369	0.100
331.800	55.771	0.100
331.900	54.094	0.100
332.000	42.379	0.100
332.100	54.781	0.100
332.200	56.648	0.100
332.300	50.854	0.100
332.400	46.780	0.100
332.500	61.256	0.100
332.600	53.482	0.100
332.700	48.937	0.100
332.800	44.312	0.100
332.900	44.014	0.100
333.000	44.163	0.100
333.100	57.294	0.100
333.200	49.739	0.100
333.300	52.176	0.100
333.400	45.003	0.100
333.500	37.215	0.100
333.600	36.160	0.100
333.700	47.354	0.100
333.800	35.331	0.100
333.900	33.503	0.100
334.000	45.625	0.100
334.100	53.520	0.100
334.200	44.447	0.100
334.300	47.944	0.100
334.400	34.082	0.100
334.500	41.241	0.100
334.600	44.778	0.100
334.700	41.693	0.100
334.800	38.932	0.100
334.900	46.622	0.100
335.000	57.124	0.100
335.100	34.110	0.100
335.200	53.187	0.100
335.300	47.613	0.100
335.400	52.162	0.100
335.500	68.279	0.100
335.600	53.625	0.100
335.700	65.490	0.100
335.800	57.340	0.100
335.900	59.896	0.100
336.000	52.394	0.100
336.100	58.230	0.100
336.200	80.180	0.100
336.300	60.689	0.100
336.400	73.596	0.100
336.500	74.697	0.100
336.600	77.540	0.100
336.700	62.374	0.100
336.800	70.717	0.100
336.900	59.719	0.100
337.000	69.256	0.100
337.100	67.691	0.100
337.200	72.146	0.100
337.300	67.656	0.100
337.400	73.466	0.100
337.500	89.241	0.100
337.600	64.960	0.100
337.700	72.422	0.100
337.800	77.542	0.100
337.900	75.175	0.100
338.000	76.108	0.100
338.100	79.602	0.100
338.200	78.444	0.100
338.300	81.816	0.100
338.400	78.685	0.100
338.500	82.898	0.100
338.600	78.424	0.100
338.700	73.614	0.100
338.800	86.945	0.100
338.900	74.398	0.100
339.000	76.606	0.100
339.100	84.604	0.100
339.200	92.991	0.100
339.300	90.003	0.100
339.400	87.566	0.100
339.500	80.498	0.100
339.600	83.364	0.100
339.700	84.195	0.100
339.800	85.514	0.100
339.900	88.656	0.100
340.000	85.195	0.100
340.100	82.833	0.100
340.200	81.123	0.100
340.300	86.444	0.100
340.400	82.901	0.100
340.500	87.414	0.100
340.600	88.169	0.100
340.700	78.134	0.100
340.800	87.048	0.100
340.900	88.400	0.100
341.000	84.970	0.100
341.100	79.582	0.100
341.200	80.398	0.100
341.300	93.863	0.100
341.400	77.868	0.100
341.500	87.858	0.100
341.600	88.846	0.100
341.700	86.322	0.100
341.800	89.216	0.100
341.900	89.651	0.100
342.000	88.840	0.100
342.100	71.702	0.100
342.200	80.588	0.100
342.300	80.534	0.100
342.400	95.805	0.100
342.500	88.371	0.100
342.600	88.421	0.100
342.700	93.634	0.100
342.800	93.127	0.100
342.900	87.880	0.100
343.000	84.545	0.100
343.100	72.427	0.100
343.200	85.003	0.100
343.300	81.822	0.100
343.400	85.883	0.100
343.500	79.976	0.100
343.600	84.738	0.100
343.700	93.416	0.100
343.800	86.930	0.100
343.900	88.142	0.100
344.000	79.154	0.100
344.100	88.161	0.100
344.200	77.238	0.100
344.300	86.290	0.100
344.400	91.271	0.100
344.500	82.795	0.100
344.600	91.003	0.100
344.700	78.768	0.100
344.800	80.754	0.100
344.900	82.986	0.100
345.000	88.867	0.100
345.100	80.794	0.100
345.200	86.780	0.100
345.300	79.392	0.100
345.400	75.751	0.100
345.500	90.313	0.100
345.600	73.693	0.100
345.700	77.122	0.100
345.800	79.759	0.100
345.900	76.963	0.100
346.000	76.697	0.100
346.100	70.484	0.100
346.200	89.058	0.100
346.300	96.590	0.100
346.400	88.680	0.100
346.500	77.512	0.100
346.600	84.283	0.100
346.700	85.567	0.100
346.800	83.136	0.100
346.900	81.953	0.100
347.000	78.541	0.100
347.100	88.922	0.100
347.200	86.163	0.100
347.300	85.014	0.100
347.400	87.048	0.100
347.500	79.512	0.100
347.600	79.458	0.100
347.700	77.336	0.100
347.800	87.236	0.100
347.900	82.237	0.100
348.000	74.922	0.100
348.100	88.523	0.100
348.200	85.486	0.100
348.300	84.474	0.100
348.400	80.026	0.100
348.500	77.055	0.100
348.600	79.516	0.100
348.700	83.610	0.100
348.800	89.328	0.100
348.900	78.520	0.100
349.000	80.162	0.100
349.100	76.889	0.100
349.200	66.108	0.100
349.300	71.138	0.100
349.400	79.968	0.100
349.500	82.185	0.100
349.600	68.504	0.100
349.700	80.057	0.100
349.800	90.666	0.100
349.900	78.973	0.100
350.000	71.482	0.100
350.100	68.695	0.100
350.200	74.373	0.100
350.300	74.538	0.100
350.400	76.609	0.100
350.500	80.273	0.100
350.600	72.646	0.100
350.700	75.210	0.100
350.800	66.440	0.100
350.900	73.720	0.100
351.000	80.058	0.100
351.100	75.268	0.100
351.200	75.948	0.100
351.300	78.843	0.100
351.400	75.450	0.100
351.500	74.067	0.100
351.600	73.515	0.100
351.700	73.457	0.100
351.800	76.627	0.100
351.900	61.974	0.100
352.000	72.552	0.100
352.100	83.686	0.100
352.200	72.264	0.100
352.300	77.751	0.100
352.400	64.867	0.100
352.500	81.498	0.100
352.600	74.754	0.100
352.700	76.911	0.100
352.800	66.627	0.100
352.900	73.855	0.100
353.000	80.354	0.100
353.100	68.067	0.100
353.200	75.857	0.100
353.300	78.232	0.100
353.400	80.044	0.100
353.500	76.778	0.100
353.600	70.690	0.100
353.700	77.928	0.100
353.800	62.098	0.100
353.900	81.550	0.100
354.000	82.359	0.100
354.100	79.211	0.100
354.200	80.248	0.100
354.300	69.811	0.100
354.400	72.508	0.100
354.500	79.470	0.100
354.600	76.028	0.100
354.700	81.515	0.100
354.800	62.841	0.100
354.900	84.667	0.100
355.000	66.297	0.100
355.100	72.966	0.100
355.200	69.664	0.100
355.300	82.695	0.100
355.400	74.620	0.100
355.500	71.189	0.100
355.600	74.262	0.100
355.700	68.164	0.100
355.800	78.080	0.100
355.900	83.533	0.100
356.000	82.509	0.100
356.100	61.162	0.100
356.200	72.441	0.100
356.300	74.866	0.100
356.400	79.618	0.100
356.500	74.422	0.100
356.600	64.457	0.100
356.700	73.120	0.100
356.800	73.241	0.100
356.900	74.879	0.100
357.000	62.439	0.100
357.100	65.190	0.100
357.200	80.204	0.100
357.300	73.042	0.100
357.400	73.099	0.100
357.500	84.833	0.100
357.600	85.855	0.100
357.700	70.627	0.100
357.800	74.569	0.100
357.900	79.182	0.100
358.000	74.546	0.100
358.100	73.108	0.100
358.200	71.590	0.100
358.300	77.965	0.100
358.400	75.175	0.100
358.500	63.826	0.100
358.600	75.800	0.100
358.700	80.522	0.100
358.800	69.979	0.100
358.900	86.099	0.100
359.000	62.640	0.100
359.100	73.939	0.100
359.200	76.402	0.100
359.300	74.500	0.100
359.400	66.058	0.100
359.500	80.261	0.100
359.600	71.967	0.100
359.700	72.259	0.100
359.800	72.843	0.100
359.900	71.754	0.100
360.000	77.737	0.100
360.100	81.869	0.100
360.200	72.962	0.100
360.300	73.619	0.100
360.400	82.192	0.100
360.500	74.245	0.100
360.600	93.875	0.100
360.700	56.874	0.100
360.800	77.079	0.100
360.900	74.330	0.100
361.000	85.604	0.100
361.100	73.041	0.100
361.200	80.669	0.100
361.300	72.634	0.100
361.400	78.471	0.100
361.500	78.034	0.100
361.600	83.312	0.100
361.700	72.063	0.100
361.800	81.911	0.100
361.900	64.471	0.100
362.000	79.648	0.100
362.100	78.698	0.100
362.200	76.983	0.100
362.300	62.530	0.100
362.400	76.908	0.100
362.500	70.265	0.100
362.600	69.630	0.100
362.700	79.155	0.100
362.800	76.597	0.100
362.900	70.387	0.100
363.000	86.106	0.100
363.100	64.656	0.100
363.200	71.342	0.100
363.300	92.326	0.100
363.400	73.368	0.100
363.500	77.506	0.100
363.600	63.923	0.100
363.700	83.922	0.100
363.800	79.069	0.100
363.900	68.894	0.100
364.000	72.939	0.100
364.100	76.968	0.100
364.200	76.325	0.100
364.300	80.095	0.100
364.400	69.806	0.100
364.500	83.657	0.100
364.600	84.125	0.100
364.700	79.545	0.100
364.800	81.145	0.100
364.900	69.450	0.100
365.000	67.425	0.100
365.100	73.947	0.100
365.200	67.974	0.100
365.300	76.078	0.100
365.400	86.310	0.100
365.500	70.152	0.100
365.600	89.387	0.100
365.700	80.907	0.100
365.800	83.851	0.100
365.900	86.715	0.100
366.000	60.058	0.100
366.100	71.330	0.100
366.200	86.281	0.100
366.300	75.913	0.100
366.400	86.582	0.100
366.500	85.206	0.100
366.600	78.199	0.100
366.700	71.080	0.100
366.800	85.816	0.100
366.900	80.692	0.100
367.000	76.562	0.100
367.100	70.050	0.100
367.200	79.553	0.100
367.300	78.441	0.100
367.400	72.065	0.100
367.500	70.966	0.100
367.600	86.731	0.100
367.700	76.722	0.100
367.800	84.241	0.100
367.900	77.346	0.100
368.000	66.568	0.100
368.100	84.622	0.100
368.200	82.687	0.100
368.300	81.299	0.100
368.400	72.648	0.100
368.500	78.233	0.100
368.600	72.260	0.100
368.700	83.422	0.100
368.800	76.516	0.100
368.900	73.039	0.100
369.000	81.859	0.100
369.100	80.255	0.100
369.200	84.715	0.100
369.300	74.024	0.100
369.400	75.134	0.100
369.500	97.984	0.100
369.600	70.109	0.100
369.700	73.860	0.100
369.800	85.171	0.100
369.900	82.700	0.100
370.000	73.449	0.100
370.100	64.062	0.100
370.200	75.618	0.100
370.300	84.612	0.100
370.400	73.611	0.100
370.500	81.641	0.100
370.600	73.803	0.100
370.700	71.326	0.100
370.800	83.950	0.100
370.900	71.141	0.100
371.000	81.163	0.100
371.100	81.108	0.100
371.200	72.053	0.100
371.300	67.008	0.100
371.400	72.548	0.100
371.500	94.084	0.100
371.600	83.908	0.100
371.700	79.588	0.100
371.800	79.803	0.100
371.900	68.889	0.100
372.000	78.219	0.100
372.100	81.314	0.100
372.200	76.258	0.100
372.300	77.296	0.100
372.400	78.274	0.100
372.500	81.694	0.100
372.600	82.619	0.100
372.700	79.347	0.100
372.800	82.008	0.100
372.900	82.516	0.100
373.000	78.525	0.100
373.100	85.303	0.100
373.200	77.722	0.100
373.300	89.654	0.100
373.400	68.000	0.100
373.500	72.401	0.100
373.600	77.396	0.100
373.700	80.550	0.100
373.800	78.480	0.100
373.900	74.845	0.100
374.000	84.957	0.100
374.100	81.601	0.100
374.200	77.445	0.099
374.300	83.340	0.100
374.400	95.597	0.100
374.500	82.736	0.100
374.600	74.144	0.100
374.700	69.541	0.100
374.800	75.322	0.100
374.900	70.916	0.100
375.000	65.901	0.100
375.100	86.746	0.100
375.200	82.924	0.100
375.300	75.662	0.100
375.400	77.347	0.100
375.500	77.492	0.100
375.600	76.216	0.100
375.700	80.708	0.100
375.800	82.915	0.100
375.900	74.317	0.100
376.000	68.084	0.100
376.100	73.468	0.100
376.200	69.930	0.100
376.300	101.092	0.100
376.400	80.729	0.100
376.500	82.846	0.100
376.600	70.255	0.100
376.700	74.650	0.100
376.800	82.653	0.100
376.900	83.777	0.100
377.000	91.128	0.100
377.100	77.516	0.100
377.200	70.128	0.100
377.300	88.490	0.100
377.400	83.716	0.100
377.500	83.088	0.100
377.600	77.280	0.100
377.700	82.968	0.100
377.800	77.675	0.100
377.900	74.275	0.100
378.000	72.277	0.100
378.100	73.014	0.100
378.200	81.573	0.100
378.300	85.286	0.100
378.400	82.587	0.100
378.500	86.571	0.099
378.600	68.957	0.100
378.700	74.933	0.100
378.800	80.187	0.100
378.900	71.663	0.100
379.000	72.673	0.100
379.100	90.637	0.100
379.200	87.671	0.100
379.300	68.130	0.100
379.400	87.009	0.100
379.500	88.201	0.100
379.600	93.589	0.100
379.700	85.646	0.100
379.800	76.378	0.100
379.900	83.827	0.100
380.000	79.026	0.100
380.100	84.155	0.100
380.200	77.095	0.100
380.300	83.279	0.100
380.400	95.730	0.100
380.500	81.228	0.100
380.600	92.045	0.100
380.700	67.585	0.100
380.800	92.442	0.100
380.900	81.638	0.100
381.000	87.105	0.100
381.100	86.641	0.100
381.200	72.992	0.100
381.300	84.819	0.100
381.400	86.306	0.100
381.500	76.117	0.100
381.600	72.831	0.100
381.700	81.760	0.100
381.800	76.227	0.100
381.900	84.950	0.100
382.000	83.112	0.100
382.100	78.262	0.100
382.200	77.839	0.100
382.300	79.449	0.100
382.400	85.849	0.100
382.500	85.206	0.100
382.600	77.138	0.100
382.700	78.373	0.100
382.800	83.461	0.100
382.900	83.263	0.100
383.000	83.511	0.100
383.100	71.631	0.100
383.200	76.450	0.100
383.300	68.424	0.100
383.400	69.421	0.100
383.500	92.701	0.100
383.600	83.151	0.100
383.700	82.346	0.100
383.800	100.587	0.100
383.900	89.187	0.100
384.000	73.889	0.100
384.100	75.796	0.100
384.200	81.095	0.100
384.300	81.410	0.100
384.400	79.444	0.100
384.500	77.594	0.100
384.600	83.212	0.100
384.700	78.942	0.100
384.800	66.228	0.100
384.900	80.369	0.100
385.000	92.261	0.100
385.100	87.001	0.100
385.200	81.435	0.100
385.300	81.262	0.100
385.400	80.816	0.100
385.500	81.273	0.100
385.600	76.497	0.100
385.700	82.941	0.100
385.800	83.659	0.100
385.900	77.732	0.100
386.000	78.157	0.100
386.100	79.003	0.100
386.200	74.277	0.100
386.300	89.772	0.100
386.400	86.910	0.100
386.500	78.132	0.100
386.600	79.670	0.100
386.700	85.079	0.100
386.800	79.749	0.100
386.900	80.132	0.100
387.000	72.925	0.100
387.100	89.681	0.100
387.200	75.440	0.100
387.300	86.670	0.100
387.400	73.071	0.100
387.500	71.921	0.100
387.600	81.144	0.100
387.700	74.571	0.100
387.800	67.812	0.100
387.900	82.854	0.100
388.000	78.581	0.100
388.100	85.487	0.100
388.200	78.151	0.100
388.300	79.095	0.100
388.400	78.510	0.100
388.500	83.842	0.100
388.600	91.499	0.100
388.700	82.925	0.100
388.800	76.002	0.100
388.900	88.868	0.100
389.000	83.139	0.100
389.100	80.326	0.100
389.200	77.778	0.100
389.300	73.213	0.100
389.400	83.430	0.100
389.500	83.136	0.100
389.600	83.199	0.100
389.700	87.700	0.100
389.800	85.786	0.100
389.900	75.934	0.100
390.000	54.682	0.100
390.100	59.689	0.100
390.200	45.007	0.100
390.300	16.820	0.100
390.400	-2.992	0.100
390.500	0.845	0.100
390.600	-17.166	0.100
390.700	-23.213	0.100
390.800	-40.713	0.100
390.900	-52.091	0.100
391.000	-60.240	0.100
391.100	-65.315	0.100
391.200	-83.031	0.100
391.300	-86.328	0.100
391.400	-78.090	0.100
391.500	-87.313	0.100
391.600	-87.755	0.100
391.700	-98.570	0.100
391.800	-106.893	0.100
391.900	-107.951	0.100
392.000	-94.037	0.100
392.100	-105.058	0.100
392.200	-84.813	0.100
392.300	-99.851	0.100
392.400	-104.187	0.100
392.500	-101.345	0.100
392.600	-95.965	0.100
392.700	-101.502	0.100
392.800	-97.245	0.100
392.900	-93.475	0.100
393.000	-97.488	0.100
393.100	-101.354	0.100
393.200	-88.858	0.100
393.300	-90.248	0.100
393.400	-97.619	0.100
393.500	-84.892	0.100
393.600	-89.538	0.100
393.700	-88.979	0.100
393.800	-87.463	0.100
393.900	-100.182	0.100
394.000	-84.826	0.100
394.100	-88.223	0.100
394.200	-78.050	0.100
394.300	-66.272	0.100
394.400	-85.741	0.100
394.500	-83.609	0.100
394.600	-75.736	0.100
394.700	-67.613	0.100
394.800	-74.712	0.100
394.900	-67.711	0.100
395.000	-72.036	0.100
395.100	-76.513	0.100
395.200	-71.901	0.100
395.300	-77.336	0.100
395.400	-62.541	0.100
395.500	-61.084	0.100
395.600	-59.068	0.100
395.700	-75.778	0.100
395.800	-71.209	0.100
395.900	-55.786	0.100
396.000	-65.083	0.100
396.100	-56.273	0.100
396.200	-49.073	0.100
396.300	-49.828	0.100
396.400	-62.467	0.100
396.500	-63.362	0.100
396.600	-60.509	0.100
396.700	-55.363	0.100
396.800	-52.756	0.100
396.900	-59.530	0.100
397.000	-58.215	0.100
397.100	-51.868	0.100
397.200	-45.268	0.100
397.300	-56.832	0.100
397.400	-47.542	0.100
397.500	-46.537	0.100
397.600	-46.421	0.100
397.700	-61.119	0.100
397.800	-67.232	0.100
397.900	-53.756	0.100
398.000	-59.428	0.100
398.100	-49.605	0.100
398.200	-41.212	0.100
398.300	-46.115	0.100
398.400	-42.110	0.100
398.500	-52.842	0.100
398.600	-57.255	0.100
398.700	-49.801	0.100
398.800	-64.023	0.100
398.900	-52.209	0.100
399.000	-48.113	0.100
399.100	-40.805	0.100
399.200	-39.726	0.100
399.300	-65.523	0.100
399.400	-38.192	0.100
399.500	-48.024	0.100
399.600	-45.981	0.100
399.700	-54.687	0.100
399.800	-53.609	0.100
399.900	-48.543	0.100
400.000	-42.476	0.100
400.100	-39.748	0.100
400.200	-54.333	0.100
400.300	-53.466	0.100
400.400	-50.333	0.100
400.500	-55.482	0.100
400.600	-47.408	0.100
400.700	-47.380	0.100
400.800	-51.550	0.100
400.900	-51.954	0.100
401.000	-40.060	0.100
401.100	-49.202	0.100
401.200	-48.021	0.100
401.300	-55.296	0.100
401.400	-54.561	0.100
401.500	-42.911	0.100
401.600	-54.663	0.100
401.700	-53.585	0.100
401.800	-41.312	0.100
401.900	-44.701	0.100
402.000	-56.686	0.100
402.100	-53.139	0.100
402.200	-56.041	0.100
402.300	-48.378	0.100
402.400	-35.022	0.100
402.500	-49.798	0.100
402.600	-41.736	0.100
402.700	-35.532	0.100
402.800	-48.239	0.100
402.900	-64.217	0.100
403.000	-38.682	0.100
403.100	-51.343	0.100
403.200	-41.862	0.100
403.300	-35.956	0.100
403.400	-46.162	0.100
403.500	-60.284	0.100
403.600	-51.802	0.100
403.700	-51.077	0.100
403.800	-53.343	0.100
403.900	-52.978	0.100
404.000	-41.429	0.100
404.100	-51.342	0.100
404.200	-38.127	0.100
404.300	-52.421	0.100
404.400	-45.901	0.100
404.500	-50.077	0.100
404.600	-50.188	0.100
404.700	-50.501	0.100
404.800	-48.372	0.100
404.900	-54.153	0.100
405.000	-55.263	0.100
405.100	-46.731	0.100
405.200	-44.560	0.100
405.300	-45.280	0.100
405.400	-47.154	0.100
405.500	-40.641	0.100
405.600	-42.640	0.100
405.700	-47.032	0.100
405.800	-49.166	0.100
405.900	-42.045	0.100
406.000	-47.590	0.100
406.100	-52.807	0.100
406.200	-51.433	0.100
406.300	-55.687	0.100
406.400	-54.382	0.100
406.500	-46.004	0.100
406.600	-43.752	0.100
406.700	-55.162	0.100
406.800	-31.102	0.100
406.900	-47.713	0.100
407.000	-46.079	0.100
407.100	-48.849	0.100
407.200	-40.575	0.100
407.300	-49.264	0.100
407.400	-46.271	0.100
407.500	-34.598	0.100
407.600	-50.834	0.100
407.700	-44.526	0.100
407.800	-52.493	0.100
407.900	-52.039	0.100
408.000	-45.669	0.100
408.100	-51.515	0.100
408.200	-53.136	0.100
408.300	-52.509	0.100
408.400	-44.998	0.100
408.500	-30.739	0.100
408.600	-50.596	0.100
408.700	-45.420	0.100
408.800	-56.120	0.100
408.900	-53.577	0.100
409.000	-53.891	0.100
409.100	-40.855	0.100
409.200	-47.381	0.100
409.300	-55.546	0.100
409.400	-46.930	0.100
409.500	-48.444	0.100
409.600	-27.529	0.100
409.700	-53.969	0.100
409.800	-46.713	0.100
409.900	-42.578	0.100
410.000	-46.481	0.100
410.100	-57.679	0.100
410.200	-35.282	0.100
410.300	-47.586	0.100
410.400	-41.384	0.100
410.500	-61.296	0.100
410.600	-40.759	0.100
410.700	-43.486	0.100
410.800	-45.208	0.100
410.900	-53.729	0.100
411.000	-37.451	0.100
411.100	-45.695	0.100
411.200	-55.972	0.100
411.300	-48.772	0.100
411.400	-49.262	0.100
411.500	-44.915	0.100
411.600	-43.459	0.100
411.700	-41.159	0.100
411.800	-46.082	0.100
411.900	-46.836	0.100
412.000	-45.189	0.100
412.100	-43.556	0.100
412.200	-40.974	0.100
412.300	-38.085	0.100
412.400	-44.151	0.100
412.500	-46.350	0.100
412.600	-56.543	0.100
412.700	-54.990	0.100
412.800	-47.867	0.100
412.900	-31.699	0.100
413.000	-51.395	0.100
413.100	-40.155	0.100
413.200	-44.739	0.100
413.300	-47.683	0.100
413.400	-43.044	0.100
413.500	-52.285	0.100
413.600	-39.940	0.100
413.700	-42.423	0.100
413.800	-47.885	0.100
413.900	-50.355	0.100
414.000	-45.357	0.100
414.100	-44.590	0.100
414.200	-47.211	0.100
414.300	-26.831	0.100
414.400	-47.392	0.100
414.500	-51.717	0.100
414.600	-41.391	0.100
414.700	-52.876	0.100
414.800	-46.912	0.100
414.900	-35.989	0.100
415.000	-52.005	0.100
415.100	-40.069	0.100
415.200	-46.543	0.100
415.300	-38.545	0.100
415.400	-52.281	0.100
415.500	-51.769	0.100
415.600	-40.058	0.100
415.700	-42.594	0.100
415.800	-45.541	0.100
415.900	-46.139	0.100
416.000	-45.206	0.100
416.100	-46.565	0.100
416.200	-38.468	0.100
416.300	-33.984	0.100
416.400	-47.706	0.100
416.500	-38.260	0.100
416.600	-42.059	0.100
416.700	-44.089	0.100
416.800	-50.815	0.100
416.900	-39.502	0.100
417.000	-48.200	0.100
417.100	-37.900	0.100
417.200	-53.914	0.100
417.300	-39.699	0.100
417.400	-45.896	0.100
417.500	-40.469	0.100
417.600	-33.942	0.100
417.700	-44.365	0.100
417.800	-34.397	0.100
417.900	-38.625	0.100
418.000	-45.224	0.100
418.100	-40.089	0.100
418.200	-44.622	0.100
418.300	-44.470	0.100
418.400	-45.336	0.100
418.500	-44.511	0.100
418.600	-39.131	0.100
418.700	-43.344	0.100
418.800	-39.447	0.100
418.900	-41.072	0.100
419.000	-52.130	0.100
419.100	-43.570	0.100
419.200	-41.612	0.100
419.300	-42.068	0.100
419.400	-33.534	0.100
419.500	-36.217	0.100
419.600	-50.136	0.100
419.700	-38.237	0.100
419.800	-42.404	0.100
419.900	-32.125	0.100
420.000	-44.429	0.100
420.100	-29.683	0.100
420.200	-39.167	0.100
420.300	-42.075	0.100
420.400	-46.483	0.100
420.500	-47.829	0.100
420.600	-42.408	0.100
420.700	-43.256	0.100
420.800	-43.812	0.100
420.900	-43.572	0.100
421.000	-49.983	0.100
421.100	-51.442	0.100
421.200	-36.311	0.100
421.300	-39.233	0.100
421.400	-38.547	0.100
421.500	-55.693	0.100
421.600	-51.011	0.100
421.700	-50.614	0.100
421.800	-47.594	0.100
421.900	-33.060	0.100
422.000	-28.899	0.100
422.100	-42.565	0.100
422.200	-35.598	0.100
422.300	-41.829	0.100
422.400	-41.479	0.100
422.500	-49.521	0.100
422.600	-36.227	0.100
422.700	-40.505	0.100
422.800	-49.657	0.100
422.900	-50.001	0.100
423.000	-49.001	0.100
423.100	-46.094	0.100
423.200	-30.740	0.100
423.300	-34.794	0.100
423.400	-47.959	0.100
423.500	-32.917	0.100
423.600	-41.471	0.100
423.700	-41.734	0.100
423.800	-39.521	0.100
423.900	-41.806	0.100
424.000	-39.715	0.100
424.100	-44.296	0.100
424.200	-38.002	0.100
424.300	-54.875	0.100
424.400	-41.653	0.100
424.500	-36.935	0.100
424.600	-40.640	0.100
424.700	-45.482	0.100
424.800	-34.530	0.100
424.900	-36.068	0.100
425.000	-35.832	0.100
425.100	-44.581	0.100
425.200	-32.770	0.100
425.300	-37.989	0.100
425.400	-28.684	0.100
425.500	-34.842	0.100
425.600	-38.725	0.100
425.700	-42.556	0.100
425.800	-39.714	0.100
425.900	-41.593	0.100
426.000	-37.899	0.100
426.100	-53.454	0.100
426.200	-32.812	0.100
426.300	-37.624	0.100
426.400	-39.539	0.100
426.500	-37.785	0.100
426.600	-40.771	0.100
426.700	-34.053	0.100
426.800	-45.183	0.100
426.900	-39.865	0.100
427.000	-48.113	0.100
427.100	-46.646	0.100
427.200	-31.729	0.100
427.300	-36.094	0.100
427.400	-38.065	0.100
427.500	-38.144	0.100
427.600	-30.736	0.100
427.700	-35.144	0.100
427.800	-36.075	0.100
427.900	-38.134	0.100
428.000	-39.746	0.100
428.100	-47.301	0.100
428.200	-45.765	0.100
428.300	-47.078	0.100
428.400	-43.432	0.100
428.500	-21.282	0.100
428.600	-41.998	0.100
428.700	-32.586	0.100
428.800	-40.442	0.100
428.900	-38.770	0.100
429.000	-45.255	0.100
429.100	-34.237	0.100
429.200	-44.715	0.100
429.300	-45.760	0.100
429.400	-32.009	0.100
429.500	-39.849	0.100
429.600	-41.342	0.100
429.700	-46.034	0.100
429.800	-30.583	0.100
429.900	-34.760	0.100
430.000	-41.213	0.100
430.100	-43.783	0.100
430.200	-40.401	0.100
430.300	-47.843	0.100
430.400	-38.337	0.100
430.500	-36.858	0.100
430.600	-36.716	0.100
430.700	-34.718	0.100
430.800	-55.292	0.100
430.900	-34.715	0.100
431.000	-36.836	0.100
431.100	-33.759	0.100
431.200	-39.787	0.100
431.300	-34.413	0.100
431.400	-40.171	0.100
431.500	-36.754	0.100
431.600	-41.464	0.100
431.700	-44.893	0.100
431.800	-36.309	0.100
431.900	-33.024	0.100
432.000	-42.647	0.100
432.100	-54.804	0.100
432.200	-34.682	0.100
432.300	-42.303	0.100
432.400	-41.736	0.100
432.500	-36.657	0.100
432.600	-33.161	0.100
432.700	-26.371	0.100
432.800	-38.341	0.100
432.900	-34.195	0.100
433.000	-32.726	0.100
433.100	-47.792	0.100
433.200	-37.073	0.100
433.300	-34.080	0.100
433.400	-33.257	0.100
433.500	-44.374	0.100
433.600	-40.662	0.100
433.700	-30.554	0.100
433.800	-33.607	0.100
433.900	-28.680	0.100
434.000	-44.365	0.100
434.100	-37.782	0.100
434.200	-23.568	0.100
434.300	-24.476	0.100
434.400	-39.335	0.100
434.500	-47.077	0.100
434.600	-33.904	0.100
434.700	-42.958	0.100
434.800	-31.263	0.100
434.900	-35.449	0.100
435.000	-17.507	0.100
435.100	-27.902	0.100
435.200	-37.804	0.100
435.300	-34.220	0.100
435.400	-35.549	0.100
435.500	-31.411	0.100
435.600	-24.013	0.100
435.700	-28.968	0.100
435.800	-28.790	0.100
435.900	-39.181	0.100
436.000	-33.647	0.100
436.100	-40.509	0.100
436.200	-43.760	0.100
436.300	-32.394	0.100
436.400	-26.376	0.100
436.500	-38.809	0.100
436.600	-34.589	0.100
436.700	-46.076	0.100
436.800	-38.345	0.100
436.900	-28.652	0.100
437.000	-32.439	0.100
437.100	-37.483	0.100
437.200	-40.256	0.100
437.300	-35.513	0.100
437.400	-37.275	0.100
437.500	-35.437	0.100
437.600	-30.878	0.100
437.700	-43.371	0.100
437.800	-33.542	0.100
437.900	-30.563	0.100
438.000	-35.200	0.100
438.100	-39.064	0.100
438.200	-48.004	0.100
438.300	-38.114	0.100
438.400	-41.468	0.100
438.500	-46.622	0.100
438.600	-26.596	0.100
438.700	-43.763	0.100
438.800	-35.285	0.100
438.900	-26.843	0.100
439.000	-33.429	0.100
439.100	-28.551	0.100
439.200	-41.469	0.100
439.300	-43.537	0.100
439.400	-38.515	0.100
439.500	-26.287	0.100
439.600	-35.476	0.100
439.700	-33.624	0.100
439.800	-27.984	0.100
439.900	-41.886	0.100
440.000	-35.663	0.100
440.100	-35.087	0.100
440.200	-34.115	0.100
440.300	-32.040	0.100
440.400	-24.321	0.100
440.500	-27.766	0.100
440.600	-25.042	0.100
440.700	-36.479	0.100
440.800	-39.232	0.100
440.900	-28.534	0.100
441.000	-40.957	0.100
441.100	-24.372	0.100
441.200	-29.517	0.100
441.300	-35.904	0.100
441.400	-37.628	0.100
441.500	-41.327	0.100
441.600	-21.998	0.100
441.700	-28.309	0.100
441.800	-34.412	0.100
441.900	-38.145	0.100
442.000	-47.124	0.100
442.100	-29.804	0.100
442.200	-26.121	0.100
442.300	-29.423	0.100
442.400	-26.184	0.100
442.500	-34.016	0.100
442.600	-32.986	0.100
442.700	-30.872	0.100
442.800	-33.358	0.100
442.900	-47.787	0.100
443.000	-31.529	0.100
443.100	-30.088	0.100
443.200	-27.899	0.100
443.300	-35.010	0.100
443.400	-31.499	0.100
443.500	-24.042	0.100
443.600	-31.152	0.100
443.700	-34.542	0.100
443.800	-35.306	0.100
443.900	-39.142	0.100
444.000	-35.459	0.100
444.100	-25.923	0.100
444.200	-40.626	0.100
444.300	-24.052	0.100
444.400	-30.225	0.100
444.500	-28.177	0.100
444.600	-26.541	0.100
444.700	-30.184	0.100
444.800	-41.795	0.100
444.900	-36.730	0.100
445.000	-35.726	0.100
445.100	-27.815	0.100
445.200	-39.902	0.100
445.300	-30.151	0.100
445.400	-25.617	0.100
445.500	-26.108	0.100
445.600	-27.583	0.100
445.700	-42.466	0.100
445.800	-26.551	0.100
445.900	-30.352	0.100
446.000	-34.106	0.100
446.100	-26.596	0.100
446.200	-34.740	0.100
446.300	-56.143	0.100
446.400	-34.225	0.100
446.500	-32.080	0.100
446.600	-24.460	0.100
446.700	-25.685	0.100
446.800	-33.093	0.100
446.900	-39.668	0.100
447.000	-34.915	0.100
447.100	-39.425	0.100
447.200	-25.001	0.100
447.300	-36.764	0.100
447.400	-39.033	0.100
447.500	-27.315	0.100
447.600	-17.765	0.100
447.700	-18.388	0.100
447.800	-34.294	0.100
447.900	-35.250	0.100
448.000	-35.514	0.100
448.100	-31.992	0.100
448.200	-28.455	0.100
448.300	-31.031	0.100
448.400	-43.558	0.100
448.500	-18.377	0.100
448.600	-20.452	0.100
448.700	-30.083	0.100
448.800	-30.010	0.100
448.900	-29.931	0.100
449.000	-30.636	0.100
449.100	-27.246	0.100
449.200	-31.958	0.100
449.300	-27.030	0.100
449.400	-34.448	0.100
449.500	-30.701	0.100
449.600	-30.265	0.100
449.700	-36.027	0.100
449.800	-29.319	0.100
449.900	-26.756	0.100
450.000	-31.520	0.100
450.100	-30.028	0.100
450.200	-12.536	0.100
450.300	-24.283	0.100
450.400	-34.101	0.100
450.500	-31.708	0.100
450.600	-29.988	0.100
450.700	-31.222	0.100
450.800	-37.090	0.100
450.900	-28.161	0.100
451.000	-35.319	0.100
451.100	-29.115	0.100
451.200	-34.435	0.100
451.300	-25.445	0.100
451.400	-41.231	0.100
451.500	-30.822	0.100
451.600	-13.642	0.100
451.700	-31.358	0.100
451.800	-35.176	0.100
451.900	-34.026	0.100
452.000	-43.582	0.100
452.100	-21.433	0.100
452.200	-33.131	0.100
452.300	-25.469	0.100
452.400	-15.708	0.100
452.500	-34.312	0.100
452.600	-37.661	0.100
452.700	-32.408	0.100
452.800	-29.058	0.100
452.900	-34.320	0.100
453.000	-20.092	0.100
453.100	-38.163	0.100
453.200	-25.675	0.100
453.300	-23.891	0.100
453.400	-30.733	0.100
453.500	-22.923	0.100
453.600	-25.112	0.100
453.700	-40.148	0.100
453.800	-29.706	0.100
453.900	-23.303	0.100
454.000	-29.074	0.100
454.100	-33.422	0.100
454.200	-35.393	0.100
454.300	-31.332	0.100
454.400	-43.465	0.100
454.500	-21.832	0.100
454.600	-30.513	0.100
454.700	-32.512	0.100
454.800	-32.736	0.100
454.900	-29.414	0.100
455.000	-29.287	0.100
455.100	-34.597	0.100
455.200	-35.939	0.100
455.300	-17.475	0.100
455.400	-30.542	0.100
455.500	-24.293	0.100
455.600	-28.634	0.100
455.700	-34.629	0.100
455.800	-21.297	0.100
455.900	-42.251	0.100
456.000	-28.039	0.100
456.100	-19.287	0.100
456.200	-41.954	0.100
456.300	-27.263	0.100
456.400	-26.687	0.100
456.500	-42.319	0.100
456.600	-33.552	0.100
456.700	-34.254	0.100
456.800	-39.721	0.100
456.900	-28.952	0.100
457.000	-27.116	0.100
457.100	-22.171	0.100
457.200	-34.013	0.100
457.300	-25.792	0.100
457.400	-22.063	0.100
457.500	-30.924	0.100
457.600	-28.052	0.100
457.700	-29.353	0.100
457.800	-33.072	0.100
457.900	-21.779	0.100
458.000	-22.599	0.100
458.100	-33.673	0.100
458.200	-35.457	0.100
458.300	-27.240	0.100
458.400	-30.732	0.100
458.500	-28.187	0.100
458.600	-18.753	0.100
458.700	-34.427	0.100
458.800	-30.488	0.100
458.900	-28.287	0.100
459.000	-33.822	0.100
459.100	-30.530	0.100
459.200	-23.888	0.100
459.300	-34.761	0.100
459.400	-24.013	0.100
459.500	-21.168	0.100
459.600	-33.349	0.100
459.700	-19.541	0.100
459.800	-45.368	0.100
459.900	-35.856	0.100
460.000	-26.068	0.100
460.100	-30.548	0.100
460.200	-18.318	0.100
460.300	-17.168	0.100
460.400	-32.869	0.100
460.500	-32.412	0.100
460.600	-31.534	0.100
460.700	-12.360	0.100
460.800	-33.159	0.100
460.900	-30.623	0.100
461.000	-33.873	0.100
461.100	-39.655	0.100
461.200	-31.178	0.100
461.300	-24.375	0.100
461.400	-8.097	0.100
461.500	-27.834	0.100
461.600	-22.667	0.100
461.700	-35.817	0.100
461.800	-28.400	0.100
461.900	-22.262	0.100
462.000	-24.959	0.100
462.100	-25.726	0.100
462.200	-34.064	0.100
462.300	-39.197	0.100
462.400	-29.677	0.100
462.500	-36.242	0.100
462.600	-26.142	0.100
462.700	-16.952	0.100
462.800	-12.323	0.100
462.900	-21.916	0.100
463.000	-38.966	0.100
463.100	-32.606	0.100
463.200	-28.171	0.100
463.300	-36.876	0.100
463.400	-24.245	0.100
463.500	-23.780	0.100
463.600	-28.015	0.100
463.700	-25.607	0.100
463.800	-23.008	0.100
463.900	-32.504	0.100
464.000	-42.089	0.100
464.100	-18.008	0.100
464.200	-21.591	0.100
464.300	-28.895	0.100
464.400	-18.685	0.100
464.500	-27.647	0.100
464.600	-30.854	0.100
464.700	-26.629	0.100
464.800	-25.544	0.100
464.900	-25.020	0.100
465.000	-29.722	0.100
465.100	-27.918	0.100
465.200	-34.436	0.100
465.300	-23.512	0.100
465.400	-20.393	0.100
465.500	-25.267	0.100
465.600	-32.580	0.100
465.700	-35.506	0.100
465.800	-20.282	0.100
465.900	-27.169	0.100
466.000	-34.127	0.100
466.100	-28.028	0.100
466.200	-22.336	0.100
466.300	-20.030	0.100
466.400	-20.387	0.100
466.500	-24.673	0.100
466.600	-20.676	0.100
466.700	-30.333	0.100
466.800	-38.134	0.100
466.900	-25.897	0.100
467.000	-19.251	0.100
467.100	-32.412	0.100
467.200	-23.379	0.100
467.300	-25.944	0.100
467.400	-18.231	0.100
467.500	-23.089	0.100
467.600	-21.570	0.100
467.700	-32.516	0.100
467.800	-42.291	0.100
467.900	-8.233	0.100
468.000	-22.138	0.100
468.100	-14.433	0.100
468.200	-21.939	0.100
468.300	-23.119	0.100
468.400	-22.097	0.100
468.500	-26.986	0.100
468.600	-21.271	0.100
468.700	-32.377	0.100
468.800	-20.285	0.100
468.900	-17.895	0.100
469.000	-22.488	0.100
469.100	-15.827	0.100
469.200	-27.914	0.100
469.300	-34.316	0.100
469.400	-37.655	0.100
469.500	-33.587	0.100
469.600	-21.242	0.100
469.700	-26.949	0.100
469.800	-30.747	0.100
469.900	-27.465	0.100
470.000	-14.382	0.100
470.100	-24.019	0.100
470.200	-20.512	0.100
470.300	-22.094	0.100
470.400	-34.980	0.100
470.500	-30.233	0.100
470.600	-21.137	0.100
470.700	-34.608	0.100
470.800	-23.487	0.100
470.900	-17.036	0.100
471.000	-21.194	0.100
471.100	-24.684	0.100
471.200	-18.631	0.100
471.300	-20.300	0.100
471.400	-22.400	0.100
471.500	-31.560	0.100
471.600	-20.842	0.100
471.700	-21.591	0.100
471.800	-22.787	0.100
471.900	-24.585	0.100
472.000	-36.611	0.100
472.100	-34.859	0.100
472.200	-16.536	0.100
472.300	-18.012	0.100
472.400	-27.860	0.100
472.500	-33.045	0.100
472.600	-18.337	0.100
472.700	-20.246	0.100
472.800	-30.608	0.100
472.900	-33.609	0.100
473.000	-25.332	0.100
473.100	-6.460	0.100
473.200	-43.719	0.100
473.300	-25.726	0.100
473.400	-13.841	0.100
473.500	-25.902	0.100
473.600	-34.534	0.100
473.700	-27.681	0.100
473.800	-34.822	0.100
473.900	-29.960	0.100
474.000	-21.779	0.100
474.100	-16.955	0.100
474.200	-24.425	0.100
474.300	-37.171	0.100
474.400	-32.968	0.100
474.500	-22.743	0.100
474.600	-21.542	0.100
474.700	-14.734	0.100
474.800	-25.733	0.100
474.900	-10.574	0.100
475.000	-30.418	0.100
475.100	-27.520	0.100
475.200	-25.302	0.100
475.300	-27.068	0.100
475.400	-21.461	0.100
475.500	-29.772	0.100
475.600	-30.701	0.100
475.700	-31.388	0.100
475.800	-12.140	0.100
475.900	-16.820	0.100
476.000	-24.971	0.100
476.100	-34.605	0.100
476.200	-23.353	0.100
476.300	-26.243	0.100
476.400	-24.721	0.100
476.500	-22.859	0.100
476.600	-27.967	0.100
476.700	-17.419	0.100
476.800	-28.699	0.100
476.900	-23.101	0.100
477.000	-16.160	0.100
477.100	-24.272	0.100
477.200	-28.145	0.100
477.300	-21.868	0.100
477.400	-36.848	0.100
477.500	-25.050	0.100
477.600	-21.207	0.100
477.700	-23.275	0.100
477.800	-25.936	0.100
477.900	-33.122	0.100
478.000	-16.722	0.100
478.100	-23.038	0.100
478.200	-23.580	0.100
478.300	-12.905	0.100
478.400	-40.992	0.100
478.500	-20.639	0.100
478.600	-25.118	0.100
478.700	-26.125	0.100
478.800	-21.576	0.100
478.900	-22.730	0.100
479.000	-23.789	0.100
479.100	-18.763	0.100
479.200	-24.403	0.100
479.300	-19.539	0.100
479.400	-36.650	0.100
479.500	-17.844	0.100
479.600	-17.341	0.100
479.700	-22.674	0.100
479.800	-41.249	0.100
479.900	-28.429	0.100
480.000	-32.655	0.100
480.100	-12.935	0.100
480.200	-10.002	0.100
480.300	11.697	0.100
480.400	14.321	0.100
480.500	25.789	0.100
480.600	44.905	0.100
480.700	41.095	0.100
480.800	43.000	0.100
480.900	53.009	0.100
481.000	58.578	0.100
481.100	55.815	0.100
481.200	58.852	0.100
481.300	50.317	0.100
481.400	64.792	0.100
481.500	44.606	0.100
481.600	62.254	0.100
481.700	63.027	0.100
481.800	64.103	0.100
481.900	65.641	0.100
482.000	63.009	0.100
482.100	61.432	0.100
482.200	63.382	0.100
482.300	55.822	0.100
482.400	52.736	0.100
482.500	57.740	0.100
482.600	48.185	0.100
482.700	53.269	0.100
482.800	49.307	0.100
482.900	44.180	0.100
483.000	43.298	0.100
483.100	55.406	0.100
483.200	54.266	0.100
483.300	50.266	0.100
483.400	37.963	0.100
483.500	50.043	0.100
483.600	45.152	0.100
483.700	46.377	0.100
483.800	54.657	0.100
483.900	41.630	0.100
484.000	46.934	0.100
484.100	46.398	0.100
484.200	46.629	0.100
484.300	39.764	0.100
484.400	37.004	0.100
484.500	38.806	0.100
484.600	42.242	0.100
484.700	47.854	0.100
484.800	44.537	0.100
484.900	49.238	0.100
485.000	60.093	0.100
485.100	47.604	0.100
485.200	31.341	0.100
485.300	60.238	0.100
485.400	61.082	0.100
485.500	51.198	0.100
485.600	60.594	0.100
485.700	60.567	0.100
485.800	61.632	0.100
485.900	61.076	0.100
486.000	64.496	0.100
486.100	66.339	0.100
486.200	65.123	0.100
486.300	62.451	0.100
486.400	84.360	0.100
486.500	74.699	0.100
486.600	66.080	0.100
486.700	71.519	0.100
486.800	75.427	0.100
486.900	56.193	0.100
487.000	78.493	0.100
487.100	86.719	0.100
487.200	68.329	0.100
487.300	76.592	0.100
487.400	74.971	0.100
487.500	80.178	0.100
487.600	81.239	0.100
487.700	81.095	0.100
487.800	84.507	0.100
487.900	80.677	0.100
488.000	86.673	0.100
488.100	84.280	0.100
488.200	89.125	0.100
488.300	76.780	0.100
488.400	85.438	0.100
488.500	87.535	0.100
488.600	88.972	0.100
488.700	85.474	0.100
488.800	71.666	0.100
488.900	86.357	0.100
489.000	88.077	0.100
489.100	72.221	0.100
489.200	91.277	0.100
489.300	93.280	0.100
489.400	90.810	0.100
489.500	89.633	0.100
489.600	95.812	0.100
489.700	74.610	0.100
489.800	85.277	0.100
489.900	83.033	0.100
490.000	85.697	0.100
490.100	73.575	0.100
490.200	87.272	0.100
490.300	84.975	0.100
490.400	79.362	0.100
490.500	94.463	0.100
490.600	94.025	0.100
490.700	79.086	0.100
490.800	74.069	0.100
490.900	88.000	0.100
491.000	87.486	0.100
491.100	89.765	0.100
491.200	78.016	0.100
491.300	90.254	0.100
491.400	85.974	0.100
491.500	88.969	0.100
491.600	85.342	0.100
491.700	87.780	0.100
491.800	87.043	0.100
491.900	84.279	0.100
492.000	93.105	0.100
492.100	86.781	0.100
492.200	75.034	0.100
492.300	83.333	0.100
492.400	96.772	0.100
492.500	91.322	0.100
492.600	68.060	0.100
492.700	83.439	0.100
492.800	85.628	0.099
492.900	81.456	0.100
493.000	82.506	0.100
493.100	78.213	0.100
493.200	105.194	0.100
493.300	100.529	0.100
493.400	81.533	0.100
493.500	88.861	0.100
493.600	94.007	0.100
493.700	89.189	0.100
493.800	77.026	0.100
493.900	88.889	0.100
494.000	86.338	0.100
494.100	95.251	0.100
494.200	92.730	0.100
494.300	91.549	0.100
494.400	83.053	0.100
494.500	94.266	0.100
494.600	85.680	0.100
494.700	88.274	0.100
494.800	84.100	0.100
494.900	82.765	0.100
495.000	87.647	0.100
495.100	91.985	0.100
495.200	77.817	0.100
495.300	88.728	0.100
495.400	85.978	0.100
495.500	89.894	0.100
495.600	73.625	0.100
495.700	84.857	0.100
495.800	87.211	0.100
495.900	94.779	0.100
496.000	94.039	0.100
496.100	84.573	0.100
496.200	86.054	0.100
496.300	72.841	0.100
496.400	83.351	0.100
496.500	84.478	0.100
496.600	79.955	0.100
496.700	70.975	0.100
496.800	85.150	0.100
496.900	77.138	0.100
497.000	88.525	0.100
497.100	89.788	0.100
497.200	81.641	0.100
497.300	94.820	0.100
497.400	77.331	0.100
497.500	97.023	0.100
497.600	85.893	0.100
497.700	86.586	0.100
497.800	86.010	0.100
497.900	81.279	0.100
498.000	83.005	0.100
498.100	77.344	0.100
498.200	69.046	0.100
498.300	90.519	0.100
498.400	75.912	0.100
498.500	81.300	0.100
498.600	71.683	0.100
498.700	86.524	0.100
498.800	79.602	0.100
498.900	83.663	0.100
499.000	78.332	0.100
499.100	79.705	0.099
499.200	71.569	0.100
499.300	78.679	0.100
499.400	81.003	0.100
499.500	82.068	0.100
499.600	77.332	0.100
499.700	80.048	0.100
499.800	78.158	0.100
499.900	83.373	0.099
500.000	75.107	0.100
500.100	89.196	0.100
500.200	88.654	0.099
500.300	70.155	0.100
500.400	65.079	0.100
500.500	67.879	0.100
500.600	79.457	0.100
500.700	83.101	0.100
500.800	71.914	0.100
500.900	83.915	0.100
501.000	77.191	0.100
501.100	86.890	0.099
501.200	80.902	0.100
501.300	70.446	0.100
501.400	78.737	0.100
501.500	73.257	0.100
501.600	70.738	0.100
501.700	84.992	0.100
501.800	82.918	0.100
501.900	70.394	0.100
502.000	79.420	0.100
502.100	80.832	0.100
502.200	75.270	0.100
502.300	69.289	0.100
502.400	64.181	0.100
502.500	60.313	0.100
502.600	68.949	0.100
502.700	75.785	0.100
502.800	76.075	0.100
502.900	90.497	0.100
503.000	76.734	0.100
503.100	77.089	0.100
503.200	71.299	0.100
503.300	79.949	0.100
503.400	78.771	0.100
503.500	71.833	0.100
503.600	78.055	0.100
503.700	79.668	0.100
503.800	75.272	0.100
503.900	71.366	0.100
504.000	69.989	0.100
504.100	75.008	0.100
504.200	64.751	0.100
504.300	80.054	0.100
504.400	71.401	0.100
504.500	70.947	0.100
504.600	72.817	0.100
504.700	90.063	0.099
504.800	74.797	0.100
504.900	73.079	0.100
505.000	86.139	0.100
505.100	76.182	0.100
505.200	86.143	0.100
505.300	71.650	0.100
505.400	74.749	0.100
505.500	65.891	0.100
505.600	73.586	0.100
505.700	94.297	0.100
505.800	76.722	0.100
505.900	74.744	0.100
506.000	76.106	0.100
506.100	76.093	0.100
506.200	80.650	0.100
506.300	69.928	0.100
506.400	83.854	0.100
506.500	74.212	0.100
506.600	70.519	0.100
506.700	77.560	0.100
506.800	69.921	0.100
506.900	89.723	0.100
507.000	81.655	0.100
507.100	68.699	0.100
507.200	82.073	0.100
507.300	79.900	0.100
507.400	67.796	0.100
507.500	78.797	0.100
507.600	73.337	0.100
507.700	83.471	0.100
507.800	71.807	0.100
507.900	69.858	0.100
508.000	75.487	0.100
508.100	77.103	0.100
508.200	67.737	0.099
508.300	80.552	0.100
508.400	82.049	0.100
508.500	70.063	0.100
508.600	79.445	0.100
508.700	80.238	0.100
508.800	74.405	0.100
508.900	74.841	0.100
509.000	71.971	0.100
509.100	68.777	0.100
509.200	79.308	0.100
509.300	74.949	0.100
509.400	74.918	0.100
509.500	78.285	0.100
509.600	85.831	0.100
509.700	73.560	0.100
509.800	78.921	0.100
509.900	72.523	0.100
510.000	78.179	0.100
510.100	80.407	0.100
510.200	82.274	0.100
510.300	79.993	0.100
510.400	72.469	0.100
510.500	82.461	0.100
510.600	59.757	0.100
510.700	78.526	0.100
510.800	84.731	0.100
510.900	74.421	0.100
511.000	73.206	0.100
511.100	86.190	0.100
511.200	81.900	0.100
511.300	73.968	0.100
511.400	82.421	0.100
511.500	78.428	0.100
511.600	82.620	0.100
511.700	79.551	0.100
511.800	80.450	0.100
511.900	81.693	0.100
512.000	73.969	0.100
512.100	69.037	0.100
512.200	75.590	0.100
512.300	67.939	0.100
512.400	77.603	0.100
512.500	84.992	0.100
512.600	79.848	0.100
512.700	90.001	0.100
512.800	78.710	0.100
512.900	83.533	0.100
513.000	86.780	0.100
513.100	80.531	0.100
513.200	72.649	0.100
513.300	70.138	0.100
513.400	79.325	0.100
513.500	76.006	0.100
513.600	74.189	0.100
513.700	74.885	0.100
513.800	80.965	0.100
513.900	76.442	0.100
514.000	71.963	0.100
514.100	84.826	0.100
514.200	81.391	0.100
514.300	78.422	0.100
514.400	85.434	0.100
514.500	86.820	0.100
514.600	74.463	0.100
514.700	86.530	0.100
514.800	72.519	0.100
514.900	76.815	0.100
515.000	80.027	0.100
515.100	100.089	0.100
515.200	83.425	0.100
515.300	77.648	0.100
515.400	80.557	0.100
515.500	83.515	0.100
515.600	75.662	0.100
515.700	92.033	0.100
515.800	84.661	0.100
515.900	87.678	0.100
516.000	80.025	0.100
516.100	80.638	0.100
516.200	90.624	0.100
516.300	76.146	0.100
516.400	72.516	0.100
516.500	73.780	0.100
516.600	79.714	0.100
516.700	87.570	0.100
516.800	74.850	0.100
516.900	83.027	0.100
517.000	85.678	0.100
517.100	78.710	0.100
517.200	86.227	0.100
517.300	76.851	0.100
517.400	84.033	0.100
517.500	76.170	0.100
517.600	88.439	0.100
517.700	77.709	0.100
517.800	70.235	0.100
517.900	88.998	0.100
518.000	76.556	0.100
518.100	80.633	0.100
518.200	91.263	0.100
518.300	80.303	0.100
518.400	76.947	0.100
518.500	83.334	0.100
518.600	95.681	0.100
518.700	72.913	0.100
518.800	82.811	0.100
518.900	86.399	0.100
519.000	67.319	0.100
519.100	71.854	0.100
519.200	72.933	0.100
519.300	81.919	0.100
519.400	79.993	0.100
519.500	92.408	0.100
519.600	86.790	0.100
519.700	89.837	0.100
519.800	79.181	0.100
519.900	90.231	0.100
520.000	69.943	0.100
520.100	83.809	0.100
520.200	77.062	0.100
520.300	86.620	0.100
520.400	79.820	0.100
520.500	74.433	0.100
520.600	81.780	0.100
520.700	91.905	0.100
520.800	73.956	0.100
520.900	79.780	0.100
521.000	77.017	0.100
521.100	77.335	0.100
521.200	78.786	0.100
521.300	84.255	0.100
521.400	91.113	0.100
521.500	72.703	0.100
521.600	77.202	0.100
521.700	87.404	0.100
521.800	86.897	0.100
521.900	86.166	0.100
522.000	84.922	0.100
522.100	78.987	0.100
522.200	67.881	0.100
522.300	64.913	0.100
522.400	93.546	0.100
522.500	80.427	0.100
522.600	80.528	0.100
522.700	69.665	0.100
522.800	86.756	0.100
522.900	77.178	0.100
523.000	93.398	0.100
523.100	86.049	0.100
523.200	76.629	0.100
523.300	78.095	0.100
523.400	75.115	0.100
523.500	83.470	0.100
523.600	92.403	0.100
523.700	68.486	0.100
523.800	89.947	0.100
523.900	89.580	0.100
524.000	65.116	0.100
524.100	86.308	0.100
524.200	76.596	0.100
524.300	84.093	0.100
524.400	88.791	0.100
524.500	86.875	0.100
524.600	67.413	0.100
524.700	79.538	0.100
524.800	81.693	0.100
524.900	72.947	0.100
525.000	77.691	0.100
525.100	83.882	0.100
525.200	88.194	0.100
525.300	72.314	0.100
525.400	78.480	0.100
525.500	83.499	0.100
525.600	79.551	0.100
525.700	83.800	0.100
525.800	82.885	0.100
525.900	80.093	0.100
526.000	76.810	0.100
526.100	92.558	0.100
526.200	91.602	0.100
526.300	86.625	0.100
526.400	77.670	0.100
526.500	85.514	0.100
526.600	74.085	0.100
526.700	85.337	0.100
526.800	76.984	0.100
526.900	70.874	0.100
527.000	83.369	0.100
527.100	91.750	0.100
527.200	80.355	0.100
527.300	75.835	0.100
527.400	85.735	0.100
527.500	76.945	0.100
527.600	82.995	0.100
527.700	90.045	0.100
527.800	79.401	0.100
527.900	81.876	0.100
528.000	86.152	0.100
528.100	82.461	0.100
528.200	90.669	0.100
528.300	90.698	0.100
528.400	76.735	0.100
528.500	86.972	0.100
528.600	84.156	0.100
528.700	78.508	0.100
528.800	83.423	0.100
528.900	74.546	0.100
529.000	85.510	0.100
529.100	79.578	0.100
529.200	88.111	0.100
529.300	93.710	0.100
529.400	83.457	0.100
529.500	84.585	0.100
529.600	89.326	0.100
529.700	76.216	0.100
529.800	85.204	0.100
529.900	96.873	0.100
530.000	68.288	0.100
530.100	71.752	0.100
530.200	76.589	0.100
530.300	77.700	0.100
530.400	91.860	0.100
530.500	78.284	0.100
530.600	79.954	0.100
530.700	84.967	0.100
530.800	90.826	0.100
530.900	79.764	0.100
531.000	87.112	0.100
531.100	76.395	0.100
531.200	74.651	0.100
531.300	77.146	0.100
531.400	79.092	0.100
531.500	78.354	0.100
531.600	92.459	0.100
531.700	87.115	0.100
531.800	88.919	0.100
531.900	80.348	0.100
532.000	81.287	0.100
532.100	83.996	0.100
532.200	69.707	0.100
532.300	80.987	0.100
532.400	81.499	0.100
532.500	91.437	0.100
532.600	82.294	0.100
532.700	94.925	0.100
532.800	89.256	0.100
532.900	79.214	0.100
533.000	75.589	0.100
533.100	86.564	0.100
533.200	81.288	0.100
533.300	75.454	0.100
533.400	84.012	0.100
533.500	86.494	0.100
533.600	78.322	0.100
533.700	83.935	0.100
533.800	71.578	0.100
533.900	80.520	0.100
534.000	87.780	0.100
534.100	83.480	0.100
534.200	90.220	0.100
534.300	86.322	0.100
534.400	80.060	0.100
534.500	80.079	0.100
534.600	92.841	0.100
534.700	67.052	0.100
534.800	74.602	0.100
534.900	89.411	0.100
535.000	91.279	0.100
535.100	88.318	0.100
535.200	79.669	0.100
535.300	71.499	0.100
535.400	89.659	0.100
535.500	73.167	0.100
535.600	88.803	0.100
535.700	86.153	0.100
535.800	80.479	0.100
535.900	85.158	0.100
536.000	88.107	0.100
536.100	92.517	0.100
536.200	96.181	0.100
536.300	83.954	0.100
536.400	84.461	0.100
536.500	79.688	0.100
536.600	89.482	0.100
536.700	84.359	0.100
536.800	90.850	0.100
536.900	84.175	0.100
537.000	85.129	0.100
537.100	79.742	0.100
537.200	84.099	0.100
537.300	76.257	0.100
537.400	72.403	0.100
537.500	89.058	0.100
537.600	84.704	0.100
537.700	90.569	0.100
537.800	80.493	0.100
537.900	85.010	0.100
538.000	81.609	0.100
538.100	88.132	0.100
538.200	75.797	0.100
538.300	92.803	0.100
538.400	84.316	0.100
538.500	78.172	0.100
538.600	78.966	0.100
538.700	77.144	0.100
538.800	89.175	0.100
538.900	82.779	0.100
539.000	79.773	0.100
539.100	83.173	0.100
539.200	81.320	0.100
539.300	88.482	0.100
539.400	76.173	0.100
539.500	83.193	0.100
539.600	90.190	0.100
539.700	83.919	0.100
539.800	92.384	0.100
539.900	81.964	0.100
540.000	75.801	0.100
540.100	70.560	0.100
540.200	52.796	0.100
540.300	33.422	0.100
540.400	26.365	0.100
540.500	15.251	0.100
540.600	-14.608	0.100
540.700	-25.783	0.100
540.800	-37.275	0.100
540.900	-38.058	0.100
541.000	-49.945	0.100
541.100	-58.945	0.100
541.200	-71.002	0.100
541.300	-81.328	0.100
541.400	-78.981	0.100
541.500	-86.952	0.100
541.600	-106.860	0.100
541.700	-95.281	0.100
541.800	-102.035	0.100
541.900	-110.020	0.100
542.000	-97.824	0.100
542.100	-114.312	0.100
542.200	-109.629	0.100
542.300	-109.083	0.100
542.400	-111.266	0.100
542.500	-103.667	0.100
542.600	-97.555	0.100
542.700	-109.864	0.100
542.800	-116.042	0.100
542.900	-99.222	0.100
543.000	-102.503	0.100
543.100	-105.614	0.100
543.200	-103.458	0.100
543.300	-100.082	0.100
543.400	-112.647	0.100
543.500	-104.678	0.100
543.600	-91.724	0.100
543.700	-101.054	0.100
543.800	-102.055	0.100
543.900	-91.343	0.100
544.000	-86.802	0.100
544.100	-90.909	0.100
544.200	-90.845	0.100
544.300	-85.486	0.100
544.400	-98.209	0.100
544.500	-85.151	0.100
544.600	-77.913	0.100
544.700	-88.111	0.100
544.800	-91.613	0.100
544.900	-79.162	0.100
545.000	-85.004	0.100
545.100	-75.026	0.100
545.200	-71.846	0.100
545.300	-66.928	0.100
545.400	-73.450	0.100
545.500	-73.929	0.100
545.600	-77.606	0.100
545.700	-71.350	0.100
545.800	-68.855	0.100
545.900	-63.933	0.100
546.000	-72.304	0.100
546.100	-68.777	0.100
546.200	-60.848	0.100
546.300	-70.125	0.100
546.400	-70.709	0.100
546.500	-64.731	0.100
546.600	-62.848	0.100
546.700	-62.393	0.100
546.800	-63.954	0.100
546.900	-53.962	0.100
547.000	-66.268	0.100
547.100	-68.588	0.100
547.200	-63.747	0.100
547.300	-56.531	0.100
547.400	-68.902	0.100
547.500	-69.742	0.100
547.600	-51.052	0.100
547.700	-46.446	0.100
547.800	-58.490	0.100
547.900	-57.484	0.100
548.000	-57.991	0.100
548.100	-43.298	0.100
548.200	-57.022	0.100
548.300	-61.983	0.100
548.400	-56.276	0.100
548.500	-65.392	0.100
548.600	-55.084	0.100
548.700	-54.808	0.100
548.800	-53.731	0.100
548.900	-71.861	0.100
549.000	-50.217	0.100
549.100	-64.175	0.100
549.200	-60.548	0.099
549.300	-54.881	0.100
549.400	-50.104	0.100
549.500	-66.203	0.100
549.600	-52.702	0.100
549.700	-62.635	0.100
549.800	-59.474	0.100
549.900	-52.454	0.100
550.000	-50.097	0.100
550.100	-49.385	0.100
550.200	-57.874	0.100
550.300	-60.429	0.100
550.400	-53.731	0.100
550.500	-66.682	0.100
550.600	-65.631	0.100
550.700	-48.947	0.100
550.800	-43.007	0.100
550.900	-47.126	0.100
551.000	-56.231	0.100
551.100	-60.763	0.100
551.200	-49.112	0.100
551.300	-56.745	0.100
551.400	-50.853	0.100
551.500	-61.854	0.100
551.600	-42.522	0.100
551.700	-54.880	0.100
551.800	-49.999	0.100
551.900	-56.351	0.100
552.000	-46.700	0.100
552.100	-67.439	0.100
552.200	-45.281	0.100
552.300	-59.011	0.100
552.400	-57.240	0.100
552.500	-53.629	0.100
552.600	-49.152	0.100
552.700	-58.426	0.100
552.800	-48.872	0.100
552.900	-52.097	0.100
553.000	-52.660	0.100
553.100	-51.142	0.100
553.200	-52.295	0.100
553.300	-57.757	0.100
553.400	-57.209	0.100
553.500	-52.144	0.100
553.600	-59.905	0.100
553.700	-57.663	0.100
553.800	-46.496	0.100
553.900	-55.844	0.100
554.000	-46.251	0.100
554.100	-52.314	0.100
554.200	-48.755	0.100
554.300	-60.816	0.100
554.400	-37.968	0.100
554.500	-51.408	0.100
554.600	-51.628	0.100
554.700	-56.715	0.100
554.800	-58.871	0.100
554.900	-51.424	0.100
555.000	-53.229	0.100
555.100	-54.586	0.100
555.200	-46.841	0.100
555.300	-43.119	0.100
555.400	-67.033	0.100
555.500	-44.328	0.100
555.600	-48.075	0.100
555.700	-48.786	0.100
555.800	-46.468	0.100
555.900	-52.130	0.100
556.000	-48.211	0.100
556.100	-74.548	0.100
556.200	-36.932	0.100
556.300	-36.258	0.100
556.400	-58.971	0.100
556.500	-55.889	0.100
556.600	-49.699	0.100
556.700	-60.432	0.100
556.800	-49.585	0.100
556.900	-54.842	0.100
557.000	-49.923	0.100
557.100	-44.569	0.100
557.200	-46.875	0.100
557.300	-50.654	0.100
557.400	-57.069	0.100
557.500	-61.488	0.100
557.600	-42.804	0.100
557.700	-44.788	0.100
557.800	-53.438	0.100
557.900	-55.231	0.100
558.000	-39.420	0.100
558.100	-55.923	0.100
558.200	-51.346	0.100
558.300	-48.467	0.100
558.400	-50.520	0.100
558.500	-44.963	0.100
558.600	-45.777	0.100
558.700	-47.226	0.100
558.800	-47.738	0.100
558.900	-60.379	0.100
559.000	-48.248	0.100
559.100	-58.109	0.100
559.200	-47.880	0.100
559.300	-55.924	0.100
559.400	-49.050	0.100
559.500	-52.355	0.100
559.600	-45.234	0.100
559.700	-46.725	0.100
559.800	-42.508	0.100
559.900	-46.538	0.100
560.000	-47.584	0.100
560.100	-58.811	0.100
560.200	-55.809	0.100
560.300	-43.332	0.100
560.400	-48.992	0.100
560.500	-45.960	0.100
560.600	-58.411	0.100
560.700	-48.767	0.100
560.800	-40.114	0.100
560.900	-49.219	0.100
561.000	-44.533	0.100
561.100	-49.582	0.100
561.200	-46.495	0.100
561.300	-53.612	0.100
561.400	-65.491	0.100
561.500	-47.741	0.100
561.600	-50.950	0.100
561.700	-59.869	0.100
561.800	-48.092	0.100
561.900	-52.284	0.100
562.000	-46.692	0.100
562.100	-49.221	0.100
562.200	-52.959	0.100
562.300	-46.198	0.100
562.400	-43.768	0.100
562.500	-57.495	0.100
562.600	-47.246	0.100
562.700	-45.894	0.100
562.800	-41.889	0.100
562.900	-47.944	0.100
563.000	-49.508	0.100
563.100	-41.218	0.100
563.200	-42.925	0.100
563.300	-54.632	0.100
563.400	-48.354	0.100
563.500	-59.583	0.100
563.600	-51.197	0.100
563.700	-41.139	0.100
563.800	-43.704	0.100
563.900	-45.491	0.100
564.000	-50.453	0.100
564.100	-54.379	0.100
564.200	-41.251	0.100
564.300	-51.718	0.100
564.400	-39.722	0.100
564.500	-43.866	0.100
564.600	-56.675	0.100
564.700	-46.617	0.100
564.800	-41.043	0.100
564.900	-50.196	0.100
565.000	-47.263	0.100
565.100	-52.447	0.100
565.200	-51.736	0.100
565.300	-44.941	0.100
565.400	-47.151	0.100
565.500	-39.263	0.100
565.600	-40.599	0.100
565.700	-50.582	0.100
565.800	-61.288	0.100
565.900	-55.640	0.100
566.000	-34.884	0.100
566.100	-48.262	0.100
566.200	-40.327	0.100
566.300	-42.564	0.100
566.400	-41.202	0.100
566.500	-40.408	0.100
566.600	-53.382	0.100
566.700	-50.996	0.100
566.800	-47.367	0.100
566.900	-45.946	0.100
567.000	-53.122	0.100
567.100	-53.074	0.100
567.200	-48.364	0.100
567.300	-53.862	0.100
567.400	-32.168	0.100
567.500	-50.690	0.100
567.600	-40.304	0.100
567.700	-49.112	0.100
567.800	-43.309	0.100
567.900	-46.489	0.100
568.000	-41.122	0.100
568.100	-46.983	0.100
568.200	-47.510	0.100
568.300	-43.954	0.100
568.400	-50.014	0.099
568.500	-43.618	0.100
568.600	-46.441	0.099
568.700	-41.276	0.100
568.800	-46.928	0.100
568.900	-39.646	0.100
569.000	-53.428	0.100
569.100	-36.726	0.100
569.200	-53.404	0.100
569.300	-62.919	0.100
569.400	-46.863	0.100
569.500	-39.093	0.100
569.600	-44.590	0.100
569.700	-56.446	0.099
569.800	-49.007	0.100
569.900	-44.375	0.100
570.000	-43.656	0.100
570.100	-30.578	0.100
570.200	-44.813	0.100
570.300	-42.688	0.100
570.400	-46.506	0.100
570.500	-47.139	0.100
570.600	-42.661	0.100
570.700	-44.085	0.100
570.800	-40.985	0.100
570.900	-44.165	0.100
571.000	-49.080	0.100
571.100	-44.506	0.100
571.200	-40.678	0.100
571.300	-49.956	0.100
571.400	-35.027	0.100
571.500	-45.374	0.100
571.600	-58.920	0.100
571.700	-40.564	0.100
571.800	-49.441	0.100
571.900	-38.824	0.100
572.000	-42.251	0.100
572.100	-45.658	0.100
572.200	-34.419	0.100
572.300	-43.119	0.100
572.400	-54.383	0.100
572.500	-49.465	0.100
572.600	-44.250	0.100
572.700	-50.802	0.100
572.800	-48.970	0.100
572.900	-40.343	0.100
573.000	-35.837	0.100
573.100	-38.623	0.100
573.200	-38.621	0.100
573.300	-44.789	0.100
573.400	-39.001	0.100
573.500	-51.478	0.100
573.600	-36.503	0.100
573.700	-43.734	0.100
573.800	-38.876	0.100
573.900	-55.042	0.100
574.000	-41.661	0.100
574.100	-40.399	0.100
574.200	-49.114	0.100
574.300	-46.090	0.100
574.400	-39.817	0.100
574.500	-31.422	0.100
574.600	-32.864	0.100
574.700	-38.914	0.099
574.800	-41.247	0.100
574.900	-44.682	0.099
575.000	-48.443	0.100
575.100	-41.427	0.100
575.200	-43.898	0.100
575.300	-42.603	0.100
575.400	-40.943	0.100
575.500	-47.841	0.100
575.600	-43.744	0.099
575.700	-42.947	0.100
575.800	-36.370	0.100
575.900	-34.456	0.099
576.000	-45.611	0.099
576.100	-43.937	0.100
576.200	-43.076	0.100
576.300	-47.009	0.100
576.400	-36.057	0.100
576.500	-40.827	0.100
576.600	-41.826	0.100
576.700	-56.814	0.100
576.800	-36.130	0.099
576.900	-31.486	0.100
577.000	-48.827	0.100
577.100	-34.777	0.100
577.200	-35.585	0.100
577.300	-43.591	0.100
577.400	-48.881	0.100
577.500	-38.384	0.100
577.600	-30.214	0.100
577.700	-45.560	0.100
577.800	-31.407	0.100
577.900	-33.449	0.100
578.000	-53.206	0.100
578.100	-49.685	0.100
578.200	-32.558	0.100
578.300	-38.943	0.100
578.400	-35.836	0.100
578.500	-42.522	0.100
578.600	-51.396	0.100
578.700	-25.230	0.100
578.800	-45.313	0.099
578.900	-53.573	0.100
579.000	-34.601	0.100
579.100	-45.677	0.100
579.200	-36.983	0.100
579.300	-40.327	0.100
579.400	-39.946	0.100
579.500	-33.699	0.099
579.600	-32.094	0.100
579.700	-37.516	0.099
579.800	-44.160	0.099
579.900	-26.603	0.100
580.000	-42.096	0.100
580.100	-41.007	0.100
580.200	-40.190	0.100
580.300	-32.305	0.100
580.400	-41.522	0.100
580.500	-38.175	0.100
580.600	-43.409	0.100
580.700	-41.309	0.100
580.800	-39.618	0.100
580.900	-51.169	0.099
581.000	-34.233	0.100
581.100	-36.297	0.100
581.200	-55.304	0.099
581.300	-38.414	0.100
581.400	-41.580	0.100
581.500	-48.610	0.100
581.600	-31.466	0.100
581.700	-33.750	0.100
581.800	-42.356	0.100
581.900	-39.508	0.100
582.000	-32.402	0.099
582.100	-38.498	0.100
582.200	-36.265	0.100
582.300	-41.509	0.100
582.400	-23.500	0.100
582.500	-34.373	0.100
582.600	-49.707	0.100
582.700	-50.288	0.100
582.800	-40.905	0.100
582.900	-43.193	0.100
583.000	-31.730	0.100
583.100	-44.901	0.099
583.200	-46.140	0.100
583.300	-28.577	0.100
583.400	-40.942	0.100
583.500	-27.724	0.100
583.600	-31.566	0.100
583.700	-37.617	0.100
583.800	-47.231	0.100
583.900	-36.629	0.100
584.000	-37.625	0.100
584.100	-31.588	0.100
584.200	-39.679	0.100
584.300	-41.183	0.100
584.400	-43.123	0.099
584.500	-32.134	0.100
584.600	-46.062	0.100
584.700	-42.967	0.100
584.800	-35.590	0.100
584.900	-31.609	0.100
585.000	-43.888	0.100
585.100	-31.235	0.100
585.200	-30.992	0.100
585.300	-36.751	0.100
585.400	-40.958	0.099
585.500	-44.046	0.099
585.600	-30.554	0.100
585.700	-46.945	0.100
585.800	-42.416	0.100
585.900	-35.836	0.099
586.000	-38.911	0.100
586.100	-32.081	0.100
586.200	-28.747	0.100
586.300	-36.179	0.100
586.400	-62.092	0.100
586.500	-40.892	0.100
586.600	-29.547	0.100
586.700	-41.054	0.100
586.800	-40.031	0.100
586.900	-19.815	0.100
587.000	-46.253	0.100
587.100	-34.429	0.099
587.200	-41.470	0.100
587.300	-35.274	0.100
587.400	-33.012	0.099
587.500	-46.312	0.100
587.600	-34.836	0.100
587.700	-35.078	0.100
587.800	-41.269	0.100
587.900	-46.254	0.100
588.000	-38.445	0.100
588.100	-46.173	0.100
588.200	-36.572	0.099
588.300	-28.195	0.100
588.400	-33.826	0.100
588.500	-38.763	0.100
588.600	-38.650	0.100
588.700	-29.864	0.100
588.800	-24.297	0.100
588.900	-39.370	0.100
589.000	-37.605	0.100
589.100	-40.771	0.100
589.200	-30.178	0.100
589.300	-43.129	0.100
589.400	-33.706	0.100
589.500	-32.231	0.100
589.600	-45.640	0.100
589.700	-53.525	0.100
589.800	-27.519	0.099
589.900	-41.925	0.100
590.000	-32.007	0.100
590.100	-26.745	0.100
590.200	-29.000	0.100
590.300	-36.414	0.100
590.400	-46.073	0.100
590.500	-42.853	0.100
590.600	-38.779	0.099
590.700	-49.205	0.100
590.800	-29.668	0.100
590.900	-29.311	0.100
591.000	-37.939	0.100
591.100	-35.219	0.100
591.200	-41.093	0.100
591.300	-28.494	0.100
591.400	-41.556	0.099
591.500	-37.134	0.100
591.600	-40.194	0.100
591.700	-37.720	0.099
591.800	-38.166	0.100
591.900	-39.073	0.100
592.000	-24.858	0.100
592.100	-35.801	0.100
592.200	-31.759	0.099
592.300	-32.541	0.099
592.400	-29.568	0.100
592.500	-33.812	0.100
592.600	-38.070	0.100
592.700	-36.312	0.100
592.800	-33.571	0.099
592.900	-29.054	0.100
593.000	-35.680	0.099
593.100	-36.839	0.100
593.200	-34.185	0.100
593.300	-34.734	0.100
593.400	-32.963	0.100
593.500	-28.934	0.100
593.600	-40.601	0.100
593.700	-28.132	0.100
593.800	-39.320	0.100
593.900	-28.045	0.100
594.000	-34.191	0.100
594.100	-31.196	0.100
594.200	-29.416	0.100
594.300	-29.845	0.099
594.400	-35.272	0.100
594.500	-38.012	0.100
594.600	-34.996	0.100
594.700	-26.085	0.100
594.800	-33.601	0.099
594.900	-33.316	0.100
595.000	-36.730	0.100
595.100	-36.518	0.100
595.200	-29.666	0.100
595.300	-34.944	0.099
595.400	-35.963	0.100
595.500	-33.447	0.100
595.600	-31.800	0.099
595.700	-41.801	0.100
595.800	-39.210	0.100
595.900	-26.686	0.100
596.000	-33.288	0.099
596.100	-31.556	0.100
596.200	-36.000	0.100
596.300	-46.630	0.100
596.400	-29.171	0.100
596.500	-28.573	0.100
596.600	-37.042	0.099
596.700	-35.750	0.100
596.800	-42.676	0.100
596.900	-33.553	0.100
597.000	-38.589	0.100
597.100	-31.317	0.100
597.200	-32.831	0.100
597.300	-30.753	0.100
597.400	-36.887	0.100
597.500	-24.939	0.100
597.600	-40.226	0.100
597.700	-19.816	0.100
597.800	-29.862	0.100
597.900	-24.805	0.100
598.000	-35.959	0.100
598.100	-38.984	0.100
598.200	-35.509	0.100
598.300	-35.066	0.100
598.400	-28.810	0.100
598.500	-27.412	0.100
598.600	-32.390	0.099
598.700	-33.706	0.100
598.800	-28.371	0.100
598.900	-31.374	0.100
599.000	-33.185	0.100
599.100	-31.853	0.100
599.200	-32.205	0.100
599.300	-29.365	0.100
599.400	-38.211	0.100
599.500	-27.359	0.100
599.600	-30.232	0.100
599.700	-41.044	0.100
599.800	-34.469	0.100
599.900	-27.045	0.100
600.000	-32.215	0.100
600.100	-29.387	0.100
600.200	-25.297	0.100
600.300	-38.424	0.100
600.400	-35.149	0.100
600.500	-24.696	0.100
600.600	-30.495	0.100
600.700	-34.613	0.100
600.800	-33.244	0.100
600.900	-39.962	0.099
601.000	-27.595	0.100
601.100	-46.096	0.100
601.200	-22.336	0.100
601.300	-16.695	0.100
601.400	-30.021	0.100
601.500	-25.042	0.100
601.600	-32.532	0.100
601.700	-33.616	0.100
601.800	-39.450	0.100
601.900	-34.015	0.100
602.000	-33.220	0.100
602.100	-34.918	0.100
602.200	-24.817	0.100
602.300	-39.072	0.100
602.400	-32.695	0.099
602.500	-26.247	0.100
602.600	-34.435	0.099
602.700	-29.529	0.100
602.800	-35.481	0.100
602.900	-29.493	0.100
603.000	-27.708	0.100
603.100	-31.656	0.100
603.200	-35.411	0.100
603.300	-26.895	0.100
603.400	-31.922	0.099
603.500	-18.731	0.100
603.600	-40.990	0.099
603.700	-33.732	0.100
603.800	-22.083	0.100
603.900	-34.184	0.099
604.000	-25.760	0.100
604.100	-42.025	0.100
604.200	-14.449	0.100
604.300	-35.444	0.100
604.400	-31.824	0.099
604.500	-25.812	0.100
604.600	-25.848	0.100
604.700	-35.323	0.100
604.800	-34.329	0.100
604.900	-33.919	0.100
605.000	-41.805	0.100
605.100	-24.116	0.100
605.200	-23.033	0.100
605.300	-17.843	0.100
605.400	-27.264	0.100
605.500	-20.069	0.100
605.600	-23.671	0.100
605.700	-28.194	0.100
605.800	-25.014	0.100
605.900	-34.153	0.100
606.000	-33.873	0.100
606.100	-32.374	0.100
606.200	-31.723	0.100
606.300	-33.124	0.100
606.400	-36.367	0.100
606.500	-25.493	0.100
606.600	-20.399	0.100
606.700	-28.988	0.100
606.800	-26.370	0.100
606.900	-29.646	0.100
607.000	-20.457	0.100
607.100	-42.815	0.100
607.200	-29.395	0.100
607.300	-24.668	0.100
607.400	-24.456	0.100
607.500	-36.621	0.100
607.600	-25.720	0.100
607.700	-30.666	0.100
607.800	-37.496	0.100
607.900	-26.851	0.100
608.000	-31.332	0.100
608.100	-43.436	0.100
608.200	-26.144	0.100
608.300	-22.461	0.100
608.400	-24.517	0.100
608.500	-23.389	0.100
608.600	-33.550	0.100
608.700	-23.972	0.100
608.800	-30.403	0.100
608.900	-25.113	0.100
609.000	-33.693	0.100
609.100	-40.864	0.100
609.200	-24.891	0.100
609.300	-31.020	0.100
609.400	-30.730	0.099
609.500	-22.065	0.100
609.600	-27.800	0.100
609.700	-21.582	0.100
609.800	-32.857	0.100
609.900	-29.973	0.100
610.000	-39.594	0.100
610.100	-27.379	0.100
610.200	-21.844	0.100
610.300	-27.999	0.100
610.400	-24.301	0.099
610.500	-37.922	0.100
610.600	-47.926	0.100
610.700	-30.657	0.100
610.800	-34.262	0.100
610.900	-6.138	0.099
611.000	-25.445	0.100
611.100	-22.720	0.100
611.200	-29.321	0.100
611.300	-26.000	0.100
611.400	-27.920	0.100
611.500	-32.656	0.100
611.600	-30.931	0.100
611.700	-38.484	0.099
611.800	-28.267	0.100
611.900	-27.386	0.100
612.000	-29.082	0.100
612.100	-30.089	0.100
612.200	-22.642	0.100
612.300	-27.351	0.100
612.400	-21.885	0.100
612.500	-25.010	0.100
612.600	-32.231	0.100
612.700	-25.670	0.100
612.800	-40.673	0.100
612.900	-29.552	0.100
613.000	-39.980	0.100
613.100	-16.257	0.100
613.200	-26.666	0.099
613.300	-25.177	0.100
613.400	-30.011	0.100
613.500	-25.386	0.100
613.600	-22.943	0.099
613.700	-33.974	0.100
613.800	-28.509	0.100
613.900	-38.854	0.099
614.000	-35.003	0.099
614.100	-19.859	0.099
614.200	-29.600	0.099
614.300	-14.288	0.100
614.400	-24.715	0.100
614.500	-27.896	0.100
614.600	-21.789	0.099
614.700	-36.011	0.099
614.800	-28.727	0.100
614.900	-31.412	0.099
615.000	-20.642	0.100
615.100	-28.678	0.100
615.200	-30.316	0.100
615.300	-28.655	0.100
615.400	-35.005	0.099
615.500	-32.323	0.100
615.600	-25.519	0.099
615.700	-28.449	0.100
615.800	-23.853	0.100
615.900	-27.674	0.100
616.000	-30.684	0.100
616.100	-26.979	0.100
616.200	-36.478	0.099
616.300	-32.771	0.100
616.400	-28.262	0.100
616.500	-30.157	0.100
616.600	-29.711	0.100
616.700	-31.985	0.099
616.800	-54.188	0.099
616.900	-20.853	0.099
617.000	-29.127	0.100
617.100	-29.647	0.099
617.200	-22.450	0.100
617.300	-23.722	0.100
617.400	-24.443	0.099
617.500	-27.746	0.099
617.600	-31.654	0.099
617.700	-33.828	0.099
617.800	-20.161	0.099
617.900	-23.362	0.099
618.000	-25.013	0.100
618.100	-25.543	0.100
618.200	-42.826	0.100
618.300	-36.417	0.100
618.400	-30.729	0.099
618.500	-29.024	0.100
618.600	-30.272	0.099
618.700	-26.050	0.100
618.800	-23.070	0.099
618.900	-24.436	0.100
619.000	-36.947	0.099
619.100	-16.056	0.100
619.200	-27.268	0.100
619.300	-27.939	0.099
619.400	-21.608	0.100
619.500	-19.936	0.099
619.600	-35.772	0.100
619.700	-33.247	0.099
619.800	-24.115	0.100
619.900	-26.221	0.099
620.000	-25.245	0.099
620.100	-24.902	0.100
620.200	-18.842	0.100
620.300	-30.881	0.099
620.400	-32.897	0.100
620.500	-20.201	0.100
620.600	-22.745	0.100
620.700	-17.318	0.100
620.800	-21.019	0.100
620.900	-23.064	0.100
621.000	-28.890	0.100
621.100	-41.888	0.100
621.200	-31.618	0.100
621.300	-15.878	0.100
621.400	-19.100	0.100
621.500	-21.369	0.100
621.600	-19.370	0.100
621.700	-32.899	0.100
621.800	-32.588	0.099
621.900	-32.684	0.100
622.000	-9.687	0.100
622.100	-19.465	0.100
622.200	-28.390	0.100
622.300	-36.013	0.100
622.400	-29.335	0.100
622.500	-24.515	0.100
622.600	-15.819	0.100
622.700	-25.904	0.100
622.800	-34.038	0.099
622.900	-27.940	0.100
623.000	-20.183	0.100
623.100	-24.113	0.100
623.200	-20.369	0.100
623.300	-30.059	0.100
623.400	-27.018	0.099
623.500	-26.093	0.100
623.600	-28.423	0.100
623.700	-38.196	0.100
623.800	-42.074	0.100
623.900	-33.342	0.099
624.000	-3.525	0.099
624.100	-28.310	0.099
624.200	-19.681	0.100
624.300	-20.866	0.100
624.400	-29.206	0.100
624.500	-20.654	0.100
624.600	-28.336	0.100
624.700	-22.415	0.099
624.800	-25.198	0.100
624.900	-33.477	0.099
625.000	-24.217	0.100
625.100	-19.979	0.099
625.200	-31.276	0.100
625.300	-21.595	0.100
625.400	-15.063	0.100
625.500	-34.465	0.100
625.600	-41.599	0.100
625.700	-24.949	0.100
625.800	-23.689	0.099
625.900	-13.031	0.100
626.000	-26.032	0.100
626.100	-27.885	0.099
626.200	-24.324	0.100
626.300	-24.193	0.100
626.400	-19.831	0.100
626.500	-33.900	0.100
626.600	-25.974	0.100
626.700	-33.560	0.100
626.800	-19.677	0.100
626.900	-25.928	0.099
627.000	-23.236	0.099
627.100	-31.081	0.100
627.200	-23.527	0.100
627.300	-27.763	0.100
627.400	-24.527	0.099
627.500	-50.856	0.099
627.600	-18.136	0.099
627.700	-16.694	0.100
627.800	-20.549	0.100
627.900	-27.445	0.100
628.000	-18.532	0.100
628.100	-32.615	0.100
628.200	-11.127	0.100
628.300	-14.172	0.099
628.400	-16.337	0.100
628.500	-16.983	0.100
628.600	-29.744	0.100
628.700	-31.121	0.100
628.800	-27.895	0.100
628.900	-34.888	0.100
629.000	-18.036	0.100
629.100	-21.415	0.100
629.200	-24.434	0.100
629.300	-33.706	0.100
629.400	-29.641	0.100
629.500	-10.408	0.100
629.600	-22.612	0.100
629.700	-26.536	0.100
629.800	-33.540	0.100
629.900	-32.950	0.100
630.000	-20.512	0.099
630.100	-23.190	0.100
630.200	2.119	0.100
630.300	4.470	0.100
630.400	26.205	0.100
630.500	32.171	0.100
630.600	33.725	0.099
630.700	46.721	0.099
630.800	43.514	0.100
630.900	50.448	0.100
631.000	66.893	0.100
631.100	62.432	0.100
631.200	63.085	0.099
631.300	71.483	0.100
631.400	63.447	0.100
631.500	70.861	0.099
631.600	56.665	0.100
631.700	63.692	0.100
631.800	63.377	0.099
631.900	61.521	0.100
632.000	58.136	0.100
632.100	62.809	0.100
632.200	63.269	0.100
632.300	56.625	0.100
632.400	50.198	0.100
632.500	54.501	0.099
632.600	46.049	0.099
632.700	58.806	0.100
632.800	56.325	0.100
632.900	50.953	0.100
633.000	45.991	0.100
633.100	58.500	0.099
633.200	48.859	0.100
633.300	62.243	0.100
633.400	54.599	0.100
633.500	43.874	0.100
633.600	31.930	0.100
633.700	49.138	0.100
633.800	49.405	0.100
633.900	43.050	0.100
634.000	39.929	0.100
634.100	46.062	0.100
634.200	44.020	0.100
634.300	34.831	0.100
634.400	42.427	0.100
634.500	47.461	0.100
634.600	44.575	0.100
634.700	37.670	0.100
634.800	44.104	0.100
634.900	49.386	0.100
635.000	51.003	0.100
635.100	56.692	0.100
635.200	59.289	0.100
635.300	43.772	0.100
635.400	52.489	0.100
635.500	63.284	0.100
635.600	65.524	0.100
635.700	67.972	0.100
635.800	56.643	0.100
635.900	59.842	0.100
636.000	62.775	0.100
636.100	57.632	0.100
636.200	63.714	0.100
636.300	71.860	0.100
636.400	72.764	0.100
636.500	62.409	0.100
636.600	65.190	0.100
636.700	79.666	0.100
636.800	77.396	0.100
636.900	84.478	0.100
637.000	78.358	0.100
637.100	76.571	0.100
637.200	72.677	0.100
637.300	70.547	0.100
637.400	78.508	0.100
637.500	85.811	0.100
637.600	84.355	0.099
637.700	78.687	0.100
637.800	77.759	0.100
637.900	89.028	0.100
638.000	79.806	0.100
638.100	79.705	0.100
638.200	80.507	0.099
638.300	90.125	0.100
638.400	75.803	0.100
638.500	90.753	0.099
638.600	90.348	0.100
638.700	83.009	0.100
638.800	91.074	0.100
638.900	82.625	0.100
639.000	83.497	0.100
639.100	77.677	0.100
639.200	88.867	0.100
639.300	93.732	0.100
639.400	90.102	0.100
639.500	80.091	0.100
639.600	95.471	0.100
639.700	78.676	0.100
639.800	84.496	0.100
639.900	96.750	0.100
640.000	96.739	0.100
640.100	97.326	0.100
640.200	81.549	0.100
640.300	82.640	0.100
640.400	80.728	0.100
640.500	93.703	0.100
640.600	77.780	0.100
640.700	78.631	0.100
640.800	93.035	0.100
640.900	104.584	0.100
641.000	92.048	0.100
641.100	85.065	0.100
641.200	91.941	0.100
641.300	91.768	0.100
641.400	93.274	0.100
641.500	89.320	0.100
641.600	79.321	0.100
641.700	89.902	0.100
641.800	86.037	0.100
641.900	89.634	0.100
642.000	97.114	0.100
642.100	92.656	0.100
642.200	83.816	0.100
642.300	82.711	0.100
642.400	91.242	0.100
642.500	92.545	0.100
642.600	88.625	0.100
642.700	90.821	0.100
642.800	81.122	0.100
642.900	90.758	0.100
643.000	86.799	0.100
643.100	86.504	0.100
643.200	73.697	0.100
643.300	97.807	0.100
643.400	82.992	0.100
643.500	99.077	0.100
643.600	82.939	0.099
643.700	76.563	0.100
643.800	90.092	0.100
643.900	101.856	0.100
644.000	87.944	0.099
644.100	85.033	0.100
644.200	90.029	0.100
644.300	84.170	0.100
644.400	88.508	0.100
644.500	82.145	0.100
644.600	84.139	0.100
644.700	85.828	0.100
644.800	72.312	0.100
644.900	85.357	0.100
645.000	81.691	0.100
645.100	80.340	0.099
645.200	92.933	0.100
645.300	80.513	0.100
645.400	87.688	0.100
645.500	83.102	0.100
645.600	81.135	0.100
645.700	84.936	0.100
645.800	101.450	0.100
645.900	77.268	0.100
646.000	86.789	0.100
646.100	78.689	0.100
646.200	92.830	0.100
646.300	86.411	0.100
646.400	77.846	0.100
646.500	71.712	0.100
646.600	88.150	0.100
646.700	91.482	0.100
646.800	82.524	0.100
646.900	84.183	0.100
647.000	89.074	0.100
647.100	92.023	0.100
647.200	82.165	0.100
647.300	79.366	0.100
647.400	80.259	0.100
647.500	82.996	0.100
647.600	73.691	0.100
647.700	70.840	0.100
647.800	90.362	0.100
647.900	94.054	0.099
648.000	91.445	0.100
648.100	69.595	0.100
648.200	82.400	0.100
648.300	84.956	0.100
648.400	79.092	0.100
648.500	84.154	0.100
648.600	75.718	0.100
648.700	85.858	0.100
648.800	81.593	0.100
648.900	79.064	0.100
649.000	73.674	0.100
649.100	71.429	0.100
649.200	77.089	0.100
649.300	73.299	0.100
649.400	53.669	0.100
649.500	64.102	0.100
649.600	104.369	0.100
649.700	94.874	0.100
649.800	77.224	0.100
649.900	70.492	0.100
650.000	84.237	0.100
650.100	78.069	0.100
650.200	72.906	0.100
650.300	84.655	0.100
650.400	75.745	0.100
650.500	73.619	0.100
650.600	68.753	0.100
650.700	62.584	0.100
650.800	91.558	0.100
650.900	91.865	0.100
651.000	77.861	0.099
651.100	76.154	0.100
651.200	82.403	0.100
651.300	80.790	0.100
651.400	79.457	0.100
651.500	74.759	0.100
651.600	66.328	0.100
651.700	70.011	0.100
651.800	80.798	0.100
651.900	78.361	0.100
652.000	73.245	0.100
652.100	75.301	0.100
652.200	75.648	0.100
652.300	74.315	0.100
652.400	79.404	0.100
652.500	76.854	0.100
652.600	83.332	0.100
652.700	69.958	0.100
652.800	72.442	0.100
652.900	77.253	0.100
653.000	81.647	0.100
653.100	71.247	0.099
653.200	76.593	0.099
653.300	76.033	0.100
653.400	81.291	0.100
653.500	86.163	0.100
653.600	72.050	0.100
653.700	75.693	0.100
653.800	75.622	0.100
653.900	72.403	0.100
654.000	76.276	0.100
654.100	65.173	0.100
654.200	83.078	0.099
654.300	95.266	0.100
654.400	72.153	0.100
654.500	76.312	0.100
654.600	76.736	0.100
654.700	75.947	0.100
654.800	89.551	0.100
654.900	75.554	0.100
655.000	75.694	0.100
655.100	81.880	0.100
655.200	67.823	0.100
655.300	77.148	0.100
655.400	86.026	0.100
655.500	81.661	0.099
655.600	74.639	0.100
655.700	73.072	0.100
655.800	84.683	0.100
655.900	86.502	0.100
656.000	74.262	0.100
656.100	72.224	0.100
656.200	67.760	0.100
656.300	73.506	0.100
656.400	79.437	0.100
656.500	73.919	0.100
656.600	70.192	0.100
656.700	80.068	0.100
656.800	73.644	0.100
656.900	81.145	0.100
657.000	72.039	0.100
657.100	91.236	0.100
657.200	79.968	0.100
657.300	77.535	0.100
657.400	81.933	0.100
657.500	79.238	0.100
657.600	74.367	0.100
657.700	70.546	0.100
657.800	75.460	0.100
657.900	85.092	0.100
658.000	84.774	0.100
658.100	81.289	0.100
658.200	78.240	0.099
658.300	73.877	0.100
658.400	77.159	0.100
658.500	77.372	0.100
658.600	78.739	0.100
658.700	64.178	0.100
658.800	72.998	0.100
658.900	69.512	0.100
659.000	82.179	0.100
659.100	73.107	0.100
659.200	66.042	0.100
659.300	88.452	0.100
659.400	85.703	0.100
659.500	73.603	0.100
659.600	76.150	0.100
659.700	86.670	0.100
659.800	78.267	0.100
659.900	81.583	0.100
660.000	87.291	0.100
660.100	90.609	0.100
660.200	91.992	0.100
660.300	74.586	0.100
660.400	75.521	0.100
660.500	65.142	0.100
660.600	65.836	0.100
660.700	78.200	0.100
660.800	78.056	0.100
660.900	72.186	0.100
661.000	81.696	0.100
661.100	77.398	0.100
661.200	72.878	0.100
661.300	78.850	0.100
661.400	85.010	0.100
661.500	84.555	0.100
661.600	73.262	0.100
661.700	81.156	0.100
661.800	81.545	0.100
661.900	86.270	0.100
662.000	91.760	0.100
662.100	74.315	0.100
662.200	73.447	0.100
662.300	87.983	0.100
662.400	88.938	0.100
662.500	86.557	0.100
662.600	78.741	0.100
662.700	67.835	0.100
662.800	82.483	0.100
662.900	91.120	0.100
663.000	80.863	0.100
663.100	101.141	0.100
663.200	83.282	0.100
663.300	60.860	0.100
663.400	76.985	0.100
663.500	75.088	0.100
663.600	84.939	0.100
663.700	69.760	0.100
663.800	78.204	0.100
663.900	81.797	0.100
664.000	83.599	0.100
664.100	79.628	0.100
664.200	85.121	0.100
664.300	73.930	0.100
664.400	80.114	0.100
664.500	68.296	0.100
664.600	89.268	0.100
664.700	79.576	0.100
664.800	74.326	0.100
664.900	75.438	0.100
665.000	85.048	0.100
665.100	80.304	0.100
665.200	89.627	0.100
665.300	91.765	0.100
665.400	85.575	0.100
665.500	90.237	0.100
665.600	88.679	0.100
665.700	86.045	0.100
665.800	63.593	0.100
665.900	77.557	0.100
666.000	81.419	0.100
666.100	89.239	0.100
666.200	76.444	0.100
666.300	82.135	0.100
666.400	72.171	0.100
666.500	80.454	0.100
666.600	79.439	0.100
666.700	94.467	0.100
666.800	85.576	0.100
666.900	79.035	0.100
667.000	78.751	0.100
667.100	85.130	0.100
667.200	71.586	0.100
667.300	85.158	0.100
667.400	83.670	0.100
667.500	70.129	0.100
667.600	83.443	0.100
667.700	91.511	0.100
667.800	82.236	0.100
667.900	83.477	0.100
668.000	73.818	0.100
668.100	84.698	0.100
668.200	78.601	0.100
668.300	83.473	0.100
668.400	96.981	0.100
668.500	71.056	0.100
668.600	65.901	0.100
668.700	87.418	0.100
668.800	91.061	0.100
668.900	81.964	0.100
669.000	75.421	0.100
669.100	93.453	0.100
669.200	86.921	0.100
669.300	79.586	0.100
669.400	86.697	0.100
669.500	75.138	0.100
669.600	72.961	0.100
669.700	94.134	0.100
669.800	82.326	0.100
669.900	80.613	0.100
670.000	85.471	0.100
670.100	83.056	0.100
670.200	68.057	0.100
670.300	80.799	0.100
670.400	78.213	0.100
670.500	86.600	0.100
670.600	91.150	0.100
670.700	78.328	0.100
670.800	80.901	0.100
670.900	72.591	0.100
671.000	85.865	0.100
671.100	95.823	0.100
671.200	84.745	0.100
671.300	91.426	0.100
671.400	67.924	0.100
671.500	74.817	0.100
671.600	78.101	0.100
671.700	93.403	0.100
671.800	86.950	0.100
671.900	87.750	0.100
672.000	86.847	0.100
672.100	77.588	0.100
672.200	83.314	0.100
672.300	77.867	0.100
672.400	80.075	0.100
672.500	87.350	0.100
672.600	89.386	0.100
672.700	80.749	0.100
672.800	84.365	0.100
672.900	83.800	0.100
673.000	85.638	0.100
673.100	78.266	0.100
673.200	68.849	0.100
673.300	94.790	0.100
673.400	84.997	0.100
673.500	75.218	0.100
673.600	74.089	0.100
673.700	91.685	0.100
673.800	96.415	0.100
673.900	83.877	0.100
674.000	90.459	0.100
674.100	89.396	0.100
674.200	90.710	0.100
674.300	91.662	0.100
674.400	78.638	0.100
674.500	74.568	0.100
674.600	79.144	0.100
674.700	85.629	0.100
674.800	73.244	0.100
674.900	89.813	0.100
675.000	86.173	0.100
675.100	75.930	0.100
675.200	98.433	0.100
675.300	80.850	0.100
675.400	77.811	0.100
675.500	89.359	0.100
675.600	86.379	0.100
675.700	75.758	0.100
675.800	87.810	0.100
675.900	78.527	0.100
676.000	75.925	0.100
676.100	93.972	0.100
676.200	74.207	0.100
676.300	87.051	0.100
676.400	80.215	0.100
676.500	91.877	0.100
676.600	73.187	0.100
676.700	87.364	0.100
676.800	74.781	0.100
676.900	81.516	0.100
677.000	87.370	0.100
677.100	90.644	0.100
677.200	99.262	0.100
677.300	89.335	0.100
677.400	80.295	0.100
677.500	85.073	0.100
677.600	79.560	0.100
677.700	72.996	0.100
677.800	81.093	0.100
677.900	70.378	0.100
678.000	97.676	0.100
678.100	82.036	0.100
678.200	83.356	0.100
678.300	85.175	0.100
678.400	81.596	0.100
678.500	85.437	0.100
678.600	74.758	0.100
678.700	98.200	0.100
678.800	95.151	0.100
678.900	79.993	0.100
679.000	89.485	0.100
679.100	86.021	0.100
679.200	75.483	0.100
679.300	88.957	0.100
679.400	84.454	0.100
679.500	93.531	0.100
679.600	73.808	0.100
679.700	87.186	0.100
679.800	93.077	0.100
679.900	79.213	0.100
680.000	80.316	0.100
680.100	89.228	0.100
680.200	93.423	0.100
680.300	78.356	0.100
680.400	89.262	0.100
680.500	88.226	0.100
680.600	83.843	0.100
680.700	85.167	0.100
680.800	76.691	0.100
680.900	96.834	0.100
681.000	85.154	0.100
681.100	82.084	0.100
681.200	74.503	0.100
681.300	88.470	0.100
681.400	79.901	0.100
681.500	83.512	0.100
681.600	93.395	0.100
681.700	83.520	0.100
681.800	87.294	0.100
681.900	78.638	0.100
682.000	80.190	0.100
682.100	89.300	0.100
682.200	73.498	0.100
682.300	91.374	0.100
682.400	100.661	0.100
682.500	79.164	0.100
682.600	67.889	0.100
682.700	97.643	0.100
682.800	92.202	0.100
682.900	84.526	0.100
683.000	85.077	0.100
683.100	77.689	0.100
683.200	82.122	0.100
683.300	83.069	0.100
683.400	92.599	0.100
683.500	79.588	0.100
683.600	89.065	0.100
683.700	87.646	0.100
683.800	84.906	0.100
683.900	87.095	0.100
684.000	70.722	0.100
684.100	82.617	0.100
684.200	86.614	0.100
684.300	89.009	0.100
684.400	85.898	0.100
684.500	78.624	0.100
684.600	84.361	0.100
684.700	79.354	0.100
684.800	85.371	0.100
684.900	81.115	0.100
685.000	88.662	0.100
685.100	87.052	0.100
685.200	83.208	0.100
685.300	79.820	0.100
685.400	83.547	0.100
685.500	81.206	0.100
685.600	90.164	0.100
685.700	79.198	0.100
685.800	91.543	0.100
685.900	91.765	0.100
686.000	87.577	0.100
686.100	74.202	0.100
686.200	67.880	0.100
686.300	85.023	0.100
686.400	82.629	0.100
686.500	86.788	0.100
686.600	94.196	0.100
686.700	80.108	0.100
686.800	85.272	0.100
686.900	84.372	0.100
687.000	80.941	0.100
687.100	87.976	0.100
687.200	85.432	0.100
687.300	90.253	0.100
687.400	82.359	0.100
687.500	84.172	0.100
687.600	72.065	0.100
687.700	80.636	0.100
687.800	89.923	0.100
687.900	75.004	0.100
688.000	98.707	0.100
688.100	83.221	0.100
688.200	87.536	0.100
688.300	84.814	0.100
688.400	83.390	0.100
688.500	83.797	0.100
688.600	89.890	0.100
688.700	92.027	0.100
688.800	73.448	0.100
688.900	89.583	0.100
689.000	88.795	0.100
689.100	88.576	0.100
689.200	84.071	0.100
689.300	81.485	0.100
689.400	88.249	0.100
689.500	84.531	0.100
689.600	87.629	0.100
689.700	87.766	0.100
689.800	74.531	0.100
689.900	89.559	0.100
690.000	82.097	0.100
690.100	80.890	0.100
690.200	58.527	0.100
690.300	41.367	0.100
690.400	27.023	0.100
690.500	28.400	0.100
690.600	5.654	0.100
690.700	-9.907	0.100
690.800	-22.205	0.100
690.900	-37.736	0.100
691.000	-44.552	0.100
691.100	-62.150	0.100
691.200	-70.586	0.100
691.300	-75.914	0.100
691.400	-79.600	0.100
691.500	-88.057	0.100
691.600	-84.848	0.100
691.700	-94.092	0.100
691.800	-114.809	0.100
691.900	-111.945	0.100
692.000	-110.164	0.100
692.100	-109.054	0.100
692.200	-98.295	0.100
692.300	-107.554	0.100
692.400	-112.649	0.100
692.500	-109.581	0.100
692.600	-114.887	0.100
692.700	-118.457	0.100
692.800	-109.580	0.100
692.900	-109.397	0.100
693.000	-112.323	0.100
693.100	-118.203	0.100
693.200	-111.193	0.100
693.300	-117.221	0.100
693.400	-116.023	0.100
693.500	-95.341	0.100
693.600	-98.888	0.100
693.700	-104.947	0.100
693.800	-103.021	0.100
693.900	-98.234	0.100
694.000	-90.091	0.100
694.100	-99.944	0.100
694.200	-90.578	0.100
694.300	-98.999	0.100
694.400	-94.236	0.100
694.500	-78.653	0.100
694.600	-95.723	0.100
694.700	-98.231	0.100
694.800	-88.208	0.100
694.900	-80.937	0.100
695.000	-90.701	0.100
695.100	-90.519	0.100
695.200	-67.422	0.100
695.300	-81.863	0.100
695.400	-95.997	0.100
695.500	-83.620	0.100
695.600	-75.920	0.100
695.700	-69.561	0.100
695.800	-82.028	0.100
695.900	-62.489	0.100
696.000	-75.530	0.100
696.100	-67.502	0.100
696.200	-83.025	0.100
696.300	-69.735	0.100
696.400	-85.224	0.100
696.500	-66.456	0.100
696.600	-68.944	0.100
696.700	-63.359	0.100
696.800	-65.205	0.100
696.900	-57.527	0.100
697.000	-78.010	0.100
697.100	-66.066	0.100
697.200	-66.507	0.100
697.300	-61.886	0.100
697.400	-64.056	0.100
697.500	-63.252	0.100
697.600	-65.696	0.100
697.700	-58.870	0.100
697.800	-61.741	0.100
697.900	-64.269	0.100
698.000	-61.457	0.100
698.100	-59.211	0.100
698.200	-61.680	0.100
698.300	-51.619	0.100
698.400	-61.338	0.100
698.500	-59.875	0.100
698.600	-61.704	0.100
698.700	-53.728	0.100
698.800	-65.697	0.100
698.900	-75.137	0.100
699.000	-60.064	0.100
699.100	-61.335	0.100
699.200	-57.853	0.100
699.300	-61.305	0.100
699.400	-60.279	0.100
699.500	-59.589	0.100
699.600	-43.559	0.100
699.700	-61.574	0.100
699.800	-61.339	0.100
699.900	-52.770	0.100
700.000	-68.923	0.100
700.100	-57.481	0.100
700.200	-73.500	0.100
700.300	-73.422	0.100
700.400	-41.548	0.100
700.500	-58.864	0.100
700.600	-62.002	0.100
700.700	-64.415	0.100
700.800	-57.738	0.100
700.900	-66.936	0.100
701.000	-46.284	0.100
701.100	-52.871	0.100
701.200	-50.442	0.100
701.300	-51.428	0.100
701.400	-65.600	0.100
701.500	-57.238	0.100
701.600	-63.005	0.100
701.700	-62.815	0.100
701.800	-50.231	0.100
701.900	-59.338	0.100
702.000	-58.262	0.100
702.100	-56.841	0.100
702.200	-58.555	0.100
702.300	-52.297	0.100
702.400	-53.940	0.100
702.500	-54.580	0.100
702.600	-65.325	0.100
702.700	-62.752	0.100
702.800	-38.676	0.100
702.900	-49.148	0.100
703.000	-63.188	0.100
703.100	-57.549	0.100
703.200	-61.475	0.100
703.300	-52.721	0.100
703.400	-55.727	0.100
703.500	-62.397	0.100
703.600	-60.092	0.100
703.700	-60.768	0.100
703.800	-63.638	0.100
703.900	-53.858	0.100
704.000	-51.470	0.100
704.100	-43.648	0.100
704.200	-55.647	0.100
704.300	-58.224	0.100
704.400	-61.868	0.100
704.500	-69.046	0.100
704.600	-50.012	0.100
704.700	-51.578	0.100
704.800	-66.246	0.100
704.900	-65.436	0.100
705.000	-66.728	0.100
705.100	-45.811	0.100
705.200	-63.162	0.100
705.300	-52.210	0.100
705.400	-52.085	0.100
705.500	-47.451	0.100
705.600	-50.489	0.100
705.700	-59.686	0.100
705.800	-50.745	0.100
705.900	-57.400	0.100
706.000	-48.231	0.100
706.100	-57.280	0.100
706.200	-60.665	0.100
706.300	-52.094	0.100
706.400	-46.115	0.100
706.500	-54.493	0.100
706.600	-51.570	0.100
706.700	-52.854	0.100
706.800	-57.906	0.100
706.900	-47.303	0.100
707.000	-59.882	0.100
707.100	-62.454	0.100
707.200	-41.869	0.100
707.300	-60.010	0.100
707.400	-54.609	0.100
707.500	-58.297	0.100
707.600	-58.221	0.100
707.700	-57.318	0.100
707.800	-56.360	0.100
707.900	-54.969	0.100
708.000	-54.409	0.100
708.100	-55.800	0.100
708.200	-50.975	0.100
708.300	-42.393	0.100
708.400	-50.822	0.100
708.500	-54.908	0.100
708.600	-53.430	0.100
708.700	-56.936	0.100
708.800	-55.034	0.100
708.900	-55.286	0.100
709.000	-56.052	0.100
709.100	-57.382	0.100
709.200	-44.231	0.100
709.300	-58.299	0.100
709.400	-50.549	0.100
709.500	-49.235	0.100
709.600	-43.206	0.100
709.700	-54.296	0.100
709.800	-56.134	0.100
709.900	-59.701	0.100
710.000	-53.992	0.100
710.100	-57.013	0.100
710.200	-35.677	0.100
710.300	-54.787	0.100
710.400	-55.921	0.100
710.500	-41.553	0.100
710.600	-46.152	0.100
710.700	-57.956	0.100
710.800	-65.145	0.100
710.900	-51.388	0.100
711.000	-33.668	0.100
711.100	-61.409	0.100
711.200	-63.304	0.100
711.300	-49.103	0.100
711.400	-42.853	0.100
711.500	-52.260	0.100
711.600	-61.132	0.100
711.700	-51.165	0.100
711.800	-41.915	0.100
711.900	-65.071	0.100
712.000	-56.551	0.100
712.100	-51.088	0.100
712.200	-43.449	0.100
712.300	-37.121	0.100
712.400	-39.986	0.100
712.500	-53.927	0.100
712.600	-51.092	0.100
712.700	-49.545	0.100
712.800	-47.358	0.100
712.900	-43.359	0.100
713.000	-51.561	0.100
713.100	-49.054	0.100
713.200	-50.406	0.100
713.300	-49.407	0.100
713.400	-54.001	0.100
713.500	-54.043	0.100
713.600	-56.272	0.100
713.700	-49.864	0.100
713.800	-62.955	0.100
713.900	-44.832	0.100
714.000	-47.397	0.100
714.100	-51.121	0.100
714.200	-61.071	0.100
714.300	-51.054	0.100
714.400	-56.074	0.100
714.500	-49.338	0.100
714.600	-44.450	0.100
714.700	-49.240	0.100
714.800	-43.924	0.100
714.900	-63.765	0.100
715.000	-57.609	0.100
715.100	-55.471	0.100
715.200	-51.797	0.100
715.300	-29.168	0.100
715.400	-52.510	0.100
715.500	-47.278	0.100
715.600	-61.595	0.100
715.700	-47.772	0.100
715.800	-52.310	0.100
715.900	-50.362	0.100
716.000	-42.788	0.100
716.100	-47.853	0.100
716.200	-51.021	0.100
716.300	-41.563	0.100
716.400	-51.985	0.100
716.500	-60.255	0.100
716.600	-45.364	0.100
716.700	-52.532	0.100
716.800	-42.460	0.100
716.900	-48.620	0.100
717.000	-46.222	0.100
717.100	-55.010	0.100
717.200	-47.859	0.100
717.300	-49.365	0.100
717.400	-36.472	0.100
717.500	-45.486	0.100
717.600	-43.565	0.100
717.700	-42.422	0.100
717.800	-43.942	0.100
717.900	-44.491	0.100
718.000	-50.235	0.100
718.100	-48.777	0.100
718.200	-49.258	0.100
718.300	-45.545	0.100
718.400	-49.705	0.100
718.500	-51.360	0.100
718.600	-59.782	0.100
718.700	-38.730	0.100
718.800	-38.079	0.100
718.900	-46.795	0.100
719.000	-47.684	0.100
719.100	-49.614	0.100
719.200	-40.047	0.100
719.300	-47.808	0.100
719.400	-41.162	0.100
719.500	-40.128	0.100
719.600	-45.373	0.100
719.700	-53.957	0.100
719.800	-52.414	0.100
719.900	-57.821	0.100
720.000	-41.638	0.100
720.100	-41.263	0.100
720.200	-40.585	0.100
720.300	-42.270	0.100
720.400	-56.933	0.100
720.500	-36.703	0.100
720.600	-52.221	0.100
720.700	-48.405	0.100
720.800	-38.985	0.100
720.900	-51.437	0.100
721.000	-54.296	0.100
721.100	-56.788	0.100
721.200	-37.726	0.100
721.300	-44.174	0.100
721.400	-45.362	0.100
721.500	-50.437	0.100
721.600	-46.620	0.100
721.700	-33.467	0.100
721.800	-44.961	0.100
721.900	-56.725	0.100
722.000	-38.473	0.100
722.100	-44.441	0.100
722.200	-44.742	0.100
722.300	-50.015	0.100
722.400	-47.697	0.100
722.500	-43.480	0.100
722.600	-52.915	0.100
722.700	-43.332	0.100
722.800	-47.250	0.100
722.900	-40.798	0.100
723.000	-46.676	0.100
723.100	-33.741	0.100
723.200	-44.343	0.100
723.300	-49.407	0.100
723.400	-47.168	0.100
723.500	-55.203	0.100
723.600	-44.027	0.100
723.700	-32.991	0.100
723.800	-47.015	0.100
723.900	-43.077	0.100
724.000	-39.514	0.100
724.100	-37.842	0.100
724.200	-33.826	0.100
724.300	-53.741	0.100
724.400	-47.625	0.100
724.500	-65.059	0.100
724.600	-36.876	0.100
724.700	-52.898	0.100
724.800	-42.343	0.100
724.900	-41.171	0.100
725.000	-48.434	0.100
725.100	-36.502	0.100
725.200	-43.123	0.100
725.300	-35.080	0.100
725.400	-40.442	0.100
725.500	-52.124	0.100
725.600	-39.534	0.100
725.700	-47.049	0.100
725.800	-42.451	0.100
725.900	-43.972	0.100
726.000	-43.335	0.100
726.100	-46.208	0.100
726.200	-44.539	0.100
726.300	-50.360	0.100
726.400	-34.561	0.100
726.500	-26.027	0.100
726.600	-43.812	0.100
726.700	-41.501	0.100
726.800	-45.800	0.100
726.900	-41.969	0.100
727.000	-47.602	0.100
727.100	-47.924	0.100
727.200	-40.138	0.100
727.300	-42.888	0.100
727.400	-44.937	0.100
727.500	-57.877	0.100
727.600	-41.105	0.100
727.700	-44.542	0.100
727.800	-29.195	0.100
727.900	-45.101	0.100
728.000	-41.734	0.100
728.100	-40.956	0.100
728.200	-47.329	0.100
728.300	-34.715	0.100
728.400	-37.019	0.100
728.500	-43.398	0.100
728.600	-46.812	0.100
728.700	-40.234	0.100
728.800	-40.234	0.100
728.900	-54.653	0.100
729.000	-50.319	0.100
729.100	-54.472	0.100
729.200	-36.643	0.100
729.300	-41.371	0.100
729.400	-43.055	0.100
729.500	-38.270	0.100
729.600	-34.670	0.100
729.700	-43.282	0.100
729.800	-48.617	0.100
729.900	-36.050	0.100
730.000	-34.621	0.100
730.100	-40.263	0.100
730.200	-37.830	0.100
730.300	-56.236	0.100
730.400	-49.055	0.100
730.500	-41.516	0.100
730.600	-34.938	0.100
730.700	-31.195	0.100
730.800	-28.706	0.100
730.900	-46.509	0.100
731.000	-42.067	0.100
731.100	-36.956	0.100
731.200	-37.965	0.100
731.300	-37.785	0.100
731.400	-48.785	0.100
731.500	-42.642	0.100
731.600	-42.512	0.100
731.700	-38.771	0.100
731.800	-38.300	0.100
731.900	-42.542	0.100
732.000	-50.053	0.100
732.100	-48.909	0.100
732.200	-43.568	0.100
732.300	-36.235	0.100
732.400	-31.086	0.100
732.500	-31.205	0.100
732.600	-40.790	0.100
732.700	-47.659	0.100
732.800	-46.194	0.100
732.900	-50.374	0.100
733.000	-35.158	0.100
733.100	-37.781	0.100
733.200	-32.867	0.100
733.300	-40.880	0.100
733.400	-44.694	0.100
733.500	-37.567	0.100
733.600	-45.229	0.100
733.700	-30.482	0.100
733.800	-23.545	0.100
733.900	-33.561	0.100
734.000	-48.586	0.100
734.100	-49.422	0.100
734.200	-49.555	0.100
734.300	-34.434	0.100
734.400	-34.396	0.100
734.500	-44.469	0.100
734.600	-34.968	0.100
734.700	-48.447	0.100
734.800	-35.722	0.100
734.900	-50.020	0.100
735.000	-31.048	0.100
735.100	-41.778	0.100
735.200	-45.106	0.100
735.300	-47.232	0.100
735.400	-28.626	0.100
735.500	-50.506	0.100
735.600	-36.964	0.100
735.700	-39.437	0.100
735.800	-33.968	0.100
735.900	-48.485	0.100
736.000	-41.417	0.100
736.100	-27.436	0.100
736.200	-38.390	0.100
736.300	-43.188	0.100
736.400	-43.263	0.100
736.500	-30.311	0.100
736.600	-30.345	0.100
736.700	-44.166	0.100
736.800	-39.449	0.100
736.900	-47.999	0.099
737.000	-29.379	0.099
737.100	-47.688	0.099
737.200	-43.374	0.099
737.300	-39.129	0.099
737.400	-37.142	0.099
737.500	-38.411	0.099
737.600	-50.198	0.099
737.700	-40.300	0.099
737.800	-36.309	0.099
737.900	-34.206	0.099
738.000	-39.062	0.099
738.100	-47.897	0.099
738.200	-29.724	0.099
738.300	-41.915	0.099
738.400	-24.091	0.099
738.500	-40.109	0.099
738.600	-35.735	0.099
738.700	-42.143	0.099
738.800	-35.664	0.099
738.900	-41.036	0.099
739.000	-39.281	0.099
739.100	-33.482	0.099
739.200	-46.157	0.099
739.300	-38.882	0.099
739.400	-40.337	0.099
739.500	-50.338	0.099
739.600	-45.988	0.099
739.700	-37.235	0.099
739.800	-47.042	0.099
739.900	-41.832	0.099
740.000	-28.598	0.099
740.100	-35.748	0.099
740.200	-38.332	0.099
740.300	-43.520	0.099
740.400	-40.308	0.099
740.500	-43.127	0.099
740.600	-43.648	0.099
740.700	-44.858	0.099
740.800	-24.031	0.099
740.900	-42.840	0.099
741.000	-37.117	0.099
741.100	-39.305	0.099
741.200	-40.575	0.099
741.300	-35.256	0.099
741.400	-29.338	0.099
741.500	-38.081	0.099
741.600	-37.658	0.099
741.700	-48.836	0.099
741.800	-25.429	0.099
741.900	-40.993	0.099
742.000	-43.955	0.099
742.100	-44.876	0.099
742.200	-37.776	0.099
742.300	-38.336	0.099
742.400	-31.240	0.099
742.500	-43.587	0.099
742.600	-42.481	0.099
742.700	-43.128	0.099
742.800	-21.815	0.099
742.900	-29.623	0.099
743.000	-46.642	0.099
743.100	-31.408	0.099
743.200	-40.325	0.099
743.300	-48.380	0.099
743.400	-43.213	0.099
743.500	-46.015	0.099
743.600	-24.371	0.099
743.700	-32.966	0.099
743.800	-33.712	0.099
743.900	-30.888	0.099
744.000	-31.721	0.099
744.100	-32.038	0.099
744.200	-43.965	0.099
744.300	-49.962	0.099
744.400	-41.052	0.099
744.500	-38.784	0.099
744.600	-42.519	0.099
744.700	-40.055	0.099
744.800	-41.372	0.099
744.900	-40.077	0.099
745.000	-39.754	0.099
745.100	-37.587	0.099
745.200	-50.317	0.099
745.300	-32.466	0.099
745.400	-36.203	0.099
745.500	-43.136	0.099
745.600	-48.297	0.099
745.700	-29.496	0.099
745.800	-24.119	0.099
745.900	-22.912	0.099
746.000	-27.413	0.099
746.100	-33.232	0.099
746.200	-48.688	0.099
746.300	-31.329	0.099
746.400	-44.004	0.099
746.500	-38.047	0.099
746.600	-23.470	0.099
746.700	-41.506	0.099
746.800	-26.810	0.099
746.900	-37.610	0.099
747.000	-41.934	0.099
747.100	-25.569	0.099
747.200	-43.067	0.099
747.300	-35.030	0.099
747.400	-34.538	0.099
747.500	-34.124	0.099
747.600	-46.174	0.099
747.700	-32.510	0.099
747.800	-31.221	0.099
747.900	-40.851	0.099
748.000	-33.373	0.099
748.100	-39.062	0.099
748.200	-35.495	0.099
748.300	-22.681	0.099
748.400	-43.745	0.099
748.500	-35.114	0.099
748.600	-36.447	0.099
748.700	-42.587	0.099
748.800	-29.480	0.099
748.900	-35.726	0.099
749.000	-32.742	0.099
749.100	-42.751	0.099
749.200	-39.330	0.099
749.300	-35.199	0.099
749.400	-32.662	0.099
749.500	-25.520	0.099
749.600	-27.552	0.099
749.700	-41.040	0.099
749.800	-39.852	0.099
749.900	-39.681	0.099
750.000	-34.963	0.099
750.100	-17.988	0.099
750.200	-32.550	0.099
750.300	-44.587	0.099
750.400	-40.051	0.099
750.500	-49.894	0.099
750.600	-24.719	0.099
750.700	-30.907	0.099
750.800	-39.151	0.099
750.900	-35.621	0.099
751.000	-44.248	0.099
751.100	-41.733	0.099
751.200	-27.139	0.099
751.300	-30.150	0.099
751.400	-26.797	0.099
751.500	-28.618	0.099
751.600	-28.497	0.099
751.700	-40.900	0.099
751.800	-35.674	0.099
751.900	-36.890	0.099
752.000	-38.008	0.099
752.100	-31.676	0.099
752.200	-28.431	0.099
752.300	-32.465	0.099
752.400	-39.323	0.099
752.500	-32.720	0.099
752.600	-39.141	0.099
752.700	-39.549	0.099
752.800	-40.234	0.099
752.900	-32.842	0.099
753.000	-19.387	0.099
753.100	-26.979	0.099
753.200	-28.223	0.099
753.300	-37.106	0.099
753.400	-39.421	0.099
753.500	-31.247	0.099
753.600	-30.736	0.099
753.700	-42.970	0.099
753.800	-18.704	0.099
753.900	-35.224	0.099
754.000	-32.498	0.099
754.100	-38.818	0.099
754.200	-34.984	0.099
754.300	-15.950	0.099
754.400	-29.445	0.099
754.500	-40.392	0.099
754.600	-37.410	0.099
754.700	-40.387	0.099
754.800	-28.237	0.099
754.900	-34.429	0.099
755.000	-30.634	0.099
755.100	-45.856	0.099
755.200	-39.142	0.099
755.300	-31.668	0.099
755.400	-31.294	0.099
755.500	-27.742	0.099
755.600	-30.222	0.099
755.700	-31.785	0.099
755.800	-30.917	0.099
755.900	-29.775	0.099
756.000	-27.710	0.099
756.100	-18.764	0.099
756.200	-34.550	0.099
756.300	-39.172	0.099
756.400	-26.209	0.099
756.500	-33.667	0.099
756.600	-30.450	0.100
756.700	-27.535	0.099
756.800	-51.290	0.099
756.900	-44.154	0.100
757.000	-24.965	0.100
757.100	-29.524	0.100
757.200	-26.783	0.100
757.300	-32.280	0.100
757.400	-34.236	0.100
757.500	-29.673	0.100
757.600	-29.196	0.100
757.700	-21.779	0.100
757.800	-27.134	0.100
757.900	-45.399	0.100
758.000	-25.063	0.100
758.100	-26.418	0.100
758.200	-25.064	0.100
758.300	-28.021	0.100
758.400	-30.064	0.100
758.500	-50.821	0.100
758.600	-23.282	0.100
758.700	-31.638	0.100
758.800	-36.978	0.100
758.900	-19.053	0.100
759.000	-48.375	0.100
759.100	-29.746	0.100
759.200	-25.497	0.100
759.300	-40.091	0.100
759.400	-32.907	0.099
759.500	-44.834	0.100
759.600	-22.441	0.100
759.700	-38.750	0.100
759.800	-38.351	0.100
759.900	-34.817	0.100
760.000	-19.115	0.100
760.100	-19.088	0.100
760.200	-43.404	0.100
760.300	-38.148	0.100
760.400	-39.560	0.100
760.500	-37.503	0.100
760.600	-31.043	0.100
760.700	-32.361	0.100
760.800	-37.785	0.100
760.900	-36.714	0.100
761.000	-36.114	0.100
761.100	-33.911	0.100
761.200	-21.614	0.100
761.300	-19.498	0.100
761.400	-33.813	0.100
761.500	-45.559	0.100
761.600	-21.296	0.100
761.700	-21.418	0.100
761.800	-37.376	0.100
761.900	-27.234	0.100
762.000	-38.546	0.100
762.100	-33.476	0.100
762.200	-22.775	0.100
762.300	-33.296	0.100
762.400	-20.631	0.100
762.500	-23.860	0.100
762.600	-18.947	0.100
762.700	-42.561	0.100
762.800	-25.014	0.100
762.900	-48.630	0.100
763.000	-24.073	0.100
763.100	-28.162	0.100
763.200	-28.716	0.100
763.300	-32.472	0.100
763.400	-25.398	0.100
763.500	-34.765	0.100
763.600	-36.555	0.100
763.700	-28.586	0.100
763.800	-30.712	0.100
763.900	-24.751	0.100
764.000	-34.209	0.100
764.100	-34.946	0.100
764.200	-24.522	0.100
764.300	-34.000	0.100
764.400	-31.774	0.100
764.500	-27.371	0.100
764.600	-40.593	0.100
764.700	-21.551	0.100
764.800	-22.451	0.100
764.900	-28.143	0.100
765.000	-36.832	0.099
765.100	-39.719	0.100
765.200	-23.000	0.100
765.300	-18.572	0.100
765.400	-26.582	0.100
765.500	-33.779	0.100
765.600	-39.914	0.100
765.700	-33.448	0.100
765.800	-35.068	0.100
765.900	-25.993	0.100
766.000	-22.977	0.100
766.100	-39.796	0.100
766.200	-24.168	0.100
766.300	-30.529	0.100
766.400	-26.920	0.100
766.500	-34.324	0.100
766.600	-22.051	0.100
766.700	-32.954	0.100
766.800	-29.931	0.100
766.900	-20.481	0.100
767.000	-24.628	0.100
767.100	-20.351	0.100
767.200	-43.418	0.100
767.300	-30.118	0.100
767.400	-24.622	0.100
767.500	-28.259	0.100
767.600	-26.721	0.100
767.700	-36.840	0.100
767.800	-30.927	0.100
767.900	-31.199	0.100
768.000	-25.749	0.100
768.100	-35.423	0.100
768.200	-37.122	0.100
768.300	-21.291	0.100
768.400	-33.837	0.100
768.500	-23.501	0.100
768.600	-30.630	0.100
768.700	-25.404	0.100
768.800	-38.314	0.100
768.900	-13.828	0.100
769.000	-25.636	0.100
769.100	-25.214	0.100
769.200	-43.750	0.100
769.300	-23.636	0.100
769.400	-33.586	0.100
769.500	-25.073	0.100
769.600	-28.954	0.100
769.700	-28.727	0.100
769.800	-35.815	0.100
769.900	-34.129	0.100
770.000	-23.351	0.100
770.100	-25.383	0.100
770.200	-37.690	0.100
770.300	-27.506	0.100
770.400	-43.458	0.100
770.500	-33.906	0.100
770.600	-37.508	0.100
770.700	-32.203	0.100
770.800	-22.570	0.100
770.900	-27.731	0.100
771.000	-33.551	0.100
771.100	-27.036	0.100
771.200	-30.185	0.100
771.300	-24.895	0.100
771.400	-45.520	0.100
771.500	-30.184	0.100
771.600	-22.403	0.100
771.700	-27.730	0.100
771.800	-18.884	0.100
771.900	-37.699	0.100
772.000	-29.508	0.100
772.100	-37.096	0.100
772.200	-19.584	0.100
772.300	-22.091	0.100
772.400	-32.779	0.100
772.500	-33.606	0.100
772.600	-36.138	0.100
772.700	-41.507	0.100
772.800	-30.058	0.100
772.900	-24.247	0.100
773.000	-26.799	0.100
773.100	-28.450	0.100
773.200	-32.450	0.100
773.300	-28.830	0.100
773.400	-30.219	0.100
773.500	-27.021	0.100
773.600	-25.843	0.100
773.700	-22.238	0.100
773.800	-24.538	0.100
773.900	-29.052	0.100
774.000	-23.049	0.100
774.100	-28.559	0.100
774.200	-29.440	0.100
774.300	-27.707	0.100
774.400	-34.752	0.100
774.500	-23.683	0.100
774.600	-27.997	0.100
774.700	-27.461	0.100
774.800	-31.876	0.100
774.900	-31.423	0.100
775.000	-36.407	0.100
775.100	-24.884	0.100
775.200	-28.858	0.100
775.300	-27.066	0.100
775.400	-24.526	0.100
775.500	-27.141	0.100
775.600	-29.755	0.100
775.700	-32.233	0.100
775.800	-28.560	0.100
775.900	-36.468	0.100
776.000	-29.127	0.100
776.100	-27.149	0.100
776.200	-30.147	0.100
776.300	-32.135	0.100
776.400	-33.678	0.100
776.500	-30.241	0.100
776.600	-27.246	0.100
776.700	-25.881	0.100
776.800	-31.002	0.100
776.900	-33.912	0.100
777.000	-33.054	0.100
777.100	-23.918	0.100
777.200	-15.255	0.100
777.300	-25.356	0.100
777.400	-24.235	0.100
777.500	-25.670	0.100
777.600	-17.558	0.100
777.700	-33.776	0.100
777.800	-34.803	0.100
777.900	-30.975	0.100
778.000	-36.122	0.100
778.100	-24.364	0.100
778.200	-21.593	0.100
778.300	-22.389	0.100
778.400	-18.829	0.100
778.500	-23.116	0.100
778.600	-29.042	0.100
778.700	-26.669	0.100
778.800	-21.079	0.100
778.900	-31.907	0.100
779.000	-40.375	0.100
779.100	-32.953	0.100
779.200	-28.982	0.100
779.300	-18.935	0.100
779.400	-26.191	0.100
779.500	-24.256	0.100
779.600	-33.017	0.100
779.700	-36.541	0.100
779.800	-29.513	0.100
779.900	-19.444	0.100
780.000	-26.033	0.100
780.100	-26.110	0.100
780.200	-17.238	0.100
780.300	3.647	0.100
780.400	10.014	0.100
780.500	38.328	0.100
780.600	50.448	0.100
780.700	53.450	0.100
780.800	49.847	0.100
780.900	64.537	0.100
781.000	64.444	0.100
781.100	63.440	0.100
781.200	69.977	0.100
781.300	69.799	0.100
781.400	61.621	0.100
781.500	65.388	0.100
781.600	63.790	0.100
781.700	65.533	0.100
781.800	46.684	0.100
781.900	65.861	0.100
782.000	64.453	0.100
782.100	50.943	0.100
782.200	60.073	0.100
782.300	65.538	0.100
782.400	55.859	0.100
782.500	62.495	0.100
782.600	56.500	0.100
782.700	48.028	0.100
782.800	48.486	0.100
782.900	59.232	0.100
783.000	66.078	0.100
783.100	37.445	0.100
783.200	41.946	0.100
783.300	30.774	0.100
783.400	49.784	0.100
783.500	40.093	0.100
783.600	48.747	0.100
783.700	34.540	0.100
783.800	43.236	0.100
783.900	43.372	0.100
784.000	43.917	0.100
784.100	45.134	0.100
784.200	43.809	0.100
784.300	48.702	0.100
784.400	35.359	0.100
784.500	35.455	0.100
784.600	52.160	0.100
784.700	44.258	0.100
784.800	35.558	0.100
784.900	44.192	0.100
785.000	42.635	0.100
785.100	49.679	0.100
785.200	55.575	0.100
785.300	55.756	0.100
785.400	57.390	0.100
785.500	57.439	0.100
785.600	63.319	0.100
785.700	54.084	0.100
785.800	61.868	0.100
785.900	62.856	0.100
786.000	63.900	0.100
786.100	55.698	0.100
786.200	68.685	0.100
786.300	72.089	0.100
786.400	74.644	0.100
786.500	76.812	0.100
786.600	64.922	0.100
786.700	73.622	0.100
786.800	65.200	0.100
786.900	83.115	0.100
787.000	71.059	0.100
787.100	65.692	0.100
787.200	86.467	0.100
787.300	67.992	0.100
787.400	62.612	0.100
787.500	81.600	0.100
787.600	72.239	0.100
787.700	83.923	0.100
787.800	82.837	0.100
787.900	83.177	0.100
788.000	81.383	0.100
788.100	86.523	0.100
788.200	90.321	0.100
788.300	84.163	0.100
788.400	80.988	0.100
788.500	88.001	0.100
788.600	89.792	0.100
788.700	88.930	0.100
788.800	90.587	0.100
788.900	91.282	0.100
789.000	108.619	0.100
789.100	87.840	0.100
789.200	87.346	0.100
789.300	79.177	0.100
789.400	86.483	0.100
789.500	88.250	0.100
789.600	95.005	0.100
789.700	81.203	0.100
789.800	80.822	0.100
789.900	91.716	0.100
790.000	91.614	0.100
790.100	87.823	0.100
790.200	73.549	0.100
790.300	81.736	0.100
790.400	97.232	0.100
790.500	95.363	0.100
790.600	94.568	0.100
790.700	92.813	0.100
790.800	84.053	0.100
790.900	83.552	0.100
791.000	88.452	0.100
791.100	79.911	0.100
791.200	98.136	0.100
791.300	97.679	0.100
791.400	105.462	0.100
791.500	85.019	0.100
791.600	88.510	0.100
791.700	90.059	0.100
791.800	88.037	0.100
791.900	90.778	0.100
792.000	95.993	0.100
792.100	85.527	0.100
792.200	91.476	0.100
792.300	86.498	0.100
792.400	94.818	0.100
792.500	89.021	0.100
792.600	75.504	0.100
792.700	87.063	0.100
792.800	89.191	0.100
792.900	84.650	0.100
793.000	86.275	0.100
793.100	89.556	0.100
793.200	85.223	0.100
793.300	90.261	0.100
793.400	83.517	0.100
793.500	87.749	0.100
793.600	85.788	0.100
793.700	95.108	0.100
793.800	94.538	0.100
793.900	82.735	0.100
794.000	84.380	0.100
794.100	96.350	0.100
794.200	88.756	0.100
794.300	76.333	0.100
794.400	81.468	0.100
794.500	87.125	0.100
794.600	93.130	0.100
794.700	70.015	0.100
794.800	95.446	0.100
794.900	83.603	0.100
795.000	81.450	0.100
795.100	85.001	0.100
795.200	84.472	0.100
795.300	77.010	0.100
795.400	80.113	0.100
795.500	73.833	0.100
795.600	94.323	0.100
795.700	90.357	0.100
795.800	79.857	0.100
795.900	85.428	0.100
796.000	75.691	0.100
796.100	85.302	0.100
796.200	76.789	0.100
796.300	82.540	0.100
796.400	96.681	0.100
796.500	70.473	0.100
796.600	81.345	0.100
796.700	78.299	0.100
796.800	87.134	0.100
796.900	87.631	0.100
797.000	82.340	0.100
797.100	92.431	0.100
797.200	81.008	0.100
797.300	80.384	0.100
797.400	82.865	0.100
797.500	86.850	0.100
797.600	70.184	0.100
797.700	86.532	0.100
797.800	69.004	0.100
797.900	77.260	0.100
798.000	91.304	0.100
798.100	91.741	0.100
798.200	74.985	0.100
798.300	79.778	0.100
798.400	81.679	0.100
798.500	82.410	0.100
798.600	74.126	0.100
798.700	91.406	0.100
798.800	86.519	0.100
798.900	94.372	0.100
799.000	81.975	0.100
799.100	80.635	0.100
799.200	85.946	0.100
799.300	75.787	0.100
799.400	78.624	0.100
799.500	62.412	0.100
799.600	65.449	0.100
799.700	90.967	0.100
799.800	85.630	0.100
799.900	83.764	0.100
800.000	77.062	0.100
