time /s	I /nA	E /V
0.100	-24.583	0.100
0.200	-26.031	0.100
0.300	-11.579	0.100
0.400	-35.537	0.100
0.500	-31.211	0.100
0.600	-17.176	0.100
0.700	-31.770	0.100
0.800	-16.684	0.100
0.900	-14.739	0.100
1.000	-13.628	0.100
1.100	-27.260	0.100
1.200	-24.077	0.100
1.300	-22.812	0.100
1.400	-40.287	0.100
1.500	-18.430	0.100
1.600	-24.788	0.100
1.700	-35.491	0.100
1.800	-21.578	0.100
1.900	-11.901	0.100
2.000	-26.986	0.100
2.100	-24.515	0.100
2.200	-22.407	0.100
2.300	-16.316	0.100
2.400	-28.206	0.100
2.500	-21.889	0.100
2.600	-20.766	0.100
2.700	-32.330	0.100
2.800	-35.257	0.100
2.900	-17.836	0.100
3.000	-19.170	0.100
3.100	-16.247	0.100
3.200	-17.652	0.100
3.300	-15.737	0.100
3.400	-31.700	0.100
3.500	-29.226	0.100
3.600	-19.906	0.100
3.700	-20.864	0.100
3.800	-20.150	0.100
3.900	-33.760	0.100
4.000	-19.736	0.100
4.100	-26.705	0.100
4.200	-10.566	0.100
4.300	-18.354	0.100
4.400	-33.476	0.100
4.500	-17.683	0.100
4.600	-39.360	0.100
4.700	-28.592	0.100
4.800	-29.511	0.100
4.900	-11.853	0.100
5.000	-24.288	0.100
5.100	-14.593	0.100
5.200	-25.742	0.100
5.300	-27.108	0.100
5.400	-22.360	0.100
5.500	-20.954	0.100
5.600	-27.941	0.100
5.700	-23.946	0.100
5.800	-22.662	0.100
5.900	-18.392	0.100
6.000	-12.345	0.100
6.100	-17.671	0.100
6.200	-17.796	0.100
6.300	-25.847	0.100
6.400	-18.272	0.100
6.500	-27.532	0.100
6.600	-23.432	0.100
6.700	-24.363	0.100
6.800	-26.316	0.100
6.900	-31.112	0.100
7.000	-35.915	0.100
7.100	-25.009	0.100
7.200	-27.043	0.100
7.300	-17.994	0.100
7.400	-29.686	0.100
7.500	-23.304	0.100
7.600	-20.083	0.100
7.700	-14.563	0.100
7.800	-14.573	0.100
7.900	-27.268	0.100
8.000	-21.515	0.100
8.100	-27.017	0.100
8.200	-29.849	0.100
8.300	-21.240	0.100
8.400	-27.366	0.100
8.500	-22.717	0.100
8.600	-18.188	0.100
8.700	-33.102	0.100
8.800	-24.954	0.100
8.900	-28.359	0.100
9.000	-21.287	0.100
9.100	-21.119	0.100
9.200	-30.505	0.100
9.300	-26.079	0.100
9.400	-12.317	0.100
9.500	-18.134	0.100
9.600	-31.680	0.100
9.700	-16.551	0.100
9.800	-20.400	0.100
9.900	-14.585	0.100
10.000	-33.483	0.100
10.100	-28.211	0.100
10.200	-28.622	0.100
10.300	-19.419	0.100
10.400	-24.827	0.100
10.500	-24.437	0.100
10.600	-15.294	0.100
10.700	-19.388	0.100
10.800	-13.389	0.100
10.900	-27.447	0.100
11.000	-24.964	0.100
11.100	-30.964	0.100
11.200	-13.164	0.100
11.300	-8.775	0.100
11.400	-19.332	0.100
11.500	-23.778	0.100
11.600	-25.732	0.100
11.700	-29.940	0.100
11.800	-23.363	0.100
11.900	-4.578	0.100
12.000	-26.836	0.100
12.100	-23.391	0.100
12.200	-23.405	0.100
12.300	-15.338	0.100
12.400	-24.611	0.100
12.500	-10.665	0.100
12.600	-17.057	0.100
12.700	-24.184	0.100
12.800	-25.780	0.100
12.900	-21.199	0.100
13.000	-14.179	0.100
13.100	-18.809	0.100
13.200	-20.181	0.100
13.300	-29.193	0.100
13.400	-22.287	0.100
13.500	-22.420	0.100
13.600	-22.828	0.100
13.700	-29.429	0.100
13.800	-10.665	0.100
13.900	-23.214	0.100
14.000	-30.878	0.100
14.100	-19.429	0.100
14.200	-18.070	0.100
14.300	-25.435	0.100
14.400	-22.468	0.100
14.500	-26.528	0.100
14.600	-19.894	0.100
14.700	-20.084	0.100
14.800	-13.940	0.100
14.900	-19.883	0.100
15.000	-34.728	0.100
15.100	-31.208	0.100
15.200	-28.808	0.100
15.300	-18.605	0.100
15.400	-18.048	0.100
15.500	-22.396	0.100
15.600	-31.697	0.100
15.700	-19.076	0.100
15.800	-24.877	0.100
15.900	-23.243	0.100
16.000	-24.755	0.100
16.100	-20.654	0.100
16.200	-32.385	0.100
16.300	-28.756	0.100
16.400	-19.484	0.100
16.500	-17.452	0.100
16.600	-15.878	0.100
16.700	-14.584	0.100
16.800	-15.219	0.100
16.900	-31.790	0.100
17.000	-22.295	0.100
17.100	-13.718	0.100
17.200	-14.099	0.100
17.300	-18.563	0.100
17.400	-32.278	0.100
17.500	-25.442	0.100
17.600	-26.883	0.100
17.700	-23.117	0.100
17.800	-21.176	0.100
17.900	-21.483	0.100
18.000	-25.429	0.100
18.100	-32.550	0.100
18.200	-21.019	0.100
18.300	-19.229	0.100
18.400	-31.933	0.100
18.500	-14.058	0.100
18.600	-28.946	0.100
18.700	-25.689	0.100
18.800	-29.909	0.100
18.900	-16.079	0.100
19.000	-15.796	0.100
19.100	-23.868	0.100
19.200	-28.574	0.100
19.300	-26.953	0.100
19.400	-24.953	0.100
19.500	-18.246	0.100
19.600	-25.644	0.100
19.700	-28.605	0.100
19.800	-35.170	0.100
19.900	-23.592	0.100
20.000	-21.653	0.100
20.100	-12.507	0.100
20.200	-20.050	0.100
20.300	-23.259	0.100
20.400	-29.788	0.100
20.500	-25.437	0.100
20.600	-23.553	0.100
20.700	-22.414	0.100
20.800	-20.802	0.100
20.900	-26.925	0.100
21.000	-16.993	0.100
21.100	-18.358	0.100
21.200	-10.856	0.100
21.300	-21.204	0.100
21.400	-15.826	0.100
21.500	-36.667	0.100
21.600	-41.102	0.100
21.700	-19.333	0.100
21.800	-34.584	0.100
21.900	-25.464	0.100
22.000	-24.643	0.100
22.100	-16.462	0.100
22.200	-23.173	0.100
22.300	-21.134	0.100
22.400	-26.410	0.100
22.500	-21.016	0.100
22.600	-25.813	0.100
22.700	-27.442	0.100
22.800	-19.020	0.100
22.900	-28.081	0.100
23.000	-19.378	0.100
23.100	-16.021	0.100
23.200	-28.925	0.100
23.300	-17.113	0.100
23.400	-31.717	0.100
23.500	-17.937	0.100
23.600	-17.629	0.100
23.700	-17.513	0.100
23.800	-37.343	0.100
23.900	-15.326	0.100
24.000	-30.638	0.100
24.100	-25.710	0.100
24.200	-22.702	0.100
24.300	-11.231	0.100
24.400	-25.216	0.100
24.500	-24.082	0.100
24.600	-26.191	0.100
24.700	-28.358	0.100
24.800	-23.318	0.100
24.900	-29.009	0.100
25.000	-26.993	0.100
25.100	-36.104	0.100
25.200	-26.131	0.100
25.300	-7.176	0.100
25.400	-3.874	0.100
25.500	-22.107	0.100
25.600	-26.305	0.100
25.700	-23.901	0.100
25.800	-36.381	0.100
25.900	-17.455	0.100
26.000	-16.311	0.100
26.100	-18.615	0.100
26.200	-9.969	0.100
26.300	-23.181	0.100
26.400	-27.643	0.100
26.500	-20.745	0.100
26.600	-12.911	0.100
26.700	-16.962	0.100
26.800	-27.590	0.100
26.900	-22.826	0.100
27.000	-34.041	0.100
27.100	-25.622	0.100
27.200	-16.506	0.100
27.300	-26.358	0.100
27.400	-21.669	0.100
27.500	-25.839	0.100
27.600	-13.321	0.100
27.700	-14.370	0.100
27.800	-37.779	0.100
27.900	-14.384	0.100
28.000	-20.847	0.100
28.100	-17.481	0.100
28.200	-12.972	0.100
28.300	-8.507	0.100
28.400	-13.041	0.100
28.500	-31.848	0.100
28.600	-31.647	0.100
28.700	-11.424	0.100
28.800	-19.209	0.100
28.900	-8.499	0.100
29.000	-6.998	0.100
29.100	-25.287	0.100
29.200	-31.601	0.100
29.300	-20.730	0.100
29.400	-18.938	0.100
29.500	-13.738	0.100
29.600	-30.246	0.100
29.700	-32.281	0.100
29.800	-18.658	0.100
29.900	-17.167	0.100
30.000	2.964	0.100
30.100	3.344	0.100
30.200	7.870	0.100
30.300	-6.384	0.100
30.400	-0.640	0.100
30.500	1.444	0.100
30.600	12.927	0.100
30.700	6.374	0.100
30.800	13.015	0.100
30.900	17.948	0.100
31.000	-0.328	0.100
31.100	19.523	0.100
31.200	-1.557	0.100
31.300	22.225	0.100
31.400	10.479	0.100
31.500	13.288	0.100
31.600	9.548	0.100
31.700	3.588	0.100
31.800	20.493	0.100
31.900	19.700	0.100
32.000	5.460	0.100
32.100	7.873	0.100
32.200	20.659	0.100
32.300	12.508	0.100
32.400	17.555	0.100
32.500	4.105	0.100
32.600	12.769	0.100
32.700	3.228	0.100
32.800	4.235	0.100
32.900	10.529	0.100
33.000	-6.196	0.100
33.100	2.193	0.100
33.200	17.103	0.100
33.300	6.409	0.100
33.400	13.821	0.100
33.500	-1.338	0.100
33.600	11.606	0.100
33.700	-6.789	0.100
33.800	6.096	0.100
33.900	5.725	0.100
34.000	3.936	0.100
34.100	18.935	0.100
34.200	5.921	0.100
34.300	1.237	0.100
34.400	-4.205	0.100
34.500	7.606	0.100
34.600	1.886	0.100
34.700	7.088	0.100
34.800	3.086	0.100
34.900	4.920	0.100
35.000	-8.464	0.100
35.100	2.295	0.100
35.200	11.341	0.100
35.300	11.374	0.100
35.400	1.569	0.100
35.500	3.229	0.100
35.600	-5.494	0.100
35.700	9.211	0.100
35.800	-10.489	0.100
35.900	11.406	0.100
36.000	4.328	0.100
36.100	-1.001	0.100
36.200	-7.203	0.100
36.300	11.311	0.100
36.400	11.413	0.100
36.500	5.349	0.100
36.600	9.236	0.100
36.700	-3.436	0.100
36.800	6.549	0.100
36.900	2.696	0.100
37.000	8.046	0.100
37.100	9.083	0.100
37.200	-0.216	0.100
37.300	-5.893	0.100
37.400	-0.052	0.100
37.500	0.139	0.100
37.600	11.172	0.100
37.700	8.654	0.100
37.800	27.639	0.100
37.900	14.608	0.100
38.000	-5.085	0.100
38.100	3.632	0.100
38.200	3.511	0.100
38.300	3.822	0.100
38.400	5.675	0.100
38.500	-0.155	0.100
38.600	17.940	0.100
38.700	10.298	0.100
38.800	-0.270	0.100
38.900	11.842	0.100
39.000	26.904	0.100
39.100	-0.559	0.100
39.200	14.803	0.100
39.300	7.236	0.100
39.400	8.100	0.100
39.500	17.487	0.100
39.600	14.070	0.100
39.700	6.464	0.100
39.800	10.242	0.100
39.900	11.716	0.100
40.000	9.919	0.100
40.100	1.031	0.100
40.200	19.045	0.100
40.300	21.756	0.100
40.400	7.290	0.100
40.500	17.757	0.100
40.600	18.587	0.100
40.700	19.998	0.100
40.800	10.803	0.100
40.900	5.897	0.100
41.000	18.049	0.100
41.100	25.589	0.100
41.200	14.416	0.100
41.300	16.261	0.100
41.400	12.916	0.100
41.500	12.825	0.100
41.600	10.101	0.100
41.700	15.928	0.100
41.800	24.715	0.100
41.900	8.286	0.100
42.000	17.588	0.100
42.100	14.050	0.100
42.200	18.505	0.100
42.300	15.552	0.100
42.400	4.199	0.100
42.500	22.381	0.100
42.600	19.644	0.100
42.700	10.585	0.100
42.800	8.866	0.100
42.900	19.928	0.100
43.000	20.552	0.100
43.100	33.392	0.100
43.200	10.002	0.100
43.300	19.153	0.100
43.400	9.157	0.100
43.500	20.183	0.100
43.600	18.351	0.100
43.700	23.623	0.100
43.800	23.368	0.100
43.900	21.987	0.100
44.000	19.999	0.100
44.100	23.562	0.100
44.200	30.486	0.100
44.300	9.263	0.100
44.400	12.001	0.100
44.500	13.018	0.100
44.600	17.384	0.100
44.700	38.558	0.100
44.800	17.649	0.100
44.900	26.834	0.100
45.000	23.843	0.100
45.100	13.324	0.100
45.200	23.894	0.100
45.300	37.544	0.100
45.400	24.098	0.100
45.500	17.052	0.100
45.600	13.114	0.100
45.700	16.351	0.100
45.800	25.885	0.100
45.900	33.556	0.100
46.000	28.160	0.100
46.100	20.617	0.100
46.200	31.161	0.100
46.300	27.416	0.100
46.400	26.866	0.100
46.500	36.741	0.100
46.600	24.154	0.100
46.700	32.375	0.100
46.800	31.671	0.100
46.900	20.116	0.100
47.000	30.524	0.100
47.100	25.932	0.100
47.200	33.355	0.100
47.300	27.714	0.100
47.400	32.793	0.100
47.500	28.600	0.100
47.600	21.367	0.100
47.700	43.365	0.100
47.800	20.796	0.100
47.900	21.432	0.100
48.000	13.072	0.100
48.100	30.726	0.100
48.200	33.505	0.100
48.300	30.241	0.100
48.400	20.249	0.100
48.500	38.809	0.100
48.600	26.100	0.100
48.700	39.438	0.100
48.800	22.514	0.100
48.900	35.072	0.100
49.000	27.365	0.100
49.100	34.252	0.100
49.200	23.127	0.100
49.300	33.639	0.100
49.400	21.660	0.100
49.500	33.254	0.100
49.600	33.100	0.100
49.700	28.447	0.100
49.800	42.991	0.100
49.900	38.512	0.100
50.000	37.875	0.100
50.100	32.019	0.100
50.200	24.959	0.100
50.300	37.985	0.100
50.400	39.962	0.100
50.500	42.264	0.100
50.600	43.567	0.100
50.700	34.760	0.100
50.800	33.436	0.100
50.900	21.907	0.100
51.000	34.803	0.100
51.100	39.226	0.100
51.200	42.392	0.100
51.300	45.726	0.100
51.400	36.653	0.100
51.500	34.521	0.100
51.600	42.175	0.100
51.700	41.359	0.100
51.800	41.257	0.100
51.900	28.587	0.100
52.000	31.698	0.100
52.100	31.860	0.100
52.200	45.754	0.100
52.300	46.206	0.100
52.400	42.405	0.100
52.500	35.942	0.100
52.600	34.257	0.100
52.700	30.001	0.100
52.800	48.227	0.100
52.900	36.063	0.100
53.000	37.659	0.100
53.100	48.254	0.100
53.200	38.098	0.100
53.300	24.804	0.100
53.400	44.653	0.100
53.500	48.133	0.100
53.600	45.655	0.100
53.700	46.990	0.100
53.800	30.016	0.100
53.900	46.312	0.100
54.000	53.898	0.100
54.100	45.534	0.100
54.200	40.583	0.100
54.300	54.806	0.100
54.400	36.966	0.100
54.500	32.968	0.100
54.600	37.747	0.100
54.700	53.635	0.100
54.800	38.383	0.100
54.900	41.914	0.100
55.000	42.543	0.100
55.100	44.772	0.100
55.200	45.535	0.100
55.300	44.502	0.100
55.400	42.307	0.100
55.500	36.001	0.100
55.600	47.419	0.100
55.700	38.761	0.100
55.800	50.305	0.100
55.900	44.547	0.100
56.000	48.145	0.100
56.100	40.127	0.100
56.200	52.038	0.100
56.300	42.784	0.100
56.400	42.834	0.100
56.500	38.906	0.100
56.600	57.480	0.100
56.700	31.451	0.100
56.800	32.823	0.100
56.900	52.443	0.100
57.000	38.454	0.100
57.100	32.841	0.100
57.200	43.931	0.100
57.300	54.379	0.100
57.400	49.235	0.100
57.500	42.298	0.100
57.600	49.445	0.100
57.700	43.033	0.100
57.800	41.154	0.100
57.900	44.132	0.100
58.000	39.414	0.100
58.100	59.664	0.100
58.200	55.767	0.100
58.300	45.660	0.100
58.400	36.823	0.100
58.500	39.169	0.100
58.600	45.890	0.100
58.700	51.731	0.100
58.800	61.053	0.100
58.900	41.233	0.100
59.000	40.369	0.100
59.100	53.642	0.100
59.200	37.732	0.100
59.300	47.811	0.100
59.400	49.778	0.100
59.500	45.356	0.100
59.600	33.159	0.100
59.700	31.169	0.100
59.800	40.328	0.100
59.900	38.190	0.100
60.000	37.744	0.100
60.100	46.003	0.100
60.200	44.204	0.100
60.300	48.453	0.100
60.400	53.025	0.100
60.500	45.297	0.100
60.600	51.112	0.100
60.700	46.518	0.100
60.800	40.211	0.100
60.900	35.992	0.100
61.000	49.341	0.100
61.100	49.138	0.100
61.200	56.452	0.100
61.300	38.289	0.100
61.400	47.333	0.100
61.500	40.487	0.100
61.600	44.059	0.100
61.700	46.513	0.100
61.800	43.655	0.100
61.900	54.251	0.100
62.000	46.924	0.100
62.100	35.512	0.100
62.200	64.080	0.100
62.300	45.154	0.100
62.400	57.290	0.100
62.500	33.503	0.100
62.600	53.550	0.100
62.700	49.445	0.100
62.800	51.754	0.100
62.900	43.986	0.100
63.000	57.318	0.100
63.100	42.896	0.100
63.200	33.159	0.100
63.300	56.007	0.100
63.400	50.129	0.100
63.500	43.925	0.100
63.600	43.982	0.100
63.700	50.402	0.100
63.800	40.748	0.100
63.900	41.643	0.100
64.000	49.411	0.100
64.100	34.103	0.100
64.200	51.018	0.100
64.300	51.366	0.100
64.400	48.147	0.100
64.500	44.766	0.100
64.600	39.694	0.100
64.700	45.012	0.100
64.800	36.399	0.100
64.900	41.862	0.100
65.000	33.497	0.100
65.100	46.407	0.100
65.200	30.690	0.100
65.300	52.864	0.100
65.400	42.357	0.100
65.500	42.241	0.100
65.600	50.160	0.100
65.700	33.996	0.100
65.800	54.346	0.100
65.900	47.395	0.100
66.000	40.579	0.100
66.100	29.223	0.100
66.200	41.124	0.100
66.300	50.382	0.100
66.400	44.541	0.100
66.500	53.443	0.100
66.600	40.748	0.100
66.700	38.480	0.100
66.800	38.620	0.100
66.900	41.012	0.100
67.000	37.919	0.100
67.100	65.711	0.100
67.200	38.153	0.100
67.300	35.392	0.100
67.400	33.316	0.100
67.500	39.201	0.100
67.600	40.411	0.100
67.700	42.116	0.100
67.800	34.992	0.100
67.900	43.772	0.100
68.000	47.263	0.100
68.100	56.355	0.100
68.200	49.342	0.100
68.300	44.846	0.100
68.400	40.463	0.100
68.500	45.510	0.100
68.600	37.244	0.100
68.700	56.027	0.100
68.800	43.116	0.100
68.900	40.377	0.100
69.000	34.504	0.100
69.100	42.215	0.100
69.200	51.233	0.100
69.300	52.759	0.100
69.400	56.432	0.100
69.500	24.449	0.100
69.600	34.939	0.100
69.700	36.397	0.100
69.800	42.255	0.100
69.900	44.019	0.100
70.000	55.143	0.100
70.100	51.457	0.100
70.200	34.926	0.100
70.300	34.146	0.100
70.400	44.748	0.100
70.500	38.329	0.100
70.600	45.873	0.100
70.700	38.505	0.100
70.800	38.242	0.100
70.900	36.366	0.100
71.000	44.585	0.100
71.100	47.176	0.100
71.200	39.957	0.100
71.300	50.226	0.100
71.400	32.018	0.100
71.500	44.910	0.100
71.600	32.373	0.100
71.700	46.532	0.100
71.800	42.532	0.100
71.900	37.538	0.100
72.000	46.440	0.100
72.100	47.379	0.100
72.200	39.909	0.100
72.300	50.070	0.100
72.400	35.216	0.100
72.500	33.738	0.100
72.600	42.505	0.100
72.700	41.341	0.100
72.800	50.832	0.100
72.900	50.437	0.100
73.000	20.244	0.100
73.100	40.814	0.100
73.200	36.311	0.100
73.300	34.119	0.100
73.400	49.251	0.100
73.500	31.127	0.100
73.600	32.422	0.100
73.700	49.096	0.100
73.800	50.808	0.100
73.900	47.104	0.100
74.000	41.364	0.100
74.100	49.537	0.100
74.200	40.785	0.100
74.300	19.513	0.100
74.400	40.580	0.100
74.500	34.797	0.100
74.600	56.834	0.100
74.700	42.518	0.100
74.800	43.786	0.100
74.900	39.574	0.100
75.000	45.418	0.100
75.100	29.660	0.100
75.200	30.061	0.100
75.300	44.954	0.100
75.400	49.682	0.100
75.500	33.555	0.100
75.600	43.008	0.100
75.700	33.405	0.100
75.800	42.101	0.100
75.900	43.889	0.100
76.000	39.297	0.100
76.100	34.573	0.100
76.200	42.728	0.100
76.300	40.368	0.100
76.400	38.012	0.100
76.500	42.465	0.100
76.600	43.201	0.100
76.700	31.033	0.100
76.800	45.868	0.100
76.900	51.559	0.100
77.000	39.252	0.100
77.100	38.667	0.100
77.200	35.705	0.100
77.300	40.415	0.100
77.400	37.497	0.100
77.500	37.570	0.100
77.600	48.762	0.100
77.700	41.427	0.100
77.800	35.754	0.100
77.900	40.644	0.100
78.000	40.706	0.100
78.100	49.132	0.100
78.200	28.298	0.100
78.300	48.156	0.100
78.400	36.871	0.100
78.500	35.691	0.100
78.600	48.072	0.100
78.700	49.909	0.100
78.800	51.202	0.100
78.900	45.270	0.100
79.000	34.593	0.100
79.100	44.883	0.100
79.200	37.051	0.100
79.300	31.974	0.100
79.400	44.990	0.100
79.500	33.813	0.100
79.600	47.589	0.100
79.700	41.457	0.100
79.800	44.794	0.100
79.900	33.322	0.100
80.000	46.951	0.100
80.100	41.332	0.100
80.200	37.073	0.100
80.300	39.594	0.100
80.400	43.347	0.100
80.500	35.947	0.100
80.600	42.641	0.100
80.700	25.260	0.100
80.800	32.387	0.100
80.900	39.812	0.100
81.000	45.417	0.100
81.100	38.387	0.100
81.200	55.361	0.100
81.300	39.626	0.100
81.400	32.174	0.100
81.500	21.617	0.100
81.600	49.120	0.100
81.700	44.971	0.100
81.800	42.528	0.100
81.900	38.280	0.100
82.000	28.433	0.100
82.100	27.935	0.100
82.200	35.657	0.100
82.300	37.930	0.100
82.400	48.726	0.100
82.500	48.316	0.100
82.600	43.773	0.100
82.700	41.166	0.100
82.800	38.695	0.100
82.900	40.496	0.100
83.000	37.241	0.100
83.100	43.241	0.100
83.200	39.493	0.100
83.300	41.927	0.100
83.400	46.206	0.100
83.500	43.964	0.100
83.600	38.898	0.100
83.700	41.728	0.100
83.800	38.217	0.100
83.900	28.208	0.100
84.000	43.811	0.100
84.100	39.852	0.100
84.200	36.979	0.100
84.300	41.444	0.100
84.400	42.341	0.100
84.500	35.917	0.100
84.600	48.854	0.100
84.700	40.005	0.100
84.800	39.670	0.100
84.900	39.120	0.100
85.000	28.095	0.100
85.100	40.460	0.100
85.200	50.928	0.100
85.300	37.819	0.100
85.400	33.284	0.100
85.500	44.324	0.100
85.600	40.006	0.100
85.700	37.165	0.100
85.800	39.718	0.100
85.900	55.181	0.100
86.000	37.668	0.100
86.100	29.543	0.100
86.200	36.981	0.100
86.300	29.905	0.100
86.400	40.960	0.100
86.500	35.637	0.100
86.600	45.385	0.100
86.700	32.016	0.100
86.800	39.334	0.100
86.900	52.160	0.100
87.000	50.988	0.100
87.100	36.665	0.100
87.200	32.317	0.100
87.300	35.971	0.100
87.400	39.584	0.100
87.500	34.294	0.100
87.600	43.077	0.100
87.700	34.698	0.100
87.800	26.352	0.100
87.900	38.013	0.100
88.000	44.394	0.100
88.100	27.294	0.100
88.200	51.266	0.100
88.300	39.597	0.100
88.400	36.069	0.100
88.500	43.432	0.100
88.600	43.314	0.100
88.700	47.847	0.100
88.800	47.290	0.100
88.900	36.675	0.100
89.000	26.309	0.100
89.100	33.096	0.100
89.200	39.364	0.100
89.300	38.159	0.100
89.400	34.712	0.100
89.500	35.835	0.100
89.600	40.641	0.100
89.700	38.070	0.100
89.800	37.256	0.100
89.900	39.167	0.100
90.000	25.161	0.100
90.100	21.470	0.100
90.200	29.602	0.100
90.300	19.087	0.100
90.400	8.270	0.100
90.500	19.209	0.100
90.600	6.768	0.100
90.700	11.308	0.100
90.800	-15.961	0.100
90.900	4.376	0.100
91.000	9.988	0.100
91.100	0.208	0.100
91.200	-4.379	0.100
91.300	-12.692	0.100
91.400	-4.202	0.100
91.500	5.273	0.100
91.600	-2.193	0.100
91.700	-9.577	0.100
91.800	-12.666	0.100
91.900	-21.229	0.100
92.000	-30.555	0.100
92.100	-28.342	0.100
92.200	5.267	0.100
92.300	-6.452	0.100
92.400	-13.676	0.100
92.500	-15.310	0.100
92.600	-13.974	0.100
92.700	-13.432	0.100
92.800	-21.693	0.100
92.900	-32.914	0.100
93.000	-15.868	0.100
93.100	-10.649	0.100
93.200	-17.271	0.100
93.300	-15.876	0.100
93.400	-21.859	0.100
93.500	-22.417	0.100
93.600	-6.615	0.100
93.700	-24.795	0.100
93.800	-30.110	0.100
93.900	-18.350	0.100
94.000	-12.352	0.100
94.100	-27.331	0.100
94.200	-21.193	0.100
94.300	-25.486	0.100
94.400	-27.556	0.100
94.500	-15.943	0.100
94.600	-22.250	0.100
94.700	-16.681	0.100
94.800	-21.551	0.100
94.900	-28.198	0.100
95.000	-3.228	0.100
95.100	-11.748	0.100
95.200	-12.988	0.100
95.300	-11.290	0.100
95.400	-16.398	0.100
95.500	-25.617	0.100
95.600	-19.396	0.100
95.700	-15.541	0.100
95.800	-16.347	0.100
95.900	-16.088	0.100
96.000	-19.910	0.100
96.100	-23.739	0.100
96.200	-26.180	0.100
96.300	-13.917	0.100
96.400	-17.548	0.100
96.500	-10.616	0.100
96.600	-16.474	0.100
96.700	-19.738	0.100
96.800	-11.496	0.100
96.900	-10.932	0.100
97.000	-17.394	0.100
97.100	-15.071	0.100
97.200	-20.489	0.100
97.300	-18.603	0.100
97.400	-17.814	0.100
97.500	-4.574	0.100
97.600	-15.528	0.100
97.700	-15.615	0.100
97.800	-19.935	0.100
97.900	-17.178	0.100
98.000	-9.965	0.100
98.100	-11.031	0.100
98.200	-20.362	0.100
98.300	-7.544	0.100
98.400	-16.886	0.100
98.500	-10.211	0.100
98.600	-25.207	0.100
98.700	-22.129	0.100
98.800	-14.855	0.100
98.900	-11.467	0.100
99.000	-17.218	0.100
99.100	-12.778	0.100
99.200	-17.277	0.100
99.300	-1.143	0.100
99.400	-10.712	0.100
99.500	-25.179	0.100
99.600	-17.081	0.100
99.700	-20.531	0.100
99.800	-14.854	0.100
99.900	-18.991	0.100
100.000	-16.448	0.100
100.100	-16.276	0.100
100.200	-17.315	0.100
100.300	-26.250	0.100
100.400	-14.728	0.100
100.500	-23.453	0.100
100.600	-9.523	0.100
100.700	-18.439	0.100
100.800	-27.068	0.100
100.900	-26.349	0.100
101.000	-31.000	0.100
101.100	-12.929	0.100
101.200	-7.614	0.100
101.300	-17.529	0.100
101.400	-25.589	0.100
101.500	-17.594	0.100
101.600	-17.870	0.100
101.700	-18.433	0.100
101.800	-22.929	0.100
101.900	-32.604	0.100
102.000	-16.540	0.100
102.100	-19.443	0.100
102.200	-6.068	0.100
102.300	-23.805	0.100
102.400	-11.388	0.100
102.500	-23.124	0.100
102.600	-7.153	0.100
102.700	-16.093	0.100
102.800	-18.135	0.100
102.900	-17.001	0.100
103.000	-26.138	0.100
103.100	-26.546	0.100
103.200	-16.868	0.100
103.300	-11.993	0.100
103.400	-19.775	0.100
103.500	-7.234	0.100
103.600	-13.547	0.100
103.700	-15.770	0.100
103.800	-18.205	0.100
103.900	-18.420	0.100
104.000	-13.683	0.100
104.100	-19.372	0.100
104.200	-9.328	0.100
104.300	-20.540	0.100
104.400	-17.020	0.100
104.500	-20.338	0.100
104.600	-29.532	0.100
104.700	-28.470	0.100
104.800	-27.732	0.100
104.900	-13.327	0.100
105.000	-9.212	0.100
105.100	-19.934	0.100
105.200	-36.136	0.100
105.300	-29.394	0.100
105.400	-35.265	0.100
105.500	-5.452	0.100
105.600	-17.655	0.100
105.700	-21.393	0.100
105.800	-15.529	0.100
105.900	-23.871	0.100
106.000	-24.950	0.100
106.100	-20.592	0.100
106.200	-39.937	0.100
106.300	-17.056	0.100
106.400	-22.291	0.100
106.500	-23.505	0.100
106.600	-27.373	0.100
106.700	-23.032	0.100
106.800	-24.312	0.100
106.900	-27.781	0.100
107.000	-33.443	0.100
107.100	-18.363	0.100
107.200	-14.373	0.100
107.300	-38.729	0.100
107.400	-22.135	0.100
107.500	-20.190	0.100
107.600	-23.595	0.100
107.700	-22.967	0.100
107.800	-27.191	0.100
107.900	-26.134	0.100
108.000	-18.799	0.100
108.100	-30.409	0.100
108.200	-23.172	0.100
108.300	-21.737	0.100
108.400	-22.067	0.100
108.500	-13.419	0.100
108.600	-24.218	0.100
108.700	-13.943	0.100
108.800	-28.156	0.100
108.900	-23.928	0.100
109.000	-27.045	0.100
109.100	-23.057	0.100
109.200	-17.908	0.100
109.300	-16.865	0.100
109.400	-35.277	0.100
109.500	-35.170	0.100
109.600	-31.473	0.100
109.700	-25.427	0.100
109.800	-19.039	0.100
109.900	-32.165	0.100
110.000	-21.216	0.100
110.100	-21.504	0.100
110.200	-25.944	0.100
110.300	-24.543	0.100
110.400	-20.464	0.100
110.500	-13.465	0.100
110.600	-31.050	0.100
110.700	-21.247	0.100
110.800	-17.028	0.100
110.900	-23.884	0.100
111.000	-26.668	0.100
111.100	-24.605	0.100
111.200	-14.536	0.100
111.300	-43.196	0.100
111.400	-28.099	0.100
111.500	-12.343	0.100
111.600	-24.600	0.100
111.700	-22.217	0.100
111.800	-16.453	0.100
111.900	-30.985	0.100
112.000	-26.360	0.100
112.100	-30.732	0.100
112.200	-24.551	0.100
112.300	-35.005	0.100
112.400	-18.074	0.100
112.500	-27.422	0.100
112.600	-22.738	0.100
112.700	-25.184	0.100
112.800	-21.342	0.100
112.900	-23.729	0.100
113.000	-25.081	0.100
113.100	-28.945	0.100
113.200	-28.968	0.100
113.300	-24.346	0.100
113.400	-25.352	0.100
113.500	-26.671	0.100
113.600	-33.034	0.100
113.700	-28.112	0.100
113.800	-14.329	0.100
113.900	-25.431	0.100
114.000	-7.474	0.100
114.100	-20.482	0.100
114.200	-35.410	0.100
114.300	-36.742	0.100
114.400	-35.085	0.100
114.500	-26.354	0.100
114.600	-10.259	0.100
114.700	-34.264	0.100
114.800	-31.728	0.100
114.900	-33.671	0.100
115.000	-28.662	0.100
115.100	-19.746	0.100
115.200	-29.793	0.100
115.300	-24.882	0.100
115.400	-27.333	0.100
115.500	-25.258	0.100
115.600	-29.360	0.100
115.700	-22.744	0.100
115.800	-30.500	0.100
115.900	-34.154	0.100
116.000	-34.759	0.100
116.100	-26.925	0.100
116.200	-29.481	0.100
116.300	-26.801	0.100
116.400	-19.637	0.100
116.500	-24.117	0.100
116.600	-25.590	0.100
116.700	-19.868	0.100
116.800	-23.435	0.100
116.900	-27.639	0.100
117.000	-29.161	0.100
117.100	-30.362	0.100
117.200	-25.529	0.100
117.300	-31.630	0.100
117.400	-22.205	0.100
117.500	-27.801	0.100
117.600	-22.726	0.100
117.700	-40.780	0.100
117.800	-33.100	0.100
117.900	-10.865	0.100
118.000	-18.096	0.100
118.100	-25.326	0.100
118.200	-31.394	0.100
118.300	-42.540	0.100
118.400	-17.569	0.100
118.500	-27.689	0.100
118.600	-25.853	0.100
118.700	-30.167	0.100
118.800	-32.587	0.100
118.900	-27.446	0.100
119.000	-28.840	0.100
119.100	-25.207	0.100
119.200	-17.315	0.100
119.300	-21.445	0.100
119.400	-34.183	0.100
119.500	-27.346	0.100
119.600	-36.860	0.100
119.700	-38.119	0.100
119.800	-18.698	0.100
119.900	-22.268	0.100
120.000	-19.322	0.100
120.100	-29.832	0.100
120.200	-24.951	0.100
120.300	-31.528	0.100
120.400	-28.916	0.100
120.500	-31.250	0.100
120.600	-36.198	0.100
120.700	-31.245	0.100
120.800	-22.454	0.100
120.900	-36.398	0.100
121.000	-27.093	0.100
121.100	-23.145	0.100
121.200	-35.807	0.100
121.300	-33.149	0.100
121.400	-29.773	0.100
121.500	-22.227	0.100
121.600	-37.306	0.100
121.700	-18.724	0.100
121.800	-24.683	0.100
121.900	-40.339	0.100
122.000	-40.425	0.100
122.100	-29.368	0.100
122.200	-24.099	0.100
122.300	-22.072	0.100
122.400	-34.626	0.100
122.500	-32.110	0.100
122.600	-27.040	0.100
122.700	-30.048	0.100
122.800	-23.477	0.100
122.900	-34.181	0.100
123.000	-32.549	0.100
123.100	-26.887	0.100
123.200	-18.994	0.100
123.300	-19.565	0.100
123.400	-26.962	0.100
123.500	-20.457	0.100
123.600	-29.668	0.100
123.700	-35.070	0.100
123.800	-33.214	0.100
123.900	-21.785	0.100
124.000	-24.073	0.100
124.100	-25.084	0.100
124.200	-29.352	0.100
124.300	-43.832	0.100
124.400	-16.323	0.100
124.500	-25.120	0.100
124.600	-29.254	0.100
124.700	-31.172	0.100
124.800	-39.073	0.100
124.900	-30.562	0.100
125.000	-29.872	0.100
125.100	-33.873	0.100
125.200	-28.899	0.100
125.300	-23.078	0.100
125.400	-38.656	0.100
125.500	-34.274	0.100
125.600	-30.501	0.100
125.700	-19.956	0.100
125.800	-28.896	0.100
125.900	-35.010	0.100
126.000	-22.415	0.100
126.100	-33.149	0.100
126.200	-34.790	0.100
126.300	-25.325	0.100
126.400	-24.583	0.100
126.500	-30.618	0.100
126.600	-30.663	0.100
126.700	-32.302	0.100
126.800	-37.480	0.100
126.900	-31.987	0.100
127.000	-28.471	0.100
127.100	-28.865	0.100
127.200	-36.710	0.100
127.300	-39.651	0.100
127.400	-27.852	0.100
127.500	-30.972	0.100
127.600	-32.987	0.100
127.700	-32.697	0.100
127.800	-24.903	0.100
127.900	-34.913	0.100
128.000	-28.832	0.100
128.100	-31.445	0.100
128.200	-24.265	0.100
128.300	-39.166	0.100
128.400	-22.281	0.100
128.500	-24.130	0.100
128.600	-32.423	0.100
128.700	-28.162	0.100
128.800	-35.577	0.100
128.900	-40.116	0.100
129.000	-39.091	0.100
129.100	-30.231	0.100
129.200	-29.382	0.100
129.300	-31.951	0.100
129.400	-30.544	0.100
129.500	-39.180	0.100
129.600	-29.181	0.100
129.700	-20.078	0.100
129.800	-33.217	0.100
129.900	-25.235	0.100
130.000	-40.082	0.100
130.100	-44.384	0.100
130.200	-33.467	0.100
130.300	-26.348	0.100
130.400	-25.321	0.100
130.500	-45.200	0.100
130.600	-31.810	0.100
130.700	-45.314	0.100
130.800	-26.100	0.100
130.900	-30.931	0.100
131.000	-24.816	0.100
131.100	-37.669	0.100
131.200	-26.534	0.100
131.300	-31.159	0.100
131.400	-34.164	0.100
131.500	-31.391	0.100
131.600	-34.809	0.100
131.700	-29.697	0.100
131.800	-21.668	0.100
131.900	-35.918	0.100
132.000	-27.905	0.100
132.100	-18.920	0.100
132.200	-31.296	0.100
132.300	-31.892	0.100
132.400	-39.221	0.100
132.500	-27.788	0.100
132.600	-25.511	0.100
132.700	-28.242	0.100
132.800	-35.801	0.100
132.900	-24.034	0.100
133.000	-32.027	0.100
133.100	-36.524	0.100
133.200	-22.771	0.100
133.300	-32.280	0.100
133.400	-21.767	0.100
133.500	-30.296	0.100
133.600	-40.593	0.100
133.700	-33.672	0.100
133.800	-24.890	0.100
133.900	-27.469	0.100
134.000	-33.770	0.100
134.100	-33.802	0.100
134.200	-41.004	0.100
134.300	-20.124	0.100
134.400	-20.844	0.100
134.500	-28.012	0.100
134.600	-32.090	0.100
134.700	-48.623	0.100
134.800	-21.691	0.100
134.900	-25.114	0.100
135.000	-39.487	0.100
135.100	-23.543	0.100
135.200	-23.555	0.100
135.300	-40.152	0.100
135.400	-26.954	0.100
135.500	-32.045	0.100
135.600	-25.151	0.100
135.700	-23.195	0.100
135.800	-38.393	0.100
135.900	-45.713	0.100
136.000	-30.762	0.100
136.100	-36.050	0.100
136.200	-21.941	0.100
136.300	-32.601	0.100
136.400	-22.918	0.100
136.500	-31.343	0.100
136.600	-30.585	0.100
136.700	-38.025	0.100
136.800	-25.732	0.100
136.900	-20.207	0.100
137.000	-30.754	0.100
137.100	-23.376	0.100
137.200	-26.780	0.100
137.300	-26.189	0.100
137.400	-33.774	0.100
137.500	-35.538	0.100
137.600	-29.979	0.100
137.700	-29.916	0.100
137.800	-32.131	0.100
137.900	-23.924	0.100
138.000	-27.662	0.100
138.100	-31.668	0.100
138.200	-26.348	0.100
138.300	-28.073	0.100
138.400	-38.017	0.100
138.500	-22.363	0.100
138.600	-40.456	0.100
138.700	-20.491	0.100
138.800	-31.382	0.100
138.900	-26.523	0.100
139.000	-24.934	0.100
139.100	-27.606	0.100
139.200	-22.580	0.100
139.300	-26.842	0.100
139.400	-32.230	0.100
139.500	-31.378	0.100
139.600	-38.986	0.100
139.700	-27.683	0.100
139.800	-32.428	0.100
139.900	-39.658	0.100
140.000	-39.903	0.100
140.100	-23.879	0.100
140.200	-29.897	0.100
140.300	-13.022	0.100
140.400	-31.441	0.100
140.500	-28.955	0.100
140.600	-24.293	0.100
140.700	-35.982	0.100
140.800	-33.918	0.100
140.900	-28.583	0.100
141.000	-31.918	0.100
141.100	-24.843	0.100
141.200	-30.516	0.100
141.300	-31.990	0.100
141.400	-41.135	0.100
141.500	-21.713	0.100
141.600	-21.392	0.100
141.700	-39.739	0.100
141.800	-23.869	0.100
141.900	-31.144	0.100
142.000	-34.110	0.100
142.100	-27.084	0.100
142.200	-27.255	0.100
142.300	-26.336	0.100
142.400	-40.119	0.100
142.500	-32.391	0.100
142.600	-13.945	0.100
142.700	-25.315	0.100
142.800	-22.133	0.100
142.900	-18.350	0.100
143.000	-27.841	0.100
143.100	-34.693	0.100
143.200	-33.576	0.100
143.300	-37.864	0.100
143.400	-21.723	0.100
143.500	-30.022	0.100
143.600	-42.095	0.100
143.700	-27.895	0.100
143.800	-25.182	0.100
143.900	-17.913	0.100
144.000	-26.096	0.100
144.100	-19.698	0.100
144.200	-24.230	0.100
144.300	-38.039	0.100
144.400	-42.294	0.100
144.500	-37.255	0.100
144.600	-35.647	0.100
144.700	-29.821	0.100
144.800	-30.228	0.100
144.900	-28.900	0.100
145.000	-24.253	0.100
145.100	-30.389	0.100
145.200	-22.972	0.100
145.300	-28.088	0.100
145.400	-21.774	0.100
145.500	-30.363	0.100
145.600	-25.972	0.100
145.700	-19.252	0.100
145.800	-30.006	0.100
145.900	-28.169	0.100
146.000	-23.532	0.100
146.100	-23.158	0.100
146.200	-34.214	0.100
146.300	-30.908	0.100
146.400	-28.760	0.100
146.500	-26.134	0.100
146.600	-29.091	0.100
146.700	-33.144	0.100
146.800	-9.773	0.100
146.900	-7.157	0.100
147.000	-27.417	0.100
147.100	-27.549	0.100
147.200	-31.171	0.100
147.300	-25.309	0.100
147.400	-30.265	0.100
147.500	-26.287	0.100
147.600	-22.065	0.100
147.700	-25.645	0.100
147.800	-29.343	0.100
147.900	-24.293	0.100
148.000	-25.295	0.100
148.100	-26.070	0.100
148.200	-30.592	0.100
148.300	-28.523	0.100
148.400	-16.882	0.100
148.500	-35.025	0.100
148.600	-20.990	0.100
148.700	-22.790	0.100
148.800	-28.665	0.100
148.900	-19.114	0.100
149.000	-33.106	0.100
149.100	-26.252	0.100
149.200	-28.740	0.100
149.300	-28.696	0.100
149.400	-24.976	0.100
149.500	-31.948	0.100
149.600	-23.047	0.100
149.700	-12.661	0.100
149.800	-21.296	0.100
149.900	-33.272	0.100
150.000	-30.374	0.100
150.100	-32.561	0.100
150.200	-34.984	0.100
150.300	-29.233	0.100
150.400	-26.970	0.100
150.500	-31.139	0.100
150.600	-28.856	0.100
150.700	-34.311	0.100
150.800	-25.493	0.100
150.900	-20.240	0.100
151.000	-20.266	0.100
151.100	-23.396	0.100
151.200	-32.703	0.100
151.300	-23.258	0.100
151.400	-33.146	0.100
151.500	-22.417	0.100
151.600	-28.281	0.100
151.700	-29.274	0.100
151.800	-32.301	0.100
151.900	-30.180	0.100
152.000	-4.497	0.100
152.100	-31.097	0.100
152.200	-30.470	0.100
152.300	-30.547	0.100
152.400	-27.103	0.100
152.500	-26.002	0.100
152.600	-37.732	0.100
152.700	-34.197	0.100
152.800	-22.831	0.100
152.900	-27.846	0.100
153.000	-14.444	0.100
153.100	-27.783	0.100
153.200	-23.743	0.100
153.300	-24.603	0.100
153.400	-39.980	0.100
153.500	-27.858	0.100
153.600	-33.557	0.100
153.700	-34.797	0.100
153.800	-22.749	0.100
153.900	-18.631	0.100
154.000	-22.856	0.100
154.100	-30.769	0.100
154.200	-31.747	0.100
154.300	-21.183	0.100
154.400	-17.369	0.100
154.500	-34.219	0.100
154.600	-24.254	0.100
154.700	-30.137	0.100
154.800	-25.623	0.100
154.900	-32.909	0.100
155.000	-23.421	0.100
155.100	-24.919	0.100
155.200	-20.457	0.100
155.300	-33.552	0.100
155.400	-41.579	0.100
155.500	-25.986	0.100
155.600	-30.917	0.100
155.700	-18.783	0.100
155.800	-40.311	0.100
155.900	-27.492	0.100
156.000	-27.304	0.100
156.100	-17.803	0.100
156.200	-38.887	0.100
156.300	-26.175	0.100
156.400	-35.595	0.100
156.500	-12.940	0.100
156.600	-27.601	0.100
156.700	-2.224	0.100
156.800	-35.897	0.100
156.900	-22.307	0.100
157.000	-21.769	0.100
157.100	-25.303	0.100
157.200	-13.109	0.100
157.300	-20.875	0.100
157.400	-24.762	0.100
157.500	-32.615	0.100
157.600	-23.082	0.100
157.700	-20.042	0.100
157.800	-29.252	0.100
157.900	-30.215	0.100
158.000	-23.405	0.100
158.100	-15.064	0.100
158.200	-18.153	0.100
158.300	-37.433	0.100
158.400	-39.450	0.100
158.500	-18.542	0.100
158.600	-4.447	0.100
158.700	-35.099	0.100
158.800	-31.043	0.100
158.900	-24.850	0.100
159.000	-20.148	0.100
159.100	-20.902	0.100
159.200	-23.802	0.100
159.300	-26.610	0.100
159.400	-33.290	0.100
159.500	-28.821	0.100
159.600	-15.887	0.100
159.700	-20.963	0.100
159.800	-30.605	0.100
159.900	-30.450	0.100
160.000	-32.214	0.100
160.100	-16.000	0.100
160.200	-27.258	0.100
160.300	-20.713	0.100
160.400	-22.509	0.100
160.500	-20.285	0.100
160.600	-27.274	0.100
160.700	-34.283	0.100
160.800	-22.794	0.100
160.900	-24.880	0.100
161.000	-25.191	0.100
161.100	-15.382	0.100
161.200	-30.800	0.100
161.300	-25.353	0.100
161.400	-20.812	0.100
161.500	-23.392	0.100
161.600	-19.325	0.100
161.700	-29.460	0.100
161.800	-23.694	0.100
161.900	-25.699	0.100
162.000	-17.736	0.100
162.100	-23.822	0.100
162.200	-26.312	0.100
162.300	-18.734	0.100
162.400	-31.064	0.100
162.500	-31.597	0.100
162.600	-16.339	0.100
162.700	-31.790	0.100
162.800	-21.645	0.100
162.900	-34.865	0.100
163.000	-36.336	0.100
163.100	-14.323	0.100
163.200	-9.762	0.100
163.300	-20.716	0.100
163.400	-20.189	0.100
163.500	-32.954	0.100
163.600	-37.268	0.100
163.700	-20.804	0.100
163.800	-24.237	0.100
163.900	-19.578	0.100
164.000	-27.565	0.100
164.100	-29.444	0.100
164.200	-14.002	0.100
164.300	-37.349	0.100
164.400	-16.687	0.100
164.500	-28.577	0.100
164.600	-18.746	0.100
164.700	-37.172	0.100
164.800	-26.144	0.100
164.900	-12.585	0.100
165.000	-19.292	0.100
165.100	-10.052	0.100
165.200	-26.518	0.100
165.300	-40.341	0.100
165.400	-20.984	0.100
165.500	-34.342	0.100
165.600	-31.758	0.100
165.700	-23.570	0.100
165.800	-26.156	0.100
165.900	-37.013	0.100
166.000	-22.284	0.100
166.100	-21.250	0.100
166.200	-10.654	0.100
166.300	-22.164	0.100
166.400	-29.817	0.100
166.500	-21.604	0.100
166.600	-14.037	0.100
166.700	-31.248	0.100
166.800	-15.476	0.100
166.900	-22.598	0.100
167.000	-31.625	0.100
167.100	-11.633	0.100
167.200	-11.703	0.100
167.300	-23.615	0.100
167.400	-19.589	0.100
167.500	-26.505	0.100
167.600	-29.974	0.100
167.700	-23.274	0.100
167.800	-30.076	0.100
167.900	-26.380	0.100
168.000	-22.939	0.100
168.100	-24.374	0.100
168.200	-38.752	0.100
168.300	-24.898	0.100
168.400	-13.565	0.100
168.500	-22.541	0.100
168.600	-19.657	0.100
168.700	-23.752	0.100
168.800	-26.296	0.100
168.900	-27.244	0.100
169.000	-23.051	0.100
169.100	-22.551	0.100
169.200	-15.256	0.100
169.300	-29.306	0.100
169.400	-27.942	0.100
169.500	-23.651	0.100
169.600	-19.636	0.100
169.700	-20.653	0.100
169.800	-7.894	0.100
169.900	-30.338	0.100
170.000	-19.115	0.100
170.100	-14.598	0.100
170.200	-21.467	0.100
170.300	-34.681	0.100
170.400	-20.801	0.100
170.500	-24.094	0.100
170.600	-20.069	0.100
170.700	-15.726	0.100
170.800	-26.653	0.100
170.900	-33.315	0.100
171.000	-20.473	0.100
171.100	-29.101	0.100
171.200	-29.960	0.100
171.300	-19.449	0.100
171.400	-10.356	0.100
171.500	-22.777	0.100
171.600	-26.716	0.100
171.700	-21.523	0.100
171.800	-27.302	0.100
171.900	-25.018	0.100
172.000	-25.511	0.100
172.100	-10.466	0.100
172.200	-26.850	0.100
172.300	-29.085	0.100
172.400	-38.280	0.100
172.500	-20.864	0.100
172.600	-13.267	0.100
172.700	-9.348	0.100
172.800	-31.472	0.100
172.900	-36.575	0.100
173.000	-27.537	0.100
173.100	-21.854	0.100
173.200	-27.534	0.100
173.300	-26.311	0.100
173.400	-24.754	0.100
173.500	-35.783	0.100
173.600	-19.211	0.100
173.700	-14.786	0.100
173.800	-24.828	0.100
173.900	-13.747	0.100
174.000	-23.794	0.100
174.100	-29.932	0.100
174.200	-21.490	0.100
174.300	-24.624	0.100
174.400	-18.037	0.100
174.500	-17.014	0.100
174.600	-28.174	0.100
174.700	-28.097	0.100
174.800	-28.420	0.100
174.900	-21.276	0.100
175.000	-17.475	0.100
175.100	-17.344	0.100
175.200	-29.416	0.100
175.300	-25.217	0.100
175.400	-21.589	0.100
175.500	-23.764	0.100
175.600	-13.100	0.100
175.700	-28.964	0.100
175.800	-21.650	0.100
175.900	-21.579	0.100
176.000	-14.062	0.100
176.100	-22.951	0.100
176.200	-21.430	0.100
176.300	-24.150	0.100
176.400	-29.985	0.100
176.500	-38.314	0.100
176.600	-28.714	0.100
176.700	-9.997	0.100
176.800	-16.218	0.100
176.900	-22.565	0.100
177.000	-19.624	0.100
177.100	-22.106	0.100
177.200	-24.333	0.100
177.300	-15.731	0.100
177.400	-29.622	0.100
177.500	-14.557	0.100
177.600	-33.219	0.100
177.700	-30.935	0.100
177.800	-11.516	0.100
177.900	-22.217	0.100
178.000	-22.049	0.100
178.100	-25.771	0.100
178.200	-32.621	0.100
178.300	-26.857	0.100
178.400	-21.123	0.100
178.500	-25.445	0.100
178.600	-14.372	0.100
178.700	-19.630	0.100
178.800	-25.149	0.100
178.900	-25.997	0.100
179.000	-22.985	0.100
179.100	-23.573	0.100
179.200	-35.837	0.100
179.300	-38.618	0.100
179.400	-23.674	0.100
179.500	-28.316	0.100
179.600	-13.305	0.100
179.700	-15.786	0.100
179.800	-20.453	0.100
179.900	-35.543	0.100
180.000	-23.236	0.100
180.100	-11.511	0.100
180.200	4.666	0.100
180.300	-3.110	0.100
180.400	-0.323	0.100
180.500	6.868	0.100
180.600	10.390	0.100
180.700	17.226	0.100
180.800	9.060	0.100
180.900	25.739	0.100
181.000	5.322	0.100
181.100	25.818	0.100
181.200	9.988	0.100
181.300	14.012	0.100
181.400	16.662	0.100
181.500	11.141	0.100
181.600	12.688	0.100
181.700	7.427	0.100
181.800	19.627	0.100
181.900	5.514	0.100
182.000	17.416	0.100
182.100	18.295	0.100
182.200	7.683	0.100
182.300	8.977	0.100
182.400	5.524	0.100
182.500	8.160	0.100
182.600	13.024	0.100
182.700	11.675	0.100
182.800	20.091	0.100
182.900	16.665	0.100
183.000	13.102	0.100
183.100	6.852	0.100
183.200	-7.157	0.100
183.300	14.914	0.100
183.400	10.963	0.100
183.500	8.103	0.100
183.600	15.711	0.100
183.700	10.448	0.100
183.800	-12.593	0.100
183.900	-0.587	0.100
184.000	16.391	0.100
184.100	12.025	0.100
184.200	6.978	0.100
184.300	15.610	0.100
184.400	9.957	0.100
184.500	-7.530	0.100
184.600	7.051	0.100
184.700	3.109	0.100
184.800	3.024	0.100
184.900	13.905	0.100
185.000	-1.946	0.100
185.100	-6.567	0.100
185.200	0.288	0.100
185.300	10.258	0.100
185.400	-1.585	0.100
185.500	8.740	0.100
185.600	1.279	0.100
185.700	2.737	0.100
185.800	-0.263	0.100
185.900	12.928	0.100
186.000	3.525	0.100
186.100	15.418	0.100
186.200	-6.633	0.100
186.300	7.776	0.100
186.400	3.193	0.100
186.500	-7.756	0.100
186.600	11.777	0.100
186.700	12.149	0.100
186.800	5.197	0.100
186.900	-0.819	0.100
187.000	11.327	0.100
187.100	14.190	0.100
187.200	11.641	0.100
187.300	7.527	0.100
187.400	9.440	0.100
187.500	9.477	0.100
187.600	-5.102	0.100
187.700	7.629	0.100
187.800	17.450	0.100
187.900	19.430	0.100
188.000	16.456	0.100
188.100	8.026	0.100
188.200	10.001	0.100
188.300	3.740	0.100
188.400	1.440	0.100
188.500	16.519	0.100
188.600	6.805	0.100
188.700	10.992	0.100
188.800	7.567	0.100
188.900	18.777	0.100
189.000	12.777	0.100
189.100	21.863	0.100
189.200	7.042	0.100
189.300	10.769	0.100
189.400	15.050	0.100
189.500	5.949	0.100
189.600	18.363	0.100
189.700	22.637	0.100
189.800	11.276	0.100
189.900	1.760	0.100
190.000	11.436	0.100
190.100	29.770	0.100
190.200	30.055	0.100
190.300	22.661	0.100
190.400	2.784	0.100
190.500	26.098	0.100
190.600	16.953	0.100
190.700	17.870	0.100
190.800	27.469	0.100
190.900	25.216	0.100
191.000	24.674	0.100
191.100	19.880	0.100
191.200	23.687	0.100
191.300	30.100	0.100
191.400	15.879	0.100
191.500	20.409	0.100
191.600	33.395	0.100
191.700	30.017	0.100
191.800	27.999	0.100
191.900	28.631	0.100
192.000	26.099	0.100
192.100	35.448	0.100
192.200	20.979	0.100
192.300	28.409	0.100
192.400	29.599	0.100
192.500	38.201	0.100
192.600	21.468	0.100
192.700	26.561	0.100
192.800	28.342	0.100
192.900	28.426	0.100
193.000	27.392	0.100
193.100	45.467	0.100
193.200	38.982	0.100
193.300	31.960	0.100
193.400	33.571	0.100
193.500	18.617	0.100
193.600	47.346	0.100
193.700	34.566	0.100
193.800	39.691	0.100
193.900	19.048	0.100
194.000	34.576	0.100
194.100	45.133	0.100
194.200	41.507	0.100
194.300	45.257	0.100
194.400	39.587	0.100
194.500	36.254	0.100
194.600	43.876	0.100
194.700	36.581	0.100
194.800	37.238	0.100
194.900	57.353	0.100
195.000	33.299	0.100
195.100	48.487	0.100
195.200	25.295	0.100
195.300	35.982	0.100
195.400	47.230	0.100
195.500	37.812	0.100
195.600	34.754	0.100
195.700	36.330	0.100
195.800	38.769	0.100
195.900	41.775	0.100
196.000	36.986	0.100
196.100	39.392	0.100
196.200	33.050	0.100
196.300	46.541	0.100
196.400	53.894	0.100
196.500	40.437	0.100
196.600	51.741	0.100
196.700	55.562	0.100
196.800	40.466	0.100
196.900	40.464	0.100
197.000	40.405	0.100
197.100	53.141	0.100
197.200	45.533	0.100
197.300	43.936	0.100
197.400	42.826	0.100
197.500	49.516	0.100
197.600	34.764	0.100
197.700	39.799	0.100
197.800	47.731	0.100
197.900	47.255	0.100
198.000	41.841	0.100
198.100	32.845	0.100
198.200	43.446	0.100
198.300	40.187	0.100
198.400	48.432	0.100
198.500	45.910	0.100
198.600	41.867	0.100
198.700	40.373	0.100
198.800	33.166	0.100
198.900	47.909	0.100
199.000	33.530	0.100
199.100	50.320	0.100
199.200	40.307	0.100
199.300	43.801	0.100
199.400	45.204	0.100
199.500	47.233	0.100
199.600	39.193	0.100
199.700	42.176	0.100
199.800	43.729	0.100
199.900	35.610	0.100
200.000	44.678	0.100
200.100	48.660	0.100
200.200	55.783	0.100
200.300	44.738	0.100
200.400	35.538	0.100
200.500	61.887	0.100
200.600	49.844	0.100
200.700	39.209	0.100
200.800	62.447	0.100
200.900	46.984	0.100
201.000	31.066	0.100
201.100	43.008	0.100
201.200	56.526	0.100
201.300	52.994	0.100
201.400	52.528	0.100
201.500	46.540	0.100
201.600	43.890	0.100
201.700	43.523	0.100
201.800	37.902	0.100
201.900	54.724	0.100
202.000	36.160	0.100
202.100	58.251	0.100
202.200	49.938	0.100
202.300	47.278	0.100
202.400	47.857	0.100
202.500	43.367	0.100
202.600	49.529	0.100
202.700	44.982	0.100
202.800	39.412	0.100
202.900	48.101	0.100
203.000	44.029	0.100
203.100	46.826	0.100
203.200	39.767	0.100
203.300	45.643	0.100
203.400	45.462	0.100
203.500	53.861	0.100
203.600	45.473	0.100
203.700	36.706	0.100
203.800	53.653	0.100
203.900	58.041	0.100
204.000	41.020	0.100
204.100	24.906	0.100
204.200	37.252	0.100
204.300	61.063	0.100
204.400	53.188	0.100
204.500	46.940	0.100
204.600	41.271	0.100
204.700	45.273	0.100
204.800	51.807	0.100
204.900	41.998	0.100
205.000	48.773	0.100
205.100	44.777	0.100
205.200	37.144	0.100
205.300	51.994	0.100
205.400	62.119	0.100
205.500	43.757	0.100
205.600	40.058	0.100
205.700	43.939	0.100
205.800	30.406	0.100
205.900	52.409	0.100
206.000	53.888	0.100
206.100	51.587	0.100
206.200	40.020	0.100
206.300	42.049	0.100
206.400	33.907	0.100
206.500	42.468	0.100
206.600	47.918	0.100
206.700	52.094	0.100
206.800	26.417	0.100
206.900	46.757	0.100
207.000	55.297	0.100
207.100	51.645	0.100
207.200	48.262	0.100
207.300	42.255	0.100
207.400	51.355	0.100
207.500	39.589	0.100
207.600	43.534	0.100
207.700	52.253	0.100
207.800	50.747	0.100
207.900	46.683	0.100
208.000	34.219	0.100
208.100	40.964	0.100
208.200	45.094	0.100
208.300	48.079	0.100
208.400	47.679	0.100
208.500	32.907	0.100
208.600	37.889	0.100
208.700	40.972	0.100
208.800	38.572	0.100
208.900	50.379	0.100
209.000	54.098	0.100
209.100	45.282	0.100
209.200	41.217	0.100
209.300	50.614	0.100
209.400	53.771	0.100
209.500	50.562	0.100
209.600	36.078	0.100
209.700	39.354	0.100
209.800	44.917	0.100
209.900	51.537	0.100
210.000	48.658	0.100
210.100	51.951	0.100
210.200	54.334	0.100
210.300	42.589	0.100
210.400	33.869	0.100
210.500	60.933	0.100
210.600	46.488	0.100
210.700	44.393	0.100
210.800	45.418	0.100
210.900	36.793	0.100
211.000	42.730	0.100
211.100	43.421	0.100
211.200	59.511	0.100
211.300	45.309	0.100
211.400	46.296	0.100
211.500	38.559	0.100
211.600	25.987	0.100
211.700	55.959	0.100
211.800	45.570	0.100
211.900	52.599	0.100
212.000	34.127	0.100
212.100	40.976	0.100
212.200	37.966	0.100
212.300	62.487	0.100
212.400	45.729	0.100
212.500	56.405	0.100
212.600	43.606	0.100
212.700	44.173	0.100
212.800	30.501	0.100
212.900	29.217	0.100
213.000	47.892	0.100
213.100	46.483	0.100
213.200	51.841	0.100
213.300	42.744	0.100
213.400	33.680	0.100
213.500	45.804	0.100
213.600	49.834	0.100
213.700	46.887	0.100
213.800	36.809	0.100
213.900	33.619	0.100
214.000	49.704	0.100
214.100	42.826	0.100
214.200	49.249	0.100
214.300	35.872	0.100
214.400	42.008	0.100
214.500	48.368	0.100
214.600	40.881	0.100
214.700	45.733	0.100
214.800	35.227	0.100
214.900	38.422	0.100
215.000	41.518	0.100
215.100	50.343	0.100
215.200	38.531	0.100
215.300	40.030	0.100
215.400	31.177	0.100
215.500	50.876	0.100
215.600	41.783	0.100
215.700	39.394	0.100
215.800	40.400	0.100
215.900	49.070	0.100
216.000	44.965	0.100
216.100	38.922	0.100
216.200	37.312	0.100
216.300	33.423	0.100
216.400	44.905	0.100
216.500	30.138	0.100
216.600	44.403	0.100
216.700	44.361	0.100
216.800	44.123	0.100
216.900	34.441	0.100
217.000	38.627	0.100
217.100	51.530	0.100
217.200	40.349	0.100
217.300	38.219	0.100
217.400	35.941	0.100
217.500	45.668	0.100
217.600	45.761	0.100
217.700	44.694	0.100
217.800	48.143	0.100
217.900	33.227	0.100
218.000	34.965	0.100
218.100	41.173	0.100
218.200	42.797	0.100
218.300	40.318	0.100
218.400	44.590	0.100
218.500	38.826	0.100
218.600	35.833	0.100
218.700	43.161	0.100
218.800	43.732	0.100
218.900	47.627	0.100
219.000	45.626	0.100
219.100	38.335	0.100
219.200	38.455	0.100
219.300	52.912	0.100
219.400	41.209	0.100
219.500	41.827	0.100
219.600	44.119	0.100
219.700	42.324	0.100
219.800	36.380	0.100
219.900	51.930	0.100
220.000	38.126	0.100
220.100	44.400	0.100
220.200	39.498	0.100
220.300	42.128	0.100
220.400	37.201	0.100
220.500	37.440	0.100
220.600	44.980	0.100
220.700	48.607	0.100
220.800	41.033	0.100
220.900	44.519	0.100
221.000	41.691	0.100
221.100	31.627	0.100
221.200	47.741	0.100
221.300	50.319	0.100
221.400	32.735	0.100
221.500	30.715	0.100
221.600	38.170	0.100
221.700	51.922	0.100
221.800	42.526	0.100
221.900	58.320	0.100
222.000	38.001	0.100
222.100	28.344	0.100
222.200	50.732	0.100
222.300	50.416	0.100
222.400	46.475	0.100
222.500	51.489	0.100
222.600	38.171	0.100
222.700	37.951	0.100
222.800	42.366	0.100
222.900	39.607	0.100
223.000	43.738	0.100
223.100	47.420	0.100
223.200	39.166	0.100
223.300	43.030	0.100
223.400	39.521	0.100
223.500	46.077	0.100
223.600	47.122	0.100
223.700	45.684	0.100
223.800	35.371	0.100
223.900	46.718	0.100
224.000	42.698	0.100
224.100	41.833	0.100
224.200	37.292	0.100
224.300	42.307	0.100
224.400	41.516	0.100
224.500	47.266	0.100
224.600	37.634	0.100
224.700	42.667	0.100
224.800	46.684	0.100
224.900	47.312	0.100
225.000	35.270	0.100
225.100	26.525	0.100
225.200	44.018	0.100
225.300	42.410	0.100
225.400	51.839	0.100
225.500	35.539	0.100
225.600	40.952	0.100
225.700	38.740	0.100
225.800	42.823	0.100
225.900	47.102	0.100
226.000	52.311	0.100
226.100	39.620	0.100
226.200	41.519	0.100
226.300	39.419	0.100
226.400	45.419	0.100
226.500	47.240	0.100
226.600	54.478	0.100
226.700	36.936	0.100
226.800	37.668	0.100
226.900	38.931	0.100
227.000	30.360	0.100
227.100	40.070	0.100
227.200	52.122	0.100
227.300	41.182	0.100
227.400	38.589	0.100
227.500	28.825	0.100
227.600	36.277	0.100
227.700	36.430	0.100
227.800	40.872	0.100
227.900	33.813	0.100
228.000	46.402	0.100
228.100	36.233	0.100
228.200	51.624	0.100
228.300	43.647	0.100
228.400	37.416	0.100
228.500	40.635	0.100
228.600	39.687	0.100
228.700	51.924	0.100
228.800	36.111	0.100
228.900	36.357	0.100
229.000	38.949	0.100
229.100	31.000	0.100
229.200	38.435	0.100
229.300	47.598	0.100
229.400	42.752	0.100
229.500	53.331	0.100
229.600	25.781	0.100
229.700	33.671	0.100
229.800	43.262	0.100
229.900	27.211	0.100
230.000	51.824	0.100
230.100	46.224	0.100
230.200	41.169	0.100
230.300	38.342	0.100
230.400	44.411	0.100
230.500	45.575	0.100
230.600	42.834	0.100
230.700	51.702	0.100
230.800	40.537	0.100
230.900	36.397	0.100
231.000	36.070	0.100
231.100	42.919	0.100
231.200	36.529	0.100
231.300	46.115	0.100
231.400	39.582	0.100
231.500	34.618	0.100
231.600	41.159	0.100
231.700	52.652	0.100
231.800	31.475	0.100
231.900	39.846	0.100
232.000	50.614	0.100
232.100	41.281	0.100
232.200	37.793	0.100
232.300	37.203	0.100
232.400	41.685	0.100
232.500	32.793	0.100
232.600	34.655	0.100
232.700	46.614	0.100
232.800	37.864	0.100
232.900	45.308	0.100
233.000	37.608	0.100
233.100	34.026	0.100
233.200	38.539	0.100
233.300	35.736	0.100
233.400	35.576	0.100
233.500	43.280	0.100
233.600	38.376	0.100
233.700	38.127	0.100
233.800	37.672	0.100
233.900	32.615	0.100
234.000	44.341	0.100
234.100	52.177	0.100
234.200	43.088	0.100
234.300	42.661	0.100
234.400	32.124	0.100
234.500	40.031	0.100
234.600	45.184	0.100
234.700	35.470	0.100
234.800	32.837	0.100
234.900	33.861	0.100
235.000	42.378	0.100
235.100	40.855	0.100
235.200	38.852	0.100
235.300	53.589	0.100
235.400	39.987	0.100
235.500	40.497	0.100
235.600	39.663	0.100
235.700	43.322	0.100
235.800	39.820	0.100
235.900	43.738	0.100
236.000	43.065	0.100
236.100	43.556	0.100
236.200	32.826	0.100
236.300	32.454	0.100
236.400	37.340	0.100
236.500	38.507	0.100
236.600	41.327	0.100
236.700	36.180	0.100
236.800	28.566	0.100
236.900	36.691	0.100
237.000	36.718	0.100
237.100	46.880	0.100
237.200	42.169	0.100
237.300	40.505	0.100
237.400	31.975	0.100
237.500	28.769	0.100
237.600	33.774	0.100
237.700	34.874	0.100
237.800	40.832	0.100
237.900	29.787	0.100
238.000	33.744	0.100
238.100	40.102	0.100
238.200	46.352	0.100
238.300	32.753	0.100
238.400	41.419	0.100
238.500	35.385	0.100
238.600	30.446	0.100
238.700	21.976	0.100
238.800	50.168	0.100
238.900	49.072	0.100
239.000	51.410	0.100
239.100	40.540	0.100
239.200	43.604	0.100
239.300	28.399	0.100
239.400	45.582	0.100
239.500	48.124	0.100
239.600	31.637	0.100
239.700	44.539	0.100
239.800	23.199	0.100
239.900	41.963	0.100
240.000	30.963	0.100
240.100	23.132	0.100
240.200	21.800	0.100
240.300	13.673	0.100
240.400	3.240	0.100
240.500	22.269	0.100
240.600	17.620	0.100
240.700	11.874	0.100
240.800	-0.705	0.100
240.900	-6.527	0.100
241.000	-5.049	0.100
241.100	2.764	0.100
241.200	0.246	0.100
241.300	-16.493	0.100
241.400	-1.485	0.100
241.500	-14.226	0.100
241.600	-3.417	0.100
241.700	0.822	0.100
241.800	-13.829	0.100
241.900	-21.332	0.100
242.000	-14.590	0.100
242.100	-14.526	0.100
242.200	-22.728	0.100
242.300	-18.524	0.100
242.400	-14.686	0.100
242.500	-13.986	0.100
242.600	-19.781	0.100
242.700	-25.827	0.100
242.800	-21.871	0.100
242.900	-17.496	0.100
243.000	-27.401	0.100
243.100	-13.696	0.100
243.200	-14.417	0.100
243.300	-18.206	0.100
243.400	-24.775	0.100
243.500	-5.836	0.100
243.600	-22.433	0.100
243.700	-34.312	0.100
243.800	-28.562	0.100
243.900	-23.827	0.100
244.000	-22.402	0.100
244.100	-9.664	0.100
244.200	-24.393	0.100
244.300	-31.079	0.100
244.400	-19.988	0.100
244.500	-26.195	0.100
244.600	-13.340	0.100
244.700	-13.783	0.100
244.800	-29.716	0.100
244.900	-20.591	0.100
245.000	-37.819	0.100
245.100	-25.394	0.100
245.200	-15.087	0.100
245.300	-32.061	0.100
245.400	-24.215	0.100
245.500	-29.944	0.100
245.600	-26.444	0.100
245.700	-25.720	0.100
245.800	-21.013	0.100
245.900	-17.369	0.100
246.000	-21.928	0.100
246.100	-5.773	0.100
246.200	-31.493	0.100
246.300	-11.426	0.100
246.400	-16.464	0.100
246.500	-13.703	0.100
246.600	-27.217	0.100
246.700	-14.015	0.100
246.800	-7.319	0.100
246.900	-31.740	0.100
247.000	-35.855	0.100
247.100	-15.125	0.100
247.200	-27.406	0.100
247.300	-19.181	0.100
247.400	-21.425	0.100
247.500	-22.572	0.100
247.600	-24.717	0.100
247.700	-18.142	0.100
247.800	-15.774	0.100
247.900	-13.330	0.100
248.000	-4.527	0.100
248.100	-17.153	0.100
248.200	-16.362	0.100
248.300	-15.422	0.100
248.400	-12.829	0.100
248.500	-19.387	0.100
248.600	-28.248	0.100
248.700	-24.819	0.100
248.800	-22.275	0.100
248.900	-21.252	0.100
249.000	-14.813	0.100
249.100	-15.912	0.100
249.200	-30.430	0.100
249.300	-16.498	0.100
249.400	-11.409	0.100
249.500	-5.264	0.100
249.600	-20.784	0.100
249.700	-23.424	0.100
249.800	-33.484	0.100
249.900	-34.437	0.100
250.000	-28.780	0.100
250.100	-13.687	0.100
250.200	-11.041	0.100
250.300	-19.991	0.100
250.400	-26.051	0.100
250.500	-14.550	0.100
250.600	-18.427	0.100
250.700	-18.677	0.100
250.800	-21.118	0.100
250.900	-29.600	0.100
251.000	-21.579	0.100
251.100	-20.362	0.100
251.200	-25.131	0.100
251.300	-19.890	0.100
251.400	-16.808	0.100
251.500	-24.039	0.100
251.600	-28.918	0.100
251.700	-14.170	0.100
251.800	-12.245	0.100
251.900	-20.419	0.100
252.000	-20.357	0.100
252.100	-23.908	0.100
252.200	-22.283	0.100
252.300	-5.392	0.100
252.400	-21.875	0.100
252.500	-24.151	0.100
252.600	-28.195	0.100
252.700	-20.505	0.100
252.800	-39.242	0.100
252.900	-15.554	0.100
253.000	-15.913	0.100
253.100	-29.062	0.100
253.200	-18.016	0.100
253.300	-28.510	0.100
253.400	-25.910	0.100
253.500	-26.819	0.100
253.600	-18.148	0.100
253.700	-18.627	0.100
253.800	-15.699	0.100
253.900	-23.491	0.100
254.000	-40.075	0.100
254.100	-13.375	0.100
254.200	-12.816	0.100
254.300	-21.813	0.100
254.400	-26.045	0.100
254.500	-29.279	0.100
254.600	-23.176	0.100
254.700	-18.829	0.100
254.800	-5.939	0.100
254.900	-23.285	0.100
255.000	-37.059	0.100
255.100	-24.642	0.100
255.200	-15.806	0.100
255.300	-7.715	0.100
255.400	-21.997	0.099
255.500	-35.128	0.099
255.600	-23.849	0.099
255.700	-22.056	0.099
255.800	-16.769	0.099
255.900	-31.206	0.099
256.000	-12.435	0.099
256.100	-38.278	0.099
256.200	-26.381	0.099
256.300	-28.297	0.099
256.400	-25.232	0.099
256.500	-23.016	0.099
256.600	-24.696	0.099
256.700	-28.127	0.099
256.800	-27.155	0.099
256.900	-26.422	0.099
257.000	-21.665	0.099
257.100	-17.836	0.099
257.200	-12.224	0.099
257.300	-28.995	0.099
257.400	-23.818	0.099
257.500	-30.233	0.099
257.600	-22.899	0.099
257.700	-30.846	0.099
257.800	-29.554	0.099
257.900	-32.720	0.099
258.000	-22.726	0.099
258.100	-30.070	0.099
258.200	-21.937	0.099
258.300	-26.224	0.099
258.400	-20.706	0.099
258.500	-27.527	0.099
258.600	-21.399	0.099
258.700	-37.028	0.099
258.800	-16.246	0.099
258.900	-25.350	0.099
259.000	-24.716	0.099
259.100	-23.500	0.099
259.200	-33.882	0.099
259.300	-22.577	0.099
259.400	-21.774	0.099
259.500	-29.546	0.099
259.600	-34.079	0.099
259.700	-16.659	0.099
259.800	-24.598	0.099
259.900	-27.780	0.099
260.000	-30.811	0.099
260.100	-24.688	0.099
260.200	-21.170	0.099
260.300	-27.247	0.099
260.400	-28.358	0.099
260.500	-16.096	0.099
260.600	-27.181	0.099
260.700	-28.882	0.099
260.800	-34.076	0.099
260.900	-37.868	0.099
261.000	-29.855	0.099
261.100	-24.652	0.099
261.200	-25.983	0.099
261.300	-22.516	0.099
261.400	-33.344	0.099
261.500	-40.631	0.099
261.600	-25.867	0.099
261.700	-20.524	0.099
261.800	-32.565	0.099
261.900	-39.169	0.099
262.000	-17.772	0.099
262.100	-20.299	0.099
262.200	-23.549	0.099
262.300	-36.461	0.099
262.400	-39.116	0.099
262.500	-43.520	0.099
262.600	-26.888	0.099
262.700	-24.875	0.099
262.800	-27.568	0.099
262.900	-23.092	0.099
263.000	-26.708	0.099
263.100	-25.926	0.099
263.200	-36.712	0.099
263.300	-25.074	0.099
263.400	-19.655	0.099
263.500	-21.236	0.099
263.600	-25.499	0.099
263.700	-36.308	0.099
263.800	-36.309	0.099
263.900	-20.796	0.099
264.000	-28.840	0.099
264.100	-25.453	0.099
264.200	-22.186	0.099
264.300	-40.750	0.099
264.400	-32.067	0.099
264.500	-31.714	0.099
264.600	-24.290	0.099
264.700	-21.431	0.099
264.800	-28.950	0.099
264.900	-33.708	0.099
265.000	-39.275	0.099
265.100	-37.002	0.099
265.200	-34.531	0.099
265.300	-30.458	0.099
265.400	-41.833	0.099
265.500	-43.782	0.099
265.600	-29.631	0.099
265.700	-24.469	0.099
265.800	-26.968	0.099
265.900	-25.651	0.099
266.000	-24.913	0.099
266.100	-38.620	0.099
266.200	-34.650	0.099
266.300	-31.410	0.099
266.400	-39.251	0.099
266.500	-21.040	0.099
266.600	-14.394	0.099
266.700	-25.457	0.099
266.800	-29.027	0.099
266.900	-31.911	0.099
267.000	-30.169	0.099
267.100	-28.922	0.099
267.200	-31.539	0.099
267.300	-28.308	0.099
267.400	-33.810	0.099
267.500	-21.957	0.099
267.600	-17.414	0.099
267.700	-43.658	0.099
267.800	-24.937	0.099
267.900	-25.724	0.099
268.000	-41.214	0.099
268.100	-31.063	0.099
268.200	-23.134	0.099
268.300	-40.712	0.099
268.400	-36.238	0.099
268.500	-26.480	0.099
268.600	-27.443	0.099
268.700	-44.356	0.099
268.800	-27.781	0.099
268.900	-28.552	0.099
269.000	-34.784	0.099
269.100	-34.149	0.099
269.200	-39.479	0.099
269.300	-18.631	0.099
269.400	-22.295	0.099
269.500	-25.579	0.099
269.600	-30.250	0.099
269.700	-28.416	0.099
269.800	-31.411	0.099
269.900	-25.524	0.099
270.000	-40.763	0.099
270.100	-44.678	0.099
270.200	-35.274	0.099
270.300	-28.668	0.099
270.400	-19.984	0.099
270.500	-27.187	0.099
270.600	-30.602	0.099
270.700	-31.703	0.099
270.800	-28.084	0.099
270.900	-30.556	0.099
271.000	-39.103	0.099
271.100	-22.903	0.099
271.200	-37.466	0.099
271.300	-25.565	0.099
271.400	-24.909	0.099
271.500	-45.812	0.099
271.600	-37.107	0.099
271.700	-24.823	0.099
271.800	-33.854	0.099
271.900	-31.957	0.099
272.000	-36.162	0.099
272.100	-28.675	0.099
272.200	-34.311	0.099
272.300	-36.000	0.099
272.400	-28.220	0.099
272.500	-29.775	0.099
272.600	-35.012	0.099
272.700	-40.662	0.099
272.800	-26.237	0.100
272.900	-27.103	0.099
273.000	-22.580	0.099
273.100	-36.082	0.099
273.200	-30.576	0.100
273.300	-26.065	0.099
273.400	-33.923	0.100
273.500	-32.151	0.099
273.600	-21.143	0.099
273.700	-29.297	0.099
273.800	-34.354	0.099
273.900	-29.380	0.099
274.000	-30.305	0.099
274.100	-22.072	0.100
274.200	-26.621	0.100
274.300	-19.478	0.099
274.400	-29.426	0.100
274.500	-30.150	0.100
274.600	-22.942	0.100
274.700	-30.422	0.099
274.800	-32.606	0.099
274.900	-32.712	0.099
275.000	-35.682	0.100
275.100	-28.298	0.100
275.200	-37.722	0.099
275.300	-36.247	0.100
275.400	-39.509	0.100
275.500	-37.838	0.100
275.600	-30.290	0.100
275.700	-38.206	0.100
275.800	-35.363	0.100
275.900	-22.856	0.100
276.000	-28.791	0.100
276.100	-30.989	0.100
276.200	-30.494	0.100
276.300	-26.469	0.100
276.400	-40.495	0.100
276.500	-28.920	0.100
276.600	-30.956	0.100
276.700	-40.578	0.100
276.800	-42.564	0.100
276.900	-20.415	0.100
277.000	-21.443	0.100
277.100	-33.494	0.100
277.200	-29.972	0.100
277.300	-26.303	0.100
277.400	-24.776	0.100
277.500	-31.388	0.100
277.600	-31.321	0.100
277.700	-13.518	0.100
277.800	-40.184	0.100
277.900	-34.161	0.100
278.000	-31.331	0.100
278.100	-26.299	0.100
278.200	-28.736	0.100
278.300	-28.518	0.100
278.400	-28.543	0.100
278.500	-37.735	0.100
278.600	-43.178	0.100
278.700	-28.098	0.100
278.800	-28.545	0.100
278.900	-33.086	0.100
279.000	-26.328	0.100
279.100	-36.072	0.100
279.200	-35.216	0.100
279.300	-20.141	0.100
279.400	-28.432	0.100
279.500	-29.339	0.100
279.600	-42.984	0.100
279.700	-34.688	0.100
279.800	-34.485	0.100
279.900	-21.244	0.100
280.000	-28.048	0.100
280.100	-44.782	0.100
280.200	-30.929	0.100
280.300	-34.166	0.100
280.400	-27.434	0.100
280.500	-27.759	0.100
280.600	-43.476	0.100
280.700	-38.779	0.100
280.800	-39.038	0.100
280.900	-22.167	0.100
281.000	-14.767	0.100
281.100	-36.435	0.100
281.200	-26.526	0.100
281.300	-36.030	0.100
281.400	-44.885	0.100
281.500	-45.998	0.100
281.600	-43.044	0.100
281.700	-26.523	0.100
281.800	-31.690	0.100
281.900	-32.958	0.100
282.000	-27.053	0.100
282.100	-43.559	0.100
282.200	-27.393	0.100
282.300	-22.867	0.100
282.400	-27.047	0.100
282.500	-29.238	0.100
282.600	-31.147	0.100
282.700	-37.341	0.100
282.800	-35.555	0.100
282.900	-30.769	0.100
283.000	-31.747	0.100
283.100	-37.630	0.100
283.200	-27.455	0.100
283.300	-39.003	0.100
283.400	-23.913	0.100
283.500	-38.047	0.100
283.600	-26.819	0.100
283.700	-40.304	0.100
283.800	-41.556	0.100
283.900	-43.406	0.100
284.000	-25.692	0.100
284.100	-20.136	0.100
284.200	-36.036	0.100
284.300	-36.902	0.100
284.400	-42.979	0.100
284.500	-28.054	0.100
284.600	-31.476	0.100
284.700	-24.777	0.100
284.800	-32.314	0.100
284.900	-38.203	0.100
285.000	-27.399	0.100
285.100	-28.632	0.100
285.200	-18.813	0.100
285.300	-28.485	0.100
285.400	-40.118	0.100
285.500	-45.590	0.100
285.600	-32.699	0.100
285.700	-28.307	0.100
285.800	-24.917	0.100
285.900	-25.790	0.100
286.000	-29.543	0.100
286.100	-32.196	0.100
286.200	-31.270	0.100
286.300	-20.223	0.100
286.400	-30.898	0.100
286.500	-33.681	0.100
286.600	-32.423	0.100
286.700	-32.508	0.100
286.800	-38.128	0.100
286.900	-26.922	0.100
287.000	-25.932	0.100
287.100	-34.581	0.100
287.200	-27.987	0.100
287.300	-39.307	0.100
287.400	-32.434	0.100
287.500	-27.455	0.100
287.600	-32.495	0.100
287.700	-33.775	0.100
287.800	-39.319	0.100
287.900	-33.962	0.100
288.000	-34.330	0.100
288.100	-36.384	0.100
288.200	-29.266	0.100
288.300	-30.966	0.100
288.400	-36.785	0.100
288.500	-30.422	0.100
288.600	-40.660	0.100
288.700	-25.523	0.100
288.800	-34.888	0.100
288.900	-25.438	0.100
289.000	-32.711	0.100
289.100	-42.576	0.100
289.200	-20.560	0.100
289.300	-33.739	0.100
289.400	-26.682	0.100
289.500	-33.010	0.100
289.600	-25.879	0.100
289.700	-38.063	0.100
289.800	-37.550	0.100
289.900	-26.854	0.100
290.000	-36.667	0.100
290.100	-39.326	0.100
290.200	-29.616	0.100
290.300	-36.774	0.100
290.400	-33.190	0.100
290.500	-22.807	0.100
290.600	-36.841	0.100
290.700	-29.226	0.100
290.800	-39.377	0.100
290.900	-41.349	0.100
291.000	-21.919	0.100
291.100	-35.256	0.100
291.200	-39.359	0.100
291.300	-28.242	0.100
291.400	-38.194	0.100
291.500	-27.817	0.100
291.600	-33.672	0.100
291.700	-22.418	0.100
291.800	-27.237	0.100
291.900	-38.043	0.100
292.000	-41.161	0.100
292.100	-32.807	0.100
292.200	-28.748	0.100
292.300	-21.234	0.100
292.400	-23.776	0.100
292.500	-33.240	0.100
292.600	-33.607	0.100
292.700	-34.478	0.100
292.800	-17.491	0.100
292.900	-33.500	0.100
293.000	-38.260	0.100
293.100	-33.775	0.100
293.200	-33.111	0.100
293.300	-33.042	0.100
293.400	-30.962	0.100
293.500	-30.782	0.100
293.600	-39.221	0.100
293.700	-29.878	0.100
293.800	-23.612	0.100
293.900	-23.187	0.100
294.000	-23.060	0.100
294.100	-32.814	0.100
294.200	-30.292	0.100
294.300	-40.370	0.100
294.400	-31.059	0.100
294.500	-21.620	0.100
294.600	-19.793	0.100
294.700	-24.688	0.100
294.800	-29.642	0.100
294.900	-31.949	0.100
295.000	-33.628	0.100
295.100	-26.568	0.100
295.200	-27.600	0.100
295.300	-26.354	0.100
295.400	-19.543	0.100
295.500	-32.105	0.100
295.600	-20.514	0.100
295.700	-31.031	0.100
295.800	-34.263	0.100
295.900	-23.566	0.100
296.000	-38.960	0.100
296.100	-23.931	0.100
296.200	-23.097	0.100
296.300	-29.159	0.100
296.400	-30.675	0.100
296.500	-17.043	0.100
296.600	-39.574	0.100
296.700	-47.957	0.100
296.800	-27.123	0.100
296.900	-18.156	0.100
297.000	-23.266	0.100
297.100	-37.849	0.100
297.200	-31.876	0.100
297.300	-34.620	0.100
297.400	-21.009	0.100
297.500	-33.604	0.100
297.600	-22.868	0.100
297.700	-41.900	0.100
297.800	-38.921	0.100
297.900	-29.517	0.100
298.000	-24.596	0.100
298.100	-21.273	0.100
298.200	-21.227	0.100
298.300	-34.927	0.100
298.400	-27.135	0.100
298.500	-31.219	0.100
298.600	-22.520	0.100
298.700	-31.599	0.100
298.800	-34.467	0.100
298.900	-25.551	0.100
299.000	-26.286	0.100
299.100	-27.100	0.100
299.200	-15.922	0.100
299.300	-30.861	0.100
299.400	-34.047	0.100
299.500	-37.574	0.100
299.600	-38.763	0.100
299.700	-27.439	0.100
299.800	-28.810	0.100
299.900	-30.199	0.100
300.000	-22.261	0.100
300.100	-28.064	0.100
300.200	-34.987	0.100
300.300	-26.807	0.100
300.400	-26.166	0.100
300.500	-25.219	0.100
300.600	-28.744	0.100
300.700	-27.788	0.100
300.800	-31.659	0.100
300.900	-25.190	0.100
301.000	-21.482	0.100
301.100	-13.793	0.100
301.200	-38.775	0.100
301.300	-38.166	0.100
301.400	-22.227	0.100
301.500	-31.886	0.100
301.600	-16.868	0.100
301.700	-15.744	0.100
301.800	-15.559	0.100
301.900	-28.482	0.100
302.000	-44.122	0.100
302.100	-27.920	0.100
302.200	-13.553	0.100
302.300	-28.127	0.100
302.400	-35.822	0.100
302.500	-32.345	0.100
302.600	-26.472	0.100
302.700	-18.954	0.100
302.800	-33.301	0.100
302.900	-27.670	0.100
303.000	-20.607	0.100
303.100	-24.038	0.100
303.200	-26.149	0.100
303.300	-29.702	0.100
303.400	-27.873	0.100
303.500	-29.433	0.100
303.600	-22.501	0.100
303.700	-39.065	0.100
303.800	-27.584	0.100
303.900	-34.196	0.100
304.000	-22.868	0.100
304.100	-26.353	0.100
304.200	-33.572	0.100
304.300	-20.192	0.100
304.400	-35.407	0.100
304.500	-32.984	0.100
304.600	-29.843	0.100
304.700	-26.981	0.100
304.800	-23.240	0.100
304.900	-16.475	0.100
305.000	-23.713	0.100
305.100	-31.865	0.100
305.200	-26.480	0.100
305.300	-28.074	0.100
305.400	-29.475	0.100
305.500	-27.497	0.100
305.600	-22.877	0.100
305.700	-14.500	0.100
305.800	-34.287	0.100
305.900	-29.005	0.100
306.000	-29.836	0.100
306.100	-30.626	0.100
306.200	-17.321	0.100
306.300	-6.381	0.100
306.400	-15.060	0.100
306.500	-22.414	0.100
306.600	-31.949	0.100
306.700	-27.081	0.100
306.800	-25.477	0.100
306.900	-33.408	0.100
307.000	-33.139	0.100
307.100	-15.959	0.100
307.200	-28.691	0.100
307.300	-33.795	0.100
307.400	-25.722	0.100
307.500	-27.026	0.100
307.600	-36.079	0.100
307.700	-15.880	0.100
307.800	-32.368	0.100
307.900	-20.475	0.100
308.000	-33.168	0.100
308.100	-24.495	0.100
308.200	-18.109	0.100
308.300	-23.269	0.100
308.400	-28.621	0.100
308.500	-18.250	0.100
308.600	-28.994	0.100
308.700	-20.364	0.100
308.800	-23.606	0.100
308.900	-40.646	0.100
309.000	-32.624	0.100
309.100	-25.412	0.100
309.200	-15.215	0.100
309.300	-32.445	0.100
309.400	-32.343	0.100
309.500	-39.971	0.100
309.600	-31.382	0.100
309.700	-20.910	0.100
309.800	-30.135	0.100
309.900	-16.035	0.100
310.000	-25.622	0.100
310.100	-21.470	0.100
310.200	-24.948	0.100
310.300	-18.930	0.100
310.400	-15.737	0.100
310.500	-27.858	0.100
310.600	-25.644	0.100
310.700	-23.887	0.100
310.800	-31.343	0.100
310.900	-33.526	0.100
311.000	-15.396	0.100
311.100	-23.547	0.100
311.200	-24.705	0.100
311.300	-29.337	0.100
311.400	-33.334	0.100
311.500	-35.194	0.100
311.600	-14.907	0.100
311.700	-19.809	0.100
311.800	-22.172	0.100
311.900	-16.473	0.100
312.000	-23.576	0.100
312.100	-21.652	0.100
312.200	-31.192	0.100
312.300	-19.714	0.100
312.400	-21.930	0.100
312.500	-34.456	0.100
312.600	-27.306	0.100
312.700	-28.891	0.100
312.800	-34.511	0.100
312.900	-29.427	0.100
313.000	-27.970	0.100
313.100	-28.187	0.100
313.200	-14.685	0.100
313.300	-37.038	0.100
313.400	-22.633	0.100
313.500	-35.521	0.100
313.600	-22.052	0.100
313.700	-25.522	0.100
313.800	-35.723	0.100
313.900	-29.659	0.100
314.000	-36.218	0.100
314.100	-10.529	0.100
314.200	-26.498	0.100
314.300	-19.505	0.100
314.400	-27.241	0.100
314.500	-16.345	0.100
314.600	-23.137	0.100
314.700	-33.636	0.100
314.800	-26.328	0.100
314.900	-20.530	0.100
315.000	-13.434	0.100
315.100	-19.453	0.100
315.200	-27.928	0.100
315.300	-30.289	0.100
315.400	-16.885	0.100
315.500	-19.517	0.100
315.600	-22.051	0.100
315.700	-18.399	0.100
315.800	-23.398	0.100
315.900	-35.160	0.100
316.000	-25.846	0.100
316.100	-21.085	0.100
316.200	-23.632	0.100
316.300	-16.798	0.100
316.400	-32.232	0.100
316.500	-19.671	0.100
316.600	-27.802	0.100
316.700	-24.878	0.100
316.800	-13.939	0.100
316.900	-25.203	0.100
317.000	-22.928	0.100
317.100	-37.055	0.100
317.200	-16.335	0.100
317.300	-27.969	0.100
317.400	-14.161	0.100
317.500	-23.004	0.100
317.600	-27.750	0.100
317.700	-36.417	0.100
317.800	-19.512	0.100
317.900	-34.399	0.100
318.000	-26.660	0.100
318.100	-24.061	0.100
318.200	-40.915	0.100
318.300	-27.028	0.100
318.400	-16.143	0.100
318.500	-21.415	0.100
318.600	-26.583	0.100
318.700	-21.018	0.100
318.800	-16.195	0.100
318.900	-28.226	0.100
319.000	-20.961	0.100
319.100	-30.079	0.100
319.200	-23.589	0.100
319.300	-22.697	0.100
319.400	-25.826	0.100
319.500	-39.305	0.100
319.600	-19.114	0.100
319.700	-12.647	0.100
319.800	-42.079	0.100
319.900	-30.265	0.100
320.000	-17.064	0.100
320.100	-27.005	0.100
320.200	-25.929	0.100
320.300	-18.554	0.100
320.400	-26.716	0.100
320.500	-29.083	0.100
320.600	-10.645	0.100
320.700	-29.112	0.100
320.800	-10.663	0.100
320.900	-19.472	0.100
321.000	-26.455	0.100
321.100	-24.157	0.100
321.200	-21.703	0.100
321.300	-22.106	0.100
321.400	-30.206	0.100
321.500	-24.513	0.100
321.600	-17.645	0.100
321.700	-19.710	0.100
321.800	-29.307	0.100
321.900	-36.281	0.100
322.000	-27.506	0.100
322.100	-26.525	0.100
322.200	-17.664	0.100
322.300	-17.463	0.100
322.400	-25.471	0.100
322.500	-33.845	0.100
322.600	-26.914	0.100
322.700	-26.116	0.100
322.800	-25.372	0.100
322.900	-18.420	0.100
323.000	-23.878	0.100
323.100	-39.382	0.100
323.200	-29.321	0.100
323.300	-14.664	0.100
323.400	-20.406	0.100
323.500	-22.807	0.100
323.600	-29.534	0.100
323.700	-27.042	0.100
323.800	-31.998	0.100
323.900	-33.836	0.100
324.000	-18.467	0.100
324.100	-19.862	0.100
324.200	-28.413	0.100
324.300	-24.581	0.100
324.400	-14.340	0.100
324.500	-17.037	0.100
324.600	-19.738	0.100
324.700	-35.801	0.100
324.800	-26.143	0.100
324.900	-29.733	0.100
325.000	-5.777	0.100
325.100	-21.845	0.100
325.200	-26.446	0.100
325.300	-25.576	0.100
325.400	-26.004	0.100
325.500	-23.538	0.100
325.600	-20.078	0.100
325.700	-19.687	0.100
325.800	-14.990	0.100
325.900	-27.330	0.100
326.000	-21.684	0.100
326.100	-15.221	0.100
326.200	-17.659	0.100
326.300	-23.034	0.100
326.400	-24.287	0.100
326.500	-11.858	0.100
326.600	-8.841	0.100
326.700	-19.955	0.100
326.800	-19.924	0.100
326.900	-26.226	0.100
327.000	-26.847	0.100
327.100	-15.456	0.100
327.200	-21.614	0.100
327.300	-21.241	0.100
327.400	-28.318	0.100
327.500	-18.618	0.100
327.600	-22.003	0.100
327.700	-26.088	0.100
327.800	-32.178	0.100
327.900	-19.565	0.100
328.000	-17.671	0.100
328.100	-16.511	0.100
328.200	-35.783	0.100
328.300	-22.945	0.100
328.400	-21.202	0.100
328.500	-26.875	0.100
328.600	-13.670	0.100
328.700	-20.823	0.100
328.800	-24.333	0.100
328.900	-27.221	0.100
329.000	-12.027	0.100
329.100	-19.331	0.100
329.200	-16.318	0.100
329.300	-27.219	0.100
329.400	-27.685	0.100
329.500	-22.804	0.100
329.600	-22.666	0.100
329.700	-17.892	0.100
329.800	-20.203	0.100
329.900	-29.933	0.100
330.000	-18.493	0.100
330.100	-26.263	0.100
330.200	-4.122	0.100
330.300	-6.348	0.100
330.400	8.021	0.100
330.500	-6.216	0.100
330.600	4.800	0.100
330.700	11.491	0.100
330.800	25.177	0.100
330.900	2.009	0.100
331.000	18.037	0.100
331.100	29.121	0.100
331.200	15.709	0.100
331.300	4.006	0.100
331.400	17.078	0.100
331.500	20.041	0.100
331.600	6.180	0.100
331.700	8.847	0.100
331.800	13.909	0.100
331.900	7.331	0.100
332.000	10.543	0.100
332.100	15.241	0.100
332.200	25.231	0.100
332.300	8.099	0.100
332.400	14.893	0.100
332.500	2.978	0.100
332.600	11.203	0.100
332.700	10.172	0.100
332.800	3.106	0.100
332.900	-0.011	0.100
333.000	7.286	0.100
333.100	0.071	0.100
333.200	11.967	0.100
333.300	-0.720	0.100
333.400	6.040	0.100
333.500	-6.235	0.100
333.600	7.670	0.100
333.700	-3.891	0.100
333.800	7.409	0.100
333.900	12.844	0.100
334.000	10.386	0.100
334.100	3.797	0.100
334.200	8.907	0.100
334.300	-0.358	0.100
334.400	2.494	0.100
334.500	11.576	0.100
334.600	11.522	0.100
334.700	-1.366	0.100
334.800	-0.422	0.100
334.900	16.335	0.100
335.000	14.766	0.100
335.100	13.972	0.100
335.200	0.373	0.100
335.300	4.085	0.100
335.400	-7.439	0.100
335.500	-7.205	0.100
335.600	11.763	0.100
335.700	11.636	0.100
335.800	2.746	0.100
335.900	2.973	0.100
336.000	3.390	0.100
336.100	-2.480	0.100
336.200	8.950	0.100
336.300	15.463	0.100
336.400	-3.581	0.100
336.500	1.630	0.100
336.600	0.482	0.100
336.700	8.517	0.100
336.800	4.705	0.100
336.900	3.424	0.100
337.000	8.780	0.100
337.100	10.577	0.100
337.200	-1.352	0.100
337.300	17.642	0.100
337.400	3.910	0.100
337.500	14.327	0.100
337.600	9.436	0.100
337.700	8.755	0.100
337.800	4.651	0.100
337.900	16.473	0.100
338.000	14.824	0.100
338.100	6.702	0.100
338.200	25.988	0.100
338.300	19.634	0.100
338.400	10.364	0.100
338.500	18.231	0.100
338.600	13.216	0.100
338.700	7.733	0.100
338.800	-1.528	0.100
338.900	-2.462	0.100
339.000	21.146	0.100
339.100	32.411	0.100
339.200	23.148	0.100
339.300	13.735	0.100
339.400	7.758	0.100
339.500	12.907	0.100
339.600	19.849	0.100
339.700	14.231	0.100
339.800	20.813	0.100
339.900	18.717	0.100
340.000	7.370	0.100
340.100	16.978	0.100
340.200	24.211	0.100
340.300	30.401	0.100
340.400	17.983	0.100
340.500	22.523	0.100
340.600	5.881	0.100
340.700	1.956	0.100
340.800	20.222	0.100
340.900	31.261	0.100
341.000	25.967	0.100
341.100	21.026	0.100
341.200	18.127	0.100
341.300	33.316	0.100
341.400	25.365	0.100
341.500	22.673	0.100
341.600	36.809	0.100
341.700	30.479	0.100
341.800	13.293	0.100
341.900	18.780	0.100
342.000	29.756	0.100
342.100	23.482	0.100
342.200	32.502	0.100
342.300	29.985	0.100
342.400	28.299	0.100
342.500	27.966	0.100
342.600	27.669	0.100
342.700	40.296	0.100
342.800	35.918	0.100
342.900	40.684	0.100
343.000	34.525	0.100
343.100	44.406	0.100
343.200	33.098	0.100
343.300	33.482	0.100
343.400	35.854	0.100
343.500	31.308	0.100
343.600	31.816	0.100
343.700	25.240	0.100
343.800	38.444	0.100
343.900	41.053	0.100
344.000	24.128	0.100
344.100	44.914	0.100
344.200	45.104	0.100
344.300	44.179	0.100
344.400	41.281	0.100
344.500	35.854	0.100
344.600	40.826	0.100
344.700	50.380	0.100
344.800	42.462	0.100
344.900	37.801	0.100
345.000	38.320	0.100
345.100	44.100	0.100
345.200	35.368	0.100
345.300	35.845	0.100
345.400	54.736	0.100
345.500	42.388	0.100
345.600	43.200	0.100
345.700	31.002	0.100
345.800	43.380	0.100
345.900	41.721	0.100
346.000	44.942	0.100
346.100	48.735	0.100
346.200	44.945	0.100
346.300	35.764	0.100
346.400	41.185	0.100
346.500	38.546	0.100
346.600	35.741	0.100
346.700	40.703	0.100
346.800	44.350	0.100
346.900	46.555	0.100
347.000	41.238	0.100
347.100	40.373	0.100
347.200	47.244	0.100
347.300	48.792	0.100
347.400	45.292	0.100
347.500	40.152	0.100
347.600	51.067	0.100
347.700	49.738	0.100
347.800	50.112	0.100
347.900	32.204	0.100
348.000	34.956	0.100
348.100	42.893	0.100
348.200	60.756	0.100
348.300	53.250	0.100
348.400	43.419	0.100
348.500	43.903	0.100
348.600	55.441	0.100
348.700	50.211	0.100
348.800	51.290	0.100
348.900	42.972	0.100
349.000	48.196	0.100
349.100	53.998	0.100
349.200	40.951	0.100
349.300	48.349	0.100
349.400	44.038	0.100
349.500	50.848	0.100
349.600	43.087	0.100
349.700	49.002	0.100
349.800	42.445	0.100
349.900	45.703	0.100
350.000	50.471	0.100
350.100	36.148	0.100
350.200	37.958	0.100
350.300	54.828	0.100
350.400	49.536	0.100
350.500	56.966	0.100
350.600	49.573	0.100
350.700	32.555	0.100
350.800	68.798	0.100
350.900	46.685	0.100
351.000	40.370	0.100
351.100	47.420	0.100
351.200	47.672	0.100
351.300	49.476	0.100
351.400	52.301	0.100
351.500	52.379	0.100
351.600	53.578	0.100
351.700	47.737	0.100
351.800	36.229	0.100
351.900	34.751	0.100
352.000	56.418	0.100
352.100	40.133	0.100
352.200	44.966	0.100
352.300	41.826	0.100
352.400	41.415	0.100
352.500	44.307	0.100
352.600	54.444	0.100
352.700	45.900	0.100
352.800	46.200	0.100
352.900	49.119	0.100
353.000	43.025	0.100
353.100	58.524	0.100
353.200	51.186	0.100
353.300	41.877	0.100
353.400	53.858	0.100
353.500	47.760	0.100
353.600	41.757	0.100
353.700	55.231	0.100
353.800	38.263	0.100
353.900	68.602	0.100
354.000	51.865	0.100
354.100	40.780	0.100
354.200	42.486	0.100
354.300	49.679	0.100
354.400	45.613	0.100
354.500	45.545	0.100
354.600	53.364	0.100
354.700	43.811	0.100
354.800	45.942	0.100
354.900	47.303	0.100
355.000	42.615	0.100
355.100	40.169	0.100
355.200	38.798	0.100
355.300	46.995	0.100
355.400	59.115	0.100
355.500	50.701	0.100
355.600	49.396	0.100
355.700	45.583	0.100
355.800	41.088	0.100
355.900	53.936	0.100
356.000	53.842	0.100
356.100	52.177	0.100
356.200	51.116	0.100
356.300	51.168	0.100
356.400	37.750	0.100
356.500	45.880	0.100
356.600	51.650	0.100
356.700	47.498	0.100
356.800	47.196	0.100
356.900	56.363	0.100
357.000	34.395	0.100
357.100	35.499	0.100
357.200	59.853	0.100
357.300	60.291	0.100
357.400	47.460	0.100
357.500	38.462	0.100
357.600	47.126	0.100
357.700	50.889	0.100
357.800	44.805	0.100
357.900	50.520	0.100
358.000	50.148	0.100
358.100	47.789	0.100
358.200	32.079	0.100
358.300	49.679	0.100
358.400	56.121	0.100
358.500	51.415	0.100
358.600	32.697	0.100
358.700	46.357	0.100
358.800	53.139	0.100
358.900	58.595	0.100
359.000	46.749	0.100
359.100	45.451	0.100
359.200	46.853	0.100
359.300	46.318	0.100
359.400	38.588	0.100
359.500	46.814	0.100
359.600	50.776	0.100
359.700	42.136	0.100
359.800	35.839	0.100
359.900	45.696	0.100
360.000	51.994	0.100
360.100	56.995	0.100
360.200	59.418	0.100
360.300	44.702	0.100
360.400	44.028	0.100
360.500	34.068	0.100
360.600	52.931	0.100
360.700	48.081	0.100
360.800	60.230	0.100
360.900	49.153	0.100
361.000	46.136	0.100
361.100	38.462	0.100
361.200	40.507	0.100
361.300	50.881	0.100
361.400	48.144	0.100
361.500	49.412	0.100
361.600	39.853	0.100
361.700	38.270	0.100
361.800	48.792	0.100
361.900	49.670	0.100
362.000	54.425	0.100
362.100	49.165	0.100
362.200	51.700	0.100
362.300	44.693	0.100
362.400	43.192	0.100
362.500	32.105	0.100
362.600	49.488	0.100
362.700	34.916	0.100
362.800	38.766	0.100
362.900	42.301	0.100
363.000	41.952	0.100
363.100	43.872	0.100
363.200	47.815	0.100
363.300	48.332	0.100
363.400	55.771	0.100
363.500	44.344	0.100
363.600	37.992	0.100
363.700	37.221	0.100
363.800	47.148	0.100
363.900	56.673	0.100
364.000	46.937	0.100
364.100	52.308	0.100
364.200	45.743	0.100
364.300	41.160	0.100
364.400	42.622	0.100
364.500	52.471	0.100
364.600	41.007	0.100
364.700	51.989	0.100
364.800	38.543	0.100
364.900	56.124	0.100
365.000	51.289	0.100
365.100	42.989	0.100
365.200	33.981	0.100
365.300	35.935	0.100
365.400	49.848	0.100
365.500	41.097	0.100
365.600	59.450	0.100
365.700	48.112	0.100
365.800	45.833	0.100
365.900	34.925	0.100
366.000	50.340	0.100
366.100	33.011	0.100
366.200	44.373	0.100
366.300	51.468	0.100
366.400	49.430	0.100
366.500	48.810	0.100
366.600	53.829	0.100
366.700	31.444	0.100
366.800	45.862	0.100
366.900	47.461	0.100
367.000	34.597	0.100
367.100	40.595	0.100
367.200	49.700	0.100
367.300	38.425	0.100
367.400	38.528	0.100
367.500	36.838	0.100
367.600	38.751	0.100
367.700	49.465	0.100
367.800	44.902	0.100
367.900	48.557	0.100
368.000	44.042	0.100
368.100	53.541	0.100
368.200	36.910	0.100
368.300	53.370	0.100
368.400	46.320	0.100
368.500	45.319	0.100
368.600	52.583	0.100
368.700	36.945	0.100
368.800	37.515	0.100
368.900	34.103	0.100
369.000	45.852	0.100
369.100	39.662	0.100
369.200	42.711	0.100
369.300	38.466	0.100
369.400	40.379	0.100
369.500	55.665	0.100
369.600	42.160	0.100
369.700	50.840	0.100
369.800	52.241	0.100
369.900	41.919	0.100
370.000	27.593	0.100
370.100	37.995	0.100
370.200	56.133	0.100
370.300	46.258	0.100
370.400	45.185	0.100
370.500	41.224	0.100
370.600	49.510	0.100
370.700	33.710	0.100
370.800	65.096	0.100
370.900	47.200	0.100
371.000	39.163	0.100
371.100	37.710	0.100
371.200	45.615	0.100
371.300	50.106	0.100
371.400	44.791	0.100
371.500	45.294	0.100
371.600	32.295	0.100
371.700	35.858	0.100
371.800	48.146	0.100
371.900	51.457	0.100
372.000	47.403	0.100
372.100	42.942	0.100
372.200	46.379	0.100
372.300	33.512	0.100
372.400	38.502	0.100
372.500	45.720	0.100
372.600	55.652	0.100
372.700	50.986	0.100
372.800	36.631	0.100
372.900	34.736	0.100
373.000	34.537	0.100
373.100	47.597	0.100
373.200	30.801	0.100
373.300	43.509	0.100
373.400	38.252	0.100
373.500	33.172	0.100
373.600	51.092	0.100
373.700	41.500	0.100
373.800	40.895	0.100
373.900	36.537	0.100
374.000	49.191	0.100
374.100	42.285	0.100
374.200	46.933	0.100
374.300	52.090	0.100
374.400	44.004	0.100
374.500	40.810	0.100
374.600	36.289	0.100
374.700	46.908	0.100
374.800	40.386	0.100
374.900	30.641	0.100
375.000	43.045	0.100
375.100	44.563	0.100
375.200	44.103	0.100
375.300	36.896	0.100
375.400	48.276	0.100
375.500	39.913	0.100
375.600	35.702	0.100
375.700	52.736	0.100
375.800	41.267	0.100
375.900	32.644	0.100
376.000	53.308	0.100
376.100	46.841	0.100
376.200	44.213	0.100
376.300	38.954	0.100
376.400	43.964	0.100
376.500	42.127	0.100
376.600	51.686	0.100
376.700	55.430	0.100
376.800	44.180	0.100
376.900	47.925	0.100
377.000	41.685	0.100
377.100	43.525	0.100
377.200	39.394	0.100
377.300	49.651	0.100
377.400	44.211	0.100
377.500	38.859	0.100
377.600	28.991	0.100
377.700	48.964	0.100
377.800	49.954	0.100
377.900	41.244	0.100
378.000	47.015	0.100
378.100	44.310	0.100
378.200	42.605	0.100
378.300	51.627	0.100
378.400	29.946	0.100
378.500	40.526	0.100
378.600	46.882	0.100
378.700	38.887	0.100
378.800	43.027	0.100
378.900	50.768	0.100
379.000	35.671	0.100
379.100	39.171	0.100
379.200	35.925	0.100
379.300	33.791	0.100
379.400	39.060	0.100
379.500	46.624	0.100
379.600	49.261	0.100
379.700	42.295	0.100
379.800	31.805	0.100
379.900	39.967	0.100
380.000	33.971	0.100
380.100	56.319	0.100
380.200	40.824	0.100
380.300	33.881	0.100
380.400	42.246	0.100
380.500	52.226	0.100
380.600	44.766	0.100
380.700	37.721	0.100
380.800	38.870	0.100
380.900	33.882	0.100
381.000	37.210	0.100
381.100	37.731	0.100
381.200	43.066	0.100
381.300	47.195	0.100
381.400	47.938	0.100
381.500	39.087	0.100
381.600	43.500	0.100
381.700	40.969	0.100
381.800	43.273	0.100
381.900	39.254	0.100
382.000	41.640	0.100
382.100	38.581	0.100
382.200	55.211	0.100
382.300	46.326	0.100
382.400	27.401	0.100
382.500	40.089	0.100
382.600	43.161	0.100
382.700	42.723	0.100
382.800	33.036	0.100
382.900	35.466	0.100
383.000	39.864	0.100
383.100	43.484	0.100
383.200	30.705	0.100
383.300	33.306	0.100
383.400	42.590	0.100
383.500	39.099	0.100
383.600	38.802	0.100
383.700	36.236	0.100
383.800	39.615	0.100
383.900	41.684	0.100
384.000	37.934	0.100
384.100	44.617	0.100
384.200	34.982	0.100
384.300	36.285	0.100
384.400	39.571	0.100
384.500	40.604	0.100
384.600	39.282	0.100
384.700	42.760	0.100
384.800	37.450	0.100
384.900	45.359	0.100
385.000	59.942	0.100
385.100	35.248	0.100
385.200	37.545	0.100
385.300	35.667	0.100
385.400	42.141	0.100
385.500	34.676	0.100
385.600	38.899	0.100
385.700	31.674	0.100
385.800	38.209	0.100
385.900	43.761	0.100
386.000	36.069	0.100
386.100	42.928	0.100
386.200	46.183	0.100
386.300	38.551	0.100
386.400	32.823	0.100
386.500	37.373	0.100
386.600	46.169	0.100
386.700	52.240	0.100
386.800	41.680	0.100
386.900	27.457	0.100
387.000	37.468	0.100
387.100	42.989	0.100
387.200	41.718	0.100
387.300	44.879	0.100
387.400	41.179	0.100
387.500	35.715	0.100
387.600	41.660	0.100
387.700	38.040	0.100
387.800	32.997	0.100
387.900	42.338	0.100
388.000	38.717	0.100
388.100	30.394	0.100
388.200	17.148	0.100
388.300	42.300	0.100
388.400	48.340	0.100
388.500	40.879	0.100
388.600	22.060	0.100
388.700	33.297	0.100
388.800	44.042	0.100
388.900	43.830	0.100
389.000	36.766	0.100
389.100	30.531	0.100
389.200	49.610	0.100
389.300	32.096	0.100
389.400	36.203	0.100
389.500	49.800	0.100
389.600	42.986	0.100
389.700	29.211	0.100
389.800	44.495	0.100
389.900	30.975	0.100
390.000	29.289	0.100
390.100	31.377	0.100
390.200	21.159	0.100
390.300	22.007	0.100
390.400	12.635	0.100
390.500	10.329	0.100
390.600	11.776	0.100
390.700	25.641	0.100
390.800	9.279	0.100
390.900	6.915	0.100
391.000	-9.271	0.100
391.100	-12.512	0.100
391.200	0.724	0.100
391.300	-5.637	0.100
391.400	-5.490	0.100
391.500	-4.129	0.100
391.600	-23.944	0.100
391.700	-18.134	0.100
391.800	-1.273	0.100
391.900	-7.512	0.100
392.000	-8.733	0.100
392.100	-27.517	0.100
392.200	-18.170	0.100
392.300	-12.439	0.100
392.400	-5.613	0.100
392.500	-11.551	0.100
392.600	-10.938	0.100
392.700	-26.945	0.100
392.800	-25.547	0.100
392.900	-14.505	0.100
393.000	-15.507	0.100
393.100	-22.165	0.100
393.200	-17.231	0.100
393.300	-23.607	0.100
393.400	-27.621	0.100
393.500	-21.080	0.100
393.600	-22.362	0.100
393.700	-25.901	0.100
393.800	-17.705	0.100
393.900	-19.763	0.100
394.000	-20.326	0.100
394.100	-23.493	0.100
394.200	-21.708	0.100
394.300	-28.647	0.100
394.400	-26.707	0.100
394.500	-35.725	0.100
394.600	-36.595	0.100
394.700	-26.980	0.100
394.800	-30.754	0.100
394.900	-22.728	0.100
395.000	-13.496	0.100
395.100	-24.462	0.100
395.200	-27.670	0.100
395.300	-25.247	0.100
395.400	-24.225	0.100
395.500	-30.993	0.100
395.600	-31.797	0.100
395.700	-23.316	0.100
395.800	-19.763	0.100
395.900	-27.021	0.100
396.000	-24.216	0.100
396.100	-31.055	0.100
396.200	-23.076	0.100
396.300	-28.537	0.100
396.400	-16.117	0.100
396.500	-3.120	0.100
396.600	-13.932	0.100
396.700	-22.701	0.100
396.800	-24.915	0.100
396.900	-22.288	0.100
397.000	-26.839	0.100
397.100	-13.753	0.100
397.200	-11.625	0.100
397.300	-29.457	0.100
397.400	-32.726	0.100
397.500	-18.754	0.100
397.600	-20.790	0.100
397.700	-35.328	0.100
397.800	-19.364	0.100
397.900	-17.742	0.100
398.000	-33.793	0.100
398.100	-21.453	0.100
398.200	-26.488	0.100
398.300	-9.167	0.100
398.400	-16.497	0.100
398.500	-16.317	0.100
398.600	-15.229	0.100
398.700	-19.998	0.100
398.800	-12.231	0.100
398.900	-22.025	0.100
399.000	-19.335	0.100
399.100	-24.673	0.100
399.200	-27.817	0.100
399.300	-21.864	0.100
399.400	-22.322	0.100
399.500	-19.155	0.100
399.600	-11.182	0.100
399.700	-21.607	0.100
399.800	-13.158	0.100
399.900	-22.098	0.100
400.000	-11.789	0.100
400.100	-15.386	0.100
400.200	-21.136	0.100
400.300	-21.662	0.100
400.400	-25.932	0.100
400.500	-26.873	0.100
400.600	-13.905	0.100
400.700	-18.822	0.100
400.800	-20.667	0.100
400.900	-22.690	0.100
401.000	-25.897	0.100
401.100	-26.221	0.100
401.200	-29.517	0.100
401.300	-19.604	0.100
401.400	-24.724	0.100
401.500	-13.680	0.100
401.600	-32.744	0.100
401.700	-15.504	0.100
401.800	-15.914	0.100
401.900	-26.490	0.100
402.000	-22.572	0.100
402.100	-14.543	0.100
402.200	-26.764	0.100
402.300	-20.460	0.100
402.400	-12.479	0.100
402.500	-21.126	0.100
402.600	-24.611	0.100
402.700	-23.717	0.100
402.800	-30.624	0.100
402.900	-27.309	0.100
403.000	-16.915	0.100
403.100	-11.277	0.100
403.200	-34.817	0.100
403.300	-21.000	0.100
403.400	-37.864	0.100
403.500	-19.823	0.100
403.600	-17.396	0.100
403.700	-27.738	0.100
403.800	-19.283	0.100
403.900	-32.967	0.100
404.000	-27.898	0.100
404.100	-17.058	0.100
404.200	-16.294	0.100
404.300	-31.859	0.100
404.400	-23.383	0.100
404.500	-17.945	0.100
404.600	-19.736	0.100
404.700	-18.310	0.100
404.800	-16.604	0.100
404.900	-21.288	0.100
405.000	-32.411	0.100
405.100	-33.785	0.100
405.200	-34.987	0.100
405.300	-24.726	0.100
405.400	-21.656	0.100
405.500	-18.786	0.100
405.600	-25.705	0.100
405.700	-26.534	0.100
405.800	-22.583	0.100
405.900	-30.824	0.100
406.000	-12.373	0.100
406.100	-21.281	0.100
406.200	-23.049	0.100
406.300	-28.556	0.100
406.400	-44.333	0.100
406.500	-19.336	0.100
406.600	-21.737	0.100
406.700	-26.713	0.100
406.800	-22.747	0.100
406.900	-27.446	0.100
407.000	-16.169	0.100
407.100	-20.636	0.100
407.200	-17.948	0.100
407.300	-11.526	0.100
407.400	-22.174	0.100
407.500	-25.037	0.100
407.600	-23.475	0.100
407.700	-25.446	0.100
407.800	-25.923	0.100
407.900	-20.563	0.100
408.000	-19.825	0.100
408.100	-28.650	0.100
408.200	-30.486	0.100
408.300	-23.327	0.100
408.400	-28.440	0.100
408.500	-22.954	0.100
408.600	-38.058	0.100
408.700	-25.050	0.100
408.800	-36.080	0.100
408.900	-21.413	0.100
409.000	-32.554	0.100
409.100	-26.957	0.100
409.200	-29.591	0.100
409.300	-29.358	0.100
409.400	-17.767	0.100
409.500	-10.475	0.100
409.600	-20.765	0.100
409.700	-38.411	0.100
409.800	-31.976	0.100
409.900	-33.802	0.100
410.000	-15.203	0.100
410.100	-15.768	0.100
410.200	-22.096	0.100
410.300	-29.564	0.100
410.400	-27.346	0.100
410.500	-34.266	0.100
410.600	-17.313	0.100
410.700	-22.638	0.100
410.800	-24.391	0.100
410.900	-35.448	0.100
411.000	-17.855	0.100
411.100	-38.334	0.100
411.200	-25.555	0.100
411.300	-26.915	0.100
411.400	-21.374	0.100
411.500	-10.769	0.100
411.600	-34.703	0.100
411.700	-27.130	0.100
411.800	-20.743	0.100
411.900	-29.814	0.100
412.000	-30.193	0.100
412.100	-29.614	0.100
412.200	-35.123	0.100
412.300	-21.934	0.100
412.400	-26.624	0.100
412.500	-28.825	0.100
412.600	-16.699	0.100
412.700	-34.991	0.100
412.800	-22.305	0.100
412.900	-19.779	0.100
413.000	-16.555	0.100
413.100	-29.469	0.100
413.200	-32.639	0.100
413.300	-31.245	0.100
413.400	-27.310	0.100
413.500	-21.990	0.100
413.600	-28.269	0.100
413.700	-40.222	0.100
413.800	-31.928	0.100
413.900	-20.202	0.100
414.000	-32.037	0.100
414.100	-23.811	0.100
414.200	-30.972	0.100
414.300	-29.327	0.100
414.400	-31.987	0.100
414.500	-28.468	0.100
414.600	-25.481	0.100
414.700	-28.523	0.100
414.800	-33.234	0.100
414.900	-22.509	0.100
415.000	-29.321	0.100
415.100	-38.188	0.100
415.200	-36.410	0.100
415.300	-36.936	0.100
415.400	-27.034	0.100
415.500	-22.814	0.100
415.600	-39.543	0.100
415.700	-33.410	0.100
415.800	-31.986	0.100
415.900	-26.802	0.100
416.000	-16.122	0.100
416.100	-17.464	0.100
416.200	-29.465	0.100
416.300	-29.432	0.100
416.400	-30.305	0.100
416.500	-34.434	0.100
416.600	-41.674	0.100
416.700	-26.987	0.100
416.800	-20.262	0.100
416.900	-26.591	0.100
417.000	-33.351	0.100
417.100	-28.692	0.100
417.200	-44.887	0.100
417.300	-39.119	0.100
417.400	-30.554	0.100
417.500	-30.472	0.100
417.600	-26.201	0.100
417.700	-27.635	0.100
417.800	-38.422	0.100
417.900	-33.980	0.100
418.000	-29.867	0.100
418.100	-27.457	0.100
418.200	-24.279	0.100
418.300	-31.997	0.100
418.400	-31.212	0.100
418.500	-28.991	0.100
418.600	-37.771	0.100
418.700	-32.004	0.100
418.800	-25.224	0.100
418.900	-33.310	0.100
419.000	-8.447	0.100
419.100	-33.217	0.100
419.200	-36.819	0.100
419.300	-21.568	0.100
419.400	-23.549	0.100
419.500	-16.117	0.100
419.600	-24.821	0.100
419.700	-27.838	0.100
419.800	-33.698	0.100
419.900	-25.936	0.100
420.000	-29.030	0.100
420.100	-32.205	0.100
420.200	-35.666	0.100
420.300	-34.604	0.100
420.400	-35.764	0.100
420.500	-32.291	0.100
420.600	-27.844	0.100
420.700	-30.058	0.100
420.800	-29.872	0.100
420.900	-49.445	0.100
421.000	-28.792	0.100
421.100	-32.918	0.100
421.200	-24.931	0.100
421.300	-19.021	0.100
421.400	-29.515	0.100
421.500	-29.764	0.100
421.600	-33.719	0.100
421.700	-33.036	0.100
421.800	-27.692	0.100
421.900	-40.327	0.100
422.000	-38.833	0.100
422.100	-28.771	0.100
422.200	-22.522	0.100
422.300	-30.364	0.100
422.400	-22.066	0.100
422.500	-34.428	0.100
422.600	-49.536	0.100
422.700	-34.237	0.100
422.800	-28.591	0.100
422.900	-28.066	0.100
423.000	-40.060	0.100
423.100	-37.271	0.100
423.200	-32.076	0.100
423.300	-29.538	0.100
423.400	-21.369	0.100
423.500	-34.846	0.100
423.600	-37.001	0.100
423.700	-34.076	0.100
423.800	-31.063	0.100
423.900	-32.234	0.100
424.000	-27.433	0.100
424.100	-33.583	0.100
424.200	-27.851	0.100
424.300	-38.258	0.100
424.400	-29.778	0.100
424.500	-32.339	0.100
424.600	-25.915	0.100
424.700	-27.122	0.100
424.800	-41.350	0.100
424.900	-23.104	0.100
425.000	-29.507	0.100
425.100	-44.113	0.100
425.200	-30.545	0.100
425.300	-41.786	0.100
425.400	-29.590	0.100
425.500	-27.175	0.100
425.600	-35.411	0.100
425.700	-33.299	0.100
425.800	-29.914	0.100
425.900	-27.199	0.100
426.000	-33.795	0.100
426.100	-26.320	0.100
426.200	-38.268	0.100
426.300	-27.965	0.100
426.400	-31.941	0.100
426.500	-24.104	0.100
426.600	-27.191	0.100
426.700	-21.349	0.100
426.800	-43.012	0.100
426.900	-42.508	0.100
427.000	-22.891	0.100
427.100	-27.595	0.100
427.200	-47.211	0.100
427.300	-21.796	0.100
427.400	-34.134	0.100
427.500	-47.157	0.100
427.600	-26.545	0.100
427.700	-8.410	0.100
427.800	-27.545	0.100
427.900	-28.990	0.100
428.000	-27.972	0.100
428.100	-18.384	0.100
428.200	-26.621	0.100
428.300	-27.065	0.100
428.400	-23.536	0.100
428.500	-34.940	0.100
428.600	-29.014	0.100
428.700	-30.137	0.100
428.800	-28.162	0.100
428.900	-35.002	0.100
429.000	-40.126	0.100
429.100	-43.813	0.100
429.200	-35.906	0.100
429.300	-37.482	0.100
429.400	-23.724	0.100
429.500	-33.390	0.100
429.600	-22.744	0.100
429.700	-34.552	0.100
429.800	-36.627	0.100
429.900	-38.700	0.100
430.000	-15.003	0.100
430.100	-26.520	0.100
430.200	-36.399	0.100
430.300	-35.820	0.100
430.400	-39.554	0.100
430.500	-39.161	0.100
430.600	-28.384	0.100
430.700	-44.876	0.100
430.800	-33.731	0.100
430.900	-38.240	0.100
431.000	-44.983	0.100
431.100	-30.804	0.100
431.200	-44.103	0.100
431.300	-23.448	0.100
431.400	-24.930	0.100
431.500	-45.373	0.100
431.600	-30.595	0.100
431.700	-22.998	0.100
431.800	-29.484	0.100
431.900	-28.687	0.100
432.000	-35.294	0.100
432.100	-28.769	0.100
432.200	-34.035	0.100
432.300	-27.663	0.100
432.400	-27.054	0.100
432.500	-29.750	0.100
432.600	-38.321	0.100
432.700	-47.866	0.100
432.800	-29.198	0.100
432.900	-34.092	0.100
433.000	-33.049	0.100
433.100	-21.468	0.100
433.200	-33.178	0.100
433.300	-38.868	0.100
433.400	-22.391	0.100
433.500	-24.073	0.100
433.600	-46.077	0.100
433.700	-44.146	0.100
433.800	-26.052	0.100
433.900	-23.144	0.100
434.000	-37.033	0.100
434.100	-13.529	0.100
434.200	-27.171	0.100
434.300	-27.909	0.100
434.400	-38.444	0.100
434.500	-45.459	0.100
434.600	-33.073	0.100
434.700	-25.576	0.100
434.800	-36.496	0.100
434.900	-34.906	0.100
435.000	-36.541	0.100
435.100	-34.780	0.100
435.200	-24.537	0.100
435.300	-30.026	0.100
435.400	-37.199	0.100
435.500	-39.767	0.100
435.600	-24.675	0.100
435.700	-33.517	0.100
435.800	-29.589	0.100
435.900	-29.879	0.100
436.000	-38.270	0.100
436.100	-33.611	0.100
436.200	-35.355	0.100
436.300	-27.355	0.100
436.400	-37.017	0.100
436.500	-27.493	0.100
436.600	-29.134	0.100
436.700	-35.140	0.100
436.800	-30.885	0.100
436.900	-36.747	0.100
437.000	-30.777	0.100
437.100	-16.365	0.100
437.200	-28.119	0.100
437.300	-41.173	0.100
437.400	-33.826	0.100
437.500	-33.581	0.100
437.600	-38.280	0.100
437.700	-25.244	0.100
437.800	-25.626	0.100
437.900	-37.615	0.100
438.000	-19.772	0.100
438.100	-31.373	0.100
438.200	-30.026	0.100
438.300	-42.546	0.100
438.400	-30.913	0.100
438.500	-30.683	0.100
438.600	-30.541	0.100
438.700	-43.938	0.100
438.800	-32.349	0.100
438.900	-33.725	0.100
439.000	-33.511	0.100
439.100	-38.221	0.100
439.200	-31.237	0.100
439.300	-34.330	0.100
439.400	-22.328	0.100
439.500	-36.602	0.100
439.600	-39.111	0.100
439.700	-33.415	0.100
439.800	-30.382	0.100
439.900	-28.656	0.100
440.000	-34.140	0.100
440.100	-32.260	0.100
440.200	-27.132	0.100
440.300	-33.250	0.100
440.400	-40.249	0.100
440.500	-23.621	0.100
440.600	-45.857	0.100
440.700	-30.294	0.100
440.800	-29.748	0.100
440.900	-22.433	0.100
441.000	-30.507	0.100
441.100	-19.266	0.100
441.200	-30.488	0.100
441.300	-13.730	0.100
441.400	-37.041	0.100
441.500	-42.096	0.100
441.600	-30.404	0.100
441.700	-35.144	0.100
441.800	-19.257	0.100
441.900	-44.261	0.100
442.000	-26.283	0.100
442.100	-31.698	0.100
442.200	-35.880	0.100
442.300	-20.824	0.100
442.400	-29.004	0.100
442.500	-32.211	0.100
442.600	-35.681	0.100
442.700	-24.642	0.100
442.800	-37.676	0.100
442.900	-37.314	0.100
443.000	-34.035	0.100
443.100	-17.141	0.100
443.200	-27.786	0.100
443.300	-19.012	0.100
443.400	-25.664	0.100
443.500	-34.120	0.100
443.600	-37.275	0.100
443.700	-23.578	0.100
443.800	-39.763	0.100
443.900	-36.599	0.100
444.000	-22.160	0.100
444.100	-33.964	0.100
444.200	-31.954	0.100
444.300	-25.621	0.100
444.400	-22.532	0.100
444.500	-21.679	0.100
444.600	-24.616	0.100
444.700	-37.024	0.100
444.800	-29.236	0.100
444.900	-31.273	0.100
445.000	-28.671	0.100
445.100	-23.691	0.100
445.200	-40.071	0.100
445.300	-25.493	0.100
445.400	-16.626	0.100
445.500	-20.081	0.100
445.600	-31.174	0.100
445.700	-28.170	0.100
445.800	-32.569	0.100
445.900	-24.370	0.100
446.000	-18.561	0.100
446.100	-29.948	0.100
446.200	-35.132	0.100
446.300	-19.885	0.100
446.400	-34.056	0.100
446.500	-42.838	0.100
446.600	-25.854	0.100
446.700	-29.330	0.100
446.800	-38.710	0.100
446.900	-33.985	0.100
447.000	-27.569	0.100
447.100	-30.334	0.100
447.200	-22.414	0.100
447.300	-38.284	0.100
447.400	-18.892	0.100
447.500	-20.559	0.100
447.600	-22.985	0.100
447.700	-21.938	0.100
447.800	-28.105	0.100
447.900	-38.965	0.100
448.000	-21.527	0.100
448.100	-38.562	0.100
448.200	-23.099	0.100
448.300	-28.359	0.100
448.400	-28.520	0.100
448.500	-34.374	0.100
448.600	-27.547	0.100
448.700	-24.523	0.100
448.800	-25.436	0.100
448.900	-28.643	0.100
449.000	-22.097	0.100
449.100	-28.787	0.100
449.200	-32.549	0.100
449.300	-17.982	0.100
449.400	-18.072	0.100
449.500	-28.893	0.100
449.600	-37.209	0.100
449.700	-33.569	0.100
449.800	-28.856	0.100
449.900	-22.511	0.100
450.000	-27.607	0.100
450.100	-27.823	0.100
450.200	-31.327	0.100
450.300	-20.873	0.100
450.400	-26.502	0.100
450.500	-19.502	0.100
450.600	-29.331	0.100
450.700	-24.971	0.100
450.800	-39.813	0.100
450.900	-34.599	0.100
451.000	-23.177	0.100
451.100	-25.800	0.100
451.200	-31.633	0.100
451.300	-27.275	0.100
451.400	-33.572	0.100
451.500	-33.134	0.100
451.600	-24.091	0.100
451.700	-24.276	0.100
451.800	-32.373	0.100
451.900	-36.746	0.100
452.000	-16.817	0.100
452.100	-26.247	0.100
452.200	-19.682	0.100
452.300	-17.351	0.100
452.400	-18.990	0.100
452.500	-36.039	0.100
452.600	-29.335	0.100
452.700	-21.562	0.100
452.800	-39.580	0.100
452.900	-31.977	0.100
453.000	-19.668	0.100
453.100	-31.853	0.100
453.200	-23.691	0.100
453.300	-31.996	0.100
453.400	-17.487	0.100
453.500	-29.468	0.100
453.600	-34.958	0.100
453.700	-28.872	0.100
453.800	-29.149	0.100
453.900	-34.749	0.100
454.000	-24.477	0.100
454.100	-16.035	0.100
454.200	-41.093	0.100
454.300	-37.612	0.100
454.400	-27.686	0.100
454.500	-17.548	0.100
454.600	-27.545	0.100
454.700	-30.562	0.100
454.800	-32.136	0.100
454.900	-20.208	0.100
455.000	-23.193	0.100
455.100	-33.569	0.100
455.200	-17.959	0.100
455.300	-26.701	0.100
455.400	-33.617	0.100
455.500	-30.855	0.100
455.600	-28.486	0.100
455.700	-32.162	0.100
455.800	-19.970	0.100
455.900	-20.176	0.100
456.000	-22.468	0.100
456.100	-21.834	0.100
456.200	-37.673	0.100
456.300	-26.838	0.100
456.400	-19.952	0.100
456.500	-28.458	0.100
456.600	-18.134	0.100
456.700	-20.477	0.100
456.800	-32.862	0.100
456.900	-26.758	0.100
457.000	-21.441	0.100
457.100	-23.045	0.100
457.200	-19.073	0.100
457.300	-19.756	0.100
457.400	-41.705	0.100
457.500	-22.453	0.100
457.600	-26.162	0.100
457.700	-27.417	0.100
457.800	-35.168	0.100
457.900	-19.442	0.100
458.000	-15.177	0.100
458.100	-25.935	0.100
458.200	-19.366	0.100
458.300	-22.592	0.100
458.400	-25.353	0.100
458.500	-31.906	0.100
458.600	-23.444	0.100
458.700	-24.463	0.100
458.800	-25.433	0.100
458.900	-22.722	0.100
459.000	-43.215	0.100
459.100	-24.500	0.100
459.200	-20.662	0.100
459.300	-14.338	0.100
459.400	-20.021	0.100
459.500	-30.480	0.100
459.600	-28.302	0.100
459.700	-20.914	0.100
459.800	-32.693	0.100
459.900	-20.752	0.100
460.000	-21.522	0.100
460.100	-30.863	0.100
460.200	-19.900	0.100
460.300	-28.701	0.100
460.400	-17.095	0.100
460.500	-18.445	0.100
460.600	-26.755	0.100
460.700	-29.273	0.100
460.800	-21.773	0.100
460.900	-28.961	0.100
461.000	-12.780	0.100
461.100	-15.358	0.100
461.200	-28.624	0.100
461.300	-29.359	0.100
461.400	-27.649	0.100
461.500	-24.803	0.100
461.600	-25.215	0.100
461.700	-32.560	0.100
461.800	-36.992	0.100
461.900	-18.060	0.100
462.000	-18.358	0.100
462.100	-27.357	0.100
462.200	-22.533	0.100
462.300	-26.766	0.100
462.400	-26.536	0.100
462.500	-33.178	0.100
462.600	-24.218	0.100
462.700	-16.728	0.100
462.800	-27.244	0.100
462.900	-11.030	0.100
463.000	-29.774	0.100
463.100	-27.194	0.100
463.200	-39.074	0.100
463.300	-29.848	0.100
463.400	-14.503	0.100
463.500	-16.337	0.100
463.600	-35.516	0.100
463.700	-38.586	0.100
463.800	-33.132	0.100
463.900	-13.676	0.100
464.000	-28.512	0.100
464.100	-26.753	0.100
464.200	-19.274	0.100
464.300	-32.137	0.100
464.400	-41.047	0.100
464.500	-24.486	0.100
464.600	-23.470	0.100
464.700	-15.544	0.100
464.800	-26.558	0.100
464.900	-28.084	0.100
465.000	-20.509	0.100
465.100	-25.548	0.100
465.200	-22.438	0.100
465.300	-17.944	0.100
465.400	-22.600	0.100
465.500	-31.334	0.100
465.600	-28.743	0.100
465.700	-24.575	0.100
465.800	-19.519	0.100
465.900	-35.595	0.100
466.000	-36.030	0.100
466.100	-19.820	0.100
466.200	-12.619	0.100
466.300	-24.408	0.100
466.400	-18.176	0.100
466.500	-33.825	0.100
466.600	-20.150	0.100
466.700	-25.647	0.100
466.800	-34.116	0.100
466.900	-24.559	0.100
467.000	-19.480	0.100
467.100	-24.225	0.100
467.200	-25.689	0.100
467.300	-27.235	0.100
467.400	-27.010	0.100
467.500	-20.035	0.100
467.600	-30.320	0.100
467.700	-13.892	0.100
467.800	-17.285	0.100
467.900	-34.651	0.100
468.000	-25.316	0.100
468.100	-24.507	0.100
468.200	-29.680	0.100
468.300	-26.496	0.100
468.400	-25.301	0.100
468.500	-22.964	0.100
468.600	-19.339	0.100
468.700	-27.142	0.100
468.800	-4.871	0.100
468.900	-26.010	0.100
469.000	-30.883	0.100
469.100	-29.892	0.100
469.200	-16.434	0.100
469.300	-24.086	0.100
469.400	-25.312	0.100
469.500	-21.028	0.100
469.600	-23.665	0.100
469.700	-26.267	0.100
469.800	-27.398	0.100
469.900	-34.097	0.100
470.000	-20.022	0.100
470.100	-20.901	0.100
470.200	-27.694	0.100
470.300	-32.301	0.100
470.400	-33.670	0.100
470.500	-15.532	0.100
470.600	-24.763	0.100
470.700	-19.002	0.100
470.800	-26.139	0.100
470.900	-20.634	0.100
471.000	-19.578	0.100
471.100	-17.280	0.100
471.200	-27.185	0.100
471.300	-35.840	0.100
471.400	-29.714	0.100
471.500	-25.381	0.100
471.600	-16.426	0.100
471.700	-21.536	0.100
471.800	-16.158	0.100
471.900	-19.391	0.100
472.000	-27.884	0.100
472.100	-36.917	0.100
472.200	-19.207	0.100
472.300	-23.096	0.100
472.400	-27.860	0.100
472.500	-14.083	0.100
472.600	-27.245	0.100
472.700	-30.594	0.100
472.800	-28.103	0.100
472.900	-23.419	0.100
473.000	-27.416	0.100
473.100	-28.270	0.100
473.200	-32.373	0.100
473.300	-22.315	0.100
473.400	-30.506	0.100
473.500	-8.966	0.100
473.600	-16.856	0.100
473.700	-24.576	0.100
473.800	-31.253	0.100
473.900	-29.995	0.100
474.000	-19.489	0.100
474.100	-24.659	0.100
474.200	-12.930	0.100
474.300	-30.619	0.100
474.400	-20.076	0.100
474.500	-19.036	0.100
474.600	-11.145	0.100
474.700	-20.729	0.100
474.800	-24.238	0.100
474.900	-28.380	0.100
475.000	-20.224	0.100
475.100	-21.810	0.100
475.200	-21.409	0.100
475.300	-14.361	0.100
475.400	-21.963	0.100
475.500	-27.449	0.100
475.600	-22.594	0.100
475.700	-15.128	0.100
475.800	-27.018	0.100
475.900	-24.704	0.100
476.000	-22.418	0.100
476.100	-22.831	0.100
476.200	-25.292	0.100
476.300	-30.356	0.100
476.400	-11.293	0.100
476.500	-22.067	0.100
476.600	-36.171	0.100
476.700	-30.177	0.100
476.800	-26.648	0.100
476.900	-22.087	0.100
477.000	-33.622	0.100
477.100	-12.167	0.100
477.200	-19.333	0.100
477.300	-21.236	0.100
477.400	-20.256	0.100
477.500	-21.284	0.100
477.600	-22.009	0.100
477.700	-23.509	0.100
477.800	-45.381	0.100
477.900	-29.815	0.100
478.000	-28.854	0.100
478.100	-31.445	0.100
478.200	-22.924	0.100
478.300	-10.757	0.100
478.400	-20.682	0.100
478.500	-28.003	0.100
478.600	-21.210	0.100
478.700	-20.980	0.100
478.800	-24.584	0.100
478.900	-14.143	0.100
479.000	-16.266	0.100
479.100	-25.243	0.100
479.200	-24.862	0.100
479.300	-28.624	0.100
479.400	-15.237	0.100
479.500	-28.536	0.100
479.600	-8.675	0.100
479.700	-16.282	0.100
479.800	-11.881	0.100
479.900	-20.465	0.100
480.000	-12.398	0.100
480.100	-7.696	0.100
480.200	-21.141	0.100
480.300	-9.487	0.100
480.400	-8.303	0.100
480.500	-1.694	0.100
480.600	4.779	0.100
480.700	18.197	0.100
480.800	17.860	0.100
480.900	9.167	0.100
481.000	7.637	0.100
481.100	13.028	0.100
481.200	19.690	0.100
481.300	30.290	0.100
481.400	20.846	0.100
481.500	14.486	0.100
481.600	15.746	0.100
481.700	20.568	0.100
481.800	21.005	0.100
481.900	15.955	0.100
482.000	13.448	0.100
482.100	12.264	0.100
482.200	12.020	0.100
482.300	21.494	0.100
482.400	12.545	0.100
482.500	14.351	0.100
482.600	4.677	0.100
482.700	1.402	0.100
482.800	25.507	0.100
482.900	12.335	0.100
483.000	2.830	0.100
483.100	-0.452	0.100
483.200	10.424	0.100
483.300	11.040	0.100
483.400	9.214	0.100
483.500	7.834	0.100
483.600	1.195	0.100
483.700	-6.347	0.100
483.800	-3.700	0.100
483.900	-7.412	0.100
484.000	19.577	0.100
484.100	2.525	0.100
484.200	9.604	0.100
484.300	2.985	0.100
484.400	6.842	0.100
484.500	9.647	0.100
484.600	17.812	0.100
484.700	20.016	0.100
484.800	2.351	0.100
484.900	10.191	0.100
485.000	-2.420	0.100
485.100	6.716	0.100
485.200	15.758	0.100
485.300	16.153	0.100
485.400	11.885	0.100
485.500	5.740	0.100
485.600	4.858	0.100
485.700	4.391	0.100
485.800	5.981	0.100
485.900	8.732	0.100
486.000	0.114	0.100
486.100	7.407	0.100
486.200	0.286	0.100
486.300	-3.138	0.100
486.400	16.401	0.100
486.500	1.656	0.100
486.600	6.300	0.100
486.700	-19.012	0.100
486.800	3.407	0.100
486.900	-0.069	0.100
487.000	19.118	0.100
487.100	16.241	0.100
487.200	16.471	0.100
487.300	0.001	0.100
487.400	11.906	0.100
487.500	21.145	0.100
487.600	11.295	0.100
487.700	-1.612	0.100
487.800	12.197	0.100
487.900	6.634	0.100
488.000	6.768	0.100
488.100	8.906	0.100
488.200	6.626	0.100
488.300	3.688	0.100
488.400	13.606	0.100
488.500	20.582	0.100
488.600	19.850	0.100
488.700	24.057	0.100
488.800	16.558	0.100
488.900	21.400	0.100
489.000	19.908	0.100
489.100	3.831	0.100
489.200	13.389	0.100
489.300	20.484	0.100
489.400	16.249	0.100
489.500	21.629	0.100
489.600	8.777	0.100
489.700	20.644	0.100
489.800	22.104	0.100
489.900	19.032	0.100
490.000	29.690	0.100
490.100	26.263	0.100
490.200	23.444	0.100
490.300	7.721	0.100
490.400	14.103	0.100
490.500	27.211	0.100
490.600	21.876	0.100
490.700	24.127	0.100
490.800	24.194	0.100
490.900	20.172	0.100
491.000	21.678	0.100
491.100	27.420	0.100
491.200	26.672	0.100
491.300	12.251	0.100
491.400	41.619	0.100
491.500	32.545	0.100
491.600	20.019	0.100
491.700	22.882	0.100
491.800	30.369	0.100
491.900	12.080	0.100
492.000	33.743	0.100
492.100	30.982	0.100
492.200	39.270	0.100
492.300	28.446	0.100
492.400	38.489	0.100
492.500	24.776	0.100
492.600	30.145	0.100
492.700	29.255	0.100
492.800	36.342	0.100
492.900	40.099	0.100
493.000	32.128	0.100
493.100	23.919	0.100
493.200	35.278	0.100
493.300	27.741	0.100
493.400	39.871	0.100
493.500	41.033	0.100
493.600	49.475	0.100
493.700	44.234	0.100
493.800	42.287	0.100
493.900	40.110	0.100
494.000	34.638	0.100
494.100	44.128	0.100
494.200	43.911	0.100
494.300	35.895	0.100
494.400	46.849	0.100
494.500	42.653	0.100
494.600	46.448	0.100
494.700	40.266	0.100
494.800	36.957	0.100
494.900	25.379	0.100
495.000	43.497	0.100
495.100	35.777	0.100
495.200	59.054	0.100
495.300	48.652	0.100
495.400	47.494	0.100
495.500	45.323	0.100
495.600	47.745	0.100
495.700	55.147	0.100
495.800	49.919	0.100
495.900	43.308	0.100
496.000	33.903	0.100
496.100	44.569	0.100
496.200	33.609	0.100
496.300	44.983	0.100
496.400	47.178	0.100
496.500	45.362	0.100
496.600	41.984	0.100
496.700	38.513	0.100
496.800	41.788	0.100
496.900	59.466	0.100
497.000	46.612	0.100
497.100	49.020	0.100
497.200	45.467	0.100
497.300	37.516	0.100
497.400	58.227	0.100
497.500	51.663	0.100
497.600	41.081	0.100
497.700	43.089	0.100
497.800	54.077	0.100
497.900	34.798	0.100
498.000	49.660	0.100
498.100	45.905	0.100
498.200	55.387	0.100
498.300	60.525	0.100
498.400	29.600	0.100
498.500	49.278	0.100
498.600	47.022	0.100
498.700	58.755	0.100
498.800	42.079	0.100
498.900	48.062	0.100
499.000	40.548	0.100
499.100	50.001	0.100
499.200	49.952	0.100
499.300	46.565	0.100
499.400	51.968	0.100
499.500	44.323	0.100
499.600	39.927	0.100
499.700	53.249	0.100
499.800	52.898	0.100
499.900	51.931	0.100
500.000	54.731	0.100
500.100	38.276	0.100
500.200	39.757	0.100
500.300	41.582	0.100
500.400	53.769	0.100
500.500	53.513	0.100
500.600	54.043	0.100
500.700	47.168	0.100
500.800	42.843	0.100
500.900	52.417	0.100
501.000	36.203	0.100
501.100	57.797	0.100
501.200	49.551	0.100
501.300	55.981	0.100
501.400	48.394	0.100
501.500	44.542	0.100
501.600	52.477	0.100
501.700	46.183	0.100
501.800	56.128	0.100
501.900	48.595	0.100
502.000	41.941	0.100
502.100	47.269	0.100
502.200	62.044	0.100
502.300	56.194	0.100
502.400	40.840	0.100
502.500	49.610	0.100
502.600	42.792	0.100
502.700	48.380	0.100
502.800	49.029	0.100
502.900	57.274	0.100
503.000	58.164	0.100
503.100	53.434	0.100
503.200	41.802	0.100
503.300	54.225	0.100
503.400	42.263	0.100
503.500	51.750	0.100
503.600	57.000	0.100
503.700	32.920	0.100
503.800	45.582	0.100
503.900	51.778	0.100
504.000	59.447	0.100
504.100	53.174	0.100
504.200	46.931	0.100
504.300	44.177	0.100
504.400	60.195	0.100
504.500	48.758	0.100
504.600	53.872	0.100
504.700	50.202	0.100
504.800	40.811	0.100
504.900	43.985	0.100
505.000	36.439	0.100
505.100	51.625	0.100
505.200	59.625	0.100
505.300	52.152	0.100
505.400	29.628	0.100
505.500	37.879	0.100
505.600	52.793	0.100
505.700	60.017	0.100
505.800	64.575	0.100
505.900	50.333	0.100
506.000	47.461	0.100
506.100	44.942	0.100
506.200	53.733	0.100
506.300	58.755	0.100
506.400	61.241	0.100
506.500	50.923	0.100
506.600	39.865	0.100
506.700	51.077	0.100
506.800	46.467	0.100
506.900	54.759	0.100
507.000	54.465	0.100
507.100	36.775	0.100
507.200	27.297	0.100
507.300	47.309	0.100
507.400	56.293	0.100
507.500	41.586	0.100
507.600	56.376	0.100
507.700	45.239	0.100
507.800	40.269	0.100
507.900	35.352	0.100
508.000	47.161	0.100
508.100	62.564	0.100
508.200	57.805	0.100
508.300	39.752	0.100
508.400	47.667	0.100
508.500	42.533	0.100
508.600	50.783	0.100
508.700	43.557	0.100
508.800	62.207	0.100
508.900	49.847	0.100
509.000	48.944	0.100
509.100	45.139	0.100
509.200	43.488	0.100
509.300	44.287	0.100
509.400	46.348	0.100
509.500	41.099	0.100
509.600	57.629	0.100
509.700	51.414	0.100
509.800	54.701	0.100
509.900	29.694	0.100
510.000	55.777	0.100
510.100	46.705	0.100
510.200	39.451	0.100
510.300	47.562	0.100
510.400	47.575	0.100
510.500	47.319	0.100
510.600	54.082	0.100
510.700	44.395	0.100
510.800	41.137	0.100
510.900	45.100	0.100
511.000	65.727	0.100
511.100	45.245	0.100
511.200	61.895	0.100
511.300	44.953	0.100
511.400	48.039	0.100
511.500	41.679	0.100
511.600	46.828	0.100
511.700	47.593	0.100
511.800	49.090	0.100
511.900	49.145	0.100
512.000	37.314	0.100
512.100	43.482	0.100
512.200	51.893	0.100
512.300	57.661	0.100
512.400	48.267	0.100
512.500	30.920	0.100
512.600	40.262	0.100
512.700	44.261	0.100
512.800	59.397	0.100
512.900	49.249	0.100
513.000	51.023	0.100
513.100	50.514	0.100
513.200	44.386	0.100
513.300	51.438	0.100
513.400	46.923	0.100
513.500	51.350	0.100
513.600	44.910	0.100
513.700	44.882	0.100
513.800	45.399	0.100
513.900	52.431	0.100
514.000	41.409	0.100
514.100	35.963	0.100
514.200	51.509	0.100
514.300	41.058	0.100
514.400	49.428	0.100
514.500	36.496	0.100
514.600	52.481	0.100
514.700	40.543	0.100
514.800	55.340	0.100
514.900	49.749	0.100
515.000	43.183	0.100
515.100	41.869	0.100
515.200	51.685	0.100
515.300	49.958	0.100
515.400	47.121	0.100
515.500	47.117	0.100
515.600	52.732	0.100
515.700	42.168	0.100
515.800	42.363	0.100
515.900	47.529	0.100
516.000	55.982	0.100
516.100	52.610	0.100
516.200	54.346	0.100
516.300	47.191	0.100
516.400	31.281	0.100
516.500	50.096	0.100
516.600	39.052	0.100
516.700	48.141	0.100
516.800	42.375	0.100
516.900	63.168	0.100
517.000	54.918	0.100
517.100	48.536	0.100
517.200	46.390	0.100
517.300	36.397	0.100
517.400	52.918	0.100
517.500	57.315	0.100
517.600	41.540	0.100
517.700	53.620	0.100
517.800	37.977	0.100
517.900	49.128	0.100
518.000	41.703	0.100
518.100	47.496	0.100
518.200	41.559	0.100
518.300	48.502	0.100
518.400	37.277	0.100
518.500	44.387	0.100
518.600	55.900	0.100
518.700	45.617	0.100
518.800	54.296	0.100
518.900	50.264	0.100
519.000	46.723	0.100
519.100	45.833	0.100
519.200	44.393	0.100
519.300	29.510	0.100
519.400	60.088	0.100
519.500	46.691	0.100
519.600	55.474	0.100
519.700	40.094	0.100
519.800	40.198	0.100
519.900	50.998	0.100
520.000	50.049	0.100
520.100	47.055	0.100
520.200	39.794	0.100
520.300	42.779	0.100
520.400	51.101	0.100
520.500	45.615	0.100
520.600	52.786	0.100
520.700	38.270	0.100
520.800	34.366	0.100
520.900	38.567	0.100
521.000	62.266	0.100
521.100	59.119	0.100
521.200	37.363	0.100
521.300	43.597	0.100
521.400	34.896	0.100
521.500	37.150	0.100
521.600	53.036	0.100
521.700	57.090	0.100
521.800	49.892	0.100
521.900	45.783	0.100
522.000	38.393	0.100
522.100	32.155	0.100
522.200	33.020	0.100
522.300	44.906	0.100
522.400	44.482	0.100
522.500	34.666	0.100
522.600	45.562	0.100
522.700	48.761	0.100
522.800	45.716	0.100
522.900	39.080	0.100
523.000	49.782	0.100
523.100	41.888	0.100
523.200	43.989	0.100
523.300	40.808	0.100
523.400	54.135	0.100
523.500	39.111	0.100
523.600	46.667	0.100
523.700	44.378	0.100
523.800	32.539	0.100
523.900	46.906	0.100
524.000	37.706	0.100
524.100	49.913	0.100
524.200	39.901	0.100
524.300	43.856	0.100
524.400	38.243	0.100
524.500	45.259	0.100
524.600	39.266	0.100
524.700	52.570	0.100
524.800	46.647	0.100
524.900	30.311	0.100
525.000	47.312	0.100
525.100	53.367	0.100
525.200	55.508	0.100
525.300	39.607	0.100
525.400	45.180	0.100
525.500	27.246	0.100
525.600	45.544	0.100
525.700	38.209	0.100
525.800	46.411	0.100
525.900	32.042	0.100
526.000	43.542	0.100
526.100	41.579	0.100
526.200	42.712	0.100
526.300	47.234	0.100
526.400	48.979	0.100
526.500	40.827	0.100
526.600	40.246	0.100
526.700	39.433	0.100
526.800	38.459	0.100
526.900	52.457	0.100
527.000	48.239	0.100
527.100	44.793	0.100
527.200	35.095	0.100
527.300	39.566	0.100
527.400	45.133	0.100
527.500	48.167	0.100
527.600	38.295	0.100
527.700	35.041	0.100
527.800	40.808	0.100
527.900	44.315	0.100
528.000	44.375	0.100
528.100	38.344	0.100
528.200	45.576	0.100
528.300	44.371	0.100
528.400	36.833	0.100
528.500	43.631	0.100
528.600	40.519	0.100
528.700	54.167	0.100
528.800	39.667	0.100
528.900	34.915	0.100
529.000	42.603	0.100
529.100	47.642	0.100
529.200	35.696	0.100
529.300	37.507	0.100
529.400	40.842	0.100
529.500	31.232	0.100
529.600	39.626	0.100
529.700	39.708	0.100
529.800	65.025	0.100
529.900	55.869	0.100
530.000	43.232	0.100
530.100	34.805	0.100
530.200	35.053	0.100
530.300	43.879	0.100
530.400	43.706	0.100
530.500	38.418	0.100
530.600	49.779	0.100
530.700	47.406	0.100
530.800	44.948	0.100
530.900	36.015	0.100
531.000	42.684	0.100
531.100	38.388	0.100
531.200	39.418	0.100
531.300	38.692	0.100
531.400	40.169	0.100
531.500	49.841	0.100
531.600	38.271	0.100
531.700	30.822	0.100
531.800	41.493	0.100
531.900	49.958	0.100
532.000	39.558	0.100
532.100	44.520	0.100
532.200	42.911	0.100
532.300	44.734	0.100
532.400	35.564	0.100
532.500	33.803	0.100
532.600	37.001	0.100
532.700	48.110	0.100
532.800	43.526	0.100
532.900	42.718	0.100
533.000	43.981	0.100
533.100	44.897	0.100
533.200	40.154	0.100
533.300	34.163	0.100
533.400	36.101	0.100
533.500	36.992	0.100
533.600	46.019	0.100
533.700	46.546	0.100
533.800	42.612	0.100
533.900	34.572	0.100
534.000	44.627	0.100
534.100	45.322	0.100
534.200	41.533	0.100
534.300	39.726	0.100
534.400	36.589	0.100
534.500	44.385	0.100
534.600	50.727	0.100
534.700	46.498	0.100
534.800	45.872	0.100
534.900	43.065	0.100
535.000	40.709	0.100
535.100	34.347	0.100
535.200	50.628	0.100
535.300	36.546	0.100
535.400	43.617	0.100
535.500	44.833	0.100
535.600	34.521	0.100
535.700	50.800	0.100
535.800	40.366	0.100
535.900	39.254	0.100
536.000	34.537	0.100
536.100	35.921	0.100
536.200	51.334	0.100
536.300	43.006	0.100
536.400	39.352	0.100
536.500	46.411	0.100
536.600	34.672	0.100
536.700	32.873	0.100
536.800	42.369	0.100
536.900	42.499	0.100
537.000	42.682	0.100
537.100	42.272	0.100
537.200	41.385	0.100
537.300	30.066	0.100
537.400	40.565	0.100
537.500	42.518	0.100
537.600	41.060	0.100
537.700	25.056	0.100
537.800	31.899	0.100
537.900	42.035	0.100
538.000	53.308	0.100
538.100	39.616	0.100
538.200	41.140	0.100
538.300	36.650	0.100
538.400	37.169	0.100
538.500	44.161	0.100
538.600	42.686	0.100
538.700	37.133	0.100
538.800	33.048	0.100
538.900	41.953	0.100
539.000	47.387	0.100
539.100	37.283	0.100
539.200	32.082	0.100
539.300	45.868	0.100
539.400	41.678	0.100
539.500	37.982	0.100
539.600	34.042	0.100
539.700	40.443	0.100
539.800	36.750	0.100
539.900	40.790	0.100
540.000	31.602	0.100
540.100	36.008	0.100
540.200	31.176	0.100
540.300	27.469	0.100
540.400	29.091	0.100
540.500	15.911	0.100
540.600	13.540	0.100
540.700	4.647	0.100
540.800	6.407	0.100
540.900	3.540	0.100
541.000	3.757	0.100
541.100	15.367	0.100
541.200	2.477	0.100
541.300	0.047	0.100
541.400	0.661	0.100
541.500	-7.636	0.100
541.600	-6.316	0.100
541.700	-1.896	0.100
541.800	-14.126	0.100
541.900	-15.666	0.100
542.000	-22.590	0.100
542.100	-4.577	0.100
542.200	-13.135	0.100
542.300	-23.751	0.100
542.400	-22.952	0.100
542.500	-11.329	0.100
542.600	-31.260	0.100
542.700	-11.797	0.100
542.800	-15.124	0.100
542.900	-23.852	0.100
543.000	-14.272	0.100
543.100	-16.914	0.100
543.200	-9.085	0.100
543.300	-21.435	0.100
543.400	-18.221	0.100
543.500	-22.144	0.100
543.600	-24.964	0.100
543.700	-25.304	0.100
543.800	-18.995	0.100
543.900	-10.488	0.100
544.000	-29.177	0.100
544.100	-16.402	0.100
544.200	-24.524	0.100
544.300	-28.750	0.100
544.400	-27.212	0.100
544.500	-19.317	0.100
544.600	-21.105	0.100
544.700	-28.674	0.100
544.800	-19.266	0.100
544.900	-24.504	0.100
545.000	-26.132	0.100
545.100	-25.725	0.100
545.200	-21.982	0.100
545.300	-27.315	0.100
545.400	-22.426	0.100
545.500	-29.857	0.100
545.600	-29.651	0.100
545.700	-26.321	0.100
545.800	-28.776	0.100
545.900	-26.957	0.100
546.000	-13.592	0.100
546.100	-26.746	0.100
546.200	-24.816	0.100
546.300	-22.034	0.100
546.400	-23.067	0.100
546.500	-22.998	0.100
546.600	-21.750	0.100
546.700	-27.910	0.100
546.800	-18.373	0.100
546.900	-19.827	0.100
547.000	-25.372	0.100
547.100	-20.308	0.100
547.200	-13.144	0.100
547.300	-32.516	0.100
547.400	-20.731	0.100
547.500	-13.794	0.100
547.600	-19.475	0.100
547.700	-27.359	0.100
547.800	-12.034	0.100
547.900	-25.873	0.100
548.000	-10.324	0.100
548.100	-17.286	0.100
548.200	-22.392	0.100
548.300	-26.175	0.100
548.400	-14.859	0.100
548.500	-34.744	0.100
548.600	-16.141	0.100
548.700	-17.684	0.100
548.800	-22.163	0.100
548.900	-27.084	0.100
549.000	-40.345	0.100
549.100	-25.345	0.100
549.200	-19.822	0.100
549.300	-26.631	0.100
549.400	-21.687	0.100
549.500	-19.864	0.100
549.600	-24.910	0.100
549.700	-20.509	0.100
549.800	-8.850	0.100
549.900	-25.949	0.100
550.000	-23.236	0.100
550.100	-29.700	0.100
550.200	-24.660	0.100
550.300	-16.396	0.100
550.400	-16.450	0.100
550.500	-19.382	0.100
550.600	-13.761	0.100
550.700	-32.077	0.100
550.800	-29.283	0.100
550.900	-23.647	0.100
551.000	-30.949	0.100
551.100	-33.674	0.100
551.200	-18.436	0.100
551.300	-35.371	0.100
551.400	-10.232	0.100
551.500	-22.642	0.100
551.600	-24.832	0.100
551.700	-27.226	0.100
551.800	-18.442	0.100
551.900	-23.909	0.100
552.000	-34.392	0.100
552.100	-20.702	0.100
552.200	-23.934	0.100
552.300	-0.086	0.100
552.400	-13.047	0.100
552.500	-14.381	0.100
552.600	-28.405	0.100
552.700	-15.844	0.100
552.800	-9.701	0.100
552.900	-26.172	0.100
553.000	-17.260	0.100
553.100	-20.844	0.100
553.200	-34.216	0.100
553.300	-34.329	0.100
553.400	-33.371	0.100
553.500	-32.967	0.100
553.600	-24.924	0.100
553.700	-16.443	0.100
553.800	-18.269	0.100
553.900	-30.012	0.100
554.000	-21.843	0.100
554.100	-9.963	0.100
554.200	-18.502	0.100
554.300	-30.280	0.100
554.400	-28.275	0.100
554.500	-17.202	0.100
554.600	-24.399	0.100
554.700	-25.584	0.100
554.800	-43.270	0.100
554.900	-24.506	0.100
555.000	-11.747	0.100
555.100	-17.237	0.100
555.200	-22.598	0.100
555.300	-14.960	0.100
555.400	-37.133	0.099
555.500	-27.321	0.100
555.600	-18.954	0.100
555.700	-10.541	0.100
555.800	-20.041	0.100
555.900	-41.752	0.100
556.000	-25.075	0.100
556.100	-19.240	0.100
556.200	-29.803	0.099
556.300	-12.811	0.100
556.400	-29.959	0.100
556.500	-20.673	0.100
556.600	-9.600	0.100
556.700	-20.646	0.100
556.800	-15.901	0.100
556.900	-21.903	0.100
557.000	-21.231	0.100
557.100	-23.266	0.100
557.200	-25.438	0.100
557.300	-30.779	0.100
557.400	-30.584	0.100
557.500	-39.094	0.100
557.600	-29.891	0.100
557.700	-24.352	0.100
557.800	-16.752	0.100
557.900	-36.525	0.100
558.000	-23.271	0.100
558.100	-22.244	0.100
558.200	-29.240	0.100
558.300	-31.146	0.100
558.400	-21.230	0.100
558.500	-10.541	0.100
558.600	-23.986	0.100
558.700	-25.718	0.100
558.800	-33.620	0.100
558.900	-43.150	0.100
559.000	-32.117	0.100
559.100	-19.365	0.100
559.200	-15.799	0.100
559.300	-36.380	0.100
559.400	-31.154	0.100
559.500	-33.404	0.100
559.600	-24.566	0.100
559.700	-12.437	0.100
559.800	-20.784	0.100
559.900	-25.770	0.100
560.000	-27.050	0.100
560.100	-34.407	0.100
560.200	-20.922	0.100
560.300	-16.404	0.100
560.400	-14.371	0.100
560.500	-23.661	0.100
560.600	-25.050	0.100
560.700	-23.624	0.100
560.800	-31.236	0.100
560.900	-28.073	0.100
561.000	-33.346	0.100
561.100	-33.373	0.100
561.200	-17.919	0.100
561.300	-32.315	0.100
561.400	-26.303	0.100
561.500	-36.831	0.100
561.600	-24.887	0.100
561.700	-32.844	0.100
561.800	-34.864	0.100
561.900	-36.483	0.100
562.000	-39.288	0.100
562.100	-23.619	0.100
562.200	-15.621	0.100
562.300	-23.522	0.100
562.400	-32.910	0.100
562.500	-35.794	0.100
562.600	-26.720	0.100
562.700	-37.084	0.100
562.800	-23.434	0.100
562.900	-11.238	0.100
563.000	-35.148	0.100
563.100	-40.121	0.100
563.200	-40.733	0.100
563.300	-29.152	0.100
563.400	-25.004	0.100
563.500	-28.002	0.100
563.600	-23.917	0.100
563.700	-24.649	0.100
563.800	-26.316	0.100
563.900	-28.204	0.100
564.000	-23.726	0.100
564.100	-30.993	0.100
564.200	-29.614	0.100
564.300	-30.351	0.100
564.400	-45.588	0.100
564.500	-30.766	0.100
564.600	-17.933	0.100
564.700	-21.613	0.100
564.800	-25.215	0.100
564.900	-29.843	0.100
565.000	-22.937	0.100
565.100	-37.093	0.100
565.200	-22.638	0.100
565.300	-37.370	0.100
565.400	-34.783	0.100
565.500	-28.695	0.100
565.600	-21.648	0.100
565.700	-22.093	0.100
565.800	-33.700	0.100
565.900	-21.669	0.100
566.000	-31.181	0.100
566.100	-20.990	0.100
566.200	-27.934	0.100
566.300	-28.195	0.100
566.400	-24.597	0.100
566.500	-42.038	0.100
566.600	-30.858	0.100
566.700	-36.347	0.100
566.800	-23.062	0.100
566.900	-29.738	0.100
567.000	-11.029	0.100
567.100	-29.001	0.100
567.200	-36.866	0.100
567.300	-28.918	0.100
567.400	-30.439	0.100
567.500	-31.305	0.100
567.600	-29.451	0.100
567.700	-43.659	0.100
567.800	-28.214	0.100
567.900	-32.509	0.100
568.000	-34.734	0.100
568.100	-31.902	0.100
568.200	-33.900	0.100
568.300	-32.932	0.100
568.400	-31.655	0.100
568.500	-40.428	0.100
568.600	-25.786	0.100
568.700	-31.524	0.100
568.800	-39.981	0.100
568.900	-25.295	0.100
569.000	-23.458	0.100
569.100	-30.169	0.100
569.200	-29.980	0.100
569.300	-25.216	0.100
569.400	-31.581	0.100
569.500	-33.413	0.100
569.600	-26.871	0.100
569.700	-38.055	0.100
569.800	-28.849	0.100
569.900	-28.003	0.100
570.000	-27.900	0.100
570.100	-35.227	0.100
570.200	-21.643	0.100
570.300	-31.451	0.100
570.400	-33.076	0.100
570.500	-25.536	0.100
570.600	-37.781	0.100
570.700	-33.630	0.100
570.800	-34.808	0.100
570.900	-25.464	0.100
571.000	-35.612	0.100
571.100	-21.315	0.100
571.200	-33.063	0.100
571.300	-35.124	0.100
571.400	-31.153	0.100
571.500	-31.243	0.100
571.600	-19.399	0.100
571.700	-37.138	0.100
571.800	-30.562	0.100
571.900	-35.080	0.100
572.000	-36.339	0.100
572.100	-17.930	0.100
572.200	-36.896	0.100
572.300	-47.325	0.100
572.400	-26.738	0.100
572.500	-21.672	0.100
572.600	-19.407	0.100
572.700	-20.088	0.100
572.800	-28.301	0.100
572.900	-21.664	0.100
573.000	-30.688	0.100
573.100	-29.595	0.100
573.200	-39.154	0.100
573.300	-33.039	0.100
573.400	-28.140	0.100
573.500	-46.095	0.100
573.600	-30.695	0.100
573.700	-18.870	0.100
573.800	-31.176	0.100
573.900	-32.784	0.100
574.000	-36.057	0.100
574.100	-41.238	0.100
574.200	-42.589	0.100
574.300	-32.834	0.100
574.400	-21.045	0.100
574.500	-32.747	0.100
574.600	-26.709	0.100
574.700	-30.338	0.100
574.800	-35.489	0.100
574.900	-26.316	0.100
575.000	-26.359	0.100
575.100	-33.030	0.100
575.200	-25.989	0.100
575.300	-26.716	0.100
575.400	-36.263	0.100
575.500	-31.533	0.100
575.600	-21.567	0.100
575.700	-36.831	0.100
575.800	-32.431	0.100
575.900	-31.817	0.100
576.000	-41.127	0.100
576.100	-21.554	0.100
576.200	-53.312	0.100
576.300	-29.064	0.100
576.400	-29.372	0.100
576.500	-37.353	0.100
576.600	-28.455	0.100
576.700	-25.167	0.100
576.800	-37.603	0.100
576.900	-28.994	0.100
577.000	-32.916	0.100
577.100	-28.750	0.100
577.200	-31.869	0.100
577.300	-35.916	0.100
577.400	-31.935	0.100
577.500	-42.813	0.100
577.600	-44.668	0.100
577.700	-33.158	0.100
577.800	-36.727	0.100
577.900	-22.816	0.100
578.000	-22.131	0.100
578.100	-33.937	0.100
578.200	-33.040	0.100
578.300	-26.206	0.100
578.400	-42.002	0.100
578.500	-22.870	0.100
578.600	-42.436	0.100
578.700	-30.613	0.100
578.800	-37.200	0.100
578.900	-26.071	0.100
579.000	-34.815	0.100
579.100	-28.297	0.100
579.200	-39.297	0.100
579.300	-24.700	0.100
579.400	-28.913	0.100
579.500	-37.207	0.100
579.600	-36.872	0.100
579.700	-19.207	0.100
579.800	-19.235	0.100
579.900	-43.049	0.100
580.000	-30.037	0.100
580.100	-47.859	0.100
580.200	-19.111	0.100
580.300	-24.601	0.100
580.400	-20.471	0.100
580.500	-54.564	0.100
580.600	-44.351	0.100
580.700	-42.784	0.100
580.800	-22.710	0.100
580.900	-30.314	0.100
581.000	-24.897	0.100
581.100	-32.595	0.100
581.200	-32.178	0.100
581.300	-31.001	0.100
581.400	-27.459	0.100
581.500	-28.228	0.100
581.600	-31.363	0.100
581.700	-44.512	0.100
581.800	-23.921	0.100
581.900	-38.289	0.100
582.000	-36.205	0.100
582.100	-19.331	0.100
582.200	-26.667	0.100
582.300	-35.167	0.100
582.400	-35.440	0.100
582.500	-33.521	0.100
582.600	-29.053	0.100
582.700	-25.326	0.100
582.800	-36.522	0.100
582.900	-41.391	0.100
583.000	-39.867	0.100
583.100	-17.412	0.100
583.200	-33.013	0.100
583.300	-16.296	0.100
583.400	-49.405	0.100
583.500	-46.445	0.100
583.600	-38.522	0.100
583.700	-30.335	0.100
583.800	-37.835	0.100
583.900	-17.721	0.100
584.000	-29.445	0.100
584.100	-50.241	0.100
584.200	-39.615	0.100
584.300	-40.054	0.100
584.400	-28.707	0.100
584.500	-33.871	0.100
584.600	-24.194	0.100
584.700	-36.424	0.100
584.800	-41.632	0.100
584.900	-35.359	0.100
585.000	-21.932	0.100
585.100	-33.797	0.100
585.200	-26.367	0.100
585.300	-26.453	0.100
585.400	-37.256	0.100
585.500	-39.252	0.100
585.600	-20.473	0.100
585.700	-28.511	0.100
585.800	-34.139	0.100
585.900	-29.079	0.100
586.000	-30.328	0.100
586.100	-42.422	0.100
586.200	-32.920	0.100
586.300	-28.752	0.100
586.400	-29.898	0.100
586.500	-39.549	0.100
586.600	-27.177	0.100
586.700	-36.957	0.100
586.800	-39.104	0.100
586.900	-27.638	0.100
587.000	-22.389	0.100
587.100	-28.205	0.100
587.200	-35.402	0.100
587.300	-28.665	0.100
587.400	-34.422	0.100
587.500	-36.880	0.100
587.600	-38.872	0.100
587.700	-36.781	0.100
587.800	-28.836	0.100
587.900	-25.378	0.100
588.000	-38.182	0.100
588.100	-19.729	0.100
588.200	-21.524	0.100
588.300	-22.900	0.100
588.400	-30.977	0.100
588.500	-29.453	0.100
588.600	-21.703	0.100
588.700	-30.717	0.100
588.800	-48.361	0.100
588.900	-34.625	0.100
589.000	-33.536	0.100
589.100	-34.711	0.100
589.200	-23.888	0.100
589.300	-32.683	0.100
589.400	-38.279	0.100
589.500	-36.584	0.100
589.600	-34.553	0.100
589.700	-20.769	0.100
589.800	-37.477	0.100
589.900	-37.486	0.100
590.000	-22.973	0.100
590.100	-23.028	0.100
590.200	-33.962	0.100
590.300	-25.192	0.100
590.400	-22.438	0.100
590.500	-33.862	0.100
590.600	-31.261	0.100
590.700	-36.675	0.100
590.800	-23.790	0.100
590.900	-28.101	0.100
591.000	-30.133	0.100
591.100	-32.877	0.100
591.200	-26.481	0.100
591.300	-34.380	0.100
591.400	-26.529	0.100
591.500	-23.855	0.100
591.600	-20.243	0.100
591.700	-31.655	0.100
591.800	-39.332	0.100
591.900	-30.568	0.100
592.000	-37.419	0.100
592.100	-32.576	0.100
592.200	-28.364	0.100
592.300	-35.768	0.100
592.400	-33.900	0.100
592.500	-28.755	0.100
592.600	-23.601	0.100
592.700	-18.876	0.100
592.800	-34.831	0.100
592.900	-31.375	0.100
593.000	-30.485	0.100
593.100	-34.103	0.100
593.200	-31.128	0.100
593.300	-30.234	0.100
593.400	-31.078	0.100
593.500	-41.931	0.100
593.600	-36.780	0.100
593.700	-20.549	0.100
593.800	-16.687	0.100
593.900	-27.509	0.100
594.000	-29.188	0.100
594.100	-36.239	0.100
594.200	-45.118	0.100
594.300	-23.153	0.100
594.400	-23.988	0.100
594.500	-46.688	0.100
594.600	-31.959	0.100
594.700	-20.357	0.100
594.800	-20.957	0.100
594.900	-30.252	0.100
595.000	-32.461	0.100
595.100	-28.723	0.100
595.200	-30.162	0.100
595.300	-19.894	0.100
595.400	-35.205	0.100
595.500	-23.732	0.100
595.600	-32.554	0.100
595.700	-27.280	0.100
595.800	-38.185	0.100
595.900	-29.758	0.100
596.000	-41.241	0.100
596.100	-25.480	0.100
596.200	-22.255	0.100
596.300	-41.425	0.100
596.400	-27.992	0.100
596.500	-35.610	0.100
596.600	-20.324	0.100
596.700	-20.064	0.100
596.800	-22.646	0.100
596.900	-18.575	0.100
597.000	-25.418	0.100
597.100	-25.728	0.100
597.200	-40.107	0.100
597.300	-30.572	0.100
597.400	-27.122	0.100
597.500	-23.182	0.100
597.600	-25.755	0.100
597.700	-24.046	0.100
597.800	-28.105	0.100
597.900	-32.664	0.100
598.000	-32.875	0.100
598.100	-26.599	0.100
598.200	-31.717	0.100
598.300	-29.267	0.100
598.400	-22.220	0.100
598.500	-31.661	0.100
598.600	-34.040	0.100
598.700	-27.976	0.100
598.800	-23.972	0.100
598.900	-43.070	0.100
599.000	-28.823	0.100
599.100	-20.853	0.100
599.200	-29.798	0.100
599.300	-27.297	0.100
599.400	-27.697	0.100
599.500	-28.956	0.100
599.600	-29.982	0.100
599.700	-26.914	0.100
599.800	-12.477	0.100
599.900	-21.307	0.100
600.000	-33.239	0.100
600.100	-35.239	0.100
600.200	-17.650	0.100
600.300	-22.965	0.100
600.400	-31.285	0.100
600.500	-24.576	0.100
600.600	-32.072	0.100
600.700	-29.011	0.100
600.800	-28.531	0.100
600.900	-25.889	0.100
601.000	-40.115	0.100
601.100	-37.805	0.100
601.200	-34.256	0.100
601.300	-26.732	0.100
601.400	-22.570	0.100
601.500	-21.331	0.100
601.600	-15.118	0.100
601.700	-37.593	0.100
601.800	-31.176	0.100
601.900	-32.195	0.100
602.000	-18.911	0.100
602.100	-13.107	0.100
602.200	-17.498	0.100
602.300	-26.448	0.100
602.400	-45.307	0.100
602.500	-30.858	0.100
602.600	-15.873	0.100
602.700	-22.051	0.100
602.800	-35.286	0.100
602.900	-21.461	0.100
603.000	-37.864	0.100
603.100	-30.494	0.100
603.200	-18.682	0.100
603.300	-17.224	0.100
603.400	-32.404	0.100
603.500	-30.046	0.100
603.600	-39.726	0.100
603.700	-19.705	0.100
603.800	-24.659	0.100
603.900	-26.644	0.100
604.000	-39.967	0.100
604.100	-35.075	0.100
604.200	-23.312	0.100
604.300	-22.894	0.100
604.400	-30.641	0.100
604.500	-19.289	0.100
604.600	-26.069	0.100
604.700	-32.056	0.100
604.800	-26.406	0.100
604.900	-17.953	0.100
605.000	-26.709	0.100
605.100	-32.461	0.100
605.200	-36.117	0.100
605.300	-23.014	0.100
605.400	-26.886	0.100
605.500	-22.187	0.100
605.600	-21.907	0.100
605.700	-35.534	0.100
605.800	-28.246	0.100
605.900	-33.414	0.100
606.000	-32.113	0.100
606.100	-30.431	0.100
606.200	-23.717	0.100
606.300	-14.008	0.100
606.400	-27.922	0.100
606.500	-39.865	0.100
606.600	-28.890	0.100
606.700	-26.393	0.100
606.800	-15.662	0.100
606.900	-25.680	0.100
607.000	-21.717	0.100
607.100	-29.394	0.100
607.200	-37.645	0.100
607.300	-23.173	0.100
607.400	-33.252	0.100
607.500	-24.642	0.100
607.600	-25.982	0.100
607.700	-19.178	0.100
607.800	-29.612	0.100
607.900	-31.485	0.100
608.000	-17.791	0.100
608.100	-25.406	0.100
608.200	-31.169	0.100
608.300	-28.271	0.100
608.400	-19.459	0.100
608.500	-9.963	0.100
608.600	-31.825	0.100
608.700	-26.070	0.100
608.800	-38.412	0.100
608.900	-33.959	0.100
609.000	-37.355	0.100
609.100	-15.733	0.100
609.200	-16.355	0.100
609.300	-28.990	0.100
609.400	-23.999	0.100
609.500	-29.754	0.100
609.600	-18.885	0.100
609.700	-17.761	0.100
609.800	-23.272	0.100
609.900	-19.677	0.100
610.000	-37.243	0.100
610.100	-31.297	0.100
610.200	-23.177	0.100
610.300	-31.883	0.100
610.400	-21.385	0.100
610.500	-24.931	0.100
610.600	-26.383	0.100
610.700	-34.020	0.100
610.800	-22.288	0.100
610.900	-34.179	0.100
611.000	-32.409	0.100
611.100	-30.210	0.100
611.200	-15.286	0.100
611.300	-24.815	0.100
611.400	-12.223	0.100
611.500	-21.433	0.100
611.600	-15.319	0.100
611.700	-31.910	0.100
611.800	-24.989	0.100
611.900	-33.631	0.100
612.000	-30.028	0.100
612.100	-24.048	0.100
612.200	-26.376	0.100
612.300	-32.019	0.100
612.400	-33.532	0.100
612.500	-29.094	0.100
612.600	-16.568	0.100
612.700	-30.865	0.100
612.800	-16.913	0.100
612.900	-33.111	0.100
613.000	-32.552	0.100
613.100	-24.382	0.100
613.200	-29.026	0.100
613.300	-40.975	0.100
613.400	-35.244	0.100
613.500	-31.994	0.100
613.600	-31.867	0.100
613.700	-21.913	0.100
613.800	-11.952	0.100
613.900	-25.988	0.100
614.000	-26.174	0.100
614.100	-28.904	0.100
614.200	-26.290	0.100
614.300	-26.484	0.100
614.400	-25.440	0.100
614.500	-17.809	0.100
614.600	-28.896	0.100
614.700	-20.184	0.100
614.800	-19.720	0.100
614.900	-23.723	0.100
615.000	-17.786	0.100
615.100	-29.275	0.100
615.200	-37.652	0.100
615.300	-40.656	0.100
615.400	-38.795	0.100
615.500	-21.252	0.100
615.600	-16.170	0.100
615.700	-28.476	0.100
615.800	-24.169	0.100
615.900	-30.791	0.100
616.000	-22.668	0.100
616.100	-24.520	0.100
616.200	-10.900	0.100
616.300	-26.228	0.100
616.400	-36.669	0.100
616.500	-14.646	0.100
616.600	-38.641	0.100
616.700	-22.979	0.100
616.800	-22.425	0.100
616.900	-25.971	0.100
617.000	-20.943	0.100
617.100	-22.644	0.100
617.200	-34.350	0.100
617.300	-18.541	0.100
617.400	-19.886	0.100
617.500	-23.794	0.100
617.600	-28.980	0.100
617.700	-21.327	0.100
617.800	-26.544	0.100
617.900	-29.793	0.100
618.000	-31.431	0.100
618.100	-29.137	0.100
618.200	-18.992	0.100
618.300	-22.674	0.100
618.400	-19.783	0.100
618.500	-21.602	0.100
618.600	-17.222	0.100
618.700	-28.504	0.100
618.800	-33.276	0.100
618.900	-13.022	0.100
619.000	-27.824	0.100
619.100	-24.747	0.100
619.200	-26.884	0.100
619.300	-33.786	0.100
619.400	-24.429	0.100
619.500	-24.257	0.100
619.600	-29.540	0.100
619.700	-18.142	0.100
619.800	-20.324	0.100
619.900	-30.633	0.100
620.000	-35.936	0.100
620.100	-13.752	0.100
620.200	-31.106	0.100
620.300	-27.482	0.100
620.400	-33.099	0.100
620.500	-16.694	0.100
620.600	-36.008	0.100
620.700	-17.266	0.100
620.800	-20.727	0.100
620.900	-24.116	0.100
621.000	-20.724	0.100
621.100	-17.340	0.100
621.200	-16.171	0.100
621.300	-35.125	0.100
621.400	-29.163	0.100
621.500	-21.621	0.100
621.600	-31.908	0.100
621.700	-14.961	0.100
621.800	-19.727	0.100
621.900	-17.487	0.100
622.000	-26.953	0.100
622.100	-15.206	0.100
622.200	-28.288	0.100
622.300	-28.452	0.100
622.400	-24.151	0.100
622.500	-35.539	0.100
622.600	-11.633	0.100
622.700	-22.439	0.100
622.800	-21.377	0.100
622.900	-27.434	0.100
623.000	-30.362	0.100
623.100	-21.250	0.100
623.200	-28.704	0.100
623.300	-29.098	0.100
623.400	-33.092	0.100
623.500	-21.157	0.100
623.600	-20.471	0.100
623.700	-15.129	0.100
623.800	-19.604	0.100
623.900	-28.108	0.100
624.000	-23.333	0.100
624.100	-23.484	0.100
624.200	-17.615	0.100
624.300	-24.922	0.100
624.400	-15.728	0.100
624.500	-18.321	0.100
624.600	-30.698	0.100
624.700	-36.291	0.100
624.800	-27.624	0.100
624.900	-16.793	0.100
625.000	-12.756	0.100
625.100	-33.329	0.100
625.200	-20.405	0.100
625.300	-26.753	0.100
625.400	-25.129	0.100
625.500	-23.686	0.100
625.600	-21.359	0.100
625.700	-28.522	0.100
625.800	-27.249	0.100
625.900	-30.943	0.100
626.000	-25.335	0.100
626.100	-21.975	0.100
626.200	-17.217	0.100
626.300	-31.422	0.100
626.400	-18.136	0.100
626.500	-16.564	0.100
626.600	-27.108	0.100
626.700	-19.631	0.100
626.800	-26.770	0.100
626.900	-25.956	0.100
627.000	-18.292	0.100
627.100	-24.260	0.100
627.200	-24.740	0.100
627.300	-26.029	0.100
627.400	-7.005	0.100
627.500	-19.083	0.100
627.600	-26.301	0.100
627.700	-19.779	0.100
627.800	-31.412	0.100
627.900	-26.050	0.100
628.000	-26.503	0.100
628.100	-24.927	0.100
628.200	-31.092	0.100
628.300	-28.848	0.100
628.400	-24.111	0.100
628.500	-26.705	0.100
628.600	-7.940	0.100
628.700	-23.397	0.100
628.800	-11.218	0.100
628.900	-20.321	0.100
629.000	-30.329	0.100
629.100	-15.332	0.100
629.200	-29.892	0.100
629.300	-30.674	0.100
629.400	-25.292	0.100
629.500	-17.292	0.100
629.600	-17.563	0.100
629.700	-11.808	0.100
629.800	-19.062	0.100
629.900	-17.103	0.100
630.000	-45.955	0.100
630.100	-37.213	0.100
630.200	-21.309	0.100
630.300	-1.308	0.100
630.400	-5.858	0.100
630.500	-1.775	0.100
630.600	6.921	0.100
630.700	10.797	0.100
630.800	2.458	0.100
630.900	10.649	0.100
631.000	25.294	0.100
631.100	13.211	0.100
631.200	15.963	0.100
631.300	17.126	0.100
631.400	27.398	0.100
631.500	29.096	0.100
631.600	9.432	0.100
631.700	7.877	0.100
631.800	20.003	0.100
631.900	19.854	0.100
632.000	15.061	0.100
632.100	10.519	0.100
632.200	20.349	0.100
632.300	7.990	0.100
632.400	13.852	0.100
632.500	18.410	0.100
632.600	2.990	0.100
632.700	7.893	0.100
632.800	5.342	0.100
632.900	4.202	0.100
633.000	8.663	0.100
633.100	12.633	0.100
633.200	9.823	0.100
633.300	7.651	0.100
633.400	9.628	0.100
633.500	1.530	0.100
633.600	5.393	0.100
633.700	16.132	0.100
633.800	13.302	0.100
633.900	5.744	0.100
634.000	6.225	0.100
634.100	-13.756	0.100
634.200	17.236	0.100
634.300	11.706	0.100
634.400	4.694	0.100
634.500	11.045	0.100
634.600	13.456	0.100
634.700	-0.938	0.100
634.800	4.507	0.100
634.900	2.897	0.100
635.000	10.317	0.100
635.100	4.570	0.100
635.200	1.664	0.100
635.300	3.906	0.100
635.400	8.872	0.100
635.500	7.067	0.100
635.600	14.945	0.100
635.700	-6.303	0.100
635.800	9.229	0.100
635.900	-0.082	0.100
636.000	8.590	0.100
636.100	-2.587	0.100
636.200	11.851	0.100
636.300	-2.353	0.100
636.400	9.054	0.100
636.500	1.693	0.100
636.600	6.229	0.100
636.700	16.664	0.100
636.800	9.059	0.100
636.900	4.154	0.100
637.000	13.945	0.100
637.100	15.510	0.100
637.200	8.118	0.100
637.300	14.201	0.100
637.400	10.249	0.100
637.500	15.914	0.100
637.600	5.470	0.100
637.700	11.579	0.100
637.800	24.360	0.100
637.900	12.983	0.100
638.000	10.890	0.100
638.100	9.442	0.100
638.200	10.810	0.100
638.300	9.155	0.100
638.400	14.819	0.100
638.500	12.419	0.100
638.600	13.988	0.100
638.700	13.892	0.100
638.800	7.839	0.100
638.900	18.188	0.100
639.000	10.224	0.100
639.100	17.405	0.100
639.200	20.023	0.100
639.300	22.051	0.100
639.400	20.997	0.100
639.500	28.206	0.100
639.600	22.072	0.100
639.700	24.287	0.100
639.800	26.111	0.100
639.900	17.164	0.100
640.000	16.219	0.100
640.100	20.224	0.100
640.200	34.216	0.100
640.300	31.479	0.100
640.400	18.571	0.100
640.500	16.036	0.100
640.600	27.565	0.100
640.700	12.223	0.100
640.800	31.530	0.100
640.900	34.831	0.100
641.000	26.404	0.100
641.100	11.245	0.100
641.200	28.118	0.100
641.300	24.841	0.100
641.400	18.565	0.100
641.500	32.746	0.100
641.600	28.334	0.100
641.700	14.494	0.100
641.800	30.247	0.100
641.900	39.426	0.100
642.000	27.069	0.100
642.100	22.711	0.100
642.200	26.255	0.100
642.300	25.597	0.100
642.400	43.823	0.100
642.500	34.639	0.100
642.600	47.346	0.100
642.700	22.017	0.100
642.800	20.884	0.100
642.900	28.575	0.100
643.000	37.706	0.100
643.100	47.900	0.100
643.200	33.679	0.100
643.300	42.526	0.100
643.400	34.844	0.100
643.500	29.610	0.100
643.600	33.499	0.100
643.700	42.123	0.100
643.800	51.618	0.100
643.900	37.453	0.100
644.000	39.073	0.100
644.100	27.259	0.100
644.200	54.798	0.100
644.300	51.422	0.100
644.400	51.213	0.100
644.500	44.078	0.100
644.600	49.445	0.100
644.700	33.394	0.100
644.800	41.769	0.100
644.900	44.376	0.100
645.000	49.068	0.100
645.100	46.283	0.100
645.200	46.820	0.100
645.300	41.947	0.100
645.400	30.050	0.100
645.500	45.803	0.100
645.600	44.774	0.100
645.700	46.676	0.100
645.800	37.834	0.100
645.900	44.266	0.100
646.000	48.107	0.100
646.100	43.769	0.100
646.200	52.951	0.100
646.300	44.645	0.100
646.400	47.695	0.100
646.500	46.901	0.100
646.600	46.541	0.100
646.700	46.467	0.100
646.800	45.294	0.100
646.900	39.245	0.100
647.000	46.181	0.100
647.100	44.914	0.100
647.200	44.058	0.100
647.300	51.211	0.100
647.400	65.351	0.100
647.500	52.152	0.100
647.600	52.086	0.100
647.700	44.857	0.100
647.800	40.537	0.100
647.900	57.369	0.100
648.000	52.747	0.100
648.100	36.241	0.100
648.200	49.346	0.100
648.300	56.831	0.100
648.400	52.096	0.100
648.500	46.063	0.100
648.600	52.523	0.100
648.700	60.963	0.100
648.800	47.349	0.100
648.900	53.201	0.100
649.000	44.173	0.100
649.100	50.480	0.100
649.200	46.389	0.100
649.300	43.251	0.099
649.400	37.169	0.100
649.500	54.214	0.100
649.600	48.168	0.100
649.700	55.260	0.100
649.800	53.035	0.100
649.900	52.516	0.100
650.000	55.541	0.100
650.100	41.572	0.100
650.200	53.969	0.100
650.300	57.190	0.100
650.400	48.701	0.100
650.500	50.034	0.100
650.600	44.343	0.100
650.700	43.698	0.100
650.800	54.427	0.100
650.900	42.204	0.100
651.000	56.547	0.100
651.100	52.728	0.100
651.200	45.529	0.100
651.300	62.044	0.100
651.400	47.935	0.100
651.500	47.913	0.100
651.600	50.499	0.100
651.700	51.001	0.100
651.800	35.639	0.100
651.900	50.305	0.100
652.000	52.283	0.100
652.100	58.903	0.100
652.200	67.153	0.100
652.300	57.618	0.100
652.400	44.238	0.100
652.500	54.717	0.100
652.600	35.389	0.100
652.700	54.341	0.100
652.800	44.422	0.100
652.900	49.331	0.100
653.000	44.085	0.100
653.100	48.582	0.100
653.200	55.254	0.100
653.300	53.457	0.100
653.400	49.152	0.100
653.500	39.740	0.100
653.600	55.136	0.100
653.700	67.446	0.100
653.800	66.385	0.100
653.900	55.977	0.100
654.000	49.261	0.100
654.100	36.121	0.100
654.200	47.855	0.100
654.300	51.805	0.100
654.400	62.062	0.100
654.500	44.580	0.100
654.600	63.536	0.100
654.700	49.911	0.100
654.800	46.056	0.100
654.900	45.784	0.100
655.000	49.400	0.100
655.100	48.658	0.100
655.200	57.975	0.100
655.300	52.352	0.100
655.400	51.234	0.100
655.500	63.548	0.100
655.600	45.906	0.100
655.700	67.790	0.100
655.800	44.788	0.100
655.900	57.903	0.100
656.000	55.318	0.100
656.100	51.215	0.100
656.200	48.445	0.100
656.300	47.422	0.100
656.400	45.811	0.100
656.500	53.966	0.100
656.600	47.912	0.100
656.700	50.195	0.100
656.800	50.864	0.100
656.900	58.844	0.100
657.000	47.440	0.100
657.100	63.670	0.100
657.200	52.249	0.100
657.300	40.085	0.100
657.400	49.879	0.100
657.500	39.552	0.100
657.600	37.934	0.100
657.700	55.080	0.100
657.800	50.645	0.100
657.900	51.748	0.100
658.000	42.608	0.100
658.100	49.146	0.100
658.200	38.696	0.100
658.300	53.835	0.100
658.400	55.557	0.100
658.500	40.020	0.100
658.600	44.798	0.100
658.700	54.738	0.100
658.800	55.696	0.100
658.900	54.937	0.100
659.000	48.843	0.100
659.100	43.225	0.100
659.200	52.607	0.100
659.300	42.441	0.100
659.400	46.800	0.100
659.500	49.572	0.100
659.600	51.451	0.100
659.700	47.263	0.100
659.800	44.958	0.100
659.900	51.334	0.100
660.000	46.669	0.100
660.100	46.373	0.100
660.200	52.245	0.100
660.300	54.450	0.100
660.400	49.842	0.100
660.500	36.698	0.100
660.600	47.419	0.100
660.700	42.253	0.100
660.800	65.005	0.100
660.900	49.520	0.100
661.000	42.959	0.100
661.100	37.181	0.100
661.200	51.544	0.100
661.300	51.301	0.100
661.400	55.748	0.100
661.500	40.924	0.100
661.600	61.056	0.100
661.700	38.923	0.100
661.800	46.194	0.100
661.900	56.392	0.100
662.000	45.153	0.100
662.100	44.656	0.100
662.200	52.796	0.100
662.300	47.452	0.100
662.400	46.731	0.100
662.500	53.880	0.100
662.600	47.620	0.100
662.700	34.026	0.100
662.800	42.290	0.100
662.900	48.278	0.100
663.000	49.319	0.100
663.100	52.404	0.100
663.200	59.089	0.100
663.300	59.882	0.100
663.400	49.192	0.100
663.500	47.032	0.100
663.600	50.205	0.100
663.700	40.275	0.100
663.800	47.709	0.100
663.900	41.490	0.100
664.000	46.741	0.100
664.100	40.907	0.100
664.200	50.128	0.100
664.300	54.495	0.100
664.400	54.412	0.100
664.500	50.984	0.100
664.600	28.018	0.100
664.700	44.839	0.100
664.800	56.379	0.100
664.900	56.061	0.100
665.000	53.389	0.100
665.100	47.543	0.100
665.200	52.730	0.100
665.300	41.357	0.100
665.400	41.483	0.100
665.500	49.881	0.100
665.600	45.257	0.100
665.700	34.787	0.100
665.800	51.243	0.100
665.900	33.560	0.100
666.000	45.308	0.100
666.100	48.289	0.100
666.200	49.224	0.100
666.300	34.299	0.100
666.400	48.515	0.100
666.500	36.535	0.100
666.600	47.328	0.100
666.700	50.784	0.100
666.800	54.222	0.100
666.900	40.500	0.100
667.000	59.902	0.100
667.100	41.443	0.100
667.200	47.251	0.100
667.300	59.246	0.100
667.400	51.472	0.100
667.500	45.860	0.100
667.600	38.776	0.100
667.700	52.628	0.100
667.800	52.342	0.100
667.900	42.870	0.100
668.000	43.124	0.100
668.100	52.276	0.100
668.200	51.829	0.100
668.300	59.383	0.100
668.400	37.134	0.100
668.500	45.953	0.100
668.600	53.446	0.100
668.700	40.635	0.100
668.800	46.159	0.100
668.900	50.800	0.100
669.000	43.337	0.100
669.100	47.913	0.100
669.200	43.045	0.100
669.300	42.896	0.100
669.400	52.740	0.100
669.500	46.727	0.100
669.600	46.575	0.100
669.700	42.595	0.100
669.800	51.428	0.100
669.900	38.225	0.100
670.000	41.522	0.100
670.100	52.387	0.100
670.200	45.080	0.100
670.300	44.627	0.100
670.400	52.018	0.100
670.500	53.120	0.100
670.600	42.341	0.100
670.700	49.843	0.100
670.800	51.545	0.100
670.900	42.046	0.100
671.000	42.763	0.100
671.100	51.218	0.100
671.200	44.240	0.100
671.300	42.270	0.100
671.400	41.161	0.100
671.500	41.794	0.100
671.600	42.849	0.100
671.700	42.323	0.100
671.800	24.080	0.100
671.900	49.298	0.100
672.000	53.135	0.100
672.100	56.203	0.100
672.200	38.478	0.100
672.300	40.952	0.100
672.400	37.370	0.100
672.500	49.000	0.100
672.600	43.816	0.100
672.700	41.030	0.100
672.800	43.729	0.100
672.900	37.143	0.100
673.000	54.565	0.100
673.100	56.217	0.100
673.200	50.588	0.100
673.300	34.976	0.100
673.400	43.777	0.100
673.500	45.455	0.100
673.600	40.203	0.100
673.700	49.238	0.100
673.800	50.868	0.100
673.900	40.563	0.100
674.000	50.235	0.100
674.100	52.893	0.100
674.200	44.362	0.100
674.300	46.569	0.100
674.400	48.950	0.100
674.500	39.924	0.100
674.600	40.965	0.100
674.700	44.056	0.100
674.800	33.326	0.100
674.900	54.021	0.100
675.000	40.130	0.100
675.100	44.817	0.100
675.200	43.147	0.100
675.300	57.456	0.100
675.400	40.164	0.100
675.500	46.263	0.100
675.600	44.568	0.100
675.700	43.659	0.100
675.800	40.159	0.100
675.900	52.615	0.100
676.000	49.374	0.100
676.100	46.900	0.100
676.200	39.104	0.100
676.300	45.443	0.100
676.400	47.118	0.100
676.500	39.049	0.100
676.600	39.214	0.100
676.700	45.884	0.100
676.800	48.326	0.100
676.900	42.669	0.100
677.000	42.763	0.100
677.100	38.850	0.100
677.200	43.221	0.100
677.300	42.489	0.100
677.400	39.068	0.100
677.500	35.490	0.100
677.600	41.545	0.100
677.700	44.755	0.100
677.800	41.676	0.100
677.900	47.922	0.100
678.000	44.802	0.100
678.100	44.378	0.100
678.200	41.250	0.100
678.300	37.376	0.100
678.400	47.234	0.100
678.500	40.582	0.100
678.600	36.647	0.100
678.700	39.169	0.100
678.800	43.738	0.100
678.900	43.758	0.100
679.000	45.204	0.100
679.100	57.745	0.100
679.200	44.556	0.100
679.300	30.197	0.100
679.400	43.297	0.100
679.500	45.249	0.100
679.600	49.816	0.100
679.700	47.321	0.100
679.800	36.508	0.100
679.900	37.405	0.100
680.000	44.402	0.100
680.100	43.464	0.100
680.200	50.825	0.100
680.300	48.798	0.100
680.400	39.493	0.100
680.500	41.700	0.100
680.600	39.559	0.100
680.700	41.407	0.100
680.800	47.804	0.100
680.900	50.057	0.100
681.000	48.038	0.100
681.100	32.617	0.100
681.200	50.172	0.100
681.300	40.444	0.100
681.400	40.827	0.100
681.500	45.977	0.100
681.600	41.973	0.100
681.700	29.283	0.100
681.800	45.576	0.100
681.900	40.859	0.100
682.000	39.511	0.100
682.100	39.214	0.100
682.200	24.710	0.100
682.300	39.252	0.100
682.400	48.509	0.100
682.500	49.914	0.100
682.600	52.294	0.100
682.700	43.156	0.100
682.800	38.126	0.100
682.900	47.105	0.100
683.000	37.522	0.100
683.100	42.114	0.100
683.200	48.654	0.100
683.300	43.549	0.100
683.400	41.858	0.100
683.500	41.545	0.100
683.600	49.066	0.100
683.700	38.885	0.100
683.800	22.575	0.100
683.900	37.028	0.100
684.000	45.640	0.100
684.100	41.209	0.100
684.200	49.945	0.100
684.300	58.585	0.100
684.400	51.618	0.100
684.500	38.972	0.100
684.600	43.543	0.100
684.700	42.175	0.100
684.800	39.535	0.100
684.900	40.868	0.100
685.000	37.431	0.100
685.100	37.460	0.100
685.200	38.611	0.100
685.300	33.142	0.100
685.400	47.045	0.100
685.500	31.162	0.100
685.600	38.350	0.100
685.700	47.311	0.100
685.800	41.125	0.100
685.900	42.550	0.100
686.000	39.572	0.100
686.100	48.731	0.100
686.200	39.968	0.100
686.300	45.669	0.100
686.400	28.404	0.100
686.500	47.570	0.100
686.600	40.918	0.100
686.700	58.929	0.100
686.800	42.128	0.100
686.900	47.730	0.100
687.000	39.347	0.100
687.100	41.590	0.100
687.200	42.721	0.100
687.300	45.239	0.100
687.400	32.877	0.100
687.500	32.597	0.100
687.600	31.382	0.100
687.700	42.086	0.100
687.800	43.445	0.100
687.900	42.612	0.100
688.000	44.840	0.100
688.100	35.183	0.100
688.200	37.917	0.100
688.300	39.614	0.100
688.400	46.834	0.100
688.500	41.712	0.100
688.600	40.520	0.100
688.700	38.659	0.100
688.800	42.298	0.100
688.900	43.409	0.100
689.000	42.165	0.100
689.100	44.895	0.100
689.200	41.425	0.100
689.300	38.678	0.100
689.400	55.590	0.100
689.500	42.210	0.100
689.600	47.984	0.100
689.700	35.021	0.100
689.800	36.801	0.100
689.900	44.943	0.100
690.000	43.593	0.100
690.100	34.843	0.100
690.200	30.556	0.100
690.300	19.689	0.100
690.400	14.825	0.100
690.500	15.148	0.100
690.600	9.416	0.100
690.700	8.351	0.100
690.800	24.182	0.100
690.900	13.397	0.100
691.000	0.182	0.100
691.100	-3.706	0.100
691.200	-5.502	0.100
691.300	6.790	0.100
691.400	2.613	0.100
691.500	-0.202	0.100
691.600	-9.973	0.100
691.700	-22.995	0.100
691.800	-20.320	0.100
691.900	1.101	0.100
692.000	1.919	0.100
692.100	-24.122	0.100
692.200	-9.196	0.100
692.300	-6.940	0.100
692.400	-16.397	0.100
692.500	-23.717	0.100
692.600	-11.144	0.100
692.700	-22.304	0.100
692.800	-18.140	0.100
692.900	-27.153	0.100
693.000	-23.969	0.100
693.100	-19.380	0.100
693.200	-9.408	0.100
693.300	-13.289	0.100
693.400	-22.327	0.100
693.500	-26.827	0.100
693.600	-12.443	0.100
693.700	-15.462	0.100
693.800	-24.185	0.100
693.900	-25.481	0.100
694.000	-25.809	0.100
694.100	-25.429	0.100
694.200	-20.723	0.100
694.300	-23.664	0.100
694.400	-19.955	0.100
694.500	-13.195	0.100
694.600	-31.229	0.100
694.700	-30.374	0.100
694.800	-25.394	0.100
694.900	-21.869	0.100
695.000	-31.688	0.100
695.100	-28.440	0.100
695.200	-26.237	0.100
695.300	-12.811	0.100
695.400	-16.845	0.100
695.500	-29.429	0.100
695.600	-28.724	0.100
695.700	-16.828	0.100
695.800	-20.867	0.100
695.900	-14.041	0.100
696.000	-25.373	0.100
696.100	-27.688	0.100
696.200	-38.761	0.100
696.300	-17.916	0.100
696.400	-41.814	0.100
696.500	-21.914	0.100
696.600	-15.579	0.100
696.700	-29.093	0.100
696.800	-9.510	0.100
696.900	-25.429	0.100
697.000	-16.847	0.100
697.100	-12.390	0.100
697.200	-20.350	0.100
697.300	-27.925	0.100
697.400	-27.797	0.100
697.500	-17.057	0.100
697.600	-41.183	0.100
697.700	-17.495	0.100
697.800	-18.228	0.100
697.900	-14.584	0.100
698.000	-19.025	0.100
698.100	-40.993	0.100
698.200	-24.867	0.100
698.300	-22.225	0.100
698.400	-20.079	0.100
698.500	-16.383	0.100
698.600	-29.792	0.100
698.700	-22.540	0.100
698.800	-16.936	0.100
698.900	-20.836	0.100
699.000	-21.160	0.100
699.100	-22.697	0.100
699.200	-27.946	0.100
699.300	-25.895	0.100
699.400	-16.756	0.100
699.500	-14.724	0.100
699.600	-11.701	0.100
699.700	-21.273	0.100
699.800	-17.104	0.100
699.900	-29.233	0.100
700.000	-17.085	0.100
700.100	-20.362	0.100
700.200	-21.106	0.100
700.300	-20.235	0.100
700.400	-22.355	0.100
700.500	-30.602	0.100
700.600	-16.298	0.100
700.700	-24.022	0.100
700.800	-23.370	0.100
700.900	-25.444	0.100
701.000	-14.286	0.100
701.100	-16.769	0.100
701.200	-12.342	0.100
701.300	-17.393	0.100
701.400	-28.350	0.100
701.500	-27.565	0.100
701.600	-12.316	0.100
701.700	-27.329	0.100
701.800	-36.432	0.100
701.900	-17.676	0.100
702.000	-13.700	0.100
702.100	-25.677	0.100
702.200	-23.021	0.100
702.300	-25.113	0.100
702.400	-24.867	0.100
702.500	-19.547	0.100
702.600	-24.442	0.100
702.700	-26.048	0.100
702.800	-23.700	0.100
702.900	-29.986	0.100
703.000	-31.468	0.100
703.100	-19.121	0.100
703.200	-18.867	0.100
703.300	-18.343	0.100
703.400	-20.722	0.100
703.500	-27.072	0.100
703.600	-12.609	0.100
703.700	-30.595	0.100
703.800	-21.144	0.100
703.900	-38.790	0.100
704.000	-24.951	0.100
704.100	-13.985	0.100
704.200	-19.800	0.100
704.300	-22.492	0.100
704.400	-19.179	0.100
704.500	-16.692	0.100
704.600	-26.350	0.100
704.700	-26.014	0.100
704.800	-25.090	0.100
704.900	-30.603	0.100
705.000	-31.603	0.100
705.100	-20.372	0.100
705.200	-30.259	0.100
705.300	-25.427	0.100
705.400	-25.330	0.100
705.500	-21.490	0.100
705.600	-28.283	0.100
705.700	-27.472	0.100
705.800	-23.950	0.100
705.900	-31.684	0.100
706.000	-23.505	0.100
706.100	-19.255	0.100
706.200	-29.720	0.100
706.300	-29.218	0.100
706.400	-26.540	0.100
706.500	-15.258	0.100
706.600	-28.301	0.100
706.700	-19.128	0.100
706.800	-30.953	0.100
706.900	-38.270	0.100
707.000	-30.551	0.100
707.100	-19.342	0.100
707.200	-18.379	0.100
707.300	-29.409	0.100
707.400	-24.634	0.100
707.500	-24.901	0.100
707.600	-36.372	0.100
707.700	-25.677	0.100
707.800	-19.511	0.100
707.900	-21.160	0.100
708.000	-24.484	0.100
708.100	-34.647	0.100
708.200	-34.175	0.100
708.300	-22.499	0.100
708.400	-18.711	0.100
708.500	-21.077	0.100
708.600	-35.835	0.100
708.700	-23.481	0.100
708.800	-25.452	0.100
708.900	-21.689	0.100
709.000	-21.696	0.100
709.100	-19.401	0.100
709.200	-24.537	0.100
709.300	-33.357	0.100
709.400	-22.784	0.100
709.500	-37.578	0.100
709.600	-26.660	0.100
709.700	-27.515	0.100
709.800	-30.409	0.100
709.900	-28.961	0.100
710.000	-14.348	0.100
710.100	-34.435	0.100
710.200	-26.317	0.100
710.300	-28.787	0.100
710.400	-34.366	0.100
710.500	-25.529	0.100
710.600	-23.978	0.100
710.700	-24.007	0.100
710.800	-30.963	0.100
710.900	-26.426	0.100
711.000	-37.576	0.100
711.100	-29.681	0.100
711.200	-24.393	0.100
711.300	-29.264	0.100
711.400	-22.103	0.100
711.500	-25.207	0.100
711.600	-28.625	0.100
711.700	-24.171	0.100
711.800	-26.798	0.100
711.900	-25.168	0.100
712.000	-28.174	0.100
712.100	-33.084	0.100
712.200	-26.327	0.100
712.300	-36.388	0.100
712.400	-32.689	0.100
712.500	-24.154	0.100
712.600	-25.436	0.100
712.700	-39.008	0.100
712.800	-31.877	0.100
712.900	-37.618	0.100
713.000	-30.004	0.100
713.100	-11.649	0.100
713.200	-23.113	0.100
713.300	-22.929	0.100
713.400	-27.940	0.100
713.500	-30.878	0.100
713.600	-20.779	0.100
713.700	-37.142	0.100
713.800	-29.946	0.100
713.900	-32.907	0.100
714.000	-43.078	0.100
714.100	-35.449	0.100
714.200	-24.438	0.100
714.300	-32.176	0.100
714.400	-22.131	0.100
714.500	-17.088	0.100
714.600	-27.324	0.100
714.700	-27.337	0.100
714.800	-32.125	0.100
714.900	-16.384	0.100
715.000	-30.510	0.100
715.100	-23.479	0.100
715.200	-45.178	0.100
715.300	-36.707	0.100
715.400	-34.165	0.100
715.500	-33.183	0.100
715.600	-23.748	0.100
715.700	-33.962	0.100
715.800	-33.655	0.100
715.900	-29.280	0.100
716.000	-27.202	0.100
716.100	-26.570	0.100
716.200	-34.160	0.100
716.300	-32.832	0.100
716.400	-32.798	0.100
716.500	-27.053	0.100
716.600	-24.949	0.100
716.700	-31.898	0.100
716.800	-43.143	0.100
716.900	-47.166	0.100
717.000	-24.196	0.100
717.100	-30.167	0.100
717.200	-32.713	0.100
717.300	-29.590	0.100
717.400	-39.703	0.100
717.500	-39.762	0.100
717.600	-16.254	0.100
717.700	-24.717	0.100
717.800	-20.940	0.100
717.900	-43.490	0.100
718.000	-28.713	0.100
718.100	-34.557	0.100
718.200	-33.027	0.100
718.300	-35.490	0.100
718.400	-25.745	0.100
718.500	-35.270	0.100
718.600	-21.507	0.100
718.700	-34.411	0.100
718.800	-25.809	0.100
718.900	-23.769	0.100
719.000	-19.442	0.100
719.100	-34.379	0.100
719.200	-41.069	0.100
719.300	-36.198	0.100
719.400	-33.576	0.100
719.500	-26.019	0.100
719.600	-31.533	0.100
719.700	-32.727	0.100
719.800	-32.442	0.100
719.900	-37.473	0.100
720.000	-32.234	0.100
720.100	-39.272	0.100
720.200	-30.908	0.100
720.300	-42.530	0.100
720.400	-23.636	0.100
720.500	-33.413	0.100
720.600	-31.564	0.100
720.700	-29.692	0.100
720.800	-21.366	0.100
720.900	-36.350	0.100
721.000	-48.565	0.100
721.100	-37.601	0.100
721.200	-38.050	0.100
721.300	-26.531	0.100
721.400	-35.506	0.100
721.500	-35.363	0.100
721.600	-32.335	0.100
721.700	-31.187	0.100
721.800	-32.303	0.100
721.900	-32.748	0.100
722.000	-34.524	0.100
722.100	-33.037	0.100
722.200	-39.138	0.100
722.300	-30.475	0.100
722.400	-28.198	0.100
722.500	-32.884	0.100
722.600	-39.628	0.100
722.700	-37.902	0.100
722.800	-36.890	0.100
722.900	-38.505	0.100
723.000	-31.023	0.100
723.100	-24.404	0.100
723.200	-27.781	0.100
723.300	-31.982	0.100
723.400	-26.509	0.100
723.500	-18.961	0.100
723.600	-30.504	0.100
723.700	-30.367	0.100
723.800	-33.318	0.100
723.900	-34.654	0.100
724.000	-44.554	0.100
724.100	-39.846	0.100
724.200	-28.573	0.100
724.300	-27.000	0.100
724.400	-22.471	0.100
724.500	-21.796	0.100
724.600	-45.342	0.100
724.700	-32.556	0.100
724.800	-39.617	0.100
724.900	-24.931	0.100
725.000	-29.801	0.100
725.100	-39.368	0.100
725.200	-30.087	0.100
725.300	-19.186	0.100
725.400	-45.831	0.100
725.500	-38.057	0.100
725.600	-32.375	0.100
725.700	-26.509	0.100
725.800	-29.515	0.100
725.900	-35.861	0.100
726.000	-25.359	0.100
726.100	-32.880	0.100
726.200	-32.937	0.100
726.300	-33.014	0.100
726.400	-32.861	0.100
726.500	-33.790	0.100
726.600	-31.162	0.100
726.700	-35.731	0.100
726.800	-25.928	0.100
726.900	-41.875	0.100
727.000	-32.336	0.100
727.100	-26.270	0.100
727.200	-25.307	0.100
727.300	-40.489	0.100
727.400	-37.846	0.100
727.500	-33.068	0.100
727.600	-32.701	0.100
727.700	-23.497	0.100
727.800	-28.715	0.100
727.900	-28.691	0.100
728.000	-38.305	0.100
728.100	-44.768	0.100
728.200	-45.088	0.100
728.300	-19.862	0.100
728.400	-44.973	0.100
728.500	-40.258	0.100
728.600	-28.461	0.100
728.700	-40.735	0.100
728.800	-32.845	0.100
728.900	-37.288	0.100
729.000	-26.137	0.100
729.100	-29.675	0.100
729.200	-37.616	0.100
729.300	-35.226	0.100
729.400	-29.435	0.100
729.500	-37.864	0.100
729.600	-37.480	0.100
729.700	-33.959	0.100
729.800	-40.783	0.100
729.900	-33.435	0.100
730.000	-31.532	0.100
730.100	-30.302	0.100
730.200	-36.759	0.100
730.300	-23.607	0.100
730.400	-31.211	0.100
730.500	-30.095	0.100
730.600	-22.395	0.100
730.700	-30.519	0.100
730.800	-47.335	0.100
730.900	-36.484	0.100
731.000	-42.647	0.100
731.100	-42.523	0.100
731.200	-21.488	0.100
731.300	-23.851	0.100
731.400	-43.594	0.100
731.500	-44.412	0.100
731.600	-36.185	0.100
731.700	-27.661	0.100
731.800	-43.276	0.100
731.900	-27.257	0.100
732.000	-33.661	0.100
732.100	-26.869	0.100
732.200	-35.082	0.100
732.300	-34.413	0.100
732.400	-37.520	0.100
732.500	-27.527	0.100
732.600	-28.938	0.100
732.700	-35.705	0.100
732.800	-32.225	0.100
732.900	-32.382	0.100
733.000	-42.969	0.100
733.100	-29.094	0.100
733.200	-36.605	0.100
733.300	-27.657	0.100
733.400	-35.046	0.100
733.500	-35.886	0.100
733.600	-28.614	0.100
733.700	-28.569	0.100
733.800	-29.293	0.100
733.900	-38.100	0.100
734.000	-39.158	0.100
734.100	-43.735	0.100
734.200	-17.271	0.100
734.300	-28.589	0.100
734.400	-27.063	0.100
734.500	-42.569	0.100
734.600	-25.114	0.100
734.700	-41.496	0.100
734.800	-22.255	0.100
734.900	-28.779	0.100
735.000	-39.013	0.100
735.100	-37.914	0.100
735.200	-27.484	0.100
735.300	-29.329	0.100
735.400	-33.556	0.100
735.500	-35.479	0.100
735.600	-33.384	0.100
735.700	-40.988	0.100
735.800	-53.283	0.100
735.900	-32.106	0.100
736.000	-25.342	0.100
736.100	-36.517	0.100
736.200	-26.869	0.100
736.300	-34.755	0.100
736.400	-29.099	0.100
736.500	-28.970	0.100
736.600	-27.845	0.100
736.700	-28.294	0.100
736.800	-30.583	0.100
736.900	-25.924	0.100
737.000	-28.787	0.100
737.100	-31.663	0.100
737.200	-15.692	0.100
737.300	-34.891	0.100
737.400	-46.420	0.100
737.500	-30.512	0.100
737.600	-32.054	0.100
737.700	-43.517	0.100
737.800	-36.275	0.100
737.900	-43.839	0.100
738.000	-31.195	0.100
738.100	-37.309	0.100
738.200	-31.345	0.100
738.300	-10.736	0.100
738.400	-34.021	0.100
738.500	-38.187	0.100
738.600	-33.128	0.100
738.700	-37.840	0.100
738.800	-28.146	0.100
738.900	-31.828	0.100
739.000	-26.439	0.100
739.100	-32.622	0.100
739.200	-20.887	0.100
739.300	-35.920	0.100
739.400	-29.634	0.100
739.500	-19.804	0.100
739.600	-26.985	0.100
739.700	-30.155	0.100
739.800	-40.118	0.100
739.900	-34.780	0.100
740.000	-25.555	0.100
740.100	-20.288	0.100
740.200	-19.833	0.100
740.300	-31.135	0.100
740.400	-31.405	0.100
740.500	-37.516	0.100
740.600	-32.159	0.100
740.700	-34.610	0.100
740.800	-29.770	0.100
740.900	-36.142	0.100
741.000	-44.995	0.100
741.100	-28.907	0.100
741.200	-32.942	0.100
741.300	-38.254	0.100
741.400	-30.519	0.100
741.500	-33.545	0.100
741.600	-28.439	0.100
741.700	-25.476	0.100
741.800	-21.467	0.100
741.900	-30.253	0.100
742.000	-38.321	0.100
742.100	-48.926	0.100
742.200	-21.107	0.100
742.300	-32.671	0.100
742.400	-37.941	0.100
742.500	-25.555	0.100
742.600	-44.656	0.100
742.700	-35.055	0.100
742.800	-33.201	0.100
742.900	-26.068	0.100
743.000	-33.056	0.100
743.100	-24.877	0.100
743.200	-20.250	0.100
743.300	-28.671	0.100
743.400	-38.735	0.100
743.500	-22.948	0.100
743.600	-29.897	0.100
743.700	-31.306	0.100
743.800	-30.049	0.100
743.900	-40.444	0.100
744.000	-33.993	0.100
744.100	-37.024	0.100
744.200	-24.057	0.100
744.300	-24.903	0.100
744.400	-38.803	0.100
744.500	-37.594	0.100
744.600	-34.208	0.100
744.700	-26.153	0.100
744.800	-14.351	0.100
744.900	-27.745	0.100
745.000	-26.751	0.100
745.100	-27.494	0.100
745.200	-32.084	0.100
745.300	-31.363	0.100
745.400	-34.733	0.100
745.500	-32.850	0.100
745.600	-37.239	0.100
745.700	-31.704	0.100
745.800	-28.134	0.100
745.900	-43.868	0.100
746.000	-33.159	0.100
746.100	-29.736	0.100
746.200	-23.626	0.100
746.300	-38.777	0.100
746.400	-26.354	0.100
746.500	-28.651	0.100
746.600	-27.712	0.100
746.700	-15.215	0.100
746.800	-20.092	0.100
746.900	-39.849	0.100
747.000	-27.408	0.100
747.100	-32.291	0.100
747.200	-25.207	0.100
747.300	-25.221	0.100
747.400	-26.063	0.100
747.500	-34.864	0.100
747.600	-32.943	0.100
747.700	-20.125	0.100
747.800	-28.283	0.100
747.900	-49.684	0.100
748.000	-38.877	0.100
748.100	-19.050	0.100
748.200	-34.101	0.100
748.300	-13.021	0.100
748.400	-38.466	0.100
748.500	-25.525	0.100
748.600	-23.873	0.100
748.700	-39.617	0.100
748.800	-27.631	0.100
748.900	-28.211	0.100
749.000	-24.578	0.100
749.100	-31.790	0.100
749.200	-23.384	0.100
749.300	-30.612	0.100
749.400	-20.814	0.100
749.500	-17.892	0.100
749.600	-27.778	0.100
749.700	-43.097	0.100
749.800	-32.673	0.100
749.900	-25.922	0.100
750.000	-25.075	0.100
750.100	-27.702	0.100
750.200	-18.936	0.100
750.300	-32.878	0.100
750.400	-37.825	0.100
750.500	-36.396	0.100
750.600	-34.165	0.100
750.700	-17.971	0.100
750.800	-24.020	0.100
750.900	-30.059	0.100
751.000	-27.733	0.100
751.100	-28.382	0.100
751.200	-17.497	0.100
751.300	-25.817	0.100
751.400	-19.516	0.100
751.500	-30.534	0.100
751.600	-32.970	0.100
751.700	-28.779	0.100
751.800	-36.400	0.100
751.900	-22.383	0.100
752.000	-27.111	0.100
752.100	-35.804	0.100
752.200	-21.827	0.100
752.300	-18.559	0.100
752.400	-24.919	0.100
752.500	-27.958	0.100
752.600	-31.626	0.100
752.700	-44.271	0.100
752.800	-23.455	0.100
752.900	-33.223	0.100
753.000	-32.986	0.100
753.100	-34.866	0.100
753.200	-26.753	0.100
753.300	-32.794	0.100
753.400	-25.670	0.100
753.500	-4.757	0.100
753.600	-15.058	0.100
753.700	-27.787	0.100
753.800	-31.056	0.100
753.900	-46.287	0.100
754.000	-25.983	0.100
754.100	-15.053	0.100
754.200	-20.244	0.100
754.300	-37.387	0.100
754.400	-27.357	0.100
754.500	-29.383	0.100
754.600	-27.031	0.100
754.700	-29.124	0.100
754.800	-22.388	0.100
754.900	-25.912	0.100
755.000	-46.392	0.100
755.100	-32.299	0.100
755.200	-30.706	0.100
755.300	-28.138	0.100
755.400	-30.119	0.100
755.500	-21.329	0.100
755.600	-36.994	0.100
755.700	-26.871	0.100
755.800	-35.154	0.100
755.900	-20.015	0.100
756.000	-29.709	0.100
756.100	-28.977	0.100
756.200	-28.150	0.100
756.300	-23.960	0.100
756.400	-20.783	0.100
756.500	-14.652	0.100
756.600	-20.798	0.100
756.700	-32.735	0.100
756.800	-25.148	0.100
756.900	-36.202	0.100
757.000	-16.450	0.100
757.100	-23.167	0.100
757.200	-29.132	0.100
757.300	-20.270	0.100
757.400	-25.433	0.100
757.500	-28.487	0.100
757.600	-33.843	0.100
757.700	-22.763	0.100
757.800	-24.181	0.100
757.900	-14.766	0.100
758.000	-23.548	0.100
758.100	-25.775	0.100
758.200	-34.604	0.100
758.300	-35.117	0.100
758.400	-31.740	0.100
758.500	-37.677	0.100
758.600	-23.516	0.100
758.700	-36.504	0.100
758.800	-36.333	0.100
758.900	-13.981	0.100
759.000	-26.702	0.100
759.100	-28.268	0.100
759.200	-34.582	0.100
759.300	-10.011	0.100
759.400	-17.163	0.100
759.500	-22.808	0.100
759.600	-36.228	0.100
759.700	-22.328	0.100
759.800	-33.917	0.100
759.900	-32.106	0.100
760.000	-29.200	0.100
760.100	-22.042	0.100
760.200	-33.255	0.100
760.300	-17.517	0.100
760.400	-21.821	0.100
760.500	-21.687	0.100
760.600	-39.845	0.100
760.700	-13.095	0.100
760.800	-33.216	0.100
760.900	-34.971	0.100
761.000	-15.347	0.100
761.100	-18.847	0.100
761.200	-29.154	0.100
761.300	-27.660	0.100
761.400	-28.248	0.100
761.500	-23.308	0.100
761.600	-20.065	0.100
761.700	-29.596	0.100
761.800	-35.357	0.100
761.900	-25.919	0.100
762.000	-15.775	0.100
762.100	-40.983	0.100
762.200	-28.064	0.100
762.300	-27.067	0.100
762.400	-28.917	0.100
762.500	-21.869	0.100
762.600	-27.234	0.100
762.700	-26.329	0.100
762.800	-15.424	0.100
762.900	-21.287	0.100
763.000	-15.859	0.100
763.100	-30.595	0.100
763.200	-25.076	0.100
763.300	-30.436	0.100
763.400	-37.915	0.100
763.500	-22.933	0.100
763.600	-18.412	0.100
763.700	-29.676	0.100
763.800	-16.978	0.100
763.900	-29.126	0.100
764.000	-30.297	0.100
764.100	-26.390	0.100
764.200	-20.632	0.100
764.300	-37.889	0.100
764.400	-22.305	0.100
764.500	-31.431	0.100
764.600	-26.488	0.099
764.700	-33.837	0.100
764.800	-12.518	0.100
764.900	-15.778	0.100
765.000	-28.194	0.100
765.100	-33.265	0.100
765.200	-26.272	0.100
765.300	-15.564	0.099
765.400	-30.095	0.100
765.500	-25.133	0.100
765.600	-16.050	0.100
765.700	-14.596	0.100
765.800	-26.653	0.100
765.900	-24.617	0.100
766.000	-26.664	0.100
766.100	-40.876	0.099
766.200	-18.803	0.100
766.300	-24.593	0.100
766.400	-24.613	0.100
766.500	-19.963	0.099
766.600	-14.369	0.100
766.700	-18.703	0.100
766.800	-32.561	0.100
766.900	-23.242	0.099
767.000	-28.142	0.099
767.100	-10.694	0.100
767.200	-22.357	0.100
767.300	-33.515	0.099
767.400	-32.051	0.099
767.500	-31.893	0.100
767.600	-14.580	0.100
767.700	-26.607	0.099
767.800	-24.902	0.099
767.900	-18.090	0.100
768.000	-19.567	0.100
768.100	-14.414	0.100
768.200	-24.501	0.099
768.300	-16.108	0.100
768.400	-20.149	0.100
768.500	-38.004	0.099
768.600	-23.337	0.099
768.700	-27.775	0.099
768.800	-23.494	0.099
768.900	-21.843	0.099
769.000	-12.205	0.099
769.100	-18.763	0.099
769.200	-34.640	0.099
769.300	-28.880	0.099
769.400	-20.177	0.099
769.500	-20.529	0.099
769.600	-26.972	0.099
769.700	-32.152	0.099
769.800	-24.354	0.099
769.900	-21.708	0.099
770.000	-11.603	0.099
770.100	-14.546	0.099
770.200	-30.477	0.099
770.300	-31.154	0.100
770.400	-25.722	0.099
770.500	-21.389	0.099
770.600	-21.075	0.099
770.700	-28.559	0.099
770.800	-18.853	0.099
770.900	-29.707	0.099
771.000	-32.219	0.099
771.100	-22.210	0.099
771.200	-19.325	0.100
771.300	-38.051	0.099
771.400	-25.100	0.099
771.500	-25.731	0.099
771.600	-32.643	0.099
771.700	-18.698	0.099
771.800	-23.774	0.099
771.900	-34.697	0.099
772.000	-20.913	0.099
772.100	-25.320	0.099
772.200	-22.317	0.099
772.300	-23.484	0.099
772.400	-26.220	0.099
772.500	-44.593	0.099
772.600	-27.704	0.099
772.700	-19.487	0.099
772.800	-26.687	0.099
772.900	-10.332	0.099
773.000	-16.793	0.099
773.100	-38.405	0.099
773.200	-22.738	0.099
773.300	-18.181	0.099
773.400	-19.876	0.099
773.500	-12.321	0.099
773.600	-20.799	0.099
773.700	-24.832	0.099
773.800	-22.455	0.099
773.900	-12.672	0.099
774.000	-27.087	0.099
774.100	-28.712	0.099
774.200	-15.349	0.099
774.300	-36.830	0.099
774.400	-22.955	0.099
774.500	-25.688	0.099
774.600	-16.828	0.099
774.700	-19.244	0.099
774.800	-30.266	0.099
774.900	-27.955	0.099
775.000	-15.361	0.099
775.100	-38.024	0.099
775.200	-20.391	0.099
775.300	-26.127	0.099
775.400	-16.657	0.099
775.500	-14.629	0.099
775.600	-33.356	0.099
775.700	-28.450	0.099
775.800	-24.655	0.099
775.900	-16.768	0.099
776.000	-16.976	0.099
776.100	-23.821	0.099
776.200	-30.196	0.099
776.300	-24.640	0.099
776.400	-22.365	0.099
776.500	-17.817	0.099
776.600	-21.188	0.099
776.700	-23.993	0.099
776.800	-30.064	0.099
776.900	-32.340	0.099
777.000	-15.001	0.099
777.100	-20.050	0.099
777.200	-26.890	0.099
777.300	-33.557	0.099
777.400	-20.415	0.099
777.500	-13.720	0.099
777.600	-31.570	0.099
777.700	-24.290	0.099
777.800	-17.370	0.099
777.900	-27.958	0.099
778.000	-24.278	0.099
778.100	-30.798	0.099
778.200	-22.357	0.099
778.300	-30.882	0.099
778.400	-36.939	0.099
778.500	-29.390	0.099
778.600	-17.836	0.099
778.700	-7.628	0.099
778.800	-5.799	0.099
778.900	-29.924	0.099
779.000	-25.465	0.099
779.100	-27.711	0.099
779.200	-29.349	0.099
779.300	-13.145	0.099
779.400	-15.842	0.099
779.500	-25.400	0.099
779.600	-25.233	0.099
779.700	-23.763	0.099
779.800	-26.521	0.099
779.900	-20.057	0.099
780.000	-27.166	0.099
780.100	-14.635	0.099
780.200	-20.008	0.099
780.300	-6.620	0.099
780.400	-13.557	0.099
780.500	-7.787	0.099
780.600	4.531	0.099
780.700	7.583	0.099
780.800	11.686	0.099
780.900	6.036	0.099
781.000	10.807	0.099
781.100	23.042	0.099
781.200	14.145	0.099
781.300	16.169	0.099
781.400	18.719	0.099
781.500	14.179	0.099
781.600	24.900	0.099
781.700	29.668	0.099
781.800	9.920	0.099
781.900	26.113	0.099
782.000	17.373	0.099
782.100	18.508	0.099
782.200	4.853	0.099
782.300	6.307	0.099
782.400	26.274	0.099
782.500	14.759	0.099
782.600	3.360	0.099
782.700	6.172	0.099
782.800	4.596	0.099
782.900	21.993	0.099
783.000	15.716	0.099
783.100	11.965	0.099
783.200	5.881	0.099
783.300	14.531	0.099
783.400	-6.897	0.099
783.500	15.618	0.099
783.600	25.850	0.099
783.700	9.652	0.099
783.800	8.568	0.099
783.900	8.437	0.099
784.000	12.834	0.099
784.100	12.212	0.099
784.200	6.095	0.099
784.300	7.916	0.099
784.400	9.414	0.099
784.500	0.257	0.099
784.600	5.563	0.099
784.700	11.021	0.099
784.800	13.967	0.099
784.900	7.342	0.099
785.000	11.004	0.099
785.100	11.065	0.099
785.200	7.045	0.099
785.300	6.253	0.099
785.400	12.333	0.099
785.500	6.132	0.099
785.600	15.145	0.099
785.700	9.337	0.099
785.800	15.922	0.099
785.900	8.531	0.099
786.000	9.567	0.099
786.100	-2.428	0.099
786.200	-6.754	0.099
786.300	11.154	0.099
786.400	14.018	0.099
786.500	10.890	0.099
786.600	12.596	0.099
786.700	5.714	0.099
786.800	12.760	0.099
786.900	1.873	0.099
787.000	10.646	0.099
787.100	8.751	0.099
787.200	4.795	0.099
787.300	24.443	0.099
787.400	7.183	0.099
787.500	18.131	0.099
787.600	18.718	0.099
787.700	19.278	0.099
787.800	2.636	0.099
787.900	20.977	0.099
788.000	12.205	0.099
788.100	9.188	0.099
788.200	16.613	0.099
788.300	24.242	0.099
788.400	21.201	0.099
788.500	12.674	0.099
788.600	6.478	0.099
788.700	19.851	0.099
788.800	8.511	0.099
788.900	13.870	0.099
789.000	0.494	0.099
789.100	12.515	0.099
789.200	18.530	0.099
789.300	28.478	0.099
789.400	28.352	0.099
789.500	23.976	0.099
789.600	19.097	0.099
789.700	14.836	0.099
789.800	2.925	0.099
789.900	25.695	0.099
790.000	17.850	0.099
790.100	23.534	0.099
790.200	32.928	0.099
790.300	20.594	0.099
790.400	19.440	0.099
790.500	32.380	0.099
790.600	35.113	0.099
790.700	33.059	0.099
790.800	29.277	0.099
790.900	21.528	0.099
791.000	17.329	0.099
791.100	28.746	0.099
791.200	20.996	0.099
791.300	34.607	0.099
791.400	29.790	0.099
791.500	14.703	0.099
791.600	29.080	0.099
791.700	44.384	0.099
791.800	43.027	0.099
791.900	32.684	0.099
792.000	36.861	0.099
792.100	26.960	0.099
792.200	36.149	0.099
792.300	28.567	0.099
792.400	27.875	0.099
792.500	36.096	0.099
792.600	31.554	0.099
792.700	30.521	0.099
792.800	47.118	0.099
792.900	36.598	0.099
793.000	41.846	0.099
793.100	34.812	0.099
793.200	28.077	0.099
793.300	30.866	0.099
793.400	48.567	0.099
793.500	50.139	0.099
793.600	47.876	0.099
793.700	39.172	0.099
793.800	33.631	0.099
793.900	38.489	0.099
794.000	58.881	0.099
794.100	44.886	0.099
794.200	37.559	0.099
794.300	33.660	0.099
794.400	38.215	0.099
794.500	46.019	0.099
794.600	53.501	0.099
794.700	47.458	0.099
794.800	49.382	0.099
794.900	38.092	0.099
795.000	35.282	0.099
795.100	51.314	0.099
795.200	48.476	0.099
795.300	54.521	0.099
795.400	38.803	0.099
795.500	34.374	0.099
795.600	34.126	0.099
795.700	48.553	0.099
795.800	51.802	0.099
795.900	52.595	0.099
796.000	48.989	0.099
796.100	54.182	0.099
796.200	41.538	0.099
796.300	42.214	0.099
796.400	46.063	0.099
796.500	49.621	0.099
796.600	52.873	0.099
796.700	41.178	0.099
796.800	48.386	0.099
796.900	41.612	0.099
797.000	48.385	0.099
797.100	54.735	0.099
797.200	52.025	0.099
797.300	42.132	0.099
797.400	47.843	0.099
797.500	43.307	0.099
797.600	48.084	0.099
797.700	51.698	0.099
797.800	49.180	0.099
797.900	43.415	0.099
798.000	37.384	0.099
798.100	44.734	0.099
798.200	61.860	0.099
798.300	52.423	0.099
798.400	55.104	0.099
798.500	60.293	0.099
798.600	57.949	0.099
798.700	48.760	0.099
798.800	42.375	0.099
798.900	48.239	0.099
799.000	52.857	0.099
799.100	55.999	0.099
799.200	45.089	0.099
799.300	47.397	0.099
799.400	53.031	0.099
799.500	56.294	0.099
799.600	52.205	0.099
799.700	50.698	0.099
799.800	57.230	0.099
799.900	53.879	0.099
800.000	51.636	0.099
