time /s	I /nA	E /V
0.100	10.402	0.101
0.200	0.814	0.101
0.300	11.404	0.101
0.400	13.008	0.101
0.500	6.181	0.101
0.600	4.622	0.101
0.700	8.793	0.101
0.800	9.298	0.101
0.900	0.502	0.101
1.000	1.999	0.101
1.100	9.566	0.101
1.200	6.806	0.101
1.300	3.434	0.101
1.400	14.028	0.101
1.500	9.264	0.101
1.600	7.280	0.101
1.700	7.706	0.101
1.800	7.689	0.101
1.900	-7.553	0.101
2.000	6.432	0.101
2.100	6.340	0.101
2.200	16.511	0.101
2.300	12.494	0.101
2.400	2.984	0.101
2.500	9.177	0.101
2.600	12.112	0.101
2.700	6.208	0.101
2.800	12.644	0.101
2.900	2.893	0.101
3.000	4.017	0.101
3.100	6.589	0.101
3.200	14.039	0.101
3.300	11.011	0.101
3.400	9.027	0.101
3.500	11.977	0.101
3.600	5.345	0.101
3.700	4.421	0.101
3.800	7.353	0.101
3.900	16.826	0.101
4.000	-2.377	0.101
4.100	9.948	0.101
4.200	9.049	0.101
4.300	15.245	0.101
4.400	8.301	0.101
4.500	12.229	0.101
4.600	7.863	0.101
4.700	13.357	0.101
4.800	5.479	0.101
4.900	11.593	0.101
5.000	4.533	0.101
5.100	13.288	0.101
5.200	10.475	0.101
5.300	13.826	0.101
5.400	3.154	0.101
5.500	17.316	0.101
5.600	0.823	0.101
5.700	11.593	0.101
5.800	1.624	0.101
5.900	-2.132	0.101
6.000	14.871	0.101
6.100	0.768	0.101
6.200	12.821	0.101
6.300	10.202	0.101
6.400	15.075	0.101
6.500	2.944	0.101
6.600	-0.571	0.101
6.700	3.274	0.101
6.800	2.122	0.101
6.900	10.093	0.101
7.000	8.678	0.101
7.100	3.576	0.101
7.200	4.731	0.101
7.300	1.026	0.101
7.400	16.612	0.101
7.500	8.747	0.101
7.600	11.136	0.101
7.700	7.065	0.101
7.800	9.040	0.101
7.900	5.470	0.101
8.000	6.325	0.101
8.100	5.492	0.101
8.200	11.975	0.101
8.300	5.330	0.101
8.400	8.805	0.101
8.500	9.368	0.101
8.600	11.596	0.101
8.700	8.864	0.101
8.800	16.602	0.101
8.900	13.793	0.101
9.000	6.543	0.101
9.100	3.361	0.101
9.200	8.318	0.101
9.300	5.961	0.101
9.400	9.803	0.101
9.500	8.368	0.101
9.600	12.914	0.101
9.700	7.343	0.101
9.800	7.830	0.101
9.900	2.674	0.101
10.000	4.058	0.101
10.100	14.049	0.101
10.200	8.869	0.101
10.300	0.266	0.101
10.400	1.112	0.101
10.500	7.772	0.101
10.600	11.358	0.101
10.700	7.123	0.101
10.800	8.099	0.101
10.900	8.204	0.101
11.000	9.317	0.101
11.100	5.092	0.101
11.200	9.666	0.101
11.300	8.463	0.101
11.400	0.360	0.101
11.500	10.099	0.101
11.600	19.764	0.101
11.700	2.290	0.101
11.800	5.907	0.101
11.900	24.477	0.101
12.000	2.634	0.101
12.100	12.519	0.101
12.200	10.171	0.101
12.300	-0.815	0.101
12.400	14.239	0.101
12.500	5.127	0.101
12.600	5.268	0.101
12.700	14.736	0.101
12.800	1.527	0.101
12.900	12.585	0.101
13.000	12.081	0.101
13.100	8.905	0.101
13.200	7.675	0.101
13.300	10.123	0.101
13.400	8.836	0.101
13.500	7.917	0.101
13.600	5.936	0.101
13.700	2.218	0.101
13.800	-4.032	0.101
13.900	14.890	0.101
14.000	1.269	0.101
14.100	5.091	0.101
14.200	4.343	0.101
14.300	3.791	0.101
14.400	8.471	0.101
14.500	10.950	0.101
14.600	7.726	0.101
14.700	6.910	0.101
14.800	14.525	0.101
14.900	14.083	0.101
15.000	1.876	0.101
15.100	13.794	0.101
15.200	7.866	0.101
15.300	6.295	0.101
15.400	9.461	0.101
15.500	12.944	0.101
15.600	12.459	0.101
15.700	8.873	0.101
15.800	3.062	0.101
15.900	10.717	0.101
16.000	13.003	0.101
16.100	14.955	0.101
16.200	13.970	0.101
16.300	1.049	0.101
16.400	9.680	0.101
16.500	9.132	0.101
16.600	6.241	0.101
16.700	3.224	0.101
16.800	10.017	0.101
16.900	6.737	0.101
17.000	11.555	0.101
17.100	3.792	0.101
17.200	3.080	0.101
17.300	13.093	0.101
17.400	19.800	0.101
17.500	11.072	0.101
17.600	6.709	0.101
17.700	4.240	0.101
17.800	4.241	0.101
17.900	10.960	0.101
18.000	16.060	0.101
18.100	14.221	0.101
18.200	12.232	0.101
18.300	9.951	0.101
18.400	14.251	0.101
18.500	11.033	0.101
18.600	0.930	0.101
18.700	11.744	0.101
18.800	6.027	0.101
18.900	15.938	0.101
19.000	11.324	0.101
19.100	6.889	0.101
19.200	-0.176	0.101
19.300	6.237	0.101
19.400	6.164	0.101
19.500	7.773	0.101
19.600	8.831	0.101
19.700	9.694	0.101
19.800	11.380	0.101
19.900	10.724	0.101
20.000	1.995	0.101
20.100	-1.767	0.101
20.200	6.496	0.101
20.300	12.969	0.101
20.400	8.574	0.101
20.500	14.214	0.101
20.600	12.237	0.101
20.700	11.288	0.101
20.800	-1.028	0.101
20.900	9.078	0.101
21.000	10.894	0.101
21.100	5.881	0.101
21.200	4.240	0.101
21.300	1.410	0.101
21.400	4.463	0.101
21.500	7.552	0.101
21.600	11.902	0.101
21.700	9.405	0.101
21.800	8.594	0.101
21.900	11.798	0.101
22.000	12.724	0.101
22.100	5.539	0.101
22.200	8.314	0.101
22.300	13.767	0.101
22.400	4.041	0.101
22.500	13.233	0.101
22.600	10.044	0.101
22.700	10.309	0.101
22.800	4.433	0.101
22.900	15.166	0.101
23.000	13.006	0.101
23.100	12.892	0.101
23.200	12.682	0.101
23.300	15.496	0.101
23.400	5.153	0.101
23.500	13.743	0.101
23.600	25.047	0.101
23.700	1.213	0.101
23.800	-4.077	0.101
23.900	7.557	0.101
24.000	7.090	0.101
24.100	11.500	0.101
24.200	8.699	0.101
24.300	8.281	0.101
24.400	8.721	0.101
24.500	3.815	0.101
24.600	9.385	0.101
24.700	1.181	0.101
24.800	0.958	0.101
24.900	0.886	0.101
25.000	11.385	0.101
25.100	9.051	0.101
25.200	18.590	0.101
25.300	20.189	0.101
25.400	6.758	0.101
25.500	6.357	0.101
25.600	-5.280	0.101
25.700	12.178	0.101
25.800	19.744	0.101
25.900	11.829	0.101
26.000	14.417	0.101
26.100	15.997	0.101
26.200	21.509	0.101
26.300	-0.354	0.101
26.400	1.843	0.101
26.500	15.301	0.101
26.600	8.291	0.101
26.700	9.501	0.101
26.800	17.332	0.101
26.900	8.723	0.101
27.000	7.193	0.101
27.100	4.000	0.101
27.200	7.435	0.101
27.300	2.304	0.101
27.400	0.937	0.101
27.500	12.942	0.101
27.600	1.866	0.101
27.700	6.971	0.101
27.800	9.687	0.101
27.900	22.529	0.101
28.000	13.017	0.101
28.100	7.840	0.101
28.200	5.586	0.101
28.300	-1.292	0.101
28.400	4.080	0.101
28.500	17.121	0.101
28.600	17.869	0.101
28.700	18.840	0.101
28.800	6.184	0.101
28.900	0.081	0.101
29.000	17.907	0.101
29.100	3.978	0.101
29.200	9.082	0.101
29.300	16.535	0.101
29.400	7.094	0.101
29.500	5.008	0.101
29.600	10.156	0.101
29.700	14.776	0.101
29.800	14.301	0.101
29.900	6.166	0.101
30.000	3.175	0.101
30.100	-0.926	0.101
30.200	8.944	0.101
30.300	6.664	0.101
30.400	17.353	0.101
30.500	14.290	0.101
30.600	12.081	0.101
30.700	6.751	0.101
30.800	-0.335	0.101
30.900	-1.472	0.101
31.000	11.114	0.101
31.100	4.233	0.101
31.200	13.435	0.101
31.300	13.623	0.101
31.400	6.729	0.101
31.500	3.833	0.101
31.600	4.719	0.101
31.700	15.916	0.101
31.800	7.433	0.101
31.900	7.348	0.101
32.000	14.439	0.101
32.100	8.166	0.101
32.200	10.649	0.101
32.300	6.881	0.101
32.400	5.513	0.101
32.500	5.996	0.101
32.600	-1.194	0.101
32.700	6.745	0.101
32.800	8.604	0.101
32.900	14.499	0.101
33.000	5.602	0.101
33.100	11.372	0.101
33.200	11.459	0.101
33.300	11.516	0.101
33.400	1.464	0.101
33.500	15.974	0.101
33.600	15.934	0.101
33.700	14.102	0.101
33.800	5.712	0.101
33.900	10.305	0.101
34.000	11.213	0.101
34.100	16.969	0.101
34.200	11.398	0.101
34.300	4.474	0.101
34.400	16.122	0.101
34.500	-2.474	0.101
34.600	4.969	0.101
34.700	9.524	0.101
34.800	17.659	0.101
34.900	11.863	0.101
35.000	18.281	0.101
35.100	2.700	0.101
35.200	14.823	0.101
35.300	1.532	0.101
35.400	10.939	0.101
35.500	10.342	0.101
35.600	12.942	0.101
35.700	11.414	0.101
35.800	11.516	0.101
35.900	11.777	0.101
36.000	13.468	0.101
36.100	9.405	0.101
36.200	8.365	0.101
36.300	11.291	0.101
36.400	22.171	0.101
36.500	5.339	0.101
36.600	16.723	0.101
36.700	11.245	0.101
36.800	4.608	0.101
36.900	6.679	0.101
37.000	10.410	0.101
37.100	7.990	0.101
37.200	11.817	0.101
37.300	8.613	0.101
37.400	6.130	0.101
37.500	6.898	0.101
37.600	15.207	0.101
37.700	17.845	0.101
37.800	13.183	0.101
37.900	12.149	0.101
38.000	12.337	0.101
38.100	13.835	0.101
38.200	19.318	0.101
38.300	12.445	0.101
38.400	10.191	0.101
38.500	8.990	0.101
38.600	10.544	0.101
38.700	7.365	0.101
38.800	13.127	0.101
38.900	8.897	0.101
39.000	4.095	0.101
39.100	1.760	0.101
39.200	18.600	0.101
39.300	10.363	0.101
39.400	2.397	0.101
39.500	11.486	0.101
39.600	16.895	0.101
39.700	7.018	0.101
39.800	1.439	0.101
39.900	7.692	0.101
40.000	-0.019	0.101
40.100	16.181	0.101
40.200	21.254	0.101
40.300	11.543	0.101
40.400	12.360	0.101
40.500	14.912	0.101
40.600	4.663	0.101
40.700	2.629	0.101
40.800	5.047	0.101
40.900	25.299	0.101
41.000	6.122	0.101
41.100	20.691	0.101
41.200	10.288	0.101
41.300	2.312	0.101
41.400	12.018	0.101
41.500	11.885	0.101
41.600	16.421	0.101
41.700	8.375	0.101
41.800	6.721	0.101
41.900	5.018	0.101
42.000	11.633	0.101
42.100	9.911	0.101
42.200	19.450	0.101
42.300	20.608	0.101
42.400	9.451	0.101
42.500	8.486	0.101
42.600	9.053	0.101
42.700	7.690	0.101
42.800	3.787	0.101
42.900	12.374	0.101
43.000	6.867	0.101
43.100	9.835	0.101
43.200	14.808	0.101
43.300	13.027	0.101
43.400	6.579	0.101
43.500	7.551	0.101
43.600	14.629	0.101
43.700	12.452	0.101
43.800	20.701	0.101
43.900	10.930	0.101
44.000	14.883	0.101
44.100	12.699	0.101
44.200	14.522	0.101
44.300	3.465	0.101
44.400	5.362	0.101
44.500	9.298	0.101
44.600	12.685	0.101
44.700	16.638	0.101
44.800	9.958	0.101
44.900	7.345	0.101
45.000	12.774	0.101
45.100	4.753	0.101
45.200	6.022	0.101
45.300	17.495	0.101
45.400	21.727	0.101
45.500	5.470	0.101
45.600	5.863	0.101
45.700	11.852	0.101
45.800	13.181	0.101
45.900	7.169	0.101
46.000	12.683	0.101
46.100	13.904	0.101
46.200	5.335	0.101
46.300	11.970	0.101
46.400	11.885	0.101
46.500	9.890	0.101
46.600	10.036	0.101
46.700	11.463	0.101
46.800	3.125	0.101
46.900	10.588	0.101
47.000	8.378	0.101
47.100	14.927	0.101
47.200	16.194	0.101
47.300	3.136	0.101
47.400	7.426	0.101
47.500	11.512	0.101
47.600	12.899	0.101
47.700	11.145	0.101
47.800	23.328	0.101
47.900	18.596	0.101
48.000	9.246	0.101
48.100	10.464	0.101
48.200	13.336	0.101
48.300	19.683	0.101
48.400	13.828	0.101
48.500	4.057	0.101
48.600	13.427	0.101
48.700	12.091	0.101
48.800	14.713	0.101
48.900	24.425	0.101
49.000	11.089	0.101
49.100	15.652	0.101
49.200	15.806	0.101
49.300	9.928	0.101
49.400	4.156	0.101
49.500	17.575	0.101
49.600	14.226	0.101
49.700	13.275	0.101
49.800	15.404	0.101
49.900	11.424	0.101
50.000	16.367	0.101
50.100	16.254	0.101
50.200	-0.203	0.101
50.300	4.642	0.101
50.400	13.744	0.101
50.500	0.018	0.101
50.600	16.348	0.101
50.700	21.837	0.101
50.800	14.582	0.101
50.900	11.306	0.101
51.000	13.952	0.101
51.100	16.578	0.101
51.200	5.726	0.101
51.300	17.916	0.101
51.400	9.328	0.101
51.500	11.091	0.101
51.600	9.950	0.101
51.700	16.893	0.101
51.800	13.273	0.101
51.900	6.942	0.101
52.000	18.938	0.101
52.100	18.591	0.101
52.200	10.825	0.101
52.300	8.821	0.101
52.400	15.940	0.101
52.500	8.607	0.101
52.600	7.975	0.101
52.700	13.128	0.101
52.800	13.038	0.101
52.900	12.783	0.101
53.000	14.117	0.101
53.100	8.277	0.101
53.200	3.798	0.101
53.300	11.235	0.101
53.400	-0.059	0.101
53.500	8.690	0.101
53.600	21.641	0.101
53.700	18.455	0.101
53.800	6.580	0.101
53.900	11.835	0.101
54.000	9.754	0.101
54.100	15.789	0.101
54.200	11.618	0.101
54.300	15.231	0.101
54.400	11.695	0.101
54.500	15.933	0.101
54.600	16.540	0.101
54.700	7.590	0.101
54.800	10.668	0.101
54.900	10.660	0.101
55.000	9.095	0.101
55.100	17.026	0.101
55.200	14.676	0.101
55.300	12.123	0.101
55.400	11.786	0.101
55.500	7.838	0.101
55.600	15.533	0.101
55.700	16.033	0.101
55.800	12.859	0.101
55.900	11.140	0.101
56.000	13.916	0.101
56.100	2.821	0.101
56.200	8.251	0.101
56.300	13.461	0.101
56.400	14.992	0.101
56.500	15.032	0.101
56.600	18.499	0.101
56.700	4.969	0.101
56.800	4.871	0.101
56.900	18.165	0.101
57.000	12.771	0.101
57.100	21.573	0.101
57.200	16.712	0.101
57.300	5.650	0.101
57.400	10.356	0.101
57.500	4.821	0.101
57.600	10.364	0.101
57.700	27.825	0.101
57.800	10.646	0.101
57.900	15.297	0.101
58.000	18.380	0.101
58.100	13.726	0.101
58.200	19.505	0.101
58.300	7.997	0.101
58.400	16.975	0.101
58.500	12.840	0.101
58.600	9.677	0.101
58.700	12.000	0.101
58.800	9.729	0.101
58.900	11.011	0.101
59.000	11.133	0.101
59.100	8.843	0.101
59.200	13.636	0.101
59.300	10.224	0.101
59.400	21.532	0.101
59.500	14.762	0.101
59.600	16.970	0.101
59.700	11.799	0.101
59.800	9.804	0.101
59.900	14.229	0.101
60.000	17.101	0.101
60.100	9.819	0.101
60.200	16.247	0.101
60.300	14.910	0.101
60.400	7.824	0.101
60.500	11.518	0.101
60.600	13.263	0.101
60.700	18.902	0.101
60.800	7.965	0.101
60.900	8.809	0.101
61.000	4.947	0.101
61.100	2.286	0.101
61.200	12.692	0.101
61.300	0.282	0.101
61.400	16.643	0.101
61.500	39.889	0.101
61.600	23.513	0.101
61.700	14.793	0.101
61.800	13.526	0.101
61.900	-3.074	0.101
62.000	14.750	0.101
62.100	10.553	0.101
62.200	14.361	0.101
62.300	19.963	0.101
62.400	10.252	0.101
62.500	17.955	0.101
62.600	16.248	0.101
62.700	18.433	0.101
62.800	11.693	0.101
62.900	14.037	0.101
63.000	9.835	0.101
63.100	-2.616	0.101
63.200	14.650	0.101
63.300	15.171	0.101
63.400	18.300	0.101
63.500	13.161	0.101
63.600	7.381	0.101
63.700	6.772	0.101
63.800	17.023	0.101
63.900	22.429	0.101
64.000	9.036	0.101
64.100	9.590	0.101
64.200	17.039	0.101
64.300	14.222	0.101
64.400	11.770	0.101
64.500	15.652	0.101
64.600	7.358	0.101
64.700	3.538	0.101
64.800	14.063	0.101
64.900	15.048	0.101
65.000	10.366	0.101
65.100	9.405	0.101
65.200	13.567	0.101
65.300	15.209	0.101
65.400	18.142	0.101
65.500	11.565	0.101
65.600	-0.805	0.101
65.700	18.179	0.101
65.800	7.402	0.101
65.900	11.338	0.101
66.000	12.308	0.101
66.100	17.823	0.101
66.200	9.305	0.101
66.300	15.024	0.101
66.400	18.147	0.101
66.500	8.272	0.101
66.600	16.665	0.101
66.700	11.310	0.101
66.800	9.101	0.101
66.900	13.019	0.101
67.000	10.591	0.101
67.100	17.341	0.101
67.200	15.853	0.101
67.300	14.275	0.101
67.400	13.005	0.101
67.500	7.359	0.101
67.600	20.002	0.101
67.700	9.083	0.101
67.800	15.679	0.101
67.900	4.264	0.101
68.000	8.782	0.101
68.100	9.954	0.101
68.200	15.071	0.101
68.300	4.929	0.101
68.400	7.870	0.101
68.500	16.404	0.101
68.600	16.920	0.101
68.700	13.114	0.101
68.800	22.203	0.101
68.900	8.023	0.101
69.000	10.960	0.101
69.100	12.632	0.101
69.200	20.040	0.101
69.300	18.254	0.101
69.400	14.414	0.101
69.500	9.744	0.101
69.600	12.569	0.101
69.700	12.743	0.101
69.800	9.462	0.101
69.900	9.471	0.101
70.000	18.079	0.101
70.100	11.268	0.101
70.200	15.568	0.101
70.300	3.180	0.101
70.400	13.576	0.101
70.500	9.590	0.101
70.600	15.878	0.101
70.700	19.944	0.101
70.800	11.526	0.101
70.900	17.560	0.101
71.000	2.665	0.101
71.100	11.559	0.101
71.200	14.327	0.101
71.300	16.447	0.101
71.400	9.847	0.101
71.500	12.330	0.101
71.600	7.106	0.101
71.700	16.719	0.101
71.800	12.284	0.101
71.900	7.257	0.101
72.000	23.505	0.101
72.100	7.196	0.101
72.200	8.629	0.101
72.300	13.037	0.101
72.400	20.866	0.101
72.500	18.936	0.101
72.600	16.962	0.101
72.700	15.193	0.101
72.800	16.747	0.101
72.900	6.090	0.101
73.000	19.837	0.101
73.100	4.151	0.101
73.200	13.937	0.101
73.300	19.922	0.101
73.400	17.262	0.101
73.500	15.384	0.101
73.600	7.248	0.101
73.700	9.023	0.101
73.800	1.547	0.101
73.900	6.371	0.101
74.000	9.447	0.101
74.100	12.468	0.101
74.200	14.968	0.101
74.300	11.943	0.101
74.400	9.727	0.101
74.500	12.331	0.101
74.600	14.899	0.101
74.700	17.613	0.101
74.800	10.030	0.101
74.900	8.871	0.101
75.000	8.492	0.101
75.100	22.546	0.101
75.200	11.783	0.101
75.300	6.897	0.101
75.400	16.463	0.101
75.500	6.817	0.101
75.600	7.113	0.101
75.700	6.049	0.101
75.800	18.542	0.101
75.900	12.762	0.101
76.000	14.284	0.101
76.100	20.972	0.101
76.200	14.823	0.101
76.300	16.521	0.101
76.400	11.561	0.101
76.500	3.189	0.101
76.600	14.936	0.101
76.700	11.958	0.101
76.800	13.253	0.101
76.900	11.630	0.101
77.000	15.658	0.101
77.100	6.536	0.101
77.200	8.063	0.101
77.300	18.470	0.101
77.400	14.178	0.101
77.500	10.064	0.101
77.600	11.758	0.101
77.700	6.849	0.101
77.800	4.651	0.101
77.900	16.548	0.101
78.000	14.658	0.101
78.100	12.830	0.101
78.200	14.987	0.101
78.300	10.363	0.101
78.400	11.913	0.101
78.500	3.052	0.101
78.600	14.149	0.101
78.700	16.368	0.101
78.800	9.169	0.101
78.900	9.094	0.101
79.000	9.748	0.101
79.100	20.661	0.101
79.200	17.870	0.101
79.300	15.608	0.101
79.400	24.314	0.101
79.500	21.662	0.101
79.600	13.550	0.101
79.700	18.263	0.101
79.800	16.118	0.101
79.900	8.821	0.101
80.000	10.287	0.101
80.100	2.167	0.101
80.200	20.495	0.101
80.300	14.293	0.101
80.400	12.510	0.101
80.500	3.038	0.101
80.600	7.444	0.101
80.700	15.557	0.101
80.800	6.898	0.101
80.900	18.397	0.101
81.000	20.881	0.101
81.100	18.463	0.101
81.200	20.415	0.101
81.300	14.689	0.101
81.400	3.472	0.101
81.500	9.083	0.101
81.600	22.006	0.101
81.700	15.057	0.101
81.800	11.211	0.101
81.900	20.898	0.101
82.000	18.817	0.101
82.100	11.599	0.101
82.200	6.969	0.101
82.300	9.986	0.101
82.400	11.754	0.101
82.500	11.539	0.101
82.600	19.374	0.101
82.700	9.254	0.101
82.800	12.137	0.101
82.900	13.683	0.101
83.000	16.952	0.101
83.100	3.648	0.101
83.200	12.525	0.101
83.300	10.551	0.101
83.400	10.951	0.101
83.500	10.306	0.101
83.600	16.564	0.101
83.700	9.776	0.101
83.800	17.372	0.101
83.900	19.283	0.101
84.000	20.429	0.101
84.100	14.132	0.101
84.200	17.255	0.101
84.300	8.113	0.101
84.400	20.812	0.101
84.500	17.895	0.101
84.600	0.870	0.101
84.700	5.889	0.101
84.800	16.730	0.101
84.900	8.709	0.101
85.000	11.342	0.101
85.100	11.715	0.101
85.200	23.270	0.101
85.300	15.420	0.101
85.400	11.369	0.101
85.500	12.076	0.101
85.600	20.594	0.101
85.700	20.380	0.101
85.800	11.062	0.101
85.900	18.580	0.101
86.000	11.157	0.101
86.100	14.055	0.101
86.200	1.208	0.101
86.300	6.902	0.101
86.400	22.651	0.101
86.500	18.813	0.101
86.600	8.560	0.101
86.700	7.508	0.101
86.800	11.821	0.101
86.900	4.622	0.101
87.000	10.225	0.101
87.100	13.309	0.101
87.200	22.247	0.101
87.300	4.776	0.101
87.400	14.042	0.101
87.500	19.965	0.101
87.600	10.075	0.101
87.700	10.983	0.101
87.800	14.752	0.101
87.900	13.404	0.101
88.000	10.759	0.101
88.100	17.879	0.101
88.200	15.842	0.101
88.300	12.969	0.101
88.400	5.486	0.101
88.500	11.045	0.101
88.600	14.864	0.101
88.700	15.082	0.101
88.800	9.834	0.101
88.900	5.654	0.101
89.000	8.827	0.101
89.100	10.232	0.101
89.200	5.079	0.101
89.300	19.176	0.101
89.400	18.189	0.101
89.500	15.259	0.101
89.600	24.123	0.101
89.700	5.219	0.101
89.800	10.002	0.101
89.900	11.398	0.101
90.000	18.394	0.101
90.100	15.955	0.101
90.200	10.280	0.101
90.300	20.000	0.101
90.400	12.447	0.101
90.500	19.588	0.101
90.600	12.757	0.101
90.700	12.680	0.101
90.800	15.925	0.101
90.900	9.889	0.101
91.000	0.936	0.101
91.100	6.890	0.101
91.200	16.288	0.101
91.300	20.735	0.101
91.400	20.097	0.101
91.500	6.774	0.101
91.600	8.079	0.101
91.700	10.964	0.101
91.800	11.930	0.101
91.900	13.506	0.101
92.000	16.776	0.101
92.100	15.673	0.101
92.200	11.251	0.101
92.300	5.158	0.101
92.400	10.230	0.101
92.500	3.643	0.101
92.600	19.292	0.101
92.700	18.934	0.101
92.800	12.023	0.101
92.900	20.361	0.101
93.000	9.173	0.101
93.100	17.862	0.101
93.200	4.852	0.101
93.300	0.786	0.101
93.400	3.349	0.101
93.500	15.175	0.101
93.600	10.035	0.101
93.700	10.827	0.101
93.800	8.167	0.101
93.900	11.533	0.101
94.000	14.983	0.101
94.100	9.998	0.101
94.200	4.514	0.101
94.300	3.973	0.101
94.400	12.468	0.101
94.500	1.847	0.101
94.600	12.600	0.101
94.700	11.511	0.101
94.800	12.841	0.101
94.900	11.362	0.101
95.000	19.256	0.101
95.100	17.104	0.101
95.200	16.934	0.101
95.300	12.129	0.101
95.400	11.820	0.101
95.500	18.815	0.101
95.600	4.557	0.101
95.700	5.068	0.101
95.800	8.067	0.101
95.900	7.572	0.101
96.000	3.789	0.101
96.100	5.943	0.101
96.200	22.681	0.101
96.300	20.103	0.101
96.400	15.502	0.101
96.500	3.296	0.101
96.600	3.168	0.101
96.700	14.640	0.101
96.800	5.206	0.101
96.900	15.167	0.101
97.000	12.792	0.101
97.100	12.494	0.101
97.200	6.003	0.101
97.300	12.562	0.101
97.400	22.438	0.101
97.500	12.755	0.101
97.600	10.873	0.101
97.700	13.449	0.101
97.800	14.438	0.101
97.900	-1.394	0.101
98.000	-1.910	0.101
98.100	15.949	0.101
98.200	8.389	0.101
98.300	23.425	0.101
98.400	10.364	0.101
98.500	8.397	0.101
98.600	4.874	0.101
98.700	18.377	0.101
98.800	5.234	0.101
98.900	17.720	0.101
99.000	3.429	0.101
99.100	4.536	0.101
99.200	4.838	0.101
99.300	19.485	0.101
99.400	7.515	0.101
99.500	2.863	0.101
99.600	2.336	0.101
99.700	10.246	0.101
99.800	11.804	0.101
99.900	11.448	0.101
100.000	14.272	0.101
100.100	3.136	0.101
100.200	-2.724	0.101
100.300	5.615	0.101
100.400	17.449	0.101
100.500	4.179	0.101
100.600	11.707	0.101
100.700	0.170	0.101
100.800	12.853	0.101
100.900	12.164	0.101
101.000	10.767	0.101
101.100	14.637	0.101
101.200	13.019	0.101
101.300	15.474	0.101
101.400	13.308	0.101
101.500	3.899	0.101
101.600	9.841	0.101
101.700	11.946	0.101
101.800	15.724	0.101
101.900	-1.179	0.101
102.000	18.919	0.101
102.100	9.384	0.101
102.200	2.543	0.101
102.300	9.907	0.101
102.400	11.801	0.101
102.500	9.604	0.101
102.600	6.634	0.101
102.700	1.864	0.101
102.800	19.677	0.101
102.900	10.056	0.101
103.000	12.557	0.101
103.100	17.153	0.101
103.200	17.252	0.101
103.300	14.594	0.101
103.400	8.693	0.101
103.500	0.404	0.101
103.600	2.620	0.101
103.700	8.731	0.101
103.800	7.547	0.101
103.900	7.870	0.101
104.000	6.737	0.101
104.100	11.180	0.101
104.200	7.044	0.101
104.300	13.490	0.101
104.400	7.713	0.101
104.500	12.270	0.101
104.600	22.424	0.101
104.700	3.672	0.101
104.800	9.067	0.101
104.900	11.421	0.101
105.000	9.474	0.101
105.100	14.093	0.101
105.200	9.084	0.101
105.300	17.068	0.101
105.400	10.499	0.101
105.500	9.998	0.101
105.600	2.176	0.101
105.700	7.561	0.101
105.800	1.364	0.101
105.900	13.774	0.101
106.000	11.321	0.101
106.100	8.352	0.101
106.200	12.666	0.101
106.300	5.216	0.101
106.400	12.127	0.101
106.500	2.734	0.101
106.600	8.021	0.101
106.700	15.094	0.101
106.800	3.434	0.101
106.900	15.035	0.101
107.000	10.282	0.101
107.100	2.558	0.101
107.200	16.554	0.101
107.300	10.947	0.101
107.400	24.349	0.101
107.500	6.045	0.101
107.600	8.759	0.101
107.700	3.738	0.101
107.800	4.304	0.101
107.900	4.933	0.101
108.000	8.608	0.101
108.100	6.005	0.101
108.200	24.103	0.101
108.300	10.239	0.101
108.400	8.794	0.101
108.500	14.734	0.101
108.600	14.463	0.101
108.700	12.530	0.101
108.800	14.400	0.101
108.900	3.371	0.101
109.000	-0.623	0.101
109.100	6.045	0.101
109.200	12.152	0.101
109.300	6.584	0.101
109.400	6.727	0.101
109.500	7.844	0.101
109.600	7.363	0.101
109.700	-0.020	0.101
109.800	7.174	0.101
109.900	10.379	0.101
110.000	5.431	0.101
110.100	14.711	0.101
110.200	17.382	0.101
110.300	10.413	0.101
110.400	10.802	0.101
110.500	9.336	0.101
110.600	13.421	0.101
110.700	6.629	0.101
110.800	3.691	0.101
110.900	15.522	0.101
111.000	13.579	0.101
111.100	10.394	0.101
111.200	10.449	0.101
111.300	2.722	0.101
111.400	12.449	0.101
111.500	10.735	0.101
111.600	13.199	0.101
111.700	6.281	0.101
111.800	5.838	0.101
111.900	9.535	0.101
112.000	9.071	0.101
112.100	2.367	0.101
112.200	7.612	0.101
112.300	0.370	0.101
112.400	3.328	0.101
112.500	7.396	0.101
112.600	4.955	0.101
112.700	19.565	0.101
112.800	7.906	0.101
112.900	11.039	0.101
113.000	12.052	0.101
113.100	7.809	0.101
113.200	5.668	0.101
113.300	6.616	0.101
113.400	5.149	0.101
113.500	15.355	0.101
113.600	10.895	0.101
113.700	8.049	0.101
113.800	12.801	0.101
113.900	4.987	0.101
114.000	7.813	0.101
114.100	-3.456	0.101
114.200	16.804	0.101
114.300	7.606	0.101
114.400	8.361	0.101
114.500	16.228	0.101
114.600	9.979	0.101
114.700	4.841	0.101
114.800	6.251	0.101
114.900	9.052	0.101
115.000	14.949	0.101
115.100	7.422	0.101
115.200	5.618	0.101
115.300	-1.225	0.101
115.400	3.044	0.101
115.500	10.222	0.101
115.600	18.259	0.101
115.700	19.532	0.101
115.800	5.128	0.101
115.900	5.007	0.101
116.000	6.662	0.101
116.100	4.649	0.101
116.200	12.332	0.101
116.300	25.238	0.101
116.400	4.530	0.101
116.500	4.199	0.101
116.600	7.008	0.101
116.700	8.695	0.101
116.800	1.533	0.101
116.900	5.744	0.101
117.000	8.401	0.101
117.100	4.718	0.101
117.200	5.601	0.101
117.300	5.775	0.101
117.400	11.534	0.101
117.500	20.048	0.101
117.600	3.987	0.101
117.700	10.512	0.101
117.800	0.727	0.101
117.900	9.955	0.101
118.000	7.295	0.101
118.100	10.553	0.101
118.200	9.380	0.101
118.300	17.114	0.101
118.400	11.608	0.101
118.500	13.047	0.101
118.600	7.634	0.101
118.700	-0.478	0.101
118.800	-5.065	0.101
118.900	-2.917	0.101
119.000	-2.007	0.101
119.100	6.264	0.101
119.200	19.417	0.101
119.300	18.664	0.101
119.400	3.187	0.101
119.500	0.209	0.101
119.600	13.452	0.101
119.700	7.752	0.101
119.800	11.213	0.101
119.900	9.996	0.101
120.000	3.539	0.101
120.100	10.317	0.101
120.200	19.455	0.101
120.300	-3.838	0.101
120.400	2.286	0.101
120.500	11.909	0.101
120.600	8.254	0.101
120.700	9.040	0.101
120.800	10.367	0.101
120.900	10.358	0.101
121.000	5.558	0.101
121.100	1.426	0.101
121.200	5.992	0.101
121.300	13.552	0.101
121.400	14.895	0.101
121.500	5.590	0.101
121.600	6.361	0.101
121.700	7.158	0.101
121.800	4.800	0.101
121.900	-1.758	0.101
122.000	9.328	0.101
122.100	13.191	0.101
122.200	10.905	0.101
122.300	5.729	0.101
122.400	18.083	0.101
122.500	6.045	0.101
122.600	11.253	0.101
122.700	3.532	0.101
122.800	7.671	0.101
122.900	4.964	0.101
123.000	9.913	0.101
123.100	13.263	0.101
123.200	10.674	0.101
123.300	4.510	0.101
123.400	2.105	0.101
123.500	0.265	0.101
123.600	12.514	0.101
123.700	9.746	0.101
123.800	17.458	0.101
123.900	-0.821	0.101
124.000	6.302	0.101
124.100	16.678	0.101
124.200	8.690	0.101
124.300	5.740	0.101
124.400	2.739	0.101
124.500	3.407	0.101
124.600	5.118	0.101
124.700	3.846	0.101
124.800	8.899	0.101
124.900	7.031	0.101
125.000	12.969	0.101
125.100	5.764	0.101
125.200	14.675	0.101
125.300	11.710	0.101
125.400	11.566	0.101
125.500	9.647	0.101
125.600	7.548	0.101
125.700	2.728	0.101
125.800	15.830	0.101
125.900	13.549	0.101
126.000	10.263	0.101
126.100	1.514	0.101
126.200	4.157	0.101
126.300	10.819	0.101
126.400	4.938	0.101
126.500	-0.104	0.101
126.600	13.393	0.101
126.700	11.020	0.101
126.800	9.524	0.101
126.900	-0.607	0.101
127.000	2.951	0.101
127.100	12.177	0.101
127.200	1.837	0.101
127.300	14.120	0.101
127.400	3.181	0.101
127.500	2.427	0.101
127.600	5.221	0.101
127.700	-0.681	0.101
127.800	6.520	0.101
127.900	9.833	0.101
128.000	18.032	0.101
128.100	8.339	0.101
128.200	7.882	0.101
128.300	5.888	0.101
128.400	8.624	0.101
128.500	17.350	0.101
128.600	22.724	0.101
128.700	13.891	0.101
128.800	3.363	0.101
128.900	6.554	0.101
129.000	10.118	0.101
129.100	8.000	0.101
129.200	7.216	0.101
129.300	7.103	0.101
129.400	-1.900	0.101
129.500	12.244	0.101
129.600	11.761	0.101
129.700	9.725	0.101
129.800	6.726	0.101
129.900	0.591	0.101
130.000	3.443	0.101
130.100	18.962	0.101
130.200	5.324	0.101
130.300	16.883	0.101
130.400	4.791	0.101
130.500	2.503	0.101
130.600	8.396	0.101
130.700	6.176	0.101
130.800	2.654	0.101
130.900	5.766	0.101
131.000	11.492	0.101
131.100	4.964	0.101
131.200	6.387	0.101
131.300	5.802	0.101
131.400	11.937	0.101
131.500	6.685	0.101
131.600	0.441	0.101
131.700	11.176	0.101
131.800	13.518	0.101
131.900	15.798	0.101
132.000	5.695	0.101
132.100	6.954	0.101
132.200	13.667	0.101
132.300	3.363	0.101
132.400	16.676	0.101
132.500	10.827	0.101
132.600	5.818	0.101
132.700	5.373	0.101
132.800	17.891	0.101
132.900	15.336	0.101
133.000	13.519	0.101
133.100	-4.000	0.101
133.200	8.600	0.101
133.300	11.364	0.101
133.400	-0.355	0.101
133.500	6.557	0.101
133.600	8.342	0.101
133.700	10.441	0.101
133.800	2.704	0.101
133.900	8.731	0.101
134.000	6.583	0.101
134.100	6.798	0.101
134.200	6.362	0.101
134.300	16.277	0.101
134.400	10.123	0.101
134.500	4.125	0.101
134.600	2.141	0.101
134.700	6.096	0.101
134.800	9.555	0.101
134.900	11.671	0.101
135.000	5.477	0.101
135.100	2.309	0.101
135.200	2.576	0.101
135.300	9.514	0.101
135.400	14.473	0.101
135.500	11.487	0.101
135.600	7.109	0.101
135.700	3.888	0.101
135.800	12.241	0.101
135.900	7.434	0.101
136.000	8.102	0.101
136.100	15.837	0.101
136.200	1.871	0.101
136.300	12.216	0.101
136.400	2.961	0.101
136.500	3.925	0.101
136.600	14.258	0.101
136.700	16.517	0.101
136.800	9.955	0.101
136.900	9.276	0.101
137.000	2.900	0.101
137.100	12.020	0.101
137.200	9.211	0.101
137.300	11.307	0.101
137.400	0.180	0.101
137.500	2.675	0.101
137.600	8.289	0.101
137.700	12.730	0.101
137.800	6.727	0.101
137.900	-2.210	0.101
138.000	12.428	0.101
138.100	1.530	0.101
138.200	-1.245	0.101
138.300	7.510	0.101
138.400	16.173	0.101
138.500	11.060	0.101
138.600	6.636	0.101
138.700	7.647	0.101
138.800	1.325	0.101
138.900	12.568	0.101
139.000	6.136	0.101
139.100	10.922	0.101
139.200	-1.830	0.101
139.300	10.000	0.101
139.400	17.560	0.101
139.500	14.050	0.101
139.600	5.027	0.101
139.700	7.140	0.101
139.800	1.118	0.101
139.900	11.059	0.101
140.000	2.698	0.101
140.100	3.010	0.101
140.200	3.067	0.101
140.300	10.179	0.101
140.400	7.399	0.101
140.500	15.475	0.101
140.600	3.603	0.101
140.700	9.132	0.101
140.800	6.524	0.101
140.900	6.078	0.101
141.000	2.517	0.101
141.100	6.504	0.101
141.200	0.541	0.101
141.300	0.373	0.101
141.400	9.294	0.101
141.500	10.069	0.101
141.600	8.978	0.101
141.700	4.126	0.101
141.800	11.487	0.101
141.900	6.596	0.101
142.000	10.434	0.101
142.100	9.280	0.101
142.200	2.926	0.101
142.300	9.030	0.101
142.400	13.700	0.101
142.500	4.785	0.101
142.600	10.993	0.101
142.700	9.187	0.101
142.800	-2.983	0.101
142.900	-2.528	0.101
143.000	10.791	0.101
143.100	15.041	0.101
143.200	-6.454	0.101
143.300	13.661	0.101
143.400	17.925	0.101
143.500	9.990	0.101
143.600	1.854	0.101
143.700	-1.461	0.101
143.800	5.388	0.101
143.900	-1.005	0.101
144.000	10.418	0.101
144.100	10.843	0.101
144.200	7.401	0.101
144.300	-7.755	0.101
144.400	3.739	0.101
144.500	11.563	0.101
144.600	3.047	0.101
144.700	4.819	0.101
144.800	4.389	0.101
144.900	12.433	0.101
145.000	10.664	0.101
145.100	14.977	0.101
145.200	8.626	0.101
145.300	-1.302	0.101
145.400	16.850	0.101
145.500	8.140	0.101
145.600	6.085	0.101
145.700	-2.312	0.101
145.800	4.814	0.101
145.900	6.718	0.101
146.000	8.841	0.101
146.100	6.809	0.101
146.200	2.759	0.101
146.300	1.676	0.101
146.400	4.480	0.101
146.500	11.453	0.101
146.600	0.922	0.101
146.700	-1.295	0.101
146.800	-4.923	0.101
146.900	7.515	0.101
147.000	-0.282	0.101
147.100	9.820	0.101
147.200	5.131	0.101
147.300	6.425	0.101
147.400	-0.087	0.101
147.500	5.420	0.101
147.600	7.952	0.101
147.700	15.653	0.101
147.800	0.032	0.101
147.900	10.467	0.101
148.000	3.208	0.101
148.100	2.893	0.101
148.200	11.222	0.101
148.300	7.198	0.101
148.400	9.949	0.101
148.500	4.699	0.101
148.600	0.112	0.101
148.700	12.533	0.101
148.800	19.401	0.101
148.900	17.272	0.101
149.000	7.006	0.101
149.100	-5.029	0.101
149.200	6.037	0.101
149.300	9.124	0.101
149.400	3.077	0.101
149.500	2.061	0.101
149.600	4.934	0.101
149.700	2.430	0.101
149.800	8.542	0.101
149.900	10.528	0.101
150.000	3.677	0.101
150.100	10.498	0.101
150.200	9.645	0.101
150.300	0.040	0.101
150.400	7.513	0.101
150.500	-0.715	0.101
150.600	-4.646	0.101
150.700	3.084	0.101
150.800	11.519	0.101
150.900	7.419	0.101
151.000	15.055	0.101
151.100	19.792	0.101
151.200	1.388	0.101
151.300	-1.372	0.101
151.400	7.984	0.101
151.500	11.602	0.101
151.600	19.451	0.101
151.700	11.426	0.101
151.800	0.142	0.101
151.900	-1.523	0.101
152.000	-2.616	0.101
152.100	12.346	0.101
152.200	3.038	0.101
152.300	9.462	0.101
152.400	9.710	0.101
152.500	1.855	0.101
152.600	9.218	0.101
152.700	4.786	0.101
152.800	14.043	0.101
152.900	-3.601	0.101
153.000	3.440	0.101
153.100	-0.463	0.101
153.200	5.741	0.101
153.300	9.377	0.101
153.400	15.011	0.101
153.500	5.963	0.101
153.600	1.508	0.101
153.700	1.053	0.101
153.800	-1.257	0.101
153.900	5.486	0.101
154.000	5.801	0.101
154.100	4.916	0.101
154.200	8.753	0.101
154.300	8.736	0.101
154.400	8.605	0.101
154.500	0.812	0.101
154.600	6.728	0.101
154.700	5.334	0.101
154.800	4.391	0.101
154.900	1.207	0.101
155.000	5.161	0.101
155.100	18.691	0.101
155.200	15.913	0.101
155.300	1.341	0.101
155.400	4.493	0.101
155.500	-2.415	0.101
155.600	0.353	0.101
155.700	2.631	0.101
155.800	2.614	0.101
155.900	4.072	0.101
156.000	-0.176	0.101
156.100	4.688	0.101
156.200	5.557	0.101
156.300	2.468	0.101
156.400	11.915	0.101
156.500	2.075	0.101
156.600	16.274	0.101
156.700	11.804	0.101
156.800	3.960	0.101
156.900	2.176	0.101
157.000	0.005	0.101
157.100	6.587	0.101
157.200	5.139	0.101
157.300	5.777	0.101
157.400	9.426	0.101
157.500	10.159	0.101
157.600	7.301	0.101
157.700	8.792	0.101
157.800	2.201	0.101
157.900	7.548	0.101
158.000	-4.026	0.101
158.100	1.031	0.101
158.200	-7.024	0.101
158.300	-1.553	0.101
158.400	11.557	0.101
158.500	1.918	0.101
158.600	7.317	0.101
158.700	7.708	0.101
158.800	11.564	0.101
158.900	8.335	0.101
159.000	6.751	0.101
159.100	2.045	0.101
159.200	8.065	0.101
159.300	-0.194	0.101
159.400	5.025	0.101
159.500	2.945	0.101
159.600	-7.648	0.101
159.700	7.487	0.101
159.800	7.859	0.101
159.900	1.742	0.101
160.000	2.415	0.101
160.100	11.305	0.101
160.200	4.474	0.101
160.300	2.858	0.101
160.400	-4.243	0.101
160.500	0.722	0.101
160.600	5.759	0.101
160.700	2.562	0.101
160.800	17.150	0.101
160.900	2.890	0.101
161.000	3.755	0.101
161.100	10.660	0.101
161.200	1.103	0.101
161.300	2.628	0.101
161.400	1.032	0.101
161.500	16.291	0.101
161.600	5.786	0.101
161.700	8.676	0.101
161.800	3.897	0.101
161.900	7.521	0.101
162.000	8.769	0.101
162.100	8.812	0.101
162.200	9.017	0.101
162.300	16.113	0.101
162.400	6.692	0.101
162.500	-2.274	0.101
162.600	4.397	0.101
162.700	8.666	0.101
162.800	5.205	0.101
162.900	7.650	0.101
163.000	2.935	0.101
163.100	13.479	0.101
163.200	11.725	0.101
163.300	10.043	0.101
163.400	2.976	0.101
163.500	-7.583	0.101
163.600	3.781	0.101
163.700	10.578	0.101
163.800	6.984	0.101
163.900	4.516	0.101
164.000	8.164	0.101
164.100	2.650	0.101
164.200	4.120	0.101
164.300	2.993	0.101
164.400	4.368	0.101
164.500	-5.674	0.101
164.600	6.515	0.101
164.700	1.391	0.101
164.800	-1.740	0.101
164.900	7.097	0.101
165.000	3.742	0.101
165.100	11.408	0.101
165.200	-0.977	0.101
165.300	2.612	0.101
165.400	6.643	0.101
165.500	8.119	0.101
165.600	10.827	0.101
165.700	11.445	0.101
165.800	16.143	0.101
165.900	13.811	0.101
166.000	-0.133	0.101
166.100	-8.619	0.101
166.200	8.387	0.101
166.300	3.142	0.101
166.400	8.802	0.101
166.500	3.743	0.101
166.600	-2.734	0.101
166.700	-5.167	0.101
166.800	15.699	0.101
166.900	15.952	0.101
167.000	1.646	0.101
167.100	6.383	0.101
167.200	0.455	0.101
167.300	4.666	0.101
167.400	6.188	0.101
167.500	-1.154	0.101
167.600	9.170	0.101
167.700	8.128	0.101
167.800	0.235	0.101
167.900	6.412	0.101
168.000	-1.660	0.101
168.100	1.599	0.101
168.200	4.715	0.101
168.300	3.647	0.101
168.400	13.348	0.101
168.500	-1.593	0.101
168.600	-0.380	0.101
168.700	1.011	0.101
168.800	10.303	0.101
168.900	0.321	0.101
169.000	6.519	0.101
169.100	6.151	0.101
169.200	16.098	0.101
169.300	4.522	0.101
169.400	13.522	0.101
169.500	2.817	0.101
169.600	3.377	0.101
169.700	2.814	0.101
169.800	6.634	0.101
169.900	9.304	0.101
170.000	10.324	0.101
170.100	2.061	0.101
170.200	-0.067	0.101
170.300	-8.245	0.101
170.400	7.267	0.101
170.500	11.075	0.101
170.600	-0.056	0.101
170.700	2.870	0.101
170.800	8.484	0.101
170.900	4.233	0.101
171.000	4.391	0.101
171.100	18.260	0.101
171.200	7.950	0.101
171.300	14.124	0.101
171.400	7.464	0.101
171.500	0.287	0.101
171.600	0.442	0.101
171.700	1.612	0.101
171.800	10.059	0.101
171.900	-7.532	0.101
172.000	11.563	0.101
172.100	8.722	0.101
172.200	7.570	0.101
172.300	3.474	0.101
172.400	-0.752	0.101
172.500	-6.485	0.101
172.600	7.567	0.101
172.700	15.820	0.101
172.800	-4.085	0.101
172.900	-3.544	0.101
173.000	7.234	0.101
173.100	3.898	0.101
173.200	3.274	0.101
173.300	13.309	0.101
173.400	0.789	0.101
173.500	8.217	0.101
173.600	3.708	0.101
173.700	12.077	0.101
173.800	6.483	0.101
173.900	8.426	0.101
174.000	0.940	0.101
174.100	-5.477	0.101
174.200	9.312	0.101
174.300	3.387	0.101
174.400	10.925	0.101
174.500	14.050	0.101
174.600	-0.875	0.101
174.700	11.108	0.101
174.800	-1.164	0.101
174.900	4.630	0.101
175.000	7.413	0.101
175.100	12.289	0.101
175.200	-3.185	0.101
175.300	2.232	0.101
175.400	14.142	0.101
175.500	8.737	0.101
175.600	11.761	0.101
175.700	9.544	0.101
175.800	9.835	0.101
175.900	-9.217	0.101
176.000	9.070	0.101
176.100	5.704	0.101
176.200	2.204	0.101
176.300	2.518	0.101
176.400	5.155	0.101
176.500	1.840	0.101
176.600	2.390	0.101
176.700	13.009	0.101
176.800	5.344	0.101
176.900	-2.501	0.101
177.000	4.696	0.101
177.100	3.018	0.101
177.200	9.833	0.101
177.300	-0.964	0.101
177.400	1.970	0.101
177.500	7.517	0.101
177.600	0.575	0.101
177.700	1.260	0.101
177.800	10.424	0.101
177.900	3.992	0.101
178.000	3.822	0.101
178.100	9.709	0.101
178.200	5.846	0.101
178.300	-4.177	0.101
178.400	-2.700	0.101
178.500	15.036	0.101
178.600	8.802	0.101
178.700	7.697	0.101
178.800	7.708	0.101
178.900	7.897	0.101
179.000	-5.010	0.101
179.100	9.512	0.101
179.200	4.149	0.101
179.300	7.598	0.101
179.400	7.552	0.101
179.500	0.216	0.101
179.600	7.301	0.101
179.700	6.821	0.101
179.800	-2.552	0.101
179.900	-7.633	0.101
180.000	11.824	0.101
180.100	9.581	0.101
180.200	5.732	0.101
180.300	15.748	0.101
180.400	0.364	0.101
180.500	7.464	0.101
180.600	6.238	0.101
180.700	8.244	0.101
180.800	8.190	0.101
180.900	1.557	0.101
181.000	0.922	0.101
181.100	-0.745	0.101
181.200	10.682	0.101
181.300	12.060	0.101
181.400	10.596	0.101
181.500	-1.233	0.101
181.600	10.647	0.101
181.700	2.348	0.101
181.800	13.798	0.101
181.900	4.577	0.101
182.000	17.731	0.101
182.100	4.010	0.101
182.200	8.659	0.101
182.300	10.442	0.101
182.400	10.936	0.101
182.500	3.834	0.101
182.600	3.377	0.101
182.700	9.538	0.101
182.800	-7.201	0.101
182.900	2.763	0.101
183.000	-4.554	0.101
183.100	-5.267	0.101
183.200	14.384	0.101
183.300	6.722	0.101
183.400	12.432	0.101
183.500	7.404	0.101
183.600	8.992	0.101
183.700	12.971	0.101
183.800	-2.325	0.101
183.900	-1.944	0.101
184.000	-5.488	0.101
184.100	-3.057	0.101
184.200	4.713	0.101
184.300	9.355	0.101
184.400	18.997	0.101
184.500	8.335	0.101
184.600	6.749	0.101
184.700	11.985	0.101
184.800	10.883	0.101
184.900	5.546	0.101
185.000	-1.849	0.101
185.100	16.842	0.101
185.200	10.387	0.101
185.300	-2.165	0.101
185.400	-1.337	0.101
185.500	2.898	0.101
185.600	14.239	0.101
185.700	5.660	0.101
185.800	8.231	0.101
185.900	4.500	0.101
186.000	-6.128	0.101
186.100	10.472	0.101
186.200	4.274	0.101
186.300	6.334	0.101
186.400	1.138	0.101
186.500	4.429	0.101
186.600	13.938	0.101
186.700	7.360	0.101
186.800	4.108	0.101
186.900	9.502	0.101
187.000	0.920	0.101
187.100	3.474	0.101
187.200	9.484	0.101
187.300	4.777	0.101
187.400	-1.072	0.101
187.500	2.841	0.101
187.600	1.363	0.101
187.700	17.260	0.101
187.800	8.236	0.101
187.900	11.382	0.101
188.000	7.891	0.101
188.100	9.108	0.101
188.200	9.717	0.101
188.300	3.216	0.101
188.400	7.784	0.101
188.500	3.907	0.101
188.600	4.262	0.101
188.700	3.232	0.101
188.800	10.972	0.101
188.900	9.132	0.101
189.000	5.665	0.101
189.100	10.758	0.101
189.200	7.600	0.101
189.300	8.031	0.101
189.400	2.994	0.101
189.500	5.954	0.101
189.600	15.794	0.101
189.700	14.625	0.101
189.800	9.911	0.101
189.900	8.101	0.101
190.000	-2.427	0.101
190.100	6.362	0.101
190.200	8.470	0.101
190.300	5.374	0.101
190.400	12.733	0.101
190.500	10.203	0.101
190.600	6.128	0.101
190.700	9.576	0.101
190.800	11.820	0.101
190.900	12.404	0.101
191.000	5.821	0.101
191.100	1.388	0.101
191.200	6.231	0.101
191.300	8.329	0.101
191.400	9.899	0.101
191.500	15.083	0.101
191.600	11.990	0.101
191.700	2.740	0.101
191.800	6.890	0.101
191.900	3.856	0.101
192.000	3.755	0.101
192.100	7.848	0.101
192.200	13.852	0.101
192.300	3.759	0.101
192.400	16.555	0.101
192.500	5.580	0.101
192.600	7.992	0.101
192.700	8.117	0.101
192.800	-0.775	0.101
192.900	-0.779	0.101
193.000	5.064	0.101
193.100	7.212	0.101
193.200	13.229	0.101
193.300	12.699	0.101
193.400	6.035	0.101
193.500	5.440	0.101
193.600	6.347	0.101
193.700	5.485	0.101
193.800	6.499	0.101
193.900	5.499	0.101
194.000	9.715	0.101
194.100	9.460	0.101
194.200	8.527	0.101
194.300	5.879	0.101
194.400	14.480	0.101
194.500	9.039	0.101
194.600	11.389	0.101
194.700	1.748	0.101
194.800	5.295	0.101
194.900	7.930	0.101
195.000	7.866	0.101
195.100	2.894	0.101
195.200	4.572	0.101
195.300	6.792	0.101
195.400	11.094	0.101
195.500	11.741	0.101
195.600	17.668	0.101
195.700	0.137	0.101
195.800	11.433	0.101
195.900	15.744	0.101
196.000	3.887	0.101
196.100	-1.047	0.101
196.200	3.499	0.101
196.300	7.114	0.101
196.400	15.114	0.101
196.500	8.718	0.101
196.600	-2.724	0.101
196.700	12.623	0.101
196.800	11.240	0.101
196.900	14.463	0.101
197.000	12.482	0.101
197.100	2.387	0.101
197.200	7.155	0.101
197.300	10.941	0.101
197.400	3.774	0.101
197.500	6.535	0.101
197.600	4.660	0.101
197.700	11.920	0.101
197.800	4.499	0.101
197.900	8.774	0.101
198.000	6.977	0.101
198.100	8.673	0.101
198.200	11.673	0.101
198.300	10.799	0.101
198.400	7.464	0.101
198.500	9.949	0.101
198.600	3.356	0.101
198.700	6.437	0.101
198.800	4.746	0.101
198.900	18.847	0.101
199.000	5.380	0.101
199.100	8.300	0.101
199.200	3.894	0.101
199.300	18.384	0.101
199.400	7.533	0.101
199.500	2.295	0.101
199.600	3.673	0.101
199.700	2.081	0.101
199.800	4.804	0.101
199.900	-0.789	0.101
200.000	12.910	0.101
200.100	7.574	0.101
200.200	5.848	0.101
200.300	4.551	0.101
200.400	19.081	0.101
200.500	20.858	0.101
200.600	12.578	0.101
200.700	12.166	0.101
200.800	8.866	0.101
200.900	-2.550	0.101
201.000	6.096	0.101
201.100	7.072	0.101
201.200	10.476	0.101
201.300	9.306	0.101
201.400	8.891	0.101
201.500	-4.500	0.101
201.600	6.401	0.101
201.700	3.753	0.101
201.800	9.015	0.101
201.900	8.155	0.101
202.000	10.359	0.101
202.100	6.881	0.101
202.200	10.445	0.101
202.300	16.360	0.101
202.400	8.043	0.101
202.500	11.278	0.101
202.600	7.983	0.101
202.700	2.374	0.101
202.800	11.079	0.101
202.900	9.586	0.101
203.000	1.661	0.101
203.100	2.398	0.101
203.200	-0.346	0.101
203.300	8.735	0.101
203.400	12.425	0.101
203.500	1.914	0.101
203.600	5.975	0.101
203.700	16.560	0.101
203.800	7.034	0.101
203.900	9.513	0.101
204.000	1.376	0.101
204.100	8.020	0.101
204.200	13.597	0.101
204.300	18.118	0.101
204.400	6.425	0.101
204.500	6.155	0.101
204.600	-0.252	0.101
204.700	-7.400	0.101
204.800	16.480	0.101
204.900	14.920	0.101
205.000	4.693	0.101
205.100	-1.435	0.101
205.200	8.962	0.101
205.300	4.115	0.101
205.400	12.073	0.101
205.500	12.898	0.101
205.600	6.324	0.101
205.700	10.711	0.101
205.800	10.627	0.101
205.900	7.308	0.101
206.000	9.036	0.101
206.100	6.005	0.101
206.200	11.543	0.101
206.300	11.302	0.101
206.400	17.444	0.101
206.500	4.814	0.101
206.600	7.678	0.101
206.700	10.237	0.101
206.800	13.096	0.101
206.900	6.174	0.101
207.000	5.182	0.101
207.100	6.485	0.101
207.200	-7.641	0.101
207.300	6.542	0.101
207.400	13.026	0.101
207.500	9.037	0.101
207.600	9.920	0.101
207.700	7.678	0.101
207.800	14.297	0.101
207.900	9.079	0.101
208.000	4.026	0.101
208.100	5.658	0.101
208.200	9.226	0.101
208.300	2.837	0.101
208.400	6.485	0.100
208.500	0.811	0.101
208.600	4.199	0.101
208.700	15.596	0.101
208.800	7.222	0.101
208.900	10.090	0.101
209.000	9.405	0.101
209.100	17.524	0.101
209.200	8.613	0.101
209.300	7.366	0.100
209.400	-0.309	0.100
209.500	7.173	0.101
209.600	1.597	0.100
209.700	10.107	0.101
209.800	20.810	0.101
209.900	12.185	0.100
210.000	11.514	0.101
210.100	-0.952	0.101
210.200	-2.491	0.100
210.300	1.423	0.101
210.400	4.862	0.100
210.500	17.995	0.101
210.600	13.080	0.100
210.700	11.770	0.101
210.800	8.462	0.101
210.900	12.426	0.101
211.000	11.793	0.100
211.100	8.253	0.100
211.200	7.999	0.101
211.300	13.670	0.101
211.400	4.389	0.100
211.500	15.813	0.100
211.600	-3.722	0.101
211.700	-1.733	0.100
211.800	4.896	0.100
211.900	7.461	0.100
212.000	9.245	0.101
212.100	8.641	0.100
212.200	11.903	0.101
212.300	12.028	0.100
212.400	12.785	0.100
212.500	14.111	0.101
212.600	5.916	0.101
212.700	3.845	0.101
212.800	-4.621	0.101
212.900	9.990	0.101
213.000	1.877	0.101
213.100	5.580	0.101
213.200	-1.290	0.100
213.300	6.757	0.100
213.400	6.278	0.101
213.500	0.792	0.101
213.600	9.007	0.101
213.700	16.198	0.101
213.800	14.366	0.100
213.900	8.861	0.101
214.000	5.681	0.101
214.100	-0.501	0.100
214.200	1.414	0.100
214.300	2.682	0.101
214.400	10.576	0.101
214.500	18.018	0.100
214.600	7.933	0.100
214.700	16.697	0.100
214.800	17.605	0.100
214.900	8.919	0.100
215.000	13.722	0.101
215.100	15.730	0.101
215.200	10.044	0.101
215.300	5.348	0.101
215.400	1.174	0.101
215.500	1.133	0.100
215.600	7.019	0.100
215.700	7.847	0.100
215.800	5.522	0.100
215.900	8.999	0.100
216.000	-0.953	0.100
216.100	18.665	0.100
216.200	17.568	0.100
216.300	8.764	0.100
216.400	4.233	0.100
216.500	6.558	0.100
216.600	5.849	0.100
216.700	12.355	0.100
216.800	13.583	0.100
216.900	17.235	0.100
217.000	0.614	0.100
217.100	2.681	0.100
217.200	4.182	0.100
217.300	12.798	0.100
217.400	2.051	0.100
217.500	1.097	0.100
217.600	3.145	0.100
217.700	15.000	0.100
217.800	4.800	0.100
217.900	7.408	0.100
218.000	9.003	0.100
218.100	7.008	0.100
218.200	16.585	0.100
218.300	7.830	0.100
218.400	9.593	0.100
218.500	-0.914	0.100
218.600	10.045	0.100
218.700	2.804	0.100
218.800	15.150	0.100
218.900	9.093	0.100
219.000	4.068	0.100
219.100	8.284	0.100
219.200	13.045	0.100
219.300	0.635	0.101
219.400	4.514	0.100
219.500	18.202	0.101
219.600	13.008	0.100
219.700	13.957	0.100
219.800	-1.771	0.100
219.900	7.859	0.100
220.000	22.625	0.100
220.100	7.502	0.101
220.200	3.005	0.100
220.300	4.470	0.100
220.400	8.471	0.100
220.500	9.814	0.100
220.600	17.769	0.100
220.700	4.878	0.100
220.800	-4.997	0.100
220.900	10.820	0.100
221.000	7.804	0.100
221.100	3.707	0.100
221.200	17.031	0.100
221.300	7.204	0.100
221.400	12.044	0.100
221.500	3.035	0.100
221.600	7.692	0.100
221.700	14.627	0.100
221.800	12.740	0.100
221.900	10.689	0.100
222.000	17.011	0.100
222.100	1.691	0.100
222.200	5.229	0.100
222.300	12.213	0.100
222.400	3.695	0.100
222.500	1.089	0.100
222.600	15.547	0.100
222.700	8.317	0.100
222.800	3.248	0.100
222.900	2.728	0.100
223.000	-1.196	0.100
223.100	2.547	0.100
223.200	10.296	0.100
223.300	14.755	0.100
223.400	10.304	0.100
223.500	14.926	0.100
223.600	9.578	0.100
223.700	17.239	0.100
223.800	13.752	0.100
223.900	3.332	0.100
224.000	13.684	0.100
224.100	12.201	0.100
224.200	8.763	0.100
224.300	4.107	0.100
224.400	9.958	0.100
224.500	10.190	0.100
224.600	0.780	0.100
224.700	7.813	0.100
224.800	14.084	0.100
224.900	13.064	0.100
225.000	15.592	0.100
225.100	2.842	0.100
225.200	1.161	0.100
225.300	0.707	0.100
225.400	5.277	0.100
225.500	8.642	0.101
225.600	6.208	0.100
225.700	24.211	0.100
225.800	14.911	0.100
225.900	8.834	0.100
226.000	4.405	0.100
226.100	4.231	0.100
226.200	9.969	0.100
226.300	8.334	0.100
226.400	3.985	0.100
226.500	15.607	0.100
226.600	11.868	0.100
226.700	-0.927	0.100
226.800	12.059	0.100
226.900	3.050	0.100
227.000	15.363	0.100
227.100	11.229	0.100
227.200	7.014	0.100
227.300	5.658	0.100
227.400	-0.726	0.100
227.500	9.394	0.100
227.600	11.254	0.100
227.700	-0.464	0.100
227.800	14.523	0.100
227.900	19.620	0.100
228.000	11.247	0.100
228.100	2.925	0.100
228.200	11.652	0.100
228.300	-2.388	0.100
228.400	3.058	0.100
228.500	12.417	0.100
228.600	15.403	0.100
228.700	12.467	0.100
228.800	13.773	0.100
228.900	9.313	0.100
229.000	8.378	0.100
229.100	4.898	0.100
229.200	7.890	0.100
229.300	4.886	0.100
229.400	4.137	0.100
229.500	3.924	0.100
229.600	3.340	0.100
229.700	19.531	0.100
229.800	2.174	0.100
229.900	16.847	0.100
230.000	10.806	0.100
230.100	9.426	0.100
230.200	9.742	0.100
230.300	0.580	0.100
230.400	3.791	0.100
230.500	12.745	0.100
230.600	12.257	0.100
230.700	5.039	0.100
230.800	3.187	0.100
230.900	7.014	0.100
231.000	10.090	0.100
231.100	17.026	0.100
231.200	3.076	0.100
231.300	16.065	0.100
231.400	8.297	0.100
231.500	12.433	0.100
231.600	4.058	0.100
231.700	2.574	0.100
231.800	8.337	0.100
231.900	9.804	0.100
232.000	12.750	0.100
232.100	8.031	0.100
232.200	-6.952	0.100
232.300	11.163	0.100
232.400	8.677	0.100
232.500	9.974	0.100
232.600	4.566	0.100
232.700	6.817	0.100
232.800	18.319	0.100
232.900	18.361	0.100
233.000	10.041	0.100
233.100	6.212	0.100
233.200	1.449	0.100
233.300	-0.534	0.100
233.400	13.743	0.100
233.500	9.978	0.100
233.600	15.893	0.100
233.700	3.617	0.100
233.800	8.368	0.100
233.900	10.831	0.100
234.000	9.645	0.100
234.100	13.663	0.100
234.200	17.820	0.100
234.300	0.007	0.100
234.400	3.316	0.100
234.500	14.763	0.100
234.600	6.925	0.100
234.700	11.221	0.100
234.800	14.565	0.100
234.900	11.429	0.100
235.000	10.584	0.100
235.100	1.891	0.100
235.200	-1.002	0.100
235.300	14.922	0.100
235.400	8.643	0.100
235.500	12.331	0.100
235.600	6.904	0.100
235.700	3.553	0.100
235.800	12.382	0.100
235.900	15.794	0.100
236.000	1.088	0.100
236.100	10.557	0.100
236.200	15.054	0.100
236.300	15.265	0.100
236.400	2.305	0.100
236.500	6.812	0.100
236.600	4.522	0.100
236.700	8.910	0.100
236.800	16.178	0.100
236.900	16.029	0.100
237.000	4.064	0.100
237.100	3.055	0.100
237.200	1.841	0.100
237.300	10.319	0.100
237.400	1.757	0.100
237.500	9.070	0.100
237.600	5.483	0.100
237.700	8.851	0.100
237.800	10.470	0.100
237.900	-3.197	0.100
238.000	6.560	0.100
238.100	17.080	0.100
238.200	7.043	0.100
238.300	8.481	0.100
238.400	1.994	0.100
238.500	9.385	0.100
238.600	10.039	0.100
238.700	13.278	0.100
238.800	4.337	0.100
238.900	-1.999	0.100
239.000	3.734	0.100
239.100	15.889	0.100
239.200	18.747	0.100
239.300	11.779	0.100
239.400	1.665	0.100
239.500	7.856	0.100
239.600	-2.044	0.100
239.700	4.441	0.100
239.800	3.595	0.100
239.900	4.751	0.100
240.000	14.696	0.100
240.100	8.572	0.100
240.200	0.281	0.100
240.300	2.995	0.100
240.400	11.608	0.100
240.500	5.383	0.100
240.600	9.047	0.100
240.700	6.512	0.100
240.800	3.231	0.100
240.900	9.863	0.100
241.000	8.127	0.100
241.100	8.300	0.100
241.200	8.653	0.100
241.300	1.148	0.100
241.400	3.014	0.100
241.500	10.250	0.100
241.600	7.959	0.100
241.700	12.620	0.100
241.800	11.664	0.100
241.900	6.493	0.100
242.000	1.657	0.100
242.100	7.087	0.100
242.200	3.478	0.100
242.300	0.522	0.100
242.400	7.150	0.100
242.500	5.627	0.100
242.600	5.505	0.100
242.700	7.078	0.100
242.800	2.659	0.100
242.900	-0.369	0.100
243.000	15.325	0.100
243.100	4.070	0.100
243.200	3.557	0.100
243.300	-0.606	0.100
243.400	1.130	0.100
243.500	7.166	0.100
243.600	7.007	0.100
243.700	6.614	0.100
243.800	6.510	0.100
243.900	6.818	0.100
244.000	6.807	0.100
244.100	13.281	0.100
244.200	6.487	0.100
244.300	8.210	0.100
244.400	5.214	0.100
244.500	0.177	0.100
244.600	8.397	0.100
244.700	4.935	0.100
244.800	6.376	0.100
244.900	1.629	0.100
245.000	-7.843	0.100
245.100	14.372	0.100
245.200	13.627	0.100
245.300	1.892	0.100
245.400	16.243	0.100
245.500	14.918	0.100
245.600	9.139	0.100
245.700	12.887	0.100
245.800	7.967	0.100
245.900	10.396	0.100
246.000	7.830	0.100
246.100	15.114	0.100
246.200	3.648	0.100
246.300	-1.294	0.100
246.400	-2.411	0.100
246.500	-1.253	0.100
246.600	9.626	0.100
246.700	9.431	0.100
246.800	16.908	0.100
246.900	3.421	0.100
247.000	-6.782	0.100
247.100	-3.257	0.100
247.200	12.492	0.100
247.300	10.615	0.100
247.400	1.311	0.100
247.500	10.403	0.100
247.600	8.054	0.100
247.700	1.512	0.100
247.800	3.833	0.100
247.900	1.976	0.100
248.000	-1.504	0.100
248.100	0.682	0.100
248.200	3.539	0.100
248.300	4.975	0.100
248.400	6.550	0.100
248.500	5.123	0.100
248.600	-5.250	0.100
248.700	4.291	0.100
248.800	3.663	0.100
248.900	6.596	0.100
249.000	2.878	0.100
249.100	8.146	0.100
249.200	10.361	0.100
249.300	10.173	0.100
249.400	5.899	0.100
249.500	11.034	0.100
249.600	9.749	0.100
249.700	9.000	0.100
249.800	0.345	0.100
249.900	-4.744	0.100
250.000	2.857	0.100
250.100	13.501	0.100
250.200	8.479	0.100
250.300	24.690	0.100
250.400	7.777	0.100
250.500	1.139	0.100
250.600	-0.049	0.100
250.700	1.728	0.100
250.800	-2.098	0.100
250.900	4.835	0.100
251.000	5.190	0.100
251.100	3.877	0.100
251.200	11.645	0.100
251.300	3.506	0.100
251.400	-0.931	0.100
251.500	6.767	0.100
251.600	14.461	0.100
251.700	12.268	0.100
251.800	4.085	0.100
251.900	-4.355	0.100
252.000	0.207	0.100
252.100	7.319	0.100
252.200	6.754	0.100
252.300	13.866	0.100
252.400	0.095	0.100
252.500	0.406	0.100
252.600	-0.217	0.100
252.700	13.173	0.100
252.800	12.215	0.100
252.900	2.988	0.100
253.000	-1.389	0.100
253.100	2.133	0.100
253.200	3.633	0.100
253.300	5.441	0.100
253.400	7.937	0.100
253.500	2.499	0.100
253.600	1.529	0.100
253.700	-3.321	0.100
253.800	-0.852	0.100
253.900	10.694	0.100
254.000	8.473	0.100
254.100	9.738	0.100
254.200	5.352	0.100
254.300	4.671	0.100
254.400	0.311	0.100
254.500	-3.247	0.100
254.600	2.700	0.100
254.700	12.438	0.100
254.800	9.463	0.100
254.900	13.808	0.100
255.000	6.492	0.100
255.100	9.901	0.100
255.200	5.038	0.100
255.300	12.239	0.100
255.400	-3.842	0.100
255.500	-1.199	0.100
255.600	4.901	0.100
255.700	2.064	0.100
255.800	-3.415	0.100
255.900	12.118	0.100
256.000	5.812	0.100
256.100	12.283	0.100
256.200	6.511	0.100
256.300	2.181	0.100
256.400	7.545	0.100
256.500	-5.484	0.100
256.600	5.849	0.100
256.700	5.880	0.100
256.800	12.883	0.100
256.900	2.821	0.100
257.000	5.035	0.100
257.100	3.265	0.100
257.200	7.328	0.100
257.300	6.107	0.100
257.400	-4.110	0.100
257.500	4.246	0.100
257.600	9.174	0.100
257.700	4.792	0.100
257.800	7.141	0.100
257.900	4.950	0.100
258.000	3.731	0.100
258.100	-2.572	0.100
258.200	3.596	0.100
258.300	10.820	0.100
258.400	5.326	0.100
258.500	2.467	0.100
258.600	6.045	0.100
258.700	3.447	0.100
258.800	-9.752	0.100
258.900	6.462	0.100
259.000	6.433	0.100
259.100	2.893	0.100
259.200	7.137	0.100
259.300	3.891	0.100
259.400	6.431	0.100
259.500	8.217	0.100
259.600	8.355	0.100
259.700	10.364	0.100
259.800	8.246	0.100
259.900	-7.009	0.100
260.000	8.728	0.100
260.100	4.362	0.100
260.200	0.234	0.100
260.300	7.383	0.100
260.400	11.579	0.100
260.500	12.891	0.100
260.600	11.419	0.100
260.700	11.673	0.100
260.800	-1.195	0.100
260.900	9.627	0.100
261.000	-8.457	0.100
261.100	-8.608	0.100
261.200	6.406	0.100
261.300	12.480	0.100
261.400	-1.924	0.100
261.500	-0.254	0.100
261.600	6.214	0.100
261.700	9.457	0.100
261.800	3.464	0.100
261.900	7.610	0.100
262.000	-1.429	0.100
262.100	5.776	0.100
262.200	1.530	0.100
262.300	3.600	0.100
262.400	9.442	0.100
262.500	2.750	0.100
262.600	0.342	0.100
262.700	4.098	0.100
262.800	2.708	0.100
262.900	6.465	0.100
263.000	11.920	0.100
263.100	5.825	0.100
263.200	3.016	0.100
263.300	7.520	0.100
263.400	4.812	0.100
263.500	15.421	0.100
263.600	4.164	0.100
263.700	0.726	0.100
263.800	10.767	0.100
263.900	7.510	0.100
264.000	9.602	0.100
264.100	-8.254	0.100
264.200	-9.203	0.100
264.300	-0.414	0.100
264.400	8.090	0.100
264.500	-3.785	0.100
264.600	5.428	0.100
264.700	-5.757	0.100
264.800	2.477	0.100
264.900	3.910	0.100
265.000	3.955	0.100
265.100	0.446	0.100
265.200	1.480	0.100
265.300	1.934	0.100
265.400	-1.373	0.100
265.500	6.212	0.100
265.600	0.085	0.100
265.700	1.840	0.100
265.800	9.209	0.100
265.900	4.147	0.100
266.000	2.498	0.100
266.100	0.787	0.100
266.200	-5.249	0.100
266.300	9.810	0.100
266.400	5.541	0.100
266.500	2.119	0.100
266.600	2.340	0.100
266.700	1.069	0.100
266.800	1.127	0.100
266.900	13.111	0.100
267.000	1.192	0.100
267.100	1.862	0.100
267.200	0.072	0.100
267.300	-6.963	0.100
267.400	3.164	0.100
267.500	6.033	0.100
267.600	4.338	0.100
267.700	1.611	0.100
267.800	7.368	0.100
267.900	12.778	0.100
268.000	11.645	0.100
268.100	8.573	0.100
268.200	0.310	0.100
268.300	-5.490	0.100
268.400	10.672	0.100
268.500	8.562	0.100
268.600	2.388	0.100
268.700	3.557	0.100
268.800	6.686	0.100
268.900	1.489	0.100
269.000	1.737	0.100
269.100	8.336	0.100
269.200	3.504	0.100
269.300	3.481	0.100
269.400	0.353	0.100
269.500	-1.066	0.100
269.600	6.855	0.100
269.700	0.929	0.100
269.800	2.367	0.100
269.900	1.885	0.100
270.000	-2.663	0.100
270.100	7.170	0.100
270.200	3.798	0.100
270.300	2.735	0.100
270.400	12.635	0.100
270.500	-0.075	0.100
270.600	-0.561	0.100
270.700	4.610	0.100
270.800	-1.368	0.100
270.900	5.223	0.100
271.000	1.392	0.100
271.100	5.414	0.100
271.200	1.629	0.100
271.300	2.588	0.100
271.400	-1.446	0.100
271.500	6.490	0.100
271.600	-1.981	0.100
271.700	2.271	0.100
271.800	10.149	0.100
271.900	8.851	0.100
272.000	7.744	0.100
272.100	3.270	0.100
272.200	12.392	0.100
272.300	5.500	0.100
272.400	1.501	0.100
272.500	2.565	0.100
272.600	-4.161	0.100
272.700	1.710	0.100
272.800	6.457	0.100
272.900	7.040	0.100
273.000	3.820	0.100
273.100	-0.711	0.100
273.200	-3.586	0.100
273.300	1.030	0.100
273.400	-2.799	0.100
273.500	-0.825	0.100
273.600	-4.007	0.100
273.700	4.523	0.100
273.800	-5.331	0.100
273.900	5.543	0.100
274.000	5.945	0.100
274.100	9.075	0.100
274.200	8.654	0.100
274.300	-0.992	0.100
274.400	7.156	0.100
274.500	-2.909	0.100
274.600	2.731	0.100
274.700	-2.533	0.100
274.800	-2.102	0.100
274.900	-2.821	0.100
275.000	-0.671	0.100
275.100	6.984	0.100
275.200	4.013	0.100
275.300	4.892	0.100
275.400	2.183	0.100
275.500	-1.117	0.100
275.600	1.523	0.100
275.700	9.478	0.100
275.800	2.962	0.100
275.900	-6.454	0.100
276.000	-1.580	0.100
276.100	10.220	0.100
276.200	5.714	0.100
276.300	2.021	0.100
276.400	6.613	0.100
276.500	3.744	0.100
276.600	1.436	0.100
276.700	6.854	0.100
276.800	-1.358	0.100
276.900	-2.409	0.100
277.000	-3.616	0.100
277.100	-1.050	0.100
277.200	1.866	0.100
277.300	9.744	0.100
277.400	4.129	0.100
277.500	-1.050	0.100
277.600	-0.184	0.100
277.700	-6.325	0.100
277.800	8.187	0.100
277.900	7.683	0.100
278.000	2.187	0.100
278.100	2.344	0.100
278.200	1.733	0.100
278.300	7.967	0.100
278.400	6.895	0.100
278.500	6.061	0.100
278.600	-4.227	0.100
278.700	12.923	0.100
278.800	-0.626	0.100
278.900	4.038	0.100
279.000	-0.685	0.100
279.100	2.109	0.100
279.200	5.760	0.100
279.300	3.481	0.100
279.400	-4.422	0.100
279.500	-2.077	0.100
279.600	10.556	0.100
279.700	1.770	0.100
279.800	10.333	0.100
279.900	15.938	0.100
280.000	-5.265	0.100
280.100	3.941	0.100
280.200	1.215	0.100
280.300	0.760	0.100
280.400	-1.822	0.100
280.500	1.571	0.100
280.600	1.297	0.100
280.700	11.399	0.100
280.800	-0.735	0.100
280.900	-5.225	0.101
281.000	9.344	0.101
281.100	3.017	0.101
281.200	-6.764	0.101
281.300	4.874	0.101
281.400	2.417	0.101
281.500	-6.300	0.101
281.600	-2.849	0.101
281.700	14.055	0.101
281.800	-7.344	0.101
281.900	1.416	0.101
282.000	-0.095	0.101
282.100	5.572	0.101
282.200	3.897	0.101
282.300	9.686	0.101
282.400	2.566	0.101
282.500	0.176	0.101
282.600	3.577	0.101
282.700	10.084	0.101
282.800	2.552	0.101
282.900	4.406	0.101
283.000	-2.423	0.101
283.100	6.218	0.101
283.200	3.856	0.101
283.300	-0.382	0.101
283.400	3.841	0.101
283.500	-5.544	0.101
283.600	-1.339	0.101
283.700	3.172	0.101
283.800	1.997	0.101
283.900	11.654	0.101
284.000	1.443	0.101
284.100	2.373	0.101
284.200	8.122	0.101
284.300	-2.677	0.101
284.400	10.215	0.101
284.500	5.798	0.101
284.600	-1.464	0.101
284.700	0.813	0.101
284.800	4.487	0.101
284.900	6.820	0.101
285.000	1.983	0.101
285.100	10.146	0.101
285.200	6.932	0.101
285.300	-0.805	0.101
285.400	-4.079	0.101
285.500	-0.492	0.101
285.600	-0.245	0.101
285.700	2.165	0.101
285.800	-1.777	0.101
285.900	12.084	0.101
286.000	8.099	0.101
286.100	-8.698	0.101
286.200	-1.786	0.101
286.300	-0.555	0.101
286.400	6.689	0.101
286.500	-5.630	0.101
286.600	0.423	0.101
286.700	-3.172	0.101
286.800	1.356	0.101
286.900	7.875	0.101
287.000	10.573	0.101
287.100	0.138	0.101
287.200	2.457	0.101
287.300	5.782	0.101
287.400	-1.546	0.101
287.500	6.460	0.101
287.600	0.778	0.101
287.700	-1.722	0.101
287.800	4.793	0.101
287.900	-1.260	0.101
288.000	6.631	0.101
288.100	4.758	0.101
288.200	0.565	0.101
288.300	1.837	0.101
288.400	-0.944	0.101
288.500	4.414	0.101
288.600	8.687	0.101
288.700	-2.520	0.101
288.800	-5.917	0.101
288.900	2.340	0.101
289.000	1.014	0.101
289.100	4.713	0.101
289.200	11.872	0.101
289.300	9.059	0.101
289.400	-0.910	0.101
289.500	5.278	0.101
289.600	-1.681	0.101
289.700	-5.569	0.101
289.800	-4.300	0.101
289.900	0.848	0.101
290.000	3.917	0.101
290.100	0.690	0.101
290.200	3.020	0.101
290.300	-3.846	0.101
290.400	10.705	0.101
290.500	8.305	0.101
290.600	2.088	0.101
290.700	0.698	0.101
290.800	-0.245	0.101
290.900	13.959	0.101
291.000	0.328	0.101
291.100	6.730	0.101
291.200	9.103	0.101
291.300	7.327	0.101
291.400	1.871	0.101
291.500	5.290	0.101
291.600	-5.260	0.101
291.700	4.541	0.101
291.800	-4.320	0.101
291.900	1.057	0.101
292.000	-3.205	0.101
292.100	5.477	0.101
292.200	-2.201	0.101
292.300	8.917	0.101
292.400	7.031	0.101
292.500	3.004	0.101
292.600	10.431	0.101
292.700	-2.978	0.101
292.800	3.372	0.101
292.900	5.681	0.101
293.000	-8.598	0.101
293.100	1.885	0.101
293.200	6.421	0.101
293.300	4.626	0.101
293.400	9.712	0.101
293.500	3.240	0.101
293.600	-2.958	0.101
293.700	-3.080	0.101
293.800	5.748	0.101
293.900	8.519	0.101
294.000	2.153	0.101
294.100	-0.446	0.101
294.200	3.309	0.101
294.300	3.941	0.101
294.400	3.431	0.101
294.500	-0.393	0.101
294.600	4.962	0.101
294.700	8.416	0.101
294.800	0.775	0.101
294.900	-1.140	0.101
295.000	2.933	0.101
295.100	4.148	0.101
295.200	0.411	0.101
295.300	-9.054	0.101
295.400	6.343	0.101
295.500	1.929	0.101
295.600	5.611	0.101
295.700	0.426	0.101
295.800	9.318	0.101
295.900	3.160	0.101
296.000	2.507	0.101
296.100	-10.031	0.101
296.200	6.482	0.101
296.300	13.035	0.101
296.400	6.706	0.101
296.500	7.321	0.101
296.600	3.135	0.101
296.700	-5.905	0.101
296.800	6.064	0.101
296.900	-5.927	0.101
297.000	2.830	0.101
297.100	1.078	0.101
297.200	-7.067	0.101
297.300	-0.258	0.101
297.400	-2.914	0.101
297.500	9.889	0.101
297.600	-0.949	0.101
297.700	13.718	0.101
297.800	3.056	0.101
297.900	15.118	0.101
298.000	5.564	0.101
298.100	-2.044	0.101
298.200	1.924	0.101
298.300	-4.615	0.101
298.400	8.784	0.101
298.500	-1.681	0.101
298.600	4.747	0.101
298.700	-2.704	0.101
298.800	-5.743	0.101
298.900	8.160	0.101
299.000	6.256	0.101
299.100	2.329	0.101
299.200	5.104	0.101
299.300	6.772	0.101
299.400	6.909	0.101
299.500	5.150	0.101
299.600	2.897	0.101
299.700	0.752	0.101
299.800	8.186	0.101
299.900	0.858	0.101
300.000	1.002	0.101
300.100	-3.042	0.101
300.200	-3.627	0.101
300.300	-2.389	0.101
300.400	-3.595	0.101
300.500	8.333	0.101
300.600	6.288	0.101
300.700	-4.810	0.101
300.800	-2.370	0.101
300.900	2.083	0.101
301.000	2.362	0.101
301.100	9.601	0.101
301.200	3.793	0.101
301.300	-8.373	0.101
301.400	-1.291	0.101
301.500	7.942	0.101
301.600	-2.639	0.101
301.700	3.857	0.101
301.800	0.040	0.101
301.900	-6.654	0.101
302.000	-0.723	0.101
302.100	2.191	0.101
302.200	5.866	0.101
302.300	-1.860	0.101
302.400	-3.037	0.101
302.500	2.158	0.101
302.600	-5.406	0.101
302.700	4.463	0.101
302.800	-3.013	0.101
302.900	-1.514	0.101
303.000	1.534	0.101
303.100	8.143	0.101
303.200	3.042	0.101
303.300	10.028	0.101
303.400	-4.131	0.101
303.500	-4.214	0.101
303.600	9.448	0.101
303.700	-4.026	0.101
303.800	8.249	0.101
303.900	-2.075	0.101
304.000	-10.110	0.101
304.100	-8.343	0.101
304.200	2.512	0.101
304.300	13.056	0.101
304.400	6.737	0.101
304.500	-8.086	0.101
304.600	2.792	0.101
304.700	-6.572	0.101
304.800	5.357	0.101
304.900	6.704	0.101
305.000	-4.380	0.101
305.100	5.726	0.101
305.200	2.444	0.101
305.300	-5.925	0.101
305.400	-3.749	0.101
305.500	-1.180	0.101
305.600	0.171	0.101
305.700	-0.385	0.101
305.800	3.560	0.101
305.900	4.319	0.101
306.000	6.036	0.101
306.100	4.955	0.101
306.200	3.172	0.101
306.300	0.534	0.101
306.400	3.141	0.101
306.500	5.982	0.101
306.600	0.631	0.101
306.700	1.246	0.101
306.800	5.749	0.101
306.900	0.898	0.101
307.000	5.379	0.101
307.100	3.996	0.101
307.200	0.361	0.101
307.300	5.834	0.101
307.400	-0.324	0.101
307.500	4.141	0.101
307.600	8.219	0.101
307.700	2.570	0.101
307.800	0.530	0.101
307.900	2.301	0.101
308.000	0.174	0.101
308.100	3.881	0.101
308.200	13.677	0.101
308.300	1.848	0.101
308.400	3.382	0.101
308.500	-2.154	0.101
308.600	-5.567	0.101
308.700	-3.042	0.101
308.800	7.489	0.101
308.900	-2.661	0.101
309.000	0.785	0.101
309.100	4.275	0.101
309.200	4.658	0.101
309.300	6.849	0.101
309.400	-2.754	0.101
309.500	3.308	0.101
309.600	7.283	0.101
309.700	5.213	0.101
309.800	7.336	0.101
309.900	-1.449	0.101
310.000	-9.836	0.101
310.100	6.699	0.101
310.200	-3.001	0.101
310.300	-3.544	0.101
310.400	0.467	0.101
310.500	3.826	0.101
310.600	-5.319	0.101
310.700	-2.924	0.101
310.800	-9.343	0.101
310.900	-0.956	0.101
311.000	9.598	0.101
311.100	4.212	0.101
311.200	0.699	0.101
311.300	-1.680	0.101
311.400	2.647	0.101
311.500	-1.227	0.101
311.600	0.329	0.101
311.700	-0.820	0.101
311.800	10.457	0.101
311.900	-4.914	0.101
312.000	-3.753	0.101
312.100	-0.174	0.101
312.200	0.046	0.101
312.300	8.689	0.101
312.400	-3.320	0.101
312.500	-3.704	0.101
312.600	6.685	0.101
312.700	0.985	0.101
312.800	2.201	0.101
312.900	0.444	0.101
313.000	10.926	0.101
313.100	2.222	0.101
313.200	6.990	0.101
313.300	2.283	0.101
313.400	6.121	0.101
313.500	-6.266	0.101
313.600	5.040	0.101
313.700	-7.092	0.101
313.800	0.853	0.101
313.900	-3.043	0.101
314.000	-11.219	0.101
314.100	-1.139	0.101
314.200	-3.381	0.101
314.300	-0.008	0.101
314.400	4.853	0.101
314.500	2.150	0.101
314.600	2.853	0.101
314.700	-2.989	0.101
314.800	-5.227	0.101
314.900	2.260	0.101
315.000	1.493	0.101
315.100	3.453	0.101
315.200	7.352	0.101
315.300	3.636	0.101
315.400	-2.101	0.101
315.500	2.307	0.101
315.600	-4.814	0.101
315.700	7.481	0.101
315.800	8.336	0.101
315.900	-5.439	0.101
316.000	0.633	0.101
316.100	7.625	0.101
316.200	5.106	0.101
316.300	-2.038	0.101
316.400	-8.829	0.101
316.500	1.034	0.101
316.600	7.949	0.101
316.700	-5.636	0.101
316.800	-3.156	0.101
316.900	-6.683	0.101
317.000	7.203	0.101
317.100	7.840	0.101
317.200	2.242	0.101
317.300	-7.728	0.101
317.400	5.258	0.101
317.500	-2.004	0.101
317.600	-0.626	0.101
317.700	0.284	0.101
317.800	-0.430	0.101
317.900	0.673	0.101
318.000	9.016	0.101
318.100	2.658	0.101
318.200	3.713	0.101
318.300	12.797	0.101
318.400	-5.495	0.101
318.500	4.289	0.101
318.600	-0.861	0.101
318.700	4.979	0.101
318.800	7.610	0.101
318.900	-3.083	0.101
319.000	-2.021	0.101
319.100	-5.551	0.101
319.200	1.799	0.101
319.300	4.922	0.101
319.400	1.994	0.101
319.500	1.048	0.101
319.600	-10.877	0.101
319.700	-9.610	0.101
319.800	2.298	0.101
319.900	-9.098	0.101
320.000	1.992	0.101
320.100	11.187	0.101
320.200	2.001	0.101
320.300	6.425	0.101
320.400	-0.819	0.101
320.500	-0.271	0.101
320.600	3.983	0.101
320.700	6.726	0.101
320.800	9.670	0.101
320.900	-0.003	0.101
321.000	-3.698	0.101
321.100	0.703	0.101
321.200	-0.035	0.101
321.300	1.200	0.101
321.400	-5.740	0.101
321.500	4.833	0.101
321.600	2.587	0.101
321.700	7.980	0.101
321.800	3.705	0.101
321.900	3.603	0.101
322.000	-1.668	0.101
322.100	-2.303	0.101
322.200	-2.940	0.101
322.300	-9.340	0.101
322.400	3.404	0.101
322.500	3.882	0.101
322.600	2.624	0.101
322.700	1.958	0.101
322.800	3.628	0.101
322.900	2.649	0.101
323.000	6.179	0.101
323.100	4.425	0.101
323.200	3.958	0.101
323.300	3.646	0.101
323.400	1.282	0.101
323.500	-9.727	0.101
323.600	-2.641	0.101
323.700	-3.218	0.101
323.800	-0.234	0.101
323.900	-4.289	0.101
324.000	-3.977	0.101
324.100	-5.799	0.101
324.200	-0.902	0.101
324.300	1.484	0.101
324.400	5.620	0.101
324.500	-3.356	0.101
324.600	3.392	0.101
324.700	15.925	0.101
324.800	10.987	0.101
324.900	1.324	0.101
325.000	3.915	0.101
325.100	-2.498	0.101
325.200	-3.864	0.101
325.300	0.535	0.101
325.400	-1.877	0.101
325.500	2.513	0.101
325.600	7.239	0.101
325.700	1.850	0.101
325.800	-6.355	0.101
325.900	-11.579	0.101
326.000	-3.748	0.101
326.100	-4.043	0.101
326.200	1.536	0.101
326.300	8.433	0.101
326.400	-2.620	0.101
326.500	-10.890	0.101
326.600	-1.371	0.101
326.700	5.503	0.101
326.800	1.140	0.101
326.900	1.690	0.101
327.000	-4.960	0.101
327.100	0.869	0.101
327.200	-5.537	0.101
327.300	-1.492	0.101
327.400	2.111	0.101
327.500	1.998	0.101
327.600	-8.188	0.101
327.700	-6.207	0.101
327.800	9.050	0.101
327.900	1.454	0.101
328.000	0.942	0.101
328.100	-0.707	0.101
328.200	-1.140	0.101
328.300	-2.949	0.101
328.400	7.333	0.101
328.500	-1.095	0.101
328.600	5.064	0.101
328.700	8.445	0.101
328.800	-0.616	0.101
328.900	-6.014	0.101
329.000	-4.077	0.101
329.100	0.014	0.101
329.200	-4.437	0.101
329.300	3.040	0.101
329.400	-5.067	0.101
329.500	-5.759	0.101
329.600	4.832	0.101
329.700	-7.032	0.101
329.800	3.788	0.101
329.900	6.838	0.101
330.000	0.088	0.101
330.100	-1.499	0.101
330.200	-3.559	0.101
330.300	-3.179	0.101
330.400	2.773	0.101
330.500	2.087	0.101
330.600	6.560	0.101
330.700	6.911	0.101
330.800	-5.438	0.101
330.900	-7.173	0.101
331.000	2.904	0.101
331.100	13.522	0.101
331.200	3.545	0.101
331.300	-5.516	0.101
331.400	-1.154	0.101
331.500	-4.449	0.101
331.600	-7.613	0.101
331.700	-0.884	0.101
331.800	-8.341	0.101
331.900	8.831	0.101
332.000	8.777	0.101
332.100	7.946	0.101
332.200	-2.374	0.101
332.300	4.429	0.101
332.400	-4.089	0.101
332.500	-11.151	0.101
332.600	6.631	0.101
332.700	12.612	0.101
332.800	-0.315	0.101
332.900	5.700	0.101
333.000	2.444	0.101
333.100	2.512	0.101
333.200	-1.202	0.101
333.300	-0.052	0.101
333.400	-3.662	0.101
333.500	-0.749	0.101
333.600	-2.496	0.101
333.700	5.030	0.101
333.800	-0.282	0.101
333.900	0.872	0.101
334.000	0.443	0.101
334.100	-1.643	0.101
334.200	8.827	0.101
334.300	16.068	0.101
334.400	-1.356	0.101
334.500	2.890	0.101
334.600	2.893	0.101
334.700	4.005	0.101
334.800	-4.099	0.101
334.900	-2.086	0.101
335.000	-3.767	0.101
335.100	3.163	0.101
335.200	12.877	0.101
335.300	-8.008	0.101
335.400	1.108	0.101
335.500	16.692	0.101
335.600	8.020	0.101
335.700	-2.663	0.101
335.800	-0.706	0.101
335.900	4.113	0.101
336.000	7.575	0.101
336.100	2.692	0.101
336.200	11.441	0.101
336.300	-3.271	0.101
336.400	-1.529	0.101
336.500	-0.638	0.101
336.600	2.264	0.101
336.700	4.364	0.101
336.800	9.640	0.101
336.900	1.461	0.101
337.000	7.040	0.101
337.100	-7.371	0.101
337.200	4.582	0.101
337.300	4.733	0.101
337.400	-3.784	0.101
337.500	-2.059	0.101
337.600	2.137	0.101
337.700	4.045	0.101
337.800	1.323	0.101
337.900	11.059	0.101
338.000	6.818	0.101
338.100	0.182	0.101
338.200	-0.566	0.101
338.300	-0.074	0.101
338.400	-3.847	0.101
338.500	-0.860	0.101
338.600	-3.432	0.101
338.700	3.888	0.101
338.800	11.841	0.101
338.900	1.048	0.101
339.000	0.561	0.101
339.100	-1.862	0.101
339.200	-2.276	0.101
339.300	8.393	0.101
339.400	14.396	0.101
339.500	6.992	0.101
339.600	-5.307	0.101
339.700	-2.477	0.101
339.800	9.682	0.101
339.900	2.787	0.101
340.000	11.118	0.101
340.100	7.663	0.101
340.200	2.283	0.101
340.300	0.067	0.101
340.400	6.302	0.101
340.500	15.115	0.101
340.600	-5.577	0.101
340.700	11.337	0.101
340.800	4.490	0.101
340.900	8.070	0.101
341.000	-0.498	0.101
341.100	3.235	0.101
341.200	10.477	0.101
341.300	4.354	0.101
341.400	4.973	0.101
341.500	-7.053	0.101
341.600	3.097	0.101
341.700	2.606	0.101
341.800	14.804	0.101
341.900	2.708	0.101
342.000	-5.827	0.101
342.100	0.599	0.101
342.200	6.902	0.101
342.300	8.473	0.101
342.400	-1.044	0.101
342.500	-3.749	0.101
342.600	-0.121	0.101
342.700	-7.831	0.101
342.800	13.737	0.101
342.900	9.531	0.101
343.000	8.294	0.101
343.100	12.714	0.101
343.200	2.653	0.101
343.300	-10.482	0.101
343.400	4.748	0.101
343.500	6.000	0.101
343.600	7.381	0.101
343.700	-4.933	0.101
343.800	9.395	0.101
343.900	5.089	0.101
344.000	3.053	0.101
344.100	7.489	0.101
344.200	4.948	0.101
344.300	-0.505	0.101
344.400	0.677	0.101
344.500	9.716	0.101
344.600	7.694	0.101
344.700	5.845	0.101
344.800	1.165	0.101
344.900	7.337	0.101
345.000	-1.515	0.101
345.100	0.786	0.101
345.200	9.545	0.101
345.300	2.258	0.101
345.400	6.766	0.101
345.500	15.041	0.101
345.600	-0.925	0.101
345.700	-0.250	0.101
345.800	0.603	0.101
345.900	7.462	0.101
346.000	0.178	0.101
346.100	0.172	0.101
346.200	17.547	0.101
346.300	5.750	0.101
346.400	7.584	0.101
346.500	16.817	0.101
346.600	11.100	0.101
346.700	-2.510	0.101
346.800	10.090	0.101
346.900	4.080	0.101
347.000	2.667	0.101
347.100	3.979	0.101
347.200	3.738	0.101
347.300	3.693	0.101
347.400	3.836	0.101
347.500	-2.067	0.101
347.600	-2.192	0.101
347.700	-3.799	0.101
347.800	7.567	0.101
347.900	11.067	0.101
348.000	11.326	0.101
348.100	1.733	0.101
348.200	13.157	0.101
348.300	-0.460	0.101
348.400	0.150	0.101
348.500	7.544	0.101
348.600	0.452	0.101
348.700	13.439	0.101
348.800	7.808	0.101
348.900	8.889	0.101
349.000	8.153	0.101
349.100	-0.187	0.101
349.200	-3.490	0.101
349.300	0.338	0.101
349.400	0.608	0.101
349.500	0.764	0.101
349.600	5.192	0.101
349.700	3.062	0.101
349.800	0.217	0.101
349.900	8.944	0.101
350.000	3.241	0.101
350.100	-2.983	0.101
350.200	-0.987	0.101
350.300	0.162	0.101
350.400	-3.642	0.101
350.500	9.243	0.101
350.600	9.631	0.101
350.700	12.223	0.101
350.800	7.332	0.101
350.900	4.656	0.101
351.000	8.483	0.101
351.100	-3.321	0.101
351.200	-2.498	0.101
351.300	6.553	0.101
351.400	1.148	0.101
351.500	6.120	0.101
351.600	7.175	0.101
351.700	6.632	0.101
351.800	4.741	0.101
351.900	-2.616	0.101
352.000	6.644	0.101
352.100	0.955	0.101
352.200	7.805	0.101
352.300	3.480	0.101
352.400	-2.922	0.101
352.500	9.589	0.101
352.600	5.086	0.101
352.700	8.049	0.101
352.800	4.583	0.101
352.900	-6.504	0.101
353.000	5.243	0.101
353.100	12.501	0.101
353.200	4.573	0.101
353.300	-4.913	0.101
353.400	-0.383	0.101
353.500	0.137	0.101
353.600	-6.939	0.101
353.700	5.501	0.101
353.800	10.921	0.101
353.900	6.764	0.101
354.000	5.475	0.101
354.100	6.727	0.101
354.200	2.977	0.101
354.300	8.526	0.101
354.400	-0.549	0.101
354.500	8.433	0.101
354.600	4.123	0.101
354.700	4.724	0.101
354.800	10.159	0.101
354.900	13.668	0.101
355.000	13.483	0.101
355.100	12.246	0.101
355.200	-5.308	0.101
355.300	0.918	0.101
355.400	3.151	0.101
355.500	3.210	0.101
355.600	5.082	0.101
355.700	2.409	0.101
355.800	10.481	0.101
355.900	11.995	0.101
356.000	2.743	0.101
356.100	2.561	0.101
356.200	10.715	0.101
356.300	-1.641	0.101
356.400	5.859	0.101
356.500	0.836	0.101
356.600	2.541	0.101
356.700	19.420	0.101
356.800	5.607	0.101
356.900	-0.623	0.101
357.000	-0.783	0.101
357.100	6.652	0.101
357.200	9.683	0.101
357.300	-1.135	0.101
357.400	4.897	0.101
357.500	10.731	0.101
357.600	5.917	0.101
357.700	1.422	0.101
357.800	-2.783	0.101
357.900	12.603	0.101
358.000	-3.956	0.101
358.100	-3.012	0.101
358.200	10.839	0.101
358.300	10.166	0.101
358.400	13.329	0.101
358.500	6.004	0.101
358.600	7.869	0.101
358.700	-2.166	0.101
358.800	-2.617	0.101
358.900	5.407	0.101
359.000	0.313	0.101
359.100	-4.134	0.101
359.200	5.033	0.101
359.300	7.319	0.101
359.400	2.365	0.101
359.500	6.937	0.101
359.600	2.305	0.101
359.700	15.111	0.101
359.800	11.166	0.101
359.900	8.536	0.101
360.000	1.210	0.101
360.100	3.517	0.101
360.200	5.265	0.101
360.300	5.793	0.101
360.400	7.162	0.101
360.500	3.251	0.101
360.600	-1.055	0.101
360.700	3.990	0.101
360.800	3.400	0.101
360.900	4.671	0.101
361.000	9.290	0.101
361.100	4.644	0.101
361.200	-3.517	0.101
361.300	6.219	0.101
361.400	6.921	0.101
361.500	9.760	0.101
361.600	3.103	0.101
361.700	6.375	0.101
361.800	-3.309	0.101
361.900	2.261	0.101
362.000	5.497	0.101
362.100	7.539	0.101
362.200	8.188	0.101
362.300	-1.441	0.101
362.400	5.631	0.101
362.500	3.137	0.101
362.600	-2.820	0.101
362.700	-2.213	0.101
362.800	3.625	0.101
362.900	2.049	0.101
363.000	11.700	0.101
363.100	0.674	0.101
363.200	8.934	0.101
363.300	0.876	0.101
363.400	12.502	0.101
363.500	6.684	0.101
363.600	11.484	0.101
363.700	3.516	0.101
363.800	1.507	0.101
363.900	6.351	0.101
364.000	8.707	0.101
364.100	6.141	0.101
364.200	6.725	0.101
364.300	4.242	0.101
364.400	3.626	0.101
364.500	5.177	0.101
364.600	4.605	0.101
364.700	3.706	0.101
364.800	-1.277	0.101
364.900	4.192	0.101
365.000	6.735	0.101
365.100	4.495	0.101
365.200	3.793	0.101
365.300	11.239	0.101
365.400	-7.058	0.101
365.500	0.632	0.101
365.600	0.953	0.101
365.700	-0.218	0.101
365.800	10.607	0.101
365.900	8.538	0.101
366.000	12.500	0.101
366.100	11.830	0.101
366.200	7.619	0.101
366.300	3.626	0.101
366.400	3.450	0.101
366.500	9.194	0.101
366.600	8.523	0.101
366.700	-0.035	0.101
366.800	-3.115	0.101
366.900	0.633	0.101
367.000	2.989	0.101
367.100	0.927	0.101
367.200	-4.758	0.101
367.300	4.710	0.101
367.400	-0.120	0.101
367.500	1.462	0.101
367.600	11.725	0.101
367.700	3.219	0.101
367.800	5.422	0.101
367.900	4.164	0.101
368.000	3.070	0.101
368.100	8.757	0.101
368.200	4.684	0.101
368.300	11.089	0.101
368.400	-3.209	0.101
368.500	5.370	0.101
368.600	4.286	0.101
368.700	3.442	0.101
368.800	9.661	0.101
368.900	4.176	0.101
369.000	10.834	0.101
369.100	10.037	0.101
369.200	6.629	0.101
369.300	4.002	0.101
369.400	8.314	0.101
369.500	0.032	0.101
369.600	1.642	0.101
369.700	13.959	0.101
369.800	4.250	0.101
369.900	5.985	0.101
370.000	2.073	0.101
370.100	2.916	0.101
370.200	5.471	0.101
370.300	13.289	0.101
370.400	3.094	0.101
370.500	6.204	0.101
370.600	8.454	0.101
370.700	6.376	0.101
370.800	14.089	0.101
370.900	-0.605	0.101
371.000	3.348	0.101
371.100	-3.510	0.101
371.200	7.738	0.101
371.300	5.047	0.101
371.400	2.450	0.101
371.500	5.527	0.101
371.600	4.861	0.101
371.700	6.868	0.101
371.800	3.615	0.101
371.900	-0.763	0.101
372.000	13.817	0.101
372.100	-0.778	0.101
372.200	-5.237	0.101
372.300	-0.653	0.101
372.400	-3.681	0.101
372.500	10.249	0.101
372.600	11.682	0.101
372.700	7.209	0.101
372.800	0.829	0.101
372.900	3.936	0.101
373.000	14.206	0.101
373.100	0.717	0.101
373.200	6.310	0.101
373.300	5.740	0.101
373.400	4.470	0.101
373.500	2.650	0.101
373.600	-0.223	0.101
373.700	6.192	0.101
373.800	15.086	0.101
373.900	0.895	0.101
374.000	2.752	0.101
374.100	-2.339	0.101
374.200	8.862	0.101
374.300	4.797	0.101
374.400	4.089	0.101
374.500	2.268	0.101
374.600	5.083	0.101
374.700	5.285	0.101
374.800	6.580	0.101
374.900	1.366	0.101
375.000	4.930	0.101
375.100	12.213	0.101
375.200	-1.684	0.101
375.300	4.653	0.101
375.400	8.367	0.101
375.500	-0.617	0.101
375.600	-1.990	0.101
375.700	-0.210	0.101
375.800	5.868	0.101
375.900	16.806	0.101
376.000	16.002	0.101
376.100	13.885	0.101
376.200	12.890	0.101
376.300	-8.050	0.101
376.400	3.762	0.101
376.500	-3.426	0.101
376.600	-0.605	0.101
376.700	-11.421	0.101
376.800	4.375	0.101
376.900	16.705	0.101
377.000	6.275	0.101
377.100	4.542	0.101
377.200	1.671	0.101
377.300	10.035	0.101
377.400	-0.977	0.101
377.500	6.436	0.101
377.600	-2.429	0.101
377.700	-2.072	0.101
377.800	7.490	0.101
377.900	14.073	0.101
378.000	2.952	0.101
378.100	8.292	0.101
378.200	11.599	0.101
378.300	11.286	0.101
378.400	9.492	0.101
378.500	10.132	0.101
378.600	0.035	0.101
378.700	4.649	0.101
378.800	0.122	0.101
378.900	4.977	0.101
379.000	1.993	0.101
379.100	-6.149	0.101
379.200	10.139	0.101
379.300	6.194	0.101
379.400	-0.842	0.101
379.500	8.532	0.101
379.600	6.839	0.101
379.700	5.236	0.101
379.800	-1.830	0.101
379.900	-0.736	0.101
380.000	1.171	0.101
380.100	10.807	0.101
380.200	3.599	0.101
380.300	-4.637	0.101
380.400	0.027	0.101
380.500	3.876	0.101
380.600	-0.780	0.101
380.700	9.408	0.101
380.800	9.838	0.101
380.900	13.893	0.101
381.000	-5.133	0.101
381.100	2.740	0.101
381.200	3.879	0.101
381.300	-1.689	0.101
381.400	2.321	0.101
381.500	8.919	0.101
381.600	6.858	0.101
381.700	-0.384	0.101
381.800	11.871	0.101
381.900	-3.624	0.101
382.000	0.318	0.101
382.100	6.723	0.101
382.200	8.077	0.101
382.300	10.352	0.101
382.400	4.652	0.101
382.500	-3.650	0.101
382.600	-0.996	0.101
382.700	14.498	0.101
382.800	9.152	0.101
382.900	5.380	0.101
383.000	5.182	0.101
383.100	-6.905	0.101
383.200	-0.528	0.101
383.300	2.489	0.101
383.400	1.615	0.101
383.500	-2.483	0.101
383.600	4.720	0.101
383.700	11.303	0.101
383.800	7.695	0.101
383.900	-1.760	0.101
384.000	10.442	0.101
384.100	-2.541	0.101
384.200	8.310	0.101
384.300	5.419	0.101
384.400	14.157	0.101
384.500	5.780	0.101
384.600	9.978	0.101
384.700	0.839	0.101
384.800	-5.234	0.101
384.900	10.588	0.101
385.000	4.024	0.101
385.100	3.299	0.101
385.200	9.804	0.101
385.300	4.900	0.101
385.400	1.729	0.101
385.500	7.719	0.101
385.600	4.254	0.101
385.700	15.533	0.101
385.800	10.040	0.101
385.900	9.316	0.101
386.000	2.627	0.101
386.100	4.161	0.101
386.200	10.969	0.101
386.300	18.107	0.101
386.400	4.110	0.101
386.500	4.995	0.101
386.600	5.207	0.101
386.700	7.633	0.101
386.800	2.937	0.101
386.900	-4.733	0.101
387.000	7.978	0.101
387.100	9.973	0.101
387.200	-3.302	0.101
387.300	-2.736	0.101
387.400	0.902	0.101
387.500	3.059	0.101
387.600	12.752	0.101
387.700	1.274	0.101
387.800	11.520	0.101
387.900	5.665	0.101
388.000	1.578	0.101
388.100	8.746	0.101
388.200	9.049	0.101
388.300	10.952	0.101
388.400	9.553	0.101
388.500	2.690	0.101
388.600	7.413	0.101
388.700	7.048	0.101
388.800	3.330	0.101
388.900	4.357	0.101
389.000	7.134	0.101
389.100	3.178	0.101
389.200	1.094	0.101
389.300	6.782	0.101
389.400	3.743	0.101
389.500	5.519	0.101
389.600	3.127	0.101
389.700	6.081	0.101
389.800	2.845	0.101
389.900	2.874	0.101
390.000	6.604	0.101
390.100	8.527	0.101
390.200	4.269	0.101
390.300	21.496	0.101
390.400	-1.143	0.101
390.500	0.614	0.101
390.600	-3.814	0.101
390.700	11.227	0.101
390.800	8.664	0.101
390.900	6.537	0.101
391.000	-7.749	0.101
391.100	-1.035	0.101
391.200	-0.135	0.101
391.300	6.151	0.101
391.400	8.773	0.101
391.500	6.430	0.101
391.600	8.218	0.101
391.700	1.399	0.101
391.800	3.452	0.101
391.900	5.149	0.101
392.000	-0.834	0.101
392.100	6.560	0.101
392.200	-1.427	0.101
392.300	8.857	0.101
392.400	8.169	0.101
392.500	8.135	0.101
392.600	2.903	0.101
392.700	-0.387	0.101
392.800	2.014	0.101
392.900	5.170	0.101
393.000	-0.999	0.101
393.100	-4.249	0.101
393.200	6.059	0.101
393.300	10.312	0.101
393.400	2.354	0.101
393.500	8.298	0.101
393.600	11.350	0.101
393.700	-0.890	0.101
393.800	5.265	0.101
393.900	12.731	0.101
394.000	2.794	0.101
394.100	5.557	0.101
394.200	-0.355	0.101
394.300	1.631	0.101
394.400	-0.082	0.101
394.500	7.727	0.101
394.600	0.883	0.101
394.700	6.564	0.101
394.800	8.388	0.101
394.900	5.591	0.101
395.000	7.270	0.101
395.100	6.245	0.101
395.200	-2.502	0.101
395.300	-4.604	0.101
395.400	0.413	0.101
395.500	-3.404	0.101
395.600	-0.561	0.101
395.700	5.338	0.101
395.800	1.352	0.101
395.900	5.410	0.101
396.000	8.235	0.101
396.100	10.951	0.101
396.200	3.880	0.101
396.300	5.175	0.101
396.400	4.287	0.101
396.500	-3.995	0.101
396.600	-2.710	0.101
396.700	5.788	0.101
396.800	0.674	0.101
396.900	-4.593	0.101
397.000	10.377	0.101
397.100	6.189	0.101
397.200	9.618	0.101
397.300	-2.940	0.101
397.400	7.037	0.101
397.500	0.762	0.101
397.600	3.681	0.101
397.700	-3.565	0.101
397.800	2.183	0.101
397.900	2.726	0.101
398.000	2.329	0.101
398.100	-3.450	0.101
398.200	10.277	0.101
398.300	8.684	0.101
398.400	5.884	0.101
398.500	11.450	0.101
398.600	-2.731	0.101
398.700	0.021	0.101
398.800	-3.275	0.101
398.900	1.522	0.101
399.000	8.246	0.101
399.100	-3.097	0.101
399.200	3.755	0.101
399.300	-2.058	0.101
399.400	9.034	0.101
399.500	-7.603	0.101
399.600	2.905	0.101
399.700	5.152	0.101
399.800	3.094	0.101
399.900	-5.357	0.101
400.000	2.146	0.101
400.100	9.742	0.101
400.200	11.045	0.101
400.300	1.732	0.101
400.400	-3.620	0.101
400.500	2.351	0.101
400.600	-3.567	0.101
400.700	1.504	0.101
400.800	7.160	0.101
400.900	0.760	0.101
401.000	-6.831	0.101
401.100	0.267	0.101
401.200	4.468	0.101
401.300	-1.836	0.101
401.400	-5.153	0.101
401.500	-2.084	0.101
401.600	9.391	0.101
401.700	14.162	0.101
401.800	4.397	0.101
401.900	5.115	0.101
402.000	5.254	0.101
402.100	-0.462	0.101
402.200	-5.820	0.101
402.300	8.513	0.101
402.400	8.000	0.101
402.500	4.042	0.101
402.600	-2.946	0.101
402.700	2.934	0.101
402.800	0.291	0.101
402.900	-3.448	0.101
403.000	-0.144	0.101
403.100	-0.395	0.101
403.200	5.108	0.101
403.300	5.657	0.101
403.400	-1.109	0.101
403.500	4.542	0.101
403.600	1.078	0.101
403.700	0.677	0.101
403.800	-1.136	0.101
403.900	7.786	0.101
404.000	16.306	0.101
404.100	-0.323	0.101
404.200	-1.769	0.101
404.300	-5.781	0.101
404.400	5.949	0.101
404.500	5.099	0.101
404.600	-4.106	0.101
404.700	-0.448	0.101
404.800	-2.691	0.101
404.900	1.674	0.101
405.000	-1.353	0.101
405.100	-2.127	0.101
405.200	1.787	0.101
405.300	-2.306	0.101
405.400	-0.720	0.101
405.500	-1.212	0.101
405.600	4.552	0.101
405.700	-0.567	0.101
405.800	-0.590	0.101
405.900	0.142	0.101
406.000	1.080	0.101
406.100	0.329	0.101
406.200	-4.874	0.101
406.300	-2.403	0.101
406.400	5.899	0.101
406.500	3.093	0.101
406.600	-4.170	0.101
406.700	3.480	0.101
406.800	10.513	0.101
406.900	4.479	0.101
407.000	3.043	0.101
407.100	2.613	0.101
407.200	-10.288	0.101
407.300	3.413	0.101
407.400	1.316	0.101
407.500	3.092	0.101
407.600	8.859	0.101
407.700	-2.916	0.101
407.800	-3.625	0.101
407.900	5.004	0.101
408.000	1.860	0.101
408.100	1.357	0.101
408.200	-0.707	0.101
408.300	3.902	0.101
408.400	10.186	0.101
408.500	-6.177	0.101
408.600	0.899	0.101
408.700	4.825	0.101
408.800	-2.801	0.101
408.900	0.391	0.101
409.000	13.576	0.101
409.100	0.413	0.101
409.200	2.762	0.101
409.300	2.936	0.101
409.400	3.864	0.101
409.500	2.054	0.101
409.600	-0.935	0.101
409.700	8.838	0.101
409.800	0.633	0.101
409.900	-3.681	0.101
410.000	4.885	0.101
410.100	7.213	0.101
410.200	-2.033	0.101
410.300	3.010	0.101
410.400	-0.674	0.101
410.500	9.151	0.101
410.600	-0.091	0.101
410.700	2.659	0.101
410.800	-7.650	0.101
410.900	-0.340	0.101
411.000	-1.449	0.101
411.100	0.181	0.101
411.200	-2.460	0.101
411.300	2.289	0.101
411.400	0.890	0.101
411.500	5.658	0.101
411.600	4.212	0.101
411.700	1.735	0.101
411.800	6.463	0.101
411.900	-1.808	0.101
412.000	11.227	0.101
412.100	6.053	0.101
412.200	-6.881	0.101
412.300	4.984	0.101
412.400	4.439	0.101
412.500	-10.745	0.101
412.600	-3.487	0.101
412.700	4.316	0.101
412.800	3.239	0.101
412.900	0.819	0.101
413.000	3.941	0.101
413.100	6.229	0.101
413.200	0.986	0.101
413.300	-6.891	0.101
413.400	1.767	0.101
413.500	-4.604	0.101
413.600	-0.022	0.101
413.700	5.470	0.101
413.800	9.497	0.101
413.900	-5.281	0.101
414.000	-3.858	0.101
414.100	-0.991	0.101
414.200	1.113	0.101
414.300	1.646	0.101
414.400	-0.674	0.101
414.500	8.578	0.101
414.600	0.591	0.101
414.700	7.037	0.101
414.800	1.770	0.101
414.900	-0.989	0.101
415.000	-0.520	0.101
415.100	2.820	0.101
415.200	-5.841	0.101
415.300	3.216	0.101
415.400	-6.608	0.101
415.500	2.029	0.101
415.600	0.581	0.101
415.700	-1.809	0.101
415.800	1.284	0.101
415.900	9.270	0.101
416.000	4.263	0.101
416.100	3.252	0.101
416.200	1.516	0.101
416.300	-2.286	0.101
416.400	-3.653	0.101
416.500	-4.377	0.101
416.600	0.059	0.101
416.700	-0.754	0.101
416.800	1.968	0.101
416.900	1.453	0.101
417.000	-2.407	0.101
417.100	1.996	0.101
417.200	2.802	0.101
417.300	-0.761	0.101
417.400	11.709	0.101
417.500	2.921	0.101
417.600	7.972	0.101
417.700	0.860	0.101
417.800	0.338	0.101
417.900	-5.574	0.101
418.000	-2.251	0.101
418.100	-1.853	0.101
418.200	-1.767	0.101
418.300	-0.332	0.101
418.400	0.069	0.101
418.500	1.143	0.101
418.600	-1.505	0.101
418.700	-2.614	0.101
418.800	4.553	0.101
418.900	-2.959	0.101
419.000	-2.544	0.101
419.100	1.428	0.101
419.200	7.201	0.101
419.300	3.905	0.101
419.400	1.405	0.101
419.500	-9.395	0.101
419.600	0.524	0.101
419.700	4.076	0.101
419.800	3.494	0.101
419.900	7.354	0.101
420.000	0.767	0.101
420.100	-0.533	0.101
420.200	4.963	0.101
420.300	-11.182	0.101
420.400	-6.988	0.101
420.500	9.094	0.101
420.600	3.484	0.101
420.700	-3.842	0.101
420.800	0.798	0.101
420.900	-7.316	0.101
421.000	4.546	0.101
421.100	2.204	0.101
421.200	0.626	0.101
421.300	-10.212	0.101
421.400	-0.644	0.101
421.500	3.134	0.101
421.600	2.285	0.101
421.700	0.652	0.101
421.800	-3.430	0.101
421.900	5.960	0.101
422.000	5.994	0.101
422.100	-6.558	0.101
422.200	0.565	0.101
422.300	4.390	0.101
422.400	-4.246	0.101
422.500	10.606	0.101
422.600	-1.098	0.101
422.700	-0.638	0.101
422.800	2.482	0.101
422.900	5.330	0.101
423.000	-0.985	0.101
423.100	-0.772	0.101
423.200	-3.696	0.101
423.300	-1.969	0.101
423.400	-5.615	0.101
423.500	-10.091	0.101
423.600	-2.152	0.101
423.700	0.542	0.101
423.800	6.128	0.101
423.900	7.690	0.101
424.000	2.599	0.101
424.100	1.397	0.101
424.200	-0.983	0.101
424.300	-8.025	0.101
424.400	1.071	0.101
424.500	-1.635	0.101
424.600	1.065	0.101
424.700	5.882	0.101
424.800	2.035	0.101
424.900	7.294	0.101
425.000	1.114	0.101
425.100	4.429	0.101
425.200	1.623	0.101
425.300	2.870	0.101
425.400	6.131	0.101
425.500	-8.664	0.101
425.600	-5.930	0.101
425.700	3.306	0.101
425.800	-2.958	0.101
425.900	-7.472	0.101
426.000	3.991	0.101
426.100	5.649	0.101
426.200	6.911	0.101
426.300	-2.728	0.101
426.400	5.227	0.101
426.500	2.285	0.101
426.600	-7.286	0.101
426.700	4.400	0.101
426.800	-0.798	0.101
426.900	-7.383	0.101
427.000	-3.417	0.101
427.100	-2.022	0.101
427.200	2.285	0.101
427.300	-1.541	0.101
427.400	7.917	0.101
427.500	-2.016	0.101
427.600	-0.651	0.101
427.700	8.146	0.101
427.800	2.886	0.101
427.900	4.638	0.101
428.000	-3.357	0.101
428.100	3.760	0.101
428.200	-1.644	0.101
428.300	1.950	0.101
428.400	-2.872	0.101
428.500	-3.008	0.101
428.600	-0.237	0.101
428.700	-8.875	0.101
428.800	5.036	0.101
428.900	-0.629	0.101
429.000	-3.854	0.101
429.100	1.804	0.101
429.200	-6.578	0.101
429.300	3.946	0.101
429.400	3.357	0.101
429.500	5.184	0.101
429.600	6.090	0.101
429.700	-1.165	0.101
429.800	-3.216	0.101
429.900	-3.992	0.101
430.000	-1.686	0.101
430.100	8.555	0.101
430.200	-0.942	0.101
430.300	-1.245	0.101
430.400	0.592	0.101
430.500	2.559	0.101
430.600	2.866	0.101
430.700	5.661	0.101
430.800	1.170	0.101
430.900	2.182	0.101
431.000	8.976	0.101
431.100	-7.045	0.101
431.200	4.285	0.101
431.300	-7.338	0.101
431.400	-2.858	0.101
431.500	-13.148	0.101
431.600	-2.106	0.101
431.700	-6.024	0.101
431.800	-6.446	0.101
431.900	-0.883	0.101
432.000	4.600	0.101
432.100	3.607	0.101
432.200	2.166	0.101
432.300	-2.799	0.101
432.400	-2.894	0.101
432.500	-0.720	0.101
432.600	-2.486	0.101
432.700	6.343	0.101
432.800	-2.033	0.101
432.900	2.851	0.101
433.000	-0.194	0.101
433.100	1.460	0.101
433.200	-2.317	0.101
433.300	-3.868	0.101
433.400	-7.478	0.101
433.500	-7.264	0.101
433.600	1.818	0.101
433.700	3.554	0.101
433.800	11.224	0.101
433.900	2.515	0.101
434.000	2.733	0.101
434.100	-0.172	0.101
434.200	8.009	0.101
434.300	7.351	0.101
434.400	-3.407	0.101
434.500	-12.166	0.101
434.600	-1.573	0.101
434.700	-4.027	0.101
434.800	-6.247	0.101
434.900	14.715	0.101
435.000	0.671	0.101
435.100	-1.678	0.101
435.200	1.638	0.101
435.300	-1.728	0.101
435.400	4.651	0.101
435.500	1.262	0.101
435.600	-0.645	0.101
435.700	-1.727	0.101
435.800	2.535	0.101
435.900	-2.842	0.101
436.000	-4.280	0.101
436.100	-3.434	0.101
436.200	-8.776	0.101
436.300	3.991	0.101
436.400	4.357	0.101
436.500	-1.379	0.101
436.600	-0.332	0.101
436.700	0.398	0.101
436.800	3.689	0.101
436.900	6.518	0.101
437.000	0.445	0.101
437.100	-1.212	0.101
437.200	3.838	0.101
437.300	2.344	0.101
437.400	-8.500	0.101
437.500	6.174	0.101
437.600	4.146	0.101
437.700	-15.880	0.101
437.800	-4.638	0.101
437.900	1.969	0.101
438.000	-1.901	0.101
438.100	-3.639	0.101
438.200	-3.040	0.101
438.300	-0.420	0.101
438.400	2.533	0.101
438.500	5.358	0.101
438.600	1.655	0.101
438.700	-5.924	0.101
438.800	-0.081	0.101
438.900	-1.370	0.101
439.000	0.666	0.101
439.100	-0.709	0.101
439.200	-5.594	0.101
439.300	2.622	0.101
439.400	-0.289	0.101
439.500	1.482	0.101
439.600	1.718	0.101
439.700	3.399	0.101
439.800	5.457	0.101
439.900	-2.469	0.101
440.000	-2.570	0.101
440.100	-1.345	0.101
440.200	-3.845	0.101
440.300	0.105	0.101
440.400	0.053	0.101
440.500	11.625	0.101
440.600	-2.590	0.101
440.700	10.125	0.101
440.800	-7.651	0.101
440.900	0.937	0.101
441.000	2.576	0.101
441.100	3.894	0.101
441.200	0.218	0.101
441.300	-1.218	0.101
441.400	-4.405	0.101
441.500	-1.073	0.101
441.600	-1.839	0.101
441.700	-7.050	0.101
441.800	-8.977	0.101
441.900	-0.278	0.101
442.000	1.759	0.101
442.100	-1.783	0.101
442.200	-4.699	0.101
442.300	-3.619	0.101
442.400	6.642	0.101
442.500	9.951	0.101
442.600	5.114	0.101
442.700	-8.126	0.101
442.800	-2.514	0.101
442.900	-7.020	0.101
443.000	1.748	0.101
443.100	-5.276	0.101
443.200	10.186	0.101
443.300	5.321	0.101
443.400	-3.781	0.101
443.500	4.071	0.101
443.600	-10.337	0.101
443.700	7.172	0.101
443.800	-2.059	0.101
443.900	4.228	0.101
444.000	4.897	0.101
444.100	3.727	0.101
444.200	-4.784	0.101
444.300	-7.814	0.101
444.400	1.816	0.101
444.500	-3.301	0.101
444.600	-2.376	0.101
444.700	8.704	0.101
444.800	-2.719	0.101
444.900	-6.886	0.101
445.000	-10.794	0.101
445.100	-7.378	0.101
445.200	-2.314	0.101
445.300	4.368	0.101
445.400	-0.470	0.101
445.500	0.372	0.101
445.600	0.659	0.101
445.700	1.691	0.101
445.800	-5.667	0.101
445.900	-2.877	0.101
446.000	-7.975	0.101
446.100	1.449	0.101
446.200	-3.148	0.101
446.300	-3.718	0.101
446.400	4.369	0.101
446.500	-3.681	0.101
446.600	-2.212	0.101
446.700	-2.717	0.101
446.800	2.534	0.101
446.900	6.895	0.101
447.000	5.147	0.101
447.100	0.270	0.101
447.200	-1.080	0.101
447.300	4.540	0.101
447.400	7.748	0.101
447.500	4.190	0.101
447.600	5.863	0.101
447.700	-2.159	0.101
447.800	-2.456	0.101
447.900	-6.018	0.101
448.000	-7.903	0.101
448.100	-2.198	0.101
448.200	-0.689	0.101
448.300	-2.567	0.101
448.400	-9.976	0.101
448.500	0.441	0.101
448.600	-7.447	0.101
448.700	-1.492	0.101
448.800	4.905	0.101
448.900	-3.700	0.101
449.000	-2.052	0.101
449.100	-3.030	0.101
449.200	-7.618	0.101
449.300	-1.238	0.101
449.400	2.785	0.101
449.500	0.294	0.101
449.600	12.102	0.101
449.700	10.484	0.101
449.800	-0.906	0.101
449.900	-2.303	0.101
450.000	-5.600	0.101
450.100	-2.423	0.101
450.200	-0.620	0.101
450.300	-2.372	0.101
450.400	-1.509	0.101
450.500	-12.495	0.101
450.600	6.777	0.101
450.700	-2.772	0.101
450.800	-6.039	0.101
450.900	-2.029	0.101
451.000	8.071	0.101
451.100	-0.283	0.101
451.200	-0.901	0.101
451.300	-4.188	0.101
451.400	-0.849	0.101
451.500	-1.934	0.101
451.600	3.651	0.101
451.700	3.542	0.101
451.800	-8.417	0.101
451.900	-3.653	0.101
452.000	-3.576	0.101
452.100	-0.633	0.101
452.200	7.250	0.101
452.300	1.657	0.101
452.400	-7.771	0.101
452.500	-2.285	0.101
452.600	1.768	0.101
452.700	7.041	0.101
452.800	-2.148	0.101
452.900	-2.477	0.101
453.000	-5.751	0.101
453.100	-6.478	0.101
453.200	0.025	0.101
453.300	7.974	0.101
453.400	1.384	0.101
453.500	-1.421	0.101
453.600	-1.246	0.101
453.700	-2.511	0.101
453.800	14.376	0.101
453.900	1.341	0.101
454.000	-3.127	0.101
454.100	-11.019	0.101
454.200	2.871	0.101
454.300	-10.302	0.101
454.400	-3.071	0.101
454.500	2.331	0.101
454.600	-1.882	0.101
454.700	-3.754	0.101
454.800	1.163	0.101
454.900	-3.975	0.101
455.000	4.360	0.101
455.100	-1.717	0.101
455.200	-6.470	0.101
455.300	-1.472	0.101
455.400	1.633	0.101
455.500	-7.878	0.101
455.600	-7.719	0.101
455.700	1.734	0.101
455.800	9.965	0.101
455.900	-5.762	0.101
456.000	-7.321	0.101
456.100	-3.286	0.101
456.200	-1.463	0.101
456.300	4.344	0.101
456.400	2.760	0.101
456.500	2.994	0.101
456.600	0.998	0.101
456.700	-1.365	0.101
456.800	-0.438	0.101
456.900	5.356	0.101
457.000	1.133	0.101
457.100	-5.972	0.101
457.200	-3.037	0.101
457.300	1.533	0.101
457.400	-5.791	0.101
457.500	-8.878	0.101
457.600	-3.452	0.101
457.700	-0.970	0.101
457.800	1.887	0.101
457.900	12.382	0.101
458.000	-4.487	0.101
458.100	-6.615	0.101
458.200	-1.711	0.101
458.300	1.975	0.101
458.400	0.327	0.101
458.500	4.643	0.101
458.600	-7.542	0.101
458.700	-4.843	0.101
458.800	1.184	0.101
458.900	0.532	0.101
459.000	5.116	0.101
459.100	-2.924	0.101
459.200	1.717	0.101
459.300	7.076	0.101
459.400	-8.205	0.101
459.500	-0.005	0.101
459.600	-3.458	0.101
459.700	-4.927	0.101
459.800	-1.961	0.101
459.900	-1.258	0.101
460.000	2.929	0.101
460.100	-0.306	0.101
460.200	-0.462	0.101
460.300	-6.561	0.101
460.400	3.085	0.101
460.500	-5.666	0.101
460.600	2.317	0.101
460.700	3.775	0.101
460.800	-0.972	0.101
460.900	-1.686	0.101
461.000	-6.823	0.101
461.100	-5.344	0.101
461.200	0.723	0.101
461.300	-12.248	0.101
461.400	-5.459	0.101
461.500	0.580	0.101
461.600	2.292	0.101
461.700	2.003	0.101
461.800	-5.019	0.101
461.900	-2.584	0.101
462.000	5.213	0.101
462.100	5.711	0.101
462.200	0.458	0.101
462.300	-0.598	0.101
462.400	-6.259	0.101
462.500	-3.428	0.101
462.600	7.050	0.101
462.700	-0.619	0.101
462.800	-3.017	0.101
462.900	-9.724	0.101
463.000	5.462	0.101
463.100	-1.704	0.101
463.200	-3.572	0.101
463.300	-0.363	0.101
463.400	-8.827	0.101
463.500	-1.096	0.101
463.600	-2.584	0.101
463.700	-5.372	0.101
463.800	3.751	0.101
463.900	0.598	0.101
464.000	-4.151	0.101
464.100	-11.493	0.101
464.200	-3.586	0.101
464.300	2.354	0.101
464.400	-7.800	0.101
464.500	2.090	0.101
464.600	-5.160	0.101
464.700	-5.076	0.101
464.800	7.169	0.101
464.900	8.656	0.101
465.000	4.069	0.101
465.100	-7.019	0.101
465.200	-6.913	0.101
465.300	3.295	0.101
465.400	-1.835	0.101
465.500	-0.804	0.101
465.600	-6.985	0.101
465.700	0.595	0.101
465.800	-2.016	0.101
465.900	-5.180	0.101
466.000	-3.893	0.101
466.100	-7.615	0.101
466.200	-0.423	0.101
466.300	2.591	0.101
466.400	0.633	0.101
466.500	0.111	0.101
466.600	-5.271	0.101
466.700	-9.048	0.101
466.800	-0.857	0.101
466.900	-2.155	0.101
467.000	-7.120	0.101
467.100	-14.946	0.101
467.200	3.623	0.101
467.300	6.253	0.101
467.400	7.025	0.101
467.500	9.324	0.101
467.600	-2.154	0.101
467.700	-4.874	0.101
467.800	1.723	0.101
467.900	-0.468	0.101
468.000	-2.885	0.101
468.100	-0.091	0.101
468.200	4.469	0.101
468.300	-5.271	0.101
468.400	-2.012	0.101
468.500	-5.799	0.101
468.600	-3.025	0.101
468.700	-1.612	0.101
468.800	-9.768	0.101
468.900	-4.225	0.101
469.000	5.803	0.101
469.100	5.824	0.101
469.200	-4.849	0.101
469.300	1.617	0.101
469.400	7.017	0.101
469.500	-3.181	0.101
469.600	-2.913	0.101
469.700	0.631	0.101
469.800	-4.567	0.101
469.900	2.377	0.101
470.000	-5.407	0.101
470.100	0.036	0.101
470.200	0.550	0.101
470.300	0.983	0.101
470.400	-8.850	0.101
470.500	3.300	0.101
470.600	-3.789	0.101
470.700	10.939	0.101
470.800	2.616	0.101
470.900	3.550	0.101
471.000	1.404	0.101
471.100	-5.027	0.101
471.200	-9.031	0.101
471.300	-1.670	0.101
471.400	-6.441	0.101
471.500	-14.740	0.101
471.600	-11.033	0.101
471.700	-6.068	0.101
471.800	3.223	0.101
471.900	3.041	0.101
472.000	-2.199	0.101
472.100	-2.288	0.101
472.200	6.709	0.101
472.300	-4.122	0.101
472.400	-4.254	0.101
472.500	-2.045	0.101
472.600	-2.039	0.101
472.700	-4.120	0.101
472.800	-4.870	0.101
472.900	9.444	0.101
473.000	1.444	0.101
473.100	-4.261	0.101
473.200	-1.795	0.101
473.300	-0.121	0.101
473.400	4.962	0.101
473.500	5.034	0.101
473.600	-9.047	0.101
473.700	-8.003	0.101
473.800	0.076	0.101
473.900	-4.581	0.101
474.000	3.311	0.101
474.100	7.913	0.101
474.200	1.164	0.101
474.300	-1.579	0.101
474.400	7.638	0.101
474.500	-0.878	0.101
474.600	-1.007	0.101
474.700	-4.149	0.101
474.800	-12.250	0.101
474.900	-11.006	0.101
475.000	-4.705	0.101
475.100	6.602	0.101
475.200	-3.608	0.101
475.300	-7.167	0.101
475.400	-4.570	0.101
475.500	-1.341	0.101
475.600	7.874	0.101
475.700	-3.359	0.101
475.800	4.975	0.101
475.900	-9.793	0.101
476.000	-13.036	0.101
476.100	-11.794	0.101
476.200	-0.249	0.101
476.300	-0.132	0.101
476.400	2.247	0.101
476.500	3.133	0.101
476.600	-2.308	0.101
476.700	-12.705	0.101
476.800	-10.347	0.101
476.900	-3.552	0.101
477.000	-0.413	0.101
477.100	-3.733	0.101
477.200	-8.324	0.101
477.300	1.889	0.101
477.400	1.640	0.101
477.500	2.853	0.101
477.600	-0.149	0.101
477.700	-5.766	0.101
477.800	-2.354	0.101
477.900	-6.146	0.101
478.000	1.710	0.101
478.100	1.124	0.101
478.200	-4.646	0.101
478.300	4.877	0.101
478.400	-6.845	0.101
478.500	-7.011	0.101
478.600	1.400	0.101
478.700	2.002	0.101
478.800	-5.539	0.101
478.900	-1.793	0.101
479.000	2.671	0.101
479.100	-4.204	0.101
479.200	-3.742	0.101
479.300	-2.169	0.101
479.400	1.195	0.101
479.500	-7.871	0.101
479.600	1.428	0.101
479.700	-1.204	0.101
479.800	-9.915	0.101
479.900	-2.640	0.101
480.000	4.404	0.101
480.100	3.342	0.101
480.200	2.920	0.101
480.300	-1.132	0.101
480.400	-4.021	0.101
480.500	-10.874	0.101
480.600	1.841	0.101
480.700	-4.868	0.101
480.800	1.826	0.101
480.900	5.716	0.101
481.000	5.097	0.101
481.100	-5.101	0.101
481.200	7.546	0.101
481.300	-4.149	0.101
481.400	-1.718	0.101
481.500	3.348	0.101
481.600	0.977	0.101
481.700	-4.555	0.101
481.800	0.489	0.101
481.900	-6.599	0.101
482.000	1.243	0.101
482.100	2.197	0.101
482.200	-0.896	0.101
482.300	0.844	0.101
482.400	-0.025	0.101
482.500	-1.341	0.101
482.600	-1.882	0.101
482.700	1.583	0.101
482.800	0.857	0.101
482.900	-4.127	0.101
483.000	-4.506	0.101
483.100	4.003	0.101
483.200	-0.940	0.101
483.300	-3.327	0.101
483.400	-3.655	0.101
483.500	3.036	0.101
483.600	-2.811	0.101
483.700	-11.114	0.101
483.800	2.153	0.101
483.900	-0.143	0.101
484.000	-5.623	0.101
484.100	5.889	0.101
484.200	2.384	0.101
484.300	5.469	0.101
484.400	3.657	0.101
484.500	-6.563	0.101
484.600	-1.084	0.101
484.700	-0.138	0.101
484.800	1.910	0.101
484.900	-3.161	0.101
485.000	-0.620	0.101
485.100	-9.963	0.101
485.200	-8.087	0.101
485.300	-4.898	0.101
485.400	0.585	0.101
485.500	-5.004	0.101
485.600	8.859	0.101
485.700	10.546	0.101
485.800	2.021	0.101
485.900	-3.012	0.101
486.000	-6.337	0.101
486.100	8.531	0.101
486.200	1.419	0.101
486.300	-0.252	0.101
486.400	0.670	0.101
486.500	2.776	0.101
486.600	4.923	0.101
486.700	-0.764	0.101
486.800	-6.546	0.101
486.900	3.925	0.101
487.000	-4.592	0.101
487.100	-0.581	0.101
487.200	4.920	0.101
487.300	-3.433	0.101
487.400	-0.488	0.101
487.500	2.141	0.101
487.600	-2.210	0.101
487.700	0.682	0.101
487.800	2.387	0.101
487.900	3.554	0.101
488.000	3.751	0.101
488.100	-1.628	0.101
488.200	2.583	0.101
488.300	2.507	0.101
488.400	3.333	0.101
488.500	-10.508	0.101
488.600	3.875	0.101
488.700	3.017	0.101
488.800	1.980	0.101
488.900	-13.162	0.101
489.000	-9.901	0.101
489.100	10.395	0.101
489.200	-12.190	0.101
489.300	-4.702	0.101
489.400	3.870	0.101
489.500	-0.965	0.101
489.600	-5.941	0.101
489.700	-2.358	0.101
489.800	6.195	0.101
489.900	9.121	0.101
490.000	10.126	0.101
490.100	6.417	0.101
490.200	1.324	0.101
490.300	3.226	0.101
490.400	-6.382	0.101
490.500	-5.773	0.101
490.600	2.500	0.101
490.700	-5.554	0.101
490.800	3.292	0.101
490.900	6.634	0.101
491.000	-9.382	0.101
491.100	3.859	0.101
491.200	5.356	0.101
491.300	3.330	0.101
491.400	-3.471	0.101
491.500	7.208	0.101
491.600	-3.648	0.101
491.700	-2.405	0.101
491.800	7.735	0.101
491.900	2.881	0.101
492.000	0.703	0.101
492.100	0.461	0.101
492.200	0.185	0.101
492.300	6.527	0.101
492.400	8.557	0.101
492.500	8.434	0.101
492.600	-2.892	0.101
492.700	0.072	0.101
492.800	1.111	0.101
492.900	0.813	0.101
493.000	10.129	0.101
493.100	0.242	0.101
493.200	-0.430	0.101
493.300	-2.441	0.101
493.400	2.730	0.101
493.500	4.475	0.101
493.600	-0.281	0.101
493.700	2.028	0.101
493.800	4.704	0.101
493.900	3.299	0.101
494.000	1.567	0.101
494.100	3.897	0.101
494.200	-0.952	0.101
494.300	-1.731	0.101
494.400	6.301	0.101
494.500	1.325	0.101
494.600	9.811	0.101
494.700	11.491	0.101
494.800	3.946	0.101
494.900	0.924	0.101
495.000	-3.378	0.101
495.100	-7.163	0.101
495.200	2.102	0.101
495.300	4.241	0.101
495.400	5.129	0.101
495.500	10.189	0.101
495.600	-0.941	0.101
495.700	10.538	0.101
495.800	-1.922	0.101
495.900	-3.425	0.101
496.000	2.515	0.101
496.100	3.324	0.101
496.200	2.225	0.101
496.300	3.717	0.101
496.400	3.939	0.101
496.500	0.446	0.101
496.600	0.359	0.101
496.700	-7.705	0.101
496.800	0.533	0.101
496.900	14.375	0.101
497.000	2.500	0.101
497.100	4.472	0.101
497.200	3.106	0.101
497.300	-5.639	0.101
497.400	-1.767	0.101
497.500	6.048	0.101
497.600	9.444	0.101
497.700	1.291	0.101
497.800	7.396	0.101
497.900	-0.638	0.101
498.000	4.872	0.101
498.100	-1.560	0.101
498.200	0.355	0.101
498.300	8.603	0.101
498.400	5.935	0.101
498.500	0.654	0.101
498.600	-1.364	0.101
498.700	11.510	0.101
498.800	2.157	0.101
498.900	5.960	0.101
499.000	-10.772	0.101
499.100	7.194	0.101
499.200	2.969	0.101
499.300	0.394	0.101
499.400	4.422	0.101
499.500	7.139	0.101
499.600	11.365	0.101
499.700	5.968	0.101
499.800	-11.605	0.101
499.900	8.099	0.101
500.000	-0.734	0.101
500.100	-6.764	0.101
500.200	7.543	0.101
500.300	3.918	0.101
500.400	7.173	0.101
500.500	9.615	0.101
500.600	2.958	0.101
500.700	5.660	0.101
500.800	1.480	0.101
500.900	6.164	0.101
501.000	-6.549	0.101
501.100	0.566	0.101
501.200	6.199	0.101
501.300	-9.013	0.101
501.400	13.561	0.101
501.500	7.615	0.101
501.600	2.751	0.101
501.700	1.131	0.101
501.800	-1.373	0.101
501.900	-4.275	0.101
502.000	3.283	0.101
502.100	9.803	0.101
502.200	4.280	0.101
502.300	0.203	0.101
502.400	3.595	0.101
502.500	-0.977	0.101
502.600	6.525	0.101
502.700	-0.045	0.101
502.800	-1.712	0.101
502.900	8.115	0.101
503.000	3.319	0.101
503.100	-5.229	0.101
503.200	-8.021	0.101
503.300	8.249	0.101
503.400	11.056	0.101
503.500	-2.426	0.101
503.600	2.039	0.101
503.700	-4.747	0.101
503.800	-1.939	0.101
503.900	2.819	0.101
504.000	11.784	0.101
504.100	10.317	0.101
504.200	3.368	0.101
504.300	2.827	0.101
504.400	1.985	0.101
504.500	0.497	0.101
504.600	3.675	0.101
504.700	1.567	0.101
504.800	4.792	0.101
504.900	2.217	0.101
505.000	0.989	0.101
505.100	-0.448	0.101
505.200	0.743	0.101
505.300	-2.089	0.101
505.400	-2.139	0.101
505.500	10.394	0.101
505.600	-0.353	0.101
505.700	0.019	0.101
505.800	3.763	0.101
505.900	2.036	0.101
506.000	12.878	0.101
506.100	9.211	0.101
506.200	-5.128	0.101
506.300	9.174	0.101
506.400	7.588	0.101
506.500	0.284	0.101
506.600	-1.365	0.101
506.700	5.186	0.101
506.800	-4.828	0.101
506.900	-5.760	0.101
507.000	7.070	0.101
507.100	8.596	0.101
507.200	4.426	0.101
507.300	13.924	0.101
507.400	3.063	0.101
507.500	2.677	0.101
507.600	0.934	0.101
507.700	-1.231	0.101
507.800	2.153	0.101
507.900	-9.070	0.101
508.000	1.460	0.101
508.100	0.759	0.101
508.200	7.506	0.101
508.300	2.740	0.101
508.400	10.120	0.101
508.500	-2.221	0.101
508.600	-0.386	0.101
508.700	-5.963	0.101
508.800	-2.366	0.101
508.900	8.109	0.101
509.000	5.921	0.101
509.100	8.000	0.101
509.200	-3.346	0.101
509.300	5.436	0.101
509.400	7.147	0.101
509.500	4.597	0.101
509.600	11.790	0.101
509.700	4.567	0.101
509.800	5.494	0.101
509.900	7.330	0.101
510.000	-0.483	0.101
510.100	-0.568	0.101
510.200	11.595	0.101
510.300	5.931	0.101
510.400	-2.593	0.101
510.500	-2.503	0.101
510.600	-4.680	0.101
510.700	-2.101	0.101
510.800	-1.554	0.101
510.900	6.689	0.101
511.000	-8.553	0.101
511.100	-0.313	0.101
511.200	1.624	0.101
511.300	6.060	0.101
511.400	6.191	0.101
511.500	2.631	0.101
511.600	1.455	0.101
511.700	12.982	0.101
511.800	1.726	0.101
511.900	-12.072	0.101
512.000	6.365	0.101
512.100	-2.547	0.101
512.200	3.126	0.101
512.300	1.722	0.101
512.400	2.771	0.101
512.500	5.568	0.101
512.600	-0.464	0.101
512.700	10.800	0.101
512.800	-4.460	0.101
512.900	2.912	0.101
513.000	0.777	0.101
513.100	6.850	0.101
513.200	1.635	0.101
513.300	8.166	0.101
513.400	6.750	0.101
513.500	-1.087	0.101
513.600	4.848	0.101
513.700	0.621	0.101
513.800	8.763	0.101
513.900	4.965	0.101
514.000	7.669	0.101
514.100	-1.285	0.101
514.200	2.144	0.101
514.300	7.973	0.101
514.400	1.584	0.101
514.500	1.779	0.101
514.600	8.503	0.101
514.700	0.688	0.101
514.800	4.132	0.101
514.900	-2.863	0.101
515.000	-0.108	0.101
515.100	0.349	0.101
515.200	6.970	0.101
515.300	4.191	0.101
515.400	1.326	0.101
515.500	3.601	0.101
515.600	3.874	0.101
515.700	-2.547	0.101
515.800	2.088	0.101
515.900	4.231	0.101
516.000	12.687	0.101
516.100	2.349	0.101
516.200	-5.104	0.101
516.300	2.983	0.101
516.400	3.992	0.101
516.500	-0.872	0.101
516.600	1.425	0.101
516.700	2.693	0.101
516.800	5.921	0.101
516.900	-1.260	0.101
517.000	10.449	0.101
517.100	-3.414	0.101
517.200	4.919	0.101
517.300	3.848	0.101
517.400	2.181	0.101
517.500	2.738	0.101
517.600	-4.518	0.101
517.700	9.868	0.101
517.800	3.064	0.101
517.900	-9.815	0.101
518.000	3.610	0.101
518.100	7.037	0.101
518.200	-3.184	0.101
518.300	0.391	0.101
518.400	6.278	0.101
518.500	5.994	0.101
518.600	-3.570	0.101
518.700	-0.488	0.101
518.800	6.168	0.101
518.900	9.013	0.101
519.000	-1.545	0.101
519.100	-4.453	0.101
519.200	5.391	0.101
519.300	8.827	0.101
519.400	13.055	0.101
519.500	2.596	0.101
519.600	-2.305	0.101
519.700	1.785	0.101
519.800	-4.682	0.101
519.900	0.764	0.101
520.000	2.371	0.101
520.100	5.255	0.101
520.200	-5.948	0.101
520.300	-1.193	0.101
520.400	12.882	0.101
520.500	-2.804	0.101
520.600	5.760	0.101
520.700	0.290	0.101
520.800	5.868	0.101
520.900	1.262	0.101
521.000	-1.506	0.101
521.100	3.982	0.101
521.200	7.025	0.101
521.300	-3.567	0.101
521.400	-0.307	0.101
521.500	12.727	0.101
521.600	-3.045	0.101
521.700	4.349	0.101
521.800	-0.708	0.101
521.900	2.400	0.101
522.000	1.327	0.101
522.100	8.653	0.101
522.200	1.966	0.101
522.300	7.975	0.101
522.400	-8.994	0.101
522.500	1.942	0.101
522.600	10.883	0.101
522.700	11.295	0.101
522.800	-6.121	0.101
522.900	3.248	0.101
523.000	-0.026	0.101
523.100	2.772	0.101
523.200	2.351	0.101
523.300	6.391	0.101
523.400	9.231	0.101
523.500	11.762	0.101
523.600	-2.521	0.101
523.700	-1.193	0.101
523.800	7.326	0.101
523.900	-4.334	0.101
524.000	1.810	0.101
524.100	-6.692	0.101
524.200	-2.677	0.101
524.300	8.604	0.101
524.400	6.729	0.101
524.500	-1.805	0.101
524.600	7.655	0.101
524.700	6.355	0.101
524.800	-7.480	0.101
524.900	-6.918	0.101
525.000	11.570	0.101
525.100	5.382	0.101
525.200	3.406	0.101
525.300	0.448	0.101
525.400	-0.765	0.101
525.500	-6.642	0.101
525.600	3.788	0.101
525.700	13.918	0.101
525.800	12.515	0.101
525.900	2.331	0.101
526.000	-0.168	0.101
526.100	9.410	0.101
526.200	3.456	0.101
526.300	-3.964	0.101
526.400	4.641	0.101
526.500	6.132	0.101
526.600	4.161	0.101
526.700	-5.307	0.101
526.800	4.527	0.101
526.900	5.842	0.101
527.000	0.984	0.101
527.100	3.578	0.101
527.200	1.886	0.101
527.300	1.562	0.101
527.400	8.352	0.101
527.500	3.165	0.101
527.600	8.870	0.101
527.700	-5.464	0.101
527.800	-6.744	0.101
527.900	6.776	0.101
528.000	5.425	0.101
528.100	1.053	0.101
528.200	4.637	0.101
528.300	2.784	0.101
528.400	-1.787	0.101
528.500	3.882	0.101
528.600	-0.988	0.101
528.700	10.845	0.101
528.800	-0.136	0.101
528.900	13.515	0.101
529.000	6.351	0.101
529.100	2.048	0.101
529.200	-5.729	0.101
529.300	0.994	0.101
529.400	8.966	0.101
529.500	5.249	0.101
529.600	-9.009	0.101
529.700	6.288	0.101
529.800	-1.360	0.101
529.900	6.492	0.101
530.000	11.981	0.101
530.100	4.165	0.101
530.200	-2.480	0.101
530.300	-0.352	0.101
530.400	-4.686	0.101
530.500	5.229	0.101
530.600	4.749	0.101
530.700	6.589	0.101
530.800	2.620	0.101
530.900	4.703	0.101
531.000	0.140	0.101
531.100	11.385	0.101
531.200	3.638	0.101
531.300	2.279	0.101
531.400	5.402	0.101
531.500	4.239	0.101
531.600	-1.163	0.101
531.700	-3.077	0.101
531.800	9.102	0.101
531.900	17.208	0.101
532.000	6.618	0.101
532.100	7.198	0.101
532.200	-2.993	0.101
532.300	4.992	0.101
532.400	5.123	0.101
532.500	1.405	0.101
532.600	13.159	0.101
532.700	-2.005	0.101
532.800	-0.556	0.101
532.900	-6.951	0.101
533.000	3.234	0.101
533.100	6.098	0.101
533.200	5.895	0.101
533.300	1.068	0.101
533.400	16.711	0.101
533.500	2.570	0.101
533.600	1.946	0.101
533.700	3.796	0.101
533.800	2.117	0.101
533.900	5.410	0.101
534.000	7.262	0.101
534.100	8.910	0.101
534.200	0.719	0.101
534.300	2.576	0.101
534.400	4.036	0.101
534.500	4.999	0.101
534.600	1.028	0.101
534.700	-3.885	0.101
534.800	2.779	0.101
534.900	6.846	0.101
535.000	2.885	0.101
535.100	2.988	0.101
535.200	3.714	0.101
535.300	-1.295	0.101
535.400	-1.555	0.101
535.500	-1.015	0.101
535.600	4.003	0.101
535.700	4.559	0.101
535.800	6.415	0.101
535.900	3.346	0.101
536.000	4.127	0.101
536.100	-4.822	0.101
536.200	-0.928	0.101
536.300	6.423	0.101
536.400	-2.905	0.101
536.500	0.073	0.101
536.600	3.024	0.101
536.700	3.838	0.101
536.800	-2.256	0.101
536.900	8.846	0.101
537.000	6.596	0.101
537.100	-1.552	0.101
537.200	-3.011	0.101
537.300	13.009	0.101
537.400	4.909	0.101
537.500	8.988	0.101
537.600	10.847	0.101
537.700	-1.345	0.101
537.800	2.048	0.101
537.900	3.161	0.101
538.000	0.955	0.101
538.100	10.422	0.101
538.200	14.642	0.101
538.300	0.089	0.101
538.400	6.766	0.101
538.500	5.529	0.101
538.600	4.126	0.101
538.700	-8.669	0.101
538.800	2.232	0.101
538.900	8.656	0.101
539.000	-0.491	0.101
539.100	2.031	0.101
539.200	4.157	0.101
539.300	-1.349	0.101
539.400	8.705	0.101
539.500	12.967	0.101
539.600	7.264	0.101
539.700	3.453	0.101
539.800	-4.282	0.101
539.900	-4.088	0.101
540.000	7.653	0.101
540.100	2.630	0.101
540.200	1.621	0.101
540.300	11.230	0.101
540.400	6.963	0.101
540.500	7.110	0.101
540.600	12.269	0.101
540.700	5.141	0.101
540.800	3.388	0.101
540.900	-2.874	0.101
541.000	0.143	0.101
541.100	5.237	0.101
541.200	-2.050	0.101
541.300	3.893	0.101
541.400	1.959	0.101
541.500	9.007	0.101
541.600	1.346	0.101
541.700	1.797	0.101
541.800	4.185	0.101
541.900	-7.780	0.101
542.000	4.988	0.101
542.100	7.780	0.101
542.200	-7.955	0.101
542.300	-3.409	0.101
542.400	6.899	0.101
542.500	8.644	0.101
542.600	3.962	0.101
542.700	-2.502	0.101
542.800	11.270	0.101
542.900	12.267	0.101
543.000	12.715	0.101
543.100	-0.902	0.101
543.200	6.181	0.101
543.300	-4.139	0.101
543.400	-0.534	0.101
543.500	-3.110	0.101
543.600	1.263	0.101
543.700	-2.549	0.101
543.800	-1.401	0.101
543.900	4.295	0.101
544.000	1.562	0.101
544.100	10.435	0.101
544.200	7.122	0.101
544.300	5.788	0.101
544.400	4.158	0.101
544.500	4.608	0.101
544.600	9.673	0.101
544.700	2.688	0.101
544.800	5.310	0.101
544.900	1.848	0.101
545.000	-0.179	0.101
545.100	-13.131	0.101
545.200	2.422	0.101
545.300	-0.505	0.101
545.400	-3.675	0.101
545.500	-0.731	0.101
545.600	0.647	0.101
545.700	5.764	0.101
545.800	-0.733	0.101
545.900	3.128	0.101
546.000	1.632	0.101
546.100	1.200	0.101
546.200	5.782	0.101
546.300	1.931	0.101
546.400	8.764	0.101
546.500	11.246	0.101
546.600	4.118	0.101
546.700	0.908	0.101
546.800	-3.854	0.101
546.900	3.642	0.101
547.000	-0.507	0.101
547.100	2.334	0.101
547.200	1.540	0.101
547.300	-3.464	0.101
547.400	-3.210	0.101
547.500	-7.917	0.101
547.600	1.644	0.101
547.700	2.376	0.101
547.800	2.826	0.101
547.900	-2.813	0.101
548.000	5.117	0.101
548.100	9.186	0.101
548.200	-4.526	0.101
548.300	8.631	0.101
548.400	-3.438	0.101
548.500	-1.596	0.101
548.600	-8.928	0.101
548.700	-0.100	0.101
548.800	0.302	0.101
548.900	5.381	0.101
549.000	-1.134	0.101
549.100	11.851	0.101
549.200	-1.474	0.101
549.300	-4.046	0.101
549.400	2.552	0.101
549.500	5.774	0.101
549.600	-6.228	0.101
549.700	1.373	0.101
549.800	0.196	0.101
549.900	3.447	0.101
550.000	9.255	0.101
550.100	1.076	0.101
550.200	9.170	0.101
550.300	-6.196	0.101
550.400	-3.646	0.101
550.500	1.525	0.101
550.600	0.849	0.101
550.700	1.140	0.101
550.800	2.193	0.101
550.900	-1.068	0.101
551.000	-2.520	0.101
551.100	4.776	0.101
551.200	4.817	0.101
551.300	12.245	0.101
551.400	1.012	0.101
551.500	4.058	0.101
551.600	0.682	0.101
551.700	-0.320	0.101
551.800	-1.257	0.101
551.900	6.472	0.101
552.000	-2.946	0.101
552.100	-2.533	0.101
552.200	0.159	0.101
552.300	2.190	0.101
552.400	11.000	0.101
552.500	-11.967	0.101
552.600	1.584	0.101
552.700	2.504	0.101
552.800	2.707	0.101
552.900	-1.431	0.101
553.000	-1.407	0.101
553.100	-5.890	0.101
553.200	-3.260	0.101
553.300	0.382	0.101
553.400	5.663	0.101
553.500	0.010	0.101
553.600	5.876	0.101
553.700	5.412	0.101
553.800	4.717	0.101
553.900	6.339	0.101
554.000	5.801	0.101
554.100	-1.278	0.101
554.200	-8.566	0.101
554.300	5.816	0.101
554.400	-0.382	0.101
554.500	4.893	0.101
554.600	2.460	0.101
554.700	-1.866	0.101
554.800	-4.333	0.101
554.900	9.423	0.101
555.000	-3.854	0.101
555.100	2.542	0.101
555.200	5.438	0.101
555.300	-7.514	0.101
555.400	3.449	0.101
555.500	-2.602	0.101
555.600	-6.876	0.101
555.700	-10.131	0.101
555.800	-2.621	0.101
555.900	6.852	0.101
556.000	13.811	0.101
556.100	6.090	0.101
556.200	4.583	0.101
556.300	-7.487	0.101
556.400	-6.491	0.101
556.500	-3.318	0.101
556.600	7.153	0.101
556.700	-0.539	0.101
556.800	-4.770	0.101
556.900	1.708	0.101
557.000	0.867	0.101
557.100	2.045	0.101
557.200	-0.147	0.101
557.300	1.579	0.101
557.400	1.155	0.101
557.500	-0.298	0.101
557.600	-0.281	0.101
557.700	-0.080	0.101
557.800	4.870	0.101
557.900	9.818	0.101
558.000	-3.228	0.101
558.100	-6.677	0.101
558.200	-6.408	0.101
558.300	-10.809	0.101
558.400	0.420	0.101
558.500	2.369	0.101
558.600	1.485	0.101
558.700	-6.547	0.101
558.800	6.762	0.101
558.900	4.401	0.101
559.000	-4.385	0.101
559.100	-1.292	0.101
559.200	-3.752	0.101
559.300	2.839	0.101
559.400	1.663	0.101
559.500	0.167	0.101
559.600	4.665	0.101
559.700	-3.488	0.101
559.800	17.180	0.101
559.900	2.110	0.101
560.000	-2.374	0.101
560.100	-5.973	0.101
560.200	-5.315	0.101
560.300	-3.456	0.101
560.400	-5.581	0.101
560.500	10.477	0.101
560.600	-3.179	0.101
560.700	0.622	0.101
560.800	1.322	0.101
560.900	-0.847	0.101
561.000	-1.623	0.101
561.100	6.189	0.101
561.200	8.367	0.101
561.300	12.211	0.101
561.400	-5.018	0.101
561.500	-3.499	0.101
561.600	2.615	0.101
561.700	-5.750	0.101
561.800	-3.613	0.101
561.900	-3.852	0.101
562.000	-9.858	0.101
562.100	5.273	0.101
562.200	-1.187	0.101
562.300	-0.303	0.101
562.400	-1.022	0.101
562.500	11.578	0.101
562.600	2.147	0.101
562.700	4.728	0.101
562.800	10.547	0.101
562.900	-0.436	0.101
563.000	2.969	0.101
563.100	-6.847	0.101
563.200	3.858	0.101
563.300	-6.760	0.101
563.400	0.371	0.101
563.500	1.230	0.101
563.600	5.773	0.101
563.700	-1.159	0.101
563.800	5.670	0.101
563.900	-3.462	0.101
564.000	-7.280	0.101
564.100	-6.853	0.101
564.200	-2.375	0.101
564.300	-8.567	0.101
564.400	1.383	0.101
564.500	0.072	0.101
564.600	7.579	0.101
564.700	-0.060	0.101
564.800	3.905	0.101
564.900	6.471	0.101
565.000	0.026	0.101
565.100	-0.862	0.101
565.200	2.256	0.101
565.300	-2.599	0.101
565.400	-3.357	0.101
565.500	5.715	0.101
565.600	3.041	0.101
565.700	-0.110	0.101
565.800	-6.663	0.101
565.900	5.637	0.101
566.000	6.831	0.101
566.100	-6.850	0.101
566.200	-1.746	0.101
566.300	-8.178	0.101
566.400	-9.820	0.101
566.500	7.878	0.101
566.600	4.768	0.101
566.700	-1.267	0.101
566.800	0.975	0.101
566.900	-6.356	0.101
567.000	-0.374	0.101
567.100	3.666	0.101
567.200	-5.236	0.101
567.300	1.488	0.101
567.400	0.676	0.101
567.500	-3.669	0.101
567.600	0.222	0.101
567.700	-2.737	0.101
567.800	2.708	0.101
567.900	-5.721	0.101
568.000	-0.326	0.101
568.100	6.991	0.101
568.200	1.382	0.101
568.300	-0.852	0.101
568.400	-0.436	0.101
568.500	-3.688	0.101
568.600	-8.551	0.101
568.700	-3.676	0.101
568.800	2.243	0.101
568.900	10.685	0.101
569.000	0.756	0.101
569.100	4.048	0.101
569.200	-8.454	0.101
569.300	2.709	0.101
569.400	6.914	0.101
569.500	-7.791	0.101
569.600	4.978	0.101
569.700	3.596	0.101
569.800	-4.845	0.101
569.900	-1.876	0.101
570.000	-2.409	0.101
570.100	4.630	0.101
570.200	-3.362	0.101
570.300	1.833	0.101
570.400	-1.362	0.101
570.500	5.047	0.101
570.600	4.162	0.101
570.700	1.617	0.101
570.800	-0.301	0.101
570.900	-2.229	0.101
571.000	-1.437	0.101
571.100	-3.425	0.101
571.200	-1.556	0.101
571.300	1.373	0.101
571.400	0.386	0.101
571.500	-10.145	0.101
571.600	-2.117	0.101
571.700	2.414	0.101
571.800	2.962	0.101
571.900	4.387	0.101
572.000	2.230	0.101
572.100	-0.791	0.101
572.200	6.052	0.101
572.300	2.921	0.101
572.400	-12.226	0.101
572.500	-7.654	0.101
572.600	-6.871	0.101
572.700	5.888	0.101
572.800	1.751	0.101
572.900	5.307	0.101
573.000	-1.818	0.101
573.100	-7.029	0.101
573.200	-5.430	0.101
573.300	-13.174	0.101
573.400	-3.152	0.101
573.500	11.899	0.101
573.600	1.891	0.101
573.700	5.235	0.101
573.800	-2.808	0.101
573.900	0.511	0.101
574.000	-7.144	0.101
574.100	-6.010	0.101
574.200	2.150	0.101
574.300	0.032	0.101
574.400	-6.213	0.101
574.500	8.495	0.101
574.600	11.247	0.101
574.700	4.104	0.101
574.800	1.916	0.101
574.900	3.340	0.101
575.000	-8.665	0.101
575.100	-0.031	0.101
575.200	-10.041	0.101
575.300	3.606	0.101
575.400	-8.414	0.101
575.500	-8.482	0.101
575.600	-11.820	0.101
575.700	-0.118	0.101
575.800	9.409	0.101
575.900	-5.010	0.101
576.000	2.040	0.101
576.100	-4.136	0.101
576.200	0.604	0.101
576.300	-1.024	0.101
576.400	1.241	0.101
576.500	-0.884	0.101
576.600	-0.081	0.101
576.700	-2.618	0.101
576.800	4.231	0.101
576.900	-9.494	0.101
577.000	-0.935	0.101
577.100	-3.236	0.101
577.200	-4.040	0.101
577.300	1.103	0.101
577.400	-4.656	0.101
577.500	3.099	0.101
577.600	3.277	0.101
577.700	3.916	0.101
577.800	-11.032	0.101
577.900	-6.184	0.101
578.000	-1.923	0.101
578.100	6.433	0.101
578.200	10.048	0.101
578.300	-4.900	0.101
578.400	-3.174	0.101
578.500	-4.871	0.101
578.600	-2.200	0.101
578.700	0.246	0.101
578.800	-6.819	0.101
578.900	-1.502	0.101
579.000	-2.693	0.101
579.100	-5.211	0.101
579.200	8.380	0.101
579.300	-0.825	0.101
579.400	-8.982	0.101
579.500	3.153	0.101
579.600	2.379	0.101
579.700	4.537	0.101
579.800	5.169	0.101
579.900	-10.911	0.101
580.000	-1.077	0.101
580.100	8.608	0.101
580.200	4.146	0.101
580.300	-3.952	0.101
580.400	-9.050	0.101
580.500	-3.005	0.101
580.600	2.825	0.101
580.700	-8.747	0.101
580.800	-4.355	0.101
580.900	-1.649	0.101
581.000	-7.017	0.101
581.100	-0.375	0.101
581.200	-14.616	0.101
581.300	-0.686	0.101
581.400	3.054	0.101
581.500	-1.691	0.101
581.600	-2.805	0.101
581.700	9.844	0.101
581.800	-0.339	0.101
581.900	-1.377	0.101
582.000	-3.249	0.101
582.100	-0.517	0.101
582.200	4.112	0.101
582.300	-1.998	0.101
582.400	0.589	0.101
582.500	-2.969	0.101
582.600	-7.656	0.101
582.700	9.610	0.101
582.800	-1.538	0.101
582.900	-8.685	0.101
583.000	-5.441	0.101
583.100	-4.582	0.101
583.200	-4.955	0.101
583.300	-12.113	0.101
583.400	-11.034	0.101
583.500	-2.298	0.101
583.600	-7.800	0.101
583.700	9.172	0.101
583.800	5.391	0.101
583.900	-2.068	0.101
584.000	-0.981	0.101
584.100	-1.360	0.101
584.200	-3.848	0.101
584.300	-2.677	0.101
584.400	7.007	0.101
584.500	-2.803	0.101
584.600	-4.976	0.101
584.700	-6.756	0.101
584.800	-1.386	0.101
584.900	1.516	0.101
585.000	5.303	0.101
585.100	-2.322	0.101
585.200	-6.042	0.101
585.300	1.599	0.101
585.400	-4.166	0.101
585.500	-1.861	0.101
585.600	0.467	0.101
585.700	-5.309	0.101
585.800	2.123	0.101
585.900	5.298	0.101
586.000	-3.653	0.101
586.100	-7.486	0.101
586.200	2.083	0.101
586.300	-1.105	0.101
586.400	-15.806	0.101
586.500	-1.374	0.101
586.600	3.353	0.101
586.700	-7.273	0.101
586.800	-4.892	0.101
586.900	-4.439	0.101
587.000	-5.586	0.101
587.100	1.626	0.101
587.200	-4.940	0.101
587.300	-9.921	0.101
587.400	-4.588	0.101
587.500	0.653	0.101
587.600	6.765	0.101
587.700	5.255	0.101
587.800	3.347	0.101
587.900	-1.885	0.101
588.000	-0.959	0.101
588.100	-1.091	0.101
588.200	-7.829	0.101
588.300	-4.725	0.101
588.400	-0.880	0.101
588.500	-3.675	0.101
588.600	-2.545	0.101
588.700	-5.303	0.101
588.800	3.499	0.101
588.900	1.836	0.101
589.000	-7.030	0.101
589.100	-2.546	0.101
589.200	-4.380	0.101
589.300	1.356	0.101
589.400	4.886	0.101
589.500	2.502	0.101
589.600	-1.425	0.101
589.700	3.184	0.101
589.800	-2.454	0.101
589.900	-11.122	0.101
590.000	4.567	0.101
590.100	-3.432	0.101
590.200	-9.052	0.101
590.300	-7.511	0.101
590.400	-0.373	0.101
590.500	-1.842	0.101
590.600	4.650	0.101
590.700	5.300	0.101
590.800	0.032	0.101
590.900	3.235	0.101
591.000	0.132	0.101
591.100	-2.619	0.101
591.200	-3.388	0.101
591.300	-0.371	0.101
591.400	5.851	0.101
591.500	2.887	0.101
591.600	-0.445	0.101
591.700	1.159	0.101
591.800	-2.686	0.101
591.900	-0.311	0.101
592.000	0.787	0.101
592.100	3.161	0.101
592.200	3.031	0.101
592.300	-9.980	0.101
592.400	4.954	0.101
592.500	4.631	0.101
592.600	6.021	0.101
592.700	7.288	0.101
592.800	-6.255	0.101
592.900	-1.888	0.101
593.000	0.406	0.101
593.100	-1.577	0.101
593.200	0.410	0.101
593.300	2.274	0.101
593.400	1.079	0.101
593.500	-3.431	0.101
593.600	-5.921	0.101
593.700	-1.659	0.101
593.800	-1.800	0.101
593.900	-4.271	0.101
594.000	0.032	0.101
594.100	-10.138	0.101
594.200	0.541	0.101
594.300	1.270	0.101
594.400	6.949	0.101
594.500	4.620	0.101
594.600	-6.201	0.101
594.700	8.743	0.101
594.800	-2.543	0.101
594.900	-1.685	0.101
595.000	-5.570	0.101
595.100	-8.737	0.101
595.200	-0.353	0.101
595.300	7.876	0.101
595.400	1.525	0.101
595.500	-2.388	0.101
595.600	-7.201	0.101
595.700	-4.706	0.101
595.800	-5.440	0.101
595.900	-5.541	0.101
596.000	-3.133	0.101
596.100	-14.272	0.101
596.200	6.043	0.101
596.300	-3.369	0.101
596.400	-6.239	0.101
596.500	-7.803	0.101
596.600	3.306	0.101
596.700	-4.004	0.101
596.800	-9.231	0.101
596.900	1.918	0.101
597.000	-3.291	0.101
597.100	0.634	0.101
597.200	-1.788	0.101
597.300	-8.009	0.101
597.400	-0.444	0.101
597.500	0.034	0.101
597.600	2.459	0.101
597.700	2.647	0.101
597.800	0.357	0.101
597.900	1.780	0.101
598.000	5.648	0.101
598.100	1.004	0.101
598.200	0.080	0.101
598.300	4.887	0.101
598.400	-7.591	0.101
598.500	-22.381	0.101
598.600	-2.327	0.101
598.700	-9.281	0.101
598.800	-8.053	0.101
598.900	-2.810	0.101
599.000	-5.584	0.101
599.100	5.212	0.101
599.200	-0.688	0.101
599.300	-13.441	0.101
599.400	-7.170	0.101
599.500	2.409	0.101
599.600	0.673	0.101
599.700	6.435	0.101
599.800	-11.605	0.101
599.900	-0.545	0.101
600.000	-3.305	0.101
600.100	4.256	0.101
600.200	-2.880	0.101
600.300	1.351	0.101
600.400	-2.712	0.101
600.500	-9.626	0.101
600.600	-6.557	0.101
600.700	7.733	0.101
600.800	-2.433	0.101
600.900	-1.762	0.101
601.000	-3.908	0.101
601.100	-3.286	0.101
601.200	-5.432	0.101
601.300	5.407	0.101
601.400	-1.735	0.101
601.500	-7.040	0.101
601.600	-11.180	0.101
601.700	0.376	0.101
601.800	-3.061	0.101
601.900	-1.568	0.101
602.000	9.366	0.101
602.100	4.638	0.101
602.200	-3.269	0.101
602.300	5.366	0.101
602.400	-2.278	0.101
602.500	-1.326	0.101
602.600	7.326	0.101
602.700	-4.454	0.101
602.800	-6.996	0.101
602.900	-2.689	0.101
603.000	-9.731	0.101
603.100	3.597	0.101
603.200	-5.254	0.101
603.300	-6.270	0.101
603.400	5.233	0.101
603.500	2.513	0.101
603.600	-2.202	0.101
603.700	-10.785	0.101
603.800	1.222	0.101
603.900	-4.076	0.101
604.000	2.106	0.101
604.100	-1.195	0.101
604.200	-6.226	0.101
604.300	-3.108	0.101
604.400	-6.591	0.101
604.500	3.087	0.101
604.600	-0.384	0.101
604.700	-0.529	0.101
604.800	-4.034	0.101
604.900	-3.485	0.101
605.000	-6.472	0.101
605.100	-4.070	0.101
605.200	-6.132	0.101
605.300	-13.631	0.101
605.400	-4.094	0.101
605.500	5.518	0.101
605.600	-3.718	0.101
605.700	-7.869	0.101
605.800	6.393	0.101
605.900	-3.388	0.101
606.000	2.586	0.101
606.100	2.176	0.101
606.200	-3.799	0.101
606.300	-3.079	0.101
606.400	3.276	0.101
606.500	-3.875	0.101
606.600	-13.831	0.101
606.700	-3.601	0.101
606.800	-5.694	0.101
606.900	7.258	0.101
607.000	3.078	0.101
607.100	-5.675	0.101
607.200	-0.153	0.101
607.300	-8.916	0.101
607.400	-3.558	0.101
607.500	1.038	0.101
607.600	3.061	0.101
607.700	-12.177	0.101
607.800	-6.489	0.101
607.900	-16.536	0.101
608.000	-4.367	0.101
608.100	-2.351	0.101
608.200	1.576	0.101
608.300	-5.486	0.101
608.400	1.484	0.101
608.500	-4.284	0.101
608.600	3.424	0.101
608.700	-1.734	0.101
608.800	3.335	0.101
608.900	-7.221	0.101
609.000	-0.099	0.101
609.100	-5.342	0.101
609.200	-6.766	0.101
609.300	-4.113	0.101
609.400	-0.942	0.101
609.500	-10.117	0.101
609.600	-1.205	0.101
609.700	-3.517	0.101
609.800	3.874	0.101
609.900	-8.831	0.101
610.000	0.442	0.101
610.100	1.347	0.101
610.200	-6.305	0.101
610.300	-2.477	0.101
610.400	-4.122	0.101
610.500	-0.098	0.101
610.600	-6.130	0.101
610.700	-1.212	0.101
610.800	6.590	0.101
610.900	4.223	0.101
611.000	-2.607	0.101
611.100	-3.336	0.101
611.200	-10.389	0.101
611.300	3.882	0.101
611.400	-7.984	0.101
611.500	-9.014	0.101
611.600	-8.963	0.101
611.700	3.199	0.101
611.800	-1.596	0.101
611.900	-4.637	0.101
612.000	0.031	0.101
612.100	-7.169	0.101
612.200	-0.441	0.101
612.300	1.700	0.101
612.400	-8.928	0.101
612.500	-3.193	0.101
612.600	-0.463	0.101
612.700	2.670	0.101
612.800	5.266	0.101
612.900	2.105	0.101
613.000	-4.019	0.101
613.100	0.414	0.101
613.200	3.862	0.101
613.300	1.216	0.101
613.400	-10.403	0.101
613.500	-5.352	0.101
613.600	0.135	0.101
613.700	-3.384	0.101
613.800	-6.837	0.101
613.900	-8.277	0.101
614.000	5.081	0.101
614.100	-6.727	0.101
614.200	3.408	0.101
614.300	8.981	0.101
614.400	-5.849	0.101
614.500	-5.786	0.101
614.600	-6.951	0.101
614.700	-6.582	0.101
614.800	-4.056	0.101
614.900	0.165	0.101
615.000	-1.367	0.101
615.100	-8.931	0.101
615.200	-9.328	0.101
615.300	-8.474	0.101
615.400	-6.416	0.101
615.500	7.482	0.101
615.600	3.116	0.101
615.700	-5.189	0.101
615.800	1.287	0.101
615.900	-8.294	0.101
616.000	-4.130	0.101
616.100	-0.403	0.101
616.200	-5.410	0.101
616.300	-2.021	0.101
616.400	8.519	0.101
616.500	8.676	0.101
616.600	-3.186	0.101
616.700	-11.627	0.101
616.800	-7.243	0.101
616.900	0.769	0.101
617.000	-2.120	0.101
617.100	-3.613	0.101
617.200	2.204	0.101
617.300	-4.493	0.101
617.400	-13.881	0.101
617.500	-5.178	0.101
617.600	3.622	0.101
617.700	-8.452	0.101
617.800	-5.085	0.101
617.900	1.936	0.101
618.000	-12.461	0.101
618.100	-5.379	0.101
618.200	1.585	0.101
618.300	-0.309	0.101
618.400	3.169	0.101
618.500	0.144	0.101
618.600	-9.491	0.101
618.700	-11.501	0.101
618.800	-5.631	0.101
618.900	-3.872	0.101
619.000	12.359	0.101
619.100	-10.596	0.101
619.200	-4.467	0.101
619.300	-7.355	0.101
619.400	-0.819	0.101
619.500	0.783	0.101
619.600	-2.558	0.101
619.700	2.699	0.101
619.800	-5.163	0.101
619.900	-10.590	0.101
620.000	-6.948	0.101
620.100	6.639	0.101
620.200	-0.427	0.101
620.300	-5.575	0.101
620.400	-0.943	0.101
620.500	4.210	0.101
620.600	-8.520	0.101
620.700	-5.257	0.101
620.800	-3.060	0.101
620.900	-0.991	0.101
621.000	-0.344	0.101
621.100	-3.167	0.101
621.200	-2.394	0.101
621.300	-11.813	0.101
621.400	7.485	0.101
621.500	5.845	0.101
621.600	-2.957	0.101
621.700	-4.559	0.101
621.800	-5.317	0.101
621.900	-9.647	0.101
622.000	-1.110	0.101
622.100	2.798	0.101
622.200	-9.740	0.101
622.300	5.026	0.101
622.400	5.363	0.101
622.500	-9.822	0.101
622.600	5.177	0.101
622.700	0.234	0.101
622.800	-9.461	0.101
622.900	-0.726	0.101
623.000	-2.960	0.101
623.100	-3.936	0.101
623.200	1.228	0.101
623.300	-2.006	0.101
623.400	-3.541	0.101
623.500	4.139	0.101
623.600	-12.190	0.101
623.700	-1.147	0.101
623.800	-3.874	0.101
623.900	-4.573	0.101
624.000	-2.745	0.101
624.100	-0.992	0.101
624.200	3.265	0.101
624.300	2.590	0.101
624.400	-1.867	0.101
624.500	5.493	0.101
624.600	4.388	0.101
624.700	-5.568	0.101
624.800	-2.551	0.101
624.900	-2.307	0.101
625.000	-0.972	0.101
625.100	-4.430	0.101
625.200	-6.787	0.101
625.300	1.634	0.101
625.400	-6.507	0.101
625.500	3.197	0.101
625.600	-6.998	0.101
625.700	-15.792	0.101
625.800	-4.183	0.101
625.900	-0.161	0.101
626.000	-3.059	0.101
626.100	-1.710	0.101
626.200	-2.094	0.101
626.300	4.803	0.101
626.400	-0.121	0.101
626.500	6.538	0.101
626.600	2.881	0.101
626.700	-3.449	0.101
626.800	-10.727	0.101
626.900	-1.776	0.101
627.000	-11.758	0.101
627.100	-1.799	0.101
627.200	-5.040	0.101
627.300	-8.747	0.101
627.400	-0.121	0.101
627.500	3.402	0.101
627.600	0.816	0.101
627.700	-2.428	0.101
627.800	-2.217	0.101
627.900	-0.334	0.101
628.000	-2.140	0.101
628.100	-1.435	0.101
628.200	-6.958	0.101
628.300	2.868	0.101
628.400	2.945	0.101
628.500	-3.222	0.101
628.600	-2.780	0.101
628.700	-2.973	0.101
628.800	-0.960	0.101
628.900	-0.635	0.101
629.000	-0.525	0.101
629.100	-10.987	0.101
629.200	-12.900	0.101
629.300	-1.387	0.101
629.400	3.593	0.101
629.500	-6.329	0.101
629.600	-7.294	0.101
629.700	-9.403	0.101
629.800	9.795	0.101
629.900	6.006	0.101
630.000	-4.036	0.101
630.100	-6.642	0.101
630.200	-5.883	0.101
630.300	-2.361	0.101
630.400	-7.792	0.101
630.500	-4.605	0.101
630.600	-3.977	0.101
630.700	-13.299	0.101
630.800	1.805	0.101
630.900	-1.471	0.101
631.000	2.527	0.101
631.100	0.877	0.101
631.200	1.523	0.101
631.300	8.740	0.101
631.400	-8.779	0.101
631.500	-0.481	0.101
631.600	-2.489	0.101
631.700	-1.518	0.101
631.800	-0.832	0.101
631.900	-7.067	0.101
632.000	-7.540	0.101
632.100	-6.617	0.101
632.200	-8.639	0.101
632.300	-2.092	0.101
632.400	-2.199	0.101
632.500	-3.980	0.101
632.600	3.066	0.101
632.700	-2.213	0.101
632.800	-5.924	0.101
632.900	2.107	0.101
633.000	-0.491	0.101
633.100	-3.104	0.101
633.200	3.906	0.101
633.300	-8.754	0.101
633.400	3.282	0.101
633.500	5.034	0.101
633.600	-4.636	0.101
633.700	-0.169	0.101
633.800	4.667	0.101
633.900	5.124	0.101
634.000	-6.780	0.101
634.100	-7.137	0.101
634.200	2.504	0.101
634.300	2.521	0.101
634.400	7.231	0.101
634.500	-6.468	0.101
634.600	-12.968	0.101
634.700	-6.940	0.101
634.800	-0.623	0.101
634.900	1.660	0.101
635.000	4.951	0.101
635.100	-2.816	0.101
635.200	-4.308	0.101
635.300	-4.793	0.101
635.400	-2.540	0.101
635.500	1.846	0.101
635.600	-0.138	0.101
635.700	5.556	0.101
635.800	0.520	0.101
635.900	-5.873	0.101
636.000	0.521	0.101
636.100	-5.238	0.101
636.200	0.302	0.101
636.300	-6.430	0.101
636.400	-3.379	0.101
636.500	-0.432	0.101
636.600	7.369	0.101
636.700	2.817	0.101
636.800	2.829	0.101
636.900	-1.203	0.101
637.000	0.293	0.101
637.100	0.966	0.101
637.200	-1.117	0.101
637.300	1.292	0.101
637.400	0.745	0.101
637.500	3.885	0.101
637.600	4.097	0.101
637.700	-3.209	0.101
637.800	2.494	0.101
637.900	1.375	0.101
638.000	8.970	0.101
638.100	4.308	0.101
638.200	2.140	0.101
638.300	-4.382	0.101
638.400	-0.927	0.101
638.500	-11.097	0.101
638.600	1.371	0.101
638.700	6.152	0.101
638.800	5.880	0.101
638.900	-7.350	0.101
639.000	2.193	0.101
639.100	0.164	0.101
639.200	1.952	0.101
639.300	6.419	0.101
639.400	-4.615	0.101
639.500	0.077	0.101
639.600	0.534	0.101
639.700	-2.293	0.101
639.800	-2.460	0.101
639.900	2.438	0.101
640.000	5.587	0.101
640.100	-0.298	0.101
640.200	-1.585	0.101
640.300	-9.407	0.101
640.400	-5.160	0.101
640.500	8.688	0.101
640.600	1.216	0.101
640.700	8.805	0.101
640.800	-1.804	0.101
640.900	-0.102	0.101
641.000	-2.237	0.101
641.100	3.993	0.101
641.200	1.135	0.101
641.300	3.728	0.101
641.400	-8.485	0.101
641.500	12.437	0.101
641.600	1.411	0.101
641.700	3.898	0.101
641.800	3.890	0.101
641.900	5.282	0.101
642.000	-3.420	0.101
642.100	0.670	0.101
642.200	-2.339	0.101
642.300	2.756	0.101
642.400	0.278	0.101
642.500	-4.499	0.101
642.600	-2.577	0.101
642.700	-2.066	0.101
642.800	-0.905	0.101
642.900	-12.728	0.101
643.000	1.570	0.101
643.100	-4.144	0.101
643.200	5.992	0.101
643.300	-1.921	0.101
643.400	0.541	0.101
643.500	1.507	0.101
643.600	9.537	0.101
643.700	3.774	0.101
643.800	7.804	0.101
643.900	9.069	0.101
644.000	0.086	0.101
644.100	2.354	0.101
644.200	1.451	0.101
644.300	0.766	0.101
644.400	-8.084	0.101
644.500	-5.505	0.101
644.600	-0.924	0.101
644.700	-5.311	0.101
644.800	5.277	0.101
644.900	4.134	0.101
645.000	-3.451	0.101
645.100	8.913	0.101
645.200	4.004	0.101
645.300	4.075	0.101
645.400	1.787	0.101
645.500	10.503	0.101
645.600	-1.790	0.101
645.700	-0.183	0.101
645.800	-0.803	0.101
645.900	-3.470	0.101
646.000	-3.735	0.101
646.100	9.003	0.101
646.200	1.715	0.101
646.300	-0.166	0.101
646.400	-1.782	0.101
646.500	0.411	0.101
646.600	-5.815	0.101
646.700	11.428	0.101
646.800	0.400	0.101
646.900	-1.822	0.101
647.000	5.013	0.101
647.100	-0.638	0.101
647.200	1.580	0.101
647.300	2.869	0.101
647.400	5.770	0.101
647.500	10.061	0.101
647.600	5.911	0.101
647.700	-4.115	0.101
647.800	-0.283	0.101
647.900	5.508	0.101
648.000	4.388	0.101
648.100	-3.422	0.101
648.200	-2.870	0.101
648.300	-8.488	0.101
648.400	1.861	0.101
648.500	4.988	0.101
648.600	3.954	0.101
648.700	-0.484	0.101
648.800	1.999	0.101
648.900	0.868	0.101
649.000	-1.344	0.101
649.100	7.088	0.101
649.200	6.032	0.101
649.300	-1.506	0.101
649.400	0.291	0.101
649.500	4.228	0.101
649.600	-3.832	0.101
649.700	-0.204	0.101
649.800	-2.280	0.101
649.900	-0.717	0.101
650.000	-2.301	0.101
650.100	8.922	0.101
650.200	-0.383	0.101
650.300	7.675	0.101
650.400	9.229	0.101
650.500	3.619	0.101
650.600	-0.969	0.101
650.700	-4.729	0.101
650.800	-2.136	0.101
650.900	0.631	0.101
651.000	4.297	0.101
651.100	-1.638	0.101
651.200	5.674	0.101
651.300	2.303	0.101
651.400	2.159	0.101
651.500	3.901	0.101
651.600	-0.831	0.101
651.700	-1.521	0.101
651.800	-4.893	0.101
651.900	0.533	0.101
652.000	3.254	0.101
652.100	0.532	0.101
652.200	10.423	0.101
652.300	0.241	0.101
652.400	0.745	0.101
652.500	12.150	0.101
652.600	2.952	0.101
652.700	3.309	0.101
652.800	-3.159	0.101
652.900	5.633	0.101
653.000	-3.790	0.101
653.100	1.532	0.101
653.200	-0.247	0.101
653.300	6.379	0.101
653.400	1.268	0.101
653.500	-1.940	0.101
653.600	0.285	0.101
653.700	6.302	0.101
653.800	7.055	0.101
653.900	5.251	0.101
654.000	6.245	0.101
654.100	-2.520	0.101
654.200	-10.412	0.101
654.300	2.041	0.101
654.400	8.134	0.101
654.500	2.707	0.101
654.600	10.957	0.101
654.700	-0.966	0.101
654.800	-4.435	0.101
654.900	4.080	0.101
655.000	1.706	0.101
655.100	3.466	0.101
655.200	3.574	0.101
655.300	3.730	0.101
655.400	7.092	0.101
655.500	1.460	0.101
655.600	3.318	0.101
655.700	0.684	0.101
655.800	11.348	0.101
655.900	1.971	0.101
656.000	3.395	0.101
656.100	4.635	0.101
656.200	-5.980	0.101
656.300	-2.689	0.101
656.400	8.753	0.101
656.500	5.423	0.101
656.600	3.266	0.101
656.700	6.650	0.101
656.800	-2.108	0.101
656.900	-3.862	0.101
657.000	-2.021	0.101
657.100	-3.193	0.101
657.200	6.908	0.101
657.300	14.470	0.101
657.400	-0.172	0.101
657.500	2.112	0.101
657.600	0.310	0.101
657.700	-2.857	0.101
657.800	2.956	0.101
657.900	8.449	0.101
658.000	-6.069	0.101
658.100	3.903	0.101
658.200	0.354	0.101
658.300	-1.596	0.101
658.400	2.619	0.101
658.500	4.923	0.101
658.600	19.377	0.101
658.700	6.581	0.101
658.800	-3.178	0.101
658.900	4.133	0.101
659.000	7.448	0.101
659.100	-5.098	0.101
659.200	-5.534	0.101
659.300	-6.574	0.101
659.400	6.493	0.101
659.500	2.648	0.101
659.600	3.131	0.101
659.700	7.613	0.101
659.800	-2.905	0.101
659.900	-4.068	0.101
660.000	3.150	0.101
660.100	12.145	0.101
660.200	2.910	0.101
660.300	3.010	0.101
660.400	6.293	0.101
660.500	-0.882	0.101
660.600	-1.346	0.101
660.700	0.439	0.101
660.800	-0.804	0.101
660.900	13.919	0.101
661.000	4.135	0.101
661.100	-5.561	0.101
661.200	0.379	0.101
661.300	6.433	0.101
661.400	0.210	0.101
661.500	-0.709	0.101
661.600	-1.088	0.101
661.700	0.767	0.101
661.800	1.666	0.101
661.900	-4.965	0.101
662.000	3.836	0.101
662.100	7.939	0.101
662.200	-6.822	0.101
662.300	-4.835	0.101
662.400	0.264	0.101
662.500	-1.008	0.101
662.600	-3.460	0.101
662.700	7.896	0.101
662.800	7.050	0.101
662.900	-0.727	0.101
663.000	5.762	0.101
663.100	7.668	0.101
663.200	4.195	0.101
663.300	8.811	0.101
663.400	-4.232	0.101
663.500	-2.275	0.101
663.600	2.606	0.101
663.700	4.091	0.101
663.800	-7.323	0.101
663.900	-4.868	0.101
664.000	10.990	0.101
664.100	-5.441	0.101
664.200	4.924	0.101
664.300	1.974	0.101
664.400	7.236	0.101
664.500	1.496	0.101
664.600	11.374	0.101
664.700	4.965	0.101
664.800	4.460	0.101
664.900	-2.656	0.101
665.000	0.426	0.101
665.100	-4.346	0.101
665.200	12.089	0.101
665.300	1.128	0.101
665.400	0.124	0.101
665.500	6.881	0.101
665.600	-2.452	0.101
665.700	6.580	0.101
665.800	4.559	0.101
665.900	-6.175	0.101
666.000	1.639	0.101
666.100	1.309	0.101
666.200	3.662	0.101
666.300	7.669	0.101
666.400	9.915	0.101
666.500	9.101	0.101
666.600	3.954	0.101
666.700	-3.826	0.101
666.800	7.087	0.101
666.900	-2.480	0.101
667.000	-2.122	0.101
667.100	-5.011	0.101
667.200	-5.096	0.101
667.300	-1.241	0.101
667.400	8.220	0.101
667.500	2.853	0.101
667.600	2.067	0.101
667.700	1.161	0.101
667.800	-0.439	0.101
667.900	-7.320	0.101
668.000	0.492	0.101
668.100	5.137	0.101
668.200	4.823	0.101
668.300	-4.325	0.101
668.400	-0.054	0.101
668.500	4.042	0.101
668.600	4.124	0.101
668.700	1.552	0.101
668.800	-3.505	0.101
668.900	-3.349	0.101
669.000	5.277	0.101
669.100	5.162	0.101
669.200	5.236	0.101
669.300	11.846	0.101
669.400	3.479	0.101
669.500	0.255	0.101
669.600	7.214	0.101
669.700	-0.648	0.101
669.800	3.803	0.101
669.900	2.297	0.101
670.000	-4.555	0.101
670.100	3.336	0.101
670.200	-5.242	0.101
670.300	-0.618	0.101
670.400	13.367	0.101
670.500	-0.204	0.101
670.600	-8.061	0.101
670.700	7.005	0.101
670.800	1.866	0.101
670.900	7.119	0.101
671.000	4.608	0.101
671.100	10.023	0.101
671.200	3.869	0.101
671.300	1.296	0.101
671.400	-2.953	0.101
671.500	-2.545	0.101
671.600	1.517	0.101
671.700	-1.499	0.101
671.800	-0.382	0.101
671.900	10.517	0.101
672.000	4.064	0.101
672.100	0.533	0.101
672.200	-4.361	0.101
672.300	-0.257	0.101
672.400	6.265	0.101
672.500	12.962	0.101
672.600	3.516	0.101
672.700	1.953	0.101
672.800	3.847	0.101
672.900	-0.402	0.101
673.000	6.482	0.101
673.100	7.123	0.101
673.200	5.585	0.101
673.300	-8.220	0.101
673.400	-6.415	0.101
673.500	-1.931	0.101
673.600	-3.457	0.101
673.700	14.810	0.101
673.800	4.127	0.101
673.900	8.367	0.101
674.000	-5.389	0.101
674.100	-4.508	0.101
674.200	3.235	0.101
674.300	4.796	0.101
674.400	-0.779	0.101
674.500	7.402	0.101
674.600	7.232	0.101
674.700	12.062	0.101
674.800	4.361	0.101
674.900	-11.332	0.101
675.000	-0.590	0.101
675.100	1.106	0.101
675.200	-1.237	0.101
675.300	1.393	0.101
675.400	11.595	0.101
675.500	9.271	0.101
675.600	3.736	0.101
675.700	0.801	0.101
675.800	4.707	0.101
675.900	-4.663	0.101
676.000	0.393	0.101
676.100	4.975	0.101
676.200	1.951	0.101
676.300	-6.615	0.101
676.400	5.871	0.101
676.500	13.027	0.101
676.600	7.806	0.101
676.700	3.034	0.101
676.800	8.797	0.101
676.900	7.285	0.101
677.000	3.249	0.101
677.100	1.117	0.101
677.200	0.331	0.101
677.300	7.052	0.101
677.400	5.712	0.101
677.500	-7.747	0.101
677.600	-5.861	0.101
677.700	-4.142	0.101
677.800	3.922	0.101
677.900	3.624	0.101
678.000	1.063	0.101
678.100	2.402	0.101
678.200	3.077	0.101
678.300	8.120	0.101
678.400	9.370	0.101
678.500	7.858	0.101
678.600	-1.028	0.101
678.700	8.677	0.101
678.800	-9.088	0.101
678.900	-3.756	0.101
679.000	-1.486	0.101
679.100	1.497	0.101
679.200	8.347	0.101
679.300	1.966	0.101
679.400	7.738	0.101
679.500	-3.435	0.101
679.600	5.457	0.101
679.700	2.094	0.101
679.800	-0.763	0.101
679.900	4.188	0.101
680.000	9.503	0.101
680.100	-0.198	0.101
680.200	1.168	0.101
680.300	4.764	0.101
680.400	5.612	0.101
680.500	2.910	0.101
680.600	-2.299	0.101
680.700	-7.927	0.101
680.800	2.701	0.101
680.900	3.458	0.101
681.000	1.147	0.101
681.100	9.371	0.101
681.200	8.033	0.101
681.300	6.291	0.101
681.400	3.092	0.101
681.500	6.501	0.101
681.600	0.171	0.101
681.700	1.120	0.101
681.800	-4.160	0.101
681.900	4.033	0.101
682.000	4.187	0.101
682.100	11.319	0.101
682.200	7.694	0.101
682.300	10.831	0.101
682.400	-3.991	0.101
682.500	-5.795	0.101
682.600	5.749	0.101
682.700	11.082	0.101
682.800	2.841	0.101
682.900	3.368	0.101
683.000	0.714	0.101
683.100	8.801	0.101
683.200	-5.928	0.101
683.300	10.188	0.101
683.400	7.945	0.101
683.500	7.124	0.101
683.600	5.067	0.101
683.700	-2.773	0.101
683.800	1.936	0.101
683.900	3.622	0.101
684.000	0.472	0.101
684.100	4.388	0.101
684.200	1.348	0.101
684.300	8.675	0.101
684.400	3.516	0.101
684.500	2.063	0.101
684.600	1.768	0.101
684.700	13.762	0.101
684.800	10.999	0.101
684.900	9.354	0.101
685.000	-1.933	0.101
685.100	2.270	0.101
685.200	-8.186	0.101
685.300	4.540	0.101
685.400	0.449	0.101
685.500	16.109	0.101
685.600	-1.533	0.101
685.700	0.206	0.101
685.800	4.497	0.101
685.900	8.936	0.101
686.000	2.719	0.101
686.100	-0.390	0.101
686.200	4.882	0.101
686.300	5.584	0.101
686.400	-3.628	0.101
686.500	13.945	0.101
686.600	6.873	0.101
686.700	-6.157	0.101
686.800	-5.265	0.101
686.900	-2.443	0.101
687.000	4.506	0.101
687.100	3.057	0.101
687.200	4.148	0.101
687.300	5.489	0.101
687.400	6.183	0.101
687.500	-8.109	0.101
687.600	-0.264	0.101
687.700	13.245	0.101
687.800	5.277	0.101
687.900	4.648	0.101
688.000	4.204	0.101
688.100	12.439	0.101
688.200	6.955	0.101
688.300	-0.132	0.101
688.400	2.608	0.101
688.500	12.516	0.101
688.600	7.874	0.101
688.700	0.299	0.101
688.800	-1.821	0.101
688.900	4.798	0.101
689.000	4.662	0.101
689.100	1.534	0.101
689.200	-5.036	0.101
689.300	8.057	0.101
689.400	1.347	0.101
689.500	-5.881	0.101
689.600	6.992	0.101
689.700	9.353	0.101
689.800	10.518	0.101
689.900	10.681	0.101
690.000	8.263	0.101
690.100	1.813	0.101
690.200	7.690	0.101
690.300	9.290	0.101
690.400	-2.738	0.101
690.500	7.869	0.101
690.600	2.442	0.101
690.700	-5.074	0.101
690.800	5.042	0.101
690.900	-3.340	0.101
691.000	-8.457	0.101
691.100	-1.728	0.101
691.200	-2.606	0.101
691.300	-5.430	0.101
691.400	-0.137	0.101
691.500	7.011	0.101
691.600	-5.076	0.101
691.700	-0.748	0.101
691.800	-0.542	0.101
691.900	3.150	0.101
692.000	5.954	0.101
692.100	-0.247	0.101
692.200	9.875	0.101
692.300	-3.963	0.101
692.400	0.437	0.101
692.500	8.280	0.101
692.600	1.322	0.101
692.700	6.438	0.101
692.800	5.907	0.101
692.900	7.177	0.101
693.000	-2.367	0.101
693.100	-1.828	0.101
693.200	2.336	0.101
693.300	-0.283	0.101
693.400	0.098	0.101
693.500	8.743	0.101
693.600	2.075	0.101
693.700	1.033	0.101
693.800	6.063	0.101
693.900	8.173	0.101
694.000	3.648	0.101
694.100	4.981	0.101
694.200	1.146	0.101
694.300	0.301	0.101
694.400	-0.625	0.101
694.500	2.220	0.101
694.600	-9.758	0.101
694.700	6.942	0.101
694.800	7.334	0.101
694.900	0.278	0.101
695.000	-5.280	0.101
695.100	0.299	0.101
695.200	1.531	0.101
695.300	-0.669	0.101
695.400	-11.398	0.101
695.500	5.496	0.101
695.600	-2.110	0.101
695.700	5.914	0.101
695.800	-1.213	0.101
695.900	-7.430	0.101
696.000	3.499	0.101
696.100	0.519	0.101
696.200	4.802	0.101
696.300	-8.826	0.101
696.400	-1.023	0.101
696.500	3.075	0.101
696.600	4.645	0.101
696.700	-2.776	0.101
696.800	-1.793	0.101
696.900	3.498	0.101
697.000	13.715	0.101
697.100	3.342	0.101
697.200	6.528	0.101
697.300	-5.670	0.101
697.400	1.529	0.101
697.500	3.324	0.101
697.600	7.018	0.101
697.700	14.506	0.101
697.800	3.241	0.101
697.900	1.389	0.101
698.000	-7.187	0.101
698.100	-1.015	0.101
698.200	3.181	0.101
698.300	5.149	0.101
698.400	12.922	0.101
698.500	-2.891	0.101
698.600	-5.749	0.101
698.700	-1.452	0.101
698.800	0.678	0.101
698.900	5.393	0.101
699.000	1.262	0.101
699.100	5.431	0.101
699.200	3.967	0.101
699.300	-6.378	0.101
699.400	-1.798	0.101
699.500	-5.710	0.101
699.600	-3.080	0.101
699.700	-0.625	0.101
699.800	6.738	0.101
699.900	2.106	0.101
700.000	-6.828	0.101
700.100	5.262	0.101
700.200	-0.487	0.101
700.300	7.643	0.101
700.400	4.668	0.101
700.500	-5.209	0.101
700.600	2.438	0.101
700.700	-0.546	0.101
700.800	-2.822	0.101
700.900	2.704	0.101
701.000	13.535	0.101
701.100	-5.491	0.101
701.200	-3.916	0.101
701.300	-1.888	0.101
701.400	-5.776	0.101
701.500	-5.276	0.101
701.600	4.300	0.101
701.700	4.165	0.101
701.800	0.001	0.101
701.900	-1.441	0.101
702.000	9.277	0.101
702.100	3.801	0.101
702.200	-0.777	0.101
702.300	-0.795	0.101
702.400	-1.303	0.101
702.500	-1.340	0.101
702.600	-4.686	0.101
702.700	4.926	0.101
702.800	-0.496	0.101
702.900	4.925	0.101
703.000	-3.293	0.101
703.100	-2.948	0.101
703.200	3.935	0.101
703.300	-7.266	0.101
703.400	-1.591	0.101
703.500	-0.204	0.101
703.600	2.790	0.101
703.700	3.953	0.101
703.800	8.057	0.101
703.900	-1.043	0.101
704.000	-0.051	0.101
704.100	-3.466	0.101
704.200	-7.830	0.101
704.300	-2.254	0.101
704.400	2.282	0.101
704.500	0.501	0.101
704.600	3.685	0.101
704.700	-4.717	0.101
704.800	0.546	0.101
704.900	5.979	0.101
705.000	2.529	0.101
705.100	5.581	0.101
705.200	-1.680	0.101
705.300	-4.534	0.101
705.400	-0.085	0.101
705.500	-1.461	0.101
705.600	-8.389	0.101
705.700	-7.567	0.101
705.800	1.064	0.101
705.900	-0.082	0.101
706.000	0.556	0.101
706.100	-1.663	0.101
706.200	8.850	0.101
706.300	2.212	0.101
706.400	-3.540	0.101
706.500	0.975	0.101
706.600	1.306	0.101
706.700	6.129	0.101
706.800	-1.538	0.101
706.900	-3.000	0.101
707.000	0.001	0.101
707.100	2.416	0.101
707.200	1.933	0.101
707.300	5.253	0.101
707.400	1.343	0.101
707.500	-1.360	0.101
707.600	1.284	0.101
707.700	-1.890	0.101
707.800	-0.931	0.101
707.900	10.112	0.101
708.000	-3.529	0.101
708.100	-4.882	0.101
708.200	-0.537	0.101
708.300	-2.800	0.101
708.400	1.853	0.101
708.500	-1.363	0.101
708.600	-0.570	0.101
708.700	-4.381	0.101
708.800	6.467	0.101
708.900	6.115	0.101
709.000	6.525	0.101
709.100	1.161	0.101
709.200	-1.493	0.101
709.300	-2.884	0.101
709.400	0.714	0.101
709.500	-8.299	0.101
709.600	-2.837	0.101
709.700	-3.810	0.101
709.800	-1.270	0.101
709.900	1.017	0.101
710.000	-0.900	0.101
710.100	5.091	0.101
710.200	10.091	0.101
710.300	0.916	0.101
710.400	-0.064	0.101
710.500	3.133	0.101
710.600	2.187	0.101
710.700	2.576	0.101
710.800	-4.443	0.101
710.900	0.779	0.101
711.000	-0.632	0.101
711.100	-4.623	0.101
711.200	-0.872	0.101
711.300	3.067	0.101
711.400	-6.182	0.101
711.500	5.775	0.101
711.600	-8.007	0.101
711.700	-3.957	0.101
711.800	-4.429	0.101
711.900	1.043	0.101
712.000	2.266	0.101
712.100	2.554	0.101
712.200	-2.849	0.101
712.300	-0.222	0.101
712.400	2.613	0.101
712.500	-2.250	0.101
712.600	2.896	0.101
712.700	3.093	0.101
712.800	0.054	0.101
712.900	0.352	0.101
713.000	-4.189	0.101
713.100	-2.920	0.101
713.200	-8.044	0.101
713.300	-3.110	0.101
713.400	0.248	0.101
713.500	6.273	0.101
713.600	0.349	0.101
713.700	-4.324	0.101
713.800	-2.986	0.101
713.900	-0.169	0.101
714.000	4.057	0.101
714.100	0.199	0.101
714.200	-0.259	0.101
714.300	10.027	0.101
714.400	-5.045	0.101
714.500	1.327	0.101
714.600	1.170	0.101
714.700	2.767	0.101
714.800	-3.347	0.101
714.900	-2.657	0.101
715.000	-9.214	0.101
715.100	-10.974	0.101
715.200	8.066	0.101
715.300	-0.936	0.101
715.400	0.915	0.101
715.500	-0.007	0.101
715.600	3.024	0.101
715.700	3.262	0.101
715.800	4.765	0.101
715.900	-0.591	0.101
716.000	-3.110	0.101
716.100	4.738	0.101
716.200	5.225	0.101
716.300	2.782	0.101
716.400	-1.679	0.101
716.500	-1.577	0.101
716.600	0.037	0.101
716.700	0.275	0.101
716.800	-5.389	0.101
716.900	-5.825	0.101
717.000	-3.322	0.101
717.100	-7.149	0.101
717.200	-0.765	0.101
717.300	-4.034	0.101
717.400	3.138	0.101
717.500	0.026	0.101
717.600	7.308	0.101
717.700	5.966	0.101
717.800	0.786	0.101
717.900	5.341	0.101
718.000	-2.557	0.101
718.100	-2.307	0.101
718.200	-7.728	0.101
718.300	4.019	0.101
718.400	2.041	0.101
718.500	-5.648	0.101
718.600	-2.390	0.101
718.700	-7.190	0.101
718.800	0.629	0.101
718.900	-4.883	0.101
719.000	-4.870	0.101
719.100	-1.729	0.101
719.200	-6.049	0.101
719.300	4.079	0.101
719.400	7.719	0.101
719.500	-8.233	0.101
719.600	-2.666	0.101
719.700	-6.639	0.101
719.800	-9.225	0.101
719.900	8.935	0.101
720.000	5.999	0.101
720.100	-14.389	0.101
720.200	1.370	0.101
720.300	6.551	0.101
720.400	1.016	0.101
720.500	2.358	0.101
720.600	-12.314	0.101
720.700	1.493	0.101
720.800	-2.500	0.101
720.900	-7.830	0.101
721.000	1.479	0.101
721.100	-0.390	0.101
721.200	2.587	0.101
721.300	12.501	0.101
721.400	11.093	0.101
721.500	1.075	0.101
721.600	-4.783	0.101
721.700	-13.775	0.101
721.800	-1.466	0.101
721.900	-0.754	0.101
722.000	2.770	0.101
722.100	-2.275	0.101
722.200	-6.715	0.101
722.300	-13.434	0.101
722.400	-10.717	0.101
722.500	-3.212	0.101
722.600	-4.052	0.101
722.700	-2.208	0.101
722.800	0.517	0.101
722.900	-1.524	0.101
723.000	-2.949	0.101
723.100	2.035	0.101
723.200	-0.290	0.101
723.300	-1.271	0.101
723.400	-0.566	0.101
723.500	7.858	0.101
723.600	-4.613	0.101
723.700	-7.147	0.101
723.800	6.076	0.101
723.900	-3.625	0.101
724.000	-7.944	0.101
724.100	-1.018	0.101
724.200	-2.081	0.101
724.300	-9.587	0.101
724.400	-1.007	0.101
724.500	-3.806	0.101
724.600	4.868	0.101
724.700	-1.541	0.101
724.800	4.438	0.101
724.900	7.995	0.101
725.000	-0.391	0.101
725.100	-5.350	0.101
725.200	0.280	0.101
725.300	4.935	0.101
725.400	-9.694	0.101
725.500	-4.608	0.101
725.600	-1.015	0.101
725.700	-0.821	0.101
725.800	5.593	0.101
725.900	-6.508	0.101
726.000	3.218	0.101
726.100	-4.251	0.101
726.200	1.604	0.101
726.300	0.527	0.101
726.400	4.366	0.101
726.500	2.070	0.101
726.600	7.708	0.101
726.700	0.668	0.101
726.800	-11.113	0.101
726.900	5.530	0.101
727.000	-2.362	0.101
727.100	-6.751	0.101
727.200	-3.812	0.101
727.300	0.136	0.101
727.400	-10.367	0.101
727.500	3.004	0.101
727.600	-2.668	0.101
727.700	9.868	0.101
727.800	-8.763	0.101
727.900	1.677	0.101
728.000	-8.307	0.101
728.100	-6.012	0.101
728.200	-5.830	0.101
728.300	-4.735	0.101
728.400	2.472	0.101
728.500	-4.858	0.101
728.600	5.761	0.101
728.700	-3.271	0.101
728.800	-4.551	0.101
728.900	3.039	0.101
729.000	4.789	0.101
729.100	9.090	0.101
729.200	-0.162	0.101
729.300	-9.105	0.101
729.400	-1.785	0.101
729.500	3.292	0.101
729.600	-1.557	0.101
729.700	-0.365	0.101
729.800	9.794	0.101
729.900	-2.520	0.101
730.000	-2.617	0.101
730.100	8.652	0.101
730.200	5.470	0.101
730.300	-2.022	0.101
730.400	-5.451	0.101
730.500	-5.598	0.101
730.600	-3.703	0.101
730.700	5.461	0.101
730.800	-4.597	0.101
730.900	-4.498	0.101
731.000	-0.987	0.101
731.100	-2.274	0.101
731.200	-0.444	0.101
731.300	-4.153	0.101
731.400	3.458	0.101
731.500	-5.064	0.101
731.600	-8.574	0.101
731.700	6.870	0.101
731.800	-2.828	0.101
731.900	6.484	0.101
732.000	-1.883	0.101
732.100	-6.132	0.101
732.200	-14.665	0.101
732.300	1.542	0.101
732.400	-3.393	0.101
732.500	1.329	0.101
732.600	5.069	0.101
732.700	-1.607	0.101
732.800	-0.901	0.101
732.900	4.228	0.101
733.000	-4.255	0.101
733.100	-6.481	0.101
733.200	-4.895	0.101
733.300	-1.391	0.101
733.400	5.278	0.101
733.500	-5.025	0.101
733.600	-6.280	0.101
733.700	3.248	0.101
733.800	-2.001	0.101
733.900	-5.538	0.101
734.000	-0.614	0.101
734.100	-1.222	0.101
734.200	-2.549	0.101
734.300	-3.762	0.101
734.400	-9.596	0.101
734.500	-10.065	0.101
734.600	-2.132	0.101
734.700	-2.546	0.101
734.800	0.459	0.101
734.900	-10.299	0.101
735.000	-2.270	0.101
735.100	3.324	0.101
735.200	3.253	0.101
735.300	-3.094	0.101
735.400	12.632	0.101
735.500	1.746	0.101
735.600	1.328	0.101
735.700	0.719	0.101
735.800	2.084	0.101
735.900	-6.870	0.101
736.000	-2.361	0.101
736.100	1.218	0.101
736.200	-1.571	0.101
736.300	2.393	0.101
736.400	-8.366	0.101
736.500	-1.100	0.101
736.600	-5.270	0.101
736.700	-2.461	0.101
736.800	6.980	0.101
736.900	-5.623	0.101
737.000	-4.557	0.101
737.100	-3.687	0.101
737.200	8.384	0.101
737.300	0.981	0.101
737.400	-5.162	0.101
737.500	-7.721	0.101
737.600	-2.447	0.101
737.700	-1.245	0.101
737.800	2.371	0.101
737.900	0.258	0.101
738.000	-6.608	0.101
738.100	1.794	0.101
738.200	-1.327	0.101
738.300	-0.028	0.101
738.400	-0.910	0.101
738.500	4.987	0.101
738.600	-0.522	0.101
738.700	-7.570	0.101
738.800	-4.174	0.101
738.900	-3.459	0.101
739.000	5.309	0.101
739.100	-6.470	0.101
739.200	-10.079	0.101
739.300	7.103	0.101
739.400	4.931	0.101
739.500	4.822	0.101
739.600	7.518	0.101
739.700	-1.989	0.101
739.800	-2.106	0.101
739.900	-6.545	0.101
740.000	-0.344	0.101
740.100	-4.450	0.101
740.200	0.083	0.101
740.300	2.403	0.101
740.400	-4.366	0.101
740.500	4.440	0.101
740.600	-1.585	0.101
740.700	-4.981	0.101
740.800	-2.168	0.101
740.900	-6.778	0.101
741.000	-2.374	0.101
741.100	-6.154	0.101
741.200	-3.081	0.101
741.300	-6.110	0.101
741.400	-11.511	0.101
741.500	-2.427	0.101
741.600	6.813	0.101
741.700	2.912	0.101
741.800	6.327	0.101
741.900	0.832	0.101
742.000	-0.282	0.101
742.100	-10.071	0.101
742.200	-8.391	0.101
742.300	2.792	0.101
742.400	-7.231	0.101
742.500	6.495	0.101
742.600	3.649	0.101
742.700	-6.870	0.101
742.800	-11.379	0.101
742.900	-4.253	0.101
743.000	1.717	0.101
743.100	1.580	0.101
743.200	5.995	0.101
743.300	-3.920	0.101
743.400	-2.694	0.101
743.500	-6.168	0.101
743.600	0.791	0.101
743.700	1.244	0.101
743.800	-4.941	0.101
743.900	5.812	0.101
744.000	0.686	0.101
744.100	1.037	0.101
744.200	1.171	0.101
744.300	-6.539	0.101
744.400	-3.193	0.101
744.500	-0.929	0.101
744.600	-6.553	0.101
744.700	-0.876	0.101
744.800	-6.140	0.101
744.900	1.175	0.101
745.000	9.669	0.101
745.100	-6.472	0.101
745.200	-2.806	0.101
745.300	-8.191	0.101
745.400	-4.421	0.101
745.500	-4.102	0.101
745.600	-0.216	0.101
745.700	-3.492	0.101
745.800	0.844	0.101
745.900	8.176	0.101
746.000	-1.947	0.101
746.100	4.933	0.101
746.200	-9.015	0.101
746.300	2.736	0.101
746.400	-5.195	0.101
746.500	-10.095	0.101
746.600	-7.511	0.101
746.700	2.672	0.101
746.800	-6.593	0.101
746.900	-1.544	0.101
747.000	-5.502	0.101
747.100	-4.896	0.101
747.200	3.199	0.101
747.300	3.659	0.101
747.400	3.200	0.101
747.500	-0.454	0.101
747.600	-9.194	0.101
747.700	-0.005	0.101
747.800	2.351	0.101
747.900	-1.299	0.101
748.000	-2.328	0.101
748.100	-4.565	0.101
748.200	-12.289	0.101
748.300	-6.719	0.101
748.400	-10.153	0.101
748.500	1.009	0.101
748.600	-10.450	0.101
748.700	-0.739	0.101
748.800	1.289	0.101
748.900	-6.637	0.101
749.000	0.701	0.101
749.100	1.488	0.101
749.200	-1.384	0.101
749.300	-5.797	0.101
749.400	-1.159	0.101
749.500	-0.230	0.101
749.600	-1.346	0.101
749.700	4.684	0.101
749.800	-1.995	0.101
749.900	-11.724	0.101
750.000	-3.503	0.101
750.100	5.503	0.101
750.200	0.413	0.101
750.300	-4.180	0.101
750.400	-12.502	0.101
750.500	-4.606	0.101
750.600	2.438	0.101
750.700	-2.874	0.101
750.800	-6.036	0.101
750.900	-3.053	0.101
751.000	-6.160	0.101
751.100	-3.112	0.101
751.200	-1.931	0.101
751.300	-1.455	0.101
751.400	3.966	0.101
751.500	-2.418	0.101
751.600	-6.030	0.101
751.700	-5.555	0.101
751.800	4.856	0.101
751.900	1.850	0.101
752.000	-0.999	0.101
752.100	-1.835	0.101
752.200	-3.492	0.101
752.300	-13.853	0.101
752.400	0.347	0.101
752.500	-8.551	0.101
752.600	5.789	0.101
752.700	-2.254	0.101
752.800	-0.981	0.101
752.900	3.348	0.101
753.000	-0.027	0.101
753.100	-3.268	0.101
753.200	-2.951	0.101
753.300	-0.512	0.101
753.400	-0.367	0.101
753.500	-4.923	0.101
753.600	-7.264	0.101
753.700	4.732	0.101
753.800	-2.393	0.101
753.900	-1.381	0.101
754.000	-1.538	0.101
754.100	-3.838	0.101
754.200	-4.235	0.101
754.300	4.745	0.101
754.400	-15.649	0.101
754.500	-5.969	0.101
754.600	5.726	0.101
754.700	-0.855	0.101
754.800	-3.124	0.101
754.900	7.220	0.101
755.000	1.160	0.101
755.100	-0.261	0.101
755.200	2.020	0.101
755.300	-6.960	0.101
755.400	2.600	0.101
755.500	1.176	0.101
755.600	2.470	0.101
755.700	-5.219	0.101
755.800	-2.845	0.101
755.900	-12.964	0.101
756.000	-2.373	0.101
756.100	-1.292	0.101
756.200	-6.631	0.101
756.300	-8.209	0.101
756.400	-3.201	0.101
756.500	-2.512	0.101
756.600	2.529	0.101
756.700	3.956	0.101
756.800	7.515	0.101
756.900	4.627	0.101
757.000	-3.965	0.101
757.100	-6.357	0.101
757.200	-2.177	0.101
757.300	-0.682	0.101
757.400	1.264	0.101
757.500	-4.490	0.101
757.600	2.461	0.101
757.700	2.232	0.101
757.800	-8.758	0.101
757.900	-2.157	0.101
758.000	-4.809	0.101
758.100	-4.599	0.101
758.200	-8.477	0.101
758.300	-0.897	0.101
758.400	-8.419	0.101
758.500	-1.426	0.101
758.600	-0.908	0.101
758.700	4.449	0.101
758.800	-7.819	0.101
758.900	-3.169	0.101
759.000	-12.019	0.101
759.100	-7.674	0.101
759.200	-6.132	0.101
759.300	-1.165	0.101
759.400	-0.794	0.101
759.500	-1.407	0.101
759.600	-3.931	0.101
759.700	-11.499	0.101
759.800	4.859	0.101
759.900	4.608	0.101
760.000	4.147	0.101
760.100	-9.028	0.101
760.200	-7.965	0.101
760.300	1.664	0.101
760.400	1.646	0.101
760.500	-3.443	0.101
760.600	-4.965	0.101
760.700	6.347	0.101
760.800	-9.138	0.101
760.900	-4.918	0.101
761.000	1.384	0.101
761.100	-4.794	0.101
761.200	-2.627	0.101
761.300	-6.007	0.101
761.400	-3.564	0.101
761.500	-8.093	0.101
761.600	5.866	0.101
761.700	-6.375	0.101
761.800	1.018	0.101
761.900	-7.873	0.101
762.000	-3.190	0.101
762.100	-3.618	0.101
762.200	-9.837	0.101
762.300	0.396	0.101
762.400	7.067	0.101
762.500	1.180	0.101
762.600	-4.393	0.101
762.700	-3.664	0.101
762.800	3.313	0.101
762.900	-7.519	0.101
763.000	-0.823	0.101
763.100	3.056	0.101
763.200	-3.433	0.101
763.300	-7.949	0.101
763.400	-2.964	0.101
763.500	-2.787	0.101
763.600	-4.057	0.101
763.700	1.861	0.101
763.800	2.862	0.101
763.900	-9.645	0.101
764.000	-6.033	0.101
764.100	0.194	0.101
764.200	-14.859	0.101
764.300	-5.353	0.101
764.400	-3.969	0.101
764.500	3.777	0.101
764.600	-0.958	0.101
764.700	-0.356	0.101
764.800	-7.540	0.101
764.900	-1.405	0.101
765.000	-3.454	0.101
765.100	2.663	0.101
765.200	1.742	0.101
765.300	-5.717	0.101
765.400	2.716	0.101
765.500	3.586	0.101
765.600	0.207	0.101
765.700	-0.098	0.101
765.800	2.729	0.101
765.900	-7.202	0.101
766.000	-0.695	0.101
766.100	-0.345	0.101
766.200	-10.109	0.101
766.300	-2.385	0.101
766.400	2.054	0.101
766.500	-7.428	0.101
766.600	-3.215	0.101
766.700	-3.977	0.101
766.800	-2.483	0.101
766.900	-3.068	0.101
767.000	-0.731	0.101
767.100	-9.657	0.101
767.200	-7.964	0.101
767.300	2.321	0.101
767.400	-3.532	0.101
767.500	0.082	0.101
767.600	-3.046	0.101
767.700	-7.070	0.101
767.800	0.659	0.101
767.900	-11.727	0.101
768.000	0.914	0.101
768.100	0.677	0.101
768.200	-0.117	0.101
768.300	-3.755	0.101
768.400	3.174	0.101
768.500	2.575	0.101
768.600	-3.307	0.101
768.700	-8.578	0.101
768.800	-2.194	0.101
768.900	5.538	0.101
769.000	-12.499	0.101
769.100	-8.707	0.101
769.200	-9.933	0.101
769.300	6.972	0.101
769.400	7.295	0.101
769.500	1.045	0.101
769.600	-2.926	0.101
769.700	-0.690	0.101
769.800	-9.035	0.101
769.900	-8.995	0.101
770.000	-5.853	0.101
770.100	-8.190	0.101
770.200	-4.525	0.101
770.300	-9.680	0.101
770.400	-10.024	0.101
770.500	-0.648	0.101
770.600	-6.608	0.101
770.700	4.808	0.101
770.800	2.790	0.101
770.900	-2.883	0.101
771.000	-4.886	0.101
771.100	-6.941	0.101
771.200	-1.957	0.101
771.300	-2.930	0.101
771.400	4.563	0.101
771.500	-0.560	0.101
771.600	-3.403	0.101
771.700	-5.982	0.101
771.800	8.787	0.101
771.900	0.028	0.101
772.000	-4.735	0.101
772.100	1.498	0.101
772.200	-4.885	0.101
772.300	-7.009	0.101
772.400	-2.495	0.101
772.500	3.900	0.101
772.600	-1.349	0.101
772.700	-1.149	0.101
772.800	2.849	0.101
772.900	-1.710	0.101
773.000	-11.465	0.101
773.100	-1.404	0.101
773.200	-10.232	0.101
773.300	-6.107	0.101
773.400	-6.296	0.101
773.500	13.272	0.101
773.600	3.731	0.101
773.700	5.413	0.101
773.800	-2.052	0.101
773.900	-0.988	0.101
774.000	-1.377	0.101
774.100	-5.268	0.101
774.200	3.050	0.101
774.300	-1.920	0.101
774.400	-6.240	0.101
774.500	-8.241	0.101
774.600	0.644	0.101
774.700	-3.101	0.101
774.800	-5.580	0.101
774.900	-8.907	0.101
775.000	5.601	0.101
775.100	-1.559	0.101
775.200	-6.726	0.101
775.300	-8.370	0.101
775.400	-5.113	0.101
775.500	-0.170	0.101
775.600	-7.412	0.101
775.700	-8.624	0.101
775.800	-12.079	0.101
775.900	-3.636	0.101
776.000	-3.098	0.101
776.100	-12.906	0.101
776.200	-2.570	0.101
776.300	1.180	0.101
776.400	2.331	0.101
776.500	-3.977	0.101
776.600	-5.104	0.101
776.700	-3.719	0.101
776.800	-3.207	0.101
776.900	0.674	0.101
777.000	-5.469	0.101
777.100	-2.106	0.101
777.200	-4.231	0.101
777.300	-0.601	0.101
777.400	-0.490	0.101
777.500	6.611	0.101
777.600	-2.561	0.101
777.700	-0.677	0.101
777.800	0.102	0.101
777.900	-5.282	0.101
778.000	-2.246	0.101
778.100	-2.297	0.101
778.200	6.103	0.101
778.300	-0.443	0.101
778.400	0.633	0.101
778.500	-2.746	0.101
778.600	3.756	0.101
778.700	-6.545	0.101
778.800	-8.599	0.101
778.900	-9.298	0.101
779.000	-0.804	0.101
779.100	-5.926	0.101
779.200	-8.691	0.101
779.300	-8.924	0.101
779.400	-1.346	0.101
779.500	-11.651	0.101
779.600	-1.134	0.101
779.700	-8.600	0.101
779.800	-4.793	0.101
779.900	-6.931	0.101
780.000	-1.446	0.101
780.100	-6.489	0.101
780.200	-6.933	0.101
780.300	-3.889	0.101
780.400	4.204	0.101
780.500	-4.624	0.101
780.600	-0.701	0.101
780.700	-5.048	0.101
780.800	2.254	0.101
780.900	-3.499	0.101
781.000	-6.259	0.101
781.100	5.136	0.101
781.200	7.919	0.101
781.300	-3.282	0.101
781.400	-6.020	0.101
781.500	-5.737	0.101
781.600	-10.046	0.101
781.700	8.278	0.101
781.800	-2.279	0.101
781.900	3.714	0.101
782.000	2.333	0.101
782.100	-4.403	0.101
782.200	-2.178	0.101
782.300	-7.234	0.101
782.400	-0.179	0.101
782.500	-11.165	0.101
782.600	-1.671	0.101
782.700	-2.041	0.101
782.800	9.544	0.101
782.900	-3.191	0.101
783.000	-3.370	0.101
783.100	2.405	0.101
783.200	4.865	0.101
783.300	8.420	0.101
783.400	-1.113	0.101
783.500	5.000	0.101
783.600	-7.986	0.101
783.700	-1.558	0.101
783.800	2.164	0.101
783.900	-2.413	0.101
784.000	13.090	0.101
784.100	0.864	0.101
784.200	-6.927	0.101
784.300	2.726	0.101
784.400	5.883	0.101
784.500	-5.332	0.101
784.600	1.363	0.101
784.700	-0.359	0.101
784.800	-7.439	0.101
784.900	-2.803	0.101
785.000	-10.910	0.101
785.100	-6.748	0.101
785.200	2.599	0.101
785.300	2.942	0.101
785.400	0.057	0.101
785.500	8.628	0.101
785.600	2.801	0.101
785.700	0.457	0.101
785.800	1.454	0.101
785.900	-0.226	0.101
786.000	-5.071	0.101
786.100	8.176	0.101
786.200	-5.734	0.101
786.300	2.360	0.101
786.400	1.320	0.101
786.500	3.935	0.101
786.600	1.874	0.101
786.700	-7.250	0.101
786.800	-0.789	0.101
786.900	4.815	0.101
787.000	-10.941	0.101
787.100	-0.449	0.101
787.200	7.067	0.101
787.300	17.770	0.101
787.400	-8.363	0.101
787.500	2.102	0.101
787.600	-5.368	0.101
787.700	0.758	0.101
787.800	0.817	0.101
787.900	7.457	0.101
788.000	-1.621	0.101
788.100	-15.467	0.101
788.200	9.399	0.101
788.300	11.068	0.101
788.400	-3.429	0.101
788.500	2.371	0.101
788.600	-2.281	0.101
788.700	-3.226	0.101
788.800	6.486	0.101
788.900	1.480	0.101
789.000	-5.244	0.101
789.100	-0.642	0.101
789.200	3.653	0.101
789.300	8.212	0.101
789.400	1.619	0.101
789.500	1.400	0.101
789.600	2.903	0.101
789.700	10.309	0.101
789.800	1.617	0.101
789.900	-11.612	0.101
790.000	0.330	0.101
790.100	2.402	0.101
790.200	6.542	0.101
790.300	0.403	0.101
790.400	-2.696	0.101
790.500	12.116	0.101
790.600	-2.645	0.101
790.700	-8.781	0.101
790.800	2.536	0.101
790.900	-2.047	0.101
791.000	-1.047	0.101
791.100	1.153	0.101
791.200	0.835	0.101
791.300	-11.510	0.101
791.400	-2.331	0.101
791.500	0.385	0.101
791.600	6.760	0.101
791.700	0.284	0.101
791.800	1.456	0.101
791.900	-0.385	0.101
792.000	-1.906	0.101
792.100	6.769	0.101
792.200	-7.415	0.101
792.300	4.264	0.101
792.400	0.381	0.101
792.500	-12.283	0.101
792.600	3.779	0.101
792.700	0.393	0.101
792.800	8.405	0.101
792.900	9.014	0.101
793.000	5.852	0.101
793.100	-0.204	0.101
793.200	0.063	0.101
793.300	9.098	0.101
793.400	-5.049	0.101
793.500	7.422	0.101
793.600	-5.653	0.101
793.700	-0.059	0.101
793.800	10.120	0.101
793.900	-1.959	0.101
794.000	-1.614	0.101
794.100	-0.830	0.101
794.200	2.146	0.101
794.300	1.067	0.101
794.400	6.958	0.101
794.500	5.004	0.101
794.600	-1.603	0.101
794.700	1.743	0.101
794.800	5.314	0.101
794.900	7.566	0.101
795.000	-3.854	0.101
795.100	-3.849	0.101
795.200	5.724	0.101
795.300	-5.652	0.101
795.400	-6.398	0.101
795.500	-1.252	0.101
795.600	1.275	0.101
795.700	6.715	0.101
795.800	-1.231	0.101
795.900	4.079	0.101
796.000	-3.158	0.101
796.100	0.028	0.101
796.200	4.391	0.101
796.300	8.367	0.101
796.400	-2.857	0.101
796.500	0.978	0.101
796.600	1.695	0.101
796.700	-5.296	0.101
796.800	0.460	0.101
796.900	8.846	0.101
797.000	7.271	0.101
797.100	3.306	0.101
797.200	-1.545	0.101
797.300	-12.064	0.101
797.400	-1.252	0.101
797.500	13.302	0.101
797.600	-5.263	0.101
797.700	0.329	0.101
797.800	4.971	0.101
797.900	-8.910	0.101
798.000	-9.643	0.101
798.100	3.656	0.101
798.200	3.937	0.101
798.300	2.180	0.101
798.400	1.406	0.101
798.500	6.233	0.101
798.600	2.271	0.101
798.700	-1.395	0.101
798.800	-6.773	0.101
798.900	0.043	0.101
799.000	3.639	0.101
799.100	5.095	0.101
799.200	-0.650	0.101
799.300	-2.867	0.101
799.400	2.982	0.101
799.500	7.390	0.101
799.600	4.695	0.101
799.700	8.082	0.101
799.800	7.122	0.101
799.900	-5.986	0.101
800.000	4.436	0.101
