time /s	I /nA	E /V
0.100	-14.631	0.100
0.200	-7.653	0.100
0.300	-17.364	0.100
0.400	-24.146	0.100
0.500	-8.952	0.100
0.600	7.592	0.100
0.700	-4.657	0.100
0.800	3.444	0.100
0.900	-21.911	0.100
1.000	-7.309	0.100
1.100	-15.514	0.100
1.200	-10.510	0.100
1.300	-13.986	0.100
1.400	-3.491	0.100
1.500	-17.748	0.100
1.600	-9.324	0.100
1.700	-15.525	0.100
1.800	-25.160	0.100
1.900	-20.499	0.100
2.000	-16.335	0.100
2.100	1.579	0.100
2.200	-16.280	0.100
2.300	-2.161	0.100
2.400	-3.655	0.100
2.500	-16.828	0.100
2.600	-3.411	0.100
2.700	-18.108	0.100
2.800	-13.804	0.100
2.900	-9.550	0.100
3.000	-8.311	0.100
3.100	2.946	0.100
3.200	-0.267	0.100
3.300	-20.381	0.100
3.400	-10.312	0.100
3.500	-3.118	0.100
3.600	12.556	0.100
3.700	-5.034	0.100
3.800	-5.067	0.100
3.900	-8.298	0.100
4.000	-17.601	0.100
4.100	-9.830	0.100
4.200	-4.132	0.100
4.300	0.184	0.100
4.400	-9.901	0.100
4.500	-17.244	0.100
4.600	-18.875	0.100
4.700	-5.263	0.100
4.800	-2.621	0.100
4.900	-12.049	0.100
5.000	-20.722	0.100
5.100	-14.808	0.100
5.200	-9.514	0.100
5.300	0.589	0.100
5.400	-11.333	0.100
5.500	-13.308	0.100
5.600	2.228	0.100
5.700	-12.483	0.100
5.800	-22.328	0.100
5.900	-18.226	0.100
6.000	-26.037	0.100
6.100	-5.896	0.100
6.200	-11.444	0.100
6.300	-2.189	0.100
6.400	-5.414	0.100
6.500	-13.183	0.100
6.600	-0.765	0.100
6.700	-20.751	0.100
6.800	-17.620	0.100
6.900	-19.653	0.100
7.000	-6.479	0.100
7.100	-6.163	0.100
7.200	-16.139	0.100
7.300	-11.491	0.100
7.400	-1.127	0.100
7.500	-7.186	0.100
7.600	-18.600	0.100
7.700	2.321	0.100
7.800	-6.600	0.100
7.900	-4.749	0.100
8.000	-0.567	0.100
8.100	-5.624	0.100
8.200	-22.740	0.100
8.300	-13.359	0.100
8.400	-3.929	0.100
8.500	-17.257	0.100
8.600	-6.630	0.100
8.700	-6.292	0.100
8.800	-12.531	0.100
8.900	-6.332	0.100
9.000	-24.485	0.100
9.100	-13.208	0.100
9.200	-18.974	0.100
9.300	-9.675	0.100
9.400	-9.395	0.100
9.500	4.068	0.100
9.600	-2.997	0.100
9.700	-0.348	0.100
9.800	-4.642	0.100
9.900	-4.600	0.100
10.000	-3.159	0.100
10.100	-30.213	0.100
10.200	-7.813	0.100
10.300	-9.078	0.100
10.400	-14.452	0.100
10.500	-31.090	0.100
10.600	-18.513	0.100
10.700	1.745	0.100
10.800	-11.177	0.100
10.900	0.503	0.100
11.000	-7.822	0.100
11.100	-13.175	0.100
11.200	-13.882	0.100
11.300	-10.588	0.100
11.400	-1.130	0.100
11.500	-10.241	0.100
11.600	-10.116	0.100
11.700	-4.622	0.100
11.800	-8.482	0.100
11.900	-3.106	0.100
12.000	-10.830	0.100
12.100	-6.493	0.100
12.200	-9.950	0.100
12.300	-2.171	0.100
12.400	-3.901	0.100
12.500	-15.607	0.100
12.600	-16.423	0.100
12.700	-14.407	0.100
12.800	-18.947	0.100
12.900	-6.851	0.100
13.000	-4.066	0.100
13.100	-16.119	0.100
13.200	-12.629	0.100
13.300	-12.545	0.100
13.400	1.552	0.100
13.500	6.250	0.100
13.600	-14.970	0.100
13.700	-13.914	0.100
13.800	-16.471	0.100
13.900	-11.375	0.100
14.000	-6.158	0.100
14.100	-10.401	0.100
14.200	-10.835	0.100
14.300	-16.534	0.100
14.400	10.962	0.100
14.500	2.900	0.100
14.600	-12.164	0.100
14.700	-15.029	0.100
14.800	-15.740	0.100
14.900	-2.189	0.100
15.000	-7.510	0.100
15.100	-21.730	0.100
15.200	-2.796	0.100
15.300	-14.840	0.100
15.400	-19.171	0.100
15.500	-10.598	0.100
15.600	-3.061	0.100
15.700	-3.194	0.100
15.800	-11.692	0.100
15.900	-5.348	0.100
16.000	-6.232	0.100
16.100	-14.003	0.100
16.200	-5.694	0.100
16.300	-10.410	0.100
16.400	-17.717	0.100
16.500	11.997	0.100
16.600	-11.489	0.100
16.700	-7.476	0.100
16.800	-13.427	0.100
16.900	-8.763	0.100
17.000	-3.759	0.100
17.100	-5.096	0.100
17.200	-6.629	0.100
17.300	-15.791	0.100
17.400	-24.257	0.100
17.500	-5.591	0.100
17.600	3.876	0.100
17.700	-3.159	0.100
17.800	-14.598	0.100
17.900	-29.544	0.100
18.000	-3.087	0.100
18.100	-6.720	0.100
18.200	-11.269	0.100
18.300	-7.997	0.100
18.400	-5.404	0.100
18.500	-7.832	0.100
18.600	-4.033	0.100
18.700	-4.333	0.100
18.800	-21.323	0.100
18.900	-24.225	0.100
19.000	-16.700	0.100
19.100	-7.692	0.100
19.200	3.226	0.100
19.300	-15.768	0.100
19.400	-18.612	0.100
19.500	-10.798	0.100
19.600	-1.704	0.100
19.700	-10.092	0.100
19.800	-1.395	0.100
19.900	-2.977	0.100
20.000	-16.651	0.100
20.100	-28.305	0.100
20.200	-11.364	0.100
20.300	-8.104	0.100
20.400	0.160	0.100
20.500	-2.802	0.100
20.600	-5.685	0.100
20.700	-16.529	0.100
20.800	-7.227	0.100
20.900	-18.042	0.100
21.000	-17.178	0.100
21.100	-4.634	0.100
21.200	-17.736	0.100
21.300	2.250	0.100
21.400	-15.670	0.100
21.500	-5.265	0.100
21.600	-6.127	0.100
21.700	-12.647	0.100
21.800	-11.773	0.100
21.900	-8.488	0.100
22.000	-5.654	0.100
22.100	-0.089	0.100
22.200	2.301	0.100
22.300	-7.698	0.100
22.400	-8.021	0.100
22.500	-2.062	0.100
22.600	-11.681	0.100
22.700	-29.065	0.100
22.800	-5.542	0.100
22.900	-16.824	0.100
23.000	-3.991	0.100
23.100	-2.874	0.100
23.200	-15.351	0.100
23.300	0.570	0.100
23.400	-13.068	0.100
23.500	-4.849	0.100
23.600	-23.640	0.100
23.700	-14.970	0.100
23.800	-9.420	0.100
23.900	-6.123	0.100
24.000	-7.933	0.100
24.100	7.157	0.100
24.200	-3.247	0.100
24.300	-2.009	0.100
24.400	-3.583	0.100
24.500	-13.442	0.100
24.600	-10.174	0.100
24.700	-18.174	0.100
24.800	-3.247	0.100
24.900	4.933	0.100
25.000	-5.025	0.100
25.100	-13.998	0.100
25.200	-13.167	0.100
25.300	-4.631	0.100
25.400	-9.017	0.100
25.500	0.872	0.100
25.600	-7.823	0.100
25.700	-6.548	0.100
25.800	-20.984	0.100
25.900	-10.447	0.100
26.000	-24.353	0.100
26.100	-9.231	0.100
26.200	-14.144	0.100
26.300	-4.309	0.100
26.400	-15.158	0.100
26.500	-21.131	0.100
26.600	9.303	0.100
26.700	10.138	0.100
26.800	2.335	0.100
26.900	2.444	0.100
27.000	-11.114	0.100
27.100	-14.546	0.100
27.200	-23.640	0.100
27.300	-26.674	0.100
27.400	-8.931	0.100
27.500	3.351	0.100
27.600	4.124	0.100
27.700	-5.152	0.100
27.800	-9.151	0.100
27.900	-10.188	0.100
28.000	0.816	0.100
28.100	-6.626	0.100
28.200	-20.312	0.100
28.300	0.556	0.100
28.400	-8.836	0.100
28.500	1.700	0.100
28.600	-11.239	0.100
28.700	-12.157	0.100
28.800	2.323	0.100
28.900	-2.262	0.100
29.000	-7.312	0.100
29.100	-6.407	0.100
29.200	-22.975	0.100
29.300	-28.335	0.100
29.400	-7.522	0.100
29.500	-3.812	0.100
29.600	0.041	0.100
29.700	-0.383	0.100
29.800	-15.408	0.100
29.900	-4.741	0.100
30.000	-18.064	0.100
30.100	-4.371	0.100
30.200	-4.339	0.100
30.300	-12.874	0.100
30.400	-13.150	0.100
30.500	8.189	0.100
30.600	-0.434	0.100
30.700	-12.681	0.100
30.800	11.084	0.100
30.900	4.938	0.100
31.000	-1.639	0.100
31.100	2.147	0.100
31.200	4.654	0.100
31.300	4.472	0.100
31.400	-0.101	0.100
31.500	1.671	0.100
31.600	-0.847	0.100
31.700	18.771	0.100
31.800	13.240	0.100
31.900	10.874	0.100
32.000	23.418	0.100
32.100	19.521	0.100
32.200	13.425	0.100
32.300	10.902	0.100
32.400	-0.421	0.100
32.500	-2.149	0.100
32.600	10.817	0.100
32.700	26.423	0.100
32.800	12.678	0.100
32.900	24.947	0.100
33.000	23.487	0.100
33.100	21.145	0.100
33.200	23.915	0.100
33.300	22.645	0.100
33.400	7.745	0.100
33.500	7.154	0.100
33.600	19.777	0.100
33.700	26.951	0.100
33.800	24.523	0.100
33.900	21.259	0.100
34.000	29.006	0.100
34.100	19.692	0.100
34.200	23.398	0.100
34.300	13.580	0.100
34.400	16.984	0.100
34.500	8.785	0.100
34.600	17.613	0.100
34.700	24.290	0.100
34.800	11.817	0.100
34.900	13.407	0.100
35.000	13.775	0.100
35.100	2.458	0.100
35.200	17.758	0.100
35.300	34.982	0.100
35.400	25.241	0.100
35.500	24.839	0.100
35.600	26.916	0.100
35.700	17.502	0.100
35.800	9.997	0.100
35.900	3.967	0.100
36.000	9.309	0.100
36.100	28.391	0.100
36.200	12.195	0.100
36.300	28.219	0.100
36.400	19.140	0.100
36.500	5.413	0.100
36.600	33.335	0.100
36.700	14.164	0.100
36.800	20.588	0.100
36.900	24.750	0.100
37.000	7.994	0.100
37.100	23.951	0.100
37.200	25.431	0.100
37.300	25.271	0.100
37.400	34.446	0.100
37.500	30.311	0.100
37.600	19.395	0.100
37.700	16.075	0.100
37.800	28.288	0.100
37.900	20.993	0.100
38.000	17.830	0.100
38.100	19.109	0.100
38.200	12.110	0.100
38.300	18.407	0.100
38.400	34.265	0.100
38.500	26.520	0.100
38.600	27.660	0.100
38.700	30.062	0.100
38.800	23.883	0.100
38.900	18.710	0.100
39.000	22.740	0.100
39.100	25.887	0.100
39.200	20.434	0.100
39.300	26.256	0.100
39.400	26.825	0.100
39.500	37.801	0.100
39.600	29.952	0.100
39.700	26.042	0.100
39.800	25.336	0.100
39.900	29.249	0.100
40.000	7.656	0.100
40.100	28.802	0.100
40.200	29.148	0.100
40.300	29.491	0.100
40.400	30.996	0.100
40.500	31.906	0.100
40.600	22.740	0.100
40.700	27.429	0.100
40.800	25.768	0.100
40.900	32.763	0.100
41.000	35.293	0.100
41.100	34.835	0.100
41.200	45.881	0.100
41.300	29.853	0.100
41.400	35.173	0.100
41.500	37.866	0.100
41.600	33.708	0.100
41.700	16.402	0.100
41.800	39.512	0.100
41.900	42.826	0.100
42.000	37.868	0.100
42.100	26.997	0.100
42.200	36.391	0.100
42.300	36.171	0.100
42.400	32.471	0.100
42.500	45.242	0.100
42.600	29.011	0.100
42.700	28.177	0.100
42.800	42.966	0.100
42.900	41.668	0.100
43.000	39.795	0.100
43.100	26.539	0.100
43.200	42.002	0.100
43.300	52.418	0.100
43.400	46.882	0.100
43.500	38.647	0.100
43.600	35.520	0.100
43.700	42.717	0.100
43.800	55.878	0.100
43.900	44.625	0.100
44.000	41.941	0.100
44.100	21.687	0.100
44.200	31.199	0.100
44.300	38.449	0.100
44.400	41.450	0.100
44.500	30.723	0.100
44.600	36.158	0.100
44.700	44.948	0.100
44.800	45.537	0.100
44.900	42.108	0.100
45.000	33.953	0.100
45.100	41.508	0.100
45.200	48.828	0.100
45.300	37.199	0.100
45.400	48.555	0.100
45.500	55.313	0.100
45.600	49.002	0.100
45.700	37.589	0.100
45.800	54.316	0.100
45.900	45.027	0.100
46.000	38.217	0.100
46.100	60.220	0.100
46.200	46.891	0.100
46.300	53.497	0.100
46.400	52.983	0.100
46.500	62.606	0.100
46.600	51.640	0.100
46.700	54.311	0.100
46.800	37.297	0.100
46.900	49.608	0.100
47.000	61.369	0.100
47.100	57.989	0.100
47.200	53.226	0.100
47.300	47.532	0.100
47.400	50.004	0.100
47.500	46.608	0.100
47.600	43.983	0.100
47.700	58.993	0.100
47.800	52.671	0.100
47.900	54.524	0.100
48.000	44.825	0.100
48.100	43.374	0.100
48.200	45.723	0.100
48.300	55.619	0.100
48.400	49.936	0.100
48.500	46.904	0.100
48.600	51.629	0.100
48.700	53.468	0.100
48.800	53.045	0.100
48.900	71.751	0.100
49.000	52.424	0.100
49.100	55.108	0.100
49.200	58.231	0.100
49.300	63.623	0.100
49.400	49.472	0.100
49.500	48.271	0.100
49.600	58.570	0.100
49.700	64.813	0.100
49.800	49.934	0.100
49.900	62.482	0.100
50.000	62.504	0.100
50.100	56.126	0.100
50.200	54.837	0.100
50.300	54.124	0.100
50.400	52.569	0.100
50.500	64.230	0.100
50.600	67.825	0.100
50.700	60.276	0.100
50.800	62.397	0.100
50.900	49.403	0.100
51.000	55.166	0.100
51.100	63.861	0.100
51.200	62.561	0.100
51.300	61.608	0.100
51.400	52.218	0.100
51.500	54.409	0.100
51.600	68.964	0.100
51.700	66.015	0.100
51.800	66.477	0.100
51.900	65.093	0.100
52.000	67.844	0.100
52.100	63.838	0.100
52.200	76.681	0.100
52.300	68.141	0.100
52.400	62.149	0.100
52.500	54.673	0.100
52.600	64.095	0.100
52.700	69.458	0.100
52.800	71.834	0.100
52.900	65.595	0.100
53.000	60.251	0.100
53.100	60.307	0.100
53.200	63.801	0.100
53.300	65.510	0.100
53.400	61.748	0.100
53.500	66.058	0.100
53.600	69.794	0.100
53.700	69.181	0.100
53.800	75.491	0.100
53.900	56.844	0.100
54.000	56.258	0.100
54.100	73.604	0.100
54.200	68.407	0.100
54.300	67.444	0.100
54.400	70.565	0.100
54.500	61.391	0.100
54.600	56.229	0.100
54.700	68.175	0.100
54.800	78.013	0.100
54.900	55.136	0.100
55.000	57.390	0.100
55.100	74.887	0.100
55.200	73.389	0.100
55.300	84.845	0.100
55.400	76.714	0.100
55.500	72.402	0.100
55.600	70.114	0.100
55.700	69.732	0.100
55.800	73.863	0.100
55.900	68.493	0.100
56.000	53.827	0.100
56.100	74.187	0.100
56.200	77.727	0.100
56.300	70.723	0.100
56.400	70.350	0.100
56.500	66.179	0.100
56.600	66.319	0.100
56.700	78.534	0.100
56.800	70.611	0.100
56.900	72.136	0.100
57.000	60.937	0.100
57.100	64.182	0.100
57.200	83.625	0.100
57.300	61.037	0.100
57.400	56.752	0.100
57.500	57.326	0.100
57.600	77.386	0.100
57.700	62.156	0.100
57.800	90.302	0.100
57.900	81.382	0.100
58.000	70.035	0.100
58.100	87.955	0.100
58.200	77.256	0.100
58.300	79.737	0.100
58.400	60.131	0.100
58.500	69.832	0.100
58.600	71.464	0.100
58.700	66.558	0.100
58.800	61.478	0.100
58.900	73.684	0.100
59.000	70.256	0.100
59.100	68.422	0.100
59.200	68.440	0.100
59.300	62.848	0.100
59.400	71.395	0.100
59.500	85.426	0.100
59.600	68.469	0.100
59.700	70.774	0.100
59.800	78.212	0.100
59.900	71.963	0.100
60.000	60.777	0.100
60.100	49.288	0.100
60.200	75.529	0.100
60.300	76.434	0.100
60.400	64.879	0.100
60.500	73.283	0.100
60.600	66.131	0.100
60.700	86.353	0.100
60.800	60.481	0.100
60.900	77.855	0.100
61.000	68.143	0.100
61.100	58.241	0.100
61.200	67.110	0.100
61.300	74.051	0.100
61.400	74.744	0.100
61.500	76.482	0.100
61.600	64.803	0.100
61.700	76.737	0.100
61.800	64.208	0.100
61.900	84.229	0.100
62.000	58.454	0.100
62.100	68.760	0.100
62.200	54.731	0.100
62.300	59.773	0.100
62.400	70.953	0.100
62.500	57.700	0.100
62.600	70.987	0.100
62.700	78.598	0.100
62.800	65.809	0.100
62.900	62.890	0.100
63.000	68.315	0.100
63.100	69.341	0.100
63.200	56.949	0.100
63.300	78.426	0.100
63.400	58.904	0.100
63.500	78.514	0.100
63.600	79.784	0.100
63.700	72.840	0.100
63.800	68.449	0.100
63.900	71.713	0.100
64.000	71.564	0.100
64.100	70.231	0.100
64.200	60.749	0.100
64.300	67.647	0.100
64.400	79.912	0.100
64.500	70.828	0.100
64.600	75.647	0.100
64.700	75.538	0.100
64.800	62.579	0.100
64.900	65.252	0.100
65.000	62.423	0.100
65.100	66.579	0.100
65.200	81.289	0.100
65.300	66.352	0.100
65.400	68.059	0.100
65.500	64.478	0.100
65.600	68.952	0.100
65.700	80.979	0.100
65.800	69.518	0.100
65.900	66.745	0.100
66.000	64.381	0.100
66.100	51.305	0.100
66.200	58.671	0.100
66.300	89.281	0.100
66.400	71.185	0.100
66.500	81.842	0.100
66.600	71.358	0.100
66.700	70.650	0.100
66.800	85.347	0.100
66.900	57.755	0.100
67.000	56.592	0.100
67.100	64.248	0.100
67.200	66.619	0.100
67.300	70.380	0.100
67.400	67.158	0.100
67.500	71.991	0.100
67.600	66.939	0.100
67.700	76.235	0.100
67.800	68.296	0.100
67.900	68.121	0.100
68.000	64.175	0.100
68.100	65.922	0.100
68.200	66.463	0.100
68.300	76.010	0.100
68.400	59.038	0.100
68.500	74.133	0.100
68.600	65.157	0.100
68.700	65.458	0.100
68.800	79.543	0.100
68.900	76.654	0.100
69.000	67.177	0.100
69.100	62.462	0.100
69.200	67.762	0.100
69.300	57.128	0.100
69.400	71.471	0.100
69.500	71.057	0.100
69.600	76.501	0.100
69.700	70.253	0.100
69.800	77.136	0.100
69.900	68.450	0.100
70.000	57.917	0.100
70.100	67.400	0.100
70.200	76.989	0.100
70.300	69.761	0.100
70.400	78.151	0.100
70.500	66.371	0.100
70.600	55.128	0.100
70.700	56.621	0.100
70.800	80.799	0.100
70.900	72.868	0.100
71.000	67.820	0.100
71.100	61.316	0.100
71.200	78.738	0.100
71.300	72.976	0.100
71.400	73.029	0.100
71.500	69.383	0.100
71.600	73.878	0.100
71.700	76.171	0.100
71.800	58.078	0.100
71.900	56.835	0.100
72.000	65.088	0.100
72.100	72.452	0.100
72.200	66.838	0.100
72.300	71.790	0.100
72.400	56.846	0.100
72.500	61.397	0.100
72.600	74.563	0.100
72.700	68.669	0.100
72.800	64.683	0.100
72.900	67.549	0.100
73.000	68.965	0.100
73.100	75.411	0.100
73.200	70.597	0.100
73.300	55.696	0.100
73.400	58.477	0.100
73.500	67.968	0.100
73.600	57.004	0.100
73.700	74.880	0.100
73.800	72.101	0.100
73.900	66.179	0.100
74.000	69.114	0.100
74.100	64.885	0.100
74.200	69.725	0.100
74.300	66.945	0.100
74.400	53.767	0.100
74.500	69.205	0.100
74.600	65.011	0.100
74.700	60.509	0.100
74.800	69.555	0.100
74.900	75.296	0.100
75.000	64.416	0.100
75.100	75.997	0.100
75.200	85.778	0.100
75.300	70.498	0.100
75.400	74.124	0.100
75.500	57.845	0.100
75.600	58.491	0.100
75.700	58.876	0.100
75.800	75.430	0.100
75.900	67.454	0.100
76.000	61.293	0.100
76.100	59.470	0.100
76.200	74.255	0.100
76.300	65.810	0.100
76.400	67.254	0.100
76.500	64.886	0.100
76.600	76.248	0.100
76.700	67.623	0.100
76.800	59.868	0.100
76.900	77.440	0.100
77.000	70.426	0.100
77.100	71.732	0.100
77.200	57.980	0.100
77.300	54.106	0.100
77.400	68.582	0.100
77.500	64.592	0.100
77.600	53.924	0.100
77.700	79.896	0.100
77.800	64.449	0.100
77.900	67.236	0.100
78.000	70.541	0.100
78.100	57.932	0.100
78.200	66.232	0.100
78.300	68.315	0.100
78.400	58.300	0.100
78.500	72.960	0.100
78.600	81.558	0.100
78.700	84.020	0.100
78.800	67.664	0.100
78.900	71.595	0.100
79.000	62.013	0.100
79.100	68.476	0.100
79.200	60.005	0.100
79.300	63.382	0.100
79.400	68.419	0.100
79.500	72.582	0.100
79.600	66.912	0.100
79.700	63.890	0.100
79.800	59.695	0.100
79.900	66.910	0.100
80.000	71.463	0.100
80.100	69.609	0.100
80.200	57.687	0.100
80.300	73.454	0.100
80.400	69.100	0.100
80.500	52.318	0.100
80.600	56.656	0.100
80.700	69.310	0.100
80.800	82.239	0.100
80.900	68.303	0.100
81.000	63.073	0.100
81.100	57.862	0.100
81.200	57.988	0.100
81.300	66.440	0.100
81.400	59.507	0.100
81.500	59.374	0.100
81.600	65.550	0.100
81.700	50.906	0.100
81.800	77.011	0.100
81.900	76.719	0.100
82.000	68.355	0.100
82.100	71.171	0.100
82.200	72.951	0.100
82.300	80.684	0.100
82.400	59.060	0.100
82.500	67.245	0.100
82.600	55.988	0.100
82.700	70.816	0.100
82.800	77.290	0.100
82.900	67.239	0.100
83.000	61.848	0.100
83.100	58.637	0.100
83.200	65.856	0.100
83.300	67.371	0.100
83.400	63.631	0.100
83.500	71.836	0.100
83.600	61.531	0.100
83.700	71.869	0.100
83.800	66.814	0.100
83.900	64.048	0.100
84.000	64.299	0.100
84.100	66.585	0.100
84.200	61.363	0.100
84.300	67.319	0.100
84.400	72.214	0.100
84.500	61.217	0.100
84.600	77.384	0.100
84.700	74.814	0.100
84.800	59.384	0.100
84.900	66.331	0.100
85.000	65.827	0.100
85.100	50.838	0.100
85.200	60.749	0.100
85.300	62.213	0.100
85.400	75.287	0.100
85.500	56.656	0.100
85.600	66.804	0.100
85.700	65.438	0.100
85.800	65.408	0.100
85.900	67.660	0.100
86.000	64.534	0.100
86.100	70.668	0.100
86.200	57.393	0.100
86.300	84.539	0.100
86.400	79.238	0.100
86.500	77.547	0.100
86.600	73.805	0.100
86.700	57.389	0.100
86.800	66.208	0.100
86.900	66.750	0.100
87.000	69.828	0.100
87.100	71.495	0.100
87.200	52.521	0.100
87.300	62.813	0.100
87.400	65.227	0.100
87.500	61.043	0.100
87.600	66.159	0.100
87.700	66.937	0.100
87.800	65.838	0.100
87.900	72.415	0.100
88.000	58.314	0.100
88.100	69.989	0.100
88.200	52.885	0.100
88.300	71.737	0.100
88.400	69.828	0.100
88.500	68.635	0.100
88.600	48.575	0.100
88.700	65.119	0.100
88.800	73.628	0.100
88.900	79.067	0.100
89.000	63.617	0.100
89.100	63.584	0.100
89.200	70.608	0.100
89.300	56.803	0.100
89.400	65.217	0.100
89.500	60.460	0.100
89.600	62.742	0.100
89.700	76.003	0.100
89.800	64.614	0.100
89.900	74.942	0.100
90.000	73.333	0.100
90.100	57.920	0.100
90.200	48.336	0.100
90.300	61.971	0.100
90.400	74.674	0.100
90.500	58.305	0.100
90.600	63.899	0.100
90.700	52.085	0.100
90.800	45.894	0.100
90.900	67.749	0.100
91.000	72.314	0.100
91.100	57.780	0.100
91.200	57.321	0.100
91.300	49.530	0.100
91.400	47.644	0.100
91.500	60.844	0.100
91.600	48.770	0.100
91.700	44.410	0.100
91.800	40.236	0.100
91.900	49.930	0.100
92.000	27.330	0.100
92.100	39.820	0.100
92.200	34.459	0.100
92.300	31.378	0.100
92.400	27.928	0.100
92.500	28.715	0.100
92.600	57.905	0.100
92.700	41.295	0.100
92.800	35.213	0.100
92.900	31.957	0.100
93.000	36.794	0.100
93.100	32.295	0.100
93.200	26.576	0.100
93.300	32.282	0.100
93.400	24.668	0.100
93.500	22.857	0.100
93.600	33.191	0.100
93.700	30.511	0.100
93.800	15.067	0.100
93.900	20.122	0.100
94.000	6.012	0.100
94.100	26.334	0.100
94.200	22.014	0.100
94.300	14.889	0.100
94.400	35.476	0.100
94.500	29.637	0.100
94.600	18.256	0.100
94.700	17.500	0.100
94.800	13.680	0.100
94.900	17.048	0.100
95.000	23.337	0.100
95.100	19.961	0.100
95.200	18.209	0.100
95.300	20.674	0.100
95.400	19.516	0.100
95.500	18.610	0.100
95.600	14.148	0.100
95.700	15.250	0.100
95.800	9.203	0.100
95.900	11.808	0.100
96.000	14.408	0.100
96.100	10.243	0.100
96.200	18.529	0.100
96.300	7.132	0.100
96.400	2.480	0.100
96.500	15.694	0.100
96.600	8.425	0.100
96.700	11.875	0.100
96.800	12.345	0.100
96.900	16.445	0.100
97.000	9.347	0.100
97.100	6.832	0.100
97.200	20.771	0.100
97.300	14.157	0.100
97.400	2.009	0.100
97.500	3.158	0.100
97.600	25.564	0.100
97.700	-5.405	0.100
97.800	-0.393	0.100
97.900	0.851	0.100
98.000	3.400	0.100
98.100	15.734	0.100
98.200	7.585	0.100
98.300	6.555	0.100
98.400	-1.069	0.100
98.500	10.010	0.100
98.600	7.716	0.100
98.700	25.050	0.100
98.800	10.151	0.100
98.900	9.408	0.100
99.000	15.430	0.100
99.100	9.540	0.100
99.200	10.086	0.100
99.300	3.483	0.100
99.400	15.643	0.100
99.500	-1.653	0.100
99.600	3.428	0.100
99.700	9.721	0.100
99.800	3.812	0.100
99.900	2.411	0.100
100.000	7.708	0.100
100.100	8.483	0.100
100.200	16.018	0.100
100.300	8.602	0.100
100.400	7.169	0.100
100.500	5.466	0.100
100.600	17.871	0.100
100.700	-6.016	0.100
100.800	17.241	0.100
100.900	11.793	0.100
101.000	4.888	0.100
101.100	1.822	0.100
101.200	21.386	0.100
101.300	8.038	0.100
101.400	-1.210	0.100
101.500	7.981	0.100
101.600	7.122	0.100
101.700	11.140	0.100
101.800	2.805	0.100
101.900	-8.665	0.100
102.000	-0.640	0.100
102.100	6.359	0.100
102.200	-9.968	0.100
102.300	9.099	0.100
102.400	11.901	0.100
102.500	10.102	0.100
102.600	3.088	0.100
102.700	4.179	0.100
102.800	7.340	0.100
102.900	5.554	0.100
103.000	9.898	0.100
103.100	-1.510	0.100
103.200	-0.645	0.100
103.300	7.695	0.100
103.400	-1.840	0.100
103.500	19.268	0.100
103.600	17.114	0.100
103.700	-14.726	0.100
103.800	18.509	0.100
103.900	2.659	0.100
104.000	6.313	0.100
104.100	-2.315	0.100
104.200	5.628	0.100
104.300	-4.691	0.100
104.400	10.637	0.100
104.500	-1.935	0.100
104.600	1.278	0.100
104.700	-21.669	0.100
104.800	-0.921	0.100
104.900	16.500	0.100
105.000	15.303	0.100
105.100	5.595	0.100
105.200	13.743	0.100
105.300	-7.363	0.100
105.400	-14.376	0.100
105.500	1.621	0.100
105.600	7.501	0.100
105.700	6.374	0.100
105.800	7.053	0.100
105.900	-19.116	0.100
106.000	-11.439	0.100
106.100	-0.489	0.100
106.200	22.089	0.100
106.300	2.305	0.100
106.400	6.790	0.100
106.500	4.827	0.100
106.600	14.664	0.100
106.700	9.946	0.100
106.800	-17.996	0.100
106.900	1.395	0.100
107.000	-7.132	0.100
107.100	0.500	0.100
107.200	6.595	0.100
107.300	1.424	0.100
107.400	-4.845	0.100
107.500	1.740	0.100
107.600	-6.391	0.100
107.700	-0.583	0.100
107.800	-6.262	0.100
107.900	-3.069	0.100
108.000	-6.689	0.100
108.100	5.304	0.100
108.200	8.334	0.100
108.300	-7.851	0.100
108.400	6.064	0.100
108.500	6.519	0.100
108.600	7.545	0.100
108.700	-8.813	0.100
108.800	-23.803	0.100
108.900	-10.084	0.100
109.000	-10.205	0.100
109.100	-7.014	0.100
109.200	-0.405	0.100
109.300	-13.726	0.100
109.400	-8.125	0.100
109.500	-4.226	0.100
109.600	5.739	0.100
109.700	-3.390	0.100
109.800	-5.270	0.100
109.900	-12.242	0.100
110.000	-1.782	0.100
110.100	2.620	0.100
110.200	-3.880	0.100
110.300	-7.443	0.100
110.400	-11.504	0.100
110.500	-14.235	0.100
110.600	-17.355	0.100
110.700	5.749	0.100
110.800	-6.206	0.100
110.900	3.276	0.100
111.000	8.016	0.100
111.100	-9.431	0.100
111.200	7.640	0.100
111.300	-9.868	0.100
111.400	-15.542	0.100
111.500	-12.648	0.100
111.600	1.116	0.100
111.700	-15.948	0.100
111.800	-9.588	0.100
111.900	-12.695	0.100
112.000	-2.401	0.100
112.100	-7.259	0.100
112.200	-0.861	0.100
112.300	-0.046	0.100
112.400	-6.719	0.100
112.500	-14.984	0.100
112.600	-3.210	0.100
112.700	0.700	0.100
112.800	-15.002	0.100
112.900	-8.056	0.100
113.000	0.381	0.100
113.100	-4.301	0.100
113.200	-9.255	0.100
113.300	-4.001	0.100
113.400	0.645	0.100
113.500	0.386	0.100
113.600	-2.805	0.100
113.700	-6.331	0.100
113.800	-4.288	0.100
113.900	1.550	0.100
114.000	-19.321	0.100
114.100	-3.040	0.100
114.200	-7.572	0.100
114.300	-5.318	0.100
114.400	6.093	0.100
114.500	-5.157	0.100
114.600	-14.733	0.100
114.700	-3.305	0.100
114.800	-13.617	0.100
114.900	-6.749	0.100
115.000	-2.064	0.100
115.100	-11.108	0.100
115.200	-23.394	0.100
115.300	-19.190	0.100
115.400	-19.036	0.100
115.500	-5.543	0.100
115.600	-10.130	0.100
115.700	-3.688	0.100
115.800	-9.969	0.100
115.900	-6.775	0.100
116.000	-11.361	0.100
116.100	-11.095	0.100
116.200	-18.151	0.100
116.300	-27.316	0.100
116.400	-13.690	0.100
116.500	-3.169	0.100
116.600	-19.370	0.100
116.700	-7.786	0.100
116.800	0.589	0.100
116.900	-8.193	0.100
117.000	-0.512	0.100
117.100	4.068	0.100
117.200	-3.851	0.100
117.300	-15.320	0.100
117.400	6.393	0.100
117.500	-13.638	0.100
117.600	-10.280	0.100
117.700	-5.232	0.100
117.800	-16.450	0.100
117.900	-5.181	0.100
118.000	-11.682	0.100
118.100	-13.597	0.100
118.200	-11.700	0.100
118.300	-11.656	0.100
118.400	-5.625	0.100
118.500	-10.745	0.100
118.600	-12.628	0.100
118.700	-22.969	0.100
118.800	-18.592	0.100
118.900	-5.756	0.100
119.000	-24.326	0.100
119.100	-15.864	0.100
119.200	-5.756	0.100
119.300	-3.504	0.100
119.400	-10.501	0.100
119.500	-16.398	0.100
119.600	-3.914	0.100
119.700	-24.124	0.100
119.800	-21.738	0.100
119.900	-17.499	0.100
120.000	-19.654	0.100
120.100	-27.670	0.100
120.200	-2.885	0.100
120.300	3.263	0.100
120.400	-13.618	0.100
120.500	-10.863	0.100
120.600	-23.289	0.100
120.700	-14.104	0.100
120.800	-19.712	0.100
120.900	-23.022	0.100
121.000	-1.181	0.100
121.100	-5.693	0.100
121.200	-14.061	0.100
121.300	-16.260	0.100
121.400	-14.403	0.100
121.500	-17.992	0.100
121.600	-14.856	0.100
121.700	-2.097	0.100
121.800	-25.335	0.100
121.900	-7.388	0.100
122.000	-6.376	0.100
122.100	-16.951	0.100
122.200	-14.013	0.100
122.300	-13.221	0.100
122.400	-7.057	0.100
122.500	-0.980	0.100
122.600	-18.149	0.100
122.700	-9.511	0.100
122.800	-15.860	0.100
122.900	-13.617	0.100
123.000	-14.061	0.100
123.100	-9.959	0.100
123.200	-11.811	0.100
123.300	-18.998	0.100
123.400	-0.683	0.100
123.500	-7.235	0.100
123.600	-24.868	0.100
123.700	-9.199	0.100
123.800	-8.503	0.100
123.900	-25.375	0.100
124.000	-22.191	0.100
124.100	-14.007	0.100
124.200	-12.455	0.100
124.300	-24.154	0.100
124.400	-20.529	0.100
124.500	-28.889	0.100
124.600	-20.188	0.100
124.700	2.362	0.100
124.800	-21.374	0.100
124.900	-12.103	0.100
125.000	-18.209	0.100
125.100	-13.077	0.100
125.200	-13.952	0.100
125.300	-27.353	0.100
125.400	-10.328	0.100
125.500	-7.086	0.100
125.600	-22.270	0.100
125.700	-17.370	0.100
125.800	-23.034	0.100
125.900	-25.816	0.100
126.000	-21.377	0.100
126.100	-1.424	0.100
126.200	0.588	0.100
126.300	-27.902	0.100
126.400	-22.639	0.100
126.500	-10.714	0.100
126.600	-10.329	0.100
126.700	-14.860	0.100
126.800	-27.333	0.100
126.900	-21.828	0.100
127.000	-10.483	0.100
127.100	-17.618	0.100
127.200	-11.061	0.100
127.300	-27.181	0.100
127.400	-17.279	0.100
127.500	-11.339	0.100
127.600	-6.652	0.100
127.700	-7.067	0.100
127.800	-15.910	0.100
127.900	-19.262	0.100
128.000	-20.523	0.100
128.100	-8.173	0.100
128.200	-33.848	0.100
128.300	-24.243	0.100
128.400	-30.757	0.100
128.500	-23.559	0.100
128.600	-23.847	0.100
128.700	-22.013	0.100
128.800	-13.548	0.100
128.900	-14.658	0.100
129.000	-23.108	0.100
129.100	-14.737	0.100
129.200	-5.927	0.100
129.300	-14.383	0.100
129.400	-17.308	0.100
129.500	-23.619	0.100
129.600	-24.809	0.100
129.700	-22.238	0.100
129.800	-23.832	0.100
129.900	-18.222	0.100
130.000	-14.076	0.100
130.100	-16.383	0.100
130.200	-23.827	0.100
130.300	-18.291	0.100
130.400	-9.178	0.100
130.500	-18.372	0.100
130.600	-15.755	0.100
130.700	-6.482	0.100
130.800	-23.515	0.100
130.900	-17.834	0.100
131.000	-38.587	0.100
131.100	-34.848	0.100
131.200	-22.948	0.100
131.300	-25.103	0.100
131.400	-12.262	0.100
131.500	-6.072	0.100
131.600	-17.896	0.100
131.700	-23.012	0.100
131.800	-12.069	0.100
131.900	-23.497	0.100
132.000	-16.067	0.100
132.100	-32.113	0.100
132.200	-11.915	0.100
132.300	-18.076	0.100
132.400	-20.603	0.100
132.500	-24.455	0.100
132.600	-27.733	0.100
132.700	-24.712	0.100
132.800	-9.386	0.100
132.900	-17.794	0.100
133.000	-14.648	0.100
133.100	-26.921	0.100
133.200	-18.945	0.100
133.300	-19.547	0.100
133.400	-19.445	0.100
133.500	-10.726	0.100
133.600	-30.242	0.100
133.700	-4.010	0.100
133.800	-11.153	0.100
133.900	-19.247	0.100
134.000	-12.561	0.100
134.100	-24.173	0.100
134.200	-25.153	0.100
134.300	-25.970	0.100
134.400	-34.610	0.100
134.500	-38.983	0.100
134.600	-27.449	0.100
134.700	-16.273	0.100
134.800	-20.135	0.100
134.900	-14.927	0.100
135.000	-21.692	0.100
135.100	-14.504	0.100
135.200	-32.606	0.100
135.300	-7.144	0.100
135.400	-18.786	0.100
135.500	-21.922	0.100
135.600	-8.491	0.100
135.700	-28.519	0.100
135.800	-22.128	0.100
135.900	-9.502	0.100
136.000	-6.761	0.100
136.100	-26.312	0.100
136.200	-33.219	0.100
136.300	-16.857	0.100
136.400	-12.253	0.100
136.500	-30.065	0.100
136.600	-14.878	0.100
136.700	-9.014	0.100
136.800	-18.776	0.100
136.900	-29.107	0.100
137.000	-14.010	0.100
137.100	-21.211	0.100
137.200	-20.276	0.100
137.300	-25.698	0.100
137.400	-19.942	0.100
137.500	-21.324	0.100
137.600	-31.051	0.100
137.700	-12.280	0.100
137.800	-31.462	0.100
137.900	-32.479	0.100
138.000	-8.682	0.100
138.100	-9.713	0.100
138.200	-23.000	0.100
138.300	-32.214	0.100
138.400	-21.283	0.100
138.500	-23.934	0.100
138.600	-21.394	0.100
138.700	-16.343	0.100
138.800	-6.122	0.100
138.900	-32.891	0.100
139.000	-36.170	0.100
139.100	-18.872	0.100
139.200	-14.386	0.100
139.300	-6.919	0.100
139.400	-7.839	0.100
139.500	-9.890	0.100
139.600	-19.130	0.100
139.700	-22.653	0.100
139.800	-10.556	0.100
139.900	-18.220	0.100
140.000	-19.088	0.100
140.100	-26.959	0.100
140.200	-26.797	0.100
140.300	-20.141	0.100
140.400	-28.220	0.100
140.500	-20.853	0.100
140.600	-19.301	0.100
140.700	-31.311	0.100
140.800	-11.731	0.100
140.900	-4.350	0.100
141.000	-33.296	0.100
141.100	-30.079	0.100
141.200	-17.046	0.100
141.300	-26.671	0.100
141.400	-21.547	0.100
141.500	-7.679	0.100
141.600	-12.812	0.100
141.700	-17.916	0.100
141.800	-32.345	0.100
141.900	-17.975	0.100
142.000	-18.495	0.100
142.100	-27.572	0.100
142.200	-26.468	0.100
142.300	-21.689	0.100
142.400	-16.655	0.100
142.500	-10.949	0.100
142.600	-14.830	0.100
142.700	-15.809	0.100
142.800	-25.625	0.100
142.900	-16.444	0.100
143.000	-29.761	0.100
143.100	-34.579	0.100
143.200	-11.362	0.100
143.300	-7.590	0.100
143.400	-15.090	0.100
143.500	-23.383	0.100
143.600	-19.038	0.100
143.700	-22.591	0.100
143.800	-13.621	0.099
143.900	-15.667	0.100
144.000	-13.813	0.100
144.100	-14.481	0.100
144.200	-21.234	0.100
144.300	-19.907	0.100
144.400	-21.382	0.100
144.500	-13.038	0.100
144.600	-17.319	0.100
144.700	-18.027	0.100
144.800	-4.298	0.100
144.900	-13.717	0.100
145.000	-12.380	0.099
145.100	-24.999	0.099
145.200	-27.289	0.100
145.300	-8.081	0.100
145.400	-10.687	0.100
145.500	-8.273	0.099
145.600	-33.805	0.100
145.700	-12.891	0.099
145.800	-30.550	0.099
145.900	-3.636	0.099
146.000	-28.150	0.100
146.100	-17.175	0.099
146.200	-17.955	0.099
146.300	-31.319	0.099
146.400	-27.309	0.099
146.500	-20.886	0.099
146.600	-21.755	0.100
146.700	-12.228	0.099
146.800	-13.259	0.099
146.900	-25.567	0.099
147.000	-17.852	0.099
147.100	-14.650	0.099
147.200	-14.206	0.099
147.300	-16.679	0.099
147.400	-22.457	0.100
147.500	-25.699	0.100
147.600	-31.799	0.099
147.700	-29.365	0.099
147.800	-28.178	0.099
147.900	-24.114	0.099
148.000	-19.705	0.099
148.100	-13.793	0.099
148.200	-15.711	0.099
148.300	-22.536	0.099
148.400	-16.711	0.099
148.500	-12.123	0.099
148.600	-33.832	0.099
148.700	-21.318	0.099
148.800	1.125	0.099
148.900	-4.375	0.099
149.000	-17.412	0.099
149.100	-29.120	0.099
149.200	-18.422	0.099
149.300	-21.103	0.100
149.400	-20.631	0.099
149.500	-23.810	0.099
149.600	-4.939	0.100
149.700	-17.106	0.099
149.800	-23.522	0.099
149.900	-18.270	0.099
150.000	-32.564	0.099
150.100	-14.066	0.099
150.200	-9.942	0.100
150.300	-25.566	0.099
150.400	-4.779	0.099
150.500	-6.874	0.099
150.600	-18.032	0.099
150.700	-13.901	0.099
150.800	-24.052	0.099
150.900	-10.350	0.099
151.000	-18.363	0.099
151.100	-17.179	0.100
151.200	-12.081	0.099
151.300	-22.276	0.099
151.400	-19.056	0.099
151.500	-16.439	0.099
151.600	-30.688	0.099
151.700	-2.825	0.099
151.800	-19.704	0.099
151.900	-13.046	0.099
152.000	-20.315	0.099
152.100	-20.612	0.099
152.200	-10.600	0.099
152.300	-23.303	0.099
152.400	-15.628	0.099
152.500	-13.800	0.099
152.600	-26.363	0.099
152.700	-22.160	0.099
152.800	-24.088	0.099
152.900	-10.651	0.099
153.000	-12.814	0.099
153.100	-19.617	0.099
153.200	-10.826	0.099
153.300	-23.145	0.099
153.400	-18.266	0.099
153.500	-25.113	0.099
153.600	-35.207	0.099
153.700	-25.420	0.099
153.800	-11.434	0.099
153.900	-17.376	0.099
154.000	-18.553	0.099
154.100	-28.257	0.099
154.200	-22.072	0.099
154.300	-36.994	0.099
154.400	-10.883	0.099
154.500	-5.363	0.099
154.600	-25.364	0.099
154.700	-12.668	0.099
154.800	-13.514	0.099
154.900	-32.424	0.099
155.000	-29.217	0.099
155.100	-14.631	0.099
155.200	0.929	0.099
155.300	-20.228	0.099
155.400	-18.273	0.099
155.500	-11.666	0.099
155.600	-13.935	0.099
155.700	-11.874	0.099
155.800	-15.328	0.099
155.900	-22.834	0.099
156.000	-18.090	0.099
156.100	-17.781	0.099
156.200	-24.979	0.099
156.300	-16.257	0.099
156.400	-14.203	0.099
156.500	-6.097	0.099
156.600	-17.843	0.099
156.700	-27.907	0.099
156.800	-31.268	0.099
156.900	-17.084	0.099
157.000	-4.006	0.099
157.100	-19.555	0.099
157.200	-14.397	0.099
157.300	-15.106	0.099
157.400	-22.057	0.099
157.500	-22.207	0.099
157.600	-16.846	0.099
157.700	-19.577	0.099
157.800	-17.265	0.099
157.900	-27.381	0.099
158.000	-12.017	0.099
158.100	-17.707	0.099
158.200	-23.504	0.099
158.300	-20.655	0.099
158.400	-19.643	0.099
158.500	-16.317	0.099
158.600	-3.082	0.099
158.700	-18.511	0.099
158.800	-19.035	0.099
158.900	-23.061	0.099
159.000	-12.519	0.099
159.100	-19.013	0.099
159.200	-27.865	0.099
159.300	-14.711	0.099
159.400	-19.018	0.099
159.500	-25.635	0.099
159.600	-9.129	0.099
159.700	-16.929	0.099
159.800	-29.223	0.099
159.900	-19.907	0.099
160.000	-5.371	0.099
160.100	-21.623	0.099
160.200	-15.635	0.099
160.300	-25.347	0.099
160.400	-18.139	0.099
160.500	-27.940	0.099
160.600	-19.970	0.099
160.700	-23.267	0.099
160.800	-22.929	0.099
160.900	-3.711	0.099
161.000	-20.076	0.099
161.100	-17.665	0.099
161.200	-24.977	0.099
161.300	-21.915	0.099
161.400	-29.485	0.099
161.500	-8.908	0.099
161.600	-22.784	0.099
161.700	-20.919	0.099
161.800	-13.600	0.099
161.900	-20.490	0.099
162.000	-14.364	0.099
162.100	-28.873	0.099
162.200	-22.349	0.099
162.300	-25.099	0.099
162.400	-20.800	0.099
162.500	-13.421	0.099
162.600	-12.666	0.099
162.700	-19.842	0.099
162.800	-19.806	0.099
162.900	-22.340	0.099
163.000	7.941	0.099
163.100	-26.113	0.099
163.200	-9.134	0.099
163.300	-9.749	0.099
163.400	-3.808	0.099
163.500	-11.095	0.099
163.600	-14.190	0.099
163.700	-14.154	0.099
163.800	-18.306	0.099
163.900	-30.823	0.099
164.000	-44.430	0.099
164.100	-18.598	0.099
164.200	-3.641	0.099
164.300	-7.673	0.099
164.400	-14.816	0.099
164.500	-13.562	0.099
164.600	-24.243	0.099
164.700	-9.040	0.099
164.800	-18.069	0.099
164.900	-14.574	0.099
165.000	-10.336	0.099
165.100	-17.790	0.099
165.200	-18.175	0.099
165.300	0.925	0.099
165.400	-18.892	0.099
165.500	-30.635	0.099
165.600	-32.264	0.099
165.700	-4.187	0.099
165.800	-6.025	0.099
165.900	-17.926	0.099
166.000	-26.215	0.099
166.100	-11.525	0.099
166.200	-18.763	0.099
166.300	-21.311	0.099
166.400	-25.126	0.099
166.500	-20.696	0.099
166.600	-18.029	0.099
166.700	-18.989	0.099
166.800	-12.191	0.099
166.900	-24.761	0.099
167.000	-34.565	0.099
167.100	-34.037	0.099
167.200	-17.935	0.099
167.300	-12.692	0.099
167.400	-0.603	0.099
167.500	-22.143	0.099
167.600	-7.689	0.099
167.700	-11.681	0.099
167.800	-13.819	0.099
167.900	-10.563	0.099
168.000	-12.900	0.099
168.100	-20.970	0.099
168.200	-23.285	0.099
168.300	-6.976	0.099
168.400	-14.472	0.099
168.500	-14.227	0.099
168.600	-16.575	0.099
168.700	-13.591	0.099
168.800	-12.875	0.099
168.900	-30.596	0.099
169.000	-21.296	0.099
169.100	-22.814	0.099
169.200	-13.195	0.099
169.300	-11.226	0.099
169.400	-15.773	0.099
169.500	-14.266	0.099
169.600	-16.862	0.099
169.700	-10.556	0.099
169.800	-16.045	0.099
169.900	-18.803	0.099
170.000	-17.598	0.099
170.100	-8.998	0.099
170.200	-8.114	0.099
170.300	-23.567	0.099
170.400	-20.079	0.099
170.500	-12.415	0.099
170.600	-15.795	0.099
170.700	-17.791	0.099
170.800	-42.499	0.099
170.900	-2.274	0.099
171.000	-27.396	0.099
171.100	-31.711	0.099
171.200	-15.114	0.099
171.300	-12.736	0.099
171.400	-10.884	0.099
171.500	-13.403	0.099
171.600	-15.830	0.099
171.700	-20.594	0.099
171.800	-15.267	0.099
171.900	2.310	0.099
172.000	-20.247	0.099
172.100	-17.152	0.099
172.200	-12.898	0.099
172.300	-18.380	0.099
172.400	-34.911	0.099
172.500	-25.041	0.099
172.600	-15.891	0.099
172.700	-7.731	0.099
172.800	-13.520	0.099
172.900	-10.226	0.099
173.000	-25.597	0.099
173.100	1.193	0.099
173.200	-17.946	0.099
173.300	-17.349	0.099
173.400	-18.020	0.099
173.500	-28.496	0.099
173.600	-17.101	0.099
173.700	-6.214	0.099
173.800	-17.014	0.099
173.900	-11.117	0.099
174.000	-25.586	0.099
174.100	-7.767	0.099
174.200	-15.825	0.099
174.300	-19.949	0.099
174.400	-20.410	0.099
174.500	-6.042	0.099
174.600	-23.381	0.099
174.700	-16.941	0.099
174.800	-15.685	0.099
174.900	-21.244	0.099
175.000	-12.127	0.099
175.100	-5.352	0.099
175.200	-13.837	0.099
175.300	-8.877	0.099
175.400	-17.915	0.099
175.500	-19.303	0.099
175.600	-12.392	0.099
175.700	-17.880	0.099
175.800	-13.339	0.099
175.900	-12.348	0.099
176.000	-19.359	0.099
176.100	-20.629	0.099
176.200	-12.455	0.099
176.300	-19.350	0.099
176.400	-13.046	0.099
176.500	-12.720	0.099
176.600	-15.603	0.099
176.700	-19.960	0.099
176.800	-14.141	0.099
176.900	-7.688	0.099
177.000	-24.280	0.099
177.100	-22.777	0.099
177.200	-12.459	0.099
177.300	-24.036	0.099
177.400	-15.022	0.099
177.500	-14.122	0.099
177.600	-12.770	0.099
177.700	-32.506	0.099
177.800	-11.856	0.099
177.900	-17.708	0.099
178.000	-19.438	0.099
178.100	-34.431	0.099
178.200	-11.734	0.099
178.300	-18.643	0.099
178.400	-12.734	0.099
178.500	-6.545	0.099
178.600	-11.983	0.099
178.700	-9.886	0.099
178.800	-19.743	0.099
178.900	-30.212	0.099
179.000	-21.794	0.099
179.100	-19.471	0.099
179.200	-16.769	0.099
179.300	-7.138	0.099
179.400	-16.352	0.099
179.500	-32.491	0.099
179.600	-12.765	0.099
179.700	-12.088	0.099
179.800	-9.030	0.099
179.900	-5.192	0.099
180.000	-11.069	0.099
180.100	-21.880	0.099
180.200	-22.964	0.099
180.300	-17.983	0.099
180.400	-15.119	0.099
180.500	-22.335	0.099
180.600	-27.225	0.099
180.700	-3.652	0.099
180.800	-8.909	0.099
180.900	-11.194	0.099
181.000	0.237	0.099
181.100	-10.440	0.099
181.200	7.512	0.099
181.300	-9.110	0.099
181.400	3.366	0.099
181.500	1.803	0.099
181.600	11.305	0.099
181.700	-2.998	0.099
181.800	22.670	0.099
181.900	13.108	0.099
182.000	2.044	0.099
182.100	13.419	0.099
182.200	22.453	0.099
182.300	15.600	0.099
182.400	13.010	0.099
182.500	9.284	0.099
182.600	25.450	0.099
182.700	23.129	0.099
182.800	15.669	0.099
182.900	19.869	0.099
183.000	-1.901	0.099
183.100	7.671	0.099
183.200	21.798	0.099
183.300	25.482	0.099
183.400	24.500	0.099
183.500	6.424	0.099
183.600	21.825	0.099
183.700	12.829	0.099
183.800	36.327	0.099
183.900	33.932	0.099
184.000	24.489	0.099
184.100	27.684	0.099
184.200	16.525	0.099
184.300	13.219	0.099
184.400	23.628	0.099
184.500	15.201	0.099
184.600	16.556	0.099
184.700	32.052	0.099
184.800	19.517	0.099
184.900	25.378	0.099
185.000	20.284	0.099
185.100	13.492	0.099
185.200	1.100	0.099
185.300	25.040	0.099
185.400	30.794	0.099
185.500	33.828	0.099
185.600	22.878	0.099
185.700	21.698	0.099
185.800	7.278	0.099
185.900	8.236	0.099
186.000	36.300	0.099
186.100	22.097	0.099
186.200	17.265	0.099
186.300	7.505	0.099
186.400	24.894	0.099
186.500	20.640	0.099
186.600	27.973	0.099
186.700	25.403	0.099
186.800	15.428	0.099
186.900	5.380	0.099
187.000	23.216	0.099
187.100	23.831	0.099
187.200	18.967	0.099
187.300	23.909	0.099
187.400	28.470	0.099
187.500	25.236	0.099
187.600	2.335	0.099
187.700	16.579	0.099
187.800	14.939	0.099
187.900	15.932	0.099
188.000	31.443	0.099
188.100	26.604	0.099
188.200	12.364	0.099
188.300	31.836	0.099
188.400	28.696	0.099
188.500	25.994	0.099
188.600	14.034	0.099
188.700	18.990	0.099
188.800	11.224	0.099
188.900	27.353	0.099
189.000	31.332	0.099
189.100	34.863	0.099
189.200	19.865	0.099
189.300	32.502	0.099
189.400	22.738	0.099
189.500	24.163	0.099
189.600	29.120	0.099
189.700	37.161	0.099
189.800	27.326	0.099
189.900	26.504	0.099
190.000	14.623	0.099
190.100	34.363	0.099
190.200	37.409	0.099
190.300	28.683	0.099
190.400	29.659	0.099
190.500	33.371	0.099
190.600	31.879	0.099
190.700	22.720	0.099
190.800	25.711	0.099
190.900	21.181	0.099
191.000	14.819	0.099
191.100	15.996	0.099
191.200	40.481	0.099
191.300	17.880	0.099
191.400	15.549	0.099
191.500	33.353	0.099
191.600	36.687	0.099
191.700	25.365	0.099
191.800	20.331	0.099
191.900	21.082	0.099
192.000	14.952	0.099
192.100	35.943	0.099
192.200	29.271	0.099
192.300	27.505	0.099
192.400	35.936	0.099
192.500	34.178	0.099
192.600	27.980	0.099
192.700	20.663	0.099
192.800	24.328	0.099
192.900	34.831	0.099
193.000	43.037	0.099
193.100	24.850	0.099
193.200	27.285	0.099
193.300	35.610	0.099
193.400	32.948	0.099
193.500	32.696	0.099
193.600	24.301	0.099
193.700	28.767	0.099
193.800	39.420	0.099
193.900	44.766	0.099
194.000	33.688	0.099
194.100	23.574	0.099
194.200	35.293	0.099
194.300	41.398	0.099
194.400	47.277	0.099
194.500	30.274	0.099
194.600	34.771	0.099
194.700	49.629	0.099
194.800	50.493	0.099
194.900	46.202	0.099
195.000	44.282	0.099
195.100	51.163	0.099
195.200	38.646	0.099
195.300	44.184	0.099
195.400	55.228	0.099
195.500	45.338	0.099
195.600	41.595	0.099
195.700	46.959	0.099
195.800	48.240	0.099
195.900	36.574	0.099
196.000	46.830	0.099
196.100	53.109	0.099
196.200	43.224	0.099
196.300	42.470	0.099
196.400	45.088	0.099
196.500	60.952	0.099
196.600	48.529	0.099
196.700	55.226	0.099
196.800	48.952	0.099
196.900	45.379	0.099
197.000	32.688	0.099
197.100	58.610	0.099
197.200	61.923	0.099
197.300	57.779	0.099
197.400	53.397	0.099
197.500	49.723	0.099
197.600	60.705	0.099
197.700	49.742	0.099
197.800	46.551	0.099
197.900	55.172	0.099
198.000	46.791	0.099
198.100	51.776	0.099
198.200	66.046	0.099
198.300	54.283	0.099
198.400	46.465	0.099
198.500	44.678	0.099
198.600	57.729	0.099
198.700	58.539	0.099
198.800	54.467	0.099
198.900	57.571	0.099
199.000	64.502	0.099
199.100	51.211	0.099
199.200	57.580	0.099
199.300	56.242	0.099
199.400	40.910	0.099
199.500	56.759	0.099
199.600	60.557	0.099
199.700	66.744	0.099
199.800	62.152	0.099
199.900	63.526	0.099
200.000	70.160	0.099
200.100	36.928	0.099
200.200	68.204	0.099
200.300	61.899	0.099
200.400	65.432	0.099
200.500	64.125	0.099
200.600	63.219	0.099
200.700	62.373	0.099
200.800	69.401	0.099
200.900	79.487	0.099
201.000	66.816	0.099
201.100	56.969	0.099
201.200	59.330	0.099
201.300	61.767	0.099
201.400	66.567	0.099
201.500	68.756	0.099
201.600	64.868	0.099
201.700	68.449	0.099
201.800	86.337	0.099
201.900	72.288	0.099
202.000	73.097	0.099
202.100	74.038	0.099
202.200	65.479	0.099
202.300	65.860	0.099
202.400	65.852	0.099
202.500	60.186	0.099
202.600	67.358	0.099
202.700	84.820	0.099
202.800	56.670	0.099
202.900	64.283	0.099
203.000	77.293	0.099
203.100	75.854	0.099
203.200	77.123	0.099
203.300	62.974	0.099
203.400	64.439	0.099
203.500	71.712	0.099
203.600	79.018	0.099
203.700	68.936	0.099
203.800	67.345	0.099
203.900	53.285	0.099
204.000	57.801	0.099
204.100	62.109	0.099
204.200	73.324	0.099
204.300	66.328	0.099
204.400	80.033	0.099
204.500	64.852	0.099
204.600	57.355	0.099
204.700	67.231	0.099
204.800	69.326	0.099
204.900	71.047	0.099
205.000	80.693	0.099
205.100	80.751	0.099
205.200	74.244	0.099
205.300	61.295	0.099
205.400	74.378	0.099
205.500	68.265	0.099
205.600	71.887	0.099
205.700	75.498	0.099
205.800	82.038	0.099
205.900	69.003	0.099
206.000	58.847	0.099
206.100	85.511	0.099
206.200	69.952	0.099
206.300	75.878	0.099
206.400	74.019	0.099
206.500	70.547	0.099
206.600	67.686	0.099
206.700	78.151	0.099
206.800	60.016	0.099
206.900	80.747	0.099
207.000	82.342	0.099
207.100	58.405	0.099
207.200	87.404	0.099
207.300	79.074	0.099
207.400	54.419	0.099
207.500	93.637	0.099
207.600	79.926	0.099
207.700	80.954	0.099
207.800	68.734	0.099
207.900	62.246	0.099
208.000	65.718	0.099
208.100	73.004	0.099
208.200	77.384	0.099
208.300	68.493	0.099
208.400	74.287	0.099
208.500	87.379	0.099
208.600	57.857	0.099
208.700	71.376	0.099
208.800	74.936	0.099
208.900	73.727	0.099
209.000	73.916	0.099
209.100	75.992	0.099
209.200	71.666	0.099
209.300	83.489	0.099
209.400	55.309	0.099
209.500	66.259	0.099
209.600	68.395	0.100
209.700	76.222	0.100
209.800	78.310	0.100
209.900	74.164	0.100
210.000	71.109	0.100
210.100	72.927	0.100
210.200	74.498	0.100
210.300	70.801	0.100
210.400	59.739	0.100
210.500	77.725	0.100
210.600	62.121	0.100
210.700	64.931	0.100
210.800	75.089	0.100
210.900	74.677	0.100
211.000	62.555	0.100
211.100	71.065	0.100
211.200	83.364	0.100
211.300	66.031	0.100
211.400	76.652	0.100
211.500	80.987	0.100
211.600	69.561	0.100
211.700	73.948	0.100
211.800	79.055	0.100
211.900	87.125	0.100
212.000	78.797	0.100
212.100	60.931	0.100
212.200	61.005	0.100
212.300	83.045	0.100
212.400	77.372	0.100
212.500	72.851	0.100
212.600	74.039	0.100
212.700	62.853	0.100
212.800	68.569	0.100
212.900	70.716	0.100
213.000	84.455	0.100
213.100	66.383	0.100
213.200	77.065	0.100
213.300	75.214	0.100
213.400	70.355	0.100
213.500	73.255	0.100
213.600	85.110	0.100
213.700	78.410	0.100
213.800	70.209	0.100
213.900	61.756	0.100
214.000	65.732	0.100
214.100	81.483	0.100
214.200	76.961	0.100
214.300	83.884	0.100
214.400	81.079	0.100
214.500	75.398	0.100
214.600	65.309	0.100
214.700	67.332	0.100
214.800	72.823	0.100
214.900	62.332	0.100
215.000	79.604	0.100
215.100	60.138	0.100
215.200	78.401	0.100
215.300	82.122	0.100
215.400	79.715	0.100
215.500	80.978	0.100
215.600	74.134	0.100
215.700	75.593	0.100
215.800	76.246	0.100
215.900	66.336	0.100
216.000	65.442	0.100
216.100	65.428	0.100
216.200	76.875	0.100
216.300	69.272	0.100
216.400	74.984	0.100
216.500	69.595	0.100
216.600	76.174	0.100
216.700	66.243	0.100
216.800	80.791	0.100
216.900	59.928	0.100
217.000	62.567	0.100
217.100	65.585	0.100
217.200	73.080	0.100
217.300	73.461	0.100
217.400	82.470	0.100
217.500	80.853	0.100
217.600	83.556	0.100
217.700	76.927	0.100
217.800	77.384	0.100
217.900	67.983	0.100
218.000	68.946	0.100
218.100	66.586	0.100
218.200	67.429	0.100
218.300	70.246	0.100
218.400	67.796	0.100
218.500	67.987	0.100
218.600	78.813	0.100
218.700	54.203	0.100
218.800	68.701	0.100
218.900	63.117	0.100
219.000	65.913	0.100
219.100	81.756	0.100
219.200	76.796	0.100
219.300	63.943	0.100
219.400	68.932	0.100
219.500	73.678	0.100
219.600	72.005	0.100
219.700	75.133	0.100
219.800	74.429	0.100
219.900	70.394	0.100
220.000	76.968	0.100
220.100	74.655	0.100
220.200	70.236	0.100
220.300	85.460	0.100
220.400	74.045	0.100
220.500	75.708	0.100
220.600	72.973	0.100
220.700	65.671	0.100
220.800	62.248	0.100
220.900	76.580	0.100
221.000	69.843	0.100
221.100	73.636	0.100
221.200	70.150	0.100
221.300	74.501	0.100
221.400	52.721	0.100
221.500	64.690	0.100
221.600	71.049	0.100
221.700	67.396	0.100
221.800	75.920	0.100
221.900	74.025	0.100
222.000	75.067	0.100
222.100	73.085	0.100
222.200	72.386	0.100
222.300	74.465	0.100
222.400	77.338	0.100
222.500	82.913	0.100
222.600	81.482	0.100
222.700	66.253	0.100
222.800	59.492	0.100
222.900	77.141	0.100
223.000	68.304	0.100
223.100	76.686	0.100
223.200	82.792	0.100
223.300	63.216	0.100
223.400	69.807	0.100
223.500	64.342	0.100
223.600	68.455	0.100
223.700	59.260	0.100
223.800	66.804	0.100
223.900	71.392	0.100
224.000	70.048	0.100
224.100	91.452	0.100
224.200	73.562	0.100
224.300	75.515	0.100
224.400	72.395	0.100
224.500	78.698	0.100
224.600	71.995	0.100
224.700	76.142	0.100
224.800	77.785	0.100
224.900	67.948	0.100
225.000	72.837	0.100
225.100	73.840	0.100
225.200	67.771	0.100
225.300	68.742	0.100
225.400	75.695	0.100
225.500	83.798	0.100
225.600	67.423	0.100
225.700	66.108	0.100
225.800	70.064	0.100
225.900	85.445	0.100
226.000	74.474	0.100
226.100	65.973	0.100
226.200	67.264	0.100
226.300	67.617	0.100
226.400	65.172	0.100
226.500	62.642	0.100
226.600	67.914	0.100
226.700	81.316	0.100
226.800	67.580	0.100
226.900	66.865	0.100
227.000	57.817	0.100
227.100	56.980	0.100
227.200	87.062	0.100
227.300	76.835	0.100
227.400	66.980	0.100
227.500	71.070	0.100
227.600	75.801	0.100
227.700	74.652	0.100
227.800	68.041	0.100
227.900	70.497	0.100
228.000	71.704	0.100
228.100	49.162	0.100
228.200	88.046	0.100
228.300	68.577	0.100
228.400	60.695	0.100
228.500	69.209	0.100
228.600	70.875	0.100
228.700	70.157	0.100
228.800	65.711	0.100
228.900	80.277	0.100
229.000	72.613	0.100
229.100	77.122	0.100
229.200	73.151	0.100
229.300	58.899	0.100
229.400	55.347	0.100
229.500	74.984	0.100
229.600	69.948	0.100
229.700	65.458	0.100
229.800	65.241	0.100
229.900	65.636	0.100
230.000	75.853	0.100
230.100	74.098	0.100
230.200	79.860	0.100
230.300	63.604	0.100
230.400	67.814	0.100
230.500	68.560	0.100
230.600	56.485	0.100
230.700	61.749	0.100
230.800	73.554	0.100
230.900	86.052	0.100
231.000	76.557	0.100
231.100	78.788	0.100
231.200	75.475	0.100
231.300	76.121	0.100
231.400	64.056	0.100
231.500	77.037	0.100
231.600	74.859	0.100
231.700	75.892	0.100
231.800	67.678	0.100
231.900	66.481	0.100
232.000	74.492	0.100
232.100	73.213	0.100
232.200	73.175	0.100
232.300	72.397	0.100
232.400	77.554	0.100
232.500	53.725	0.100
232.600	65.200	0.100
232.700	63.490	0.100
232.800	81.975	0.100
232.900	53.663	0.100
233.000	67.522	0.100
233.100	79.101	0.100
233.200	71.666	0.100
233.300	70.470	0.100
233.400	70.469	0.100
233.500	73.260	0.100
233.600	64.170	0.100
233.700	73.653	0.100
233.800	64.942	0.100
233.900	55.195	0.100
234.000	64.620	0.100
234.100	61.170	0.100
234.200	71.540	0.100
234.300	72.061	0.100
234.400	51.600	0.100
234.500	70.194	0.100
234.600	78.284	0.100
234.700	79.598	0.100
234.800	74.781	0.100
234.900	75.025	0.100
235.000	74.756	0.100
235.100	62.381	0.100
235.200	66.898	0.100
235.300	80.513	0.100
235.400	64.937	0.100
235.500	67.244	0.100
235.600	71.321	0.100
235.700	73.200	0.100
235.800	61.608	0.100
235.900	52.683	0.100
236.000	81.068	0.100
236.100	77.529	0.100
236.200	69.708	0.100
236.300	77.456	0.100
236.400	82.174	0.100
236.500	56.704	0.100
236.600	73.596	0.100
236.700	64.712	0.100
236.800	54.018	0.100
236.900	71.299	0.100
237.000	64.304	0.100
237.100	69.835	0.100
237.200	80.767	0.100
237.300	68.976	0.100
237.400	67.282	0.100
237.500	66.369	0.100
237.600	76.779	0.100
237.700	76.424	0.100
237.800	65.009	0.100
237.900	74.404	0.100
238.000	58.903	0.100
238.100	71.779	0.100
238.200	73.402	0.100
238.300	60.885	0.100
238.400	56.979	0.100
238.500	65.391	0.100
238.600	70.054	0.100
238.700	66.330	0.100
238.800	70.742	0.100
238.900	80.368	0.100
239.000	61.668	0.100
239.100	63.947	0.100
239.200	69.554	0.100
239.300	60.939	0.100
239.400	73.394	0.100
239.500	73.141	0.100
239.600	67.369	0.100
239.700	70.797	0.100
239.800	63.818	0.100
239.900	82.506	0.100
240.000	63.593	0.100
240.100	75.771	0.100
240.200	70.809	0.100
240.300	64.678	0.100
240.400	63.372	0.100
240.500	69.282	0.100
240.600	66.783	0.100
240.700	71.530	0.100
240.800	60.645	0.100
240.900	57.818	0.100
241.000	58.196	0.100
241.100	49.847	0.100
241.200	57.051	0.100
241.300	56.582	0.100
241.400	62.069	0.100
241.500	53.733	0.100
241.600	47.767	0.100
241.700	48.408	0.100
241.800	35.010	0.100
241.900	39.786	0.100
242.000	35.944	0.100
242.100	45.875	0.100
242.200	29.755	0.100
242.300	54.500	0.100
242.400	50.362	0.100
242.500	38.088	0.100
242.600	25.202	0.100
242.700	35.856	0.100
242.800	23.125	0.100
242.900	45.754	0.100
243.000	30.039	0.100
243.100	19.452	0.100
243.200	22.377	0.100
243.300	11.489	0.100
243.400	26.861	0.100
243.500	30.110	0.100
243.600	32.138	0.100
243.700	22.690	0.100
243.800	20.514	0.100
243.900	19.974	0.100
244.000	39.699	0.100
244.100	21.785	0.100
244.200	8.164	0.100
244.300	24.300	0.100
244.400	25.747	0.100
244.500	11.522	0.100
244.600	18.407	0.100
244.700	17.654	0.100
244.800	23.633	0.100
244.900	22.894	0.100
245.000	6.856	0.100
245.100	4.708	0.100
245.200	1.935	0.100
245.300	27.221	0.100
245.400	29.373	0.100
245.500	12.186	0.100
245.600	21.134	0.100
245.700	-4.127	0.100
245.800	7.877	0.100
245.900	14.861	0.100
246.000	16.010	0.100
246.100	-4.133	0.100
246.200	6.024	0.100
246.300	18.659	0.100
246.400	14.994	0.100
246.500	12.354	0.100
246.600	12.239	0.100
246.700	2.776	0.100
246.800	1.699	0.100
246.900	2.979	0.100
247.000	24.514	0.100
247.100	6.345	0.100
247.200	1.462	0.100
247.300	6.202	0.100
247.400	13.808	0.100
247.500	6.330	0.100
247.600	8.784	0.100
247.700	10.282	0.100
247.800	15.449	0.100
247.900	8.753	0.100
248.000	-0.818	0.100
248.100	12.791	0.100
248.200	0.960	0.100
248.300	-1.914	0.100
248.400	6.439	0.100
248.500	1.443	0.100
248.600	9.067	0.100
248.700	1.700	0.100
248.800	9.115	0.100
248.900	2.320	0.100
249.000	-2.687	0.100
249.100	14.344	0.100
249.200	-4.454	0.100
249.300	15.564	0.100
249.400	-8.213	0.100
249.500	8.177	0.100
249.600	9.975	0.100
249.700	13.443	0.100
249.800	7.167	0.100
249.900	5.615	0.100
250.000	-3.019	0.100
250.100	-2.554	0.100
250.200	18.176	0.100
250.300	10.814	0.100
250.400	-8.454	0.100
250.500	5.604	0.100
250.600	18.165	0.100
250.700	6.423	0.100
250.800	-1.602	0.100
250.900	-4.146	0.100
251.000	5.876	0.100
251.100	-1.345	0.100
251.200	8.059	0.100
251.300	4.409	0.100
251.400	-5.093	0.100
251.500	12.104	0.100
251.600	4.724	0.100
251.700	-4.430	0.100
251.800	-5.986	0.100
251.900	-2.387	0.100
252.000	4.622	0.100
252.100	17.018	0.100
252.200	9.364	0.100
252.300	-9.364	0.100
252.400	10.286	0.100
252.500	3.500	0.100
252.600	-18.531	0.100
252.700	12.046	0.100
252.800	7.008	0.100
252.900	-4.600	0.100
253.000	-16.429	0.100
253.100	7.706	0.100
253.200	-9.290	0.100
253.300	1.211	0.100
253.400	-2.456	0.100
253.500	6.818	0.100
253.600	6.081	0.100
253.700	7.957	0.100
253.800	-3.662	0.100
253.900	-16.213	0.100
254.000	4.288	0.100
254.100	6.186	0.100
254.200	-11.104	0.100
254.300	-4.992	0.100
254.400	-5.764	0.100
254.500	-5.240	0.100
254.600	2.266	0.100
254.700	4.361	0.100
254.800	11.917	0.100
254.900	3.696	0.100
255.000	-11.630	0.100
255.100	-4.273	0.100
255.200	1.819	0.100
255.300	0.051	0.100
255.400	3.711	0.100
255.500	-2.889	0.100
255.600	-2.352	0.100
255.700	0.699	0.100
255.800	0.554	0.100
255.900	-9.135	0.100
256.000	-8.233	0.100
256.100	-1.155	0.100
256.200	-8.652	0.100
256.300	-5.954	0.100
256.400	-13.097	0.100
256.500	-9.587	0.100
256.600	-6.474	0.100
256.700	-10.937	0.100
256.800	6.842	0.100
256.900	-4.259	0.100
257.000	0.193	0.100
257.100	-5.050	0.100
257.200	-0.753	0.100
257.300	-14.608	0.100
257.400	-25.316	0.100
257.500	-6.396	0.100
257.600	2.746	0.100
257.700	18.741	0.100
257.800	-11.554	0.100
257.900	-4.178	0.100
258.000	-3.639	0.100
258.100	-4.870	0.100
258.200	-16.120	0.100
258.300	-3.130	0.100
258.400	-5.020	0.100
258.500	-21.740	0.100
258.600	-9.251	0.100
258.700	-6.357	0.100
258.800	-12.692	0.100
258.900	-19.622	0.100
259.000	-2.580	0.100
259.100	-2.230	0.100
259.200	-18.778	0.100
259.300	-7.642	0.100
259.400	-4.788	0.100
259.500	-6.281	0.100
259.600	-9.148	0.100
259.700	-21.139	0.100
259.800	2.032	0.100
259.900	-11.173	0.100
260.000	-15.958	0.100
260.100	1.647	0.100
260.200	-9.860	0.100
260.300	-2.704	0.100
260.400	-4.451	0.100
260.500	-24.356	0.100
260.600	-7.687	0.100
260.700	-7.279	0.100
260.800	-10.929	0.100
260.900	-29.585	0.100
261.000	-5.025	0.100
261.100	-0.162	0.100
261.200	-12.391	0.100
261.300	-9.774	0.100
261.400	-9.866	0.100
261.500	-7.365	0.100
261.600	-12.862	0.100
261.700	-37.912	0.100
261.800	-4.114	0.100
261.900	-0.737	0.100
262.000	-6.249	0.100
262.100	-26.600	0.100
262.200	-9.385	0.100
262.300	-4.209	0.100
262.400	0.608	0.100
262.500	-7.133	0.100
262.600	-13.480	0.100
262.700	-15.535	0.100
262.800	-10.183	0.100
262.900	-37.288	0.100
263.000	-18.431	0.100
263.100	-6.097	0.100
263.200	1.273	0.100
263.300	-17.215	0.100
263.400	-23.962	0.100
263.500	-23.026	0.100
263.600	-9.787	0.100
263.700	-3.685	0.100
263.800	-24.251	0.100
263.900	-9.847	0.100
264.000	-8.352	0.100
264.100	-12.718	0.100
264.200	-0.631	0.100
264.300	-16.009	0.100
264.400	-11.138	0.100
264.500	-19.325	0.100
264.600	-8.315	0.100
264.700	-14.425	0.100
264.800	-14.535	0.100
264.900	-23.136	0.100
265.000	-10.106	0.100
265.100	-5.267	0.100
265.200	-8.480	0.100
265.300	-7.050	0.100
265.400	-14.028	0.100
265.500	-24.064	0.100
265.600	-18.780	0.100
265.700	-10.280	0.100
265.800	-14.288	0.100
265.900	-2.751	0.100
266.000	-11.743	0.100
266.100	-5.559	0.100
266.200	-27.247	0.100
266.300	-14.674	0.100
266.400	-16.037	0.100
266.500	-20.910	0.100
266.600	-8.906	0.100
266.700	-25.325	0.100
266.800	-3.155	0.100
266.900	-10.732	0.100
267.000	-7.139	0.100
267.100	-19.811	0.100
267.200	-18.870	0.100
267.300	-15.520	0.100
267.400	-14.925	0.100
267.500	-12.355	0.100
267.600	-22.222	0.100
267.700	-33.738	0.100
267.800	-17.974	0.100
267.900	-8.416	0.100
268.000	-20.754	0.100
268.100	-21.310	0.100
268.200	-1.982	0.100
268.300	-11.079	0.100
268.400	-27.204	0.100
268.500	-28.585	0.100
268.600	-21.539	0.100
268.700	-19.742	0.100
268.800	-13.841	0.100
268.900	-16.291	0.100
269.000	-19.398	0.100
269.100	-22.393	0.100
269.200	-3.378	0.100
269.300	-22.777	0.100
269.400	-23.032	0.100
269.500	-20.110	0.100
269.600	-13.742	0.100
269.700	-24.046	0.100
269.800	-28.831	0.100
269.900	-24.184	0.100
270.000	-22.492	0.100
270.100	-21.283	0.100
270.200	-19.749	0.100
270.300	-21.833	0.100
270.400	-25.519	0.100
270.500	-25.512	0.100
270.600	-15.739	0.100
270.700	-14.999	0.100
270.800	-17.252	0.100
270.900	-17.874	0.100
271.000	-12.045	0.100
271.100	-32.386	0.100
271.200	-14.847	0.100
271.300	-16.685	0.100
271.400	-18.179	0.100
271.500	-12.086	0.100
271.600	-19.113	0.100
271.700	-27.761	0.100
271.800	-26.200	0.100
271.900	-22.057	0.100
272.000	-8.559	0.100
272.100	-30.403	0.100
272.200	-16.037	0.100
272.300	-35.364	0.100
272.400	-18.067	0.100
272.500	-17.237	0.100
272.600	-18.777	0.100
272.700	-19.295	0.100
272.800	-15.095	0.100
272.900	-20.631	0.100
273.000	-21.435	0.100
273.100	-30.618	0.100
273.200	-22.965	0.100
273.300	-19.051	0.100
273.400	-23.461	0.100
273.500	-25.394	0.100
273.600	-20.434	0.100
273.700	-17.733	0.100
273.800	-17.211	0.100
273.900	-17.573	0.100
274.000	-20.439	0.100
274.100	-23.770	0.100
274.200	-11.857	0.100
274.300	-15.242	0.100
274.400	-22.118	0.100
274.500	-38.283	0.100
274.600	-29.907	0.100
274.700	-31.759	0.100
274.800	-8.322	0.100
274.900	-12.341	0.100
275.000	-25.150	0.100
275.100	-22.807	0.100
275.200	-25.405	0.100
275.300	-21.640	0.100
275.400	-22.170	0.100
275.500	-34.027	0.100
275.600	-16.049	0.100
275.700	-19.600	0.100
275.800	-19.436	0.100
275.900	-16.864	0.100
276.000	-33.677	0.100
276.100	-16.389	0.100
276.200	-32.608	0.100
276.300	-26.627	0.100
276.400	-15.909	0.100
276.500	-33.751	0.100
276.600	-37.651	0.100
276.700	-37.705	0.100
276.800	-16.675	0.100
276.900	-13.568	0.100
277.000	-25.151	0.100
277.100	-19.283	0.100
277.200	-34.108	0.100
277.300	-34.458	0.100
277.400	-17.729	0.100
277.500	-21.500	0.100
277.600	-19.972	0.100
277.700	-24.988	0.100
277.800	-19.260	0.100
277.900	-18.226	0.100
278.000	-20.538	0.100
278.100	-26.517	0.100
278.200	-29.334	0.100
278.300	-38.199	0.100
278.400	-11.845	0.100
278.500	-16.505	0.100
278.600	-24.363	0.100
278.700	-17.106	0.100
278.800	-27.542	0.100
278.900	-32.383	0.100
279.000	-33.653	0.100
279.100	-19.321	0.100
279.200	-6.883	0.100
279.300	-26.397	0.100
279.400	-23.522	0.100
279.500	-16.227	0.100
279.600	-15.030	0.100
279.700	-22.902	0.100
279.800	-13.590	0.100
279.900	-27.220	0.100
280.000	-24.843	0.100
280.100	-26.619	0.100
280.200	-21.647	0.100
280.300	-21.421	0.100
280.400	-26.974	0.100
280.500	-29.014	0.100
280.600	-33.860	0.100
280.700	-28.263	0.100
280.800	-32.433	0.100
280.900	-13.905	0.100
281.000	-26.194	0.100
281.100	-36.925	0.100
281.200	-32.417	0.100
281.300	-19.305	0.100
281.400	-29.075	0.100
281.500	-25.998	0.100
281.600	-14.211	0.100
281.700	-9.106	0.100
281.800	-21.440	0.100
281.900	-21.377	0.100
282.000	-34.610	0.100
282.100	-35.123	0.100
282.200	-23.218	0.100
282.300	-31.873	0.100
282.400	-26.628	0.100
282.500	-19.369	0.100
282.600	-27.246	0.100
282.700	-28.183	0.100
282.800	-14.571	0.100
282.900	-26.271	0.100
283.000	-35.860	0.100
283.100	-26.537	0.100
283.200	-15.099	0.100
283.300	-22.073	0.100
283.400	-28.418	0.100
283.500	-24.144	0.100
283.600	-29.517	0.100
283.700	-33.028	0.100
283.800	-16.905	0.100
283.900	-38.738	0.100
284.000	-28.137	0.100
284.100	-36.468	0.100
284.200	-29.905	0.100
284.300	-26.608	0.100
284.400	-22.184	0.100
284.500	-13.476	0.100
284.600	-23.380	0.100
284.700	-9.971	0.100
284.800	-23.341	0.100
284.900	-36.062	0.100
285.000	-33.147	0.100
285.100	-24.454	0.100
285.200	-21.510	0.100
285.300	-19.635	0.100
285.400	-11.047	0.100
285.500	-13.404	0.100
285.600	-25.029	0.100
285.700	-15.552	0.100
285.800	-13.543	0.100
285.900	-29.821	0.100
286.000	-31.117	0.100
286.100	-23.062	0.100
286.200	-24.572	0.100
286.300	-22.694	0.100
286.400	-24.672	0.100
286.500	-25.056	0.100
286.600	-39.978	0.100
286.700	-44.796	0.100
286.800	-18.947	0.100
286.900	-15.521	0.100
287.000	-18.866	0.100
287.100	-25.060	0.100
287.200	-20.827	0.100
287.300	-26.156	0.100
287.400	-34.387	0.100
287.500	-30.025	0.100
287.600	-19.983	0.100
287.700	-20.048	0.100
287.800	-26.324	0.100
287.900	-25.213	0.100
288.000	-20.098	0.100
288.100	-27.515	0.100
288.200	-35.217	0.100
288.300	-30.276	0.100
288.400	-17.242	0.100
288.500	-8.580	0.100
288.600	-24.035	0.100
288.700	-17.978	0.100
288.800	-34.436	0.100
288.900	-25.430	0.100
289.000	-35.359	0.100
289.100	-37.704	0.100
289.200	-23.952	0.100
289.300	-25.920	0.100
289.400	-19.941	0.100
289.500	-23.502	0.100
289.600	-30.937	0.100
289.700	-22.819	0.100
289.800	-15.963	0.100
289.900	-26.314	0.100
290.000	-22.973	0.100
290.100	-20.496	0.100
290.200	-15.919	0.100
290.300	-26.193	0.100
290.400	-28.143	0.100
290.500	-25.374	0.100
290.600	-27.532	0.100
290.700	-31.536	0.100
290.800	-12.404	0.100
290.900	-24.548	0.100
291.000	-31.300	0.100
291.100	-15.836	0.100
291.200	-19.532	0.100
291.300	-28.914	0.100
291.400	-35.330	0.100
291.500	-24.086	0.100
291.600	-21.258	0.100
291.700	-30.664	0.100
291.800	-25.080	0.100
291.900	-40.010	0.100
292.000	-36.442	0.100
292.100	-10.005	0.100
292.200	-38.405	0.100
292.300	-19.059	0.100
292.400	-26.025	0.100
292.500	-46.159	0.100
292.600	-33.476	0.100
292.700	-15.362	0.100
292.800	-24.344	0.100
292.900	-13.390	0.100
293.000	-24.126	0.100
293.100	-23.403	0.100
293.200	-25.686	0.100
293.300	-29.183	0.100
293.400	-24.281	0.100
293.500	-28.777	0.100
293.600	-17.749	0.100
293.700	-29.396	0.100
293.800	-34.278	0.100
293.900	-18.082	0.100
294.000	-16.692	0.100
294.100	-11.122	0.100
294.200	-20.587	0.100
294.300	-10.585	0.100
294.400	-26.288	0.100
294.500	-28.388	0.100
294.600	-25.168	0.100
294.700	-26.454	0.100
294.800	-25.105	0.100
294.900	-21.024	0.100
295.000	-31.992	0.100
295.100	-16.744	0.100
295.200	-24.166	0.100
295.300	-27.065	0.100
295.400	-29.923	0.100
295.500	-30.346	0.100
295.600	-33.515	0.100
295.700	-28.074	0.100
295.800	-31.878	0.100
295.900	-13.845	0.100
296.000	-28.750	0.100
296.100	-24.441	0.100
296.200	-16.311	0.100
296.300	-22.532	0.100
296.400	-24.341	0.100
296.500	-31.408	0.100
296.600	-16.387	0.100
296.700	-9.374	0.100
296.800	-17.011	0.100
296.900	-36.671	0.100
297.000	-25.995	0.100
297.100	-20.993	0.100
297.200	-16.142	0.100
297.300	-23.864	0.100
297.400	-14.744	0.100
297.500	-13.707	0.100
297.600	-36.972	0.100
297.700	-31.960	0.100
297.800	-29.648	0.100
297.900	-25.985	0.100
298.000	-15.219	0.100
298.100	-18.083	0.100
298.200	-30.148	0.100
298.300	-17.964	0.100
298.400	-26.198	0.100
298.500	-17.121	0.100
298.600	-25.517	0.100
298.700	-24.342	0.100
298.800	-23.942	0.100
298.900	-20.409	0.100
299.000	-36.273	0.100
299.100	-23.378	0.100
299.200	-30.659	0.100
299.300	-35.050	0.100
299.400	-7.106	0.100
299.500	-7.029	0.100
299.600	-24.402	0.100
299.700	-8.674	0.100
299.800	-25.092	0.100
299.900	-18.484	0.100
300.000	-30.564	0.100
300.100	-18.157	0.100
300.200	-16.149	0.100
300.300	-23.401	0.100
300.400	-20.362	0.100
300.500	-27.081	0.100
300.600	-21.665	0.100
300.700	-23.666	0.100
300.800	-37.946	0.100
300.900	-26.299	0.100
301.000	-25.196	0.100
301.100	-46.067	0.100
301.200	-24.673	0.100
301.300	-20.483	0.100
301.400	-13.993	0.100
301.500	-29.115	0.100
301.600	-19.352	0.100
301.700	-28.238	0.100
301.800	-10.877	0.100
301.900	-12.113	0.100
302.000	-16.956	0.100
302.100	-20.100	0.100
302.200	-25.594	0.100
302.300	-33.995	0.100
302.400	-25.001	0.100
302.500	-20.262	0.100
302.600	-37.677	0.100
302.700	-19.639	0.100
302.800	-17.384	0.100
302.900	-16.951	0.100
303.000	-21.899	0.100
303.100	-14.312	0.100
303.200	-29.632	0.100
303.300	-33.795	0.100
303.400	-22.535	0.100
303.500	-19.695	0.100
303.600	-15.064	0.100
303.700	-33.835	0.100
303.800	-14.264	0.100
303.900	-19.753	0.100
304.000	-19.557	0.100
304.100	-22.531	0.100
304.200	-30.898	0.100
304.300	-18.696	0.100
304.400	-24.088	0.100
304.500	-20.223	0.100
304.600	-21.431	0.100
304.700	-21.298	0.100
304.800	-17.405	0.100
304.900	-18.562	0.100
305.000	-21.237	0.100
305.100	-24.558	0.100
305.200	-30.949	0.100
305.300	-23.711	0.100
305.400	-23.642	0.100
305.500	-9.389	0.100
305.600	-22.078	0.100
305.700	-13.660	0.100
305.800	-21.058	0.100
305.900	-28.583	0.100
306.000	-21.778	0.100
306.100	-16.711	0.100
306.200	-33.795	0.100
306.300	-20.981	0.100
306.400	-34.989	0.100
306.500	-25.613	0.100
306.600	-25.963	0.100
306.700	-34.684	0.100
306.800	-22.075	0.100
306.900	-23.981	0.100
307.000	-4.192	0.100
307.100	-9.825	0.100
307.200	-29.031	0.100
307.300	-10.775	0.100
307.400	-21.174	0.100
307.500	-15.392	0.100
307.600	-14.725	0.100
307.700	-13.965	0.100
307.800	-15.104	0.100
307.900	-26.363	0.100
308.000	-32.944	0.100
308.100	-25.321	0.100
308.200	-17.593	0.100
308.300	-21.794	0.100
308.400	-27.001	0.100
308.500	-21.367	0.100
308.600	-8.861	0.100
308.700	-23.842	0.100
308.800	-25.870	0.100
308.900	-18.604	0.100
309.000	-15.709	0.100
309.100	-25.615	0.100
309.200	-24.219	0.100
309.300	-15.708	0.100
309.400	-13.036	0.100
309.500	-33.280	0.100
309.600	-35.757	0.100
309.700	-17.558	0.100
309.800	-22.978	0.100
309.900	-17.030	0.100
310.000	-16.188	0.100
310.100	-9.536	0.100
310.200	-34.019	0.100
310.300	-22.717	0.100
310.400	-25.670	0.100
310.500	-13.331	0.100
310.600	-21.540	0.100
310.700	-22.869	0.100
310.800	-22.642	0.100
310.900	-27.053	0.100
311.000	-31.848	0.100
311.100	-40.037	0.100
311.200	-26.040	0.100
311.300	-24.523	0.100
311.400	-33.452	0.100
311.500	-18.655	0.100
311.600	-15.635	0.100
311.700	-28.616	0.100
311.800	-17.768	0.100
311.900	-31.458	0.100
312.000	-30.980	0.100
312.100	-16.376	0.100
312.200	-28.000	0.100
312.300	-18.219	0.100
312.400	-38.466	0.100
312.500	-18.551	0.100
312.600	4.421	0.100
312.700	-16.888	0.100
312.800	-10.246	0.100
312.900	-31.522	0.100
313.000	-21.772	0.100
313.100	-11.819	0.100
313.200	-20.756	0.100
313.300	-14.406	0.100
313.400	-22.901	0.100
313.500	-28.239	0.100
313.600	-27.293	0.100
313.700	-20.604	0.100
313.800	-23.453	0.100
313.900	-36.938	0.100
314.000	-32.569	0.100
314.100	-10.257	0.100
314.200	-13.869	0.100
314.300	-23.210	0.100
314.400	-38.455	0.100
314.500	-27.337	0.100
314.600	-21.710	0.100
314.700	-19.565	0.100
314.800	-23.601	0.100
314.900	-15.674	0.100
315.000	-31.185	0.100
315.100	-30.341	0.100
315.200	-16.012	0.100
315.300	-20.012	0.100
315.400	-4.866	0.100
315.500	-13.499	0.100
315.600	-12.640	0.100
315.700	-30.589	0.100
315.800	-28.988	0.100
315.900	-23.951	0.100
316.000	-15.597	0.100
316.100	-39.402	0.100
316.200	-24.907	0.100
316.300	-10.527	0.100
316.400	-20.603	0.100
316.500	-15.736	0.100
316.600	-13.947	0.100
316.700	-11.064	0.100
316.800	-20.865	0.100
316.900	-30.832	0.100
317.000	-13.633	0.100
317.100	-21.555	0.100
317.200	-11.760	0.100
317.300	-26.249	0.100
317.400	-16.618	0.100
317.500	-19.472	0.100
317.600	-19.069	0.100
317.700	-13.243	0.100
317.800	-38.626	0.100
317.900	-28.239	0.100
318.000	-26.339	0.100
318.100	-6.833	0.100
318.200	-18.687	0.100
318.300	-13.206	0.100
318.400	-20.038	0.100
318.500	-14.018	0.100
318.600	-32.736	0.100
318.700	-38.098	0.100
318.800	-20.543	0.100
318.900	-19.394	0.100
319.000	-22.351	0.100
319.100	-29.799	0.100
319.200	-21.246	0.100
319.300	-20.150	0.100
319.400	-25.354	0.100
319.500	-7.155	0.100
319.600	-30.887	0.100
319.700	-15.994	0.100
319.800	-22.093	0.100
319.900	-35.496	0.100
320.000	-20.734	0.100
320.100	-11.602	0.100
320.200	-15.072	0.100
320.300	-22.838	0.100
320.400	-18.819	0.100
320.500	-12.546	0.100
320.600	-21.479	0.100
320.700	-29.069	0.100
320.800	-21.075	0.100
320.900	-23.280	0.100
321.000	-16.330	0.100
321.100	-17.946	0.100
321.200	-16.098	0.100
321.300	-19.373	0.100
321.400	-26.713	0.100
321.500	-22.813	0.100
321.600	-25.180	0.100
321.700	-29.930	0.100
321.800	-33.524	0.100
321.900	-12.953	0.100
322.000	-30.068	0.100
322.100	-16.313	0.100
322.200	-20.315	0.100
322.300	-31.157	0.100
322.400	-30.969	0.100
322.500	-24.654	0.100
322.600	-7.827	0.100
322.700	-40.572	0.100
322.800	-12.516	0.100
322.900	-10.644	0.100
323.000	-22.909	0.100
323.100	-22.135	0.100
323.200	-16.810	0.100
323.300	-12.935	0.100
323.400	-25.985	0.100
323.500	-19.462	0.100
323.600	-33.057	0.100
323.700	-16.896	0.100
323.800	-25.670	0.100
323.900	-2.658	0.100
324.000	-11.238	0.100
324.100	-24.855	0.100
324.200	-21.963	0.100
324.300	-18.070	0.100
324.400	-21.236	0.100
324.500	-33.826	0.100
324.600	-12.942	0.100
324.700	-9.385	0.100
324.800	-17.638	0.100
324.900	-23.036	0.100
325.000	-46.463	0.100
325.100	-27.601	0.100
325.200	-21.427	0.100
325.300	-9.500	0.100
325.400	-24.708	0.100
325.500	-23.029	0.100
325.600	-16.696	0.100
325.700	-24.558	0.100
325.800	-23.699	0.100
325.900	-14.058	0.100
326.000	-13.361	0.100
326.100	-15.941	0.100
326.200	-14.500	0.100
326.300	-23.048	0.100
326.400	-22.909	0.100
326.500	-30.313	0.100
326.600	-22.590	0.100
326.700	-34.652	0.100
326.800	-0.281	0.100
326.900	-14.312	0.100
327.000	-25.433	0.100
327.100	-19.330	0.100
327.200	-27.881	0.100
327.300	-21.282	0.100
327.400	-11.314	0.100
327.500	-18.267	0.100
327.600	-23.109	0.100
327.700	-16.901	0.100
327.800	-14.060	0.100
327.900	-16.722	0.100
328.000	-18.947	0.100
328.100	-22.546	0.100
328.200	-26.158	0.100
328.300	-7.283	0.100
328.400	-24.096	0.100
328.500	-6.303	0.100
328.600	-30.861	0.100
328.700	-33.523	0.100
328.800	-13.920	0.100
328.900	-19.927	0.100
329.000	-26.050	0.100
329.100	-15.218	0.100
329.200	-21.302	0.100
329.300	-13.122	0.100
329.400	-16.920	0.100
329.500	-12.777	0.100
329.600	-20.399	0.100
329.700	-28.599	0.100
329.800	-18.539	0.100
329.900	-14.738	0.100
330.000	-20.485	0.100
330.100	-18.388	0.100
330.200	-14.469	0.100
330.300	-19.882	0.100
330.400	-19.171	0.100
330.500	-16.721	0.100
330.600	-22.351	0.100
330.700	-27.153	0.100
330.800	-12.379	0.100
330.900	-10.996	0.100
331.000	-10.387	0.100
331.100	-23.881	0.100
331.200	-3.273	0.100
331.300	-8.433	0.100
331.400	-1.372	0.100
331.500	-5.723	0.100
331.600	-1.076	0.100
331.700	-4.610	0.100
331.800	23.818	0.100
331.900	15.934	0.100
332.000	-0.083	0.100
332.100	17.980	0.100
332.200	12.507	0.100
332.300	10.290	0.100
332.400	5.848	0.100
332.500	16.539	0.100
332.600	11.061	0.100
332.700	14.973	0.100
332.800	27.656	0.100
332.900	11.401	0.100
333.000	8.776	0.100
333.100	20.717	0.100
333.200	15.064	0.100
333.300	18.435	0.100
333.400	24.332	0.100
333.500	19.574	0.100
333.600	18.481	0.100
333.700	1.582	0.100
333.800	18.593	0.100
333.900	7.471	0.100
334.000	26.620	0.100
334.100	19.299	0.100
334.200	10.567	0.100
334.300	22.442	0.100
334.400	20.609	0.100
334.500	16.185	0.100
334.600	20.263	0.100
334.700	26.895	0.100
334.800	9.667	0.100
334.900	20.232	0.100
335.000	18.907	0.100
335.100	17.128	0.100
335.200	13.679	0.100
335.300	32.292	0.100
335.400	14.294	0.100
335.500	4.360	0.100
335.600	7.844	0.100
335.700	26.573	0.100
335.800	19.844	0.100
335.900	15.812	0.100
336.000	15.875	0.100
336.100	5.580	0.100
336.200	2.208	0.100
336.300	13.301	0.100
336.400	8.112	0.100
336.500	16.460	0.100
336.600	22.534	0.100
336.700	0.030	0.100
336.800	1.159	0.100
336.900	25.356	0.100
337.000	-0.250	0.100
337.100	30.687	0.100
337.200	18.620	0.100
337.300	18.636	0.100
337.400	15.472	0.100
337.500	23.786	0.100
337.600	20.170	0.100
337.700	25.237	0.100
337.800	17.832	0.100
337.900	19.292	0.100
338.000	20.280	0.100
338.100	22.360	0.100
338.200	21.943	0.100
338.300	13.744	0.100
338.400	23.902	0.100
338.500	9.671	0.100
338.600	19.342	0.100
338.700	16.303	0.100
338.800	21.346	0.100
338.900	19.062	0.100
339.000	20.191	0.100
339.100	18.420	0.100
339.200	11.102	0.100
339.300	34.613	0.100
339.400	12.401	0.100
339.500	19.489	0.100
339.600	20.725	0.100
339.700	26.308	0.100
339.800	22.240	0.100
339.900	16.030	0.100
340.000	35.263	0.100
340.100	25.261	0.100
340.200	24.791	0.100
340.300	18.581	0.100
340.400	19.776	0.100
340.500	30.468	0.100
340.600	29.095	0.100
340.700	31.557	0.100
340.800	26.187	0.100
340.900	25.782	0.100
341.000	34.036	0.100
341.100	15.916	0.100
341.200	30.014	0.100
341.300	29.307	0.100
341.400	20.936	0.100
341.500	34.941	0.100
341.600	30.305	0.100
341.700	25.993	0.100
341.800	21.571	0.100
341.900	19.456	0.100
342.000	16.512	0.100
342.100	35.155	0.100
342.200	24.013	0.100
342.300	15.019	0.100
342.400	29.205	0.100
342.500	25.598	0.100
342.600	27.935	0.100
342.700	30.602	0.100
342.800	37.427	0.100
342.900	28.765	0.100
343.000	34.586	0.100
343.100	28.060	0.100
343.200	34.278	0.100
343.300	29.077	0.100
343.400	36.902	0.100
343.500	28.216	0.100
343.600	35.675	0.100
343.700	30.783	0.100
343.800	25.100	0.100
343.900	28.723	0.100
344.000	43.868	0.100
344.100	42.169	0.100
344.200	43.252	0.100
344.300	27.572	0.100
344.400	19.382	0.100
344.500	30.731	0.100
344.600	41.362	0.100
344.700	42.597	0.100
344.800	33.045	0.100
344.900	34.681	0.100
345.000	35.470	0.100
345.100	37.873	0.100
345.200	32.161	0.100
345.300	36.782	0.100
345.400	39.279	0.100
345.500	47.923	0.100
345.600	39.799	0.100
345.700	40.529	0.100
345.800	36.849	0.100
345.900	40.113	0.100
346.000	38.809	0.100
346.100	49.228	0.100
346.200	39.978	0.100
346.300	44.713	0.100
346.400	53.821	0.100
346.500	44.081	0.100
346.600	53.123	0.100
346.700	40.833	0.100
346.800	38.927	0.100
346.900	52.806	0.100
347.000	46.939	0.100
347.100	46.013	0.100
347.200	45.524	0.100
347.300	43.706	0.100
347.400	41.043	0.100
347.500	38.416	0.100
347.600	53.422	0.100
347.700	58.305	0.100
347.800	57.002	0.100
347.900	47.178	0.100
348.000	40.103	0.100
348.100	53.342	0.100
348.200	53.221	0.100
348.300	42.575	0.100
348.400	44.129	0.100
348.500	47.647	0.100
348.600	72.079	0.100
348.700	42.478	0.100
348.800	46.773	0.100
348.900	39.973	0.100
349.000	64.767	0.100
349.100	55.775	0.100
349.200	61.181	0.100
349.300	56.298	0.100
349.400	56.101	0.100
349.500	53.706	0.100
349.600	58.663	0.100
349.700	45.182	0.100
349.800	43.188	0.100
349.900	56.071	0.100
350.000	45.892	0.100
350.100	61.477	0.100
350.200	51.818	0.100
350.300	61.892	0.100
350.400	70.276	0.100
350.500	69.910	0.100
350.600	66.666	0.100
350.700	51.762	0.100
350.800	57.264	0.100
350.900	48.445	0.100
351.000	60.644	0.100
351.100	67.479	0.100
351.200	67.717	0.100
351.300	63.919	0.100
351.400	57.168	0.100
351.500	60.422	0.100
351.600	60.516	0.100
351.700	68.687	0.100
351.800	67.203	0.100
351.900	68.494	0.100
352.000	55.880	0.100
352.100	54.453	0.100
352.200	63.590	0.100
352.300	53.288	0.100
352.400	64.169	0.100
352.500	63.339	0.100
352.600	62.568	0.100
352.700	68.117	0.100
352.800	59.461	0.100
352.900	67.261	0.100
353.000	69.822	0.100
353.100	67.589	0.100
353.200	64.453	0.100
353.300	65.904	0.100
353.400	53.043	0.100
353.500	65.973	0.100
353.600	71.048	0.100
353.700	67.501	0.100
353.800	67.742	0.100
353.900	82.970	0.100
354.000	59.492	0.100
354.100	67.939	0.100
354.200	61.324	0.100
354.300	72.402	0.100
354.400	66.257	0.100
354.500	65.907	0.100
354.600	63.508	0.100
354.700	73.592	0.100
354.800	60.373	0.100
354.900	75.134	0.100
355.000	76.704	0.100
355.100	55.849	0.100
355.200	83.589	0.100
355.300	79.899	0.100
355.400	70.800	0.100
355.500	73.418	0.100
355.600	80.291	0.100
355.700	63.185	0.100
355.800	83.949	0.100
355.900	65.913	0.100
356.000	69.024	0.100
356.100	74.294	0.100
356.200	71.186	0.100
356.300	72.579	0.100
356.400	65.534	0.100
356.500	74.595	0.100
356.600	75.999	0.100
356.700	56.788	0.100
356.800	77.142	0.100
356.900	61.960	0.100
357.000	58.573	0.100
357.100	66.851	0.100
357.200	72.991	0.100
357.300	78.892	0.100
357.400	64.094	0.100
357.500	77.867	0.100
357.600	74.036	0.100
357.700	90.067	0.100
357.800	58.816	0.100
357.900	75.658	0.100
358.000	79.894	0.100
358.100	87.217	0.100
358.200	73.575	0.100
358.300	70.131	0.100
358.400	77.761	0.100
358.500	89.457	0.100
358.600	71.156	0.100
358.700	67.401	0.100
358.800	68.044	0.100
358.900	80.976	0.100
359.000	80.632	0.100
359.100	66.160	0.100
359.200	68.077	0.100
359.300	68.889	0.100
359.400	75.108	0.100
359.500	68.291	0.100
359.600	77.472	0.100
359.700	76.186	0.100
359.800	76.935	0.100
359.900	76.393	0.100
360.000	78.635	0.100
360.100	70.151	0.100
360.200	68.527	0.100
360.300	80.156	0.100
360.400	75.105	0.100
360.500	79.269	0.100
360.600	69.147	0.100
360.700	78.878	0.100
360.800	80.082	0.100
360.900	61.038	0.100
361.000	75.503	0.100
361.100	66.701	0.100
361.200	71.303	0.100
361.300	71.138	0.100
361.400	79.962	0.100
361.500	77.246	0.100
361.600	69.512	0.100
361.700	68.163	0.100
361.800	69.031	0.100
361.900	64.675	0.100
362.000	79.125	0.100
362.100	73.411	0.100
362.200	70.008	0.100
362.300	67.798	0.100
362.400	65.202	0.100
362.500	65.330	0.100
362.600	70.025	0.100
362.700	73.342	0.100
362.800	77.011	0.100
362.900	82.810	0.100
363.000	79.701	0.100
363.100	74.952	0.100
363.200	71.581	0.100
363.300	64.518	0.100
363.400	75.164	0.100
363.500	70.121	0.100
363.600	63.947	0.100
363.700	63.196	0.100
363.800	66.054	0.100
363.900	74.121	0.100
364.000	66.514	0.100
364.100	75.522	0.100
364.200	74.451	0.100
364.300	64.147	0.100
364.400	68.168	0.100
364.500	80.795	0.100
364.600	76.933	0.100
364.700	68.838	0.100
364.800	71.296	0.100
364.900	74.343	0.100
365.000	73.525	0.100
365.100	76.185	0.100
365.200	76.497	0.100
365.300	70.718	0.100
365.400	65.416	0.100
365.500	77.615	0.100
365.600	62.860	0.100
365.700	65.112	0.100
365.800	74.178	0.100
365.900	74.082	0.100
366.000	54.603	0.100
366.100	80.508	0.100
366.200	71.771	0.100
366.300	69.950	0.100
366.400	71.679	0.100
366.500	77.069	0.100
366.600	77.278	0.100
366.700	65.952	0.100
366.800	75.415	0.100
366.900	69.494	0.100
367.000	75.210	0.100
367.100	88.605	0.100
367.200	76.537	0.100
367.300	71.225	0.100
367.400	67.432	0.100
367.500	68.499	0.100
367.600	68.296	0.100
367.700	78.872	0.100
367.800	70.690	0.100
367.900	78.110	0.100
368.000	70.886	0.100
368.100	72.851	0.100
368.200	74.842	0.100
368.300	77.564	0.100
368.400	90.377	0.100
368.500	67.600	0.100
368.600	59.819	0.100
368.700	75.097	0.100
368.800	71.707	0.100
368.900	79.053	0.100
369.000	70.164	0.100
369.100	70.392	0.100
369.200	63.502	0.100
369.300	75.213	0.100
369.400	63.801	0.100
369.500	67.949	0.100
369.600	70.541	0.100
369.700	64.610	0.100
369.800	74.848	0.100
369.900	49.341	0.100
370.000	53.132	0.100
370.100	58.537	0.100
370.200	79.178	0.100
370.300	71.822	0.100
370.400	77.327	0.100
370.500	56.011	0.100
370.600	79.703	0.100
370.700	67.883	0.100
370.800	70.082	0.100
370.900	70.715	0.100
371.000	81.098	0.100
371.100	78.714	0.100
371.200	62.933	0.100
371.300	67.685	0.100
371.400	72.150	0.100
371.500	64.367	0.100
371.600	58.459	0.100
371.700	60.928	0.100
371.800	68.517	0.100
371.900	65.580	0.100
372.000	69.566	0.100
372.100	66.314	0.100
372.200	68.111	0.100
372.300	63.578	0.100
372.400	80.606	0.100
372.500	73.105	0.100
372.600	78.020	0.100
372.700	57.190	0.100
372.800	71.580	0.100
372.900	64.203	0.100
373.000	69.553	0.100
373.100	65.553	0.100
373.200	77.605	0.100
373.300	71.866	0.100
373.400	64.768	0.100
373.500	69.505	0.100
373.600	68.447	0.100
373.700	60.144	0.100
373.800	77.464	0.100
373.900	71.928	0.100
374.000	63.558	0.100
374.100	70.695	0.100
374.200	85.041	0.100
374.300	77.039	0.100
374.400	65.056	0.100
374.500	68.096	0.100
374.600	77.297	0.100
374.700	69.208	0.100
374.800	83.352	0.100
374.900	81.735	0.100
375.000	67.898	0.100
375.100	79.759	0.100
375.200	68.003	0.100
375.300	68.013	0.100
375.400	68.959	0.100
375.500	53.476	0.100
375.600	75.886	0.100
375.700	76.282	0.100
375.800	66.310	0.100
375.900	67.843	0.100
376.000	60.782	0.100
376.100	62.611	0.100
376.200	82.898	0.100
376.300	64.620	0.100
376.400	79.458	0.100
376.500	67.667	0.100
376.600	84.413	0.100
376.700	83.297	0.100
376.800	59.170	0.100
376.900	58.930	0.100
377.000	68.340	0.100
377.100	64.995	0.100
377.200	69.839	0.100
377.300	62.834	0.100
377.400	71.029	0.100
377.500	73.729	0.100
377.600	80.086	0.100
377.700	72.945	0.100
377.800	68.713	0.100
377.900	70.679	0.100
378.000	66.148	0.100
378.100	86.599	0.100
378.200	67.490	0.100
378.300	62.801	0.100
378.400	65.297	0.100
378.500	72.034	0.100
378.600	73.324	0.100
378.700	69.733	0.100
378.800	71.801	0.100
378.900	70.418	0.100
379.000	63.032	0.100
379.100	63.466	0.100
379.200	68.264	0.100
379.300	65.436	0.100
379.400	69.904	0.100
379.500	71.603	0.100
379.600	70.544	0.100
379.700	77.668	0.100
379.800	74.955	0.100
379.900	63.477	0.100
380.000	74.835	0.100
380.100	49.949	0.100
380.200	54.887	0.100
380.300	59.369	0.100
380.400	59.346	0.100
380.500	85.481	0.100
380.600	75.794	0.100
380.700	70.070	0.100
380.800	64.575	0.100
380.900	62.974	0.100
381.000	63.388	0.100
381.100	66.275	0.100
381.200	73.287	0.100
381.300	74.703	0.100
381.400	69.040	0.100
381.500	64.922	0.100
381.600	68.585	0.100
381.700	67.275	0.100
381.800	67.480	0.100
381.900	70.476	0.100
382.000	70.435	0.100
382.100	65.274	0.100
382.200	71.699	0.100
382.300	56.528	0.100
382.400	62.640	0.100
382.500	74.693	0.100
382.600	69.406	0.100
382.700	65.478	0.100
382.800	64.575	0.100
382.900	67.584	0.100
383.000	79.027	0.100
383.100	86.016	0.100
383.200	64.765	0.100
383.300	69.567	0.100
383.400	65.188	0.100
383.500	80.389	0.100
383.600	68.682	0.100
383.700	67.034	0.100
383.800	69.598	0.100
383.900	73.963	0.100
384.000	69.696	0.100
384.100	61.081	0.100
384.200	69.525	0.100
384.300	61.963	0.100
384.400	68.194	0.100
384.500	57.291	0.100
384.600	73.927	0.100
384.700	75.529	0.100
384.800	61.737	0.100
384.900	77.452	0.100
385.000	67.909	0.100
385.100	62.147	0.100
385.200	70.214	0.100
385.300	74.359	0.100
385.400	50.396	0.100
385.500	67.463	0.100
385.600	64.848	0.100
385.700	73.694	0.100
385.800	76.633	0.100
385.900	60.688	0.100
386.000	75.194	0.100
386.100	61.940	0.100
386.200	72.374	0.100
386.300	61.433	0.100
386.400	74.720	0.100
386.500	72.511	0.100
386.600	61.214	0.100
386.700	75.415	0.100
386.800	72.156	0.100
386.900	67.117	0.100
387.000	69.433	0.100
387.100	68.491	0.100
387.200	68.787	0.100
387.300	66.842	0.100
387.400	60.149	0.100
387.500	60.691	0.100
387.600	72.306	0.100
387.700	78.326	0.100
387.800	78.057	0.100
387.900	72.488	0.100
388.000	66.439	0.100
388.100	66.132	0.100
388.200	57.871	0.100
388.300	74.377	0.100
388.400	63.410	0.100
388.500	71.923	0.100
388.600	50.445	0.100
388.700	78.734	0.100
388.800	69.581	0.100
388.900	63.244	0.100
389.000	79.859	0.100
389.100	56.484	0.100
389.200	72.520	0.100
389.300	67.945	0.100
389.400	71.544	0.100
389.500	65.469	0.100
389.600	65.158	0.100
389.700	71.759	0.100
389.800	67.881	0.100
389.900	65.613	0.100
390.000	69.209	0.100
390.100	67.533	0.100
390.200	68.577	0.100
390.300	61.818	0.100
390.400	59.009	0.100
390.500	74.112	0.100
390.600	81.394	0.100
390.700	60.998	0.100
390.800	59.689	0.100
390.900	74.528	0.100
391.000	59.102	0.100
391.100	57.404	0.100
391.200	54.308	0.100
391.300	58.144	0.100
391.400	61.701	0.100
391.500	44.189	0.100
391.600	36.543	0.100
391.700	49.533	0.100
391.800	54.163	0.100
391.900	39.770	0.100
392.000	45.659	0.100
392.100	41.946	0.100
392.200	39.867	0.100
392.300	39.193	0.100
392.400	37.993	0.100
392.500	35.943	0.100
392.600	32.679	0.100
392.700	23.616	0.100
392.800	23.529	0.100
392.900	14.747	0.100
393.000	22.292	0.100
393.100	14.401	0.100
393.200	40.428	0.100
393.300	17.988	0.100
393.400	30.948	0.100
393.500	27.887	0.100
393.600	29.667	0.100
393.700	23.811	0.100
393.800	14.114	0.100
393.900	13.140	0.100
394.000	16.092	0.100
394.100	25.936	0.100
394.200	8.579	0.100
394.300	13.344	0.100
394.400	13.038	0.100
394.500	10.822	0.100
394.600	25.954	0.100
394.700	7.849	0.100
394.800	7.814	0.100
394.900	4.887	0.100
395.000	12.011	0.100
395.100	17.333	0.100
395.200	10.753	0.100
395.300	10.543	0.100
395.400	18.379	0.100
395.500	10.931	0.100
395.600	22.855	0.100
395.700	12.179	0.100
395.800	-2.021	0.100
395.900	-2.008	0.100
396.000	6.135	0.100
396.100	7.698	0.100
396.200	15.368	0.100
396.300	8.480	0.100
396.400	16.226	0.100
396.500	-2.615	0.100
396.600	12.083	0.100
396.700	6.867	0.100
396.800	3.410	0.100
396.900	3.488	0.100
397.000	7.560	0.100
397.100	4.236	0.100
397.200	-3.036	0.100
397.300	6.404	0.100
397.400	5.250	0.100
397.500	23.503	0.100
397.600	12.495	0.100
397.700	3.884	0.100
397.800	-8.032	0.100
397.900	-6.199	0.100
398.000	2.784	0.100
398.100	1.126	0.100
398.200	7.362	0.100
398.300	-7.383	0.100
398.400	7.101	0.100
398.500	18.244	0.100
398.600	13.143	0.100
398.700	-1.284	0.100
398.800	15.409	0.100
398.900	8.395	0.100
399.000	-0.485	0.100
399.100	-16.635	0.100
399.200	16.303	0.100
399.300	-7.880	0.100
399.400	15.843	0.100
399.500	5.503	0.100
399.600	-8.973	0.100
399.700	16.130	0.100
399.800	6.057	0.100
399.900	6.209	0.100
400.000	5.262	0.100
400.100	10.233	0.100
400.200	8.025	0.100
400.300	0.376	0.100
400.400	-1.468	0.100
400.500	-7.543	0.100
400.600	-4.291	0.100
400.700	14.493	0.100
400.800	3.258	0.100
400.900	15.036	0.100
401.000	4.433	0.100
401.100	2.496	0.100
401.200	-2.651	0.100
401.300	-9.577	0.100
401.400	-8.849	0.100
401.500	-22.479	0.100
401.600	1.395	0.100
401.700	-6.277	0.100
401.800	1.072	0.100
401.900	3.269	0.100
402.000	-9.368	0.100
402.100	-8.138	0.100
402.200	23.876	0.100
402.300	-0.900	0.100
402.400	2.298	0.100
402.500	-3.462	0.100
402.600	-9.339	0.100
402.700	6.789	0.100
402.800	1.332	0.100
402.900	-13.199	0.100
403.000	1.539	0.100
403.100	-13.044	0.100
403.200	10.626	0.100
403.300	-11.208	0.100
403.400	-2.004	0.100
403.500	-7.050	0.100
403.600	-4.379	0.100
403.700	-8.119	0.100
403.800	7.039	0.100
403.900	-5.442	0.100
404.000	-4.522	0.100
404.100	1.787	0.100
404.200	-7.006	0.100
404.300	-4.697	0.100
404.400	-0.300	0.100
404.500	4.157	0.100
404.600	-0.441	0.100
404.700	-9.264	0.100
404.800	-7.949	0.100
404.900	-11.068	0.100
405.000	-10.957	0.100
405.100	-14.467	0.100
405.200	-6.404	0.100
405.300	-13.556	0.100
405.400	-5.789	0.100
405.500	-14.793	0.100
405.600	-14.375	0.100
405.700	-4.454	0.100
405.800	-1.788	0.100
405.900	-12.577	0.100
406.000	-12.597	0.100
406.100	-6.887	0.100
406.200	-9.965	0.100
406.300	-1.405	0.100
406.400	-1.822	0.100
406.500	1.716	0.100
406.600	-7.057	0.100
406.700	1.307	0.100
406.800	-5.208	0.100
406.900	-8.925	0.100
407.000	-12.179	0.100
407.100	-13.747	0.100
407.200	-9.125	0.100
407.300	-18.828	0.100
407.400	-13.174	0.100
407.500	-0.192	0.100
407.600	-9.581	0.100
407.700	-4.040	0.100
407.800	1.972	0.100
407.900	-1.598	0.100
408.000	-19.353	0.100
408.100	-12.939	0.100
408.200	-6.463	0.100
408.300	-4.489	0.100
408.400	-12.367	0.100
408.500	-14.828	0.100
408.600	-8.133	0.100
408.700	-7.016	0.100
408.800	0.476	0.100
408.900	-10.117	0.100
409.000	-10.276	0.100
409.100	-19.889	0.100
409.200	-19.775	0.100
409.300	-7.848	0.100
409.400	-7.603	0.100
409.500	-14.208	0.100
409.600	-22.640	0.100
409.700	-12.773	0.100
409.800	-10.209	0.100
409.900	-2.645	0.100
410.000	-11.205	0.100
410.100	-5.766	0.100
410.200	-12.908	0.100
410.300	-16.287	0.100
410.400	-21.187	0.100
410.500	-18.539	0.100
410.600	-2.579	0.100
410.700	-30.338	0.100
410.800	-4.558	0.100
410.900	4.660	0.100
411.000	-15.729	0.100
411.100	-12.061	0.100
411.200	-17.732	0.100
411.300	-16.349	0.100
411.400	-14.416	0.100
411.500	-4.670	0.100
411.600	-21.316	0.100
411.700	-8.824	0.100
411.800	-12.851	0.100
411.900	-1.714	0.100
412.000	-28.681	0.100
412.100	-17.266	0.100
412.200	-21.739	0.100
412.300	-17.041	0.100
412.400	-18.634	0.100
412.500	-16.952	0.100
412.600	-4.262	0.100
412.700	-25.866	0.100
412.800	-31.892	0.100
412.900	-17.782	0.100
413.000	-3.666	0.100
413.100	-10.083	0.100
413.200	-15.987	0.100
413.300	-7.788	0.100
413.400	-12.534	0.100
413.500	-18.902	0.100
413.600	-18.533	0.100
413.700	-10.118	0.100
413.800	-18.428	0.100
413.900	-23.729	0.100
414.000	-24.199	0.100
414.100	-12.542	0.100
414.200	3.424	0.100
414.300	-15.543	0.100
414.400	-15.767	0.100
414.500	-26.267	0.100
414.600	-19.985	0.100
414.700	-21.074	0.100
414.800	-13.288	0.100
414.900	-12.762	0.100
415.000	-21.613	0.100
415.100	-29.200	0.100
415.200	-21.922	0.100
415.300	-24.608	0.100
415.400	-0.231	0.100
415.500	-7.723	0.100
415.600	-21.725	0.100
415.700	-14.236	0.100
415.800	-10.516	0.100
415.900	-28.026	0.100
416.000	-21.902	0.100
416.100	-24.038	0.100
416.200	-13.210	0.100
416.300	-20.097	0.100
416.400	-13.394	0.100
416.500	-33.188	0.100
416.600	-15.609	0.100
416.700	-21.833	0.100
416.800	-10.689	0.100
416.900	-13.884	0.100
417.000	-9.809	0.100
417.100	-18.538	0.100
417.200	-21.501	0.100
417.300	-28.744	0.100
417.400	-28.132	0.100
417.500	-12.515	0.100
417.600	-20.358	0.100
417.700	-7.468	0.100
417.800	-24.741	0.100
417.900	-24.251	0.100
418.000	-3.146	0.100
418.100	-28.707	0.100
418.200	-31.770	0.100
418.300	-31.157	0.100
418.400	-25.232	0.100
418.500	-30.150	0.100
418.600	-26.028	0.100
418.700	-16.214	0.100
418.800	-27.401	0.100
418.900	-14.095	0.100
419.000	-23.329	0.100
419.100	-26.249	0.100
419.200	-21.561	0.100
419.300	-13.531	0.100
419.400	-27.548	0.100
419.500	-21.528	0.100
419.600	-34.423	0.100
419.700	-16.460	0.100
419.800	-20.710	0.100
419.900	-23.241	0.100
420.000	-28.560	0.100
420.100	-21.127	0.100
420.200	-27.122	0.100
420.300	-21.769	0.100
420.400	-4.022	0.100
420.500	-19.546	0.100
420.600	-18.292	0.100
420.700	-16.252	0.100
420.800	-25.075	0.100
420.900	-25.939	0.100
421.000	-29.571	0.100
421.100	-20.946	0.100
421.200	-11.563	0.100
421.300	-31.390	0.100
421.400	-38.435	0.100
421.500	-21.996	0.100
421.600	-21.032	0.100
421.700	-16.606	0.100
421.800	-12.792	0.100
421.900	-19.362	0.100
422.000	-26.865	0.100
422.100	-24.881	0.100
422.200	-14.717	0.100
422.300	-18.294	0.100
422.400	-35.762	0.100
422.500	-35.917	0.100
422.600	-21.235	0.100
422.700	-22.361	0.100
422.800	-34.442	0.100
422.900	-21.414	0.100
423.000	-27.345	0.100
423.100	-10.184	0.100
423.200	-27.475	0.100
423.300	-23.805	0.100
423.400	-21.259	0.100
423.500	-35.400	0.100
423.600	-13.050	0.100
423.700	-21.145	0.100
423.800	-21.388	0.100
423.900	-23.008	0.100
424.000	-25.714	0.100
424.100	-26.535	0.100
424.200	-19.026	0.100
424.300	-26.275	0.100
424.400	-20.220	0.100
424.500	-19.875	0.100
424.600	-19.482	0.100
424.700	-30.575	0.100
424.800	-34.140	0.100
424.900	-38.908	0.100
425.000	-36.288	0.100
425.100	-24.451	0.100
425.200	-28.051	0.100
425.300	-16.362	0.100
425.400	-12.111	0.100
425.500	-18.201	0.100
425.600	-43.210	0.100
425.700	-24.265	0.100
425.800	-19.112	0.100
425.900	-27.119	0.100
426.000	-21.257	0.100
426.100	-27.871	0.100
426.200	-17.756	0.100
426.300	-21.775	0.100
426.400	-42.986	0.100
426.500	-35.493	0.100
426.600	-21.477	0.100
426.700	-16.164	0.100
426.800	-26.979	0.100
426.900	-18.928	0.100
427.000	-32.538	0.100
427.100	-17.281	0.100
427.200	-13.228	0.100
427.300	-25.806	0.100
427.400	-28.777	0.100
427.500	-44.300	0.100
427.600	-31.914	0.100
427.700	-33.066	0.100
427.800	-39.924	0.100
427.900	-21.112	0.100
428.000	-23.340	0.100
428.100	-22.979	0.100
428.200	-29.426	0.100
428.300	-24.136	0.100
428.400	-32.389	0.100
428.500	-32.068	0.100
428.600	-14.746	0.100
428.700	-36.908	0.100
428.800	-31.004	0.100
428.900	-22.605	0.100
429.000	-24.032	0.100
429.100	-34.495	0.100
429.200	-27.370	0.100
429.300	-31.921	0.100
429.400	-26.796	0.100
429.500	-26.629	0.100
429.600	-33.190	0.100
429.700	-33.989	0.100
429.800	-27.194	0.100
429.900	-25.288	0.100
430.000	-18.842	0.100
430.100	-14.286	0.100
430.200	-25.541	0.100
430.300	-30.879	0.100
430.400	-35.518	0.100
430.500	-17.118	0.100
430.600	-20.070	0.100
430.700	-32.898	0.100
430.800	-22.759	0.100
430.900	-24.302	0.100
431.000	-36.203	0.100
431.100	-38.846	0.100
431.200	-34.842	0.100
431.300	-23.371	0.100
431.400	-36.474	0.100
431.500	-28.851	0.100
431.600	-24.320	0.100
431.700	-18.137	0.100
431.800	-20.220	0.100
431.900	-30.191	0.100
432.000	-20.722	0.100
432.100	-35.763	0.100
432.200	-28.224	0.100
432.300	-41.115	0.100
432.400	-9.844	0.100
432.500	-22.131	0.100
432.600	-28.077	0.100
432.700	-24.076	0.100
432.800	-24.767	0.100
432.900	-25.077	0.100
433.000	-28.697	0.100
433.100	-15.318	0.100
433.200	-22.674	0.100
433.300	-31.774	0.100
433.400	-27.346	0.100
433.500	-33.841	0.100
433.600	-15.571	0.100
433.700	-15.457	0.100
433.800	-31.989	0.100
433.900	-22.709	0.100
434.000	-37.717	0.100
434.100	-28.617	0.100
434.200	-21.629	0.100
434.300	-30.877	0.100
434.400	-34.817	0.100
434.500	-17.488	0.100
434.600	-21.703	0.100
434.700	-25.812	0.100
434.800	-31.779	0.100
434.900	-21.973	0.100
435.000	-34.553	0.100
435.100	-37.527	0.100
435.200	-24.586	0.100
435.300	-34.508	0.100
435.400	-25.541	0.100
435.500	-27.664	0.100
435.600	-19.664	0.100
435.700	-18.145	0.100
435.800	-27.766	0.100
435.900	-26.039	0.100
436.000	-35.937	0.100
436.100	-40.768	0.100
436.200	-17.271	0.100
436.300	-24.715	0.100
436.400	-26.197	0.100
436.500	-19.673	0.100
436.600	-32.861	0.100
436.700	-28.839	0.100
436.800	-28.675	0.100
436.900	-25.985	0.100
437.000	-40.329	0.100
437.100	-16.355	0.100
437.200	-17.288	0.100
437.300	-30.402	0.100
437.400	-32.755	0.100
437.500	-27.559	0.100
437.600	-32.363	0.100
437.700	-16.471	0.100
437.800	-25.147	0.100
437.900	-21.142	0.100
438.000	-31.105	0.100
438.100	-24.183	0.100
438.200	-21.643	0.100
438.300	-43.471	0.100
438.400	-29.356	0.100
438.500	-29.459	0.100
438.600	-18.276	0.100
438.700	-34.527	0.100
438.800	-37.636	0.100
438.900	-35.437	0.100
439.000	-20.248	0.100
439.100	-27.480	0.100
439.200	-22.250	0.100
439.300	-23.524	0.100
439.400	-31.946	0.100
439.500	-27.117	0.100
439.600	-32.015	0.100
439.700	-19.152	0.100
439.800	-29.318	0.100
439.900	-26.466	0.100
440.000	-20.633	0.100
440.100	-31.854	0.100
440.200	-27.466	0.100
440.300	-29.880	0.100
440.400	-26.600	0.100
440.500	-25.475	0.100
440.600	-22.667	0.100
440.700	-30.599	0.100
440.800	-34.882	0.100
440.900	-29.103	0.100
441.000	-19.651	0.100
441.100	-24.471	0.100
441.200	-22.936	0.100
441.300	-31.929	0.100
441.400	-25.051	0.100
441.500	-16.724	0.100
441.600	-42.379	0.100
441.700	-24.369	0.100
441.800	-23.769	0.100
441.900	-31.198	0.100
442.000	-32.292	0.100
442.100	-34.810	0.100
442.200	-30.423	0.100
442.300	-24.976	0.100
442.400	-17.776	0.100
442.500	-15.562	0.100
442.600	-12.198	0.100
442.700	-34.645	0.100
442.800	-37.569	0.100
442.900	-24.715	0.100
443.000	-24.924	0.100
443.100	-33.067	0.100
443.200	-23.686	0.100
443.300	-27.147	0.100
443.400	-29.989	0.100
443.500	-28.844	0.100
443.600	-16.730	0.100
443.700	-39.352	0.100
443.800	-16.037	0.100
443.900	-31.542	0.100
444.000	-26.742	0.100
444.100	-24.759	0.100
444.200	-20.511	0.100
444.300	-21.914	0.100
444.400	-33.665	0.100
444.500	-16.700	0.100
444.600	-35.821	0.100
444.700	-26.350	0.100
444.800	-30.355	0.100
444.900	-16.179	0.100
445.000	-28.946	0.100
445.100	-20.650	0.100
445.200	-15.568	0.100
445.300	-30.761	0.100
445.400	-17.053	0.100
445.500	-29.430	0.100
445.600	-21.963	0.100
445.700	-22.221	0.100
445.800	-28.298	0.100
445.900	-20.459	0.100
446.000	-22.826	0.100
446.100	-28.115	0.100
446.200	-32.088	0.100
446.300	-21.250	0.100
446.400	-35.168	0.100
446.500	-33.808	0.100
446.600	-13.071	0.100
446.700	-23.703	0.100
446.800	-15.434	0.100
446.900	-18.226	0.100
447.000	-39.222	0.100
447.100	-24.593	0.100
447.200	-25.212	0.100
447.300	-39.494	0.100
447.400	-23.496	0.100
447.500	-21.622	0.100
447.600	-18.406	0.100
447.700	-9.169	0.100
447.800	-28.779	0.100
447.900	-30.119	0.100
448.000	-34.817	0.100
448.100	-26.184	0.100
448.200	-19.382	0.100
448.300	-39.511	0.100
448.400	-31.842	0.100
448.500	-25.853	0.100
448.600	-23.782	0.100
448.700	-20.626	0.100
448.800	-22.587	0.100
448.900	-31.963	0.100
449.000	-35.135	0.100
449.100	-30.904	0.100
449.200	-27.101	0.100
449.300	-41.998	0.100
449.400	-22.460	0.100
449.500	-23.740	0.100
449.600	-25.188	0.100
449.700	-24.623	0.100
449.800	-27.473	0.100
449.900	-28.514	0.100
450.000	-19.531	0.100
450.100	-22.901	0.100
450.200	-23.035	0.100
450.300	-27.911	0.100
450.400	-27.105	0.100
450.500	-33.596	0.100
450.600	-32.121	0.100
450.700	-23.964	0.100
450.800	-27.643	0.100
450.900	-13.036	0.100
451.000	-23.377	0.100
451.100	-16.322	0.100
451.200	-23.210	0.100
451.300	-21.034	0.100
451.400	-37.619	0.100
451.500	-30.129	0.100
451.600	-29.906	0.100
451.700	-13.686	0.100
451.800	-18.150	0.100
451.900	-23.575	0.100
452.000	-21.279	0.100
452.100	-28.829	0.100
452.200	-25.372	0.100
452.300	-39.297	0.100
452.400	-24.860	0.100
452.500	-32.310	0.100
452.600	-35.645	0.100
452.700	-17.681	0.100
452.800	-22.787	0.100
452.900	-18.763	0.100
453.000	-18.038	0.100
453.100	-20.169	0.100
453.200	-21.419	0.100
453.300	-19.717	0.100
453.400	-19.393	0.100
453.500	-36.916	0.100
453.600	-32.891	0.100
453.700	-29.986	0.100
453.800	-13.633	0.100
453.900	-16.150	0.100
454.000	-26.252	0.100
454.100	-17.244	0.100
454.200	-23.501	0.100
454.300	-24.368	0.100
454.400	-24.006	0.100
454.500	-35.541	0.100
454.600	-21.564	0.100
454.700	-20.949	0.100
454.800	-27.067	0.100
454.900	-16.177	0.100
455.000	-8.881	0.100
455.100	-25.703	0.100
455.200	-34.859	0.100
455.300	-30.340	0.100
455.400	-16.637	0.100
455.500	-16.970	0.100
455.600	-25.006	0.100
455.700	-29.761	0.100
455.800	-23.497	0.100
455.900	-18.442	0.100
456.000	-33.387	0.100
456.100	-25.256	0.100
456.200	-21.974	0.100
456.300	-27.168	0.100
456.400	-24.937	0.100
456.500	-24.434	0.100
456.600	-28.323	0.100
456.700	-19.085	0.100
456.800	-24.156	0.100
456.900	-14.029	0.100
457.000	-21.740	0.100
457.100	-28.197	0.100
457.200	-23.293	0.100
457.300	-27.162	0.100
457.400	-28.491	0.100
457.500	-22.288	0.100
457.600	-35.378	0.100
457.700	-30.168	0.100
457.800	-34.315	0.100
457.900	-18.352	0.100
458.000	-34.842	0.100
458.100	-27.387	0.100
458.200	-30.309	0.100
458.300	-5.675	0.100
458.400	-16.493	0.100
458.500	-20.544	0.100
458.600	-24.520	0.100
458.700	-14.137	0.100
458.800	-11.805	0.100
458.900	-40.740	0.100
459.000	-22.417	0.100
459.100	-20.947	0.100
459.200	-33.088	0.100
459.300	-18.519	0.100
459.400	-29.371	0.100
459.500	-23.642	0.100
459.600	-18.766	0.100
459.700	-22.114	0.100
459.800	-26.870	0.100
459.900	-23.391	0.100
460.000	-23.231	0.100
460.100	-22.517	0.100
460.200	-25.978	0.100
460.300	-25.460	0.100
460.400	-28.583	0.100
460.500	-27.302	0.100
460.600	-17.466	0.100
460.700	-29.747	0.100
460.800	-26.027	0.100
460.900	-22.978	0.100
461.000	-35.816	0.100
461.100	-20.364	0.100
461.200	-30.707	0.100
461.300	-29.586	0.100
461.400	-29.013	0.100
461.500	-21.695	0.100
461.600	-20.639	0.100
461.700	-29.761	0.100
461.800	-14.990	0.100
461.900	-27.426	0.100
462.000	-41.141	0.100
462.100	-28.614	0.100
462.200	-10.140	0.100
462.300	-30.461	0.100
462.400	-18.979	0.100
462.500	-29.853	0.100
462.600	-19.730	0.100
462.700	-30.427	0.100
462.800	-30.237	0.100
462.900	-27.669	0.100
463.000	-20.335	0.100
463.100	-13.737	0.100
463.200	-24.730	0.100
463.300	-21.280	0.100
463.400	-28.215	0.100
463.500	-17.219	0.100
463.600	-11.319	0.100
463.700	-16.081	0.100
463.800	-15.440	0.100
463.900	-23.983	0.100
464.000	-20.117	0.100
464.100	-33.361	0.100
464.200	-33.060	0.100
464.300	-25.789	0.100
464.400	-31.437	0.100
464.500	-29.526	0.100
464.600	-21.177	0.100
464.700	-31.392	0.100
464.800	-20.338	0.100
464.900	-37.196	0.100
465.000	-19.887	0.100
465.100	-17.845	0.100
465.200	-37.440	0.100
465.300	-22.826	0.100
465.400	-27.337	0.100
465.500	-36.297	0.100
465.600	-28.914	0.100
465.700	-21.649	0.100
465.800	-20.392	0.100
465.900	-9.144	0.100
466.000	-16.492	0.100
466.100	-32.737	0.100
466.200	-32.967	0.100
466.300	-17.125	0.100
466.400	-15.086	0.100
466.500	-19.937	0.100
466.600	-22.674	0.100
466.700	-34.023	0.100
466.800	-33.520	0.100
466.900	-17.347	0.100
467.000	-13.055	0.100
467.100	-24.161	0.100
467.200	-28.140	0.100
467.300	-25.030	0.100
467.400	-16.173	0.100
467.500	-13.767	0.100
467.600	-20.158	0.100
467.700	-14.613	0.100
467.800	-36.225	0.100
467.900	-23.720	0.100
468.000	-14.912	0.100
468.100	-24.330	0.100
468.200	-19.656	0.100
468.300	-32.762	0.100
468.400	-25.092	0.100
468.500	-29.005	0.100
468.600	-15.441	0.100
468.700	-19.422	0.100
468.800	-18.659	0.100
468.900	-17.216	0.100
469.000	-20.309	0.100
469.100	-20.488	0.100
469.200	-25.141	0.100
469.300	-31.795	0.100
469.400	-22.854	0.100
469.500	-28.735	0.100
469.600	-25.772	0.100
469.700	-12.047	0.100
469.800	-33.491	0.100
469.900	-30.318	0.100
470.000	-33.804	0.100
470.100	-20.000	0.100
470.200	-15.949	0.100
470.300	-20.874	0.100
470.400	1.752	0.100
470.500	-11.887	0.100
470.600	-26.215	0.100
470.700	-14.774	0.100
470.800	-5.206	0.100
470.900	-15.966	0.100
471.000	-26.509	0.100
471.100	-19.012	0.100
471.200	-23.188	0.100
471.300	-21.993	0.100
471.400	-24.369	0.100
471.500	-17.742	0.100
471.600	-19.154	0.100
471.700	-28.768	0.100
471.800	-15.658	0.100
471.900	-37.701	0.100
472.000	-27.721	0.100
472.100	-12.448	0.100
472.200	-20.148	0.100
472.300	-18.309	0.100
472.400	-13.574	0.100
472.500	-33.227	0.100
472.600	-29.770	0.100
472.700	-18.258	0.100
472.800	-13.824	0.100
472.900	-22.286	0.100
473.000	-35.060	0.100
473.100	-30.468	0.100
473.200	-9.859	0.100
473.300	-36.169	0.100
473.400	-8.902	0.100
473.500	-26.266	0.100
473.600	-2.676	0.100
473.700	-21.253	0.100
473.800	-14.873	0.100
473.900	-13.784	0.100
474.000	-19.667	0.100
474.100	-14.065	0.100
474.200	-36.845	0.100
474.300	-18.479	0.100
474.400	-23.603	0.100
474.500	-20.352	0.100
474.600	-26.203	0.100
474.700	-31.159	0.100
474.800	-6.572	0.100
474.900	-16.479	0.100
475.000	-20.702	0.100
475.100	-16.799	0.100
475.200	-31.393	0.100
475.300	-24.553	0.100
475.400	-30.606	0.100
475.500	-30.790	0.100
475.600	-29.681	0.100
475.700	-24.067	0.100
475.800	-18.291	0.100
475.900	-36.366	0.100
476.000	-30.715	0.100
476.100	-5.427	0.100
476.200	-14.870	0.100
476.300	-21.680	0.100
476.400	-22.200	0.100
476.500	-27.394	0.100
476.600	-21.957	0.100
476.700	-28.806	0.100
476.800	-27.379	0.100
476.900	-27.204	0.100
477.000	-20.615	0.100
477.100	-9.931	0.100
477.200	-14.088	0.100
477.300	-27.190	0.100
477.400	-20.942	0.100
477.500	-32.060	0.100
477.600	-32.267	0.100
477.700	-26.550	0.100
477.800	-13.577	0.100
477.900	-25.495	0.100
478.000	-28.030	0.100
478.100	-14.495	0.100
478.200	-9.625	0.100
478.300	-19.293	0.100
478.400	-28.102	0.100
478.500	-18.115	0.100
478.600	-23.947	0.100
478.700	-19.003	0.100
478.800	-26.140	0.100
478.900	-17.136	0.100
479.000	-42.176	0.100
479.100	-28.224	0.100
479.200	-28.133	0.100
479.300	-21.377	0.100
479.400	-16.944	0.100
479.500	-18.738	0.100
479.600	-23.833	0.100
479.700	-20.955	0.100
479.800	-8.891	0.100
479.900	-15.253	0.100
480.000	-24.841	0.100
480.100	-11.529	0.100
480.200	-29.108	0.100
480.300	-27.890	0.100
480.400	-13.853	0.100
480.500	-4.600	0.100
480.600	-12.902	0.100
480.700	-18.658	0.100
480.800	-27.208	0.100
480.900	-18.323	0.100
481.000	-14.450	0.100
481.100	-17.093	0.100
481.200	-8.862	0.100
481.300	6.281	0.100
481.400	2.674	0.100
481.500	8.898	0.100
481.600	-2.736	0.100
481.700	0.807	0.100
481.800	5.913	0.100
481.900	2.616	0.100
482.000	13.843	0.100
482.100	2.531	0.100
482.200	8.424	0.100
482.300	4.351	0.100
482.400	16.118	0.100
482.500	10.378	0.100
482.600	10.297	0.100
482.700	20.404	0.100
482.800	34.531	0.100
482.900	17.307	0.100
483.000	19.607	0.100
483.100	12.800	0.100
483.200	4.616	0.100
483.300	21.655	0.100
483.400	12.974	0.100
483.500	23.585	0.100
483.600	18.564	0.100
483.700	15.340	0.100
483.800	13.105	0.100
483.900	29.672	0.100
484.000	17.979	0.100
484.100	16.416	0.100
484.200	14.687	0.100
484.300	5.194	0.100
484.400	2.874	0.100
484.500	23.221	0.100
484.600	23.539	0.100
484.700	31.843	0.100
484.800	6.394	0.100
484.900	18.930	0.100
485.000	14.203	0.100
485.100	15.418	0.100
485.200	25.485	0.100
485.300	7.567	0.100
485.400	-1.844	0.100
485.500	1.562	0.100
485.600	24.383	0.100
485.700	19.667	0.100
485.800	5.437	0.100
485.900	16.375	0.100
486.000	14.249	0.100
486.100	20.989	0.100
486.200	16.876	0.100
486.300	11.701	0.100
486.400	13.648	0.100
486.500	7.292	0.100
486.600	13.972	0.100
486.700	2.975	0.100
486.800	23.273	0.100
486.900	19.071	0.100
487.000	21.217	0.100
487.100	9.107	0.100
487.200	12.244	0.100
487.300	11.154	0.100
487.400	20.501	0.100
487.500	15.470	0.100
487.600	11.794	0.100
487.700	22.301	0.100
487.800	16.198	0.100
487.900	13.076	0.100
488.000	17.129	0.100
488.100	25.277	0.100
488.200	20.934	0.100
488.300	7.820	0.100
488.400	32.760	0.100
488.500	20.763	0.100
488.600	18.902	0.100
488.700	19.039	0.100
488.800	13.290	0.100
488.900	14.419	0.100
489.000	14.203	0.100
489.100	18.546	0.100
489.200	13.732	0.100
489.300	14.503	0.100
489.400	10.991	0.100
489.500	11.428	0.100
489.600	4.038	0.100
489.700	30.217	0.100
489.800	14.997	0.100
489.900	28.902	0.100
490.000	24.330	0.100
490.100	30.690	0.100
490.200	11.178	0.100
490.300	27.692	0.100
490.400	17.708	0.100
490.500	33.656	0.100
490.600	15.509	0.100
490.700	10.038	0.100
490.800	21.390	0.100
490.900	23.393	0.100
491.000	17.923	0.100
491.100	9.673	0.100
491.200	27.535	0.100
491.300	38.425	0.100
491.400	29.070	0.100
491.500	35.884	0.100
491.600	25.863	0.100
491.700	23.763	0.100
491.800	18.778	0.100
491.900	31.724	0.100
492.000	32.163	0.100
492.100	23.049	0.100
492.200	17.728	0.100
492.300	28.988	0.100
492.400	27.726	0.100
492.500	27.539	0.100
492.600	39.051	0.100
492.700	25.446	0.100
492.800	33.636	0.100
492.900	31.307	0.100
493.000	29.604	0.100
493.100	31.620	0.100
493.200	34.651	0.100
493.300	25.937	0.100
493.400	37.264	0.100
493.500	29.402	0.100
493.600	21.929	0.100
493.700	26.086	0.100
493.800	20.546	0.100
493.900	32.312	0.100
494.000	23.253	0.100
494.100	20.541	0.100
494.200	31.361	0.100
494.300	41.335	0.100
494.400	31.776	0.100
494.500	33.172	0.100
494.600	19.156	0.100
494.700	29.609	0.100
494.800	36.620	0.100
494.900	32.983	0.100
495.000	43.102	0.100
495.100	32.288	0.100
495.200	35.137	0.100
495.300	34.523	0.100
495.400	39.030	0.100
495.500	36.617	0.100
495.600	34.988	0.100
495.700	23.493	0.100
495.800	36.463	0.100
495.900	34.404	0.100
496.000	34.905	0.100
496.100	34.717	0.100
496.200	57.095	0.100
496.300	39.488	0.100
496.400	39.170	0.100
496.500	48.523	0.100
496.600	40.258	0.100
496.700	43.759	0.100
496.800	52.960	0.100
496.900	38.285	0.100
497.000	43.908	0.100
497.100	45.498	0.100
497.200	38.742	0.100
497.300	47.692	0.100
497.400	45.871	0.100
497.500	41.056	0.100
497.600	52.359	0.100
497.700	50.317	0.100
497.800	38.054	0.100
497.900	37.142	0.100
498.000	51.331	0.100
498.100	46.834	0.100
498.200	47.933	0.100
498.300	46.310	0.100
498.400	44.771	0.100
498.500	43.019	0.100
498.600	44.982	0.100
498.700	43.066	0.100
498.800	56.121	0.100
498.900	48.714	0.100
499.000	51.822	0.100
499.100	56.715	0.100
499.200	43.361	0.100
499.300	44.272	0.100
499.400	38.245	0.100
499.500	54.172	0.100
499.600	55.601	0.100
499.700	58.072	0.100
499.800	61.448	0.100
499.900	56.726	0.100
500.000	62.996	0.100
500.100	62.443	0.100
500.200	64.182	0.100
500.300	61.892	0.100
500.400	56.934	0.100
500.500	50.490	0.100
500.600	51.797	0.100
500.700	70.219	0.100
500.800	58.351	0.100
500.900	43.115	0.100
501.000	58.474	0.100
501.100	57.687	0.100
501.200	56.862	0.100
501.300	51.245	0.100
501.400	65.754	0.100
501.500	57.668	0.100
501.600	67.017	0.100
501.700	65.350	0.100
501.800	61.706	0.100
501.900	59.542	0.100
502.000	69.456	0.100
502.100	65.661	0.100
502.200	52.848	0.100
502.300	53.798	0.100
502.400	60.805	0.100
502.500	63.797	0.100
502.600	61.241	0.100
502.700	87.737	0.100
502.800	69.107	0.100
502.900	66.155	0.100
503.000	59.917	0.100
503.100	69.180	0.100
503.200	59.414	0.100
503.300	51.483	0.100
503.400	55.738	0.100
503.500	67.209	0.100
503.600	66.325	0.100
503.700	61.602	0.100
503.800	58.923	0.100
503.900	54.996	0.100
504.000	68.997	0.100
504.100	65.142	0.100
504.200	66.911	0.100
504.300	71.795	0.100
504.400	69.180	0.100
504.500	63.029	0.100
504.600	72.232	0.100
504.700	80.761	0.100
504.800	57.416	0.100
504.900	72.461	0.100
505.000	76.223	0.100
505.100	69.624	0.100
505.200	72.742	0.100
505.300	67.582	0.100
505.400	77.157	0.100
505.500	69.791	0.100
505.600	75.645	0.100
505.700	68.112	0.100
505.800	70.746	0.100
505.900	69.384	0.100
506.000	67.607	0.100
506.100	76.237	0.100
506.200	87.260	0.100
506.300	71.825	0.100
506.400	70.107	0.100
506.500	52.677	0.100
506.600	69.002	0.100
506.700	72.104	0.100
506.800	76.929	0.100
506.900	79.539	0.100
507.000	71.218	0.100
507.100	70.938	0.100
507.200	74.964	0.100
507.300	69.573	0.100
507.400	73.766	0.100
507.500	65.993	0.100
507.600	68.198	0.100
507.700	68.213	0.100
507.800	69.858	0.100
507.900	68.605	0.100
508.000	55.092	0.100
508.100	82.667	0.100
508.200	61.282	0.100
508.300	61.113	0.100
508.400	73.526	0.100
508.500	70.316	0.100
508.600	79.214	0.100
508.700	65.511	0.100
508.800	65.617	0.100
508.900	61.976	0.100
509.000	67.140	0.100
509.100	83.568	0.100
509.200	75.037	0.100
509.300	70.539	0.100
509.400	66.071	0.100
509.500	79.842	0.100
509.600	73.346	0.100
509.700	83.856	0.100
509.800	73.187	0.100
509.900	78.938	0.100
510.000	76.990	0.100
510.100	72.246	0.100
510.200	60.969	0.100
510.300	82.736	0.100
510.400	55.354	0.100
510.500	84.442	0.100
510.600	73.729	0.100
510.700	71.027	0.100
510.800	68.191	0.100
510.900	79.652	0.100
511.000	69.475	0.100
511.100	76.745	0.100
511.200	72.901	0.100
511.300	70.593	0.100
511.400	73.359	0.100
511.500	70.649	0.100
511.600	67.122	0.100
511.700	76.986	0.100
511.800	67.547	0.100
511.900	62.443	0.100
512.000	70.084	0.100
512.100	68.682	0.100
512.200	72.702	0.100
512.300	83.304	0.100
512.400	76.900	0.100
512.500	77.311	0.100
512.600	65.562	0.100
512.700	69.095	0.100
512.800	76.071	0.100
512.900	73.822	0.100
513.000	67.491	0.100
513.100	80.212	0.100
513.200	72.227	0.100
513.300	76.980	0.100
513.400	68.365	0.100
513.500	40.060	0.100
513.600	72.190	0.100
513.700	86.746	0.100
513.800	58.945	0.100
513.900	85.526	0.100
514.000	75.324	0.100
514.100	75.384	0.100
514.200	79.846	0.100
514.300	67.844	0.100
514.400	67.665	0.100
514.500	68.964	0.100
514.600	72.757	0.100
514.700	55.299	0.100
514.800	69.570	0.100
514.900	87.710	0.100
515.000	83.009	0.100
515.100	62.472	0.100
515.200	77.460	0.100
515.300	75.387	0.100
515.400	66.742	0.100
515.500	69.823	0.100
515.600	66.108	0.100
515.700	64.883	0.100
515.800	65.122	0.100
515.900	78.821	0.100
516.000	71.429	0.100
516.100	74.982	0.100
516.200	69.956	0.100
516.300	68.444	0.100
516.400	73.427	0.100
516.500	64.973	0.100
516.600	66.796	0.100
516.700	70.619	0.100
516.800	58.966	0.100
516.900	74.951	0.100
517.000	64.904	0.100
517.100	68.318	0.100
517.200	73.657	0.100
517.300	77.162	0.100
517.400	63.051	0.100
517.500	57.980	0.100
517.600	65.694	0.100
517.700	75.479	0.100
517.800	67.227	0.100
517.900	77.125	0.100
518.000	72.730	0.100
518.100	68.365	0.100
518.200	74.772	0.100
518.300	87.956	0.100
518.400	65.677	0.100
518.500	74.514	0.100
518.600	72.164	0.100
518.700	57.699	0.100
518.800	73.060	0.100
518.900	77.959	0.100
519.000	67.267	0.100
519.100	67.957	0.100
519.200	67.693	0.100
519.300	71.746	0.100
519.400	77.692	0.100
519.500	78.425	0.100
519.600	62.134	0.100
519.700	57.953	0.100
519.800	82.267	0.100
519.900	79.558	0.100
520.000	89.893	0.100
520.100	61.251	0.100
520.200	72.286	0.100
520.300	68.748	0.100
520.400	63.033	0.100
520.500	58.701	0.100
520.600	73.929	0.100
520.700	57.767	0.100
520.800	74.336	0.100
520.900	73.852	0.100
521.000	75.066	0.100
521.100	64.485	0.100
521.200	59.921	0.100
521.300	74.167	0.100
521.400	74.091	0.100
521.500	72.844	0.100
521.600	79.329	0.100
521.700	71.656	0.100
521.800	59.122	0.100
521.900	68.455	0.100
522.000	62.197	0.100
522.100	67.949	0.100
522.200	78.793	0.100
522.300	64.985	0.100
522.400	69.633	0.100
522.500	70.911	0.100
522.600	60.614	0.100
522.700	72.170	0.100
522.800	66.995	0.100
522.900	61.385	0.100
523.000	73.067	0.100
523.100	76.034	0.100
523.200	61.781	0.100
523.300	60.115	0.100
523.400	64.718	0.100
523.500	80.349	0.100
523.600	77.283	0.100
523.700	55.789	0.100
523.800	66.939	0.100
523.900	74.916	0.100
524.000	70.395	0.100
524.100	66.172	0.100
524.200	60.009	0.100
524.300	64.731	0.100
524.400	83.069	0.100
524.500	57.797	0.100
524.600	78.870	0.100
524.700	62.832	0.100
524.800	57.069	0.100
524.900	67.578	0.100
525.000	87.300	0.100
525.100	74.252	0.100
525.200	55.278	0.100
525.300	81.426	0.100
525.400	73.904	0.100
525.500	76.551	0.100
525.600	59.848	0.100
525.700	73.828	0.100
525.800	60.756	0.100
525.900	77.785	0.100
526.000	57.423	0.100
526.100	68.528	0.100
526.200	71.340	0.100
526.300	47.780	0.100
526.400	55.403	0.100
526.500	86.296	0.100
526.600	65.191	0.100
526.700	64.675	0.100
526.800	67.559	0.100
526.900	71.527	0.100
527.000	65.511	0.100
527.100	60.855	0.100
527.200	76.905	0.100
527.300	65.899	0.100
527.400	80.869	0.100
527.500	64.583	0.100
527.600	58.394	0.100
527.700	53.609	0.100
527.800	69.945	0.100
527.900	73.898	0.100
528.000	76.228	0.100
528.100	74.539	0.100
528.200	72.154	0.100
528.300	66.021	0.100
528.400	68.162	0.100
528.500	61.915	0.100
528.600	69.035	0.100
528.700	73.893	0.100
528.800	73.931	0.100
528.900	57.937	0.100
529.000	65.722	0.100
529.100	70.101	0.100
529.200	81.294	0.100
529.300	78.608	0.100
529.400	68.843	0.100
529.500	57.782	0.100
529.600	70.731	0.100
529.700	77.587	0.100
529.800	64.916	0.100
529.900	85.691	0.100
530.000	67.027	0.100
530.100	55.855	0.100
530.200	72.663	0.100
530.300	68.792	0.100
530.400	71.488	0.100
530.500	77.275	0.100
530.600	60.933	0.100
530.700	67.525	0.100
530.800	68.626	0.100
530.900	63.516	0.100
531.000	69.566	0.100
531.100	73.934	0.100
531.200	66.140	0.100
531.300	65.549	0.100
531.400	68.002	0.100
531.500	51.329	0.100
531.600	70.801	0.100
531.700	70.912	0.100
531.800	76.835	0.100
531.900	71.477	0.100
532.000	72.027	0.100
532.100	68.447	0.100
532.200	64.965	0.100
532.300	64.517	0.100
532.400	65.257	0.100
532.500	70.946	0.100
532.600	58.567	0.100
532.700	64.064	0.100
532.800	63.262	0.100
532.900	76.038	0.100
533.000	75.420	0.100
533.100	69.970	0.100
533.200	65.764	0.100
533.300	72.673	0.100
533.400	70.424	0.100
533.500	68.828	0.100
533.600	75.417	0.100
533.700	74.947	0.100
533.800	71.405	0.100
533.900	71.425	0.100
534.000	62.176	0.100
534.100	66.874	0.100
534.200	59.534	0.100
534.300	63.024	0.100
534.400	71.648	0.100
534.500	72.583	0.100
534.600	51.530	0.100
534.700	64.987	0.100
534.800	71.921	0.100
534.900	62.704	0.100
535.000	55.937	0.100
535.100	57.112	0.100
535.200	68.467	0.100
535.300	81.825	0.100
535.400	58.973	0.100
535.500	72.742	0.100
535.600	63.242	0.100
535.700	72.881	0.100
535.800	67.794	0.100
535.900	58.090	0.100
536.000	64.604	0.100
536.100	71.028	0.100
536.200	64.971	0.100
536.300	75.726	0.100
536.400	70.292	0.100
536.500	72.241	0.100
536.600	72.861	0.100
536.700	63.346	0.100
536.800	68.316	0.100
536.900	57.707	0.100
537.000	57.334	0.100
537.100	70.595	0.100
537.200	82.985	0.100
537.300	67.191	0.100
537.400	60.433	0.100
537.500	59.816	0.100
537.600	55.629	0.100
537.700	76.542	0.100
537.800	79.983	0.100
537.900	73.359	0.100
538.000	61.576	0.100
538.100	62.560	0.100
538.200	55.533	0.100
538.300	61.877	0.100
538.400	59.384	0.100
538.500	63.930	0.100
538.600	70.300	0.100
538.700	68.053	0.100
538.800	75.302	0.100
538.900	65.103	0.100
539.000	75.638	0.100
539.100	68.407	0.100
539.200	66.957	0.100
539.300	52.948	0.100
539.400	80.149	0.100
539.500	56.206	0.100
539.600	79.029	0.100
539.700	61.541	0.100
539.800	57.635	0.100
539.900	71.870	0.100
540.000	61.244	0.100
540.100	58.032	0.100
540.200	63.035	0.100
540.300	70.819	0.100
540.400	76.246	0.100
540.500	68.551	0.100
540.600	57.316	0.100
540.700	67.362	0.100
540.800	66.115	0.100
540.900	60.645	0.100
541.000	57.520	0.100
541.100	51.996	0.100
541.200	59.599	0.100
541.300	49.613	0.100
541.400	54.819	0.100
541.500	59.565	0.100
541.600	53.627	0.100
541.700	40.532	0.100
541.800	46.687	0.100
541.900	49.929	0.100
542.000	28.773	0.100
542.100	40.841	0.100
542.200	39.272	0.100
542.300	36.648	0.100
542.400	18.191	0.100
542.500	35.284	0.100
542.600	25.147	0.100
542.700	32.786	0.100
542.800	30.156	0.100
542.900	41.190	0.100
543.000	25.392	0.100
543.100	21.535	0.100
543.200	14.869	0.100
543.300	27.053	0.100
543.400	14.724	0.100
543.500	19.784	0.100
543.600	7.096	0.100
543.700	16.802	0.100
543.800	10.578	0.100
543.900	13.390	0.100
544.000	11.315	0.100
544.100	16.488	0.100
544.200	26.885	0.100
544.300	16.881	0.100
544.400	7.091	0.100
544.500	10.687	0.100
544.600	9.621	0.100
544.700	10.367	0.100
544.800	7.555	0.100
544.900	19.853	0.100
545.000	0.822	0.100
545.100	-3.833	0.100
545.200	0.407	0.100
545.300	14.255	0.100
545.400	-1.342	0.100
545.500	5.790	0.100
545.600	23.093	0.100
545.700	4.190	0.100
545.800	6.642	0.100
545.900	10.287	0.100
546.000	8.117	0.100
546.100	5.612	0.100
546.200	3.000	0.100
546.300	-7.196	0.100
546.400	6.411	0.100
546.500	-0.969	0.100
546.600	13.511	0.100
546.700	4.432	0.100
546.800	5.744	0.100
546.900	14.405	0.100
547.000	3.607	0.100
547.100	7.368	0.100
547.200	11.579	0.100
547.300	1.979	0.100
547.400	6.013	0.100
547.500	7.383	0.100
547.600	9.133	0.100
547.700	-3.411	0.100
547.800	3.819	0.100
547.900	4.103	0.100
548.000	8.386	0.100
548.100	1.091	0.100
548.200	5.803	0.100
548.300	-1.550	0.100
548.400	18.159	0.100
548.500	11.492	0.100
548.600	-7.246	0.100
548.700	-2.096	0.100
548.800	4.337	0.100
548.900	-5.088	0.100
549.000	0.955	0.100
549.100	13.857	0.100
549.200	17.108	0.100
549.300	8.329	0.100
549.400	-7.467	0.100
549.500	4.278	0.100
549.600	-4.076	0.100
549.700	-2.461	0.100
549.800	-2.397	0.100
549.900	-6.414	0.100
550.000	2.468	0.100
550.100	6.814	0.100
550.200	-6.382	0.100
550.300	-1.251	0.100
550.400	10.335	0.100
550.500	7.168	0.100
550.600	-1.508	0.100
550.700	0.954	0.100
550.800	-3.283	0.100
550.900	-0.911	0.100
551.000	-3.192	0.100
551.100	7.757	0.100
551.200	4.628	0.100
551.300	7.510	0.100
551.400	-3.349	0.100
551.500	-11.671	0.100
551.600	-8.396	0.100
551.700	-1.940	0.100
551.800	6.128	0.100
551.900	-5.952	0.100
552.000	-13.259	0.100
552.100	0.100	0.100
552.200	-4.700	0.100
552.300	-13.515	0.100
552.400	-1.580	0.100
552.500	-7.900	0.100
552.600	0.229	0.100
552.700	3.982	0.100
552.800	3.856	0.100
552.900	0.335	0.100
553.000	-4.624	0.100
553.100	-23.710	0.100
553.200	-17.590	0.100
553.300	-1.647	0.100
553.400	-5.188	0.100
553.500	3.151	0.100
553.600	-6.143	0.100
553.700	-8.137	0.100
553.800	-11.069	0.100
553.900	-14.736	0.100
554.000	-11.039	0.100
554.100	-9.527	0.100
554.200	-22.087	0.100
554.300	-25.462	0.100
554.400	4.697	0.100
554.500	-3.108	0.100
554.600	5.928	0.100
554.700	3.222	0.100
554.800	-5.345	0.100
554.900	-3.837	0.100
555.000	-12.114	0.100
555.100	-17.248	0.100
555.200	-11.038	0.100
555.300	-1.208	0.100
555.400	0.058	0.100
555.500	0.505	0.100
555.600	-17.675	0.100
555.700	-5.322	0.100
555.800	-12.813	0.100
555.900	-11.104	0.100
556.000	-10.491	0.100
556.100	2.724	0.100
556.200	-13.363	0.100
556.300	-17.856	0.100
556.400	0.412	0.100
556.500	-8.186	0.100
556.600	1.550	0.100
556.700	-9.468	0.100
556.800	10.969	0.100
556.900	-20.359	0.100
557.000	-12.943	0.100
557.100	-12.351	0.100
557.200	-20.777	0.100
557.300	-15.051	0.100
557.400	-6.764	0.100
557.500	-20.082	0.100
557.600	-13.577	0.100
557.700	-15.606	0.100
557.800	-17.324	0.100
557.900	-6.110	0.100
558.000	0.814	0.100
558.100	-7.349	0.100
558.200	-15.248	0.100
558.300	-4.491	0.100
558.400	-10.323	0.100
558.500	-18.850	0.100
558.600	-9.038	0.100
558.700	-23.554	0.100
558.800	-4.664	0.100
558.900	-6.631	0.100
559.000	-8.536	0.100
559.100	-12.530	0.100
559.200	-10.864	0.100
559.300	-23.929	0.100
559.400	-14.980	0.100
559.500	-1.666	0.100
559.600	-13.932	0.100
559.700	-4.715	0.100
559.800	-16.069	0.100
559.900	-23.382	0.100
560.000	-25.720	0.100
560.100	-19.669	0.100
560.200	-18.635	0.100
560.300	-20.479	0.100
560.400	-19.223	0.100
560.500	-14.231	0.100
560.600	-28.374	0.100
560.700	-10.524	0.100
560.800	-8.073	0.100
560.900	-7.086	0.100
561.000	0.811	0.100
561.100	-14.926	0.100
561.200	-18.652	0.100
561.300	-11.362	0.100
561.400	-13.151	0.100
561.500	-8.851	0.100
561.600	-23.496	0.100
561.700	-30.233	0.100
561.800	-17.663	0.100
561.900	-17.690	0.100
562.000	-9.510	0.100
562.100	-3.281	0.100
562.200	-8.183	0.100
562.300	-10.589	0.100
562.400	-32.830	0.100
562.500	-19.149	0.100
562.600	-35.680	0.100
562.700	-4.246	0.100
562.800	-13.569	0.100
562.900	-21.219	0.100
563.000	-10.820	0.100
563.100	-16.831	0.100
563.200	-9.213	0.100
563.300	-22.856	0.100
563.400	-8.020	0.100
563.500	-25.883	0.100
563.600	-19.404	0.100
563.700	-37.652	0.100
563.800	-23.397	0.100
563.900	-17.954	0.100
564.000	-16.216	0.100
564.100	0.707	0.100
564.200	-7.320	0.100
564.300	-22.528	0.100
564.400	-25.285	0.100
564.500	-14.712	0.100
564.600	-13.547	0.100
564.700	-30.444	0.100
564.800	-29.068	0.100
564.900	-12.076	0.100
565.000	-30.175	0.100
565.100	-21.022	0.100
565.200	-14.551	0.100
565.300	-6.059	0.100
565.400	-26.112	0.100
565.500	-15.893	0.100
565.600	-18.732	0.100
565.700	-27.884	0.100
565.800	-25.516	0.100
565.900	-23.727	0.100
566.000	-28.045	0.100
566.100	-29.614	0.100
566.200	-10.499	0.100
566.300	-20.529	0.100
566.400	-22.398	0.100
566.500	-5.287	0.100
566.600	-1.188	0.100
566.700	-21.149	0.100
566.800	-14.153	0.100
566.900	-11.567	0.100
567.000	-28.390	0.100
567.100	-9.409	0.100
567.200	-22.077	0.100
567.300	-15.193	0.100
567.400	-35.876	0.100
567.500	-36.954	0.100
567.600	-11.982	0.100
567.700	-16.470	0.100
567.800	-29.412	0.100
567.900	-34.795	0.100
568.000	-29.302	0.100
568.100	-32.769	0.100
568.200	-21.022	0.100
568.300	-23.555	0.100
568.400	-17.943	0.100
568.500	-22.824	0.100
568.600	-31.364	0.100
568.700	-13.946	0.100
568.800	-22.078	0.100
568.900	-32.860	0.100
569.000	-35.273	0.100
569.100	-13.538	0.100
569.200	-20.826	0.100
569.300	-18.199	0.100
569.400	-23.993	0.100
569.500	-19.988	0.100
569.600	-18.126	0.100
569.700	-29.986	0.100
569.800	-18.791	0.100
569.900	-27.682	0.100
570.000	-15.413	0.100
570.100	-15.895	0.100
570.200	-10.404	0.100
570.300	-19.436	0.100
570.400	-26.601	0.100
570.500	-21.572	0.100
570.600	-21.197	0.100
570.700	-24.228	0.100
570.800	-24.920	0.100
570.900	-21.876	0.100
571.000	-21.643	0.100
571.100	-26.767	0.100
571.200	-27.478	0.100
571.300	-27.735	0.100
571.400	-30.802	0.100
571.500	-24.304	0.100
571.600	-27.940	0.100
571.700	-15.688	0.100
571.800	-32.171	0.100
571.900	-17.725	0.100
572.000	-25.870	0.100
572.100	-14.289	0.100
572.200	-30.890	0.100
572.300	-26.857	0.100
572.400	-23.700	0.100
572.500	-28.466	0.100
572.600	-20.398	0.100
572.700	-24.224	0.100
572.800	-39.673	0.100
572.900	-28.996	0.100
573.000	-22.921	0.100
573.100	-18.459	0.100
573.200	-28.977	0.100
573.300	-23.123	0.100
573.400	-20.706	0.100
573.500	-31.566	0.100
573.600	-32.792	0.100
573.700	-25.761	0.100
573.800	-27.671	0.100
573.900	-22.050	0.100
574.000	-27.109	0.100
574.100	-26.120	0.100
574.200	-36.191	0.100
574.300	-31.851	0.100
574.400	-38.047	0.100
574.500	-31.771	0.100
574.600	-21.031	0.100
574.700	-23.864	0.100
574.800	-17.555	0.100
574.900	-21.101	0.100
575.000	-34.707	0.100
575.100	-24.477	0.100
575.200	-23.499	0.100
575.300	-30.751	0.100
575.400	-36.084	0.100
575.500	-31.191	0.100
575.600	-17.108	0.100
575.700	-24.479	0.100
575.800	-18.466	0.100
575.900	-24.257	0.100
576.000	-29.394	0.100
576.100	-35.108	0.100
576.200	-33.254	0.100
576.300	-26.427	0.100
576.400	-24.113	0.100
576.500	-21.603	0.100
576.600	-25.156	0.100
576.700	-36.710	0.100
576.800	-20.820	0.100
576.900	-26.888	0.100
577.000	-34.026	0.100
577.100	-38.637	0.100
577.200	-25.465	0.100
577.300	-27.064	0.100
577.400	-29.931	0.100
577.500	-42.118	0.100
577.600	-31.021	0.100
577.700	-24.490	0.100
577.800	-27.639	0.100
577.900	-45.507	0.100
578.000	-17.052	0.100
578.100	-22.514	0.100
578.200	-38.001	0.100
578.300	-25.093	0.100
578.400	-15.167	0.100
578.500	-30.916	0.100
578.600	-38.003	0.100
578.700	-25.056	0.100
578.800	-30.851	0.100
578.900	-29.429	0.100
579.000	-21.243	0.100
579.100	-27.929	0.100
579.200	-25.120	0.100
579.300	-37.578	0.100
579.400	-37.955	0.100
579.500	-42.423	0.100
579.600	-27.308	0.100
579.700	-20.004	0.100
579.800	-24.707	0.100
579.900	-23.456	0.100
580.000	-15.772	0.100
580.100	-32.981	0.100
580.200	-29.279	0.100
580.300	-23.102	0.100
580.400	-31.932	0.100
580.500	-30.735	0.100
580.600	-29.745	0.100
580.700	-32.544	0.100
580.800	-28.546	0.100
580.900	-37.998	0.100
581.000	-25.854	0.100
581.100	-39.202	0.100
581.200	-25.857	0.100
581.300	-14.799	0.100
581.400	-18.500	0.100
581.500	-21.063	0.100
581.600	-25.326	0.100
581.700	-20.195	0.100
581.800	-21.851	0.100
581.900	-23.395	0.100
582.000	-28.246	0.100
582.100	-20.560	0.100
582.200	-29.970	0.100
582.300	-22.188	0.100
582.400	-37.644	0.100
582.500	-23.886	0.100
582.600	-43.696	0.100
582.700	-30.755	0.100
582.800	-37.867	0.100
582.900	-39.251	0.100
583.000	-25.870	0.100
583.100	-14.529	0.100
583.200	-8.352	0.100
583.300	-19.145	0.100
583.400	-43.569	0.100
583.500	-23.983	0.100
583.600	-34.446	0.100
583.700	-32.778	0.100
583.800	-37.217	0.100
583.900	-28.866	0.100
584.000	-31.937	0.100
584.100	-39.104	0.100
584.200	-45.798	0.100
584.300	-24.526	0.100
584.400	-8.645	0.100
584.500	-16.641	0.100
584.600	-28.347	0.100
584.700	-43.208	0.100
584.800	-24.436	0.100
584.900	-35.750	0.100
585.000	-27.505	0.100
585.100	-27.592	0.100
585.200	-32.649	0.100
585.300	-13.977	0.100
585.400	-38.123	0.100
585.500	-27.307	0.100
585.600	-29.144	0.100
585.700	-39.197	0.100
585.800	-20.632	0.100
585.900	-30.991	0.100
586.000	-19.943	0.100
586.100	-26.341	0.100
586.200	-27.582	0.100
586.300	-40.126	0.100
586.400	-22.232	0.100
586.500	-23.274	0.100
586.600	-33.853	0.100
586.700	-27.752	0.100
586.800	-20.482	0.100
586.900	-25.731	0.100
587.000	-31.038	0.100
587.100	-35.829	0.100
587.200	-20.562	0.100
587.300	-28.641	0.100
587.400	-14.194	0.100
587.500	-27.434	0.100
587.600	-26.160	0.100
587.700	-23.444	0.100
587.800	-21.214	0.100
587.900	-35.196	0.100
588.000	-28.580	0.100
588.100	-29.075	0.100
588.200	-33.702	0.100
588.300	-33.551	0.100
588.400	-44.070	0.100
588.500	-30.772	0.100
588.600	-22.238	0.100
588.700	-28.119	0.100
588.800	-30.297	0.100
588.900	-11.829	0.100
589.000	-30.659	0.100
589.100	-36.043	0.100
589.200	-32.248	0.100
589.300	-29.117	0.100
589.400	-22.396	0.100
589.500	-29.391	0.100
589.600	-33.038	0.100
589.700	-34.231	0.100
589.800	-21.855	0.100
589.900	-38.050	0.100
590.000	-16.905	0.100
590.100	-22.514	0.100
590.200	-25.913	0.100
590.300	-28.637	0.100
590.400	-35.585	0.100
590.500	-29.287	0.100
590.600	-25.198	0.100
590.700	-19.669	0.100
590.800	-31.674	0.100
590.900	-39.723	0.100
591.000	-31.145	0.100
591.100	-19.877	0.100
591.200	-33.737	0.100
591.300	-16.026	0.100
591.400	-26.590	0.100
591.500	-24.397	0.100
591.600	-28.462	0.100
591.700	-36.268	0.100
591.800	-26.975	0.100
591.900	-40.971	0.100
592.000	-38.468	0.100
592.100	-29.384	0.100
592.200	-19.432	0.100
592.300	-34.417	0.100
592.400	-28.893	0.100
592.500	-33.469	0.100
592.600	-31.513	0.100
592.700	-18.346	0.100
592.800	-25.684	0.100
592.900	-27.528	0.100
593.000	-23.852	0.100
593.100	-35.496	0.100
593.200	-35.874	0.100
593.300	-13.144	0.100
593.400	-24.405	0.100
593.500	-28.728	0.100
593.600	-25.154	0.100
593.700	-11.896	0.100
593.800	-30.022	0.100
593.900	-34.707	0.100
594.000	-39.854	0.100
594.100	-45.161	0.100
594.200	-33.034	0.100
594.300	-34.427	0.100
594.400	-17.385	0.100
594.500	-28.454	0.100
594.600	-32.321	0.100
594.700	-29.001	0.100
594.800	-24.974	0.100
594.900	-23.435	0.100
595.000	-19.201	0.100
595.100	-26.799	0.100
595.200	-25.885	0.100
595.300	-17.077	0.100
595.400	-18.529	0.100
595.500	-39.839	0.100
595.600	-32.214	0.100
595.700	-47.761	0.100
595.800	-35.130	0.100
595.900	-16.606	0.100
596.000	-34.108	0.100
596.100	-28.928	0.100
596.200	-31.791	0.100
596.300	-31.356	0.100
596.400	-39.199	0.100
596.500	-26.938	0.100
596.600	-34.562	0.100
596.700	-18.886	0.100
596.800	-16.010	0.100
596.900	-24.156	0.100
597.000	-31.801	0.100
597.100	-38.832	0.100
597.200	-30.573	0.100
597.300	-25.407	0.100
597.400	-22.820	0.100
597.500	-37.880	0.100
597.600	-8.763	0.100
597.700	-25.146	0.100
597.800	-33.584	0.100
597.900	-19.830	0.100
598.000	-31.936	0.100
598.100	-22.006	0.100
598.200	-33.993	0.100
598.300	-27.851	0.100
598.400	-22.998	0.100
598.500	-16.782	0.100
598.600	-22.951	0.100
598.700	-26.878	0.100
598.800	-27.543	0.100
598.900	-10.810	0.100
599.000	-25.668	0.100
599.100	-23.083	0.100
599.200	-28.610	0.100
599.300	-21.210	0.100
599.400	-35.944	0.100
599.500	-36.627	0.100
599.600	-20.001	0.100
599.700	-19.571	0.100
599.800	-31.143	0.100
599.900	-23.141	0.100
600.000	-28.168	0.100
600.100	-26.779	0.100
600.200	-34.529	0.100
600.300	-27.481	0.100
600.400	-24.186	0.100
600.500	-23.660	0.100
600.600	-29.271	0.100
600.700	-25.653	0.100
600.800	-32.753	0.100
600.900	-33.607	0.100
601.000	-37.977	0.100
601.100	-31.248	0.100
601.200	-20.540	0.100
601.300	-8.841	0.100
601.400	-22.821	0.100
601.500	-32.475	0.100
601.600	-23.463	0.100
601.700	-26.526	0.100
601.800	-30.143	0.100
601.900	-28.461	0.100
602.000	-40.312	0.100
602.100	-23.262	0.100
602.200	-5.135	0.100
602.300	-25.004	0.100
602.400	-9.076	0.100
602.500	-9.204	0.100
602.600	-26.421	0.100
602.700	-45.722	0.100
602.800	-22.523	0.100
602.900	-16.858	0.100
603.000	-22.650	0.100
603.100	-30.767	0.100
603.200	-25.087	0.100
603.300	-32.494	0.100
603.400	-22.156	0.100
603.500	-18.899	0.100
603.600	-33.263	0.100
603.700	-14.761	0.100
603.800	-36.136	0.100
603.900	-33.902	0.100
604.000	-31.085	0.100
604.100	-22.297	0.100
604.200	-37.037	0.100
604.300	-21.418	0.100
604.400	-24.027	0.100
604.500	-21.084	0.100
604.600	-33.205	0.100
604.700	-18.184	0.100
604.800	-17.764	0.100
604.900	-33.465	0.100
605.000	-19.497	0.100
605.100	-25.439	0.100
605.200	-33.220	0.100
605.300	-21.874	0.100
605.400	-39.561	0.100
605.500	-34.892	0.100
605.600	-13.368	0.100
605.700	-10.863	0.100
605.800	-25.063	0.100
605.900	-29.325	0.100
606.000	-10.720	0.100
606.100	-21.960	0.100
606.200	-36.846	0.100
606.300	-21.478	0.100
606.400	-30.399	0.100
606.500	-20.463	0.100
606.600	-36.253	0.100
606.700	-26.686	0.100
606.800	-21.309	0.100
606.900	-22.244	0.100
607.000	-27.432	0.100
607.100	-14.448	0.100
607.200	-22.688	0.100
607.300	-25.789	0.100
607.400	-31.812	0.100
607.500	-21.599	0.100
607.600	-23.629	0.100
607.700	-36.164	0.100
607.800	-33.642	0.100
607.900	-31.858	0.100
608.000	-20.028	0.100
608.100	-17.951	0.100
608.200	-19.601	0.100
608.300	-29.914	0.100
608.400	-36.987	0.100
608.500	-18.924	0.100
608.600	-29.304	0.100
608.700	-37.980	0.100
608.800	-20.750	0.100
608.900	-19.470	0.100
609.000	-28.826	0.100
609.100	-40.318	0.100
609.200	-31.838	0.100
609.300	-27.087	0.100
609.400	-22.334	0.100
609.500	-22.460	0.100
609.600	-30.708	0.100
609.700	-27.278	0.100
609.800	-29.396	0.100
609.900	-29.406	0.100
610.000	-19.601	0.100
610.100	-16.919	0.100
610.200	-35.427	0.100
610.300	-22.460	0.100
610.400	-29.238	0.100
610.500	-21.579	0.100
610.600	-21.094	0.100
610.700	-37.894	0.100
610.800	-30.596	0.100
610.900	-33.820	0.100
611.000	-24.530	0.100
611.100	-21.884	0.100
611.200	-33.235	0.100
611.300	-23.694	0.100
611.400	-27.188	0.100
611.500	-39.618	0.100
611.600	-17.012	0.100
611.700	-20.107	0.100
611.800	-22.420	0.100
611.900	-22.024	0.100
612.000	-24.941	0.100
612.100	-29.036	0.100
612.200	-12.019	0.100
612.300	-27.311	0.100
612.400	-25.885	0.100
612.500	-36.317	0.100
612.600	-25.642	0.100
612.700	-22.891	0.100
612.800	-15.177	0.100
612.900	-26.393	0.100
613.000	-23.369	0.100
613.100	-22.285	0.100
613.200	-28.373	0.100
613.300	-31.903	0.100
613.400	-29.194	0.100
613.500	-25.778	0.100
613.600	-24.474	0.100
613.700	-27.247	0.100
613.800	-19.195	0.100
613.900	-19.166	0.100
614.000	-26.285	0.100
614.100	-28.913	0.100
614.200	-14.077	0.100
614.300	-25.534	0.100
614.400	-25.830	0.100
614.500	-30.893	0.100
614.600	-18.701	0.100
614.700	-14.710	0.100
614.800	-25.561	0.100
614.900	-20.326	0.100
615.000	-32.275	0.100
615.100	-29.210	0.100
615.200	-20.820	0.100
615.300	-26.272	0.100
615.400	-25.913	0.100
615.500	-28.546	0.100
615.600	-25.327	0.100
615.700	-16.692	0.100
615.800	-15.890	0.100
615.900	-27.596	0.100
616.000	-15.206	0.100
616.100	-21.278	0.100
616.200	-23.184	0.100
616.300	-15.495	0.100
616.400	-18.842	0.100
616.500	-27.935	0.100
616.600	-25.347	0.100
616.700	-25.368	0.100
616.800	-24.533	0.100
616.900	-38.278	0.100
617.000	-16.205	0.100
617.100	-24.963	0.100
617.200	-40.240	0.100
617.300	-18.429	0.100
617.400	-27.620	0.100
617.500	-27.078	0.100
617.600	-24.440	0.100
617.700	-29.725	0.100
617.800	-19.915	0.100
617.900	-34.482	0.100
618.000	-3.915	0.100
618.100	-19.419	0.100
618.200	-22.698	0.100
618.300	-24.965	0.100
618.400	-17.850	0.100
618.500	-24.759	0.100
618.600	-23.515	0.100
618.700	-13.672	0.100
618.800	-33.106	0.100
618.900	-29.139	0.100
619.000	-18.893	0.100
619.100	-27.452	0.100
619.200	-25.758	0.100
619.300	-10.333	0.100
619.400	-23.508	0.100
619.500	-16.638	0.100
619.600	-22.433	0.100
619.700	-21.760	0.100
619.800	-21.518	0.100
619.900	-23.204	0.100
620.000	-32.246	0.100
620.100	-23.299	0.100
620.200	-11.067	0.100
620.300	-17.922	0.100
620.400	-29.320	0.100
620.500	-32.302	0.100
620.600	-28.541	0.100
620.700	-22.747	0.100
620.800	-23.447	0.100
620.900	-24.134	0.100
621.000	-36.779	0.100
621.100	-30.799	0.100
621.200	-11.541	0.100
621.300	-19.954	0.100
621.400	-35.950	0.100
621.500	-11.861	0.100
621.600	-14.900	0.100
621.700	-19.823	0.100
621.800	-32.139	0.100
621.900	-16.949	0.100
622.000	-25.088	0.100
622.100	-34.614	0.100
622.200	-25.555	0.100
622.300	-19.431	0.100
622.400	-11.580	0.100
622.500	-30.521	0.100
622.600	-25.944	0.100
622.700	-15.743	0.100
622.800	-46.829	0.100
622.900	-20.346	0.100
623.000	-16.841	0.100
623.100	-18.298	0.100
623.200	-21.813	0.100
623.300	-23.052	0.100
623.400	-31.288	0.100
623.500	-26.797	0.100
623.600	-18.320	0.100
623.700	-26.174	0.100
623.800	-14.743	0.100
623.900	-17.440	0.100
624.000	-25.075	0.100
624.100	-21.953	0.100
624.200	-28.609	0.100
624.300	-28.387	0.100
624.400	-18.024	0.100
624.500	-40.963	0.100
624.600	-26.559	0.100
624.700	-19.789	0.100
624.800	-22.119	0.100
624.900	-17.223	0.100
625.000	-14.209	0.100
625.100	-20.907	0.100
625.200	-26.484	0.100
625.300	-24.462	0.100
625.400	-17.655	0.100
625.500	-27.215	0.100
625.600	-27.475	0.100
625.700	-18.558	0.100
625.800	-15.495	0.100
625.900	-18.434	0.100
626.000	-21.211	0.100
626.100	-39.809	0.100
626.200	-18.410	0.100
626.300	-20.864	0.100
626.400	-26.641	0.100
626.500	-12.007	0.100
626.600	-16.421	0.100
626.700	-19.372	0.100
626.800	-18.260	0.100
626.900	-33.855	0.100
627.000	-25.795	0.100
627.100	-18.966	0.100
627.200	-36.356	0.100
627.300	-26.492	0.100
627.400	-24.690	0.100
627.500	-32.341	0.100
627.600	-20.991	0.100
627.700	-38.907	0.100
627.800	-21.125	0.100
627.900	-20.239	0.100
628.000	-31.477	0.100
628.100	-26.525	0.100
628.200	-21.810	0.100
628.300	-17.148	0.100
628.400	-17.847	0.100
628.500	-27.658	0.100
628.600	-27.270	0.100
628.700	-10.705	0.100
628.800	-18.362	0.100
628.900	-20.963	0.100
629.000	-36.494	0.100
629.100	-17.163	0.100
629.200	-11.604	0.100
629.300	-34.381	0.100
629.400	-19.207	0.100
629.500	-2.183	0.100
629.600	-25.220	0.100
629.700	-21.539	0.100
629.800	-17.969	0.100
629.900	-23.506	0.100
630.000	-19.685	0.100
630.100	-15.356	0.100
630.200	-27.658	0.100
630.300	-21.068	0.100
630.400	-29.104	0.100
630.500	-26.133	0.100
630.600	-6.455	0.100
630.700	-13.045	0.100
630.800	-6.636	0.100
630.900	-15.587	0.100
631.000	-29.066	0.100
631.100	-26.685	0.100
631.200	-6.015	0.100
631.300	3.460	0.100
631.400	0.882	0.100
631.500	0.808	0.100
631.600	7.763	0.100
631.700	5.276	0.100
631.800	-16.671	0.100
631.900	6.991	0.100
632.000	9.780	0.100
632.100	7.018	0.100
632.200	10.718	0.100
632.300	16.207	0.100
632.400	20.917	0.100
632.500	11.042	0.100
632.600	4.802	0.100
632.700	-3.491	0.100
632.800	4.817	0.100
632.900	10.572	0.100
633.000	14.648	0.100
633.100	15.589	0.100
633.200	19.656	0.100
633.300	25.841	0.100
633.400	36.110	0.100
633.500	16.272	0.100
633.600	16.439	0.100
633.700	24.814	0.100
633.800	15.573	0.100
633.900	17.388	0.100
634.000	18.657	0.100
634.100	19.972	0.100
634.200	22.608	0.100
634.300	11.908	0.100
634.400	20.039	0.100
634.500	20.562	0.100
634.600	7.069	0.100
634.700	18.855	0.100
634.800	16.627	0.100
634.900	11.064	0.100
635.000	18.571	0.100
635.100	18.486	0.100
635.200	12.329	0.100
635.300	11.807	0.100
635.400	0.785	0.100
635.500	21.716	0.100
635.600	19.095	0.100
635.700	25.146	0.100
635.800	19.021	0.100
635.900	17.337	0.100
636.000	14.184	0.100
636.100	10.945	0.100
636.200	11.773	0.100
636.300	17.380	0.100
636.400	10.981	0.100
636.500	18.583	0.100
636.600	25.386	0.100
636.700	-2.907	0.100
636.800	0.184	0.100
636.900	9.281	0.100
637.000	28.477	0.100
637.100	22.973	0.100
637.200	13.988	0.100
637.300	18.209	0.100
637.400	19.095	0.100
637.500	20.476	0.100
637.600	11.267	0.100
637.700	7.407	0.100
637.800	23.548	0.100
637.900	12.605	0.100
638.000	10.947	0.100
638.100	13.891	0.100
638.200	19.784	0.100
638.300	15.876	0.100
638.400	14.676	0.100
638.500	14.727	0.100
638.600	33.695	0.100
638.700	20.947	0.100
638.800	24.998	0.100
638.900	3.677	0.100
639.000	16.814	0.100
639.100	20.811	0.100
639.200	14.864	0.100
639.300	19.658	0.100
639.400	17.578	0.100
639.500	17.147	0.100
639.600	17.116	0.100
639.700	36.913	0.100
639.800	23.868	0.100
639.900	23.060	0.100
640.000	23.137	0.100
640.100	19.473	0.100
640.200	25.424	0.100
640.300	9.622	0.100
640.400	15.769	0.100
640.500	16.721	0.100
640.600	26.904	0.100
640.700	22.652	0.100
640.800	25.328	0.100
640.900	20.373	0.100
641.000	16.879	0.100
641.100	17.666	0.100
641.200	14.240	0.100
641.300	41.632	0.100
641.400	17.567	0.100
641.500	40.706	0.100
641.600	44.912	0.100
641.700	20.168	0.100
641.800	35.969	0.100
641.900	28.876	0.100
642.000	29.848	0.100
642.100	18.440	0.100
642.200	25.683	0.100
642.300	33.053	0.100
642.400	20.399	0.100
642.500	25.101	0.100
642.600	37.256	0.100
642.700	17.859	0.100
642.800	29.101	0.100
642.900	30.176	0.100
643.000	26.753	0.100
643.100	16.179	0.100
643.200	16.230	0.100
643.300	34.336	0.100
643.400	37.048	0.100
643.500	25.666	0.100
643.600	26.929	0.100
643.700	16.891	0.100
643.800	21.880	0.100
643.900	30.023	0.100
644.000	26.526	0.100
644.100	43.593	0.100
644.200	41.101	0.100
644.300	39.420	0.100
644.400	15.175	0.100
644.500	32.117	0.100
644.600	35.748	0.100
644.700	31.755	0.100
644.800	26.813	0.100
644.900	33.611	0.100
645.000	45.020	0.100
645.100	43.790	0.100
645.200	28.735	0.100
645.300	38.579	0.100
645.400	39.312	0.100
645.500	38.030	0.100
645.600	41.156	0.100
645.700	28.121	0.100
645.800	29.318	0.100
645.900	40.146	0.100
646.000	36.219	0.100
646.100	27.472	0.100
646.200	46.089	0.100
646.300	42.272	0.100
646.400	32.539	0.100
646.500	44.372	0.100
646.600	35.944	0.100
646.700	44.054	0.100
646.800	35.271	0.100
646.900	43.370	0.100
647.000	38.933	0.100
647.100	35.842	0.100
647.200	45.753	0.100
647.300	40.888	0.100
647.400	35.451	0.100
647.500	44.617	0.100
647.600	44.196	0.100
647.700	45.306	0.100
647.800	40.136	0.100
647.900	44.732	0.100
648.000	55.902	0.100
648.100	34.989	0.100
648.200	34.719	0.100
648.300	38.367	0.100
648.400	34.655	0.100
648.500	56.915	0.100
648.600	41.606	0.100
648.700	51.144	0.100
648.800	49.445	0.100
648.900	61.580	0.100
649.000	49.862	0.100
649.100	45.974	0.100
649.200	60.372	0.100
649.300	52.785	0.100
649.400	50.252	0.100
649.500	33.849	0.100
649.600	43.117	0.100
649.700	49.387	0.100
649.800	61.304	0.100
649.900	31.971	0.100
650.000	72.188	0.100
650.100	73.855	0.100
650.200	60.449	0.100
650.300	53.128	0.100
650.400	48.273	0.100
650.500	53.447	0.100
650.600	63.039	0.100
650.700	52.608	0.100
650.800	54.001	0.100
650.900	70.135	0.100
651.000	64.759	0.100
651.100	53.910	0.100
651.200	57.061	0.100
651.300	60.140	0.100
651.400	49.732	0.100
651.500	64.283	0.100
651.600	65.955	0.100
651.700	53.986	0.100
651.800	57.233	0.100
651.900	61.266	0.100
652.000	54.021	0.100
652.100	64.682	0.100
652.200	60.191	0.100
652.300	55.858	0.100
652.400	66.442	0.100
652.500	57.075	0.100
652.600	54.473	0.100
652.700	60.131	0.100
652.800	60.195	0.100
652.900	60.721	0.100
653.000	63.156	0.100
653.100	69.078	0.100
653.200	75.462	0.100
653.300	79.979	0.100
653.400	77.862	0.100
653.500	64.535	0.100
653.600	65.259	0.100
653.700	69.247	0.100
653.800	67.735	0.100
653.900	60.578	0.100
654.000	63.088	0.100
654.100	68.644	0.100
654.200	72.492	0.100
654.300	56.600	0.100
654.400	60.761	0.100
654.500	63.997	0.100
654.600	67.320	0.100
654.700	63.853	0.100
654.800	65.980	0.100
654.900	44.995	0.100
655.000	70.165	0.100
655.100	64.982	0.100
655.200	67.373	0.100
655.300	79.968	0.100
655.400	67.635	0.100
655.500	71.904	0.100
655.600	68.494	0.100
655.700	78.292	0.100
655.800	53.223	0.100
655.900	64.041	0.100
656.000	70.682	0.100
656.100	68.456	0.100
656.200	54.608	0.100
656.300	68.223	0.100
656.400	66.548	0.100
656.500	63.272	0.100
656.600	69.254	0.100
656.700	77.484	0.100
656.800	74.557	0.100
656.900	67.567	0.100
657.000	60.388	0.100
657.100	72.652	0.100
657.200	67.986	0.100
657.300	73.016	0.100
657.400	70.259	0.100
657.500	89.847	0.100
657.600	64.704	0.100
657.700	71.425	0.100
657.800	66.235	0.100
657.900	69.028	0.100
658.000	60.567	0.100
658.100	73.782	0.100
658.200	67.858	0.100
658.300	75.919	0.100
658.400	73.412	0.100
658.500	68.111	0.100
658.600	65.253	0.100
658.700	77.640	0.100
658.800	78.331	0.100
658.900	70.922	0.100
659.000	63.732	0.100
659.100	56.292	0.100
659.200	63.726	0.100
659.300	77.981	0.100
659.400	74.892	0.100
659.500	67.350	0.100
659.600	75.348	0.100
659.700	82.324	0.100
659.800	77.742	0.100
659.900	71.972	0.100
660.000	65.508	0.100
660.100	59.017	0.100
660.200	68.670	0.100
660.300	65.741	0.100
660.400	77.516	0.100
660.500	79.199	0.100
660.600	71.200	0.100
660.700	80.712	0.100
660.800	73.729	0.100
660.900	66.475	0.100
661.000	79.239	0.100
661.100	59.362	0.100
661.200	51.787	0.100
661.300	79.202	0.100
661.400	81.906	0.100
661.500	71.031	0.100
661.600	78.473	0.100
661.700	77.094	0.100
661.800	81.947	0.100
661.900	70.560	0.100
662.000	69.809	0.100
662.100	81.654	0.100
662.200	57.202	0.100
662.300	74.435	0.100
662.400	52.671	0.100
662.500	66.778	0.100
662.600	66.908	0.100
662.700	70.279	0.100
662.800	71.355	0.100
662.900	68.967	0.100
663.000	81.154	0.100
663.100	73.235	0.100
663.200	69.402	0.100
663.300	60.252	0.100
663.400	70.425	0.100
663.500	78.833	0.100
663.600	62.601	0.100
663.700	68.217	0.100
663.800	82.887	0.100
663.900	59.852	0.100
664.000	75.696	0.100
664.100	70.985	0.100
664.200	68.242	0.100
664.300	65.560	0.100
664.400	63.648	0.100
664.500	70.355	0.100
664.600	79.757	0.100
664.700	67.078	0.100
664.800	63.676	0.100
664.900	83.770	0.100
665.000	85.072	0.100
665.100	77.863	0.100
665.200	68.997	0.100
665.300	61.552	0.100
665.400	69.769	0.100
665.500	69.356	0.100
665.600	74.614	0.100
665.700	76.525	0.100
665.800	75.569	0.100
665.900	74.213	0.100
666.000	72.969	0.100
666.100	74.673	0.100
666.200	69.074	0.100
666.300	75.695	0.100
666.400	63.522	0.100
666.500	60.720	0.100
666.600	59.156	0.100
666.700	74.826	0.100
666.800	64.391	0.100
666.900	66.723	0.100
667.000	77.359	0.100
667.100	66.396	0.100
667.200	76.306	0.100
667.300	72.729	0.100
667.400	68.143	0.100
667.500	71.421	0.100
667.600	56.925	0.100
667.700	74.278	0.100
667.800	70.523	0.100
667.900	67.060	0.100
668.000	87.926	0.100
668.100	69.533	0.100
668.200	61.835	0.100
668.300	64.965	0.100
668.400	72.782	0.100
668.500	65.995	0.100
668.600	81.390	0.100
668.700	72.136	0.100
668.800	71.438	0.100
668.900	62.053	0.100
669.000	64.447	0.100
669.100	71.832	0.100
669.200	75.199	0.100
669.300	71.165	0.100
669.400	55.873	0.100
669.500	76.525	0.100
669.600	75.908	0.100
669.700	68.361	0.100
669.800	82.351	0.100
669.900	64.881	0.100
670.000	64.809	0.100
670.100	73.623	0.100
670.200	72.018	0.100
670.300	71.187	0.100
670.400	62.338	0.100
670.500	81.631	0.100
670.600	70.394	0.100
670.700	66.710	0.100
670.800	64.610	0.100
670.900	76.272	0.100
671.000	59.741	0.100
671.100	72.214	0.100
671.200	76.490	0.100
671.300	57.116	0.100
671.400	63.427	0.100
671.500	74.190	0.100
671.600	71.641	0.100
671.700	58.154	0.100
671.800	64.778	0.100
671.900	63.365	0.100
672.000	72.216	0.100
672.100	69.783	0.100
672.200	72.920	0.100
672.300	59.981	0.100
672.400	70.783	0.100
672.500	84.288	0.100
672.600	59.923	0.100
672.700	63.902	0.100
672.800	79.373	0.100
672.900	61.335	0.100
673.000	69.380	0.100
673.100	63.564	0.100
673.200	65.393	0.100
673.300	64.417	0.100
673.400	66.820	0.100
673.500	73.112	0.100
673.600	55.593	0.100
673.700	59.995	0.100
673.800	74.843	0.100
673.900	65.582	0.100
674.000	65.776	0.100
674.100	88.057	0.100
674.200	79.226	0.100
674.300	70.828	0.100
674.400	61.812	0.100
674.500	63.866	0.100
674.600	70.968	0.100
674.700	70.043	0.100
674.800	67.599	0.100
674.900	71.097	0.100
675.000	63.738	0.100
675.100	86.316	0.100
675.200	68.771	0.100
675.300	80.912	0.100
675.400	70.773	0.100
675.500	72.554	0.100
675.600	66.792	0.100
675.700	64.857	0.100
675.800	77.564	0.100
675.900	70.058	0.100
676.000	54.879	0.100
676.100	76.731	0.100
676.200	78.893	0.100
676.300	63.875	0.100
676.400	75.346	0.100
676.500	53.960	0.100
676.600	59.762	0.100
676.700	71.887	0.100
676.800	63.927	0.100
676.900	67.222	0.100
677.000	51.896	0.100
677.100	51.747	0.100
677.200	77.487	0.100
677.300	74.423	0.100
677.400	74.808	0.100
677.500	63.719	0.100
677.600	71.596	0.100
677.700	71.451	0.100
677.800	67.790	0.100
677.900	79.676	0.100
678.000	62.285	0.100
678.100	53.710	0.100
678.200	79.002	0.100
678.300	63.140	0.100
678.400	64.479	0.100
678.500	71.987	0.100
678.600	69.612	0.100
678.700	75.362	0.100
678.800	66.922	0.100
678.900	64.295	0.100
679.000	63.727	0.100
679.100	60.437	0.100
679.200	69.458	0.100
679.300	72.116	0.100
679.400	65.378	0.100
679.500	70.711	0.100
679.600	62.758	0.100
679.700	62.077	0.100
679.800	66.484	0.100
679.900	71.491	0.100
680.000	64.456	0.100
680.100	77.582	0.100
680.200	53.592	0.100
680.300	74.940	0.100
680.400	59.674	0.100
680.500	88.812	0.100
680.600	81.017	0.100
680.700	67.672	0.100
680.800	67.140	0.100
680.900	82.887	0.100
681.000	74.504	0.100
681.100	58.233	0.100
681.200	66.256	0.100
681.300	64.249	0.100
681.400	69.949	0.100
681.500	67.795	0.100
681.600	82.045	0.100
681.700	70.133	0.100
681.800	66.896	0.100
681.900	72.924	0.100
682.000	66.641	0.100
682.100	60.703	0.100
682.200	76.722	0.100
682.300	72.253	0.100
682.400	54.463	0.100
682.500	74.990	0.100
682.600	66.471	0.100
682.700	75.342	0.100
682.800	73.625	0.100
682.900	69.940	0.100
683.000	59.345	0.100
683.100	67.122	0.100
683.200	63.369	0.100
683.300	71.922	0.100
683.400	70.367	0.100
683.500	58.263	0.100
683.600	67.186	0.100
683.700	61.285	0.100
683.800	77.770	0.100
683.900	64.505	0.100
684.000	63.589	0.100
684.100	66.293	0.100
684.200	71.889	0.100
684.300	74.235	0.100
684.400	65.809	0.100
684.500	64.568	0.100
684.600	71.484	0.100
684.700	51.999	0.100
684.800	69.476	0.100
684.900	57.608	0.100
685.000	66.908	0.100
685.100	66.213	0.100
685.200	54.593	0.100
685.300	73.395	0.100
685.400	56.821	0.100
685.500	57.169	0.100
685.600	64.080	0.100
685.700	63.324	0.100
685.800	71.904	0.100
685.900	66.282	0.100
686.000	69.898	0.100
686.100	65.918	0.100
686.200	60.687	0.100
686.300	66.307	0.100
686.400	68.274	0.100
686.500	63.698	0.100
686.600	71.905	0.100
686.700	74.885	0.100
686.800	70.778	0.100
686.900	76.476	0.100
687.000	64.391	0.100
687.100	61.802	0.100
687.200	72.446	0.100
687.300	61.621	0.100
687.400	63.906	0.100
687.500	78.941	0.100
687.600	61.279	0.100
687.700	56.183	0.100
687.800	62.386	0.100
687.900	72.081	0.100
688.000	57.996	0.100
688.100	68.632	0.100
688.200	75.016	0.100
688.300	67.547	0.100
688.400	49.917	0.100
688.500	60.406	0.100
688.600	60.142	0.100
688.700	45.222	0.100
688.800	68.922	0.100
688.900	71.851	0.100
689.000	64.977	0.100
689.100	66.012	0.100
689.200	52.014	0.100
689.300	62.641	0.100
689.400	76.015	0.100
689.500	69.768	0.100
689.600	75.326	0.100
689.700	71.333	0.100
689.800	74.350	0.100
689.900	66.463	0.100
690.000	80.543	0.100
690.100	59.872	0.100
690.200	63.704	0.100
690.300	67.697	0.100
690.400	64.353	0.100
690.500	71.645	0.100
690.600	53.527	0.100
690.700	58.245	0.100
690.800	66.043	0.100
690.900	62.441	0.100
691.000	51.749	0.100
691.100	51.582	0.100
691.200	54.196	0.100
691.300	59.780	0.100
691.400	39.148	0.100
691.500	37.494	0.100
691.600	55.363	0.100
691.700	43.602	0.100
691.800	37.962	0.100
691.900	50.156	0.100
692.000	43.986	0.100
692.100	39.255	0.100
692.200	25.082	0.100
692.300	42.681	0.100
692.400	20.568	0.100
692.500	18.424	0.100
692.600	24.027	0.100
692.700	26.256	0.100
692.800	15.572	0.100
692.900	24.119	0.100
693.000	22.363	0.100
693.100	14.769	0.100
693.200	34.817	0.100
693.300	13.499	0.100
693.400	28.072	0.100
693.500	7.483	0.100
693.600	15.818	0.100
693.700	16.827	0.100
693.800	9.583	0.100
693.900	0.922	0.100
694.000	15.804	0.100
694.100	13.125	0.100
694.200	5.203	0.100
694.300	9.996	0.100
694.400	9.294	0.100
694.500	8.241	0.100
694.600	17.410	0.100
694.700	8.803	0.100
694.800	9.309	0.100
694.900	1.263	0.100
695.000	-8.180	0.100
695.100	7.589	0.100
695.200	18.955	0.100
695.300	1.701	0.100
695.400	-11.015	0.100
695.500	16.357	0.100
695.600	4.797	0.100
695.700	19.545	0.100
695.800	18.317	0.100
695.900	0.102	0.100
696.000	-1.443	0.100
696.100	10.739	0.100
696.200	-3.493	0.100
696.300	10.924	0.100
696.400	7.151	0.100
696.500	-3.208	0.100
696.600	1.825	0.100
696.700	3.269	0.100
696.800	3.114	0.100
696.900	12.022	0.100
697.000	-14.998	0.100
697.100	-9.694	0.100
697.200	-5.544	0.100
697.300	21.294	0.100
697.400	4.425	0.100
697.500	11.082	0.100
697.600	5.124	0.100
697.700	6.644	0.100
697.800	4.582	0.100
697.900	-16.291	0.100
698.000	5.728	0.100
698.100	6.572	0.100
698.200	1.250	0.100
698.300	9.953	0.100
698.400	3.108	0.100
698.500	-3.069	0.100
698.600	4.252	0.100
698.700	3.290	0.100
698.800	-7.011	0.100
698.900	-4.938	0.100
699.000	-3.641	0.100
699.100	-16.644	0.100
699.200	11.253	0.100
699.300	-5.935	0.100
699.400	7.197	0.100
699.500	0.421	0.100
699.600	-2.407	0.100
699.700	1.336	0.100
699.800	5.647	0.100
699.900	-0.098	0.100
700.000	-12.728	0.100
700.100	-0.410	0.100
700.200	1.302	0.100
700.300	-8.506	0.100
700.400	-13.247	0.100
700.500	-5.504	0.100
700.600	2.853	0.100
700.700	9.209	0.100
700.800	7.052	0.100
700.900	3.665	0.100
701.000	-11.180	0.100
701.100	-2.041	0.100
701.200	-1.639	0.100
701.300	-0.550	0.100
701.400	-1.499	0.100
701.500	-9.268	0.100
701.600	-15.406	0.100
701.700	-7.621	0.100
701.800	-1.106	0.100
701.900	-2.899	0.100
702.000	1.621	0.100
702.100	0.677	0.100
702.200	-6.565	0.100
702.300	4.185	0.100
702.400	-3.373	0.100
702.500	-22.208	0.100
702.600	-16.681	0.100
702.700	-7.230	0.100
702.800	2.277	0.100
702.900	4.434	0.100
703.000	-8.557	0.100
703.100	-8.278	0.100
703.200	-18.105	0.100
703.300	-9.392	0.100
703.400	-2.899	0.100
703.500	1.375	0.100
703.600	-2.936	0.100
703.700	-7.734	0.100
703.800	-3.051	0.100
703.900	-6.560	0.100
704.000	-17.722	0.100
704.100	-8.851	0.100
704.200	-11.781	0.100
704.300	-7.859	0.100
704.400	1.410	0.100
704.500	0.914	0.100
704.600	-13.999	0.100
704.700	-11.543	0.100
704.800	-4.687	0.100
704.900	-13.263	0.100
705.000	-4.416	0.100
705.100	-7.694	0.100
705.200	-9.424	0.100
705.300	-15.374	0.100
705.400	-21.567	0.100
705.500	-2.889	0.100
705.600	-13.591	0.100
705.700	7.473	0.100
705.800	-3.136	0.100
705.900	-12.384	0.100
706.000	-16.634	0.100
706.100	-14.277	0.100
706.200	-2.979	0.100
706.300	-5.753	0.100
706.400	-12.386	0.100
706.500	-15.280	0.100
706.600	-19.817	0.100
706.700	-11.661	0.100
706.800	-16.114	0.100
706.900	-11.494	0.100
707.000	1.820	0.100
707.100	-13.134	0.100
707.200	-4.705	0.100
707.300	-4.286	0.100
707.400	-6.406	0.100
707.500	-27.909	0.100
707.600	-22.407	0.100
707.700	-25.592	0.100
707.800	-0.689	0.100
707.900	-7.402	0.100
708.000	-10.428	0.100
708.100	-12.572	0.100
708.200	-13.280	0.100
708.300	-8.671	0.100
708.400	-18.818	0.100
708.500	-17.124	0.100
708.600	-6.022	0.099
708.700	-7.373	0.099
708.800	-14.284	0.099
708.900	-18.180	0.099
709.000	-14.167	0.099
709.100	-4.048	0.099
709.200	-14.193	0.099
709.300	-21.804	0.099
709.400	-8.921	0.099
709.500	-13.709	0.099
709.600	-25.762	0.099
709.700	-6.402	0.099
709.800	-18.852	0.099
709.900	-15.511	0.099
710.000	-29.487	0.099
710.100	-20.866	0.099
710.200	-18.907	0.099
710.300	-12.484	0.099
710.400	-9.718	0.099
710.500	-0.782	0.099
710.600	-13.473	0.099
710.700	4.256	0.099
710.800	-11.995	0.099
710.900	-24.917	0.099
711.000	-23.673	0.099
711.100	-6.060	0.099
711.200	-31.807	0.099
711.300	-29.154	0.099
711.400	-12.545	0.099
711.500	-12.400	0.099
711.600	-27.667	0.099
711.700	-10.947	0.099
711.800	-21.735	0.099
711.900	-11.627	0.099
712.000	-15.614	0.099
712.100	-16.904	0.099
712.200	-20.034	0.099
712.300	-15.879	0.099
712.400	-22.842	0.099
712.500	-17.878	0.099
712.600	-17.705	0.099
712.700	-14.450	0.099
712.800	-15.636	0.099
712.900	-25.904	0.099
713.000	-28.385	0.099
713.100	-5.288	0.099
713.200	-17.502	0.099
713.300	-11.982	0.099
713.400	-13.732	0.099
713.500	-20.179	0.099
713.600	-20.886	0.099
713.700	-21.962	0.099
713.800	-34.454	0.099
713.900	-19.333	0.099
714.000	-20.149	0.099
714.100	-17.812	0.099
714.200	-28.905	0.099
714.300	-11.682	0.099
714.400	-17.552	0.099
714.500	-17.485	0.099
714.600	-21.718	0.099
714.700	-29.393	0.099
714.800	-17.331	0.099
714.900	-27.521	0.099
715.000	-26.123	0.099
715.100	-10.735	0.099
715.200	-8.351	0.099
715.300	-11.403	0.099
715.400	-28.236	0.099
715.500	-16.757	0.099
715.600	-26.248	0.099
715.700	-27.731	0.099
715.800	-28.394	0.099
715.900	-22.418	0.099
716.000	-28.153	0.099
716.100	-31.899	0.099
716.200	-25.764	0.099
716.300	-25.458	0.099
716.400	-22.678	0.099
716.500	-21.936	0.099
716.600	-20.097	0.099
716.700	-27.097	0.099
716.800	-24.726	0.099
716.900	-25.794	0.099
717.000	-32.367	0.099
717.100	-26.773	0.099
717.200	-16.992	0.099
717.300	-13.039	0.099
717.400	-15.075	0.099
717.500	-14.809	0.099
717.600	-34.109	0.099
717.700	-30.403	0.099
717.800	-35.914	0.099
717.900	-27.081	0.099
718.000	-23.719	0.099
718.100	-16.385	0.099
718.200	-19.279	0.099
718.300	-25.553	0.099
718.400	-24.855	0.099
718.500	-38.815	0.099
718.600	-16.727	0.099
718.700	-26.810	0.099
718.800	-22.589	0.099
718.900	-34.159	0.099
719.000	-27.731	0.099
719.100	-21.443	0.099
719.200	-19.114	0.099
719.300	-11.285	0.099
719.400	-22.442	0.099
719.500	-24.615	0.099
719.600	-22.669	0.099
719.700	-26.131	0.099
719.800	-33.434	0.099
719.900	-29.122	0.099
720.000	-25.847	0.099
720.100	-16.267	0.099
720.200	-39.794	0.099
720.300	-32.614	0.099
720.400	-28.851	0.099
720.500	-22.760	0.099
720.600	-37.168	0.099
720.700	-23.146	0.099
720.800	-21.019	0.099
720.900	-34.745	0.099
721.000	-19.770	0.099
721.100	-11.950	0.099
721.200	-31.822	0.099
721.300	-31.436	0.099
721.400	-13.424	0.099
721.500	-28.913	0.099
721.600	-28.041	0.099
721.700	-27.827	0.099
721.800	-22.713	0.099
721.900	-21.042	0.099
722.000	-31.323	0.099
722.100	-18.969	0.099
722.200	-25.531	0.099
722.300	-37.550	0.099
722.400	-19.469	0.099
722.500	-21.732	0.099
722.600	-31.539	0.099
722.700	-31.874	0.099
722.800	-20.133	0.099
722.900	-31.616	0.099
723.000	-38.770	0.099
723.100	-38.850	0.099
723.200	-27.427	0.099
723.300	-19.642	0.099
723.400	-24.349	0.099
723.500	-28.469	0.099
723.600	-28.364	0.099
723.700	-39.650	0.099
723.800	-23.772	0.099
723.900	-31.248	0.099
724.000	-32.348	0.099
724.100	-35.035	0.099
724.200	-31.017	0.099
724.300	-22.756	0.099
724.400	-39.455	0.099
724.500	-29.024	0.099
724.600	-24.769	0.099
724.700	-30.826	0.099
724.800	-30.952	0.099
724.900	-17.323	0.099
725.000	-27.348	0.099
725.100	-31.502	0.099
725.200	-26.213	0.099
725.300	-27.271	0.099
725.400	-30.544	0.100
725.500	-38.068	0.100
725.600	-43.894	0.100
725.700	-23.574	0.100
725.800	-38.814	0.100
725.900	-33.350	0.099
726.000	-43.378	0.100
726.100	-42.730	0.100
726.200	-21.424	0.099
726.300	-14.234	0.100
726.400	-23.808	0.100
726.500	-32.636	0.100
726.600	-26.887	0.100
726.700	-44.006	0.099
726.800	-19.141	0.100
726.900	-32.031	0.100
727.000	-37.160	0.100
727.100	-23.795	0.100
727.200	-22.447	0.100
727.300	-27.047	0.100
727.400	-23.788	0.100
727.500	-25.482	0.100
727.600	-38.711	0.100
727.700	-39.223	0.100
727.800	-33.393	0.100
727.900	-31.207	0.099
728.000	-28.207	0.100
728.100	-29.106	0.100
728.200	-29.779	0.099
728.300	-24.459	0.100
728.400	-31.107	0.099
728.500	-29.713	0.100
728.600	-17.559	0.100
728.700	-21.945	0.100
728.800	-26.434	0.100
728.900	-29.995	0.100
729.000	-32.886	0.100
729.100	-34.119	0.100
729.200	-23.018	0.100
729.300	-23.226	0.100
729.400	-30.086	0.100
729.500	-38.768	0.100
729.600	-30.842	0.100
729.700	-29.960	0.099
729.800	-34.120	0.100
729.900	-23.585	0.100
730.000	-30.523	0.100
730.100	-19.509	0.100
730.200	-24.171	0.100
730.300	-28.128	0.100
730.400	-36.691	0.100
730.500	-34.441	0.100
730.600	-33.929	0.100
730.700	-30.177	0.100
730.800	-47.745	0.100
730.900	-45.840	0.099
731.000	-36.781	0.100
731.100	-12.659	0.100
731.200	-30.159	0.100
731.300	-24.354	0.100
731.400	-32.130	0.100
731.500	-27.456	0.100
731.600	-34.538	0.100
731.700	-22.180	0.100
731.800	-26.078	0.100
731.900	-13.215	0.100
732.000	-28.140	0.100
732.100	-42.151	0.100
732.200	-33.028	0.100
732.300	-28.045	0.100
732.400	-34.021	0.100
732.500	-27.102	0.100
732.600	-40.849	0.100
732.700	-27.299	0.100
732.800	-33.598	0.100
732.900	-28.869	0.100
733.000	-28.477	0.100
733.100	-39.616	0.100
733.200	-28.997	0.100
733.300	-23.548	0.100
733.400	-31.272	0.100
733.500	-26.481	0.100
733.600	-26.156	0.100
733.700	-33.970	0.100
733.800	-35.504	0.100
733.900	-24.458	0.100
734.000	-28.823	0.100
734.100	-35.323	0.100
734.200	-29.626	0.100
734.300	-37.191	0.100
734.400	-27.272	0.100
734.500	-27.828	0.100
734.600	-24.262	0.100
734.700	-29.066	0.100
734.800	-26.479	0.100
734.900	-34.794	0.100
735.000	-31.420	0.100
735.100	-30.136	0.100
735.200	-39.850	0.100
735.300	-28.124	0.100
735.400	-28.551	0.100
735.500	-31.094	0.100
735.600	-21.732	0.100
735.700	-32.866	0.100
735.800	-23.467	0.100
735.900	-32.604	0.100
736.000	-37.935	0.100
736.100	-34.331	0.100
736.200	-45.256	0.100
736.300	-25.086	0.100
736.400	-32.952	0.100
736.500	-47.956	0.100
736.600	-30.789	0.100
736.700	-35.601	0.100
736.800	-27.222	0.100
736.900	-22.773	0.100
737.000	-35.591	0.100
737.100	-26.063	0.100
737.200	-37.447	0.100
737.300	-20.483	0.100
737.400	-32.339	0.100
737.500	-23.054	0.100
737.600	-9.692	0.100
737.700	-22.740	0.100
737.800	-27.406	0.100
737.900	-33.813	0.100
738.000	-37.233	0.100
738.100	-34.392	0.100
738.200	-34.002	0.100
738.300	-39.508	0.100
738.400	-14.913	0.100
738.500	-35.206	0.100
738.600	-22.290	0.100
738.700	-10.006	0.100
738.800	-34.725	0.100
738.900	-24.685	0.100
739.000	-18.386	0.100
739.100	-29.857	0.100
739.200	-29.071	0.100
739.300	-32.076	0.100
739.400	-45.914	0.100
739.500	-31.508	0.100
739.600	-28.015	0.100
739.700	-24.274	0.100
739.800	-31.975	0.100
739.900	-32.969	0.100
740.000	-25.031	0.100
740.100	-22.491	0.100
740.200	-35.878	0.100
740.300	-47.936	0.100
740.400	-21.540	0.100
740.500	-36.428	0.100
740.600	-35.925	0.100
740.700	-46.720	0.100
740.800	-24.774	0.100
740.900	-28.361	0.100
741.000	-29.171	0.100
741.100	-20.273	0.100
741.200	-44.136	0.100
741.300	-29.632	0.100
741.400	-30.961	0.100
741.500	-32.520	0.100
741.600	-30.278	0.100
741.700	-13.285	0.100
741.800	-37.065	0.100
741.900	-35.577	0.100
742.000	-30.634	0.100
742.100	-21.584	0.100
742.200	-32.664	0.100
742.300	-23.445	0.100
742.400	-20.117	0.100
742.500	-36.108	0.100
742.600	-30.276	0.100
742.700	-30.973	0.100
742.800	-32.398	0.100
742.900	-30.509	0.100
743.000	-23.319	0.100
743.100	-36.233	0.100
743.200	-21.666	0.100
743.300	-22.717	0.100
743.400	-36.123	0.100
743.500	-27.097	0.100
743.600	-31.037	0.100
743.700	-32.533	0.100
743.800	-33.837	0.100
743.900	-32.159	0.100
744.000	-25.987	0.100
744.100	-18.710	0.100
744.200	-24.983	0.100
744.300	-37.061	0.100
744.400	-23.236	0.100
744.500	-25.831	0.100
744.600	-31.760	0.100
744.700	-24.937	0.100
744.800	-26.375	0.100
744.900	-31.433	0.100
745.000	-35.448	0.100
745.100	-31.037	0.100
745.200	-18.529	0.100
745.300	-26.708	0.100
745.400	-21.414	0.100
745.500	-14.019	0.100
745.600	-19.231	0.100
745.700	-30.917	0.100
745.800	-31.610	0.100
745.900	-16.880	0.100
746.000	-37.112	0.100
746.100	-25.374	0.100
746.200	-31.601	0.100
746.300	-31.128	0.100
746.400	-20.937	0.100
746.500	-30.887	0.100
746.600	-22.632	0.100
746.700	-28.129	0.100
746.800	-29.291	0.100
746.900	-33.995	0.100
747.000	-35.071	0.100
747.100	-36.855	0.100
747.200	-22.847	0.100
747.300	-29.557	0.100
747.400	-44.262	0.100
747.500	-23.000	0.100
747.600	-25.568	0.100
747.700	-19.451	0.100
747.800	-25.583	0.100
747.900	-37.868	0.100
748.000	-35.380	0.100
748.100	-27.956	0.100
748.200	-34.729	0.100
748.300	-32.571	0.100
748.400	-9.504	0.100
748.500	-32.377	0.100
748.600	-29.046	0.100
748.700	-42.852	0.100
748.800	-22.966	0.100
748.900	-26.401	0.100
749.000	-24.783	0.100
749.100	-27.828	0.100
749.200	-23.671	0.100
749.300	-31.435	0.100
749.400	-25.676	0.100
749.500	-37.688	0.100
749.600	-24.423	0.100
749.700	-25.966	0.100
749.800	-31.666	0.100
749.900	-27.467	0.100
750.000	-22.736	0.100
750.100	-14.063	0.100
750.200	-24.373	0.100
750.300	-32.028	0.100
750.400	-17.464	0.100
750.500	-38.019	0.100
750.600	-36.380	0.100
750.700	-45.776	0.100
750.800	-33.940	0.100
750.900	-16.828	0.100
751.000	-31.960	0.100
751.100	-38.211	0.100
751.200	-11.461	0.100
751.300	-10.675	0.100
751.400	-37.407	0.100
751.500	-27.522	0.100
751.600	-19.838	0.100
751.700	-24.597	0.100
751.800	-28.663	0.100
751.900	-38.051	0.100
752.000	-21.261	0.100
752.100	-38.382	0.100
752.200	-21.062	0.100
752.300	-14.044	0.100
752.400	-27.656	0.100
752.500	-25.535	0.100
752.600	-26.947	0.100
752.700	-28.646	0.100
752.800	-31.762	0.100
752.900	-22.737	0.100
753.000	-26.978	0.100
753.100	-35.288	0.100
753.200	-35.336	0.100
753.300	-36.404	0.100
753.400	-29.245	0.100
753.500	-17.885	0.100
753.600	-27.764	0.100
753.700	-24.247	0.100
753.800	-24.521	0.100
753.900	-31.222	0.100
754.000	-30.142	0.100
754.100	-26.857	0.100
754.200	-17.369	0.100
754.300	-25.549	0.100
754.400	-23.929	0.100
754.500	-29.162	0.100
754.600	-27.954	0.100
754.700	-27.392	0.100
754.800	-27.140	0.100
754.900	-26.982	0.100
755.000	-28.956	0.100
755.100	-45.967	0.100
755.200	-21.509	0.100
755.300	-14.972	0.100
755.400	-19.730	0.100
755.500	-31.740	0.100
755.600	-38.134	0.100
755.700	-19.281	0.100
755.800	-33.957	0.100
755.900	-19.976	0.100
756.000	-28.250	0.100
756.100	-28.025	0.100
756.200	-25.529	0.100
756.300	-34.809	0.100
756.400	-37.125	0.100
756.500	-16.921	0.100
756.600	-19.346	0.100
756.700	-10.519	0.100
756.800	-22.009	0.100
756.900	-27.021	0.100
757.000	-22.345	0.100
757.100	-32.185	0.100
757.200	-35.132	0.100
757.300	-25.280	0.100
757.400	-21.304	0.100
757.500	-21.633	0.100
757.600	-25.547	0.100
757.700	-29.418	0.100
757.800	-35.336	0.100
757.900	-29.713	0.100
758.000	-20.452	0.100
758.100	-19.599	0.100
758.200	-15.127	0.100
758.300	-31.408	0.100
758.400	-19.101	0.100
758.500	-44.052	0.100
758.600	-17.436	0.100
758.700	-22.364	0.100
758.800	-18.979	0.100
758.900	-29.145	0.100
759.000	-31.800	0.100
759.100	-30.963	0.100
759.200	-20.645	0.100
759.300	-23.890	0.100
759.400	-30.777	0.100
759.500	-30.345	0.100
759.600	-27.574	0.100
759.700	-31.341	0.100
759.800	-28.849	0.100
759.900	-18.940	0.100
760.000	-25.368	0.100
760.100	-40.226	0.100
760.200	-21.254	0.100
760.300	-34.144	0.100
760.400	-31.872	0.100
760.500	-26.085	0.100
760.600	-23.667	0.100
760.700	-24.895	0.100
760.800	-20.313	0.100
760.900	-36.344	0.100
761.000	-31.415	0.100
761.100	-27.391	0.100
761.200	-45.499	0.100
761.300	-14.085	0.100
761.400	-16.592	0.100
761.500	-25.062	0.100
761.600	-15.725	0.100
761.700	-23.989	0.100
761.800	-17.147	0.100
761.900	-30.098	0.100
762.000	-39.422	0.100
762.100	-28.006	0.100
762.200	-26.651	0.100
762.300	-28.336	0.100
762.400	-23.195	0.100
762.500	-30.460	0.100
762.600	-27.660	0.100
762.700	-19.978	0.100
762.800	-16.603	0.100
762.900	-23.719	0.100
763.000	-24.368	0.100
763.100	-27.994	0.100
763.200	-18.855	0.100
763.300	-33.395	0.100
763.400	-21.411	0.100
763.500	-29.006	0.100
763.600	-31.695	0.100
763.700	-11.551	0.100
763.800	-26.540	0.100
763.900	-44.143	0.100
764.000	-35.963	0.100
764.100	-23.225	0.100
764.200	-16.397	0.100
764.300	-16.789	0.100
764.400	-19.989	0.100
764.500	-19.562	0.100
764.600	-29.263	0.100
764.700	-28.923	0.100
764.800	-33.578	0.100
764.900	-11.516	0.100
765.000	-31.950	0.100
765.100	-26.477	0.100
765.200	-22.474	0.100
765.300	-24.936	0.100
765.400	-30.296	0.100
765.500	-30.217	0.100
765.600	-13.606	0.100
765.700	-27.837	0.100
765.800	-18.021	0.100
765.900	-27.860	0.100
766.000	-28.431	0.100
766.100	-21.025	0.100
766.200	-17.845	0.100
766.300	-31.596	0.100
766.400	-30.962	0.100
766.500	-24.999	0.100
766.600	-18.700	0.100
766.700	-22.744	0.100
766.800	-30.353	0.100
766.900	-24.876	0.100
767.000	-43.394	0.100
767.100	-19.750	0.100
767.200	-21.020	0.100
767.300	-27.182	0.100
767.400	-25.731	0.100
767.500	-22.217	0.100
767.600	-23.453	0.100
767.700	-31.092	0.100
767.800	-24.171	0.100
767.900	-23.196	0.100
768.000	-39.613	0.100
768.100	-27.757	0.100
768.200	-7.732	0.100
768.300	-10.365	0.100
768.400	-20.043	0.100
768.500	-20.391	0.100
768.600	-17.120	0.100
768.700	-37.448	0.100
768.800	-26.903	0.100
768.900	-20.316	0.100
769.000	-16.646	0.100
769.100	-29.898	0.100
769.200	-18.945	0.100
769.300	-21.817	0.100
769.400	-26.954	0.100
769.500	-25.542	0.100
769.600	-18.801	0.100
769.700	-25.165	0.100
769.800	-14.775	0.100
769.900	-21.180	0.100
770.000	-35.717	0.100
770.100	-31.773	0.100
770.200	-11.372	0.100
770.300	-19.379	0.100
770.400	-29.917	0.100
770.500	-23.303	0.100
770.600	-26.865	0.100
770.700	-30.245	0.100
770.800	-34.883	0.100
770.900	-19.974	0.100
771.000	-25.638	0.100
771.100	-21.098	0.100
771.200	-29.868	0.100
771.300	-14.939	0.100
771.400	-10.773	0.100
771.500	-20.724	0.100
771.600	-30.689	0.100
771.700	-32.526	0.100
771.800	-13.813	0.100
771.900	-24.057	0.100
772.000	-29.862	0.100
772.100	-28.716	0.100
772.200	-16.389	0.100
772.300	-30.331	0.100
772.400	-31.383	0.100
772.500	-14.809	0.100
772.600	-26.848	0.100
772.700	-25.440	0.100
772.800	-23.206	0.100
772.900	-16.476	0.100
773.000	-25.539	0.100
773.100	-24.226	0.100
773.200	-26.225	0.100
773.300	-23.167	0.100
773.400	-24.376	0.100
773.500	-14.439	0.100
773.600	-23.698	0.100
773.700	-29.429	0.100
773.800	-24.475	0.100
773.900	-26.815	0.100
774.000	-33.209	0.100
774.100	-20.285	0.100
774.200	-13.093	0.100
774.300	-38.640	0.100
774.400	-22.652	0.100
774.500	-25.071	0.100
774.600	-24.060	0.100
774.700	-20.795	0.100
774.800	-20.555	0.100
774.900	-22.268	0.100
775.000	-16.517	0.100
775.100	-23.775	0.100
775.200	-25.705	0.100
775.300	-21.646	0.100
775.400	-26.287	0.100
775.500	-28.820	0.100
775.600	-25.085	0.099
775.700	-36.583	0.099
775.800	-31.518	0.099
775.900	-30.967	0.099
776.000	-19.996	0.099
776.100	-16.016	0.099
776.200	-26.820	0.099
776.300	-31.560	0.099
776.400	-31.680	0.099
776.500	-22.748	0.099
776.600	-13.531	0.099
776.700	-17.569	0.099
776.800	-19.351	0.099
776.900	-23.047	0.099
777.000	-13.284	0.099
777.100	-18.239	0.099
777.200	-25.973	0.099
777.300	-34.991	0.099
777.400	-30.801	0.099
777.500	-26.105	0.099
777.600	-28.387	0.099
777.700	-23.191	0.099
777.800	-24.726	0.099
777.900	-22.132	0.099
778.000	-29.086	0.099
778.100	-40.185	0.099
778.200	-24.031	0.099
778.300	-17.902	0.099
778.400	-32.842	0.099
778.500	-24.497	0.099
778.600	-26.512	0.099
778.700	-28.610	0.099
778.800	-13.085	0.099
778.900	-28.584	0.099
779.000	-15.383	0.099
779.100	-25.080	0.099
779.200	-21.205	0.099
779.300	-27.945	0.099
779.400	-37.458	0.099
779.500	-25.159	0.099
779.600	-34.706	0.099
779.700	-18.747	0.099
779.800	-19.793	0.099
779.900	-16.570	0.099
780.000	-24.265	0.099
780.100	-27.049	0.099
780.200	-5.860	0.099
780.300	-18.446	0.099
780.400	-5.842	0.099
780.500	-27.404	0.099
780.600	-27.794	0.099
780.700	-31.705	0.099
780.800	-21.917	0.099
780.900	-36.575	0.099
781.000	-29.681	0.099
781.100	-20.327	0.099
781.200	-28.005	0.099
781.300	-14.007	0.099
781.400	5.505	0.099
781.500	-2.197	0.099
781.600	6.364	0.099
781.700	-0.937	0.099
781.800	-10.079	0.099
781.900	15.410	0.099
782.000	5.515	0.099
782.100	-6.288	0.099
782.200	16.108	0.099
782.300	6.648	0.099
782.400	3.767	0.099
782.500	9.186	0.099
782.600	16.884	0.099
782.700	13.317	0.099
782.800	15.437	0.099
782.900	24.717	0.099
783.000	27.306	0.099
783.100	12.761	0.099
783.200	1.184	0.099
783.300	20.902	0.099
783.400	2.224	0.099
783.500	14.097	0.099
783.600	19.923	0.099
783.700	29.428	0.099
783.800	28.898	0.099
783.900	10.254	0.099
784.000	7.591	0.099
784.100	20.801	0.099
784.200	8.875	0.099
784.300	11.622	0.099
784.400	20.167	0.099
784.500	15.357	0.099
784.600	23.677	0.099
784.700	35.071	0.099
784.800	27.733	0.099
784.900	-1.694	0.099
785.000	6.434	0.099
785.100	19.007	0.099
785.200	21.987	0.099
785.300	13.479	0.099
785.400	12.768	0.099
785.500	25.783	0.099
785.600	11.638	0.099
785.700	19.812	0.099
785.800	20.291	0.099
785.900	18.700	0.099
786.000	9.331	0.099
786.100	21.215	0.099
786.200	12.429	0.099
786.300	9.713	0.099
786.400	24.027	0.099
786.500	16.542	0.099
786.600	-4.327	0.099
786.700	21.447	0.099
786.800	12.015	0.099
786.900	17.514	0.099
787.000	16.637	0.099
787.100	12.838	0.099
787.200	7.769	0.099
787.300	15.029	0.099
787.400	12.758	0.099
787.500	8.067	0.099
787.600	15.947	0.099
787.700	21.517	0.100
787.800	5.988	0.099
787.900	18.624	0.100
788.000	10.626	0.099
788.100	11.474	0.099
788.200	22.379	0.099
788.300	22.999	0.099
788.400	12.903	0.099
788.500	11.189	0.099
788.600	17.810	0.100
788.700	14.545	0.099
788.800	22.068	0.099
788.900	20.684	0.099
789.000	16.623	0.099
789.100	19.462	0.100
789.200	11.214	0.099
789.300	6.272	0.099
789.400	14.996	0.099
789.500	21.759	0.099
789.600	19.627	0.100
789.700	26.513	0.099
789.800	22.998	0.099
789.900	13.031	0.099
790.000	16.579	0.099
