time /s	I /nA	E /V
0.100	-29.862	0.100
0.200	-2.055	0.100
0.300	-12.687	0.100
0.400	-24.939	0.100
0.500	-14.572	0.100
0.600	-3.419	0.100
0.700	-32.256	0.100
0.800	-22.917	0.100
0.900	-22.429	0.100
1.000	-21.833	0.100
1.100	-18.465	0.100
1.200	-6.360	0.100
1.300	-6.491	0.100
1.400	-7.545	0.100
1.500	-36.421	0.100
1.600	-22.637	0.100
1.700	-8.047	0.100
1.800	-44.220	0.100
1.900	-20.697	0.100
2.000	-22.730	0.100
2.100	-26.929	0.100
2.200	5.592	0.100
2.300	-17.204	0.100
2.400	-36.014	0.100
2.500	-16.585	0.100
2.600	-17.395	0.100
2.700	-23.200	0.100
2.800	-3.243	0.100
2.900	-20.165	0.100
3.000	-13.296	0.100
3.100	-18.046	0.100
3.200	-46.443	0.100
3.300	-28.819	0.100
3.400	-30.316	0.100
3.500	-27.542	0.100
3.600	-37.600	0.100
3.700	-14.590	0.100
3.800	-28.044	0.100
3.900	-41.638	0.100
4.000	-12.358	0.100
4.100	-10.735	0.100
4.200	-10.387	0.100
4.300	-8.736	0.100
4.400	-39.186	0.100
4.500	-20.186	0.100
4.600	-5.823	0.100
4.700	-22.771	0.100
4.800	-16.154	0.100
4.900	-25.753	0.100
5.000	2.067	0.100
5.100	-5.824	0.100
5.200	-48.869	0.100
5.300	-15.342	0.100
5.400	-30.390	0.100
5.500	-29.213	0.100
5.600	-22.939	0.100
5.700	-7.907	0.100
5.800	-24.897	0.100
5.900	-3.259	0.100
6.000	-28.824	0.100
6.100	-12.474	0.100
6.200	-15.106	0.100
6.300	-37.045	0.100
6.400	-30.200	0.100
6.500	-6.303	0.100
6.600	12.709	0.100
6.700	-36.057	0.100
6.800	-22.131	0.100
6.900	-62.060	0.100
7.000	-21.677	0.100
7.100	-23.731	0.100
7.200	-13.714	0.100
7.300	-4.458	0.100
7.400	-3.369	0.100
7.500	-9.505	0.100
7.600	-20.990	0.100
7.700	-5.714	0.100
7.800	-16.727	0.100
7.900	-28.776	0.100
8.000	-48.051	0.100
8.100	-21.622	0.100
8.200	0.698	0.100
8.300	-28.605	0.100
8.400	6.227	0.100
8.500	-33.613	0.100
8.600	-23.644	0.100
8.700	-13.313	0.100
8.800	-3.035	0.100
8.900	-5.915	0.100
9.000	-12.806	0.100
9.100	-13.439	0.100
9.200	-25.552	0.100
9.300	-15.055	0.100
9.400	-48.900	0.100
9.500	-46.481	0.100
9.600	-21.669	0.100
9.700	-22.538	0.100
9.800	-19.856	0.100
9.900	-32.815	0.100
10.000	-15.311	0.100
10.100	-9.462	0.100
10.200	-4.842	0.100
10.300	-23.210	0.100
10.400	-20.531	0.100
10.500	-34.162	0.100
10.600	-22.727	0.100
10.700	-38.837	0.100
10.800	-1.663	0.100
10.900	2.638	0.100
11.000	-24.636	0.100
11.100	-34.488	0.100
11.200	-28.134	0.100
11.300	-11.893	0.100
11.400	-23.280	0.100
11.500	-2.644	0.100
11.600	-35.023	0.100
11.700	-20.634	0.100
11.800	3.039	0.100
11.900	-14.842	0.100
12.000	-20.685	0.100
12.100	-36.730	0.100
12.200	-18.709	0.100
12.300	-24.590	0.100
12.400	-23.947	0.100
12.500	-30.825	0.100
12.600	-22.861	0.100
12.700	-5.387	0.100
12.800	-6.726	0.100
12.900	-11.425	0.100
13.000	-27.095	0.100
13.100	11.999	0.100
13.200	-13.117	0.100
13.300	-27.595	0.100
13.400	-27.999	0.100
13.500	-7.183	0.100
13.600	-22.859	0.100
13.700	-11.975	0.100
13.800	-24.777	0.100
13.900	-11.012	0.100
14.000	-18.528	0.100
14.100	-35.778	0.100
14.200	-17.325	0.100
14.300	-10.690	0.100
14.400	-23.852	0.100
14.500	-53.942	0.100
14.600	-25.571	0.100
14.700	-27.854	0.100
14.800	-28.459	0.100
14.900	-24.038	0.100
15.000	13.005	0.100
15.100	1.214	0.100
15.200	-21.950	0.100
15.300	-17.123	0.100
15.400	-10.356	0.100
15.500	-17.509	0.100
15.600	-18.147	0.100
15.700	-6.043	0.100
15.800	-10.331	0.100
15.900	-2.475	0.100
16.000	-19.882	0.100
16.100	-52.072	0.100
16.200	-18.514	0.100
16.300	-0.713	0.100
16.400	-14.606	0.100
16.500	-20.961	0.100
16.600	-49.333	0.100
16.700	-23.010	0.100
16.800	-5.766	0.100
16.900	3.605	0.100
17.000	-12.017	0.100
17.100	-43.130	0.100
17.200	-27.244	0.100
17.300	-25.158	0.100
17.400	-25.751	0.100
17.500	-32.264	0.100
17.600	-6.489	0.100
17.700	-15.678	0.100
17.800	-13.695	0.100
17.900	-34.822	0.100
18.000	9.856	0.100
18.100	-18.123	0.100
18.200	-3.872	0.100
18.300	-54.725	0.100
18.400	0.303	0.100
18.500	-4.658	0.100
18.600	-7.687	0.100
18.700	3.489	0.100
18.800	-19.025	0.100
18.900	-42.169	0.100
19.000	-18.209	0.100
19.100	-31.133	0.100
19.200	-10.701	0.100
19.300	3.354	0.100
19.400	-31.141	0.100
19.500	-24.159	0.100
19.600	2.510	0.100
19.700	-21.796	0.100
19.800	-26.124	0.100
19.900	-3.161	0.100
20.000	-14.574	0.100
20.100	-26.733	0.100
20.200	-23.066	0.100
20.300	-8.006	0.100
20.400	-22.376	0.100
20.500	-10.938	0.100
20.600	-1.295	0.100
20.700	-36.108	0.100
20.800	-46.375	0.100
20.900	-6.494	0.100
21.000	-4.463	0.100
21.100	-31.041	0.100
21.200	-21.179	0.100
21.300	-24.292	0.100
21.400	-1.625	0.100
21.500	-22.064	0.100
21.600	-39.550	0.100
21.700	-32.875	0.100
21.800	-23.679	0.100
21.900	-21.972	0.100
22.000	-5.284	0.100
22.100	-19.365	0.100
22.200	-15.899	0.100
22.300	-11.129	0.100
22.400	-31.887	0.100
22.500	-16.233	0.100
22.600	-39.090	0.100
22.700	-21.731	0.100
22.800	0.733	0.100
22.900	-23.797	0.100
23.000	-26.001	0.100
23.100	4.370	0.100
23.200	11.226	0.100
23.300	-10.475	0.100
23.400	-59.031	0.100
23.500	-32.746	0.100
23.600	-25.080	0.100
23.700	-14.511	0.100
23.800	-25.509	0.100
23.900	-28.022	0.100
24.000	5.731	0.100
24.100	-6.209	0.100
24.200	-8.114	0.100
24.300	-31.077	0.100
24.400	-7.672	0.100
24.500	-21.716	0.100
24.600	9.065	0.100
24.700	-34.660	0.100
24.800	-18.651	0.100
24.900	-32.135	0.100
25.000	-30.859	0.100
25.100	-22.051	0.100
25.200	-17.235	0.100
25.300	-13.469	0.100
25.400	-7.354	0.100
25.500	-9.697	0.100
25.600	6.647	0.100
25.700	-23.173	0.100
25.800	-35.843	0.100
25.900	-12.813	0.100
26.000	-8.781	0.100
26.100	-53.986	0.100
26.200	-33.891	0.100
26.300	-42.038	0.100
26.400	-14.700	0.100
26.500	9.786	0.100
26.600	-4.763	0.100
26.700	-44.799	0.100
26.800	-24.145	0.100
26.900	-12.311	0.100
27.000	-19.976	0.100
27.100	-2.177	0.100
27.200	20.194	0.100
27.300	-13.368	0.100
27.400	-23.007	0.100
27.500	-7.770	0.100
27.600	-40.222	0.100
27.700	-3.365	0.100
27.800	-8.510	0.100
27.900	-2.354	0.100
28.000	-22.969	0.100
28.100	-38.231	0.100
28.200	-33.731	0.100
28.300	-2.017	0.100
28.400	-21.551	0.100
28.500	-16.293	0.100
28.600	-13.771	0.100
28.700	-20.444	0.100
28.800	-49.796	0.100
28.900	-35.339	0.100
29.000	-39.784	0.100
29.100	-44.661	0.100
29.200	-7.357	0.100
29.300	-28.994	0.100
29.400	-18.390	0.100
29.500	-7.566	0.100
29.600	-12.990	0.100
29.700	-22.095	0.100
29.800	-20.076	0.100
29.900	-9.937	0.100
30.000	-33.906	0.100
30.100	-28.617	0.100
30.200	-5.528	0.100
30.300	-12.490	0.100
30.400	-11.792	0.100
30.500	6.779	0.100
30.600	-1.032	0.100
30.700	-20.185	0.100
30.800	-33.037	0.100
30.900	-20.337	0.100
31.000	-0.875	0.100
31.100	13.147	0.100
31.200	19.094	0.100
31.300	-20.104	0.100
31.400	-4.751	0.100
31.500	40.652	0.100
31.600	6.087	0.100
31.700	10.849	0.100
31.800	15.596	0.100
31.900	10.227	0.100
32.000	18.319	0.100
32.100	40.940	0.100
32.200	50.891	0.100
32.300	36.703	0.100
32.400	20.216	0.100
32.500	20.098	0.100
32.600	24.050	0.100
32.700	44.502	0.100
32.800	14.473	0.100
32.900	37.449	0.100
33.000	29.162	0.100
33.100	13.884	0.100
33.200	31.194	0.100
33.300	31.067	0.100
33.400	39.279	0.100
33.500	45.861	0.100
33.600	26.215	0.100
33.700	36.567	0.100
33.800	38.041	0.100
33.900	19.868	0.100
34.000	3.755	0.100
34.100	37.685	0.100
34.200	31.615	0.100
34.300	46.335	0.100
34.400	5.335	0.100
34.500	61.560	0.100
34.600	49.669	0.100
34.700	24.213	0.100
34.800	45.146	0.100
34.900	5.053	0.100
35.000	26.476	0.100
35.100	21.786	0.100
35.200	22.573	0.100
35.300	58.690	0.100
35.400	44.259	0.100
35.500	37.422	0.100
35.600	46.599	0.100
35.700	-0.120	0.100
35.800	46.184	0.100
35.900	2.725	0.100
36.000	73.434	0.100
36.100	64.874	0.100
36.200	73.557	0.100
36.300	53.537	0.100
36.400	64.796	0.100
36.500	56.691	0.100
36.600	60.570	0.100
36.700	89.862	0.100
36.800	70.574	0.100
36.900	54.469	0.100
37.000	44.894	0.100
37.100	64.887	0.100
37.200	73.864	0.100
37.300	89.337	0.100
37.400	91.825	0.100
37.500	53.871	0.100
37.600	88.703	0.100
37.700	47.297	0.100
37.800	88.588	0.100
37.900	60.976	0.100
38.000	69.068	0.100
38.100	68.796	0.100
38.200	88.695	0.100
38.300	90.498	0.100
38.400	87.226	0.100
38.500	76.545	0.100
38.600	67.271	0.100
38.700	84.660	0.100
38.800	60.647	0.100
38.900	87.222	0.100
39.000	88.224	0.100
39.100	98.674	0.100
39.200	100.857	0.100
39.300	104.261	0.100
39.400	98.956	0.100
39.500	71.753	0.100
39.600	112.429	0.100
39.700	102.911	0.100
39.800	94.322	0.100
39.900	81.854	0.100
40.000	87.750	0.100
40.100	93.506	0.100
40.200	99.872	0.100
40.300	80.944	0.100
40.400	130.001	0.100
40.500	117.176	0.100
40.600	88.123	0.100
40.700	104.008	0.100
40.800	133.497	0.100
40.900	102.272	0.100
41.000	61.178	0.100
41.100	92.612	0.100
41.200	109.301	0.100
41.300	117.273	0.100
41.400	122.157	0.100
41.500	105.773	0.100
41.600	82.125	0.100
41.700	118.804	0.100
41.800	113.913	0.100
41.900	91.085	0.100
42.000	133.108	0.100
42.100	93.528	0.100
42.200	100.820	0.100
42.300	93.661	0.100
42.400	97.551	0.100
42.500	78.073	0.100
42.600	78.794	0.100
42.700	98.455	0.100
42.800	124.754	0.100
42.900	108.067	0.100
43.000	88.041	0.100
43.100	92.031	0.100
43.200	92.776	0.100
43.300	82.462	0.100
43.400	110.310	0.100
43.500	112.584	0.100
43.600	113.246	0.100
43.700	97.739	0.100
43.800	80.211	0.100
43.900	81.420	0.100
44.000	81.310	0.100
44.100	109.517	0.100
44.200	90.191	0.100
44.300	104.826	0.100
44.400	90.995	0.100
44.500	95.006	0.100
44.600	107.477	0.100
44.700	107.040	0.100
44.800	82.189	0.100
44.900	106.375	0.100
45.000	93.356	0.100
45.100	74.748	0.100
45.200	56.865	0.100
45.300	67.947	0.100
45.400	101.865	0.100
45.500	86.592	0.100
45.600	88.877	0.100
45.700	53.513	0.100
45.800	100.132	0.100
45.900	85.039	0.100
46.000	84.164	0.100
46.100	106.947	0.100
46.200	73.975	0.100
46.300	57.062	0.100
46.400	49.470	0.100
46.500	73.127	0.100
46.600	83.389	0.100
46.700	76.028	0.100
46.800	78.854	0.100
46.900	78.982	0.100
47.000	73.530	0.100
47.100	69.716	0.100
47.200	49.838	0.100
47.300	73.866	0.100
47.400	60.709	0.100
47.500	63.876	0.100
47.600	88.636	0.100
47.700	58.899	0.100
47.800	58.218	0.100
47.900	60.737	0.100
48.000	70.273	0.100
48.100	63.167	0.100
48.200	65.782	0.100
48.300	64.851	0.100
48.400	53.966	0.100
48.500	78.311	0.100
48.600	67.858	0.100
48.700	48.870	0.100
48.800	48.517	0.100
48.900	77.074	0.100
49.000	72.359	0.100
49.100	82.213	0.100
49.200	49.753	0.100
49.300	49.286	0.100
49.400	65.532	0.100
49.500	64.321	0.100
49.600	59.905	0.100
49.700	68.543	0.100
49.800	60.381	0.100
49.900	55.753	0.100
50.000	54.211	0.100
50.100	74.027	0.100
50.200	70.319	0.100
50.300	73.542	0.100
50.400	28.099	0.100
50.500	53.139	0.100
50.600	53.522	0.100
50.700	38.335	0.100
50.800	72.582	0.100
50.900	55.552	0.100
51.000	63.557	0.100
51.100	59.965	0.100
51.200	73.318	0.100
51.300	40.581	0.100
51.400	51.099	0.100
51.500	46.112	0.100
51.600	56.887	0.100
51.700	77.404	0.100
51.800	52.961	0.100
51.900	52.094	0.100
52.000	26.094	0.100
52.100	47.868	0.100
52.200	38.758	0.100
52.300	83.393	0.100
52.400	71.894	0.100
52.500	64.912	0.100
52.600	52.981	0.100
52.700	59.239	0.100
52.800	62.480	0.100
52.900	59.201	0.100
53.000	42.195	0.100
53.100	35.953	0.100
53.200	73.969	0.100
53.300	41.736	0.100
53.400	64.596	0.100
53.500	83.135	0.100
53.600	72.376	0.100
53.700	40.100	0.100
53.800	53.580	0.100
53.900	45.594	0.100
54.000	48.052	0.100
54.100	63.238	0.100
54.200	59.744	0.100
54.300	49.974	0.100
54.400	81.800	0.100
54.500	83.146	0.100
54.600	74.403	0.100
54.700	28.859	0.100
54.800	61.931	0.100
54.900	56.622	0.100
55.000	74.581	0.100
55.100	34.583	0.100
55.200	54.946	0.100
55.300	40.972	0.100
55.400	57.337	0.100
55.500	50.612	0.100
55.600	52.185	0.100
55.700	74.943	0.100
55.800	66.956	0.100
55.900	70.914	0.100
56.000	66.158	0.100
56.100	58.786	0.100
56.200	47.434	0.100
56.300	57.450	0.100
56.400	46.312	0.100
56.500	75.948	0.100
56.600	55.106	0.100
56.700	56.833	0.100
56.800	43.001	0.100
56.900	68.495	0.100
57.000	60.854	0.100
57.100	47.602	0.100
57.200	84.520	0.100
57.300	57.239	0.100
57.400	59.585	0.100
57.500	55.392	0.100
57.600	44.989	0.100
57.700	68.420	0.100
57.800	62.752	0.100
57.900	70.200	0.100
58.000	69.538	0.100
58.100	75.302	0.100
58.200	54.082	0.100
58.300	59.084	0.100
58.400	36.852	0.100
58.500	36.405	0.100
58.600	55.572	0.100
58.700	71.009	0.100
58.800	41.077	0.100
58.900	42.307	0.100
59.000	58.214	0.100
59.100	69.288	0.100
59.200	74.462	0.100
59.300	30.183	0.100
59.400	55.611	0.100
59.500	77.258	0.100
59.600	46.299	0.100
59.700	59.475	0.100
59.800	65.050	0.100
59.900	63.494	0.100
60.000	88.038	0.100
60.100	66.902	0.100
60.200	60.492	0.100
60.300	46.361	0.100
60.400	65.729	0.100
60.500	52.475	0.100
60.600	43.843	0.100
60.700	66.224	0.100
60.800	57.789	0.100
60.900	70.098	0.100
61.000	59.662	0.100
61.100	73.444	0.100
61.200	49.166	0.100
61.300	56.834	0.100
61.400	70.087	0.100
61.500	53.698	0.100
61.600	52.779	0.100
61.700	44.739	0.100
61.800	82.196	0.100
61.900	58.352	0.100
62.000	39.847	0.100
62.100	69.704	0.100
62.200	39.164	0.100
62.300	73.537	0.100
62.400	65.887	0.100
62.500	70.063	0.100
62.600	75.352	0.100
62.700	74.545	0.100
62.800	59.886	0.100
62.900	49.773	0.100
63.000	49.550	0.100
63.100	59.092	0.100
63.200	58.422	0.100
63.300	52.028	0.100
63.400	45.432	0.100
63.500	54.576	0.100
63.600	63.690	0.100
63.700	68.603	0.100
63.800	71.670	0.100
63.900	45.770	0.100
64.000	79.273	0.100
64.100	24.687	0.100
64.200	51.777	0.100
64.300	62.199	0.100
64.400	71.546	0.100
64.500	54.197	0.100
64.600	70.528	0.100
64.700	50.582	0.100
64.800	63.049	0.100
64.900	62.095	0.100
65.000	52.580	0.100
65.100	66.535	0.100
65.200	51.239	0.100
65.300	66.217	0.100
65.400	31.552	0.100
65.500	46.528	0.100
65.600	82.137	0.100
65.700	68.489	0.100
65.800	35.840	0.100
65.900	79.292	0.100
66.000	71.413	0.100
66.100	71.814	0.100
66.200	61.114	0.100
66.300	72.342	0.100
66.400	69.035	0.100
66.500	73.415	0.100
66.600	55.653	0.100
66.700	96.214	0.100
66.800	69.594	0.100
66.900	75.228	0.100
67.000	82.486	0.100
67.100	81.426	0.100
67.200	81.683	0.100
67.300	77.526	0.100
67.400	71.037	0.100
67.500	88.890	0.100
67.600	84.649	0.100
67.700	33.095	0.100
67.800	80.043	0.100
67.900	62.369	0.100
68.000	55.989	0.100
68.100	61.389	0.100
68.200	45.419	0.100
68.300	80.717	0.100
68.400	56.598	0.100
68.500	76.727	0.100
68.600	75.738	0.100
68.700	70.436	0.100
68.800	47.976	0.100
68.900	60.140	0.100
69.000	41.531	0.100
69.100	57.332	0.100
69.200	58.893	0.100
69.300	57.829	0.100
69.400	71.039	0.100
69.500	58.162	0.100
69.600	81.891	0.100
69.700	73.471	0.100
69.800	60.272	0.100
69.900	90.289	0.100
70.000	69.326	0.100
70.100	59.204	0.100
70.200	50.107	0.100
70.300	87.541	0.100
70.400	70.305	0.100
70.500	79.175	0.100
70.600	58.486	0.100
70.700	60.132	0.100
70.800	48.102	0.100
70.900	77.182	0.100
71.000	84.804	0.100
71.100	61.604	0.100
71.200	83.805	0.100
71.300	66.771	0.100
71.400	63.605	0.100
71.500	68.885	0.100
71.600	71.857	0.100
71.700	56.988	0.100
71.800	61.287	0.100
71.900	74.491	0.100
72.000	71.035	0.100
72.100	63.967	0.100
72.200	83.838	0.100
72.300	54.293	0.100
72.400	87.160	0.100
72.500	98.043	0.100
72.600	73.940	0.100
72.700	64.500	0.100
72.800	70.060	0.100
72.900	59.013	0.100
73.000	61.637	0.100
73.100	83.153	0.100
73.200	76.321	0.100
73.300	64.937	0.100
73.400	71.344	0.100
73.500	73.808	0.100
73.600	57.037	0.100
73.700	70.092	0.100
73.800	64.037	0.100
73.900	55.854	0.100
74.000	55.973	0.100
74.100	60.925	0.100
74.200	59.219	0.100
74.300	90.362	0.100
74.400	58.166	0.100
74.500	53.248	0.100
74.600	58.427	0.100
74.700	59.399	0.100
74.800	79.370	0.100
74.900	63.713	0.100
75.000	92.295	0.100
75.100	45.221	0.100
75.200	68.116	0.100
75.300	97.521	0.100
75.400	51.242	0.100
75.500	57.462	0.100
75.600	64.385	0.100
75.700	89.020	0.100
75.800	74.991	0.100
75.900	81.328	0.100
76.000	85.510	0.100
76.100	88.568	0.100
76.200	36.686	0.100
76.300	76.099	0.100
76.400	46.470	0.100
76.500	69.826	0.100
76.600	75.051	0.100
76.700	92.874	0.100
76.800	78.212	0.100
76.900	76.018	0.100
77.000	86.121	0.100
77.100	70.265	0.100
77.200	62.614	0.100
77.300	73.725	0.100
77.400	60.698	0.100
77.500	68.681	0.100
77.600	93.688	0.100
77.700	68.742	0.100
77.800	53.285	0.100
77.900	76.457	0.100
78.000	64.022	0.100
78.100	68.277	0.100
78.200	88.849	0.100
78.300	80.770	0.100
78.400	78.407	0.100
78.500	76.509	0.100
78.600	52.782	0.100
78.700	67.843	0.100
78.800	71.041	0.100
78.900	85.456	0.100
79.000	90.702	0.100
79.100	64.149	0.100
79.200	64.953	0.100
79.300	97.798	0.100
79.400	86.640	0.100
79.500	41.189	0.100
79.600	70.181	0.100
79.700	63.862	0.100
79.800	65.650	0.100
79.900	73.937	0.100
80.000	53.088	0.100
80.100	82.493	0.100
80.200	74.897	0.100
80.300	67.098	0.100
80.400	69.169	0.100
80.500	88.638	0.100
80.600	92.757	0.100
80.700	75.239	0.100
80.800	44.225	0.100
80.900	59.532	0.100
81.000	71.930	0.100
81.100	70.392	0.100
81.200	98.565	0.100
81.300	94.729	0.100
81.400	84.350	0.100
81.500	52.067	0.100
81.600	74.038	0.100
81.700	57.524	0.100
81.800	50.242	0.100
81.900	78.289	0.100
82.000	98.735	0.100
82.100	70.017	0.100
82.200	64.320	0.100
82.300	61.212	0.100
82.400	61.611	0.100
82.500	99.034	0.100
82.600	86.623	0.100
82.700	71.172	0.100
82.800	74.846	0.100
82.900	49.109	0.100
83.000	63.070	0.100
83.100	99.738	0.100
83.200	89.138	0.100
83.300	74.380	0.100
83.400	73.054	0.100
83.500	66.438	0.100
83.600	71.897	0.100
83.700	65.401	0.100
83.800	101.118	0.100
83.900	115.389	0.100
84.000	85.363	0.100
84.100	84.218	0.100
84.200	62.938	0.100
84.300	62.980	0.100
84.400	100.982	0.100
84.500	75.069	0.100
84.600	30.008	0.100
84.700	75.635	0.100
84.800	87.809	0.100
84.900	91.792	0.100
85.000	88.859	0.100
85.100	100.149	0.100
85.200	74.740	0.100
85.300	76.315	0.100
85.400	50.106	0.100
85.500	91.606	0.100
85.600	82.443	0.100
85.700	66.279	0.100
85.800	58.681	0.100
85.900	56.847	0.100
86.000	91.621	0.100
86.100	89.311	0.100
86.200	53.692	0.100
86.300	91.832	0.100
86.400	83.999	0.100
86.500	69.559	0.100
86.600	83.615	0.100
86.700	80.463	0.100
86.800	90.282	0.100
86.900	95.314	0.100
87.000	102.914	0.100
87.100	83.876	0.100
87.200	91.070	0.100
87.300	51.765	0.100
87.400	63.996	0.100
87.500	84.882	0.100
87.600	97.093	0.100
87.700	38.847	0.100
87.800	89.720	0.100
87.900	74.036	0.100
88.000	93.334	0.100
88.100	62.098	0.100
88.200	90.454	0.100
88.300	75.304	0.100
88.400	83.250	0.100
88.500	89.057	0.100
88.600	67.554	0.100
88.700	94.971	0.100
88.800	65.131	0.100
88.900	71.556	0.100
89.000	64.236	0.100
89.100	53.145	0.100
89.200	79.675	0.100
89.300	73.528	0.100
89.400	95.266	0.100
89.500	59.188	0.100
89.600	79.497	0.100
89.700	86.292	0.100
89.800	84.281	0.100
89.900	64.625	0.100
90.000	109.892	0.100
90.100	77.227	0.100
90.200	54.925	0.100
90.300	96.586	0.100
90.400	75.343	0.100
90.500	77.964	0.100
90.600	82.809	0.100
90.700	62.708	0.100
90.800	51.528	0.100
90.900	60.120	0.100
91.000	55.989	0.100
91.100	58.540	0.100
91.200	60.958	0.100
91.300	58.311	0.100
91.400	24.035	0.100
91.500	42.758	0.100
91.600	23.150	0.100
91.700	40.577	0.100
91.800	36.654	0.100
91.900	22.917	0.100
92.000	44.705	0.100
92.100	18.517	0.100
92.200	20.691	0.100
92.300	0.935	0.100
92.400	4.928	0.100
92.500	19.116	0.100
92.600	30.212	0.100
92.700	9.909	0.100
92.800	-5.841	0.100
92.900	2.347	0.100
93.000	11.379	0.100
93.100	-6.629	0.100
93.200	-13.024	0.100
93.300	-3.048	0.100
93.400	-10.960	0.100
93.500	12.540	0.100
93.600	-14.110	0.100
93.700	1.159	0.100
93.800	-18.751	0.100
93.900	-23.690	0.100
94.000	-19.614	0.100
94.100	-30.238	0.100
94.200	-13.452	0.100
94.300	-20.062	0.100
94.400	-46.335	0.100
94.500	-32.092	0.100
94.600	-9.391	0.100
94.700	-27.404	0.100
94.800	-46.466	0.100
94.900	-25.409	0.100
95.000	-14.880	0.100
95.100	-38.413	0.100
95.200	-37.773	0.100
95.300	-29.035	0.100
95.400	-35.045	0.099
95.500	-28.188	0.100
95.600	-49.664	0.100
95.700	-31.214	0.100
95.800	-22.046	0.100
95.900	-6.712	0.100
96.000	-8.891	0.100
96.100	-38.559	0.099
96.200	-21.087	0.100
96.300	-30.097	0.099
96.400	-17.970	0.100
96.500	-26.607	0.099
96.600	-15.581	0.100
96.700	-31.268	0.100
96.800	-32.991	0.100
96.900	5.300	0.100
97.000	-39.865	0.100
97.100	-36.135	0.099
97.200	-38.773	0.100
97.300	-14.020	0.100
97.400	-43.082	0.100
97.500	-27.668	0.099
97.600	-8.767	0.100
97.700	-6.248	0.099
97.800	-30.429	0.100
97.900	-23.738	0.099
98.000	-37.843	0.100
98.100	-25.209	0.099
98.200	-29.478	0.100
98.300	-16.861	0.100
98.400	-33.754	0.100
98.500	-14.338	0.100
98.600	-13.071	0.100
98.700	-13.978	0.100
98.800	-40.664	0.100
98.900	-43.077	0.100
99.000	-33.338	0.099
99.100	-51.782	0.099
99.200	-28.731	0.100
99.300	-8.449	0.099
99.400	-24.806	0.100
99.500	-26.425	0.100
99.600	-22.470	0.099
99.700	-19.282	0.100
99.800	-17.654	0.100
99.900	-19.166	0.100
100.000	-31.237	0.100
100.100	-42.368	0.099
100.200	-24.031	0.099
100.300	-8.435	0.100
100.400	-9.278	0.099
100.500	-12.679	0.100
100.600	-7.515	0.099
100.700	-14.900	0.100
100.800	-20.772	0.099
100.900	2.770	0.099
101.000	-23.862	0.099
101.100	-22.241	0.099
101.200	-37.845	0.099
101.300	-24.907	0.099
101.400	-25.223	0.100
101.500	-8.799	0.100
101.600	-9.996	0.099
101.700	-7.687	0.099
101.800	-15.735	0.099
101.900	-12.822	0.099
102.000	-29.933	0.100
102.100	-3.430	0.100
102.200	3.810	0.099
102.300	-29.108	0.100
102.400	-28.531	0.099
102.500	-15.012	0.100
102.600	-24.381	0.099
102.700	-33.677	0.100
102.800	-9.377	0.100
102.900	-9.124	0.100
103.000	-13.954	0.099
103.100	-12.610	0.099
103.200	-19.357	0.100
103.300	-13.107	0.099
103.400	0.198	0.100
103.500	-9.009	0.099
103.600	-17.313	0.099
103.700	-26.774	0.099
103.800	6.314	0.099
103.900	-8.939	0.099
104.000	-14.562	0.099
104.100	-8.418	0.099
104.200	-36.167	0.099
104.300	-33.419	0.099
104.400	-42.474	0.099
104.500	-11.408	0.100
104.600	-7.530	0.100
104.700	-28.655	0.099
104.800	-12.245	0.099
104.900	-9.268	0.099
105.000	-23.362	0.099
105.100	5.367	0.099
105.200	-36.393	0.099
105.300	-4.499	0.099
105.400	4.694	0.099
105.500	21.630	0.099
105.600	4.636	0.099
105.700	-24.917	0.099
105.800	-21.494	0.099
105.900	5.799	0.100
106.000	-14.798	0.099
106.100	-12.189	0.099
106.200	-35.601	0.099
106.300	4.739	0.099
106.400	-2.267	0.099
106.500	-26.031	0.099
106.600	-17.856	0.099
106.700	-19.226	0.099
106.800	-1.725	0.100
106.900	-20.856	0.099
107.000	-29.926	0.099
107.100	-26.308	0.099
107.200	-10.210	0.099
107.300	-28.521	0.099
107.400	-14.424	0.099
107.500	-7.046	0.099
107.600	-10.737	0.099
107.700	-36.891	0.099
107.800	-43.163	0.099
107.900	-14.636	0.099
108.000	-31.674	0.099
108.100	-5.554	0.099
108.200	-32.639	0.099
108.300	-18.584	0.099
108.400	-19.931	0.099
108.500	0.233	0.099
108.600	-0.078	0.099
108.700	-26.313	0.099
108.800	-11.007	0.099
108.900	-5.050	0.099
109.000	-16.778	0.099
109.100	-21.082	0.099
109.200	-27.119	0.099
109.300	-30.026	0.099
109.400	-16.153	0.099
109.500	-14.476	0.099
109.600	-26.071	0.099
109.700	7.776	0.099
109.800	-13.563	0.099
109.900	-24.483	0.099
110.000	-40.108	0.099
110.100	-8.556	0.099
110.200	-24.322	0.099
110.300	-44.203	0.099
110.400	4.890	0.099
110.500	-14.093	0.099
110.600	9.055	0.099
110.700	-34.648	0.099
110.800	-14.674	0.099
110.900	-12.525	0.099
111.000	-21.984	0.099
111.100	-24.901	0.099
111.200	-43.812	0.099
111.300	-12.332	0.099
111.400	-29.355	0.099
111.500	-34.838	0.099
111.600	-14.164	0.099
111.700	-38.950	0.099
111.800	-15.370	0.099
111.900	-19.182	0.099
112.000	-11.582	0.099
112.100	-14.243	0.099
112.200	-22.507	0.099
112.300	-29.805	0.099
112.400	-16.883	0.099
112.500	-13.135	0.099
112.600	-30.065	0.099
112.700	-16.314	0.099
112.800	-13.100	0.099
112.900	-44.772	0.099
113.000	-23.490	0.099
113.100	11.245	0.099
113.200	-33.295	0.099
113.300	-33.432	0.099
113.400	-25.560	0.099
113.500	-48.445	0.099
113.600	-29.493	0.099
113.700	-4.282	0.099
113.800	-25.280	0.099
113.900	-10.304	0.099
114.000	-9.997	0.099
114.100	-5.220	0.099
114.200	-12.639	0.099
114.300	-15.241	0.099
114.400	-21.907	0.099
114.500	-26.699	0.099
114.600	-18.827	0.099
114.700	-21.717	0.099
114.800	-16.268	0.099
114.900	-26.906	0.099
115.000	-17.870	0.099
115.100	-31.673	0.099
115.200	-36.606	0.099
115.300	-21.508	0.099
115.400	-28.110	0.099
115.500	-28.397	0.099
115.600	-50.605	0.099
115.700	-12.037	0.099
115.800	-13.658	0.099
115.900	-27.861	0.099
116.000	-8.264	0.099
116.100	-28.028	0.099
116.200	-12.860	0.099
116.300	-14.299	0.099
116.400	-40.079	0.099
116.500	-45.191	0.099
116.600	-4.665	0.099
116.700	-26.395	0.099
116.800	-36.266	0.099
116.900	-28.262	0.099
117.000	-3.365	0.099
117.100	-22.278	0.099
117.200	-9.298	0.099
117.300	-7.208	0.099
117.400	-35.917	0.099
117.500	-35.969	0.099
117.600	-56.357	0.099
117.700	-44.033	0.099
117.800	-26.938	0.099
117.900	-24.879	0.099
118.000	-44.512	0.099
118.100	-36.239	0.099
118.200	-26.809	0.099
118.300	-61.055	0.099
118.400	-22.352	0.099
118.500	-36.369	0.099
118.600	-10.528	0.099
118.700	-40.280	0.099
118.800	-23.767	0.099
118.900	-35.316	0.099
119.000	-30.915	0.099
119.100	-19.007	0.099
119.200	-17.071	0.099
119.300	-12.784	0.099
119.400	-26.472	0.099
119.500	-47.129	0.099
119.600	-32.099	0.099
119.700	-12.003	0.099
119.800	-52.935	0.099
119.900	-38.521	0.099
120.000	-46.561	0.099
120.100	1.193	0.099
120.200	-15.841	0.099
120.300	-63.013	0.099
120.400	-13.684	0.099
120.500	-28.796	0.099
120.600	-14.791	0.099
120.700	-19.283	0.099
120.800	-43.174	0.099
120.900	-44.008	0.099
121.000	-30.695	0.099
121.100	-16.286	0.099
121.200	-48.091	0.099
121.300	-39.904	0.099
121.400	-25.035	0.099
121.500	-41.436	0.099
121.600	-31.555	0.099
121.700	2.528	0.099
121.800	-37.445	0.099
121.900	-8.633	0.099
122.000	-27.309	0.099
122.100	-43.414	0.099
122.200	-34.450	0.099
122.300	-41.724	0.099
122.400	-35.195	0.099
122.500	-32.994	0.099
122.600	-21.343	0.099
122.700	-30.897	0.099
122.800	-13.951	0.099
122.900	-36.196	0.099
123.000	-39.948	0.099
123.100	-28.584	0.099
123.200	-15.263	0.099
123.300	-36.781	0.099
123.400	-37.625	0.099
123.500	-33.022	0.099
123.600	-55.319	0.099
123.700	-24.088	0.099
123.800	-45.385	0.099
123.900	-40.527	0.099
124.000	-28.818	0.099
124.100	-17.990	0.099
124.200	-10.543	0.099
124.300	-46.086	0.099
124.400	-53.205	0.099
124.500	-48.053	0.099
124.600	-8.462	0.099
124.700	-67.048	0.099
124.800	-17.637	0.099
124.900	-37.790	0.099
125.000	-22.093	0.099
125.100	-37.590	0.099
125.200	-41.027	0.099
125.300	-24.442	0.099
125.400	-14.412	0.099
125.500	-3.128	0.099
125.600	-10.936	0.099
125.700	-13.528	0.099
125.800	-16.201	0.099
125.900	-40.865	0.099
126.000	-33.320	0.099
126.100	-35.556	0.099
126.200	-19.571	0.099
126.300	-21.284	0.099
126.400	-47.638	0.099
126.500	-15.390	0.099
126.600	-44.486	0.099
126.700	-40.333	0.099
126.800	-20.995	0.099
126.900	-43.467	0.099
127.000	-44.273	0.099
127.100	-19.633	0.099
127.200	-17.880	0.099
127.300	-40.145	0.099
127.400	-32.847	0.099
127.500	-38.246	0.099
127.600	-34.682	0.099
127.700	-32.978	0.099
127.800	-35.227	0.099
127.900	-20.061	0.099
128.000	-50.365	0.099
128.100	-34.062	0.099
128.200	-7.185	0.099
128.300	-43.211	0.099
128.400	-33.460	0.099
128.500	-39.856	0.099
128.600	-32.273	0.099
128.700	-29.543	0.099
128.800	-25.929	0.099
128.900	-54.949	0.099
129.000	-32.999	0.099
129.100	-20.517	0.099
129.200	-18.846	0.099
129.300	-53.859	0.099
129.400	-24.863	0.099
129.500	-22.453	0.099
129.600	-12.878	0.099
129.700	-45.783	0.099
129.800	-26.335	0.099
129.900	-28.216	0.099
130.000	-31.171	0.099
130.100	-55.264	0.099
130.200	-29.585	0.099
130.300	-44.120	0.099
130.400	-59.856	0.099
130.500	-8.877	0.099
130.600	-13.423	0.099
130.700	-25.982	0.099
130.800	-26.460	0.099
130.900	-35.618	0.099
131.000	-48.170	0.099
131.100	-39.577	0.099
131.200	-26.607	0.099
131.300	-37.240	0.099
131.400	-19.713	0.099
131.500	-33.718	0.099
131.600	-30.949	0.099
131.700	-36.977	0.099
131.800	-35.401	0.099
131.900	-31.924	0.099
132.000	-35.940	0.099
132.100	-28.712	0.099
132.200	-27.191	0.099
132.300	-38.177	0.099
132.400	-42.489	0.099
132.500	-83.964	0.099
132.600	-52.967	0.099
132.700	-25.194	0.099
132.800	-4.396	0.099
132.900	-19.717	0.099
133.000	-9.842	0.099
133.100	-29.662	0.099
133.200	-15.244	0.099
133.300	-18.265	0.099
133.400	-25.607	0.099
133.500	-26.442	0.099
133.600	-46.606	0.099
133.700	-52.184	0.099
133.800	-64.474	0.099
133.900	-10.449	0.099
134.000	-17.837	0.099
134.100	-0.504	0.099
134.200	-46.415	0.099
134.300	-40.836	0.099
134.400	-45.669	0.099
134.500	-44.276	0.099
134.600	-39.892	0.099
134.700	-39.580	0.099
134.800	-50.381	0.099
134.900	-28.865	0.099
135.000	-32.612	0.099
135.100	-29.409	0.099
135.200	-36.666	0.099
135.300	-28.241	0.099
135.400	-49.623	0.099
135.500	-44.399	0.099
135.600	-18.133	0.099
135.700	-35.294	0.099
135.800	-20.942	0.099
135.900	-29.057	0.099
136.000	-29.424	0.099
136.100	-65.909	0.099
136.200	-40.255	0.099
136.300	5.717	0.099
136.400	-19.738	0.099
136.500	-25.018	0.099
136.600	-26.712	0.099
136.700	-65.758	0.099
136.800	-43.146	0.099
136.900	-45.267	0.099
137.000	-51.476	0.099
137.100	5.193	0.099
137.200	-22.030	0.099
137.300	-45.812	0.099
137.400	-37.282	0.099
137.500	-36.716	0.099
137.600	-5.989	0.099
137.700	-19.253	0.099
137.800	-31.753	0.099
137.900	-38.004	0.099
138.000	-53.131	0.099
138.100	-80.862	0.099
138.200	-29.431	0.099
138.300	-9.948	0.099
138.400	-19.131	0.099
138.500	-20.979	0.099
138.600	-25.854	0.099
138.700	-44.815	0.099
138.800	-48.256	0.099
138.900	-60.381	0.099
139.000	-33.701	0.099
139.100	-24.488	0.099
139.200	-68.741	0.099
139.300	-49.789	0.099
139.400	-4.878	0.099
139.500	-27.083	0.099
139.600	-37.101	0.099
139.700	-52.691	0.099
139.800	-49.764	0.099
139.900	-13.494	0.099
140.000	-31.247	0.099
140.100	-37.205	0.099
140.200	-28.452	0.099
140.300	-52.119	0.099
140.400	-4.877	0.099
140.500	-2.720	0.099
140.600	-56.682	0.099
140.700	-31.615	0.099
140.800	-38.217	0.099
140.900	-42.086	0.099
141.000	-18.680	0.099
141.100	-28.233	0.099
141.200	-39.402	0.099
141.300	-4.200	0.099
141.400	-6.846	0.099
141.500	-37.650	0.099
141.600	-7.794	0.099
141.700	-15.390	0.099
141.800	-42.455	0.099
141.900	-58.171	0.099
142.000	-35.777	0.099
142.100	-26.178	0.099
142.200	-50.141	0.099
142.300	-31.389	0.099
142.400	-67.808	0.099
142.500	-15.535	0.099
142.600	-22.458	0.099
142.700	-46.381	0.099
142.800	-45.953	0.099
142.900	-33.050	0.099
143.000	-30.335	0.099
143.100	-30.415	0.099
143.200	-31.176	0.099
143.300	-44.957	0.099
143.400	-20.894	0.099
143.500	-12.430	0.099
143.600	-22.842	0.099
143.700	-35.896	0.099
143.800	-24.344	0.099
143.900	-29.482	0.099
144.000	-74.654	0.099
144.100	-55.839	0.099
144.200	-53.041	0.099
144.300	-32.872	0.099
144.400	-7.007	0.099
144.500	-20.507	0.099
144.600	-46.408	0.099
144.700	-21.908	0.099
144.800	-43.767	0.099
144.900	-33.923	0.099
145.000	-38.948	0.099
145.100	-24.000	0.099
145.200	-22.953	0.099
145.300	-38.495	0.099
145.400	-8.222	0.099
145.500	-29.676	0.099
145.600	-44.639	0.099
145.700	-11.408	0.099
145.800	-26.868	0.099
145.900	-29.703	0.099
146.000	-13.740	0.099
146.100	-29.607	0.099
146.200	-29.594	0.099
146.300	-48.875	0.099
146.400	-21.400	0.099
146.500	-22.325	0.099
146.600	-55.116	0.099
146.700	-17.893	0.099
146.800	-27.546	0.099
146.900	-39.136	0.099
147.000	-50.565	0.099
147.100	-23.331	0.099
147.200	-21.791	0.099
147.300	-35.570	0.099
147.400	-36.545	0.099
147.500	-12.431	0.099
147.600	-46.953	0.099
147.700	-19.810	0.099
147.800	-39.675	0.099
147.900	-51.182	0.099
148.000	-22.203	0.099
148.100	-29.230	0.099
148.200	-38.866	0.099
148.300	-43.001	0.099
148.400	-27.959	0.099
148.500	-24.622	0.099
148.600	-42.850	0.099
148.700	-26.326	0.099
148.800	-39.818	0.099
148.900	-41.614	0.099
149.000	-35.521	0.099
149.100	-27.646	0.099
149.200	-5.627	0.099
149.300	-3.313	0.099
149.400	-16.974	0.099
149.500	-16.935	0.099
149.600	-21.431	0.099
149.700	-36.717	0.099
149.800	-55.886	0.099
149.900	-28.552	0.099
150.000	-38.169	0.099
150.100	-24.892	0.099
150.200	-26.092	0.099
150.300	-38.126	0.099
150.400	-57.215	0.099
150.500	-26.567	0.099
150.600	-15.171	0.099
150.700	-15.713	0.099
150.800	-13.729	0.099
150.900	-28.668	0.099
151.000	-28.369	0.099
151.100	-52.690	0.099
151.200	-20.701	0.099
151.300	-26.123	0.099
151.400	-31.264	0.099
151.500	-21.595	0.099
151.600	-37.887	0.099
151.700	-22.275	0.099
151.800	-32.404	0.099
151.900	-28.138	0.099
152.000	-0.519	0.099
152.100	-31.274	0.099
152.200	-39.999	0.099
152.300	-51.169	0.099
152.400	-40.569	0.099
152.500	-31.886	0.099
152.600	-9.291	0.099
152.700	-34.007	0.099
152.800	-4.016	0.099
152.900	-28.245	0.099
153.000	-38.823	0.099
153.100	-22.120	0.099
153.200	-38.454	0.099
153.300	-23.330	0.099
153.400	-22.447	0.099
153.500	-68.260	0.099
153.600	-35.066	0.099
153.700	-33.885	0.099
153.800	-55.213	0.099
153.900	-47.123	0.099
154.000	-27.117	0.099
154.100	2.141	0.099
154.200	-19.572	0.099
154.300	-28.982	0.099
154.400	-12.894	0.099
154.500	-17.748	0.099
154.600	-20.526	0.099
154.700	-28.783	0.099
154.800	-33.943	0.099
154.900	-50.770	0.099
155.000	-2.048	0.099
155.100	-22.731	0.099
155.200	-46.381	0.099
155.300	-21.663	0.099
155.400	-73.965	0.099
155.500	-10.879	0.099
155.600	-19.030	0.099
155.700	-18.996	0.099
155.800	-18.996	0.099
155.900	-64.611	0.099
156.000	-33.521	0.099
156.100	-38.728	0.099
156.200	-32.119	0.099
156.300	-36.953	0.099
156.400	-31.389	0.099
156.500	-14.735	0.099
156.600	-34.953	0.099
156.700	-27.986	0.099
156.800	-36.583	0.099
156.900	-2.175	0.099
157.000	-37.084	0.099
157.100	-18.925	0.099
157.200	3.252	0.099
157.300	-20.895	0.099
157.400	-52.098	0.099
157.500	-40.484	0.099
157.600	-25.854	0.099
157.700	-23.366	0.099
157.800	-32.391	0.099
157.900	-28.381	0.099
158.000	-41.437	0.099
158.100	-22.174	0.099
158.200	-30.729	0.099
158.300	-31.600	0.099
158.400	-36.371	0.099
158.500	-37.401	0.099
158.600	-21.710	0.099
158.700	-30.920	0.099
158.800	-45.485	0.099
158.900	-24.231	0.099
159.000	-37.277	0.099
159.100	-25.912	0.099
159.200	-59.105	0.099
159.300	-48.041	0.099
159.400	-28.443	0.099
159.500	-20.227	0.099
159.600	-34.464	0.099
159.700	-5.257	0.099
159.800	-29.684	0.099
159.900	-47.378	0.099
160.000	-52.337	0.099
160.100	-32.535	0.099
160.200	-26.430	0.099
160.300	-36.543	0.099
160.400	-31.343	0.099
160.500	-55.377	0.099
160.600	-43.627	0.099
160.700	-8.581	0.099
160.800	-26.461	0.099
160.900	-29.668	0.099
161.000	-34.954	0.099
161.100	-44.586	0.099
161.200	-50.115	0.099
161.300	-33.099	0.099
161.400	4.604	0.099
161.500	-10.539	0.099
161.600	-64.653	0.099
161.700	-38.481	0.099
161.800	-5.760	0.099
161.900	-30.933	0.099
162.000	-43.809	0.099
162.100	-32.369	0.099
162.200	-42.488	0.099
162.300	-32.978	0.099
162.400	-51.542	0.099
162.500	-40.406	0.099
162.600	-25.090	0.099
162.700	-34.156	0.099
162.800	-2.465	0.099
162.900	-28.842	0.099
163.000	-35.500	0.099
163.100	-38.467	0.099
163.200	-22.950	0.099
163.300	-19.430	0.099
163.400	-31.862	0.099
163.500	-35.896	0.099
163.600	-28.377	0.099
163.700	-40.559	0.099
163.800	-32.291	0.099
163.900	-15.874	0.099
164.000	-36.819	0.099
164.100	-19.978	0.099
164.200	-34.041	0.099
164.300	-20.531	0.099
164.400	-18.220	0.099
164.500	-27.976	0.099
164.600	-71.972	0.099
164.700	-47.497	0.099
164.800	-39.314	0.099
164.900	-7.915	0.099
165.000	-5.623	0.099
165.100	-31.960	0.099
165.200	-43.538	0.099
165.300	-48.952	0.099
165.400	-52.235	0.099
165.500	-23.906	0.099
165.600	-20.515	0.099
165.700	-27.784	0.099
165.800	-21.640	0.099
165.900	-48.346	0.099
166.000	-0.436	0.099
166.100	-43.486	0.099
166.200	-3.529	0.099
166.300	-27.602	0.099
166.400	-27.250	0.099
166.500	-42.909	0.099
166.600	-16.966	0.099
166.700	-18.287	0.099
166.800	-20.349	0.099
166.900	-42.161	0.099
167.000	-25.714	0.099
167.100	-30.922	0.099
167.200	-33.691	0.099
167.300	-28.188	0.099
167.400	-53.260	0.099
167.500	1.370	0.099
167.600	-4.613	0.099
167.700	-24.297	0.099
167.800	-70.136	0.099
167.900	-34.982	0.099
168.000	-20.894	0.099
168.100	-36.074	0.099
168.200	-21.272	0.099
168.300	-12.583	0.099
168.400	-36.738	0.099
168.500	-58.632	0.099
168.600	-38.013	0.100
168.700	-26.692	0.100
168.800	-34.805	0.100
168.900	-18.557	0.100
169.000	-42.613	0.100
169.100	-33.834	0.100
169.200	-42.037	0.100
169.300	-55.904	0.100
169.400	-1.325	0.100
169.500	-31.189	0.100
169.600	-36.784	0.100
169.700	-37.343	0.100
169.800	-16.437	0.100
169.900	-45.620	0.100
170.000	-25.404	0.100
170.100	-10.609	0.100
170.200	-18.004	0.100
170.300	-14.198	0.100
170.400	-32.433	0.100
170.500	-23.408	0.100
170.600	-33.791	0.100
170.700	-33.869	0.100
170.800	-21.508	0.100
170.900	-22.185	0.100
171.000	-31.094	0.100
171.100	-55.635	0.100
171.200	-10.424	0.100
171.300	-36.131	0.100
171.400	-40.719	0.100
171.500	-2.242	0.100
171.600	-0.454	0.100
171.700	-35.807	0.100
171.800	-19.391	0.100
171.900	-28.632	0.100
172.000	-16.314	0.100
172.100	-28.038	0.100
172.200	-28.437	0.100
172.300	-25.133	0.100
172.400	-18.341	0.100
172.500	-72.637	0.100
172.600	-28.490	0.100
172.700	-11.126	0.100
172.800	-35.196	0.100
172.900	-20.298	0.100
173.000	-24.931	0.100
173.100	-31.843	0.100
173.200	-60.388	0.100
173.300	-16.120	0.100
173.400	-44.621	0.100
173.500	-16.820	0.100
173.600	-13.278	0.100
173.700	-17.825	0.100
173.800	-16.958	0.100
173.900	-48.355	0.100
174.000	-30.657	0.100
174.100	-25.214	0.100
174.200	-9.416	0.100
174.300	-13.137	0.100
174.400	-24.107	0.100
174.500	-39.131	0.100
174.600	-33.196	0.100
174.700	-30.496	0.100
174.800	-22.340	0.100
174.900	-31.237	0.100
175.000	-36.808	0.100
175.100	-16.257	0.100
175.200	-16.418	0.100
175.300	-32.748	0.100
175.400	-33.899	0.100
175.500	-39.506	0.100
175.600	-29.696	0.100
175.700	-27.192	0.100
175.800	-15.446	0.100
175.900	-35.928	0.100
176.000	-34.258	0.100
176.100	-23.535	0.100
176.200	-12.823	0.100
176.300	-2.094	0.100
176.400	-10.624	0.100
176.500	9.382	0.100
176.600	-49.801	0.100
176.700	-49.359	0.100
176.800	-49.947	0.100
176.900	-41.981	0.100
177.000	-8.004	0.100
177.100	-37.682	0.100
177.200	-23.239	0.100
177.300	-19.415	0.100
177.400	-36.121	0.100
177.500	-21.680	0.100
177.600	-46.043	0.100
177.700	-19.434	0.100
177.800	-14.391	0.100
177.900	-5.800	0.100
178.000	-11.678	0.100
178.100	-12.706	0.100
178.200	-29.998	0.100
178.300	-27.590	0.100
178.400	-26.890	0.100
178.500	-30.203	0.100
178.600	-24.407	0.100
178.700	-17.273	0.100
178.800	-33.564	0.100
178.900	-19.871	0.100
179.000	-5.111	0.100
179.100	-40.969	0.100
179.200	-26.700	0.100
179.300	-9.483	0.100
179.400	-25.045	0.100
179.500	-19.436	0.100
179.600	-24.086	0.100
179.700	-41.760	0.100
179.800	-16.654	0.100
179.900	-36.627	0.100
180.000	-33.127	0.100
180.100	-35.863	0.100
180.200	-41.922	0.100
180.300	-24.349	0.100
180.400	-32.544	0.100
180.500	-67.717	0.100
180.600	-9.297	0.100
180.700	-5.793	0.100
180.800	-17.115	0.100
180.900	-16.004	0.100
181.000	-3.812	0.100
181.100	10.974	0.100
181.200	-3.556	0.100
181.300	11.915	0.100
181.400	-6.666	0.100
181.500	6.801	0.100
181.600	25.061	0.100
181.700	28.589	0.100
181.800	21.325	0.100
181.900	6.009	0.100
182.000	26.554	0.100
182.100	59.612	0.100
182.200	48.662	0.100
182.300	53.800	0.100
182.400	37.062	0.100
182.500	39.151	0.100
182.600	55.400	0.100
182.700	49.756	0.100
182.800	28.517	0.100
182.900	52.574	0.100
183.000	86.014	0.100
183.100	46.284	0.100
183.200	54.766	0.100
183.300	78.834	0.100
183.400	60.466	0.100
183.500	85.387	0.100
183.600	65.187	0.100
183.700	37.306	0.100
183.800	11.599	0.100
183.900	18.895	0.100
184.000	47.368	0.100
184.100	38.674	0.100
184.200	58.012	0.100
184.300	57.747	0.100
184.400	34.763	0.100
184.500	79.474	0.100
184.600	43.477	0.100
184.700	35.971	0.100
184.800	48.473	0.100
184.900	42.595	0.100
185.000	55.538	0.100
185.100	53.080	0.100
185.200	44.005	0.100
185.300	33.985	0.100
185.400	24.785	0.100
185.500	57.561	0.100
185.600	27.394	0.100
185.700	18.034	0.100
185.800	43.304	0.100
185.900	16.825	0.100
186.000	13.931	0.100
186.100	31.540	0.100
186.200	30.671	0.100
186.300	30.605	0.100
186.400	24.973	0.100
186.500	28.824	0.100
186.600	21.303	0.100
186.700	39.045	0.100
186.800	59.950	0.100
186.900	41.566	0.100
187.000	22.769	0.100
187.100	59.450	0.100
187.200	30.040	0.100
187.300	33.535	0.100
187.400	23.448	0.100
187.500	8.634	0.100
187.600	49.321	0.100
187.700	50.234	0.100
187.800	43.458	0.100
187.900	12.649	0.100
188.000	56.773	0.100
188.100	50.989	0.100
188.200	37.092	0.100
188.300	44.178	0.100
188.400	42.361	0.100
188.500	43.461	0.100
188.600	42.975	0.100
188.700	34.992	0.100
188.800	57.207	0.100
188.900	71.876	0.100
189.000	32.274	0.100
189.100	53.794	0.100
189.200	51.299	0.100
189.300	49.357	0.100
189.400	46.809	0.100
189.500	22.866	0.100
189.600	66.315	0.100
189.700	63.333	0.100
189.800	38.394	0.100
189.900	49.392	0.100
190.000	63.390	0.100
190.100	64.595	0.100
190.200	58.603	0.100
190.300	37.570	0.100
190.400	74.365	0.100
190.500	56.343	0.100
190.600	42.188	0.100
190.700	73.215	0.100
190.800	75.106	0.100
190.900	65.773	0.100
191.000	75.650	0.100
191.100	70.817	0.100
191.200	40.119	0.100
191.300	77.371	0.100
191.400	66.710	0.100
191.500	66.741	0.100
191.600	67.528	0.100
191.700	57.853	0.100
191.800	99.024	0.100
191.900	76.854	0.100
192.000	61.224	0.100
192.100	69.610	0.100
192.200	88.436	0.100
192.300	78.227	0.100
192.400	66.802	0.100
192.500	86.886	0.100
192.600	99.076	0.100
192.700	73.686	0.100
192.800	66.169	0.100
192.900	65.285	0.100
193.000	76.008	0.100
193.100	67.866	0.100
193.200	99.462	0.100
193.300	92.338	0.100
193.400	102.265	0.100
193.500	68.973	0.100
193.600	89.115	0.100
193.700	76.848	0.100
193.800	94.570	0.099
193.900	82.682	0.100
194.000	70.794	0.100
194.100	101.063	0.100
194.200	92.196	0.100
194.300	81.893	0.099
194.400	81.444	0.100
194.500	106.031	0.100
194.600	95.027	0.100
194.700	87.395	0.100
194.800	110.051	0.100
194.900	82.264	0.100
195.000	88.969	0.100
195.100	89.565	0.100
195.200	99.081	0.100
195.300	95.857	0.100
195.400	117.505	0.100
195.500	109.682	0.100
195.600	115.339	0.100
195.700	114.483	0.100
195.800	102.146	0.100
195.900	113.639	0.100
196.000	104.643	0.100
196.100	96.899	0.100
196.200	71.608	0.100
196.300	98.943	0.100
196.400	103.151	0.100
196.500	101.746	0.100
196.600	104.631	0.100
196.700	101.943	0.100
196.800	95.966	0.100
196.900	112.064	0.100
197.000	120.246	0.100
197.100	108.181	0.100
197.200	104.348	0.100
197.300	101.975	0.100
197.400	105.316	0.100
197.500	108.937	0.100
197.600	108.970	0.100
197.700	125.781	0.100
197.800	111.488	0.100
197.900	101.499	0.100
198.000	108.732	0.100
198.100	123.516	0.100
198.200	92.464	0.100
198.300	114.724	0.100
198.400	135.055	0.100
198.500	95.717	0.100
198.600	98.681	0.100
198.700	109.033	0.100
198.800	130.789	0.100
198.900	89.922	0.100
199.000	105.896	0.100
199.100	127.725	0.100
199.200	114.124	0.100
199.300	101.792	0.100
199.400	131.144	0.100
199.500	126.903	0.100
199.600	84.100	0.100
199.700	107.638	0.100
199.800	119.164	0.100
199.900	95.192	0.100
200.000	72.121	0.100
200.100	116.841	0.100
200.200	122.168	0.100
200.300	110.489	0.100
200.400	97.797	0.100
200.500	99.056	0.100
200.600	125.951	0.100
200.700	110.962	0.100
200.800	116.914	0.100
200.900	121.382	0.100
201.000	89.065	0.100
201.100	106.393	0.100
201.200	112.122	0.100
201.300	127.215	0.100
201.400	108.173	0.100
201.500	117.272	0.100
201.600	83.220	0.100
201.700	112.573	0.100
201.800	94.456	0.100
201.900	129.980	0.100
202.000	108.578	0.100
202.100	109.991	0.100
202.200	126.800	0.100
202.300	92.684	0.100
202.400	109.279	0.100
202.500	109.145	0.100
202.600	105.124	0.100
202.700	105.228	0.100
202.800	104.665	0.100
202.900	109.697	0.100
203.000	87.476	0.100
203.100	91.774	0.100
203.200	103.026	0.100
203.300	127.322	0.100
203.400	95.008	0.100
203.500	125.224	0.100
203.600	102.329	0.100
203.700	114.854	0.100
203.800	127.169	0.100
203.900	128.244	0.100
204.000	103.241	0.100
204.100	108.876	0.100
204.200	107.329	0.100
204.300	88.881	0.100
204.400	81.666	0.100
204.500	102.608	0.100
204.600	99.849	0.100
204.700	90.907	0.100
204.800	119.786	0.100
204.900	105.396	0.100
205.000	105.627	0.100
205.100	127.636	0.100
205.200	125.436	0.100
205.300	77.423	0.100
205.400	122.024	0.100
205.500	120.392	0.100
205.600	109.872	0.100
205.700	91.153	0.100
205.800	106.923	0.100
205.900	94.839	0.100
206.000	117.063	0.100
206.100	119.267	0.100
206.200	103.258	0.100
206.300	99.696	0.100
206.400	100.445	0.100
206.500	113.027	0.100
206.600	105.888	0.100
206.700	113.171	0.100
206.800	107.250	0.100
206.900	107.908	0.100
207.000	77.794	0.100
207.100	86.462	0.100
207.200	117.911	0.100
207.300	101.044	0.100
207.400	83.092	0.100
207.500	137.431	0.100
207.600	111.544	0.100
207.700	110.190	0.100
207.800	100.737	0.100
207.900	104.543	0.100
208.000	107.374	0.100
208.100	84.855	0.100
208.200	94.770	0.100
208.300	109.773	0.100
208.400	85.610	0.100
208.500	123.815	0.100
208.600	112.584	0.100
208.700	107.940	0.100
208.800	91.351	0.100
208.900	105.632	0.100
209.000	98.798	0.100
209.100	114.318	0.100
209.200	90.474	0.100
209.300	95.671	0.100
209.400	73.579	0.100
209.500	121.751	0.100
209.600	104.540	0.100
209.700	105.605	0.100
209.800	88.417	0.100
209.900	96.236	0.100
210.000	97.281	0.100
210.100	123.426	0.100
210.200	108.289	0.100
210.300	97.008	0.100
210.400	86.218	0.100
210.500	129.621	0.100
210.600	105.676	0.100
210.700	86.061	0.100
210.800	101.588	0.100
210.900	96.340	0.100
211.000	103.847	0.100
211.100	111.851	0.100
211.200	88.492	0.100
211.300	106.028	0.100
211.400	117.274	0.100
211.500	93.844	0.100
211.600	86.928	0.100
211.700	131.164	0.100
211.800	76.703	0.100
211.900	96.736	0.100
212.000	77.624	0.100
212.100	122.563	0.100
212.200	108.951	0.100
212.300	134.100	0.100
212.400	121.396	0.100
212.500	99.035	0.100
212.600	69.089	0.100
212.700	95.017	0.100
212.800	89.014	0.100
212.900	96.181	0.100
213.000	110.865	0.100
213.100	82.659	0.100
213.200	111.518	0.100
213.300	111.472	0.100
213.400	81.134	0.100
213.500	114.724	0.100
213.600	100.251	0.100
213.700	104.431	0.100
213.800	107.565	0.100
213.900	77.749	0.100
214.000	101.930	0.100
214.100	77.235	0.100
214.200	112.186	0.100
214.300	91.211	0.100
214.400	103.018	0.100
214.500	98.408	0.100
214.600	121.177	0.100
214.700	92.617	0.100
214.800	118.260	0.100
214.900	103.927	0.100
215.000	77.871	0.100
215.100	108.207	0.100
215.200	117.019	0.100
215.300	99.138	0.100
215.400	75.879	0.100
215.500	90.863	0.100
215.600	95.508	0.100
215.700	117.975	0.100
215.800	106.116	0.100
215.900	111.358	0.100
216.000	106.038	0.100
216.100	94.690	0.100
216.200	88.551	0.100
216.300	90.774	0.100
216.400	91.393	0.100
216.500	92.663	0.100
216.600	126.651	0.100
216.700	89.614	0.100
216.800	82.329	0.100
216.900	96.432	0.100
217.000	113.830	0.100
217.100	104.996	0.100
217.200	109.277	0.100
217.300	100.409	0.100
217.400	76.709	0.100
217.500	110.569	0.100
217.600	113.767	0.100
217.700	122.824	0.100
217.800	115.375	0.100
217.900	113.455	0.100
218.000	98.336	0.100
218.100	97.766	0.100
218.200	73.517	0.100
218.300	75.140	0.100
218.400	98.195	0.100
218.500	108.019	0.100
218.600	126.863	0.100
218.700	119.700	0.100
218.800	79.353	0.100
218.900	112.609	0.100
219.000	84.964	0.100
219.100	80.745	0.100
219.200	110.804	0.100
219.300	110.913	0.100
219.400	114.185	0.100
219.500	83.639	0.100
219.600	114.566	0.100
219.700	103.490	0.100
219.800	101.216	0.100
219.900	88.483	0.100
220.000	121.698	0.100
220.100	85.740	0.100
220.200	94.851	0.100
220.300	120.724	0.100
220.400	122.932	0.100
220.500	85.163	0.100
220.600	110.903	0.100
220.700	101.630	0.100
220.800	89.261	0.100
220.900	74.814	0.100
221.000	73.727	0.100
221.100	99.418	0.100
221.200	125.073	0.100
221.300	121.510	0.100
221.400	107.312	0.100
221.500	103.005	0.100
221.600	104.770	0.100
221.700	97.464	0.100
221.800	97.943	0.100
221.900	101.193	0.100
222.000	119.186	0.100
222.100	75.488	0.100
222.200	98.352	0.100
222.300	100.470	0.100
222.400	99.372	0.100
222.500	93.648	0.100
222.600	95.842	0.100
222.700	68.364	0.100
222.800	88.020	0.100
222.900	95.540	0.100
223.000	104.241	0.100
223.100	94.864	0.100
223.200	92.446	0.100
223.300	95.094	0.100
223.400	97.333	0.100
223.500	110.774	0.100
223.600	106.304	0.100
223.700	110.219	0.100
223.800	96.106	0.100
223.900	68.147	0.100
224.000	97.553	0.100
224.100	96.398	0.100
224.200	114.321	0.100
224.300	108.740	0.100
224.400	101.976	0.100
224.500	94.598	0.100
224.600	124.653	0.100
224.700	96.674	0.100
224.800	85.055	0.100
224.900	82.232	0.100
225.000	104.937	0.100
225.100	76.455	0.100
225.200	101.034	0.100
225.300	105.521	0.100
225.400	84.544	0.100
225.500	117.602	0.100
225.600	118.134	0.100
225.700	93.015	0.100
225.800	71.757	0.100
225.900	115.783	0.100
226.000	129.646	0.100
226.100	73.610	0.100
226.200	112.886	0.100
226.300	96.662	0.100
226.400	69.729	0.100
226.500	102.076	0.100
226.600	85.547	0.100
226.700	118.086	0.100
226.800	101.522	0.100
226.900	97.526	0.100
227.000	112.671	0.100
227.100	107.601	0.100
227.200	122.760	0.100
227.300	109.088	0.100
227.400	90.157	0.100
227.500	89.591	0.100
227.600	100.016	0.100
227.700	79.106	0.100
227.800	110.386	0.100
227.900	67.464	0.100
228.000	113.572	0.100
228.100	110.302	0.100
228.200	105.575	0.100
228.300	106.944	0.100
228.400	103.752	0.100
228.500	83.847	0.100
228.600	84.147	0.100
228.700	92.208	0.100
228.800	103.927	0.100
228.900	103.271	0.100
229.000	102.548	0.100
229.100	121.435	0.100
229.200	129.614	0.100
229.300	89.559	0.100
229.400	87.209	0.100
229.500	97.057	0.100
229.600	79.031	0.100
229.700	84.671	0.100
229.800	114.497	0.100
229.900	118.111	0.100
230.000	108.950	0.100
230.100	83.387	0.100
230.200	81.442	0.100
230.300	104.341	0.100
230.400	105.369	0.100
230.500	110.034	0.100
230.600	75.680	0.100
230.700	84.824	0.100
230.800	98.285	0.100
230.900	105.151	0.100
231.000	66.891	0.100
231.100	108.311	0.100
231.200	104.617	0.100
231.300	121.423	0.100
231.400	90.359	0.100
231.500	92.678	0.100
231.600	124.789	0.100
231.700	111.721	0.100
231.800	116.971	0.100
231.900	93.439	0.100
232.000	73.498	0.100
232.100	94.209	0.100
232.200	142.479	0.100
232.300	80.337	0.100
232.400	95.238	0.100
232.500	98.135	0.100
232.600	75.243	0.100
232.700	107.505	0.100
232.800	117.479	0.100
232.900	98.741	0.100
233.000	85.221	0.100
233.100	102.760	0.100
233.200	84.479	0.100
233.300	78.615	0.100
233.400	115.025	0.100
233.500	100.411	0.100
233.600	87.685	0.100
233.700	98.330	0.100
233.800	86.145	0.100
233.900	89.682	0.100
234.000	81.357	0.100
234.100	114.158	0.100
234.200	111.696	0.100
234.300	110.917	0.100
234.400	72.788	0.100
234.500	86.216	0.100
234.600	79.543	0.100
234.700	108.115	0.100
234.800	107.824	0.100
234.900	89.034	0.100
235.000	102.636	0.100
235.100	96.394	0.100
235.200	104.474	0.100
235.300	95.940	0.100
235.400	120.002	0.100
235.500	71.271	0.100
235.600	72.263	0.100
235.700	88.568	0.100
235.800	100.369	0.100
235.900	69.405	0.100
236.000	99.784	0.100
236.100	123.284	0.100
236.200	109.078	0.100
236.300	93.008	0.100
236.400	111.626	0.100
236.500	121.428	0.100
236.600	83.753	0.100
236.700	85.380	0.100
236.800	127.811	0.100
236.900	113.925	0.100
237.000	89.120	0.100
237.100	88.787	0.100
237.200	101.814	0.100
237.300	88.643	0.100
237.400	75.266	0.100
237.500	105.457	0.100
237.600	97.475	0.100
237.700	67.429	0.100
237.800	88.674	0.100
237.900	98.149	0.100
238.000	110.004	0.100
238.100	88.437	0.100
238.200	97.397	0.100
238.300	108.754	0.100
238.400	96.115	0.100
238.500	87.285	0.100
238.600	101.963	0.100
238.700	55.697	0.100
238.800	96.407	0.100
238.900	91.195	0.100
239.000	134.326	0.100
239.100	78.929	0.100
239.200	111.158	0.100
239.300	100.382	0.100
239.400	127.363	0.100
239.500	111.300	0.100
239.600	94.206	0.100
239.700	78.190	0.100
239.800	78.388	0.100
239.900	89.079	0.100
240.000	78.858	0.100
240.100	115.693	0.100
240.200	100.339	0.100
240.300	114.714	0.100
240.400	106.712	0.100
240.500	112.489	0.100
240.600	100.437	0.100
240.700	92.442	0.100
240.800	85.823	0.100
240.900	92.172	0.100
241.000	78.113	0.100
241.100	89.018	0.100
241.200	71.123	0.100
241.300	68.199	0.100
241.400	59.793	0.100
241.500	40.990	0.100
241.600	24.153	0.100
241.700	46.814	0.100
241.800	28.903	0.100
241.900	50.612	0.100
242.000	43.298	0.100
242.100	25.040	0.100
242.200	21.982	0.100
242.300	45.698	0.100
242.400	41.259	0.100
242.500	10.337	0.100
242.600	6.460	0.100
242.700	22.133	0.100
242.800	38.608	0.100
242.900	-9.765	0.100
243.000	-22.630	0.100
243.100	10.064	0.100
243.200	0.799	0.100
243.300	3.028	0.100
243.400	11.499	0.100
243.500	6.887	0.100
243.600	-10.902	0.100
243.700	13.641	0.100
243.800	12.465	0.100
243.900	2.784	0.100
244.000	-8.710	0.100
244.100	-15.888	0.100
244.200	-10.872	0.100
244.300	12.561	0.100
244.400	-0.627	0.100
244.500	-30.150	0.100
244.600	-34.767	0.100
244.700	4.181	0.100
244.800	-10.925	0.100
244.900	-11.349	0.100
245.000	-21.635	0.100
245.100	-54.096	0.100
245.200	-21.407	0.100
245.300	12.321	0.100
245.400	-12.015	0.100
245.500	-18.244	0.100
245.600	-31.817	0.100
245.700	-3.245	0.100
245.800	-42.491	0.100
245.900	10.751	0.100
246.000	3.528	0.100
246.100	-0.818	0.100
246.200	-19.877	0.100
246.300	-13.924	0.100
246.400	-19.376	0.100
246.500	0.661	0.100
246.600	-24.573	0.100
246.700	-8.826	0.100
246.800	-25.793	0.100
246.900	1.821	0.100
247.000	-37.524	0.100
247.100	-9.497	0.100
247.200	-15.643	0.100
247.300	9.543	0.100
247.400	-30.810	0.100
247.500	-14.922	0.100
247.600	-4.115	0.100
247.700	-4.824	0.100
247.800	-13.348	0.100
247.900	-28.115	0.100
248.000	-54.116	0.100
248.100	-17.258	0.100
248.200	9.038	0.100
248.300	1.964	0.100
248.400	-44.638	0.100
248.500	6.024	0.100
248.600	-6.349	0.100
248.700	-14.951	0.100
248.800	-3.043	0.100
248.900	0.561	0.100
249.000	-19.806	0.100
249.100	14.184	0.100
249.200	7.460	0.100
249.300	-6.103	0.100
249.400	-5.472	0.100
249.500	-24.258	0.100
249.600	-13.978	0.100
249.700	11.352	0.100
249.800	-17.031	0.100
249.900	-20.415	0.100
250.000	-35.195	0.100
250.100	-24.161	0.100
250.200	18.276	0.100
250.300	-9.198	0.100
250.400	-7.287	0.100
250.500	-2.172	0.100
250.600	5.202	0.100
250.700	-35.886	0.100
250.800	-9.464	0.100
250.900	-7.599	0.100
251.000	-43.486	0.100
251.100	-32.190	0.100
251.200	5.538	0.100
251.300	7.305	0.100
251.400	9.780	0.100
251.500	-16.369	0.100
251.600	-2.249	0.100
251.700	-8.511	0.100
251.800	-3.550	0.100
251.900	3.724	0.100
252.000	-17.787	0.100
252.100	-13.881	0.100
252.200	-26.724	0.100
252.300	-3.475	0.100
252.400	-11.264	0.100
252.500	5.707	0.100
252.600	5.877	0.100
252.700	-2.477	0.100
252.800	-8.625	0.100
252.900	-33.454	0.100
253.000	-16.808	0.100
253.100	-42.776	0.100
253.200	-0.447	0.100
253.300	-8.976	0.100
253.400	-13.823	0.100
253.500	-27.923	0.100
253.600	-0.958	0.100
253.700	-1.817	0.100
253.800	6.632	0.100
253.900	-9.330	0.100
254.000	-30.487	0.100
254.100	-4.904	0.100
254.200	-9.720	0.100
254.300	1.568	0.100
254.400	-33.402	0.100
254.500	5.685	0.100
254.600	-18.716	0.100
254.700	-11.966	0.100
254.800	17.120	0.100
254.900	-20.006	0.100
255.000	-36.666	0.100
255.100	-19.877	0.100
255.200	-32.865	0.100
255.300	-31.782	0.100
255.400	-16.733	0.100
255.500	-10.084	0.100
255.600	-15.918	0.100
255.700	-28.794	0.100
255.800	-18.081	0.100
255.900	-23.304	0.100
256.000	-16.335	0.100
256.100	2.699	0.100
256.200	-9.200	0.100
256.300	-23.597	0.100
256.400	-20.119	0.100
256.500	-21.860	0.100
256.600	-25.751	0.100
256.700	-35.196	0.100
256.800	-28.285	0.100
256.900	-40.545	0.100
257.000	-32.841	0.100
257.100	-7.888	0.100
257.200	-25.375	0.100
257.300	-17.462	0.100
257.400	-9.622	0.100
257.500	-23.192	0.100
257.600	-9.233	0.100
257.700	-14.905	0.100
257.800	7.068	0.100
257.900	-26.882	0.100
258.000	-43.701	0.100
258.100	2.111	0.100
258.200	3.725	0.100
258.300	-31.582	0.100
258.400	-33.611	0.100
258.500	-68.438	0.100
258.600	-19.489	0.100
258.700	-39.815	0.100
258.800	-23.467	0.100
258.900	-13.007	0.100
259.000	-30.037	0.100
259.100	-18.960	0.100
259.200	-24.144	0.100
259.300	-36.995	0.100
259.400	-15.828	0.100
259.500	-23.516	0.100
259.600	-7.756	0.100
259.700	-18.030	0.100
259.800	-35.531	0.100
259.900	-9.568	0.100
260.000	-27.730	0.100
260.100	-36.772	0.100
260.200	-52.169	0.100
260.300	-51.183	0.100
260.400	-19.460	0.100
260.500	-15.072	0.100
260.600	-25.541	0.100
260.700	-29.340	0.100
260.800	-16.979	0.100
260.900	1.317	0.100
261.000	-28.143	0.100
261.100	-54.881	0.100
261.200	-67.092	0.100
261.300	-6.443	0.100
261.400	-20.904	0.100
261.500	-18.021	0.100
261.600	-23.986	0.100
261.700	-27.484	0.100
261.800	-25.491	0.100
261.900	-36.619	0.100
262.000	-31.939	0.100
262.100	-15.143	0.100
262.200	-34.322	0.100
262.300	-34.928	0.100
262.400	-25.544	0.100
262.500	-18.951	0.100
262.600	-50.602	0.100
262.700	-47.594	0.100
262.800	-24.395	0.100
262.900	-42.176	0.100
263.000	-25.860	0.100
263.100	-43.665	0.100
263.200	-44.708	0.100
263.300	-26.268	0.100
263.400	-32.464	0.100
263.500	-27.358	0.100
263.600	-42.377	0.100
263.700	-28.084	0.100
263.800	-20.649	0.100
263.900	-52.633	0.100
264.000	-18.666	0.100
264.100	-17.628	0.100
264.200	-27.217	0.100
264.300	-49.077	0.100
264.400	-45.182	0.100
264.500	-44.849	0.100
264.600	-51.991	0.100
264.700	-62.465	0.100
264.800	-57.533	0.100
264.900	-8.590	0.100
265.000	-9.338	0.100
265.100	-2.912	0.100
265.200	-29.171	0.100
265.300	-66.076	0.100
265.400	-42.085	0.100
265.500	-40.606	0.100
265.600	-41.682	0.100
265.700	-33.786	0.100
265.800	-33.276	0.100
265.900	-25.694	0.100
266.000	-36.058	0.100
266.100	-52.072	0.100
266.200	-38.263	0.100
266.300	-31.050	0.100
266.400	-28.610	0.100
266.500	-45.062	0.100
266.600	-47.221	0.100
266.700	-21.154	0.100
266.800	-75.976	0.100
266.900	-36.331	0.100
267.000	-21.955	0.100
267.100	-50.749	0.100
267.200	-23.843	0.100
267.300	-29.895	0.100
267.400	-49.059	0.100
267.500	-50.078	0.100
267.600	-47.391	0.100
267.700	-38.621	0.100
267.800	-47.338	0.100
267.900	-36.225	0.100
268.000	-30.861	0.100
268.100	-44.084	0.100
268.200	-72.635	0.100
268.300	-36.462	0.100
268.400	-46.813	0.100
268.500	-26.202	0.100
268.600	-54.211	0.100
268.700	-15.732	0.100
268.800	-54.285	0.100
268.900	-53.320	0.100
269.000	-58.889	0.100
269.100	-62.035	0.100
269.200	-43.060	0.100
269.300	-21.431	0.100
269.400	-37.527	0.100
269.500	-49.792	0.100
269.600	-53.190	0.100
269.700	-31.308	0.100
269.800	-50.974	0.100
269.900	-28.536	0.100
270.000	-22.467	0.100
270.100	-69.877	0.100
270.200	-50.261	0.100
270.300	-56.024	0.100
270.400	-27.810	0.100
270.500	-40.564	0.100
270.600	-34.582	0.100
270.700	-36.451	0.100
270.800	-29.612	0.100
270.900	-67.281	0.100
271.000	-63.275	0.100
271.100	-47.147	0.100
271.200	-30.038	0.100
271.300	-33.864	0.100
271.400	-54.352	0.100
271.500	-42.462	0.100
271.600	-40.761	0.100
271.700	-43.825	0.100
271.800	-21.019	0.100
271.900	-29.687	0.100
272.000	-49.473	0.100
272.100	-33.349	0.100
272.200	-35.342	0.100
272.300	-51.775	0.100
272.400	-43.505	0.100
272.500	-36.545	0.100
272.600	-56.050	0.100
272.700	-71.016	0.100
272.800	-44.644	0.100
272.900	-44.261	0.100
273.000	-28.382	0.100
273.100	-30.875	0.100
273.200	-29.148	0.100
273.300	-59.191	0.100
273.400	-38.035	0.100
273.500	-23.791	0.100
273.600	-41.164	0.100
273.700	-41.306	0.100
273.800	-44.200	0.100
273.900	-62.673	0.100
274.000	-46.986	0.100
274.100	-42.438	0.100
274.200	-21.686	0.100
274.300	-36.050	0.100
274.400	-36.183	0.100
274.500	-40.783	0.100
274.600	-57.420	0.100
274.700	-49.359	0.100
274.800	-39.451	0.100
274.900	-54.586	0.100
275.000	-33.595	0.100
275.100	-32.022	0.100
275.200	-28.965	0.100
275.300	-21.152	0.100
275.400	-51.601	0.100
275.500	-45.964	0.100
275.600	-48.396	0.100
275.700	-36.316	0.100
275.800	-51.194	0.100
275.900	-69.559	0.100
276.000	-48.149	0.100
276.100	-37.352	0.100
276.200	-32.835	0.100
276.300	-39.685	0.100
276.400	-57.030	0.100
276.500	-41.114	0.100
276.600	-33.491	0.100
276.700	-20.464	0.100
276.800	-51.831	0.100
276.900	-42.056	0.100
277.000	-39.653	0.100
277.100	-25.102	0.100
277.200	-33.946	0.100
277.300	-43.333	0.100
277.400	-35.988	0.100
277.500	-74.341	0.100
277.600	-53.853	0.100
277.700	-36.519	0.100
277.800	-44.341	0.100
277.900	-46.072	0.100
278.000	-50.472	0.100
278.100	-69.108	0.100
278.200	-54.641	0.100
278.300	-42.169	0.100
278.400	-38.704	0.100
278.500	-22.385	0.100
278.600	-12.191	0.100
278.700	-45.266	0.100
278.800	-55.187	0.100
278.900	-33.142	0.100
279.000	-52.016	0.100
279.100	-56.245	0.100
279.200	-35.396	0.100
279.300	-46.007	0.100
279.400	-40.551	0.100
279.500	-45.821	0.100
279.600	-63.256	0.100
279.700	-28.133	0.100
279.800	-22.019	0.100
279.900	-59.173	0.100
280.000	-35.837	0.100
280.100	-43.598	0.100
280.200	-51.453	0.100
280.300	-64.763	0.100
280.400	-52.759	0.100
280.500	-58.704	0.100
280.600	-41.659	0.100
280.700	-38.048	0.100
280.800	-31.899	0.100
280.900	-39.979	0.100
281.000	-10.394	0.100
281.100	-52.831	0.100
281.200	-53.448	0.100
281.300	-58.685	0.100
281.400	-58.959	0.100
281.500	-34.218	0.100
281.600	-47.116	0.100
281.700	-33.134	0.100
281.800	-30.833	0.100
281.900	-26.418	0.100
282.000	-51.802	0.100
282.100	-53.289	0.100
282.200	-44.713	0.100
282.300	-26.616	0.100
282.400	-39.672	0.100
282.500	-55.100	0.100
282.600	-70.389	0.100
282.700	-44.094	0.100
282.800	-44.296	0.100
282.900	-38.433	0.100
283.000	-10.775	0.100
283.100	-46.879	0.100
283.200	-48.076	0.100
283.300	-25.212	0.100
283.400	-64.298	0.100
283.500	-45.572	0.100
283.600	-58.721	0.100
283.700	-47.572	0.100
283.800	-23.181	0.100
283.900	-42.264	0.100
284.000	-40.100	0.100
284.100	-26.776	0.100
284.200	-47.343	0.100
284.300	-38.584	0.100
284.400	-47.800	0.100
284.500	-48.721	0.100
284.600	-53.209	0.100
284.700	-37.165	0.100
284.800	-52.806	0.100
284.900	-18.889	0.100
285.000	-13.527	0.100
285.100	-37.741	0.100
285.200	-35.090	0.100
285.300	-40.703	0.100
285.400	-61.236	0.100
285.500	-31.334	0.100
285.600	-55.557	0.100
285.700	-66.623	0.100
285.800	-42.336	0.100
285.900	-48.046	0.100
286.000	-49.763	0.100
286.100	-37.081	0.100
286.200	-11.951	0.100
286.300	-26.035	0.100
286.400	-53.934	0.100
286.500	-45.672	0.100
286.600	-45.901	0.100
286.700	-33.769	0.100
286.800	-37.344	0.100
286.900	-43.407	0.100
287.000	-15.809	0.100
287.100	-47.310	0.100
287.200	-36.837	0.100
287.300	-38.881	0.100
287.400	-63.416	0.100
287.500	-30.047	0.100
287.600	-17.343	0.100
287.700	-52.263	0.100
287.800	-52.574	0.100
287.900	-18.766	0.100
288.000	-55.647	0.100
288.100	-64.652	0.100
288.200	-42.495	0.100
288.300	-37.748	0.100
288.400	-43.369	0.100
288.500	-15.990	0.100
288.600	-37.673	0.100
288.700	-32.576	0.100
288.800	-47.016	0.100
288.900	-75.579	0.100
289.000	-43.009	0.100
289.100	-37.200	0.100
289.200	-31.486	0.100
289.300	-41.184	0.100
289.400	-38.104	0.100
289.500	-32.316	0.100
289.600	-48.179	0.100
289.700	-49.728	0.100
289.800	-44.514	0.100
289.900	-32.991	0.100
290.000	-42.779	0.100
290.100	-47.459	0.100
290.200	-45.798	0.100
290.300	-30.949	0.100
290.400	-22.140	0.100
290.500	-65.420	0.100
290.600	-49.842	0.100
290.700	-18.322	0.100
290.800	-53.028	0.100
290.900	-55.645	0.100
291.000	-20.372	0.100
291.100	-52.535	0.100
291.200	-31.203	0.100
291.300	-45.936	0.100
291.400	-49.328	0.100
291.500	-56.360	0.100
291.600	-40.680	0.100
291.700	-32.711	0.100
291.800	-39.456	0.100
291.900	-26.850	0.100
292.000	-38.418	0.100
292.100	-70.185	0.100
292.200	-41.578	0.100
292.300	-65.043	0.100
292.400	-16.010	0.100
292.500	-48.776	0.100
292.600	-29.180	0.100
292.700	-52.166	0.100
292.800	-31.304	0.100
292.900	-56.835	0.100
293.000	-48.960	0.100
293.100	-44.644	0.100
293.200	-42.659	0.100
293.300	-42.513	0.100
293.400	-45.247	0.100
293.500	-36.443	0.100
293.600	-25.046	0.100
293.700	-38.738	0.100
293.800	-52.481	0.100
293.900	-54.011	0.100
294.000	-14.079	0.100
294.100	-21.829	0.100
294.200	-41.498	0.100
294.300	-35.971	0.100
294.400	-41.996	0.100
294.500	-44.470	0.100
294.600	-35.644	0.100
294.700	-32.241	0.100
294.800	-44.103	0.100
294.900	-32.892	0.100
295.000	-21.849	0.100
295.100	-23.022	0.100
295.200	-39.659	0.100
295.300	-54.554	0.100
295.400	-18.963	0.100
295.500	-25.399	0.100
295.600	-62.044	0.100
295.700	-46.135	0.100
295.800	-26.061	0.100
295.900	-46.234	0.100
296.000	-46.049	0.100
296.100	-53.626	0.100
296.200	-32.402	0.100
296.300	-49.734	0.100
296.400	-32.743	0.100
296.500	-29.451	0.100
296.600	-41.103	0.100
296.700	-61.656	0.100
296.800	-30.233	0.100
296.900	-33.409	0.100
297.000	-28.166	0.100
297.100	-30.852	0.100
297.200	-55.209	0.100
297.300	-40.245	0.100
297.400	-36.872	0.100
297.500	-41.002	0.100
297.600	-36.030	0.100
297.700	-33.289	0.100
297.800	-37.494	0.100
297.900	-48.163	0.100
298.000	-40.142	0.100
298.100	-42.829	0.100
298.200	-23.850	0.100
298.300	-22.202	0.100
298.400	-64.266	0.100
298.500	-36.177	0.100
298.600	-48.850	0.100
298.700	-28.554	0.100
298.800	-36.450	0.100
298.900	-37.332	0.100
299.000	-65.858	0.100
299.100	-46.655	0.100
299.200	-31.902	0.100
299.300	-9.882	0.100
299.400	-16.075	0.100
299.500	-18.354	0.100
299.600	-23.410	0.100
299.700	-13.157	0.100
299.800	-27.806	0.100
299.900	-41.813	0.100
300.000	-53.465	0.100
300.100	-77.287	0.100
300.200	-55.428	0.100
300.300	-20.148	0.100
300.400	-49.549	0.100
300.500	-20.047	0.100
300.600	-55.110	0.100
300.700	-74.476	0.100
300.800	-38.078	0.100
300.900	-18.561	0.100
301.000	-29.843	0.100
301.100	-32.388	0.100
301.200	-28.744	0.100
301.300	-63.490	0.100
301.400	-44.136	0.100
301.500	-47.364	0.100
301.600	-42.626	0.100
301.700	-22.611	0.100
301.800	-30.295	0.100
301.900	-54.255	0.100
302.000	-30.119	0.100
302.100	-41.513	0.100
302.200	-42.748	0.100
302.300	-53.728	0.100
302.400	-36.584	0.100
302.500	-19.602	0.100
302.600	-53.073	0.100
302.700	-45.404	0.100
302.800	-48.459	0.100
302.900	5.089	0.100
303.000	-29.758	0.100
303.100	-36.721	0.100
303.200	-32.166	0.100
303.300	-14.768	0.100
303.400	-49.898	0.100
303.500	-53.447	0.100
303.600	-35.704	0.100
303.700	-25.362	0.100
303.800	-13.905	0.100
303.900	-7.428	0.100
304.000	-28.702	0.100
304.100	-33.546	0.100
304.200	-62.182	0.100
304.300	-41.103	0.100
304.400	-16.372	0.100
304.500	-27.531	0.100
304.600	-49.118	0.100
304.700	-39.469	0.100
304.800	-42.629	0.100
304.900	-22.673	0.100
305.000	-29.763	0.100
305.100	-39.333	0.100
305.200	-44.349	0.100
305.300	-46.408	0.100
305.400	-51.762	0.100
305.500	-50.212	0.100
305.600	-27.115	0.100
305.700	-31.673	0.100
305.800	-45.609	0.100
305.900	-36.672	0.100
306.000	-10.296	0.100
306.100	-23.001	0.100
306.200	-80.443	0.100
306.300	-48.511	0.100
306.400	-42.652	0.100
306.500	-29.567	0.100
306.600	-29.328	0.100
306.700	-35.295	0.100
306.800	-33.314	0.100
306.900	-29.551	0.100
307.000	-70.192	0.100
307.100	-49.267	0.100
307.200	-37.593	0.100
307.300	-31.803	0.100
307.400	-34.038	0.100
307.500	-62.490	0.100
307.600	-40.818	0.100
307.700	-22.399	0.100
307.800	-13.094	0.100
307.900	-36.021	0.100
308.000	-48.930	0.100
308.100	-52.000	0.100
308.200	-25.589	0.100
308.300	-31.410	0.100
308.400	-50.388	0.100
308.500	-17.941	0.100
308.600	-8.418	0.100
308.700	-42.074	0.100
308.800	-19.784	0.100
308.900	-37.044	0.100
309.000	-36.923	0.100
309.100	-33.514	0.100
309.200	-51.047	0.100
309.300	-55.754	0.100
309.400	-38.088	0.100
309.500	-56.993	0.100
309.600	-32.894	0.100
309.700	-45.483	0.100
309.800	-54.663	0.100
309.900	-57.115	0.100
310.000	-36.291	0.100
310.100	-22.071	0.100
310.200	-43.108	0.100
310.300	-32.837	0.100
310.400	-55.198	0.100
310.500	-62.612	0.100
310.600	-29.319	0.100
310.700	-20.672	0.100
310.800	-6.097	0.100
310.900	-39.818	0.100
311.000	-30.329	0.100
311.100	-28.777	0.100
311.200	-19.419	0.100
311.300	-34.749	0.100
311.400	-51.028	0.100
311.500	-47.310	0.100
311.600	-44.730	0.100
311.700	-57.767	0.100
311.800	-17.096	0.100
311.900	-23.468	0.100
312.000	-26.724	0.100
312.100	-32.509	0.100
312.200	-78.205	0.100
312.300	-29.712	0.100
312.400	-28.641	0.100
312.500	-38.737	0.100
312.600	-35.518	0.100
312.700	-35.706	0.100
312.800	-56.294	0.100
312.900	-41.998	0.100
313.000	-46.643	0.100
313.100	-68.737	0.100
313.200	-31.343	0.100
313.300	-40.193	0.100
313.400	-24.406	0.100
313.500	-28.968	0.100
313.600	-19.647	0.100
313.700	-60.880	0.100
313.800	-26.971	0.099
313.900	-36.397	0.100
314.000	-29.233	0.100
314.100	-27.888	0.100
314.200	-30.587	0.100
314.300	-20.948	0.100
314.400	-43.536	0.100
314.500	-29.000	0.100
314.600	-24.259	0.100
314.700	-48.395	0.100
314.800	-26.521	0.100
314.900	-55.972	0.100
315.000	-26.220	0.100
315.100	-9.734	0.100
315.200	-34.059	0.100
315.300	-13.130	0.100
315.400	-47.515	0.100
315.500	-53.344	0.100
315.600	-36.750	0.100
315.700	-63.113	0.100
315.800	-31.467	0.100
315.900	-38.754	0.100
316.000	-32.799	0.100
316.100	-36.218	0.100
316.200	-13.617	0.100
316.300	-31.270	0.100
316.400	-26.892	0.100
316.500	-41.959	0.100
316.600	-26.047	0.100
316.700	-33.036	0.100
316.800	-58.536	0.100
316.900	-28.936	0.100
317.000	-29.906	0.100
317.100	-41.338	0.100
317.200	-26.653	0.100
317.300	-36.963	0.100
317.400	-30.681	0.100
317.500	-44.532	0.100
317.600	-64.226	0.100
317.700	-34.284	0.100
317.800	-32.888	0.100
317.900	-10.746	0.100
318.000	-21.560	0.100
318.100	-25.759	0.100
318.200	-71.434	0.100
318.300	-57.889	0.100
318.400	-15.521	0.100
318.500	-28.112	0.100
318.600	-20.536	0.100
318.700	-63.434	0.100
318.800	-57.030	0.100
318.900	-25.298	0.100
319.000	-2.735	0.100
319.100	-33.006	0.100
319.200	-43.349	0.100
319.300	-12.814	0.100
319.400	-52.868	0.100
319.500	-42.293	0.100
319.600	-32.289	0.100
319.700	-51.267	0.100
319.800	-42.898	0.100
319.900	-38.417	0.100
320.000	-40.322	0.100
320.100	-12.233	0.100
320.200	-34.021	0.100
320.300	-22.602	0.100
320.400	-29.358	0.100
320.500	-51.080	0.100
320.600	-46.335	0.100
320.700	-19.015	0.100
320.800	-8.763	0.100
320.900	-29.009	0.100
321.000	-35.698	0.100
321.100	-17.073	0.100
321.200	-67.776	0.100
321.300	-41.160	0.100
321.400	-57.353	0.100
321.500	-48.498	0.100
321.600	-37.026	0.100
321.700	-40.683	0.100
321.800	-37.009	0.100
321.900	-34.035	0.100
322.000	-24.655	0.100
322.100	-16.285	0.100
322.200	-48.978	0.100
322.300	-38.918	0.100
322.400	-25.768	0.100
322.500	-32.434	0.100
322.600	-29.990	0.100
322.700	-46.923	0.100
322.800	-56.967	0.100
322.900	-17.333	0.100
323.000	-18.199	0.100
323.100	-28.386	0.100
323.200	-32.816	0.100
323.300	-15.147	0.100
323.400	-53.424	0.100
323.500	-26.119	0.100
323.600	-41.712	0.100
323.700	-44.633	0.100
323.800	-33.517	0.100
323.900	-43.229	0.100
324.000	-30.582	0.100
324.100	-17.210	0.100
324.200	-35.061	0.100
324.300	-28.401	0.100
324.400	-37.773	0.100
324.500	-23.217	0.100
324.600	-45.924	0.100
324.700	-22.903	0.100
324.800	-15.889	0.100
324.900	-38.803	0.100
325.000	-31.121	0.100
325.100	-34.141	0.100
325.200	-49.280	0.100
325.300	-48.529	0.100
325.400	-30.988	0.100
325.500	-21.321	0.100
325.600	-31.969	0.100
325.700	-62.969	0.100
325.800	-34.303	0.100
325.900	-37.353	0.100
326.000	-43.229	0.100
326.100	-29.036	0.100
326.200	-59.672	0.100
326.300	-21.154	0.100
326.400	-17.186	0.100
326.500	-30.863	0.100
326.600	-2.847	0.100
326.700	-34.229	0.100
326.800	-36.025	0.100
326.900	-37.653	0.100
327.000	-34.509	0.100
327.100	-18.548	0.100
327.200	-24.961	0.100
327.300	-41.482	0.100
327.400	-45.922	0.100
327.500	-22.404	0.100
327.600	-23.368	0.100
327.700	-41.081	0.100
327.800	-52.054	0.100
327.900	-27.938	0.100
328.000	-28.282	0.100
328.100	-59.534	0.100
328.200	-39.973	0.100
328.300	-27.383	0.100
328.400	-29.384	0.100
328.500	2.142	0.100
328.600	-12.689	0.100
328.700	-32.217	0.100
328.800	-20.952	0.100
328.900	-41.228	0.100
329.000	-27.315	0.100
329.100	-65.826	0.100
329.200	-38.819	0.100
329.300	-66.397	0.100
329.400	-30.781	0.100
329.500	-34.826	0.100
329.600	-44.790	0.100
329.700	-37.234	0.100
329.800	-28.354	0.100
329.900	-47.152	0.100
330.000	-34.467	0.100
330.100	-4.206	0.100
330.200	-16.907	0.100
330.300	-37.246	0.100
330.400	-54.870	0.100
330.500	-36.572	0.100
330.600	-41.091	0.100
330.700	-32.292	0.100
330.800	-21.210	0.100
330.900	-12.560	0.100
331.000	-9.064	0.100
331.100	-8.143	0.100
331.200	-26.202	0.100
331.300	-4.026	0.100
331.400	31.929	0.100
331.500	8.656	0.100
331.600	20.238	0.100
331.700	19.052	0.100
331.800	40.900	0.100
331.900	10.014	0.100
332.000	36.597	0.100
332.100	34.659	0.100
332.200	20.116	0.100
332.300	35.768	0.100
332.400	35.652	0.100
332.500	17.052	0.100
332.600	33.709	0.100
332.700	59.021	0.100
332.800	33.505	0.100
332.900	59.607	0.100
333.000	57.959	0.100
333.100	31.661	0.100
333.200	34.315	0.100
333.300	36.299	0.100
333.400	77.238	0.100
333.500	15.614	0.100
333.600	59.335	0.100
333.700	56.639	0.100
333.800	42.509	0.100
333.900	54.939	0.100
334.000	47.488	0.100
334.100	44.976	0.100
334.200	48.306	0.100
334.300	41.360	0.100
334.400	34.835	0.100
334.500	22.065	0.100
334.600	28.089	0.100
334.700	41.484	0.100
334.800	34.516	0.100
334.900	45.744	0.100
335.000	66.192	0.100
335.100	26.243	0.100
335.200	29.161	0.100
335.300	69.671	0.100
335.400	48.644	0.100
335.500	42.689	0.100
335.600	20.506	0.100
335.700	37.423	0.100
335.800	50.295	0.100
335.900	31.403	0.100
336.000	42.008	0.100
336.100	29.878	0.100
336.200	31.880	0.100
336.300	44.050	0.100
336.400	16.981	0.100
336.500	27.752	0.100
336.600	47.287	0.100
336.700	25.843	0.100
336.800	32.967	0.100
336.900	55.947	0.100
337.000	3.653	0.100
337.100	35.432	0.100
337.200	54.950	0.100
337.300	65.398	0.100
337.400	62.780	0.100
337.500	46.706	0.100
337.600	39.278	0.100
337.700	49.019	0.100
337.800	49.623	0.100
337.900	47.618	0.100
338.000	52.718	0.100
338.100	66.356	0.100
338.200	53.751	0.100
338.300	17.153	0.100
338.400	45.091	0.100
338.500	56.311	0.100
338.600	47.231	0.100
338.700	32.548	0.100
338.800	55.798	0.100
338.900	55.954	0.100
339.000	76.333	0.100
339.100	31.226	0.100
339.200	34.385	0.100
339.300	32.845	0.100
339.400	41.878	0.100
339.500	64.555	0.100
339.600	78.930	0.100
339.700	84.292	0.100
339.800	55.819	0.100
339.900	40.471	0.100
340.000	53.056	0.100
340.100	48.013	0.100
340.200	90.885	0.100
340.300	62.430	0.100
340.400	51.215	0.100
340.500	66.681	0.100
340.600	53.921	0.100
340.700	72.595	0.100
340.800	63.946	0.100
340.900	54.984	0.100
341.000	62.312	0.100
341.100	85.146	0.100
341.200	62.127	0.100
341.300	79.472	0.100
341.400	61.996	0.100
341.500	80.952	0.100
341.600	88.573	0.100
341.700	78.781	0.100
341.800	72.937	0.100
341.900	72.072	0.100
342.000	91.334	0.100
342.100	93.840	0.100
342.200	67.556	0.100
342.300	73.060	0.100
342.400	77.925	0.100
342.500	58.755	0.100
342.600	99.930	0.100
342.700	72.751	0.100
342.800	82.883	0.100
342.900	91.185	0.100
343.000	67.448	0.100
343.100	81.844	0.100
343.200	58.323	0.100
343.300	119.662	0.100
343.400	68.901	0.100
343.500	80.192	0.100
343.600	102.401	0.100
343.700	102.324	0.100
343.800	111.239	0.100
343.900	99.835	0.100
344.000	118.167	0.100
344.100	90.576	0.100
344.200	111.238	0.100
344.300	117.725	0.100
344.400	108.679	0.100
344.500	90.726	0.100
344.600	84.536	0.100
344.700	101.993	0.100
344.800	96.524	0.100
344.900	103.465	0.100
345.000	91.989	0.100
345.100	105.759	0.100
345.200	97.867	0.100
345.300	121.929	0.100
345.400	127.451	0.100
345.500	88.830	0.100
345.600	102.901	0.100
345.700	113.705	0.100
345.800	79.433	0.100
345.900	124.205	0.100
346.000	101.500	0.100
346.100	112.491	0.100
346.200	119.749	0.100
346.300	94.600	0.100
346.400	112.052	0.100
346.500	112.035	0.100
346.600	127.839	0.100
346.700	136.851	0.100
346.800	132.693	0.100
346.900	116.397	0.100
347.000	123.367	0.100
347.100	112.441	0.100
347.200	116.886	0.100
347.300	107.878	0.100
347.400	134.449	0.100
347.500	130.476	0.100
347.600	130.067	0.100
347.700	126.837	0.100
347.800	144.216	0.100
347.900	108.347	0.100
348.000	94.103	0.100
348.100	107.768	0.100
348.200	128.704	0.100
348.300	117.864	0.100
348.400	124.380	0.100
348.500	150.068	0.100
348.600	117.850	0.100
348.700	160.291	0.100
348.800	115.193	0.100
348.900	112.166	0.100
349.000	145.106	0.100
349.100	122.832	0.100
349.200	99.697	0.100
349.300	128.601	0.100
349.400	105.653	0.100
349.500	132.951	0.100
349.600	114.738	0.100
349.700	118.879	0.100
349.800	105.418	0.100
349.900	137.552	0.100
350.000	145.962	0.100
350.100	156.140	0.100
350.200	124.475	0.100
350.300	123.263	0.100
350.400	96.311	0.100
350.500	118.469	0.100
350.600	121.508	0.100
350.700	131.488	0.100
350.800	107.708	0.100
350.900	141.722	0.100
351.000	134.871	0.100
351.100	116.085	0.100
351.200	141.728	0.100
351.300	97.369	0.100
351.400	109.405	0.100
351.500	150.389	0.100
351.600	118.963	0.100
351.700	116.975	0.100
351.800	118.066	0.100
351.900	103.801	0.100
352.000	115.916	0.100
352.100	139.738	0.100
352.200	135.901	0.100
352.300	115.481	0.100
352.400	134.561	0.100
352.500	106.876	0.100
352.600	127.239	0.100
352.700	143.553	0.100
352.800	129.696	0.100
352.900	143.889	0.100
353.000	135.466	0.100
353.100	95.445	0.100
353.200	75.416	0.100
353.300	126.846	0.100
353.400	132.624	0.100
353.500	151.334	0.100
353.600	87.733	0.100
353.700	138.180	0.100
353.800	125.263	0.100
353.900	103.653	0.100
354.000	111.726	0.100
354.100	120.474	0.100
354.200	111.422	0.100
354.300	124.226	0.100
354.400	122.186	0.100
354.500	127.049	0.100
354.600	128.526	0.100
354.700	134.685	0.100
354.800	147.215	0.100
354.900	134.941	0.100
355.000	125.709	0.100
355.100	107.702	0.100
355.200	127.500	0.100
355.300	116.606	0.100
355.400	104.948	0.100
355.500	126.478	0.100
355.600	140.073	0.100
355.700	131.846	0.100
355.800	134.872	0.100
355.900	102.775	0.100
356.000	140.045	0.100
356.100	129.333	0.100
356.200	126.049	0.100
356.300	133.794	0.100
356.400	110.767	0.100
356.500	91.983	0.100
356.600	106.261	0.100
356.700	109.160	0.100
356.800	114.031	0.100
356.900	107.054	0.100
357.000	123.028	0.100
357.100	119.097	0.100
357.200	131.749	0.100
357.300	104.708	0.100
357.400	107.052	0.100
357.500	98.982	0.100
357.600	118.268	0.100
357.700	112.443	0.100
357.800	108.692	0.100
357.900	118.779	0.100
358.000	103.781	0.100
358.100	112.265	0.100
358.200	114.859	0.100
358.300	119.378	0.100
358.400	103.048	0.100
358.500	125.992	0.100
358.600	114.988	0.100
358.700	100.405	0.100
358.800	102.045	0.100
358.900	131.841	0.100
359.000	111.794	0.100
359.100	115.094	0.100
359.200	108.697	0.100
359.300	114.793	0.100
359.400	73.889	0.100
359.500	104.801	0.100
359.600	100.965	0.100
359.700	133.631	0.100
359.800	116.652	0.100
359.900	111.935	0.100
360.000	116.428	0.100
360.100	139.809	0.100
360.200	118.219	0.100
360.300	113.819	0.100
360.400	110.253	0.100
360.500	110.376	0.100
360.600	143.110	0.100
360.700	85.866	0.100
360.800	112.147	0.100
360.900	102.697	0.100
361.000	110.681	0.100
361.100	120.503	0.100
361.200	112.011	0.100
361.300	125.542	0.100
361.400	91.555	0.100
361.500	122.587	0.100
361.600	118.669	0.100
361.700	101.798	0.100
361.800	111.841	0.100
361.900	134.758	0.100
362.000	93.172	0.100
362.100	109.696	0.100
362.200	103.969	0.100
362.300	110.218	0.100
362.400	122.872	0.100
362.500	115.539	0.100
362.600	104.137	0.100
362.700	112.399	0.100
362.800	120.950	0.100
362.900	108.244	0.100
363.000	87.335	0.100
363.100	92.795	0.100
363.200	121.177	0.100
363.300	103.571	0.100
363.400	111.354	0.100
363.500	94.030	0.100
363.600	98.257	0.100
363.700	118.800	0.100
363.800	122.976	0.100
363.900	120.105	0.100
364.000	110.850	0.100
364.100	118.559	0.100
364.200	104.732	0.100
364.300	105.588	0.100
364.400	95.569	0.100
364.500	98.592	0.100
364.600	131.136	0.100
364.700	107.946	0.100
364.800	94.688	0.100
364.900	138.242	0.100
365.000	126.432	0.100
365.100	107.911	0.100
365.200	91.288	0.100
365.300	110.888	0.100
365.400	86.778	0.100
365.500	103.707	0.100
365.600	106.205	0.100
365.700	113.423	0.100
365.800	112.846	0.100
365.900	93.766	0.100
366.000	92.981	0.100
366.100	133.915	0.100
366.200	104.323	0.100
366.300	104.425	0.100
366.400	131.061	0.100
366.500	81.860	0.100
366.600	106.147	0.099
366.700	96.068	0.100
366.800	115.239	0.100
366.900	127.115	0.100
367.000	117.522	0.100
367.100	126.457	0.100
367.200	98.656	0.100
367.300	102.195	0.100
367.400	89.482	0.100
367.500	100.757	0.100
367.600	120.688	0.100
367.700	102.835	0.100
367.800	110.591	0.100
367.900	110.746	0.100
368.000	94.932	0.100
368.100	108.689	0.100
368.200	81.008	0.100
368.300	106.794	0.100
368.400	98.056	0.100
368.500	100.612	0.100
368.600	98.559	0.100
368.700	103.950	0.100
368.800	132.859	0.100
368.900	127.851	0.100
369.000	99.468	0.100
369.100	80.848	0.100
369.200	108.620	0.099
369.300	88.847	0.100
369.400	107.083	0.100
369.500	112.425	0.100
369.600	110.174	0.100
369.700	89.327	0.100
369.800	104.447	0.100
369.900	98.736	0.100
370.000	107.953	0.100
370.100	104.417	0.100
370.200	113.281	0.100
370.300	111.353	0.100
370.400	117.380	0.100
370.500	104.591	0.100
370.600	90.297	0.100
370.700	116.693	0.100
370.800	108.964	0.100
370.900	102.561	0.100
371.000	83.516	0.099
371.100	117.460	0.100
371.200	120.849	0.100
371.300	99.256	0.100
371.400	116.676	0.100
371.500	118.426	0.100
371.600	89.796	0.100
371.700	114.488	0.100
371.800	105.150	0.100
371.900	100.059	0.100
372.000	99.586	0.100
372.100	94.690	0.100
372.200	91.571	0.100
372.300	99.760	0.099
372.400	92.475	0.100
372.500	98.069	0.100
372.600	107.605	0.100
372.700	98.536	0.100
372.800	112.462	0.100
372.900	105.181	0.100
373.000	93.207	0.100
373.100	77.994	0.100
373.200	138.513	0.100
373.300	120.556	0.100
373.400	108.280	0.100
373.500	99.835	0.100
373.600	77.189	0.100
373.700	101.856	0.100
373.800	121.605	0.100
373.900	102.801	0.100
374.000	104.833	0.100
374.100	104.681	0.100
374.200	94.448	0.100
374.300	105.881	0.100
374.400	104.508	0.100
374.500	101.086	0.100
374.600	98.245	0.100
374.700	112.471	0.100
374.800	94.285	0.100
374.900	97.291	0.100
375.000	97.808	0.100
375.100	83.998	0.100
375.200	114.259	0.100
375.300	73.442	0.100
375.400	99.427	0.100
375.500	116.676	0.100
375.600	95.238	0.100
375.700	109.428	0.100
375.800	124.258	0.100
375.900	112.850	0.100
376.000	100.669	0.100
376.100	82.661	0.100
376.200	99.406	0.100
376.300	103.773	0.100
376.400	100.160	0.100
376.500	100.241	0.100
376.600	102.908	0.100
376.700	100.800	0.100
376.800	96.510	0.100
376.900	106.986	0.100
377.000	112.173	0.100
377.100	81.985	0.100
377.200	122.284	0.100
377.300	78.283	0.100
377.400	107.201	0.100
377.500	116.553	0.100
377.600	87.219	0.100
377.700	86.397	0.100
377.800	114.508	0.100
377.900	87.962	0.100
378.000	79.614	0.100
378.100	99.264	0.100
378.200	106.227	0.100
378.300	86.245	0.100
378.400	113.869	0.100
378.500	122.141	0.100
378.600	123.830	0.100
378.700	115.960	0.100
378.800	98.650	0.100
378.900	103.768	0.100
379.000	104.354	0.100
379.100	118.922	0.100
379.200	86.066	0.100
379.300	91.852	0.100
379.400	114.927	0.100
379.500	112.807	0.100
379.600	61.891	0.100
379.700	105.878	0.100
379.800	98.556	0.100
379.900	105.532	0.100
380.000	104.758	0.100
380.100	100.875	0.100
380.200	106.118	0.100
380.300	103.826	0.100
380.400	114.292	0.100
380.500	111.874	0.100
380.600	89.550	0.100
380.700	77.550	0.100
380.800	122.973	0.100
380.900	88.253	0.100
381.000	73.523	0.100
381.100	80.210	0.100
381.200	105.719	0.100
381.300	114.491	0.100
381.400	109.095	0.100
381.500	83.042	0.100
381.600	93.109	0.100
381.700	99.364	0.100
381.800	95.142	0.100
381.900	135.534	0.099
382.000	106.629	0.100
382.100	95.518	0.100
382.200	103.409	0.100
382.300	77.796	0.100
382.400	94.805	0.100
382.500	122.871	0.100
382.600	69.210	0.100
382.700	89.241	0.100
382.800	104.316	0.100
382.900	91.663	0.100
383.000	97.332	0.100
383.100	125.567	0.100
383.200	108.269	0.100
383.300	100.857	0.100
383.400	87.126	0.100
383.500	96.787	0.100
383.600	99.353	0.100
383.700	97.959	0.100
383.800	89.265	0.100
383.900	101.378	0.100
384.000	109.092	0.100
384.100	112.836	0.100
384.200	98.632	0.100
384.300	84.373	0.100
384.400	124.113	0.100
384.500	112.518	0.099
384.600	93.863	0.100
384.700	108.909	0.100
384.800	85.749	0.099
384.900	115.314	0.100
385.000	106.915	0.100
385.100	112.466	0.100
385.200	89.394	0.100
385.300	96.888	0.100
385.400	113.275	0.100
385.500	95.452	0.100
385.600	96.222	0.100
385.700	93.945	0.100
385.800	100.888	0.100
385.900	87.708	0.100
386.000	98.709	0.100
386.100	118.644	0.100
386.200	113.174	0.100
386.300	113.794	0.100
386.400	95.654	0.100
386.500	89.508	0.100
386.600	98.454	0.100
386.700	101.185	0.100
386.800	122.765	0.100
386.900	107.091	0.100
387.000	82.034	0.100
387.100	93.026	0.100
387.200	116.354	0.100
387.300	96.726	0.100
387.400	90.322	0.099
387.500	119.561	0.100
387.600	111.824	0.100
387.700	71.635	0.100
387.800	103.812	0.100
387.900	94.630	0.100
388.000	107.720	0.100
388.100	115.317	0.100
388.200	84.029	0.100
388.300	100.294	0.100
388.400	72.853	0.100
388.500	107.605	0.100
388.600	111.128	0.100
388.700	97.896	0.100
388.800	87.797	0.100
388.900	105.007	0.100
389.000	114.360	0.100
389.100	80.037	0.100
389.200	113.119	0.100
389.300	98.940	0.100
389.400	81.914	0.100
389.500	93.905	0.100
389.600	114.193	0.100
389.700	88.102	0.100
389.800	80.531	0.100
389.900	100.825	0.100
390.000	82.009	0.100
390.100	130.949	0.100
390.200	111.748	0.100
390.300	97.087	0.100
390.400	104.575	0.100
390.500	106.563	0.100
390.600	88.002	0.100
390.700	93.538	0.100
390.800	67.931	0.100
390.900	65.286	0.100
391.000	56.554	0.100
391.100	70.901	0.100
391.200	88.748	0.100
391.300	75.450	0.100
391.400	73.591	0.100
391.500	65.905	0.100
391.600	74.808	0.100
391.700	43.343	0.100
391.800	44.027	0.100
391.900	38.136	0.100
392.000	37.773	0.100
392.100	47.192	0.099
392.200	15.986	0.100
392.300	28.316	0.100
392.400	30.128	0.100
392.500	29.627	0.100
392.600	14.535	0.100
392.700	-13.054	0.100
392.800	-7.039	0.100
392.900	-28.613	0.100
393.000	39.976	0.100
393.100	8.224	0.100
393.200	-9.446	0.100
393.300	-22.516	0.100
393.400	-16.377	0.100
393.500	-7.861	0.100
393.600	-12.427	0.100
393.700	-9.184	0.100
393.800	-23.039	0.100
393.900	-23.538	0.100
394.000	-12.580	0.100
394.100	-20.571	0.100
394.200	-24.342	0.100
394.300	-40.672	0.100
394.400	-26.182	0.100
394.500	-41.268	0.100
394.600	-31.962	0.100
394.700	-15.838	0.100
394.800	-50.964	0.100
394.900	-25.062	0.100
395.000	-24.329	0.100
395.100	-22.517	0.100
395.200	-36.297	0.100
395.300	-36.642	0.100
395.400	-57.982	0.100
395.500	-31.761	0.100
395.600	-53.305	0.100
395.700	-19.591	0.100
395.800	-40.027	0.100
395.900	-39.816	0.100
396.000	-30.566	0.100
396.100	-11.305	0.100
396.200	-45.491	0.100
396.300	-45.019	0.100
396.400	-44.145	0.100
396.500	-29.854	0.100
396.600	-19.595	0.100
396.700	-23.001	0.100
396.800	-47.709	0.100
396.900	-37.502	0.100
397.000	-49.746	0.100
397.100	-15.875	0.100
397.200	-14.739	0.100
397.300	-17.259	0.100
397.400	-46.121	0.100
397.500	-23.743	0.100
397.600	-26.583	0.100
397.700	-17.795	0.100
397.800	-14.137	0.100
397.900	-38.140	0.100
398.000	-18.431	0.100
398.100	-43.517	0.100
398.200	-21.671	0.100
398.300	-36.248	0.100
398.400	-21.824	0.100
398.500	-3.805	0.100
398.600	-47.333	0.100
398.700	-10.373	0.100
398.800	-36.559	0.100
398.900	-22.771	0.100
399.000	-1.377	0.100
399.100	-4.644	0.100
399.200	-34.284	0.100
399.300	-3.436	0.100
399.400	-19.889	0.100
399.500	-25.587	0.100
399.600	-24.901	0.100
399.700	-25.006	0.100
399.800	-17.223	0.100
399.900	-21.639	0.100
400.000	-14.987	0.100
400.100	-33.320	0.100
400.200	-3.571	0.100
400.300	-29.784	0.100
400.400	5.317	0.100
400.500	-42.544	0.100
400.600	0.085	0.100
400.700	-11.451	0.100
400.800	-42.839	0.100
400.900	-44.366	0.100
401.000	-7.658	0.100
401.100	-7.559	0.100
401.200	-12.348	0.100
401.300	-19.220	0.100
401.400	-30.904	0.100
401.500	-27.162	0.100
401.600	-36.658	0.100
401.700	-20.075	0.100
401.800	-28.698	0.100
401.900	-13.440	0.100
402.000	-31.650	0.100
402.100	6.838	0.100
402.200	-30.447	0.100
402.300	-0.314	0.100
402.400	-32.708	0.100
402.500	-19.634	0.100
402.600	-22.879	0.100
402.700	0.528	0.100
402.800	-31.887	0.100
402.900	-0.545	0.100
403.000	-17.778	0.100
403.100	-22.559	0.100
403.200	2.311	0.100
403.300	-14.657	0.100
403.400	-17.109	0.100
403.500	-27.478	0.100
403.600	-20.087	0.100
403.700	-30.122	0.100
403.800	-16.278	0.100
403.900	-11.510	0.100
404.000	-28.382	0.100
404.100	-18.866	0.100
404.200	-21.312	0.100
404.300	-25.795	0.100
404.400	-23.968	0.100
404.500	7.563	0.100
404.600	-20.214	0.100
404.700	3.811	0.100
404.800	-33.084	0.100
404.900	-17.712	0.100
405.000	-24.241	0.100
405.100	-9.918	0.100
405.200	-17.473	0.100
405.300	-28.068	0.100
405.400	-6.932	0.100
405.500	-19.529	0.100
405.600	-25.285	0.100
405.700	-5.133	0.100
405.800	-3.913	0.100
405.900	-21.231	0.100
406.000	-65.084	0.100
406.100	-25.526	0.100
406.200	-26.556	0.100
406.300	-7.660	0.100
406.400	-31.112	0.100
406.500	-46.916	0.099
406.600	-26.864	0.100
406.700	-3.089	0.100
406.800	-26.195	0.099
406.900	-14.741	0.100
407.000	-12.203	0.100
407.100	-24.965	0.100
407.200	-10.378	0.100
407.300	-31.854	0.100
407.400	-24.912	0.100
407.500	-24.508	0.100
407.600	8.199	0.100
407.700	-29.691	0.100
407.800	-18.772	0.100
407.900	-23.531	0.100
408.000	-40.824	0.100
408.100	-30.162	0.100
408.200	-31.999	0.100
408.300	-3.822	0.100
408.400	-28.759	0.100
408.500	-35.708	0.100
408.600	-47.979	0.100
408.700	-27.071	0.100
408.800	-31.174	0.100
408.900	-37.273	0.100
409.000	-30.802	0.100
409.100	-17.609	0.100
409.200	-36.037	0.100
409.300	-9.266	0.100
409.400	-37.956	0.100
409.500	-46.492	0.100
409.600	-49.512	0.100
409.700	-25.923	0.100
409.800	-40.342	0.100
409.900	-32.991	0.100
410.000	-32.010	0.100
410.100	-41.155	0.100
410.200	-27.068	0.100
410.300	-24.306	0.100
410.400	-47.719	0.100
410.500	-23.796	0.100
410.600	-2.029	0.100
410.700	-38.274	0.100
410.800	-25.160	0.100
410.900	-17.361	0.100
411.000	-37.508	0.100
411.100	-34.333	0.100
411.200	-60.636	0.100
411.300	-24.268	0.100
411.400	-26.848	0.100
411.500	-15.330	0.100
411.600	-28.919	0.100
411.700	-24.850	0.100
411.800	-42.408	0.100
411.900	-45.010	0.100
412.000	-38.131	0.100
412.100	-44.911	0.100
412.200	-8.134	0.100
412.300	-26.114	0.100
412.400	-25.274	0.100
412.500	-29.486	0.099
412.600	-62.117	0.100
412.700	-36.731	0.100
412.800	-35.601	0.099
412.900	-19.219	0.100
413.000	-60.589	0.100
413.100	-37.122	0.099
413.200	-32.033	0.100
413.300	-53.781	0.100
413.400	-49.975	0.100
413.500	-48.953	0.100
413.600	-50.495	0.100
413.700	-53.739	0.099
413.800	-21.989	0.099
413.900	-38.568	0.100
414.000	-37.917	0.100
414.100	-24.914	0.100
414.200	-38.287	0.100
414.300	-39.644	0.100
414.400	-34.189	0.100
414.500	-25.743	0.100
414.600	-41.786	0.099
414.700	-40.203	0.100
414.800	-63.105	0.100
414.900	-55.389	0.099
415.000	-17.431	0.100
415.100	-25.649	0.100
415.200	-24.537	0.100
415.300	-33.263	0.100
415.400	-27.762	0.100
415.500	-28.600	0.100
415.600	-28.739	0.100
415.700	-35.722	0.100
415.800	-22.464	0.100
415.900	-36.878	0.100
416.000	-45.209	0.100
416.100	-60.288	0.099
416.200	-66.749	0.100
416.300	-57.188	0.100
416.400	-10.556	0.100
416.500	-18.342	0.100
416.600	-52.089	0.100
416.700	-77.395	0.100
416.800	-42.855	0.100
416.900	-46.856	0.100
417.000	-70.876	0.099
417.100	-29.398	0.100
417.200	-38.819	0.100
417.300	-17.843	0.100
417.400	-35.414	0.100
417.500	-52.587	0.100
417.600	-27.811	0.099
417.700	-35.648	0.100
417.800	-36.063	0.100
417.900	-34.503	0.100
418.000	-39.193	0.100
418.100	-70.467	0.100
418.200	-54.050	0.100
418.300	-29.744	0.100
418.400	-63.412	0.100
418.500	-51.265	0.100
418.600	-75.466	0.100
418.700	-30.834	0.100
418.800	-35.135	0.100
418.900	-44.591	0.100
419.000	-46.818	0.100
419.100	-34.155	0.100
419.200	-23.282	0.100
419.300	-48.175	0.100
419.400	-57.899	0.099
419.500	-58.745	0.100
419.600	-42.289	0.100
419.700	-54.866	0.100
419.800	-57.566	0.100
419.900	-28.461	0.100
420.000	-20.036	0.100
420.100	-35.244	0.100
420.200	-42.850	0.100
420.300	-55.245	0.100
420.400	-53.678	0.100
420.500	-59.840	0.100
420.600	-60.464	0.100
420.700	-30.461	0.100
420.800	-38.410	0.100
420.900	-45.825	0.100
421.000	-62.221	0.100
421.100	-56.094	0.100
421.200	-44.101	0.100
421.300	-36.164	0.100
421.400	-53.699	0.100
421.500	-33.714	0.100
421.600	-44.268	0.099
421.700	-65.337	0.100
421.800	-51.307	0.100
421.900	-39.768	0.100
422.000	-40.078	0.100
422.100	-43.156	0.100
422.200	-68.414	0.100
422.300	-63.677	0.100
422.400	-50.668	0.100
422.500	-30.469	0.100
422.600	-20.663	0.100
422.700	-37.872	0.100
422.800	-51.142	0.100
422.900	-49.204	0.100
423.000	-58.107	0.100
423.100	-57.867	0.100
423.200	-44.441	0.100
423.300	-37.679	0.100
423.400	-59.092	0.099
423.500	-62.910	0.100
423.600	-53.313	0.100
423.700	-56.767	0.100
423.800	-60.460	0.100
423.900	-58.022	0.100
424.000	-57.659	0.099
424.100	-46.045	0.100
424.200	-43.841	0.100
424.300	-43.266	0.100
424.400	-47.765	0.100
424.500	-68.223	0.100
424.600	-40.563	0.100
424.700	-48.990	0.100
424.800	-49.364	0.100
424.900	-38.557	0.100
425.000	-30.116	0.100
425.100	-53.194	0.100
425.200	-58.200	0.099
425.300	-60.414	0.100
425.400	-41.374	0.100
425.500	-30.146	0.100
425.600	-22.466	0.100
425.700	-54.698	0.100
425.800	-47.997	0.100
425.900	-64.969	0.100
426.000	-80.683	0.100
426.100	-30.800	0.100
426.200	-25.240	0.100
426.300	-54.869	0.100
426.400	-64.860	0.100
426.500	-51.632	0.100
426.600	-76.648	0.100
426.700	-43.921	0.100
426.800	-51.228	0.100
426.900	-67.667	0.100
427.000	-54.440	0.100
427.100	-31.564	0.100
427.200	-40.707	0.100
427.300	-38.256	0.100
427.400	-40.273	0.100
427.500	-55.346	0.100
427.600	-28.899	0.100
427.700	-52.839	0.100
427.800	-61.069	0.100
427.900	-55.058	0.100
428.000	-61.129	0.100
428.100	-58.150	0.100
428.200	-32.438	0.100
428.300	-27.803	0.100
428.400	-47.088	0.100
428.500	-58.072	0.100
428.600	-64.108	0.100
428.700	-58.374	0.100
428.800	-39.047	0.100
428.900	-63.141	0.100
429.000	-28.156	0.100
429.100	-66.093	0.100
429.200	-79.546	0.100
429.300	-25.374	0.100
429.400	-38.125	0.100
429.500	-41.876	0.100
429.600	-28.681	0.100
429.700	-56.857	0.100
429.800	-60.258	0.099
429.900	-53.078	0.100
430.000	-49.783	0.100
430.100	-57.249	0.100
430.200	-44.487	0.100
430.300	-77.566	0.100
430.400	-42.252	0.100
430.500	-19.907	0.100
430.600	-45.665	0.100
430.700	-41.368	0.100
430.800	-64.410	0.100
430.900	-60.542	0.100
431.000	-79.599	0.100
431.100	-21.093	0.100
431.200	-53.659	0.100
431.300	-59.692	0.100
431.400	-53.900	0.100
431.500	-59.918	0.100
431.600	-46.422	0.099
431.700	-41.562	0.100
431.800	-46.151	0.100
431.900	-26.647	0.100
432.000	-46.458	0.100
432.100	-36.371	0.100
432.200	-41.389	0.100
432.300	-50.676	0.099
432.400	-68.610	0.100
432.500	-56.769	0.100
432.600	-24.767	0.100
432.700	-19.863	0.100
432.800	-31.547	0.100
432.900	-46.759	0.100
433.000	-58.550	0.100
433.100	-55.758	0.100
433.200	-71.397	0.100
433.300	-65.217	0.099
433.400	-34.617	0.100
433.500	-38.629	0.100
433.600	-24.861	0.100
433.700	-55.360	0.100
433.800	-70.706	0.100
433.900	-33.076	0.100
434.000	-40.554	0.100
434.100	-25.152	0.100
434.200	-45.225	0.100
434.300	-39.529	0.100
434.400	-51.549	0.100
434.500	-44.942	0.100
434.600	-37.390	0.100
434.700	-64.976	0.100
434.800	-30.732	0.100
434.900	-63.769	0.100
435.000	-62.159	0.100
435.100	-31.290	0.100
435.200	-33.492	0.100
435.300	-59.342	0.099
435.400	-54.045	0.100
435.500	-56.205	0.100
435.600	-68.468	0.100
435.700	-44.023	0.100
435.800	-33.370	0.100
435.900	-45.519	0.100
436.000	-33.389	0.100
436.100	-22.623	0.100
436.200	-55.851	0.100
436.300	-39.334	0.100
436.400	-50.138	0.100
436.500	-63.161	0.100
436.600	-46.538	0.100
436.700	-54.943	0.100
436.800	-56.530	0.100
436.900	-47.602	0.100
437.000	-51.469	0.100
437.100	-33.714	0.100
437.200	-45.659	0.100
437.300	-45.089	0.100
437.400	-56.971	0.100
437.500	-55.213	0.100
437.600	-61.502	0.100
437.700	-26.574	0.100
437.800	-54.697	0.100
437.900	-52.567	0.100
438.000	-39.931	0.100
438.100	-42.173	0.100
438.200	-55.676	0.100
438.300	-50.802	0.100
438.400	-32.643	0.100
438.500	-58.510	0.100
438.600	-34.552	0.100
438.700	-49.928	0.099
438.800	-55.073	0.100
438.900	-50.561	0.100
439.000	-19.014	0.100
439.100	-58.846	0.100
439.200	-48.214	0.100
439.300	-51.906	0.100
439.400	-38.135	0.100
439.500	-5.952	0.100
439.600	-56.874	0.100
439.700	-55.628	0.100
439.800	-40.819	0.100
439.900	-35.250	0.100
440.000	-63.024	0.100
440.100	-81.191	0.100
440.200	-30.616	0.100
440.300	-16.163	0.100
440.400	-43.843	0.100
440.500	-54.139	0.099
440.600	-59.001	0.100
440.700	-40.508	0.100
440.800	-35.166	0.100
440.900	-41.847	0.100
441.000	-85.746	0.100
441.100	-73.172	0.100
441.200	-30.099	0.100
441.300	-45.890	0.100
441.400	-49.962	0.100
441.500	-44.633	0.100
441.600	-35.026	0.100
441.700	-34.225	0.100
441.800	-50.991	0.100
441.900	-49.437	0.100
442.000	-45.619	0.100
442.100	-54.531	0.099
442.200	-25.411	0.100
442.300	-29.924	0.100
442.400	-31.971	0.100
442.500	-72.519	0.100
442.600	-29.164	0.100
442.700	-42.412	0.100
442.800	-24.148	0.100
442.900	-49.118	0.100
443.000	-55.611	0.100
443.100	-67.893	0.100
443.200	-44.130	0.100
443.300	-41.520	0.100
443.400	-30.916	0.099
443.500	-91.454	0.100
443.600	-44.220	0.100
443.700	-12.700	0.100
443.800	-44.671	0.100
443.900	-64.487	0.100
444.000	-45.085	0.100
444.100	-36.636	0.100
444.200	-57.474	0.100
444.300	-47.873	0.100
444.400	-58.225	0.100
444.500	-22.967	0.100
444.600	-62.372	0.100
444.700	-42.051	0.100
444.800	-37.186	0.100
444.900	-57.206	0.100
445.000	-32.175	0.100
445.100	-34.328	0.100
445.200	-51.970	0.100
445.300	-34.230	0.100
445.400	-34.064	0.100
445.500	-35.073	0.100
445.600	-35.990	0.100
445.700	-49.063	0.100
445.800	-37.457	0.099
445.900	-37.348	0.100
446.000	-49.748	0.100
446.100	-48.422	0.099
446.200	-70.323	0.100
446.300	-44.361	0.100
446.400	-48.817	0.100
446.500	-17.994	0.100
446.600	-6.431	0.100
446.700	-36.823	0.100
446.800	-42.494	0.100
446.900	-52.243	0.100
447.000	-42.957	0.100
447.100	-43.013	0.100
447.200	-51.335	0.100
447.300	-49.212	0.100
447.400	-56.011	0.100
447.500	-53.515	0.100
447.600	-50.742	0.100
447.700	-40.077	0.099
447.800	-48.715	0.100
447.900	-37.919	0.100
448.000	-19.616	0.100
448.100	-36.709	0.100
448.200	-58.866	0.100
448.300	-61.761	0.099
448.400	-31.166	0.100
448.500	-71.162	0.100
448.600	-37.910	0.100
448.700	-53.049	0.099
448.800	-38.137	0.100
448.900	-13.017	0.100
449.000	-34.856	0.099
449.100	-51.464	0.100
449.200	-54.089	0.100
449.300	-44.313	0.100
449.400	-48.544	0.099
449.500	-40.658	0.100
449.600	-58.457	0.100
449.700	-57.681	0.100
449.800	-79.446	0.100
449.900	-38.029	0.099
450.000	-19.892	0.100
450.100	-11.673	0.100
450.200	-16.234	0.100
450.300	-43.104	0.100
450.400	-67.133	0.100
450.500	-23.404	0.099
450.600	-39.114	0.100
450.700	-18.983	0.100
450.800	-22.777	0.100
450.900	-57.605	0.100
451.000	-70.541	0.100
451.100	-39.012	0.100
451.200	-40.309	0.100
451.300	-63.160	0.100
451.400	-54.578	0.100
451.500	-33.310	0.100
451.600	-44.843	0.100
451.700	-41.791	0.100
451.800	-33.996	0.099
451.900	-56.752	0.100
452.000	-48.647	0.100
452.100	-27.279	0.100
452.200	-32.005	0.100
452.300	-58.956	0.100
452.400	-61.944	0.099
452.500	-43.072	0.100
452.600	-24.610	0.100
452.700	-44.271	0.100
452.800	-22.145	0.100
452.900	-24.932	0.100
453.000	-46.355	0.099
453.100	-73.953	0.100
453.200	-16.397	0.100
453.300	-38.817	0.100
453.400	-45.807	0.099
453.500	-37.900	0.100
453.600	-35.202	0.100
453.700	-41.720	0.099
453.800	-51.393	0.100
453.900	-51.126	0.100
454.000	-46.558	0.099
454.100	-8.042	0.100
454.200	-40.632	0.100
454.300	-41.307	0.100
454.400	-40.876	0.100
454.500	-46.434	0.100
454.600	-70.655	0.100
454.700	-40.844	0.100
454.800	-47.053	0.100
454.900	-46.940	0.100
455.000	-25.515	0.100
455.100	-23.242	0.100
455.200	-42.545	0.100
455.300	-53.414	0.100
455.400	-45.520	0.100
455.500	-36.449	0.100
455.600	-44.926	0.100
455.700	-33.825	0.100
455.800	-34.039	0.100
455.900	-52.360	0.100
456.000	-50.200	0.100
456.100	-42.804	0.100
456.200	-31.228	0.100
456.300	-3.507	0.100
456.400	-12.399	0.100
456.500	-50.205	0.100
456.600	-33.098	0.100
456.700	-40.473	0.100
456.800	-63.973	0.099
456.900	-57.511	0.100
457.000	-43.382	0.100
457.100	-43.717	0.100
457.200	-25.108	0.100
457.300	-31.819	0.100
457.400	-38.143	0.100
457.500	-83.699	0.100
457.600	-37.812	0.100
457.700	-12.447	0.100
457.800	-40.825	0.100
457.900	-27.489	0.100
458.000	-71.122	0.100
458.100	-33.470	0.100
458.200	-21.402	0.100
458.300	-44.991	0.100
458.400	-29.968	0.100
458.500	-48.618	0.100
458.600	-64.287	0.100
458.700	-55.206	0.100
458.800	-43.537	0.100
458.900	-38.778	0.100
459.000	-15.101	0.100
459.100	-8.053	0.100
459.200	-41.170	0.100
459.300	-48.750	0.100
459.400	-54.069	0.100
459.500	-25.626	0.100
459.600	-20.746	0.100
459.700	-37.401	0.100
459.800	-55.256	0.100
459.900	-41.959	0.100
460.000	-36.034	0.100
460.100	-39.400	0.100
460.200	-21.219	0.100
460.300	-50.933	0.100
460.400	-61.993	0.100
460.500	-46.892	0.100
460.600	-37.639	0.100
460.700	-38.431	0.100
460.800	-63.208	0.100
460.900	-27.964	0.100
461.000	-34.593	0.100
461.100	-52.220	0.100
461.200	-17.709	0.100
461.300	-41.266	0.100
461.400	-49.775	0.100
461.500	-37.004	0.100
461.600	-54.510	0.100
461.700	-24.721	0.100
461.800	-15.486	0.100
461.900	-30.711	0.100
462.000	-50.678	0.100
462.100	-39.138	0.100
462.200	-34.995	0.100
462.300	-68.097	0.100
462.400	-43.575	0.100
462.500	-24.056	0.100
462.600	-26.183	0.100
462.700	-20.597	0.100
462.800	-55.448	0.100
462.900	-36.498	0.100
463.000	-30.566	0.100
463.100	-44.018	0.100
463.200	-56.111	0.100
463.300	-21.210	0.100
463.400	-44.338	0.100
463.500	-42.879	0.100
463.600	-50.589	0.100
463.700	-40.820	0.100
463.800	-28.014	0.100
463.900	-24.381	0.100
464.000	-55.599	0.100
464.100	-46.343	0.100
464.200	-28.481	0.100
464.300	-28.587	0.100
464.400	-34.246	0.100
464.500	-17.548	0.100
464.600	-37.822	0.100
464.700	-24.657	0.100
464.800	-52.688	0.100
464.900	-71.622	0.100
465.000	-15.115	0.100
465.100	-60.193	0.100
465.200	-38.366	0.100
465.300	-15.010	0.100
465.400	-22.904	0.100
465.500	-36.315	0.100
465.600	-47.372	0.099
465.700	-49.041	0.100
465.800	-44.631	0.100
465.900	-25.449	0.100
466.000	-31.519	0.100
466.100	-38.149	0.100
466.200	-19.178	0.100
466.300	-38.112	0.100
466.400	-22.599	0.100
466.500	-53.765	0.100
466.600	-66.884	0.100
466.700	-27.960	0.100
466.800	-42.263	0.100
466.900	-59.243	0.100
467.000	-41.522	0.100
467.100	-19.390	0.099
467.200	-24.497	0.100
467.300	-35.389	0.100
467.400	-54.114	0.100
467.500	-27.632	0.100
467.600	-21.203	0.100
467.700	-30.055	0.100
467.800	-50.455	0.100
467.900	-26.587	0.100
468.000	-26.210	0.100
468.100	-68.648	0.100
468.200	-53.683	0.100
468.300	-21.882	0.100
468.400	-51.185	0.099
468.500	-26.208	0.100
468.600	-10.546	0.100
468.700	-27.811	0.100
468.800	-41.918	0.099
468.900	-34.818	0.100
469.000	-45.899	0.100
469.100	-57.263	0.100
469.200	-44.469	0.100
469.300	-71.938	0.100
469.400	-14.377	0.100
469.500	-35.241	0.100
469.600	-31.661	0.100
469.700	-21.878	0.100
469.800	-38.966	0.100
469.900	-38.145	0.100
470.000	-67.180	0.099
470.100	-45.715	0.100
470.200	-11.428	0.100
470.300	-51.050	0.100
470.400	-36.278	0.100
470.500	-42.303	0.100
470.600	-40.575	0.099
470.700	-27.462	0.100
470.800	-33.487	0.100
470.900	-41.801	0.100
471.000	-54.690	0.100
471.100	-22.196	0.100
471.200	-65.585	0.099
471.300	-54.043	0.100
471.400	-17.529	0.100
471.500	-39.030	0.100
471.600	-54.782	0.099
471.700	-32.297	0.099
471.800	-33.008	0.100
471.900	-26.232	0.100
472.000	-15.687	0.100
472.100	-26.454	0.100
472.200	-16.936	0.100
472.300	-32.068	0.100
472.400	-30.442	0.100
472.500	-55.869	0.100
472.600	-32.089	0.100
472.700	-4.223	0.100
472.800	-12.036	0.100
472.900	-27.115	0.100
473.000	-15.358	0.100
473.100	-16.384	0.100
473.200	-69.841	0.100
473.300	-42.188	0.100
473.400	-35.921	0.100
473.500	-29.361	0.100
473.600	-48.443	0.100
473.700	-22.211	0.100
473.800	-32.885	0.100
473.900	-36.713	0.100
474.000	-24.070	0.100
474.100	-37.926	0.100
474.200	-20.807	0.100
474.300	-43.407	0.100
474.400	-47.981	0.100
474.500	-52.589	0.100
474.600	-13.528	0.100
474.700	-25.257	0.100
474.800	-46.041	0.099
474.900	-30.006	0.100
475.000	-38.839	0.100
475.100	-55.255	0.099
475.200	-23.921	0.100
475.300	-33.285	0.100
475.400	-46.854	0.100
475.500	-44.727	0.100
475.600	-9.153	0.100
475.700	-28.215	0.100
475.800	-38.260	0.100
475.900	-10.380	0.100
476.000	-39.487	0.100
476.100	-65.049	0.100
476.200	-14.819	0.100
476.300	-58.315	0.100
476.400	-55.637	0.100
476.500	-29.920	0.100
476.600	-44.326	0.100
476.700	-67.573	0.100
476.800	-25.709	0.100
476.900	-25.274	0.100
477.000	-45.796	0.100
477.100	-40.313	0.100
477.200	-38.978	0.100
477.300	-34.439	0.100
477.400	-21.904	0.100
477.500	-28.717	0.100
477.600	-20.215	0.100
477.700	-42.534	0.100
477.800	-34.046	0.100
477.900	-48.435	0.100
478.000	-45.214	0.100
478.100	-16.319	0.100
478.200	-48.375	0.100
478.300	-19.504	0.099
478.400	-27.653	0.100
478.500	-38.699	0.100
478.600	-53.642	0.099
478.700	-55.238	0.100
478.800	-26.603	0.100
478.900	-14.728	0.100
479.000	-41.361	0.100
479.100	-48.755	0.100
479.200	-19.453	0.099
479.300	-55.072	0.100
479.400	-52.129	0.100
479.500	-32.833	0.100
479.600	-26.879	0.100
479.700	-38.061	0.100
479.800	-32.993	0.100
479.900	-33.641	0.100
480.000	-29.099	0.100
480.100	-39.711	0.100
480.200	-35.113	0.100
480.300	-50.816	0.100
480.400	-49.693	0.100
480.500	-31.946	0.100
480.600	-49.577	0.100
480.700	-11.575	0.100
480.800	7.699	0.100
480.900	-47.328	0.100
481.000	-26.482	0.100
481.100	-2.172	0.100
481.200	-16.060	0.100
481.300	-6.660	0.100
481.400	-2.108	0.100
481.500	1.845	0.100
481.600	7.510	0.100
481.700	8.693	0.100
481.800	19.339	0.100
481.900	17.933	0.100
482.000	7.120	0.100
482.100	18.699	0.099
482.200	51.589	0.100
482.300	24.497	0.100
482.400	30.106	0.100
482.500	10.620	0.100
482.600	43.361	0.100
482.700	22.369	0.100
482.800	42.607	0.100
482.900	69.366	0.100
483.000	57.870	0.100
483.100	39.659	0.100
483.200	59.734	0.100
483.300	33.465	0.100
483.400	44.912	0.099
483.500	52.504	0.100
483.600	35.534	0.100
483.700	58.985	0.100
483.800	56.835	0.100
483.900	22.005	0.100
484.000	56.518	0.100
484.100	56.355	0.099
484.200	47.863	0.100
484.300	28.733	0.100
484.400	29.006	0.099
484.500	39.665	0.100
484.600	52.507	0.100
484.700	28.580	0.099
484.800	9.604	0.099
484.900	61.162	0.100
485.000	30.325	0.100
485.100	56.499	0.099
485.200	34.862	0.100
485.300	30.188	0.100
485.400	41.502	0.100
485.500	51.062	0.100
485.600	33.348	0.100
485.700	39.282	0.100
485.800	31.984	0.100
485.900	34.572	0.100
486.000	27.219	0.100
486.100	41.593	0.100
486.200	32.390	0.100
486.300	65.491	0.100
486.400	27.709	0.100
486.500	29.883	0.100
486.600	52.657	0.100
486.700	29.831	0.100
486.800	34.574	0.100
486.900	37.762	0.100
487.000	18.624	0.099
487.100	36.852	0.100
487.200	29.754	0.100
487.300	46.275	0.100
487.400	29.134	0.100
487.500	39.534	0.100
487.600	53.487	0.100
487.700	37.772	0.100
487.800	61.040	0.100
487.900	37.890	0.100
488.000	61.413	0.100
488.100	53.741	0.100
488.200	58.535	0.100
488.300	57.975	0.100
488.400	56.680	0.100
488.500	53.051	0.100
488.600	69.467	0.100
488.700	63.073	0.100
488.800	54.898	0.100
488.900	38.143	0.100
489.000	63.342	0.100
489.100	45.755	0.100
489.200	55.629	0.100
489.300	47.256	0.100
489.400	52.311	0.100
489.500	56.236	0.100
489.600	68.531	0.100
489.700	61.497	0.100
489.800	62.473	0.100
489.900	53.230	0.100
490.000	84.871	0.100
490.100	76.601	0.100
490.200	58.852	0.100
490.300	48.933	0.100
490.400	56.562	0.100
490.500	82.739	0.100
490.600	59.940	0.100
490.700	94.708	0.100
490.800	71.977	0.100
490.900	87.655	0.100
491.000	66.984	0.100
491.100	83.653	0.100
491.200	88.507	0.100
491.300	75.247	0.100
491.400	59.354	0.100
491.500	52.206	0.100
491.600	51.612	0.100
491.700	67.914	0.100
491.800	55.992	0.099
491.900	72.905	0.100
492.000	93.341	0.100
492.100	86.307	0.100
492.200	92.659	0.100
492.300	97.332	0.100
492.400	81.839	0.100
492.500	100.301	0.100
492.600	118.676	0.100
492.700	101.388	0.100
492.800	107.007	0.100
492.900	94.263	0.100
493.000	96.212	0.100
493.100	76.436	0.100
493.200	107.150	0.100
493.300	111.574	0.100
493.400	112.609	0.100
493.500	99.876	0.100
493.600	102.848	0.100
493.700	101.929	0.100
493.800	78.434	0.100
493.900	112.603	0.100
494.000	117.534	0.100
494.100	101.316	0.100
494.200	77.934	0.100
494.300	137.203	0.100
494.400	150.211	0.100
494.500	96.597	0.100
494.600	103.661	0.100
494.700	96.470	0.100
494.800	111.680	0.100
494.900	108.380	0.100
495.000	102.973	0.100
495.100	121.839	0.100
495.200	112.863	0.100
495.300	117.812	0.100
495.400	124.273	0.100
495.500	103.796	0.100
495.600	105.939	0.100
495.700	121.284	0.100
495.800	115.526	0.099
495.900	147.939	0.100
496.000	110.765	0.100
496.100	112.399	0.100
496.200	132.562	0.100
496.300	134.833	0.100
496.400	123.318	0.100
496.500	124.010	0.100
496.600	128.088	0.100
496.700	99.898	0.100
496.800	118.768	0.100
496.900	106.614	0.100
497.000	117.599	0.100
497.100	135.443	0.100
497.200	134.905	0.100
497.300	135.292	0.100
497.400	136.891	0.100
497.500	163.614	0.100
497.600	133.252	0.100
497.700	128.572	0.100
497.800	116.000	0.100
497.900	119.221	0.100
498.000	122.745	0.100
498.100	130.626	0.100
498.200	137.249	0.100
498.300	134.154	0.100
498.400	134.846	0.100
498.500	118.904	0.100
498.600	117.447	0.100
498.700	117.445	0.100
498.800	167.284	0.100
498.900	155.169	0.100
499.000	149.241	0.100
499.100	140.437	0.100
499.200	116.828	0.100
499.300	135.081	0.100
499.400	108.773	0.100
499.500	143.469	0.100
499.600	144.011	0.100
499.700	117.162	0.099
499.800	113.230	0.100
499.900	136.904	0.100
500.000	127.009	0.100
500.100	137.474	0.100
500.200	117.307	0.100
500.300	153.404	0.100
500.400	132.153	0.100
500.500	136.470	0.100
500.600	123.984	0.100
500.700	137.798	0.100
500.800	121.690	0.100
500.900	135.244	0.100
501.000	126.534	0.100
501.100	129.744	0.100
501.200	153.576	0.100
501.300	126.987	0.100
501.400	126.271	0.100
501.500	127.056	0.100
501.600	140.016	0.100
501.700	127.771	0.100
501.800	154.706	0.100
501.900	137.276	0.100
502.000	135.128	0.100
502.100	115.276	0.100
502.200	134.384	0.100
502.300	131.412	0.100
502.400	156.525	0.100
502.500	80.666	0.100
502.600	126.285	0.100
502.700	135.745	0.099
502.800	96.659	0.100
502.900	140.781	0.100
503.000	134.250	0.100
503.100	127.775	0.100
503.200	129.301	0.100
503.300	141.518	0.100
503.400	135.161	0.100
503.500	120.146	0.100
503.600	97.409	0.100
503.700	129.467	0.100
503.800	139.589	0.100
503.900	131.259	0.100
504.000	147.263	0.100
504.100	142.425	0.100
504.200	102.100	0.100
504.300	126.279	0.100
504.400	111.559	0.100
504.500	122.709	0.100
504.600	117.587	0.100
504.700	135.019	0.100
504.800	127.825	0.100
504.900	141.970	0.100
505.000	134.704	0.100
505.100	110.673	0.100
505.200	107.151	0.100
505.300	132.428	0.100
505.400	110.053	0.100
505.500	156.404	0.100
505.600	126.348	0.100
505.700	116.631	0.100
505.800	104.753	0.100
505.900	130.657	0.100
506.000	126.279	0.100
506.100	127.530	0.100
506.200	132.913	0.100
506.300	104.378	0.100
506.400	120.135	0.100
506.500	142.520	0.100
506.600	121.112	0.100
506.700	145.428	0.100
506.800	130.063	0.100
506.900	115.361	0.100
507.000	114.247	0.100
507.100	120.250	0.100
507.200	99.518	0.100
507.300	141.833	0.100
507.400	106.081	0.100
507.500	127.841	0.100
507.600	125.885	0.099
507.700	108.752	0.099
507.800	121.334	0.100
507.900	108.121	0.100
508.000	145.141	0.100
508.100	91.423	0.100
508.200	124.731	0.100
508.300	101.944	0.100
508.400	138.532	0.100
508.500	119.876	0.100
508.600	125.135	0.100
508.700	89.592	0.100
508.800	132.297	0.100
508.900	132.776	0.100
509.000	130.921	0.100
509.100	120.905	0.100
509.200	108.393	0.100
509.300	124.260	0.100
509.400	135.840	0.100
509.500	132.679	0.100
509.600	112.368	0.100
509.700	121.171	0.100
509.800	114.729	0.100
509.900	123.459	0.100
510.000	113.795	0.099
510.100	114.724	0.100
510.200	104.147	0.100
510.300	115.798	0.100
510.400	137.378	0.100
510.500	123.030	0.100
510.600	93.109	0.100
510.700	108.022	0.100
510.800	127.373	0.100
510.900	94.952	0.100
511.000	125.158	0.100
511.100	109.706	0.100
511.200	111.277	0.100
511.300	109.238	0.100
511.400	92.194	0.100
511.500	98.780	0.100
511.600	127.587	0.100
511.700	125.682	0.100
511.800	115.439	0.100
511.900	102.563	0.100
512.000	118.345	0.100
512.100	102.718	0.099
512.200	134.481	0.100
512.300	119.758	0.100
512.400	120.309	0.100
512.500	112.221	0.100
512.600	105.111	0.100
512.700	115.581	0.100
512.800	119.468	0.100
512.900	96.870	0.100
513.000	120.683	0.100
513.100	119.885	0.100
513.200	104.293	0.100
513.300	99.208	0.100
513.400	115.195	0.100
513.500	84.020	0.100
513.600	104.136	0.100
513.700	113.745	0.100
513.800	147.162	0.100
513.900	95.456	0.100
514.000	102.790	0.100
514.100	117.295	0.100
514.200	134.133	0.100
514.300	118.926	0.100
514.400	132.065	0.100
514.500	114.284	0.100
514.600	110.921	0.100
514.700	115.052	0.100
514.800	104.189	0.100
514.900	118.656	0.100
515.000	105.500	0.100
515.100	106.225	0.100
515.200	108.495	0.100
515.300	102.962	0.100
515.400	95.586	0.100
515.500	125.593	0.100
515.600	122.193	0.100
515.700	129.879	0.099
515.800	115.505	0.100
515.900	96.066	0.100
516.000	86.201	0.100
516.100	103.347	0.100
516.200	138.695	0.100
516.300	101.559	0.100
516.400	111.909	0.100
516.500	115.378	0.100
516.600	124.372	0.100
516.700	136.395	0.100
516.800	139.363	0.100
516.900	106.274	0.100
517.000	90.541	0.100
517.100	98.166	0.100
517.200	104.138	0.100
517.300	98.769	0.100
517.400	137.248	0.100
517.500	118.795	0.100
517.600	86.688	0.100
517.700	121.286	0.100
517.800	113.077	0.100
517.900	123.326	0.100
518.000	102.697	0.100
518.100	108.741	0.100
518.200	78.118	0.100
518.300	116.809	0.100
518.400	108.532	0.100
518.500	90.615	0.100
518.600	127.263	0.100
518.700	114.286	0.100
518.800	105.232	0.100
518.900	115.210	0.100
519.000	77.670	0.100
519.100	108.514	0.100
519.200	109.055	0.100
519.300	111.938	0.100
519.400	127.386	0.100
519.500	111.261	0.100
519.600	108.042	0.100
519.700	132.329	0.100
519.800	97.681	0.100
519.900	122.692	0.100
520.000	119.938	0.100
520.100	94.360	0.100
520.200	103.305	0.100
520.300	118.989	0.100
520.400	110.380	0.100
520.500	112.318	0.100
520.600	117.141	0.100
520.700	108.985	0.100
520.800	97.915	0.100
520.900	99.826	0.100
521.000	94.431	0.100
521.100	106.083	0.100
521.200	101.854	0.100
521.300	104.160	0.100
521.400	76.724	0.100
521.500	93.238	0.099
521.600	132.214	0.100
521.700	110.177	0.100
521.800	94.799	0.100
521.900	119.219	0.100
522.000	103.614	0.100
522.100	103.808	0.100
522.200	88.565	0.100
522.300	105.463	0.100
522.400	111.480	0.100
522.500	80.682	0.100
522.600	82.187	0.100
522.700	96.560	0.100
522.800	121.813	0.100
522.900	106.901	0.100
523.000	110.508	0.100
523.100	110.034	0.099
523.200	98.796	0.100
523.300	96.231	0.100
523.400	125.439	0.100
523.500	94.120	0.100
523.600	92.249	0.100
523.700	107.103	0.100
523.800	118.686	0.100
523.900	97.258	0.100
524.000	97.787	0.100
524.100	126.486	0.100
524.200	118.959	0.100
524.300	115.134	0.100
524.400	119.219	0.100
524.500	118.165	0.100
524.600	118.620	0.100
524.700	93.121	0.100
524.800	119.297	0.100
524.900	101.069	0.099
525.000	92.072	0.100
525.100	93.553	0.099
525.200	114.281	0.100
525.300	94.772	0.100
525.400	88.423	0.100
525.500	111.488	0.100
525.600	136.661	0.100
525.700	103.674	0.100
525.800	114.210	0.100
525.900	108.282	0.100
526.000	97.926	0.100
526.100	114.577	0.100
526.200	106.488	0.100
526.300	108.596	0.100
526.400	101.977	0.100
526.500	96.502	0.100
526.600	108.959	0.100
526.700	146.013	0.100
526.800	131.606	0.100
526.900	114.650	0.100
527.000	95.000	0.100
527.100	89.430	0.100
527.200	97.446	0.100
527.300	106.697	0.100
527.400	70.157	0.100
527.500	104.308	0.100
527.600	100.484	0.100
527.700	121.503	0.100
527.800	116.968	0.100
527.900	90.771	0.100
528.000	111.133	0.100
528.100	114.337	0.100
528.200	103.720	0.100
528.300	92.533	0.100
528.400	80.767	0.100
528.500	75.548	0.100
528.600	77.813	0.100
528.700	110.013	0.100
528.800	134.332	0.100
528.900	106.038	0.100
529.000	94.618	0.100
529.100	131.315	0.100
529.200	144.784	0.100
529.300	123.506	0.100
529.400	88.315	0.100
529.500	124.967	0.100
529.600	120.203	0.100
529.700	109.012	0.100
529.800	87.536	0.100
529.900	100.592	0.100
530.000	96.622	0.100
530.100	87.931	0.100
530.200	100.803	0.100
530.300	109.393	0.100
530.400	105.967	0.100
530.500	98.320	0.100
530.600	76.925	0.100
530.700	81.210	0.100
530.800	86.740	0.100
530.900	136.694	0.099
531.000	90.685	0.100
531.100	125.066	0.100
531.200	115.277	0.100
531.300	105.510	0.100
531.400	83.951	0.100
531.500	106.191	0.100
531.600	109.282	0.100
531.700	121.713	0.100
531.800	93.695	0.100
531.900	132.532	0.100
532.000	88.088	0.100
532.100	85.473	0.100
532.200	100.498	0.100
532.300	133.176	0.100
532.400	115.067	0.100
532.500	93.020	0.100
532.600	78.418	0.100
532.700	102.596	0.100
532.800	102.720	0.100
532.900	87.506	0.100
533.000	107.681	0.099
533.100	100.392	0.100
533.200	124.673	0.100
533.300	96.334	0.100
533.400	102.461	0.100
533.500	107.541	0.100
533.600	110.460	0.100
533.700	80.748	0.100
533.800	109.719	0.100
533.900	79.415	0.100
534.000	73.579	0.100
534.100	101.409	0.100
534.200	112.074	0.100
534.300	107.558	0.100
534.400	110.325	0.100
534.500	116.298	0.100
534.600	89.585	0.100
534.700	116.888	0.100
534.800	115.579	0.100
534.900	109.495	0.100
535.000	99.857	0.100
535.100	99.700	0.100
535.200	67.951	0.100
535.300	66.109	0.100
535.400	101.008	0.099
535.500	140.917	0.100
535.600	94.240	0.100
535.700	132.083	0.100
535.800	104.613	0.100
535.900	85.519	0.100
536.000	107.922	0.100
536.100	107.803	0.100
536.200	90.388	0.100
536.300	109.520	0.100
536.400	104.625	0.100
536.500	81.755	0.099
536.600	105.551	0.100
536.700	102.350	0.100
536.800	98.418	0.099
536.900	133.199	0.100
537.000	121.803	0.100
537.100	89.413	0.100
537.200	119.809	0.100
537.300	107.018	0.100
537.400	108.329	0.100
537.500	89.882	0.100
537.600	106.716	0.100
537.700	121.461	0.100
537.800	81.268	0.100
537.900	114.259	0.100
538.000	103.287	0.100
538.100	119.608	0.100
538.200	90.135	0.099
538.300	127.412	0.100
538.400	112.540	0.100
538.500	111.919	0.099
538.600	106.482	0.100
538.700	79.477	0.100
538.800	67.800	0.100
538.900	129.341	0.100
539.000	90.805	0.100
539.100	96.272	0.100
539.200	103.059	0.100
539.300	97.778	0.100
539.400	101.670	0.100
539.500	115.563	0.100
539.600	90.917	0.099
539.700	88.514	0.100
539.800	113.922	0.100
539.900	102.124	0.100
540.000	110.858	0.100
540.100	95.845	0.100
540.200	124.063	0.100
540.300	94.973	0.100
540.400	106.125	0.099
540.500	90.854	0.100
540.600	100.723	0.100
540.700	83.786	0.100
540.800	114.087	0.100
540.900	114.465	0.100
541.000	103.327	0.100
541.100	57.155	0.099
541.200	66.054	0.100
541.300	98.080	0.099
541.400	63.097	0.100
541.500	47.774	0.100
541.600	25.207	0.100
541.700	58.944	0.099
541.800	13.763	0.100
541.900	31.856	0.100
542.000	26.775	0.100
542.100	52.392	0.100
542.200	14.748	0.100
542.300	9.421	0.100
542.400	30.836	0.100
542.500	2.892	0.100
542.600	15.122	0.100
542.700	2.823	0.100
542.800	10.313	0.100
542.900	-30.010	0.100
543.000	-34.624	0.100
543.100	26.678	0.100
543.200	-22.607	0.100
543.300	-0.623	0.100
543.400	4.964	0.100
543.500	-10.314	0.100
543.600	-10.149	0.100
543.700	-49.470	0.099
543.800	-51.677	0.100
543.900	-25.148	0.100
544.000	-28.056	0.100
544.100	-29.287	0.100
544.200	-36.484	0.100
544.300	-18.717	0.100
544.400	-36.802	0.100
544.500	-32.266	0.100
544.600	-43.048	0.100
544.700	-23.736	0.100
544.800	-32.909	0.100
544.900	-49.350	0.100
545.000	-51.476	0.100
545.100	-32.399	0.100
545.200	-28.742	0.100
545.300	-51.662	0.100
545.400	-49.576	0.100
545.500	-42.683	0.100
545.600	-33.822	0.100
545.700	-32.874	0.100
545.800	-53.046	0.100
545.900	-53.966	0.100
546.000	-54.156	0.100
546.100	-32.399	0.100
546.200	-70.647	0.100
546.300	-49.669	0.100
546.400	-13.688	0.100
546.500	-26.741	0.100
546.600	-30.290	0.100
546.700	-21.778	0.100
546.800	-45.831	0.100
546.900	-28.868	0.100
547.000	0.838	0.100
547.100	-48.976	0.100
547.200	-41.273	0.100
547.300	-26.689	0.100
547.400	-12.501	0.100
547.500	-15.549	0.100
547.600	-15.413	0.100
547.700	-12.491	0.100
547.800	-39.603	0.100
547.900	-31.059	0.100
548.000	-36.407	0.100
548.100	-30.360	0.100
548.200	-22.191	0.100
548.300	-30.451	0.100
548.400	-29.950	0.100
548.500	-30.581	0.100
548.600	-17.314	0.100
548.700	-36.239	0.100
548.800	-25.972	0.100
548.900	-43.532	0.100
549.000	-32.388	0.100
549.100	-11.818	0.100
549.200	-20.152	0.100
549.300	-28.123	0.100
549.400	-21.168	0.100
549.500	-45.528	0.100
549.600	-16.534	0.100
549.700	2.314	0.100
549.800	5.779	0.100
549.900	-25.188	0.100
550.000	-43.697	0.100
550.100	-19.297	0.100
550.200	-21.918	0.100
550.300	-7.885	0.100
550.400	-26.341	0.100
550.500	-40.156	0.100
550.600	4.723	0.100
550.700	-0.648	0.100
550.800	-31.195	0.100
550.900	-38.446	0.100
551.000	-23.517	0.100
551.100	-22.427	0.100
551.200	-38.403	0.100
551.300	-20.909	0.100
551.400	-13.137	0.100
551.500	-13.429	0.100
551.600	-30.577	0.100
551.700	-5.510	0.100
551.800	6.967	0.100
551.900	-35.979	0.100
552.000	-28.123	0.100
552.100	-20.586	0.100
552.200	-17.769	0.100
552.300	-17.628	0.100
552.400	-38.923	0.100
552.500	-11.869	0.100
552.600	-5.836	0.100
552.700	-11.881	0.100
552.800	4.550	0.100
552.900	-4.169	0.100
553.000	-36.477	0.099
553.100	-15.717	0.100
553.200	-5.721	0.100
553.300	-56.764	0.100
553.400	-2.552	0.100
553.500	-20.466	0.100
553.600	-8.035	0.100
553.700	-27.425	0.100
553.800	-25.985	0.099
553.900	-31.460	0.100
554.000	-5.578	0.100
554.100	-3.375	0.100
554.200	-22.639	0.100
554.300	-30.180	0.100
554.400	-22.416	0.100
554.500	-49.705	0.100
554.600	-38.874	0.100
554.700	-34.495	0.100
554.800	-8.286	0.100
554.900	1.893	0.100
555.000	-36.623	0.100
555.100	-42.321	0.100
555.200	-30.961	0.100
555.300	-12.100	0.100
555.400	-7.293	0.100
555.500	-41.148	0.100
555.600	-36.725	0.100
555.700	-8.614	0.100
555.800	-34.318	0.100
555.900	-4.519	0.100
556.000	-12.931	0.100
556.100	-33.709	0.100
556.200	-36.269	0.100
556.300	-31.412	0.100
556.400	-28.524	0.100
556.500	-8.269	0.100
556.600	-40.768	0.100
556.700	-1.826	0.100
556.800	1.480	0.100
556.900	-8.732	0.100
557.000	-14.629	0.100
557.100	-14.222	0.100
557.200	-25.536	0.100
557.300	-34.355	0.100
557.400	-30.581	0.100
557.500	-17.574	0.100
557.600	-21.463	0.100
557.700	-35.359	0.099
557.800	-22.134	0.100
557.900	-13.022	0.100
558.000	-59.480	0.100
558.100	-18.392	0.100
558.200	-26.982	0.100
558.300	-26.730	0.100
558.400	-40.101	0.100
558.500	-19.166	0.100
558.600	-31.067	0.100
558.700	-55.725	0.100
558.800	-33.367	0.100
558.900	-43.868	0.100
559.000	-10.864	0.100
559.100	-19.053	0.100
559.200	-12.586	0.100
559.300	-31.678	0.100
559.400	-50.640	0.100
559.500	-39.344	0.100
559.600	-12.578	0.100
559.700	-23.281	0.100
559.800	-19.998	0.100
559.900	-16.830	0.100
560.000	-33.443	0.100
560.100	-56.381	0.100
560.200	-44.346	0.099
560.300	-16.712	0.100
560.400	-29.139	0.100
560.500	-25.121	0.100
560.600	-34.123	0.099
560.700	-41.533	0.100
560.800	-28.837	0.100
560.900	-41.855	0.099
561.000	-23.736	0.100
561.100	-12.472	0.100
561.200	-11.900	0.100
561.300	-30.241	0.100
561.400	-27.657	0.100
561.500	-27.022	0.100
561.600	-30.081	0.100
561.700	-39.506	0.100
561.800	-41.298	0.100
561.900	-42.041	0.100
562.000	-19.334	0.100
562.100	-39.522	0.100
562.200	-34.889	0.100
562.300	-11.366	0.100
562.400	-38.655	0.100
562.500	-37.723	0.100
562.600	-34.940	0.100
562.700	-61.483	0.099
562.800	-39.749	0.100
562.900	-30.123	0.100
563.000	-11.334	0.100
563.100	-22.967	0.099
563.200	-48.079	0.100
563.300	-36.832	0.100
563.400	-43.822	0.100
563.500	-53.252	0.100
563.600	-38.708	0.100
563.700	-53.020	0.100
563.800	-54.405	0.099
563.900	-21.002	0.100
564.000	-31.015	0.100
564.100	-27.516	0.100
564.200	-38.901	0.100
564.300	-52.066	0.100
564.400	-39.996	0.100
564.500	-10.134	0.100
564.600	-53.238	0.099
564.700	-27.693	0.100
564.800	-30.876	0.100
564.900	-13.373	0.100
565.000	-59.348	0.099
565.100	-33.380	0.100
565.200	-46.754	0.099
565.300	-15.084	0.099
565.400	-35.390	0.100
565.500	-36.731	0.100
565.600	-52.415	0.099
565.700	-48.274	0.100
565.800	-38.498	0.100
565.900	-58.850	0.100
566.000	-40.586	0.099
566.100	-33.473	0.100
566.200	-40.128	0.099
566.300	-47.397	0.100
566.400	-25.512	0.100
566.500	-41.345	0.100
566.600	-48.436	0.100
566.700	-41.702	0.100
566.800	-32.903	0.100
566.900	-43.723	0.100
567.000	-60.491	0.099
567.100	-31.429	0.100
567.200	-51.286	0.100
567.300	-27.783	0.100
567.400	-52.060	0.100
567.500	-44.449	0.100
567.600	-72.711	0.100
567.700	-40.574	0.100
567.800	-39.902	0.100
567.900	-30.378	0.100
568.000	-41.547	0.100
568.100	-62.863	0.099
568.200	-31.058	0.100
568.300	-42.845	0.100
568.400	-44.679	0.100
568.500	-35.876	0.099
568.600	-56.399	0.100
568.700	-53.248	0.100
568.800	-60.105	0.099
568.900	-29.746	0.100
569.000	-36.395	0.100
569.100	-29.591	0.100
569.200	-35.259	0.099
569.300	-27.170	0.100
569.400	-47.479	0.100
569.500	-41.846	0.100
569.600	-47.404	0.099
569.700	-18.970	0.100
569.800	-53.941	0.100
569.900	-49.241	0.100
570.000	-53.420	0.100
570.100	-52.252	0.100
570.200	-52.918	0.100
570.300	-32.645	0.100
570.400	-40.339	0.100
570.500	-37.125	0.100
570.600	-37.661	0.100
570.700	-51.138	0.099
570.800	-78.514	0.100
570.900	-60.117	0.100
571.000	-16.757	0.099
571.100	-71.764	0.100
571.200	-24.293	0.100
571.300	-51.970	0.100
571.400	-47.610	0.099
571.500	-56.978	0.100
571.600	-54.268	0.100
571.700	-36.071	0.099
571.800	-45.946	0.100
571.900	-41.055	0.100
572.000	-63.991	0.100
572.100	-52.693	0.100
572.200	-36.377	0.100
572.300	-52.234	0.100
572.400	-56.872	0.100
572.500	-66.092	0.100
572.600	-37.595	0.100
572.700	-58.219	0.100
572.800	-59.175	0.100
572.900	-23.809	0.100
573.000	-40.744	0.100
573.100	-42.650	0.100
573.200	-53.763	0.099
573.300	-34.621	0.100
573.400	-39.231	0.099
573.500	-68.457	0.100
573.600	-41.104	0.099
573.700	-37.676	0.100
573.800	-50.224	0.100
573.900	-52.255	0.099
574.000	-70.295	0.100
574.100	-31.844	0.100
574.200	-83.309	0.100
574.300	-43.318	0.100
574.400	-22.496	0.099
574.500	-59.568	0.100
574.600	-31.804	0.100
574.700	-27.131	0.100
574.800	-45.167	0.099
574.900	-61.542	0.100
575.000	-47.042	0.099
575.100	-47.012	0.100
575.200	-43.106	0.100
575.300	-13.661	0.099
575.400	-63.448	0.100
575.500	-44.414	0.099
575.600	-65.159	0.100
575.700	-32.895	0.100
575.800	-27.359	0.100
575.900	-48.754	0.100
576.000	-66.010	0.100
576.100	-47.945	0.099
576.200	-65.716	0.099
576.300	-48.356	0.100
576.400	-47.827	0.100
576.500	-34.591	0.100
576.600	-58.847	0.100
576.700	-64.582	0.100
576.800	-56.149	0.100
576.900	-52.942	0.099
577.000	-43.880	0.100
577.100	-44.523	0.100
577.200	-61.440	0.100
577.300	-47.361	0.100
577.400	-30.723	0.100
577.500	-50.929	0.100
577.600	-47.829	0.100
577.700	-50.507	0.100
577.800	-40.154	0.100
577.900	-33.468	0.100
578.000	-40.510	0.100
578.100	-29.087	0.100
578.200	-39.301	0.100
578.300	-44.558	0.100
578.400	-39.083	0.100
578.500	-53.457	0.100
578.600	-46.545	0.100
578.700	-70.488	0.100
578.800	-34.158	0.100
578.900	-27.822	0.100
579.000	-61.288	0.099
579.100	-55.801	0.099
579.200	-46.834	0.099
579.300	-54.808	0.100
579.400	-35.527	0.100
579.500	-52.666	0.100
579.600	-30.077	0.100
579.700	-35.089	0.099
579.800	-57.309	0.100
579.900	-60.493	0.100
580.000	-25.988	0.100
580.100	-56.792	0.099
580.200	-44.173	0.099
580.300	-40.401	0.100
580.400	-55.188	0.099
580.500	-35.082	0.099
580.600	-57.292	0.100
580.700	-50.117	0.100
580.800	-35.252	0.100
580.900	-48.249	0.100
581.000	-50.516	0.099
581.100	-40.894	0.100
581.200	-66.295	0.100
581.300	-45.041	0.100
581.400	-59.272	0.100
581.500	-57.898	0.099
581.600	-39.635	0.100
581.700	-38.549	0.100
581.800	-24.109	0.100
581.900	-28.749	0.100
582.000	-39.328	0.100
582.100	-56.481	0.100
582.200	-53.783	0.100
582.300	-55.816	0.099
582.400	-53.021	0.100
582.500	-48.380	0.100
582.600	-18.000	0.100
582.700	-56.578	0.100
582.800	-42.268	0.100
582.900	-51.479	0.100
583.000	-51.407	0.099
583.100	-49.595	0.099
583.200	-44.289	0.100
583.300	-31.366	0.100
583.400	-32.904	0.100
583.500	-60.950	0.100
583.600	-73.552	0.100
583.700	-42.925	0.100
583.800	-53.927	0.100
583.900	-26.291	0.100
584.000	-58.599	0.100
584.100	-43.593	0.100
584.200	-43.016	0.099
584.300	-33.761	0.100
584.400	-74.071	0.099
584.500	-43.855	0.100
584.600	-58.777	0.100
584.700	-43.264	0.100
584.800	-43.301	0.100
584.900	-75.937	0.099
585.000	-31.613	0.100
585.100	-46.028	0.100
585.200	-69.828	0.100
585.300	-44.262	0.099
585.400	-31.945	0.100
585.500	-53.569	0.100
585.600	-25.611	0.099
585.700	-30.127	0.100
585.800	-31.385	0.100
585.900	-53.719	0.100
586.000	-60.733	0.100
586.100	-42.630	0.100
586.200	-52.765	0.100
586.300	-51.640	0.099
586.400	-84.056	0.100
586.500	-45.141	0.100
586.600	-46.520	0.099
586.700	-46.073	0.100
586.800	-56.474	0.100
586.900	-67.852	0.099
587.000	-14.445	0.100
587.100	-50.398	0.099
587.200	-54.138	0.099
587.300	-46.783	0.100
587.400	-61.291	0.100
587.500	-14.829	0.100
587.600	-33.692	0.100
587.700	-37.010	0.100
587.800	-54.324	0.100
587.900	-42.456	0.100
588.000	-31.646	0.100
588.100	-63.636	0.099
588.200	-67.671	0.100
588.300	-39.993	0.100
588.400	-30.572	0.100
588.500	-52.682	0.100
588.600	-68.272	0.100
588.700	-22.786	0.100
588.800	-30.487	0.100
588.900	-31.074	0.099
589.000	-42.738	0.100
589.100	-20.497	0.100
589.200	-51.043	0.100
589.300	-42.952	0.100
589.400	-41.680	0.100
589.500	-54.276	0.100
589.600	-41.955	0.099
589.700	-41.186	0.100
589.800	-46.653	0.100
589.900	-46.465	0.100
590.000	-55.723	0.099
590.100	-32.770	0.100
590.200	-56.718	0.100
590.300	-34.232	0.100
590.400	-35.120	0.099
590.500	-59.731	0.100
590.600	-54.534	0.100
590.700	-10.086	0.099
590.800	-72.205	0.100
590.900	-9.786	0.099
591.000	-39.549	0.100
591.100	-57.275	0.099
591.200	-41.878	0.100
591.300	-34.551	0.100
591.400	-29.728	0.100
591.500	-56.244	0.100
591.600	-64.341	0.100
591.700	-58.298	0.100
591.800	-59.839	0.100
591.900	-66.190	0.099
592.000	-44.696	0.099
592.100	-11.604	0.100
592.200	-41.639	0.099
592.300	-19.775	0.100
592.400	-33.539	0.100
592.500	-51.320	0.100
592.600	-53.955	0.100
592.700	-62.875	0.100
592.800	-28.942	0.100
592.900	-63.912	0.100
593.000	15.021	0.100
593.100	-22.175	0.100
593.200	-48.573	0.100
593.300	-51.349	0.099
593.400	-37.436	0.099
593.500	-52.090	0.100
593.600	-59.988	0.100
593.700	-55.243	0.099
593.800	-68.646	0.100
593.900	-38.839	0.100
594.000	-53.878	0.099
594.100	-9.679	0.100
594.200	-28.727	0.100
594.300	-50.744	0.100
594.400	-8.128	0.100
594.500	-56.467	0.099
594.600	-69.143	0.099
594.700	-48.680	0.100
594.800	-66.059	0.099
594.900	-46.437	0.100
595.000	-34.544	0.100
595.100	-44.892	0.100
595.200	-27.521	0.100
595.300	-28.655	0.100
595.400	-33.197	0.100
595.500	-36.865	0.100
595.600	-29.649	0.100
595.700	-41.957	0.100
595.800	-47.251	0.100
595.900	-31.255	0.100
596.000	-36.106	0.099
596.100	-68.812	0.100
596.200	-38.159	0.100
596.300	-21.762	0.100
596.400	-60.575	0.100
596.500	-68.283	0.100
596.600	-51.303	0.100
596.700	-50.078	0.100
596.800	-55.014	0.100
596.900	-34.443	0.100
597.000	-41.929	0.099
597.100	-41.454	0.100
597.200	-65.178	0.100
597.300	-23.705	0.100
597.400	-32.680	0.100
597.500	-28.775	0.100
597.600	-33.201	0.100
597.700	-56.705	0.099
597.800	-61.580	0.100
597.900	-55.156	0.100
598.000	-38.203	0.100
598.100	-26.295	0.100
598.200	-41.671	0.100
598.300	-31.106	0.100
598.400	-46.080	0.100
598.500	-45.280	0.100
598.600	-20.824	0.100
598.700	-48.925	0.100
598.800	-40.460	0.100
598.900	-66.035	0.100
599.000	-26.586	0.100
599.100	-30.698	0.100
599.200	-23.452	0.100
599.300	-80.355	0.100
599.400	-42.620	0.100
599.500	-27.019	0.100
599.600	-40.804	0.100
599.700	-49.488	0.100
599.800	-78.756	0.100
599.900	-58.903	0.099
600.000	-37.774	0.100
600.100	-19.963	0.100
600.200	-38.185	0.100
600.300	-40.000	0.100
600.400	-38.507	0.099
600.500	-25.299	0.100
600.600	-47.881	0.100
600.700	-52.516	0.100
600.800	-50.926	0.100
600.900	-67.862	0.100
601.000	-46.214	0.100
601.100	-41.038	0.099
601.200	-37.802	0.100
601.300	-42.129	0.100
601.400	-53.037	0.100
601.500	-47.835	0.100
601.600	-56.436	0.100
601.700	-39.044	0.100
601.800	-39.446	0.100
601.900	-37.808	0.100
602.000	-43.174	0.100
602.100	-60.417	0.099
602.200	-54.957	0.100
602.300	-43.250	0.100
602.400	-37.502	0.100
602.500	-17.247	0.100
602.600	-19.007	0.100
602.700	-4.326	0.100
602.800	-31.395	0.100
602.900	-38.370	0.100
603.000	-50.860	0.100
603.100	-40.703	0.100
603.200	-65.618	0.100
603.300	-49.789	0.100
603.400	-45.764	0.100
603.500	-54.695	0.100
603.600	-29.749	0.100
603.700	-47.461	0.100
603.800	-54.725	0.100
603.900	-28.736	0.100
604.000	-30.582	0.100
604.100	-24.203	0.100
604.200	-33.475	0.100
604.300	-26.936	0.100
604.400	-28.616	0.100
604.500	-31.359	0.100
604.600	-44.275	0.100
604.700	-57.843	0.100
604.800	-65.956	0.099
604.900	-32.280	0.100
605.000	-19.522	0.100
605.100	-32.316	0.100
605.200	-66.144	0.100
605.300	-19.494	0.100
605.400	-35.146	0.100
605.500	-58.282	0.100
605.600	-33.350	0.100
605.700	-45.101	0.100
605.800	-40.426	0.100
605.900	-36.029	0.100
606.000	-37.436	0.100
606.100	-69.826	0.100
606.200	-30.713	0.100
606.300	-49.529	0.100
606.400	-33.577	0.100
606.500	-44.756	0.100
606.600	-48.934	0.100
606.700	-58.382	0.100
606.800	-56.426	0.100
606.900	-30.275	0.100
607.000	-45.611	0.100
607.100	-6.166	0.100
607.200	-46.254	0.100
607.300	-33.525	0.100
607.400	-8.265	0.100
607.500	-78.101	0.100
607.600	-27.647	0.100
607.700	-10.737	0.100
607.800	-63.185	0.100
607.900	-47.341	0.100
608.000	-41.084	0.099
608.100	-29.533	0.100
608.200	-85.012	0.100
608.300	-57.184	0.100
608.400	-27.070	0.100
608.500	-20.869	0.100
608.600	-43.338	0.100
608.700	-34.314	0.100
608.800	-57.344	0.100
608.900	-33.416	0.100
609.000	-39.802	0.100
609.100	-57.127	0.100
609.200	-20.015	0.100
609.300	-42.801	0.100
609.400	-29.930	0.100
609.500	-31.354	0.100
609.600	-25.116	0.100
609.700	-58.119	0.100
609.800	-36.298	0.100
609.900	-32.619	0.100
610.000	-28.151	0.100
610.100	-46.092	0.100
610.200	-48.837	0.100
610.300	-36.082	0.100
610.400	-19.438	0.100
610.500	-43.256	0.100
610.600	-39.837	0.100
610.700	-25.035	0.100
610.800	-31.951	0.100
610.900	-29.373	0.100
611.000	-61.964	0.100
611.100	-62.544	0.100
611.200	-42.948	0.100
611.300	-28.980	0.100
611.400	-18.948	0.100
611.500	-40.211	0.100
611.600	-48.520	0.100
611.700	-32.277	0.100
611.800	-50.320	0.100
611.900	-60.859	0.100
612.000	-45.154	0.100
612.100	-41.206	0.100
612.200	-35.828	0.100
612.300	-18.021	0.100
612.400	-27.076	0.100
612.500	-55.437	0.100
612.600	-30.582	0.100
612.700	-21.469	0.100
612.800	-30.818	0.100
612.900	-49.945	0.100
613.000	-31.230	0.100
613.100	-37.378	0.100
613.200	-47.825	0.100
613.300	-54.973	0.100
613.400	-28.398	0.100
613.500	-41.152	0.100
613.600	-42.876	0.100
613.700	-30.165	0.100
613.800	-43.644	0.100
613.900	-44.441	0.100
614.000	-40.682	0.100
614.100	-32.709	0.100
614.200	-47.894	0.100
614.300	-8.515	0.100
614.400	-39.365	0.100
614.500	-31.198	0.100
614.600	-52.764	0.100
614.700	-31.297	0.100
614.800	-44.882	0.099
614.900	-37.505	0.100
615.000	-61.426	0.100
615.100	-32.708	0.100
615.200	-47.486	0.100
615.300	-23.742	0.100
615.400	-33.581	0.100
615.500	-40.709	0.100
615.600	-20.969	0.100
615.700	-34.744	0.100
615.800	-20.565	0.100
615.900	-55.622	0.100
616.000	-58.633	0.100
616.100	-18.614	0.100
616.200	-28.213	0.100
616.300	-6.778	0.100
616.400	-41.247	0.100
616.500	-47.668	0.100
616.600	-61.389	0.100
616.700	-13.649	0.100
616.800	-39.369	0.099
616.900	-28.584	0.100
617.000	-42.350	0.100
617.100	-25.698	0.100
617.200	-47.508	0.100
617.300	-51.917	0.100
617.400	-9.180	0.100
617.500	-32.055	0.100
617.600	-54.478	0.100
617.700	-26.874	0.100
617.800	-19.361	0.099
617.900	-39.582	0.100
618.000	-61.544	0.100
618.100	-47.768	0.100
618.200	-49.815	0.100
618.300	-8.065	0.100
618.400	-29.484	0.100
618.500	-34.723	0.100
618.600	-31.930	0.100
618.700	-39.137	0.100
618.800	-31.444	0.100
618.900	-37.519	0.100
619.000	-33.250	0.099
619.100	-34.291	0.100
619.200	-41.480	0.100
619.300	-35.622	0.100
619.400	-32.738	0.100
619.500	-49.900	0.100
619.600	-15.135	0.100
619.700	-36.477	0.100
619.800	-48.879	0.100
619.900	-32.402	0.100
620.000	-57.197	0.100
620.100	-47.769	0.100
620.200	-41.873	0.100
620.300	-31.631	0.100
620.400	-57.579	0.100
620.500	-17.299	0.100
620.600	-18.843	0.100
620.700	-62.900	0.100
620.800	-46.681	0.100
620.900	-45.197	0.099
621.000	-20.478	0.100
621.100	-32.367	0.100
621.200	-33.387	0.100
621.300	-13.401	0.100
621.400	-28.802	0.100
621.500	-53.471	0.100
621.600	-30.884	0.100
621.700	-37.183	0.100
621.800	-43.313	0.100
621.900	-29.299	0.100
622.000	-27.663	0.100
622.100	-50.056	0.100
622.200	-35.677	0.100
622.300	-45.361	0.100
622.400	-59.178	0.099
622.500	-60.853	0.099
622.600	-29.599	0.100
622.700	-17.923	0.100
622.800	-33.412	0.100
622.900	-31.852	0.100
623.000	-14.411	0.100
623.100	-36.976	0.100
623.200	-9.150	0.100
623.300	-51.091	0.100
623.400	-41.021	0.100
623.500	-46.951	0.100
623.600	-32.728	0.100
623.700	-33.458	0.100
623.800	-48.345	0.100
623.900	-35.045	0.100
624.000	-49.289	0.099
624.100	-46.459	0.100
624.200	-33.057	0.100
624.300	-27.394	0.100
624.400	-45.286	0.100
624.500	-47.069	0.100
624.600	-19.348	0.100
624.700	-23.620	0.100
624.800	-30.552	0.100
624.900	-44.576	0.100
625.000	-49.080	0.100
625.100	-26.201	0.099
625.200	-66.293	0.100
625.300	-24.379	0.100
625.400	-28.268	0.099
625.500	-27.414	0.099
625.600	-20.963	0.100
625.700	-38.460	0.100
625.800	-73.781	0.099
625.900	-40.515	0.100
626.000	-24.217	0.099
626.100	-21.700	0.100
626.200	-31.562	0.100
626.300	-17.747	0.100
626.400	-14.671	0.100
626.500	-20.648	0.100
626.600	-50.936	0.100
626.700	-43.613	0.099
626.800	-45.264	0.100
626.900	-23.149	0.100
627.000	-16.433	0.100
627.100	-29.878	0.100
627.200	-53.987	0.100
627.300	-20.784	0.099
627.400	-37.909	0.100
627.500	-26.938	0.100
627.600	-44.273	0.100
627.700	-40.322	0.100
627.800	-36.582	0.100
627.900	-29.023	0.100
628.000	-12.031	0.100
628.100	-17.844	0.100
628.200	-35.692	0.100
628.300	-29.161	0.100
628.400	-30.937	0.100
628.500	-37.967	0.100
628.600	-28.193	0.100
628.700	-18.972	0.100
628.800	-46.958	0.100
628.900	-52.532	0.099
629.000	-23.678	0.100
629.100	-41.357	0.100
629.200	-3.515	0.100
629.300	-23.967	0.100
629.400	-14.018	0.100
629.500	-50.532	0.100
629.600	-46.442	0.099
629.700	-14.855	0.100
629.800	-43.949	0.100
629.900	-9.532	0.100
630.000	-30.801	0.100
630.100	-28.095	0.100
630.200	-41.784	0.100
630.300	-57.003	0.100
630.400	-21.372	0.100
630.500	-39.400	0.100
630.600	-28.729	0.099
630.700	-20.860	0.100
630.800	-20.726	0.100
630.900	-46.453	0.099
631.000	-10.665	0.100
631.100	13.936	0.099
631.200	-33.131	0.100
631.300	-23.299	0.099
631.400	16.544	0.100
631.500	0.829	0.100
631.600	-1.346	0.100
631.700	9.151	0.100
631.800	5.077	0.100
631.900	36.518	0.100
632.000	28.962	0.100
632.100	29.690	0.100
632.200	16.391	0.100
632.300	51.169	0.100
632.400	34.960	0.100
632.500	37.846	0.100
632.600	64.106	0.100
632.700	46.484	0.100
632.800	24.289	0.100
632.900	44.401	0.100
633.000	38.850	0.100
633.100	60.086	0.099
633.200	57.757	0.099
633.300	47.302	0.100
633.400	50.427	0.100
633.500	55.229	0.099
633.600	28.499	0.100
633.700	51.395	0.099
633.800	58.489	0.100
633.900	19.828	0.100
634.000	50.898	0.100
634.100	57.555	0.100
634.200	56.010	0.100
634.300	52.671	0.100
634.400	54.898	0.100
634.500	44.830	0.100
634.600	51.329	0.100
634.700	39.122	0.099
634.800	45.178	0.100
634.900	36.314	0.100
635.000	35.723	0.100
635.100	65.688	0.100
635.200	59.414	0.100
635.300	29.802	0.100
635.400	48.187	0.100
635.500	42.773	0.100
635.600	26.232	0.100
635.700	33.126	0.100
635.800	42.556	0.100
635.900	60.837	0.100
636.000	60.996	0.100
636.100	50.278	0.100
636.200	25.889	0.100
636.300	18.388	0.100
636.400	51.804	0.100
636.500	46.293	0.100
636.600	57.848	0.100
636.700	34.181	0.100
636.800	61.345	0.100
636.900	35.637	0.100
637.000	61.319	0.100
637.100	48.351	0.100
637.200	39.998	0.100
637.300	44.136	0.100
637.400	52.420	0.100
637.500	68.024	0.100
637.600	48.948	0.100
637.700	32.712	0.100
637.800	48.733	0.100
637.900	51.913	0.100
638.000	55.291	0.100
638.100	44.662	0.100
638.200	50.231	0.100
638.300	42.120	0.100
638.400	43.879	0.100
638.500	42.129	0.100
638.600	74.065	0.100
638.700	75.443	0.100
638.800	44.627	0.100
638.900	39.649	0.100
639.000	34.930	0.100
639.100	56.309	0.100
639.200	48.762	0.100
639.300	67.981	0.100
639.400	81.570	0.100
639.500	51.667	0.100
639.600	81.301	0.100
639.700	74.097	0.100
639.800	48.440	0.100
639.900	69.288	0.100
640.000	62.923	0.100
640.100	57.478	0.100
640.200	71.038	0.100
640.300	62.618	0.100
640.400	67.724	0.099
640.500	69.771	0.100
640.600	84.360	0.100
640.700	79.871	0.100
640.800	73.807	0.100
640.900	89.716	0.100
641.000	79.657	0.100
641.100	48.360	0.100
641.200	73.548	0.100
641.300	94.497	0.100
641.400	95.217	0.100
641.500	69.393	0.100
641.600	94.215	0.099
641.700	102.145	0.100
641.800	96.905	0.100
641.900	76.762	0.100
642.000	101.704	0.099
642.100	95.482	0.100
642.200	64.136	0.100
642.300	111.721	0.100
642.400	81.993	0.100
642.500	105.099	0.100
642.600	108.304	0.100
642.700	93.973	0.100
642.800	106.691	0.100
642.900	81.996	0.100
643.000	123.414	0.100
643.100	95.508	0.100
643.200	104.300	0.100
643.300	107.970	0.100
643.400	90.277	0.100
643.500	126.317	0.100
643.600	102.315	0.100
643.700	149.253	0.100
643.800	99.479	0.100
643.900	94.247	0.100
644.000	102.368	0.100
644.100	102.152	0.100
644.200	125.133	0.100
644.300	151.417	0.100
644.400	128.053	0.100
644.500	114.233	0.100
644.600	115.529	0.100
644.700	119.606	0.100
644.800	89.140	0.100
644.900	113.721	0.100
645.000	140.280	0.100
645.100	109.148	0.100
645.200	128.190	0.100
645.300	130.829	0.100
645.400	134.912	0.100
645.500	129.822	0.100
645.600	119.463	0.100
645.700	158.997	0.100
645.800	121.593	0.100
645.900	127.839	0.100
646.000	116.268	0.100
646.100	116.868	0.100
646.200	136.446	0.100
646.300	156.780	0.100
646.400	154.644	0.100
646.500	135.351	0.100
646.600	138.099	0.100
646.700	145.640	0.099
646.800	140.682	0.100
646.900	116.794	0.100
647.000	144.324	0.100
647.100	168.403	0.100
647.200	142.211	0.100
647.300	148.656	0.100
647.400	127.910	0.100
647.500	139.388	0.100
647.600	156.648	0.100
647.700	137.232	0.100
647.800	162.349	0.100
647.900	161.593	0.100
648.000	141.741	0.100
648.100	143.123	0.100
648.200	155.460	0.100
648.300	151.036	0.100
648.400	111.840	0.100
648.500	109.682	0.100
648.600	161.059	0.100
648.700	158.381	0.100
648.800	138.620	0.100
648.900	119.514	0.100
649.000	149.753	0.100
649.100	170.190	0.100
649.200	162.680	0.100
649.300	144.214	0.100
649.400	156.304	0.100
649.500	133.669	0.100
649.600	138.228	0.100
649.700	152.616	0.100
649.800	153.319	0.100
649.900	139.415	0.100
650.000	128.762	0.100
650.100	140.043	0.100
650.200	145.703	0.100
650.300	155.251	0.100
650.400	141.790	0.100
650.500	144.365	0.100
650.600	133.863	0.100
650.700	140.869	0.100
650.800	139.574	0.100
650.900	132.047	0.100
651.000	129.854	0.100
651.100	149.382	0.100
651.200	142.773	0.100
651.300	158.153	0.100
651.400	142.472	0.100
651.500	103.848	0.100
651.600	130.358	0.100
651.700	125.096	0.100
651.800	153.133	0.100
651.900	155.471	0.100
652.000	126.582	0.100
652.100	136.423	0.100
652.200	127.648	0.100
652.300	118.094	0.100
652.400	146.359	0.100
652.500	160.566	0.100
652.600	116.164	0.100
652.700	130.067	0.100
652.800	140.202	0.100
652.900	160.276	0.100
653.000	143.407	0.100
653.100	121.296	0.100
653.200	131.324	0.100
653.300	121.893	0.100
653.400	115.540	0.100
653.500	103.223	0.100
653.600	141.323	0.100
653.700	123.704	0.100
653.800	143.200	0.100
653.900	149.981	0.100
654.000	133.811	0.100
654.100	142.472	0.100
654.200	127.337	0.100
654.300	133.785	0.100
654.400	129.784	0.100
654.500	135.144	0.100
654.600	130.886	0.100
654.700	153.138	0.100
654.800	144.207	0.100
654.900	123.337	0.100
655.000	138.492	0.100
655.100	134.130	0.100
655.200	127.421	0.100
655.300	124.732	0.100
655.400	152.211	0.100
655.500	127.131	0.100
655.600	103.659	0.100
655.700	133.982	0.100
655.800	143.169	0.100
655.900	133.486	0.100
656.000	142.067	0.100
656.100	116.826	0.100
656.200	123.544	0.100
656.300	112.087	0.100
656.400	154.913	0.100
656.500	137.771	0.100
656.600	137.202	0.100
656.700	138.789	0.100
656.800	122.292	0.100
656.900	132.770	0.100
657.000	121.023	0.100
657.100	130.686	0.100
657.200	133.085	0.100
657.300	122.661	0.100
657.400	137.558	0.100
657.500	116.928	0.100
657.600	139.968	0.100
657.700	139.080	0.100
657.800	146.196	0.100
657.900	114.707	0.100
658.000	97.616	0.100
658.100	124.091	0.100
658.200	112.424	0.100
658.300	125.023	0.100
658.400	116.404	0.100
658.500	116.933	0.100
658.600	104.599	0.100
658.700	125.373	0.100
658.800	100.800	0.100
658.900	118.789	0.100
659.000	122.278	0.100
659.100	104.793	0.100
659.200	116.511	0.100
659.300	134.645	0.100
659.400	118.214	0.100
659.500	113.711	0.100
659.600	137.011	0.100
659.700	134.427	0.100
659.800	123.053	0.100
659.900	120.889	0.100
660.000	108.507	0.100
660.100	117.891	0.100
660.200	141.552	0.100
660.300	145.337	0.100
660.400	125.355	0.100
660.500	103.780	0.100
660.600	121.214	0.100
660.700	98.358	0.100
660.800	104.532	0.100
660.900	119.584	0.100
661.000	94.673	0.100
661.100	111.329	0.100
661.200	138.098	0.100
661.300	117.503	0.100
661.400	113.164	0.100
661.500	144.602	0.100
661.600	104.972	0.100
661.700	122.910	0.100
661.800	114.945	0.100
661.900	120.786	0.100
662.000	119.915	0.100
662.100	115.468	0.100
662.200	91.436	0.100
662.300	117.816	0.100
662.400	137.438	0.100
662.500	115.169	0.100
662.600	123.202	0.100
662.700	115.490	0.100
662.800	112.105	0.100
662.900	142.213	0.100
663.000	113.831	0.100
663.100	128.994	0.100
663.200	128.971	0.100
663.300	120.492	0.100
663.400	126.819	0.100
663.500	100.006	0.100
663.600	112.085	0.100
663.700	118.856	0.100
663.800	98.516	0.100
663.900	131.821	0.100
664.000	119.588	0.100
664.100	118.419	0.100
664.200	141.835	0.100
664.300	103.401	0.100
664.400	121.834	0.100
664.500	117.954	0.100
664.600	87.791	0.100
664.700	100.331	0.100
664.800	115.187	0.100
664.900	103.486	0.100
665.000	120.692	0.100
665.100	119.369	0.100
665.200	119.481	0.100
665.300	123.499	0.100
665.400	117.342	0.100
665.500	121.363	0.100
665.600	87.185	0.100
665.700	102.584	0.100
665.800	137.122	0.100
665.900	134.169	0.100
666.000	108.088	0.100
666.100	115.943	0.100
666.200	137.202	0.100
666.300	117.702	0.100
666.400	98.591	0.100
666.500	104.482	0.100
666.600	120.970	0.100
666.700	115.617	0.100
666.800	124.198	0.100
666.900	112.357	0.100
667.000	104.292	0.100
667.100	131.043	0.100
667.200	100.020	0.100
667.300	112.687	0.100
667.400	122.828	0.100
667.500	109.192	0.100
667.600	92.417	0.100
667.700	140.472	0.100
667.800	126.158	0.100
667.900	107.377	0.100
668.000	108.255	0.100
668.100	133.868	0.100
668.200	115.311	0.100
668.300	122.919	0.100
668.400	126.489	0.100
668.500	121.802	0.100
668.600	106.844	0.100
668.700	113.171	0.100
668.800	115.807	0.100
668.900	117.227	0.100
669.000	120.073	0.099
669.100	118.299	0.100
669.200	127.864	0.100
669.300	114.062	0.100
669.400	115.222	0.100
669.500	109.932	0.100
669.600	95.089	0.100
669.700	110.965	0.100
669.800	110.026	0.100
669.900	112.314	0.100
670.000	113.108	0.100
670.100	88.498	0.100
670.200	142.309	0.100
670.300	118.723	0.100
670.400	96.100	0.100
670.500	116.794	0.100
670.600	129.017	0.100
670.700	100.344	0.100
670.800	124.715	0.100
670.900	154.439	0.100
671.000	118.802	0.100
671.100	98.143	0.100
671.200	98.137	0.100
671.300	107.683	0.100
671.400	121.421	0.100
671.500	125.528	0.100
671.600	102.128	0.100
671.700	103.458	0.100
671.800	119.357	0.100
671.900	111.402	0.100
672.000	123.773	0.100
672.100	105.188	0.100
672.200	122.485	0.100
672.300	122.974	0.100
672.400	90.496	0.100
672.500	102.967	0.100
672.600	129.506	0.100
672.700	115.327	0.100
672.800	101.521	0.100
672.900	113.044	0.100
673.000	100.172	0.100
673.100	100.367	0.100
673.200	94.252	0.100
673.300	105.868	0.100
673.400	126.198	0.100
673.500	104.610	0.100
673.600	121.436	0.100
673.700	119.415	0.100
673.800	105.861	0.100
673.900	129.119	0.100
674.000	128.981	0.100
674.100	100.513	0.100
674.200	113.675	0.100
674.300	112.846	0.100
674.400	108.875	0.100
674.500	104.923	0.100
674.600	88.921	0.100
674.700	110.143	0.100
674.800	108.609	0.100
674.900	110.664	0.100
675.000	101.236	0.100
675.100	116.178	0.100
675.200	102.783	0.099
675.300	117.464	0.100
675.400	98.944	0.100
675.500	105.568	0.100
675.600	122.307	0.100
675.700	110.719	0.100
675.800	119.967	0.100
675.900	108.800	0.100
676.000	109.720	0.100
676.100	105.866	0.100
676.200	80.551	0.100
676.300	106.099	0.100
676.400	111.554	0.100
676.500	134.654	0.100
676.600	126.221	0.100
676.700	130.964	0.100
676.800	130.859	0.100
676.900	137.947	0.100
677.000	117.446	0.100
677.100	91.741	0.100
677.200	115.839	0.100
677.300	108.641	0.100
677.400	88.411	0.100
677.500	118.613	0.100
677.600	113.654	0.100
677.700	96.277	0.100
677.800	97.037	0.100
677.900	102.099	0.100
678.000	122.741	0.100
678.100	102.276	0.100
678.200	129.513	0.100
678.300	125.900	0.100
678.400	110.473	0.100
678.500	89.799	0.100
678.600	99.726	0.100
678.700	58.024	0.100
678.800	92.861	0.100
678.900	113.446	0.100
679.000	105.200	0.100
679.100	105.078	0.100
679.200	97.420	0.100
679.300	111.802	0.100
679.400	125.162	0.100
679.500	128.194	0.100
679.600	86.974	0.100
679.700	108.156	0.100
679.800	138.521	0.100
679.900	97.320	0.100
680.000	101.311	0.100
680.100	115.036	0.100
680.200	112.281	0.100
680.300	118.972	0.100
680.400	113.972	0.100
680.500	92.403	0.100
680.600	82.400	0.100
680.700	89.403	0.100
680.800	93.639	0.100
680.900	124.822	0.100
681.000	109.894	0.100
681.100	100.883	0.100
681.200	108.836	0.100
681.300	110.692	0.100
681.400	115.391	0.100
681.500	97.675	0.100
681.600	102.550	0.100
681.700	115.310	0.100
681.800	81.571	0.100
681.900	119.553	0.100
682.000	130.785	0.100
682.100	128.474	0.100
682.200	124.188	0.100
682.300	110.249	0.100
682.400	97.045	0.100
682.500	86.561	0.100
682.600	107.784	0.100
682.700	105.281	0.100
682.800	100.582	0.100
682.900	127.242	0.100
683.000	88.318	0.100
683.100	88.176	0.100
683.200	121.507	0.100
683.300	110.436	0.100
683.400	115.422	0.100
683.500	123.498	0.100
683.600	118.904	0.100
683.700	87.682	0.100
683.800	106.214	0.100
683.900	102.104	0.100
684.000	101.415	0.100
684.100	116.657	0.100
684.200	127.010	0.100
684.300	106.384	0.100
684.400	94.701	0.100
684.500	115.823	0.100
684.600	111.198	0.100
684.700	134.101	0.100
684.800	74.191	0.100
684.900	106.918	0.100
685.000	87.941	0.100
685.100	93.311	0.100
685.200	109.769	0.100
685.300	115.188	0.100
685.400	136.620	0.100
685.500	117.578	0.100
685.600	115.077	0.100
685.700	101.755	0.100
685.800	115.775	0.100
685.900	126.473	0.100
686.000	92.028	0.100
686.100	106.562	0.100
686.200	118.879	0.100
686.300	103.043	0.100
686.400	128.059	0.100
686.500	106.407	0.099
686.600	75.668	0.100
686.700	91.992	0.100
686.800	115.837	0.100
686.900	94.296	0.100
687.000	107.522	0.100
687.100	119.481	0.100
687.200	116.849	0.100
687.300	92.542	0.100
687.400	100.924	0.100
687.500	114.662	0.100
687.600	85.904	0.100
687.700	144.047	0.100
687.800	90.163	0.100
687.900	95.875	0.100
688.000	98.103	0.100
688.100	111.866	0.100
688.200	140.090	0.100
688.300	121.213	0.100
688.400	115.815	0.100
688.500	91.564	0.100
688.600	119.406	0.100
688.700	99.651	0.100
688.800	108.085	0.100
688.900	103.439	0.100
689.000	108.101	0.100
689.100	132.319	0.100
689.200	107.841	0.100
689.300	103.494	0.100
689.400	88.442	0.100
689.500	113.241	0.100
689.600	128.276	0.100
689.700	76.387	0.100
689.800	102.209	0.100
689.900	111.336	0.100
690.000	105.168	0.100
690.100	107.785	0.100
690.200	110.065	0.100
690.300	101.439	0.100
690.400	106.602	0.100
690.500	96.686	0.100
690.600	117.609	0.100
690.700	105.525	0.100
690.800	122.171	0.100
690.900	94.748	0.100
691.000	97.112	0.100
691.100	83.233	0.100
691.200	68.121	0.100
691.300	88.435	0.100
691.400	71.631	0.100
691.500	69.380	0.100
691.600	66.277	0.100
691.700	48.319	0.100
691.800	59.655	0.100
691.900	39.438	0.100
692.000	27.236	0.100
692.100	31.170	0.100
692.200	33.586	0.100
692.300	13.702	0.100
692.400	8.405	0.100
692.500	26.946	0.100
692.600	-19.612	0.100
692.700	-1.351	0.100
692.800	10.472	0.100
692.900	-24.893	0.100
693.000	-6.128	0.100
693.100	-28.997	0.100
693.200	-23.066	0.100
693.300	-14.052	0.100
693.400	-37.371	0.100
693.500	-37.826	0.100
693.600	-36.242	0.099
693.700	-31.519	0.100
693.800	-1.701	0.100
693.900	-11.521	0.100
694.000	-34.872	0.100
694.100	-28.421	0.100
694.200	-32.095	0.100
694.300	-53.449	0.100
694.400	-11.216	0.100
694.500	-38.874	0.100
694.600	-23.756	0.100
694.700	-26.040	0.100
694.800	-62.017	0.100
694.900	-59.199	0.100
695.000	-52.451	0.099
695.100	-29.985	0.100
695.200	-16.159	0.100
695.300	-26.675	0.099
695.400	-36.581	0.100
695.500	-48.920	0.100
695.600	-58.446	0.100
695.700	-29.094	0.099
695.800	-40.119	0.100
695.900	-34.044	0.100
696.000	-28.184	0.100
696.100	-21.023	0.100
696.200	-11.716	0.100
696.300	-35.325	0.100
696.400	-14.391	0.100
696.500	-15.589	0.100
696.600	-41.519	0.100
696.700	-33.014	0.100
696.800	-27.622	0.100
696.900	-24.931	0.100
697.000	-44.157	0.099
697.100	-47.952	0.100
697.200	-37.200	0.100
697.300	-9.318	0.100
697.400	-43.463	0.100
697.500	6.933	0.100
697.600	-12.798	0.100
697.700	-28.006	0.100
697.800	-40.646	0.100
697.900	-29.568	0.100
698.000	-39.044	0.100
698.100	-21.462	0.100
698.200	-45.634	0.100
698.300	-39.418	0.099
698.400	-13.241	0.099
698.500	-32.027	0.100
698.600	-21.751	0.100
698.700	-19.543	0.099
698.800	-42.327	0.099
698.900	9.221	0.100
699.000	-8.417	0.100
699.100	-12.742	0.100
699.200	-19.438	0.100
699.300	-0.163	0.100
699.400	-14.442	0.100
699.500	-7.843	0.100
699.600	-10.805	0.100
699.700	-29.317	0.100
699.800	-36.286	0.100
699.900	-42.769	0.099
700.000	-1.646	0.100
700.100	-28.081	0.099
700.200	-33.831	0.100
700.300	-24.400	0.100
700.400	-37.531	0.099
700.500	-40.682	0.099
700.600	-14.114	0.100
700.700	-40.693	0.100
700.800	-10.370	0.099
700.900	-2.428	0.099
701.000	16.347	0.100
701.100	3.697	0.100
701.200	-26.920	0.100
701.300	-32.914	0.100
701.400	-27.186	0.100
701.500	-23.049	0.099
701.600	-14.303	0.100
701.700	-15.092	0.099
701.800	-21.070	0.099
701.900	-8.408	0.100
702.000	7.261	0.100
702.100	-5.773	0.100
702.200	-3.048	0.099
702.300	-23.775	0.099
702.400	-33.045	0.100
702.500	-29.507	0.099
702.600	-11.795	0.100
702.700	5.114	0.100
702.800	-27.183	0.100
702.900	-4.191	0.100
703.000	-27.768	0.099
703.100	-44.965	0.099
703.200	-11.760	0.099
703.300	-0.236	0.100
703.400	-33.000	0.099
703.500	-22.186	0.099
703.600	-6.082	0.099
703.700	-20.807	0.100
703.800	-19.632	0.100
703.900	-36.492	0.100
704.000	-2.294	0.099
704.100	-36.746	0.099
704.200	-14.728	0.100
704.300	-10.350	0.100
704.400	-15.096	0.099
704.500	-13.658	0.100
704.600	-12.592	0.100
704.700	-48.674	0.100
704.800	-6.880	0.099
704.900	3.182	0.100
705.000	0.852	0.100
705.100	-18.370	0.100
705.200	-7.540	0.100
705.300	-23.645	0.100
705.400	-4.854	0.100
705.500	1.268	0.100
705.600	-2.359	0.099
705.700	-22.410	0.100
705.800	-22.222	0.100
705.900	-29.146	0.100
706.000	-24.750	0.100
706.100	-2.626	0.099
706.200	-24.856	0.100
706.300	-35.867	0.100
706.400	-28.058	0.100
706.500	-14.425	0.100
706.600	-21.952	0.100
706.700	-27.940	0.099
706.800	-24.286	0.100
706.900	2.358	0.099
707.000	-5.723	0.100
707.100	-43.243	0.100
707.200	-3.989	0.100
707.300	-42.225	0.100
707.400	-13.423	0.099
707.500	-47.078	0.099
707.600	-13.527	0.100
707.700	-6.117	0.100
707.800	-4.396	0.100
707.900	-29.731	0.100
708.000	-39.751	0.100
708.100	-18.156	0.100
708.200	-20.165	0.100
708.300	-22.082	0.099
708.400	-3.483	0.100
708.500	-35.090	0.099
708.600	-0.509	0.100
708.700	-13.754	0.099
708.800	-44.735	0.100
708.900	-10.459	0.099
709.000	-16.879	0.100
709.100	-32.024	0.100
709.200	-38.917	0.099
709.300	-24.614	0.100
709.400	-19.689	0.100
709.500	-28.192	0.100
709.600	-37.941	0.100
709.700	-45.167	0.100
709.800	-15.656	0.100
709.900	-41.439	0.100
710.000	-23.876	0.100
710.100	-23.083	0.100
710.200	-18.447	0.100
710.300	-43.642	0.100
710.400	-58.127	0.100
710.500	-2.251	0.099
710.600	-34.870	0.100
710.700	-48.712	0.100
710.800	-31.400	0.100
710.900	-31.263	0.100
711.000	-39.534	0.100
711.100	-54.995	0.099
711.200	-34.629	0.100
711.300	-27.898	0.100
711.400	-21.080	0.100
711.500	-37.419	0.100
711.600	-35.133	0.100
711.700	-57.076	0.100
711.800	-19.610	0.099
711.900	-23.946	0.099
712.000	-38.664	0.100
712.100	-47.307	0.100
712.200	-19.363	0.100
712.300	-20.186	0.099
712.400	-24.450	0.099
712.500	-26.476	0.100
712.600	-43.927	0.099
712.700	-21.659	0.099
712.800	-23.606	0.099
712.900	-33.518	0.100
713.000	-40.649	0.100
713.100	-35.422	0.099
713.200	-27.066	0.099
713.300	-44.449	0.100
713.400	-39.279	0.099
713.500	-22.314	0.100
713.600	-58.392	0.099
713.700	-10.772	0.099
713.800	-44.766	0.100
713.900	-33.767	0.099
714.000	-43.615	0.099
714.100	-56.377	0.099
714.200	-45.698	0.099
714.300	-6.124	0.100
714.400	-30.159	0.099
714.500	-34.516	0.099
714.600	-45.744	0.099
714.700	-38.001	0.100
714.800	-30.045	0.100
714.900	-20.405	0.099
715.000	-45.233	0.100
715.100	-21.559	0.100
715.200	-73.545	0.100
715.300	-49.370	0.100
715.400	-37.231	0.099
715.500	-38.451	0.100
715.600	-35.235	0.100
715.700	-21.748	0.100
715.800	-44.466	0.100
715.900	-59.896	0.100
716.000	-39.202	0.100
716.100	-46.859	0.100
716.200	-33.748	0.100
716.300	-27.210	0.100
716.400	-42.394	0.099
716.500	-68.135	0.100
716.600	-48.210	0.099
716.700	-33.609	0.099
716.800	-28.337	0.099
716.900	-66.789	0.099
717.000	-28.192	0.099
717.100	-12.287	0.099
717.200	-41.452	0.099
717.300	-65.101	0.100
717.400	-36.872	0.100
717.500	-25.499	0.100
717.600	-23.403	0.099
717.700	-40.259	0.100
717.800	-31.215	0.100
717.900	-44.346	0.100
718.000	-44.407	0.099
718.100	-51.689	0.099
718.200	-47.579	0.100
718.300	-71.286	0.100
718.400	-43.051	0.100
718.500	-44.641	0.099
718.600	-26.542	0.099
718.700	-31.396	0.100
718.800	-76.580	0.100
718.900	-30.775	0.099
719.000	-26.282	0.100
719.100	-38.229	0.100
719.200	-44.686	0.100
719.300	-47.305	0.100
719.400	-65.229	0.100
719.500	-21.176	0.099
719.600	-30.170	0.099
719.700	-51.930	0.100
719.800	-36.510	0.099
719.900	-25.544	0.099
720.000	-50.322	0.100
720.100	-52.606	0.100
720.200	-38.599	0.099
720.300	-47.719	0.100
720.400	-41.359	0.100
720.500	-54.289	0.100
720.600	-41.511	0.100
720.700	-52.978	0.100
720.800	-47.590	0.100
720.900	-45.166	0.100
721.000	-45.845	0.100
721.100	-34.597	0.100
721.200	-51.842	0.099
721.300	-21.886	0.100
721.400	-49.755	0.100
721.500	-39.012	0.100
721.600	-34.515	0.100
721.700	-69.072	0.099
721.800	-41.017	0.100
721.900	-58.404	0.100
722.000	-75.216	0.099
722.100	-56.007	0.100
722.200	-57.032	0.100
722.300	-48.384	0.100
722.400	-73.561	0.099
722.500	-42.629	0.100
722.600	-10.432	0.100
722.700	-39.628	0.100
722.800	-65.050	0.100
722.900	-54.812	0.099
723.000	-32.285	0.099
723.100	-29.700	0.100
723.200	-54.763	0.100
723.300	-41.774	0.100
723.400	-35.128	0.099
723.500	-31.684	0.099
723.600	-50.169	0.100
723.700	-44.136	0.100
723.800	-41.499	0.099
723.900	-33.113	0.099
724.000	-58.855	0.100
724.100	-89.502	0.099
724.200	-29.795	0.100
724.300	-45.132	0.099
724.400	-40.492	0.099
724.500	-26.447	0.100
724.600	-26.798	0.100
724.700	-31.002	0.100
724.800	-59.592	0.100
724.900	-53.817	0.100
725.000	-70.155	0.100
725.100	-56.336	0.100
725.200	-48.726	0.100
725.300	-55.078	0.099
725.400	-29.786	0.100
725.500	-41.011	0.100
725.600	-76.422	0.100
725.700	-20.531	0.100
725.800	-41.600	0.100
725.900	-33.981	0.100
726.000	-42.904	0.100
726.100	-75.587	0.100
726.200	-58.932	0.100
726.300	-51.057	0.100
726.400	-71.364	0.099
726.500	-63.909	0.100
726.600	-25.266	0.100
726.700	-36.980	0.099
726.800	-63.414	0.100
726.900	-37.821	0.100
727.000	-50.169	0.100
727.100	-49.770	0.100
727.200	-34.796	0.100
727.300	-27.296	0.100
727.400	-43.986	0.100
727.500	-33.275	0.100
727.600	-52.205	0.100
727.700	-66.216	0.100
727.800	-30.932	0.100
727.900	-28.553	0.100
728.000	-50.178	0.100
728.100	-50.519	0.100
728.200	-58.406	0.099
728.300	-59.010	0.099
728.400	-34.763	0.100
728.500	-47.630	0.100
728.600	-26.321	0.100
728.700	-45.871	0.100
728.800	-51.326	0.100
728.900	-75.539	0.100
729.000	-44.582	0.100
729.100	-32.392	0.099
729.200	-37.994	0.100
729.300	-45.866	0.100
729.400	-58.519	0.100
729.500	-44.757	0.100
729.600	-72.118	0.099
729.700	-52.461	0.100
729.800	-46.883	0.100
729.900	-37.552	0.100
730.000	-51.658	0.099
730.100	-40.830	0.100
730.200	-48.419	0.100
730.300	-50.963	0.100
730.400	-48.518	0.100
730.500	-27.217	0.100
730.600	-43.757	0.100
730.700	-45.732	0.100
730.800	-65.188	0.099
730.900	-49.739	0.100
731.000	-45.468	0.100
731.100	-44.102	0.100
731.200	-57.437	0.100
731.300	-58.909	0.100
731.400	-27.794	0.100
731.500	-53.512	0.100
731.600	-38.010	0.100
731.700	-63.379	0.100
731.800	-54.998	0.100
731.900	-42.612	0.099
732.000	-66.261	0.100
732.100	-39.134	0.100
732.200	-55.338	0.099
732.300	-35.370	0.100
732.400	-45.774	0.100
732.500	-47.029	0.100
732.600	-63.339	0.099
732.700	-55.795	0.100
732.800	-20.894	0.100
732.900	-34.326	0.100
733.000	-53.146	0.100
733.100	-51.270	0.100
733.200	-40.932	0.100
733.300	-53.201	0.100
733.400	-43.950	0.100
733.500	-70.287	0.099
733.600	-30.333	0.100
733.700	-43.668	0.100
733.800	-59.213	0.100
733.900	-51.075	0.100
734.000	-43.875	0.099
734.100	-67.642	0.099
734.200	-60.105	0.100
734.300	-45.603	0.100
734.400	-41.358	0.100
734.500	-40.461	0.100
734.600	-48.090	0.099
734.700	-58.055	0.100
734.800	-50.927	0.099
734.900	-43.074	0.100
735.000	-43.738	0.100
735.100	-34.906	0.100
735.200	-54.160	0.100
735.300	-46.758	0.099
735.400	-47.285	0.100
735.500	-43.799	0.100
735.600	-18.617	0.100
735.700	-53.079	0.099
735.800	-60.498	0.100
735.900	-29.265	0.100
736.000	-50.951	0.100
736.100	-56.884	0.099
736.200	-74.636	0.100
736.300	-29.953	0.100
736.400	-61.972	0.100
736.500	-45.173	0.100
736.600	-58.333	0.100
736.700	-38.480	0.100
736.800	-31.661	0.100
736.900	-51.960	0.100
737.000	-54.168	0.100
737.100	-35.044	0.099
737.200	-42.194	0.099
737.300	-49.066	0.099
737.400	-53.231	0.100
737.500	-53.804	0.100
737.600	-74.750	0.100
737.700	-42.628	0.099
737.800	-43.417	0.099
737.900	-21.219	0.100
738.000	-41.626	0.100
738.100	-55.618	0.099
738.200	-35.243	0.100
738.300	-50.743	0.100
738.400	-25.315	0.099
738.500	-37.392	0.100
738.600	-35.299	0.099
738.700	-43.429	0.100
738.800	-47.203	0.099
738.900	-46.495	0.100
739.000	-46.939	0.100
739.100	-49.242	0.100
739.200	-16.862	0.100
739.300	-19.659	0.100
739.400	-23.146	0.099
739.500	-37.763	0.100
739.600	-35.880	0.100
739.700	-44.727	0.100
739.800	-57.897	0.099
739.900	-35.638	0.100
740.000	-40.090	0.100
740.100	-37.104	0.100
740.200	-58.070	0.099
740.300	-24.889	0.100
740.400	-67.195	0.100
740.500	-56.707	0.100
740.600	-45.697	0.099
740.700	-52.346	0.099
740.800	-31.861	0.100
740.900	-54.318	0.100
741.000	-39.315	0.100
741.100	-57.269	0.099
741.200	-51.681	0.099
741.300	-17.460	0.099
741.400	-64.646	0.100
741.500	-35.923	0.100
741.600	-34.194	0.099
741.700	-37.960	0.100
741.800	-44.109	0.100
741.900	-27.389	0.100
742.000	-44.574	0.100
742.100	-59.971	0.099
742.200	-63.855	0.100
742.300	-35.040	0.100
742.400	-41.448	0.100
742.500	-32.881	0.100
742.600	-31.168	0.100
742.700	-34.108	0.100
742.800	-26.141	0.100
742.900	-47.248	0.100
743.000	-38.379	0.100
743.100	-39.361	0.100
743.200	-57.132	0.099
743.300	-30.291	0.100
743.400	-42.107	0.099
743.500	-59.994	0.100
743.600	-70.135	0.100
743.700	-51.635	0.100
743.800	-76.842	0.100
743.900	-72.342	0.099
744.000	-31.032	0.100
744.100	-46.107	0.100
744.200	-35.339	0.100
744.300	-33.044	0.099
744.400	-36.756	0.100
744.500	-35.565	0.100
744.600	-20.116	0.100
744.700	-54.879	0.100
744.800	-42.699	0.100
744.900	-54.515	0.099
745.000	-29.746	0.100
745.100	-58.994	0.100
745.200	-64.739	0.099
745.300	-24.869	0.100
745.400	-15.876	0.100
745.500	-21.186	0.100
745.600	-41.655	0.099
745.700	-32.258	0.099
745.800	-23.827	0.100
745.900	-55.646	0.100
746.000	-30.585	0.100
746.100	-36.563	0.100
746.200	-44.336	0.100
746.300	-46.172	0.100
746.400	-44.771	0.100
746.500	-50.213	0.099
746.600	-41.987	0.099
746.700	-41.003	0.099
746.800	-49.716	0.099
746.900	-20.747	0.100
747.000	-33.933	0.099
747.100	-56.718	0.099
747.200	-44.453	0.099
747.300	-29.132	0.100
747.400	-34.223	0.100
747.500	-54.578	0.099
747.600	-56.687	0.099
747.700	-67.657	0.099
747.800	-36.088	0.099
747.900	-25.567	0.100
748.000	-47.283	0.099
748.100	-36.033	0.099
748.200	-56.894	0.100
748.300	-53.109	0.100
748.400	-30.506	0.099
748.500	-47.431	0.100
748.600	-44.174	0.100
748.700	-35.562	0.100
748.800	-43.025	0.099
748.900	-35.419	0.100
749.000	-44.375	0.100
749.100	-53.470	0.100
749.200	-47.741	0.099
749.300	-24.578	0.099
749.400	-58.685	0.099
749.500	-43.572	0.100
749.600	-51.321	0.100
749.700	-53.784	0.099
749.800	-53.476	0.099
749.900	-14.878	0.100
750.000	-37.475	0.100
750.100	-37.599	0.100
750.200	-34.735	0.100
750.300	-42.252	0.100
750.400	-47.978	0.100
750.500	-47.127	0.100
750.600	-16.735	0.100
750.700	-29.083	0.100
750.800	-41.720	0.099
750.900	-54.889	0.100
751.000	-25.209	0.100
751.100	-31.258	0.099
751.200	-25.270	0.100
751.300	-50.746	0.100
751.400	-42.619	0.100
751.500	-35.639	0.099
751.600	-13.463	0.100
751.700	-38.083	0.100
751.800	-39.668	0.099
751.900	-38.527	0.100
752.000	-65.186	0.099
752.100	-49.206	0.100
752.200	-46.848	0.100
752.300	-55.022	0.100
752.400	-37.275	0.100
752.500	-35.262	0.099
752.600	-24.709	0.100
752.700	-32.058	0.100
752.800	-51.071	0.100
752.900	-41.784	0.100
753.000	-47.862	0.100
753.100	-47.767	0.100
753.200	-12.654	0.100
753.300	-42.827	0.099
753.400	-57.759	0.099
753.500	-27.730	0.100
753.600	-19.014	0.100
753.700	-32.726	0.099
753.800	-30.698	0.100
753.900	-35.517	0.100
754.000	-48.310	0.099
754.100	-63.257	0.100
754.200	-22.062	0.100
754.300	-24.095	0.099
754.400	-43.981	0.100
754.500	-28.043	0.100
754.600	-34.581	0.100
754.700	-46.232	0.100
754.800	-37.943	0.099
754.900	-58.005	0.099
755.000	-23.140	0.100
755.100	-30.441	0.100
755.200	-42.808	0.100
755.300	-29.047	0.100
755.400	-41.938	0.100
755.500	-25.634	0.100
755.600	-30.744	0.100
755.700	-37.754	0.100
755.800	-30.818	0.099
755.900	-66.086	0.100
756.000	-59.151	0.099
756.100	-14.760	0.099
756.200	-45.322	0.100
756.300	-44.987	0.099
756.400	-61.713	0.100
756.500	-34.683	0.100
756.600	-25.914	0.100
756.700	-43.176	0.100
756.800	-46.258	0.100
756.900	-59.597	0.100
757.000	-20.594	0.100
757.100	-16.347	0.099
757.200	-42.285	0.100
757.300	-21.717	0.100
757.400	-52.608	0.100
757.500	-39.315	0.099
757.600	-18.168	0.100
757.700	-49.849	0.099
757.800	-36.289	0.100
757.900	-25.681	0.100
758.000	-35.953	0.099
758.100	-47.908	0.100
758.200	-34.937	0.100
758.300	-43.937	0.100
758.400	-26.196	0.099
758.500	-45.609	0.100
758.600	-42.457	0.099
758.700	-22.465	0.100
758.800	-50.371	0.100
758.900	-52.945	0.099
759.000	-48.825	0.099
759.100	-34.317	0.100
759.200	-34.811	0.100
759.300	-25.721	0.100
759.400	-53.315	0.099
759.500	-22.263	0.100
759.600	-68.919	0.100
759.700	-3.357	0.100
759.800	6.610	0.100
759.900	-43.451	0.100
760.000	-24.975	0.100
760.100	-35.238	0.100
760.200	-38.201	0.100
760.300	-18.648	0.099
760.400	-43.789	0.099
760.500	-24.535	0.099
760.600	-32.415	0.099
760.700	-26.101	0.100
760.800	-29.104	0.099
760.900	-44.953	0.100
761.000	-36.073	0.100
761.100	-23.821	0.100
761.200	-55.210	0.100
761.300	-54.475	0.099
761.400	-15.767	0.100
761.500	-24.733	0.100
761.600	-53.823	0.100
761.700	-46.411	0.099
761.800	-18.364	0.100
761.900	-33.170	0.100
762.000	-56.176	0.100
762.100	-22.230	0.100
762.200	-40.140	0.099
762.300	-35.022	0.100
762.400	-30.166	0.100
762.500	-50.800	0.100
762.600	-23.097	0.100
762.700	-40.515	0.100
762.800	-47.513	0.100
762.900	-50.463	0.100
763.000	-38.729	0.100
763.100	-12.626	0.100
763.200	-25.056	0.100
763.300	-23.760	0.100
763.400	-69.074	0.100
763.500	-16.636	0.100
763.600	-39.511	0.099
763.700	-11.406	0.100
763.800	-22.060	0.100
763.900	-36.722	0.100
764.000	-40.931	0.099
764.100	-28.092	0.100
764.200	-7.982	0.100
764.300	-56.108	0.099
764.400	-29.798	0.100
764.500	-31.413	0.100
764.600	-25.783	0.100
764.700	-44.401	0.100
764.800	-26.141	0.100
764.900	-40.763	0.099
765.000	-35.273	0.099
765.100	-22.935	0.100
765.200	-31.629	0.100
765.300	-49.162	0.100
765.400	-41.460	0.100
765.500	-55.976	0.099
765.600	-33.002	0.100
765.700	-36.305	0.100
765.800	-30.646	0.100
765.900	-28.220	0.100
766.000	-46.529	0.099
766.100	-60.819	0.100
766.200	-21.021	0.100
766.300	-30.397	0.100
766.400	-48.843	0.099
766.500	-55.326	0.099
766.600	-33.437	0.099
766.700	2.480	0.100
766.800	-24.073	0.099
766.900	-48.718	0.100
767.000	-52.713	0.099
767.100	-57.701	0.100
767.200	-44.475	0.100
767.300	-27.534	0.099
767.400	-21.706	0.099
767.500	-38.002	0.100
767.600	-24.485	0.099
767.700	-22.481	0.100
767.800	-39.222	0.099
767.900	-46.251	0.099
768.000	-26.892	0.100
768.100	-41.758	0.100
768.200	-63.797	0.099
768.300	-36.372	0.099
768.400	-16.299	0.099
768.500	-40.743	0.100
768.600	-26.290	0.100
768.700	-25.154	0.100
768.800	-21.493	0.099
768.900	-30.810	0.100
769.000	-41.137	0.100
769.100	-33.468	0.099
769.200	-26.441	0.099
769.300	-33.523	0.100
769.400	-30.707	0.100
769.500	-30.690	0.100
769.600	-43.867	0.100
769.700	-25.123	0.099
769.800	-39.927	0.100
769.900	-34.939	0.100
770.000	-30.758	0.100
770.100	-48.600	0.099
770.200	-38.395	0.099
770.300	-27.184	0.100
770.400	-53.673	0.099
770.500	-57.310	0.100
770.600	-35.806	0.099
770.700	-34.027	0.099
770.800	-29.900	0.100
770.900	-38.712	0.100
771.000	-33.565	0.100
771.100	-40.502	0.099
771.200	-23.467	0.099
771.300	-44.985	0.099
771.400	-27.618	0.099
771.500	-30.427	0.099
771.600	-38.074	0.099
771.700	-28.829	0.099
771.800	-30.771	0.100
771.900	-39.700	0.100
772.000	-32.929	0.099
772.100	-38.014	0.099
772.200	-41.992	0.099
772.300	-15.853	0.099
772.400	-4.467	0.100
772.500	-30.634	0.099
772.600	-21.842	0.100
772.700	-26.166	0.099
772.800	-37.215	0.100
772.900	-29.756	0.100
773.000	-5.357	0.099
773.100	-26.770	0.100
773.200	-31.819	0.100
773.300	-37.935	0.099
773.400	-46.248	0.099
773.500	-16.782	0.099
773.600	-22.550	0.099
773.700	-47.521	0.100
773.800	-27.370	0.100
773.900	-41.404	0.099
774.000	-19.814	0.099
774.100	-37.639	0.099
774.200	-36.561	0.100
774.300	-39.039	0.100
774.400	-31.013	0.099
774.500	-50.229	0.100
774.600	-6.333	0.100
774.700	-39.644	0.100
774.800	-36.815	0.100
774.900	-22.915	0.099
775.000	-50.590	0.099
775.100	-31.053	0.100
775.200	-36.335	0.100
775.300	-40.467	0.099
775.400	-57.194	0.099
775.500	-41.340	0.100
775.600	-40.786	0.100
775.700	-31.774	0.100
775.800	-32.461	0.099
775.900	-34.584	0.099
776.000	-53.935	0.099
776.100	-41.654	0.100
776.200	-30.761	0.099
776.300	-15.014	0.100
776.400	-49.687	0.099
776.500	-30.302	0.100
776.600	-20.287	0.100
776.700	-44.347	0.099
776.800	-52.035	0.099
776.900	-28.716	0.100
777.000	-38.287	0.100
777.100	-38.948	0.100
777.200	-36.062	0.099
777.300	-17.917	0.099
777.400	-39.978	0.100
777.500	-41.664	0.100
777.600	-16.455	0.099
777.700	-14.503	0.100
777.800	-46.470	0.099
777.900	-17.665	0.100
778.000	-50.187	0.100
778.100	-5.848	0.099
778.200	-53.263	0.099
778.300	-30.200	0.099
778.400	-37.276	0.100
778.500	-37.219	0.099
778.600	-40.290	0.100
778.700	-48.834	0.100
778.800	-16.441	0.100
778.900	-24.458	0.100
779.000	-44.968	0.100
779.100	-62.254	0.100
779.200	-26.052	0.100
779.300	-36.848	0.100
779.400	-49.429	0.100
779.500	-41.503	0.100
779.600	-6.400	0.100
779.700	-17.269	0.100
779.800	-44.466	0.100
779.900	-65.422	0.100
780.000	-27.300	0.100
780.100	-24.283	0.100
780.200	-25.638	0.100
780.300	-26.359	0.100
780.400	-31.177	0.100
780.500	-23.504	0.100
780.600	-5.032	0.100
780.700	-23.518	0.100
780.800	-46.796	0.100
780.900	-29.836	0.100
781.000	1.488	0.099
781.100	-31.979	0.099
781.200	-2.240	0.100
781.300	17.634	0.100
781.400	0.079	0.100
781.500	-20.970	0.099
781.600	3.581	0.100
781.700	39.780	0.100
781.800	30.298	0.100
781.900	39.841	0.100
782.000	42.926	0.100
782.100	12.411	0.099
782.200	47.132	0.100
782.300	41.114	0.100
782.400	35.735	0.100
782.500	52.211	0.100
782.600	43.908	0.100
782.700	60.742	0.100
782.800	58.029	0.099
782.900	67.831	0.100
783.000	21.593	0.100
783.100	41.256	0.100
783.200	70.109	0.100
783.300	34.253	0.100
783.400	50.339	0.100
783.500	33.969	0.100
783.600	42.119	0.100
783.700	25.341	0.100
783.800	38.073	0.099
783.900	65.925	0.100
784.000	42.592	0.099
784.100	59.833	0.100
784.200	65.958	0.100
784.300	42.086	0.099
784.400	71.551	0.099
784.500	56.949	0.099
784.600	37.264	0.100
784.700	65.012	0.100
784.800	59.895	0.099
784.900	55.162	0.100
785.000	18.225	0.100
785.100	45.640	0.100
785.200	66.951	0.100
785.300	15.605	0.100
785.400	56.645	0.100
785.500	53.408	0.100
785.600	58.145	0.099
785.700	64.049	0.099
785.800	64.105	0.099
785.900	29.332	0.099
786.000	52.927	0.100
786.100	39.396	0.100
786.200	43.534	0.100
786.300	43.783	0.100
786.400	36.776	0.100
786.500	47.571	0.100
786.600	34.984	0.100
786.700	56.068	0.099
786.800	37.642	0.100
786.900	23.270	0.100
787.000	62.915	0.100
787.100	72.235	0.100
787.200	50.994	0.099
787.300	52.290	0.099
787.400	46.581	0.100
787.500	48.978	0.100
787.600	41.610	0.099
787.700	34.107	0.100
787.800	68.290	0.100
787.900	64.933	0.100
788.000	47.165	0.100
788.100	57.942	0.100
788.200	44.513	0.100
788.300	69.310	0.100
788.400	33.335	0.100
788.500	59.366	0.100
788.600	88.049	0.100
788.700	35.530	0.100
788.800	40.390	0.100
788.900	50.816	0.100
789.000	61.048	0.099
789.100	77.127	0.099
789.200	86.475	0.099
789.300	76.284	0.100
789.400	62.092	0.100
789.500	67.998	0.100
789.600	47.104	0.099
789.700	64.091	0.099
789.800	53.401	0.100
789.900	61.010	0.100
790.000	69.943	0.100
790.100	60.366	0.099
790.200	78.598	0.100
790.300	48.846	0.100
790.400	101.956	0.100
790.500	108.781	0.099
790.600	83.826	0.100
790.700	99.075	0.099
790.800	103.698	0.100
790.900	101.326	0.100
791.000	83.602	0.099
791.100	77.628	0.099
791.200	89.193	0.100
791.300	94.884	0.100
791.400	95.382	0.100
791.500	103.506	0.099
791.600	109.832	0.100
791.700	109.832	0.100
791.800	70.618	0.100
791.900	68.628	0.099
792.000	95.672	0.100
792.100	105.967	0.100
792.200	97.010	0.099
792.300	103.327	0.100
792.400	94.327	0.100
792.500	109.729	0.099
792.600	114.670	0.099
792.700	88.204	0.099
792.800	96.182	0.100
792.900	109.511	0.100
793.000	112.553	0.100
793.100	81.863	0.100
793.200	128.927	0.100
793.300	143.236	0.100
793.400	105.730	0.099
793.500	115.581	0.099
793.600	122.123	0.100
793.700	105.614	0.100
793.800	112.477	0.100
793.900	130.987	0.099
794.000	129.348	0.099
794.100	125.441	0.100
794.200	116.757	0.100
794.300	119.849	0.100
794.400	128.663	0.100
794.500	132.050	0.100
794.600	152.525	0.100
794.700	97.883	0.100
794.800	148.031	0.100
794.900	119.850	0.100
795.000	109.996	0.100
795.100	134.401	0.100
795.200	142.617	0.100
795.300	137.373	0.099
795.400	135.891	0.100
795.500	129.957	0.100
795.600	141.013	0.100
795.700	127.944	0.100
795.800	141.886	0.100
795.900	150.901	0.099
796.000	124.603	0.099
796.100	145.644	0.100
796.200	129.811	0.100
796.300	126.416	0.099
796.400	131.837	0.099
796.500	148.565	0.100
796.600	141.171	0.100
796.700	149.456	0.100
796.800	152.371	0.100
796.900	168.508	0.100
797.000	156.370	0.100
797.100	136.370	0.100
797.200	132.805	0.100
797.300	161.797	0.100
797.400	146.517	0.100
797.500	160.451	0.100
797.600	132.109	0.100
797.700	134.449	0.099
797.800	138.055	0.100
797.900	144.864	0.099
798.000	155.843	0.100
798.100	141.264	0.100
798.200	166.369	0.100
798.300	130.232	0.100
798.400	148.011	0.100
798.500	145.556	0.100
798.600	147.743	0.100
798.700	167.745	0.100
798.800	155.801	0.100
798.900	157.758	0.100
799.000	138.588	0.100
799.100	145.474	0.100
799.200	150.308	0.100
799.300	160.498	0.100
799.400	139.824	0.100
799.500	138.349	0.100
799.600	170.376	0.100
799.700	159.884	0.100
799.800	136.856	0.100
799.900	153.321	0.100
800.000	163.475	0.100
