time /s	I /nA	E /V
0.100	-39.650	0.099
0.200	-28.224	0.099
0.300	-24.480	0.099
0.400	-42.520	0.099
0.500	-39.640	0.099
0.600	-16.799	0.099
0.700	-45.393	0.100
0.800	-26.246	0.099
0.900	-12.327	0.099
1.000	-29.802	0.099
1.100	-9.984	0.099
1.200	-45.026	0.099
1.300	-29.104	0.099
1.400	-42.331	0.099
1.500	-61.422	0.099
1.600	-39.417	0.099
1.700	-18.380	0.099
1.800	-28.412	0.099
1.900	-36.780	0.099
2.000	-33.419	0.099
2.100	-42.928	0.099
2.200	-38.435	0.099
2.300	-38.887	0.099
2.400	-31.024	0.099
2.500	-35.516	0.099
2.600	-36.214	0.099
2.700	-0.996	0.099
2.800	-34.474	0.099
2.900	-15.189	0.099
3.000	-35.881	0.099
3.100	-26.819	0.099
3.200	-35.580	0.099
3.300	-6.855	0.099
3.400	-39.429	0.099
3.500	-38.659	0.099
3.600	-29.673	0.099
3.700	-29.555	0.099
3.800	-0.451	0.099
3.900	-29.488	0.100
4.000	-16.628	0.099
4.100	-42.922	0.099
4.200	-32.593	0.099
4.300	-31.313	0.099
4.400	-40.525	0.099
4.500	-49.824	0.099
4.600	-36.270	0.099
4.700	-37.579	0.099
4.800	-37.796	0.099
4.900	-24.506	0.099
5.000	-32.929	0.099
5.100	-26.478	0.099
5.200	1.132	0.099
5.300	-28.141	0.100
5.400	-28.723	0.099
5.500	-53.978	0.099
5.600	-20.588	0.100
5.700	-26.085	0.099
5.800	-43.149	0.099
5.900	-43.609	0.099
6.000	-36.225	0.099
6.100	-16.867	0.099
6.200	-40.760	0.099
6.300	-42.211	0.099
6.400	-21.772	0.099
6.500	-5.943	0.100
6.600	-22.773	0.099
6.700	-52.488	0.099
6.800	-26.146	0.099
6.900	-26.683	0.099
7.000	-25.531	0.099
7.100	-34.961	0.099
7.200	-63.623	0.099
7.300	-15.799	0.099
7.400	-18.097	0.099
7.500	-44.951	0.099
7.600	-18.982	0.099
7.700	-39.287	0.099
7.800	-38.731	0.099
7.900	-54.246	0.099
8.000	-5.588	0.099
8.100	-22.087	0.099
8.200	-27.383	0.099
8.300	-1.114	0.099
8.400	-53.920	0.099
8.500	-2.315	0.099
8.600	-39.160	0.099
8.700	-30.777	0.099
8.800	-29.973	0.099
8.900	-50.353	0.099
9.000	-16.362	0.099
9.100	-27.120	0.099
9.200	-3.775	0.099
9.300	-34.980	0.099
9.400	-20.666	0.099
9.500	-23.765	0.099
9.600	-36.548	0.099
9.700	-35.528	0.100
9.800	-58.510	0.099
9.900	-47.181	0.099
10.000	-20.487	0.099
10.100	-16.162	0.099
10.200	-27.140	0.099
10.300	-28.598	0.099
10.400	-20.906	0.099
10.500	-16.067	0.099
10.600	-21.426	0.099
10.700	-32.134	0.099
10.800	-22.774	0.099
10.900	-38.132	0.099
11.000	-29.392	0.099
11.100	-37.498	0.099
11.200	-36.635	0.099
11.300	-3.361	0.099
11.400	-1.355	0.099
11.500	-4.764	0.099
11.600	-52.089	0.099
11.700	-29.144	0.099
11.800	-41.306	0.099
11.900	-44.538	0.099
12.000	-10.318	0.099
12.100	-5.897	0.099
12.200	-58.176	0.099
12.300	-63.980	0.099
12.400	-14.852	0.100
12.500	-22.348	0.099
12.600	-24.336	0.099
12.700	-48.029	0.099
12.800	-16.363	0.099
12.900	9.104	0.099
13.000	-12.926	0.099
13.100	-8.474	0.099
13.200	-29.137	0.100
13.300	-50.024	0.099
13.400	-37.208	0.100
13.500	-14.477	0.099
13.600	-35.917	0.100
13.700	-48.238	0.099
13.800	-28.117	0.099
13.900	-23.696	0.099
14.000	-54.644	0.099
14.100	-43.646	0.099
14.200	-15.828	0.099
14.300	-12.784	0.099
14.400	-31.219	0.100
14.500	-25.490	0.100
14.600	-23.813	0.099
14.700	-3.634	0.099
14.800	-27.322	0.099
14.900	-12.272	0.099
15.000	-21.845	0.099
15.100	-46.874	0.099
15.200	-33.020	0.099
15.300	-6.324	0.099
15.400	-34.494	0.100
15.500	-30.898	0.099
15.600	-23.313	0.099
15.700	-39.862	0.099
15.800	-52.820	0.099
15.900	-13.712	0.099
16.000	-25.644	0.099
16.100	-33.307	0.099
16.200	-28.809	0.099
16.300	-25.886	0.099
16.400	-35.979	0.099
16.500	-29.717	0.100
16.600	-13.938	0.099
16.700	-27.465	0.099
16.800	-51.507	0.099
16.900	-24.769	0.099
17.000	-12.913	0.099
17.100	-48.900	0.099
17.200	-30.518	0.099
17.300	-19.156	0.099
17.400	-29.455	0.099
17.500	-25.588	0.099
17.600	-28.575	0.099
17.700	-0.973	0.099
17.800	-22.332	0.100
17.900	-36.400	0.100
18.000	-23.922	0.099
18.100	-31.130	0.099
18.200	-45.663	0.099
18.300	-26.293	0.099
18.400	-50.299	0.099
18.500	-16.914	0.099
18.600	-27.702	0.099
18.700	-35.171	0.099
18.800	-23.048	0.099
18.900	-45.929	0.099
19.000	-44.468	0.099
19.100	-13.038	0.099
19.200	-24.077	0.099
19.300	-7.033	0.099
19.400	-12.484	0.099
19.500	-10.788	0.099
19.600	-42.377	0.099
19.700	-37.130	0.099
19.800	-43.051	0.099
19.900	-60.519	0.099
20.000	-17.207	0.099
20.100	-27.862	0.099
20.200	-12.112	0.099
20.300	-28.763	0.099
20.400	-56.462	0.099
20.500	-22.864	0.099
20.600	-20.788	0.099
20.700	-43.093	0.099
20.800	-30.796	0.099
20.900	-35.468	0.099
21.000	-14.846	0.099
21.100	-16.771	0.099
21.200	-37.068	0.099
21.300	-22.807	0.099
21.400	-61.266	0.099
21.500	-30.615	0.099
21.600	-16.061	0.099
21.700	-28.563	0.099
21.800	-5.017	0.099
21.900	-31.509	0.099
22.000	-42.173	0.099
22.100	-27.560	0.099
22.200	-51.201	0.099
22.300	-56.357	0.100
22.400	-22.246	0.099
22.500	-13.334	0.099
22.600	-19.064	0.099
22.700	-23.785	0.099
22.800	-17.267	0.099
22.900	-23.445	0.100
23.000	-44.226	0.100
23.100	-23.662	0.099
23.200	-54.373	0.099
23.300	-56.019	0.099
23.400	-27.314	0.099
23.500	-17.858	0.100
23.600	-19.178	0.100
23.700	-39.918	0.099
23.800	-57.898	0.099
23.900	-31.019	0.099
24.000	-27.863	0.099
24.100	-45.876	0.099
24.200	-8.786	0.099
24.300	-30.534	0.099
24.400	-53.079	0.099
24.500	-14.799	0.099
24.600	-23.352	0.099
24.700	-26.140	0.099
24.800	-8.235	0.099
24.900	-24.379	0.100
25.000	-18.255	0.099
25.100	-33.237	0.099
25.200	-20.482	0.099
25.300	-30.520	0.099
25.400	-35.878	0.099
25.500	-18.252	0.099
25.600	-30.861	0.099
25.700	-50.494	0.099
25.800	-25.000	0.099
25.900	-20.016	0.099
26.000	-16.624	0.099
26.100	-31.031	0.099
26.200	-35.853	0.099
26.300	-14.224	0.099
26.400	-6.632	0.099
26.500	-25.819	0.099
26.600	9.435	0.099
26.700	-28.597	0.099
26.800	-24.841	0.099
26.900	-30.955	0.099
27.000	-21.385	0.099
27.100	-52.450	0.099
27.200	-14.970	0.099
27.300	-26.631	0.099
27.400	-30.714	0.099
27.500	-31.612	0.099
27.600	-28.998	0.099
27.700	-16.222	0.099
27.800	-18.149	0.099
27.900	-17.205	0.099
28.000	-36.458	0.099
28.100	-14.495	0.099
28.200	6.539	0.099
28.300	-11.410	0.099
28.400	-61.682	0.099
28.500	-24.771	0.099
28.600	-14.380	0.099
28.700	-41.676	0.099
28.800	-29.643	0.099
28.900	-12.340	0.099
29.000	-28.131	0.099
29.100	-45.628	0.099
29.200	-27.852	0.099
29.300	-25.497	0.099
29.400	-27.442	0.100
29.500	-42.353	0.099
29.600	-46.827	0.099
29.700	-23.965	0.099
29.800	-41.632	0.099
29.900	-35.114	0.099
30.000	-25.914	0.099
30.100	-3.838	0.099
30.200	-1.977	0.099
30.300	-18.704	0.100
30.400	-34.434	0.099
30.500	-35.988	0.099
30.600	-24.155	0.100
30.700	-15.163	0.099
30.800	-23.064	0.099
30.900	-11.023	0.099
31.000	-26.925	0.099
31.100	-14.573	0.099
31.200	-20.917	0.099
31.300	-16.423	0.099
31.400	-34.869	0.099
31.500	6.154	0.099
31.600	-6.897	0.099
31.700	-8.596	0.099
31.800	-4.301	0.099
31.900	-19.869	0.099
32.000	-39.638	0.099
32.100	1.598	0.100
32.200	12.115	0.099
32.300	-0.169	0.099
32.400	1.832	0.099
32.500	0.348	0.099
32.600	-8.720	0.099
32.700	24.062	0.099
32.800	-13.368	0.099
32.900	-1.053	0.099
33.000	20.832	0.099
33.100	17.628	0.099
33.200	9.501	0.099
33.300	12.361	0.099
33.400	21.518	0.099
33.500	2.108	0.099
33.600	-2.987	0.099
33.700	18.883	0.099
33.800	-1.183	0.099
33.900	-16.319	0.099
34.000	-9.717	0.099
34.100	17.294	0.099
34.200	12.526	0.099
34.300	25.072	0.099
34.400	29.763	0.099
34.500	46.380	0.099
34.600	10.921	0.099
34.700	-10.882	0.100
34.800	27.070	0.099
34.900	53.854	0.099
35.000	12.180	0.099
35.100	-29.032	0.100
35.200	22.516	0.099
35.300	16.518	0.099
35.400	18.085	0.099
35.500	33.792	0.099
35.600	30.054	0.099
35.700	21.373	0.099
35.800	6.703	0.099
35.900	15.295	0.099
36.000	28.806	0.099
36.100	36.172	0.099
36.200	34.385	0.099
36.300	42.225	0.099
36.400	26.756	0.099
36.500	37.774	0.099
36.600	36.709	0.099
36.700	40.446	0.099
36.800	32.424	0.099
36.900	32.452	0.099
37.000	0.101	0.099
37.100	30.124	0.099
37.200	33.735	0.099
37.300	37.405	0.099
37.400	39.465	0.099
37.500	35.522	0.099
37.600	60.272	0.100
37.700	47.161	0.099
37.800	29.749	0.099
37.900	9.793	0.099
38.000	55.058	0.099
38.100	68.818	0.100
38.200	40.658	0.100
38.300	18.440	0.099
38.400	69.747	0.099
38.500	77.214	0.099
38.600	55.748	0.100
38.700	45.949	0.099
38.800	13.122	0.099
38.900	36.299	0.099
39.000	44.061	0.099
39.100	63.657	0.099
39.200	77.470	0.099
39.300	50.832	0.099
39.400	35.871	0.099
39.500	51.068	0.099
39.600	56.413	0.099
39.700	51.056	0.099
39.800	71.215	0.099
39.900	71.734	0.099
40.000	55.947	0.099
40.100	71.357	0.099
40.200	28.263	0.099
40.300	25.628	0.099
40.400	72.377	0.100
40.500	86.081	0.099
40.600	32.225	0.099
40.700	58.244	0.099
40.800	43.228	0.099
40.900	65.281	0.099
41.000	53.512	0.099
41.100	82.702	0.099
41.200	54.594	0.099
41.300	43.879	0.099
41.400	33.373	0.099
41.500	63.432	0.099
41.600	62.278	0.099
41.700	58.785	0.099
41.800	72.754	0.099
41.900	58.548	0.099
42.000	53.640	0.100
42.100	91.862	0.100
42.200	54.768	0.099
42.300	62.244	0.099
42.400	36.999	0.099
42.500	47.205	0.099
42.600	52.235	0.100
42.700	86.900	0.099
42.800	28.205	0.099
42.900	55.507	0.099
43.000	62.643	0.100
43.100	59.642	0.100
43.200	49.568	0.099
43.300	44.148	0.099
43.400	45.385	0.099
43.500	37.534	0.099
43.600	75.319	0.099
43.700	58.831	0.099
43.800	58.038	0.099
43.900	53.187	0.099
44.000	68.096	0.099
44.100	50.277	0.100
44.200	54.526	0.099
44.300	63.007	0.099
44.400	39.683	0.099
44.500	54.710	0.099
44.600	55.894	0.099
44.700	42.713	0.099
44.800	64.921	0.099
44.900	38.788	0.099
45.000	19.271	0.099
45.100	49.773	0.099
45.200	38.482	0.099
45.300	53.127	0.099
45.400	65.507	0.099
45.500	58.655	0.099
45.600	56.002	0.099
45.700	50.152	0.099
45.800	39.769	0.099
45.900	71.230	0.099
46.000	41.119	0.099
46.100	39.621	0.099
46.200	61.231	0.099
46.300	59.465	0.099
46.400	93.654	0.100
46.500	55.403	0.099
46.600	67.700	0.100
46.700	38.242	0.099
46.800	29.648	0.099
46.900	53.453	0.099
47.000	20.889	0.099
47.100	37.713	0.099
47.200	63.472	0.099
47.300	44.732	0.099
47.400	65.006	0.100
47.500	62.212	0.099
47.600	53.915	0.099
47.700	58.147	0.099
47.800	31.428	0.099
47.900	40.526	0.099
48.000	54.298	0.099
48.100	19.079	0.099
48.200	50.697	0.099
48.300	38.704	0.099
48.400	54.105	0.100
48.500	47.224	0.099
48.600	45.456	0.099
48.700	40.213	0.099
48.800	56.813	0.099
48.900	62.695	0.099
49.000	48.054	0.099
49.100	39.329	0.099
49.200	59.423	0.099
49.300	38.328	0.099
49.400	18.989	0.099
49.500	32.239	0.099
49.600	48.448	0.099
49.700	76.935	0.099
49.800	21.611	0.099
49.900	41.323	0.099
50.000	51.251	0.099
50.100	48.190	0.099
50.200	48.277	0.100
50.300	39.979	0.099
50.400	62.147	0.099
50.500	8.418	0.099
50.600	35.445	0.099
50.700	42.033	0.099
50.800	38.254	0.099
50.900	39.209	0.099
51.000	48.374	0.099
51.100	48.973	0.099
51.200	47.497	0.099
51.300	61.208	0.099
51.400	72.181	0.099
51.500	48.625	0.099
51.600	29.407	0.099
51.700	67.733	0.099
51.800	48.765	0.099
51.900	26.611	0.099
52.000	43.691	0.099
52.100	39.479	0.099
52.200	51.076	0.100
52.300	36.427	0.099
52.400	39.564	0.099
52.500	42.433	0.100
52.600	13.855	0.099
52.700	47.343	0.099
52.800	46.134	0.099
52.900	17.628	0.099
53.000	51.096	0.099
53.100	41.833	0.099
53.200	40.959	0.099
53.300	40.884	0.099
53.400	30.039	0.099
53.500	65.470	0.099
53.600	42.652	0.100
53.700	46.324	0.099
53.800	54.424	0.099
53.900	-4.730	0.099
54.000	46.299	0.099
54.100	44.744	0.099
54.200	58.661	0.099
54.300	33.333	0.099
54.400	45.010	0.099
54.500	18.743	0.099
54.600	38.751	0.099
54.700	41.794	0.099
54.800	23.237	0.099
54.900	16.951	0.100
55.000	48.444	0.099
55.100	59.244	0.099
55.200	47.795	0.099
55.300	52.255	0.099
55.400	23.779	0.099
55.500	40.712	0.100
55.600	44.798	0.099
55.700	42.760	0.099
55.800	14.010	0.099
55.900	34.655	0.099
56.000	33.960	0.099
56.100	-8.134	0.099
56.200	36.886	0.099
56.300	30.076	0.099
56.400	37.834	0.099
56.500	43.502	0.099
56.600	50.886	0.099
56.700	48.474	0.099
56.800	29.497	0.099
56.900	18.987	0.099
57.000	34.649	0.099
57.100	20.818	0.099
57.200	29.872	0.099
57.300	60.796	0.099
57.400	37.650	0.099
57.500	6.479	0.099
57.600	34.296	0.099
57.700	38.680	0.100
57.800	29.318	0.099
57.900	27.498	0.099
58.000	46.952	0.099
58.100	61.006	0.099
58.200	10.797	0.100
58.300	47.471	0.099
58.400	21.089	0.099
58.500	42.317	0.099
58.600	15.018	0.100
58.700	46.608	0.099
58.800	46.969	0.099
58.900	61.026	0.100
59.000	28.259	0.099
59.100	41.760	0.099
59.200	7.234	0.099
59.300	52.906	0.099
59.400	35.382	0.099
59.500	47.131	0.099
59.600	79.022	0.099
59.700	56.353	0.100
59.800	43.682	0.100
59.900	9.136	0.099
60.000	36.367	0.099
60.100	1.546	0.099
60.200	38.488	0.099
60.300	58.396	0.099
60.400	51.547	0.099
60.500	33.126	0.100
60.600	27.230	0.099
60.700	45.280	0.099
60.800	31.291	0.099
60.900	48.074	0.099
61.000	54.444	0.099
61.100	48.845	0.099
61.200	45.008	0.099
61.300	34.045	0.099
61.400	44.263	0.099
61.500	30.088	0.099
61.600	49.719	0.099
61.700	58.101	0.099
61.800	33.987	0.100
61.900	34.684	0.099
62.000	22.408	0.099
62.100	59.585	0.099
62.200	38.644	0.100
62.300	54.344	0.099
62.400	51.121	0.099
62.500	59.266	0.099
62.600	5.128	0.099
62.700	56.590	0.099
62.800	34.909	0.100
62.900	36.185	0.099
63.000	33.230	0.099
63.100	41.751	0.099
63.200	35.989	0.099
63.300	27.729	0.099
63.400	34.549	0.100
63.500	23.719	0.099
63.600	23.541	0.099
63.700	30.536	0.099
63.800	45.635	0.100
63.900	38.053	0.100
64.000	50.568	0.099
64.100	39.538	0.099
64.200	34.655	0.099
64.300	55.037	0.099
64.400	35.313	0.099
64.500	39.959	0.100
64.600	34.627	0.099
64.700	19.324	0.099
64.800	24.351	0.099
64.900	38.902	0.100
65.000	40.119	0.099
65.100	28.437	0.099
65.200	37.321	0.099
65.300	53.538	0.099
65.400	32.051	0.099
65.500	36.287	0.099
65.600	35.735	0.099
65.700	60.275	0.099
65.800	35.674	0.099
65.900	41.917	0.099
66.000	17.487	0.099
66.100	23.944	0.099
66.200	29.181	0.099
66.300	56.249	0.099
66.400	47.330	0.099
66.500	31.617	0.099
66.600	47.501	0.100
66.700	50.875	0.100
66.800	28.791	0.099
66.900	51.866	0.099
67.000	45.929	0.100
67.100	27.354	0.100
67.200	34.089	0.099
67.300	44.413	0.099
67.400	48.598	0.100
67.500	11.908	0.099
67.600	46.745	0.099
67.700	37.852	0.099
67.800	48.795	0.099
67.900	29.778	0.099
68.000	7.551	0.099
68.100	23.387	0.099
68.200	34.235	0.100
68.300	26.234	0.099
68.400	35.391	0.099
68.500	21.285	0.099
68.600	40.256	0.099
68.700	30.021	0.099
68.800	27.202	0.100
68.900	37.176	0.100
69.000	52.543	0.099
69.100	44.816	0.099
69.200	48.909	0.099
69.300	44.002	0.099
69.400	28.442	0.099
69.500	8.612	0.099
69.600	17.326	0.099
69.700	77.792	0.099
69.800	70.984	0.100
69.900	50.813	0.099
70.000	40.377	0.099
70.100	37.513	0.099
70.200	51.144	0.100
70.300	59.906	0.099
70.400	15.607	0.100
70.500	21.751	0.099
70.600	59.351	0.099
70.700	68.538	0.099
70.800	38.523	0.099
70.900	75.224	0.099
71.000	50.302	0.099
71.100	60.007	0.099
71.200	35.526	0.099
71.300	14.689	0.100
71.400	30.789	0.099
71.500	44.375	0.100
71.600	51.439	0.099
71.700	22.590	0.100
71.800	41.566	0.100
71.900	32.596	0.099
72.000	68.997	0.100
72.100	48.166	0.100
72.200	37.147	0.099
72.300	42.590	0.099
72.400	48.559	0.100
72.500	23.227	0.099
72.600	48.575	0.100
72.700	53.042	0.099
72.800	43.189	0.099
72.900	65.416	0.100
73.000	53.996	0.099
73.100	68.588	0.099
73.200	43.267	0.100
73.300	24.739	0.099
73.400	45.726	0.099
73.500	56.880	0.099
73.600	27.393	0.099
73.700	23.466	0.100
73.800	34.113	0.099
73.900	51.937	0.099
74.000	45.760	0.100
74.100	43.521	0.099
74.200	17.640	0.099
74.300	42.207	0.099
74.400	61.758	0.100
74.500	44.104	0.100
74.600	35.235	0.099
74.700	51.944	0.099
74.800	82.478	0.100
74.900	36.891	0.099
75.000	38.807	0.099
75.100	35.125	0.099
75.200	29.294	0.099
75.300	51.077	0.099
75.400	33.698	0.099
75.500	31.330	0.099
75.600	37.182	0.099
75.700	46.659	0.099
75.800	50.438	0.099
75.900	63.389	0.099
76.000	36.574	0.099
76.100	55.735	0.099
76.200	73.181	0.099
76.300	27.906	0.100
76.400	43.682	0.100
76.500	39.145	0.099
76.600	44.232	0.100
76.700	37.191	0.099
76.800	43.301	0.099
76.900	56.871	0.099
77.000	41.405	0.099
77.100	51.950	0.099
77.200	52.253	0.100
77.300	43.015	0.099
77.400	30.354	0.099
77.500	36.679	0.099
77.600	81.526	0.099
77.700	67.632	0.099
77.800	46.526	0.100
77.900	50.448	0.100
78.000	38.576	0.099
78.100	40.865	0.099
78.200	66.568	0.100
78.300	27.310	0.099
78.400	48.357	0.099
78.500	44.103	0.099
78.600	35.527	0.099
78.700	61.243	0.099
78.800	40.859	0.099
78.900	53.831	0.099
79.000	67.861	0.099
79.100	62.303	0.100
79.200	65.144	0.100
79.300	58.953	0.099
79.400	34.364	0.099
79.500	44.863	0.099
79.600	37.087	0.099
79.700	17.435	0.099
79.800	30.890	0.099
79.900	24.527	0.100
80.000	45.567	0.099
80.100	24.474	0.099
80.200	63.872	0.099
80.300	55.896	0.099
80.400	29.679	0.099
80.500	69.174	0.099
80.600	56.131	0.099
80.700	56.900	0.100
80.800	54.714	0.099
80.900	57.892	0.099
81.000	35.758	0.099
81.100	51.169	0.099
81.200	52.535	0.099
81.300	29.127	0.099
81.400	57.464	0.099
81.500	40.844	0.099
81.600	31.858	0.099
81.700	35.190	0.099
81.800	48.758	0.099
81.900	77.618	0.099
82.000	66.684	0.099
82.100	52.709	0.099
82.200	79.985	0.099
82.300	35.291	0.099
82.400	44.548	0.100
82.500	5.759	0.099
82.600	46.795	0.099
82.700	78.614	0.099
82.800	18.514	0.099
82.900	30.090	0.100
83.000	40.607	0.099
83.100	52.303	0.099
83.200	64.388	0.100
83.300	68.664	0.099
83.400	56.748	0.099
83.500	39.177	0.099
83.600	39.896	0.100
83.700	29.446	0.099
83.800	70.033	0.099
83.900	59.939	0.099
84.000	64.949	0.100
84.100	50.210	0.100
84.200	44.366	0.099
84.300	61.939	0.099
84.400	37.855	0.099
84.500	38.143	0.100
84.600	27.825	0.099
84.700	53.118	0.099
84.800	48.756	0.099
84.900	70.884	0.100
85.000	44.960	0.100
85.100	24.377	0.099
85.200	46.797	0.100
85.300	38.537	0.100
85.400	62.432	0.099
85.500	33.504	0.099
85.600	57.214	0.100
85.700	41.969	0.100
85.800	47.214	0.100
85.900	45.778	0.099
86.000	47.518	0.100
86.100	51.578	0.099
86.200	68.331	0.100
86.300	37.001	0.099
86.400	34.958	0.099
86.500	47.265	0.099
86.600	68.152	0.100
86.700	57.826	0.100
86.800	54.144	0.100
86.900	46.107	0.100
87.000	51.416	0.099
87.100	65.335	0.100
87.200	21.681	0.100
87.300	38.744	0.099
87.400	71.719	0.100
87.500	41.511	0.099
87.600	76.719	0.099
87.700	83.580	0.100
87.800	24.100	0.100
87.900	46.345	0.100
88.000	61.656	0.099
88.100	43.862	0.100
88.200	41.826	0.100
88.300	24.375	0.100
88.400	53.452	0.100
88.500	17.533	0.100
88.600	53.128	0.100
88.700	42.566	0.099
88.800	29.853	0.099
88.900	34.576	0.099
89.000	40.186	0.100
89.100	77.792	0.100
89.200	31.253	0.099
89.300	84.122	0.100
89.400	53.420	0.100
89.500	55.581	0.100
89.600	49.707	0.100
89.700	62.757	0.100
89.800	58.971	0.100
89.900	22.478	0.099
90.000	35.516	0.100
90.100	51.586	0.099
90.200	77.499	0.100
90.300	46.832	0.099
90.400	80.945	0.100
90.500	64.087	0.100
90.600	51.713	0.100
90.700	46.852	0.100
90.800	4.428	0.100
90.900	43.111	0.100
91.000	20.991	0.099
91.100	47.060	0.100
91.200	48.363	0.100
91.300	16.161	0.099
91.400	35.991	0.100
91.500	17.398	0.100
91.600	8.746	0.099
91.700	22.316	0.100
91.800	43.969	0.100
91.900	-14.766	0.100
92.000	16.475	0.099
92.100	2.033	0.100
92.200	-14.537	0.100
92.300	16.125	0.100
92.400	6.375	0.099
92.500	8.290	0.100
92.600	-6.613	0.099
92.700	12.628	0.099
92.800	-10.741	0.099
92.900	-5.056	0.100
93.000	-4.537	0.100
93.100	-13.108	0.100
93.200	-18.255	0.099
93.300	10.931	0.100
93.400	-22.168	0.100
93.500	-31.865	0.099
93.600	-19.544	0.100
93.700	-27.896	0.099
93.800	-35.208	0.099
93.900	-15.942	0.099
94.000	-46.134	0.099
94.100	-48.193	0.099
94.200	-30.806	0.099
94.300	9.119	0.099
94.400	-36.633	0.099
94.500	-12.057	0.099
94.600	-20.870	0.100
94.700	-34.002	0.099
94.800	-25.756	0.099
94.900	-42.779	0.099
95.000	-42.494	0.099
95.100	-27.064	0.099
95.200	-13.009	0.099
95.300	-29.983	0.099
95.400	-14.298	0.099
95.500	-26.328	0.099
95.600	-30.065	0.099
95.700	-24.131	0.099
95.800	-13.831	0.099
95.900	-21.105	0.100
96.000	-12.002	0.099
96.100	-7.219	0.100
96.200	-28.864	0.099
96.300	-39.225	0.099
96.400	-13.023	0.099
96.500	-54.402	0.099
96.600	-31.881	0.100
96.700	-54.152	0.099
96.800	-24.818	0.099
96.900	-23.392	0.099
97.000	-4.589	0.099
97.100	-17.653	0.099
97.200	-32.900	0.099
97.300	-31.734	0.099
97.400	-33.221	0.100
97.500	-10.637	0.099
97.600	-11.502	0.099
97.700	-29.474	0.099
97.800	-78.058	0.100
97.900	-43.882	0.099
98.000	5.721	0.099
98.100	-27.775	0.100
98.200	-39.624	0.099
98.300	-29.649	0.100
98.400	-33.675	0.099
98.500	-25.736	0.099
98.600	-18.750	0.099
98.700	-44.139	0.099
98.800	-31.496	0.100
98.900	-12.717	0.099
99.000	-26.124	0.100
99.100	-2.999	0.099
99.200	-27.852	0.100
99.300	-11.033	0.100
99.400	-31.831	0.099
99.500	-42.223	0.100
99.600	-1.903	0.100
99.700	-26.273	0.100
99.800	-19.952	0.099
99.900	-7.233	0.099
100.000	-44.049	0.099
100.100	-47.480	0.099
100.200	7.501	0.099
100.300	-9.685	0.099
100.400	-35.828	0.099
100.500	-11.722	0.099
100.600	-20.932	0.100
100.700	-11.111	0.099
100.800	-7.246	0.099
100.900	-5.316	0.100
101.000	-48.903	0.100
101.100	-39.386	0.099
101.200	-42.266	0.099
101.300	-6.732	0.099
101.400	-63.351	0.100
101.500	-1.633	0.099
101.600	-17.957	0.099
101.700	-43.493	0.099
101.800	10.200	0.099
101.900	-3.380	0.099
102.000	-14.992	0.100
102.100	-29.466	0.099
102.200	-14.006	0.100
102.300	20.627	0.099
102.400	-37.190	0.100
102.500	-52.143	0.099
102.600	-45.643	0.099
102.700	-30.448	0.099
102.800	-17.648	0.099
102.900	-16.548	0.100
103.000	8.555	0.099
103.100	-27.014	0.099
103.200	-7.532	0.100
103.300	-18.498	0.100
103.400	2.522	0.100
103.500	-23.657	0.100
103.600	-36.893	0.100
103.700	7.293	0.100
103.800	-5.208	0.099
103.900	-30.553	0.099
104.000	-39.694	0.100
104.100	-24.838	0.100
104.200	6.187	0.100
104.300	-15.722	0.099
104.400	-33.694	0.099
104.500	-9.393	0.100
104.600	-32.508	0.099
104.700	-38.232	0.100
104.800	-26.617	0.100
104.900	7.079	0.099
105.000	-38.380	0.100
105.100	-27.528	0.099
105.200	-19.997	0.100
105.300	-54.715	0.099
105.400	-23.275	0.099
105.500	-13.976	0.099
105.600	-25.976	0.100
105.700	-12.433	0.100
105.800	-19.608	0.100
105.900	-16.636	0.100
106.000	-35.141	0.100
106.100	-51.462	0.099
106.200	-4.469	0.100
106.300	18.465	0.100
106.400	-7.351	0.100
106.500	-29.321	0.099
106.600	-0.539	0.100
106.700	-44.256	0.100
106.800	-31.377	0.099
106.900	2.763	0.100
107.000	-12.647	0.100
107.100	-17.839	0.099
107.200	-31.781	0.100
107.300	-31.931	0.099
107.400	-23.576	0.099
107.500	-3.594	0.100
107.600	-7.411	0.099
107.700	-24.469	0.100
107.800	-11.063	0.099
107.900	-16.437	0.099
108.000	-38.973	0.100
108.100	13.101	0.099
108.200	2.851	0.100
108.300	-20.536	0.099
108.400	-4.318	0.100
108.500	-16.234	0.099
108.600	-5.124	0.099
108.700	-30.817	0.100
108.800	-30.958	0.099
108.900	-20.512	0.099
109.000	-59.766	0.099
109.100	-53.205	0.099
109.200	-15.384	0.099
109.300	-21.025	0.099
109.400	-14.153	0.100
109.500	-19.289	0.099
109.600	-3.424	0.099
109.700	-21.803	0.099
109.800	-32.170	0.099
109.900	-26.518	0.099
110.000	-34.411	0.099
110.100	-21.023	0.099
110.200	-11.158	0.100
110.300	-1.263	0.099
110.400	6.360	0.099
110.500	-21.610	0.100
110.600	-18.909	0.099
110.700	-21.564	0.099
110.800	-20.850	0.099
110.900	-25.955	0.099
111.000	-27.217	0.100
111.100	-33.745	0.100
111.200	-43.594	0.100
111.300	-39.745	0.100
111.400	-4.776	0.100
111.500	-16.706	0.099
111.600	-57.481	0.099
111.700	-28.275	0.100
111.800	-35.342	0.099
111.900	-26.522	0.099
112.000	15.209	0.099
112.100	-26.412	0.100
112.200	-64.650	0.099
112.300	-23.594	0.100
112.400	-28.202	0.100
112.500	-29.572	0.099
112.600	-12.167	0.100
112.700	-28.585	0.100
112.800	-39.333	0.100
112.900	-6.860	0.099
113.000	-30.784	0.099
113.100	-14.616	0.099
113.200	-22.361	0.099
113.300	-23.146	0.099
113.400	-36.596	0.100
113.500	-26.587	0.100
113.600	-47.374	0.099
113.700	-31.075	0.100
113.800	6.810	0.099
113.900	-27.354	0.100
114.000	-29.299	0.100
114.100	-20.040	0.100
114.200	-33.089	0.100
114.300	-21.818	0.100
114.400	-27.697	0.100
114.500	-28.594	0.100
114.600	-20.739	0.100
114.700	-29.443	0.099
114.800	-39.081	0.099
114.900	-26.122	0.100
115.000	-49.187	0.099
115.100	-16.555	0.100
115.200	-3.631	0.100
115.300	-23.098	0.100
115.400	-16.094	0.100
115.500	-34.065	0.100
115.600	-38.322	0.099
115.700	-15.522	0.100
115.800	-29.214	0.100
115.900	-21.864	0.100
116.000	-5.733	0.100
116.100	-28.453	0.100
116.200	-45.461	0.100
116.300	-32.161	0.100
116.400	-47.985	0.099
116.500	-35.232	0.100
116.600	-30.539	0.100
116.700	-23.272	0.100
116.800	-31.028	0.100
116.900	-39.297	0.100
117.000	-31.897	0.099
117.100	-55.390	0.100
117.200	-46.150	0.100
117.300	-23.894	0.099
117.400	-24.948	0.099
117.500	-36.410	0.099
117.600	-22.643	0.099
117.700	-6.361	0.100
117.800	-10.807	0.099
117.900	-29.207	0.100
118.000	-20.164	0.100
118.100	-36.204	0.100
118.200	-62.708	0.100
118.300	-46.539	0.099
118.400	-12.903	0.100
118.500	-25.988	0.099
118.600	-35.790	0.099
118.700	-25.852	0.100
118.800	-20.615	0.100
118.900	-16.816	0.100
119.000	-23.366	0.100
119.100	-16.264	0.100
119.200	-43.741	0.100
119.300	-38.715	0.100
119.400	-41.624	0.099
119.500	-32.961	0.099
119.600	-30.231	0.099
119.700	-44.654	0.100
119.800	-42.177	0.100
119.900	-22.041	0.100
120.000	-48.364	0.100
120.100	-13.047	0.099
120.200	-3.007	0.099
120.300	-10.171	0.100
120.400	-22.937	0.099
120.500	-26.425	0.099
120.600	-39.716	0.100
120.700	-34.190	0.100
120.800	-49.196	0.100
120.900	-43.634	0.100
121.000	-16.213	0.100
121.100	-21.377	0.100
121.200	-18.143	0.099
121.300	-28.016	0.100
121.400	-26.960	0.100
121.500	-56.978	0.099
121.600	-38.659	0.100
121.700	-10.544	0.099
121.800	-22.341	0.100
121.900	-59.664	0.099
122.000	-23.943	0.099
122.100	-12.040	0.099
122.200	-26.076	0.100
122.300	-40.733	0.100
122.400	-18.788	0.100
122.500	-45.775	0.099
122.600	-44.962	0.099
122.700	-30.556	0.100
122.800	-38.962	0.099
122.900	-42.981	0.100
123.000	-13.781	0.099
123.100	-24.316	0.099
123.200	-25.601	0.100
123.300	-24.582	0.100
123.400	-35.321	0.099
123.500	-20.803	0.100
123.600	-50.154	0.100
123.700	-34.201	0.100
123.800	-18.794	0.100
123.900	-43.875	0.100
124.000	-51.001	0.100
124.100	-41.472	0.099
124.200	-50.322	0.099
124.300	-19.894	0.099
124.400	-44.064	0.099
124.500	-13.135	0.099
124.600	-46.295	0.100
124.700	-9.632	0.100
124.800	-24.081	0.100
124.900	-31.864	0.099
125.000	-15.764	0.100
125.100	-27.978	0.100
125.200	-23.400	0.100
125.300	-39.854	0.100
125.400	-40.823	0.099
125.500	-32.858	0.100
125.600	-55.060	0.099
125.700	-39.870	0.100
125.800	-22.523	0.100
125.900	-5.287	0.100
126.000	-15.650	0.100
126.100	-19.099	0.100
126.200	-48.424	0.100
126.300	-33.105	0.100
126.400	-28.566	0.100
126.500	-27.275	0.100
126.600	-41.678	0.100
126.700	-1.078	0.100
126.800	-48.263	0.100
126.900	-10.999	0.100
127.000	-11.600	0.100
127.100	-39.569	0.100
127.200	-36.688	0.100
127.300	-33.785	0.100
127.400	-35.420	0.100
127.500	-38.529	0.100
127.600	-68.293	0.100
127.700	-63.162	0.100
127.800	-26.196	0.100
127.900	-33.330	0.100
128.000	-33.643	0.100
128.100	-34.648	0.099
128.200	-34.544	0.100
128.300	-29.992	0.100
128.400	-25.132	0.100
128.500	-64.481	0.100
128.600	-15.849	0.100
128.700	-38.091	0.100
128.800	-20.098	0.100
128.900	-34.601	0.100
129.000	-73.575	0.100
129.100	-40.731	0.100
129.200	-47.734	0.100
129.300	-19.695	0.100
129.400	-27.616	0.100
129.500	-45.474	0.100
129.600	-22.101	0.100
129.700	-50.934	0.100
129.800	-32.666	0.100
129.900	-54.412	0.100
130.000	-53.403	0.100
130.100	-4.265	0.100
130.200	-15.963	0.100
130.300	-65.619	0.099
130.400	-28.550	0.100
130.500	-27.846	0.099
130.600	-54.741	0.099
130.700	-26.228	0.099
130.800	-38.750	0.099
130.900	-25.326	0.100
131.000	-30.990	0.100
131.100	-42.375	0.100
131.200	-21.236	0.100
131.300	-43.733	0.100
131.400	-25.498	0.100
131.500	-35.622	0.100
131.600	-41.766	0.099
131.700	-56.121	0.100
131.800	-27.010	0.099
131.900	-38.694	0.099
132.000	-29.390	0.099
132.100	-53.556	0.100
132.200	-15.273	0.100
132.300	-51.928	0.100
132.400	-41.986	0.100
132.500	-37.458	0.099
132.600	-29.739	0.100
132.700	-0.749	0.100
132.800	-22.354	0.100
132.900	-40.423	0.100
133.000	-29.270	0.100
133.100	-72.246	0.100
133.200	-32.977	0.099
133.300	-29.828	0.100
133.400	-34.809	0.099
133.500	-36.888	0.099
133.600	-36.623	0.099
133.700	-37.260	0.100
133.800	-44.565	0.099
133.900	-53.162	0.099
134.000	-28.415	0.100
134.100	-29.758	0.100
134.200	-14.404	0.100
134.300	-33.766	0.099
134.400	-44.118	0.100
134.500	-59.848	0.100
134.600	-42.328	0.099
134.700	-47.212	0.100
134.800	-25.431	0.099
134.900	-17.749	0.099
135.000	-34.496	0.100
135.100	-31.225	0.100
135.200	-43.282	0.100
135.300	-29.120	0.099
135.400	-41.792	0.099
135.500	-22.788	0.100
135.600	-27.006	0.100
135.700	-40.640	0.100
135.800	-48.787	0.099
135.900	-35.850	0.100
136.000	-26.020	0.100
136.100	-32.995	0.100
136.200	-24.319	0.100
136.300	-36.552	0.099
136.400	-55.466	0.100
136.500	-22.284	0.100
136.600	-36.815	0.100
136.700	-56.879	0.099
136.800	-17.221	0.100
136.900	-7.087	0.100
137.000	-36.056	0.100
137.100	-22.705	0.099
137.200	-22.834	0.100
137.300	-40.349	0.099
137.400	-36.518	0.100
137.500	-17.226	0.100
137.600	-47.115	0.100
137.700	-25.719	0.100
137.800	-51.832	0.099
137.900	-50.941	0.099
138.000	-36.636	0.100
138.100	-25.896	0.100
138.200	-43.573	0.100
138.300	-49.519	0.100
138.400	-38.728	0.100
138.500	-77.450	0.100
138.600	-49.351	0.100
138.700	-15.366	0.100
138.800	-48.967	0.100
138.900	-45.729	0.100
139.000	-30.795	0.100
139.100	-27.749	0.100
139.200	-32.095	0.100
139.300	-14.470	0.100
139.400	-8.073	0.100
139.500	-38.307	0.100
139.600	-76.197	0.099
139.700	-25.913	0.100
139.800	-51.696	0.100
139.900	-11.946	0.100
140.000	-22.967	0.100
140.100	-30.320	0.100
140.200	-50.421	0.099
140.300	-49.417	0.100
140.400	-60.906	0.100
140.500	-9.905	0.100
140.600	-23.391	0.100
140.700	-49.656	0.099
140.800	-32.561	0.099
140.900	-23.828	0.100
141.000	-32.743	0.099
141.100	-32.875	0.099
141.200	-26.223	0.100
141.300	-42.182	0.100
141.400	-44.643	0.099
141.500	-26.567	0.100
141.600	-40.587	0.099
141.700	-67.007	0.099
141.800	-29.085	0.100
141.900	-60.865	0.099
142.000	-31.138	0.100
142.100	-22.890	0.100
142.200	-38.154	0.099
142.300	-9.361	0.100
142.400	-16.119	0.100
142.500	-16.632	0.100
142.600	-20.812	0.100
142.700	-43.917	0.099
142.800	-38.885	0.100
142.900	-35.839	0.100
143.000	-27.660	0.099
143.100	-43.518	0.100
143.200	-26.281	0.100
143.300	-55.352	0.100
143.400	-50.556	0.099
143.500	-43.343	0.100
143.600	-36.795	0.100
143.700	-38.358	0.099
143.800	-24.883	0.100
143.900	-35.393	0.099
144.000	-28.619	0.099
144.100	-33.268	0.099
144.200	-49.022	0.100
144.300	-25.124	0.099
144.400	-7.727	0.099
144.500	-26.814	0.100
144.600	-21.990	0.100
144.700	-33.022	0.100
144.800	-8.518	0.099
144.900	-39.317	0.100
145.000	-37.586	0.100
145.100	-36.655	0.099
145.200	-27.131	0.100
145.300	-21.951	0.099
145.400	-43.528	0.099
145.500	-45.273	0.099
145.600	-31.219	0.100
145.700	-39.977	0.100
145.800	-59.720	0.099
145.900	-41.968	0.100
146.000	-17.516	0.099
146.100	-14.918	0.100
146.200	-37.813	0.099
146.300	-87.116	0.099
146.400	-43.261	0.099
146.500	-30.012	0.099
146.600	-9.836	0.099
146.700	-19.772	0.099
146.800	-56.835	0.099
146.900	4.598	0.100
147.000	-24.568	0.099
147.100	-26.442	0.100
147.200	-24.486	0.099
147.300	-27.842	0.099
147.400	-40.464	0.100
147.500	-22.718	0.100
147.600	-36.782	0.100
147.700	-18.809	0.099
147.800	-41.903	0.099
147.900	-7.324	0.099
148.000	-53.054	0.099
148.100	-48.299	0.099
148.200	-36.871	0.099
148.300	-36.032	0.099
148.400	-45.382	0.099
148.500	-19.247	0.099
148.600	-40.674	0.099
148.700	-33.074	0.100
148.800	-25.186	0.099
148.900	-44.836	0.099
149.000	-55.584	0.100
149.100	-33.379	0.100
149.200	-18.280	0.100
149.300	-35.182	0.100
149.400	-39.333	0.100
149.500	-35.515	0.099
149.600	-33.499	0.100
149.700	-43.377	0.100
149.800	-38.022	0.099
149.900	-41.907	0.099
150.000	-38.812	0.099
150.100	-21.382	0.100
150.200	-50.724	0.099
150.300	-39.432	0.099
150.400	-43.136	0.099
150.500	-26.773	0.099
150.600	-4.846	0.099
150.700	-36.950	0.100
150.800	-15.818	0.100
150.900	-33.860	0.100
151.000	-46.933	0.099
151.100	-44.352	0.099
151.200	-42.130	0.100
151.300	-34.657	0.099
151.400	-30.385	0.099
151.500	-25.989	0.100
151.600	-18.725	0.100
151.700	-29.785	0.099
151.800	-33.691	0.100
151.900	-26.132	0.099
152.000	-42.617	0.099
152.100	-22.983	0.100
152.200	-26.812	0.100
152.300	-45.653	0.100
152.400	-9.722	0.100
152.500	-29.151	0.099
152.600	-19.383	0.100
152.700	-39.686	0.100
152.800	-35.121	0.100
152.900	-20.493	0.100
153.000	-43.229	0.100
153.100	-16.051	0.100
153.200	-17.847	0.100
153.300	-19.699	0.100
153.400	-29.161	0.100
153.500	-36.497	0.100
153.600	-26.397	0.099
153.700	-31.127	0.100
153.800	-10.372	0.100
153.900	-16.661	0.100
154.000	-64.652	0.100
154.100	-32.195	0.099
154.200	-40.391	0.099
154.300	-11.414	0.100
154.400	-45.114	0.100
154.500	-61.012	0.099
154.600	-7.863	0.099
154.700	-8.440	0.100
154.800	-16.305	0.099
154.900	-55.830	0.099
155.000	-40.482	0.100
155.100	-27.582	0.100
155.200	-51.244	0.099
155.300	-43.105	0.100
155.400	-22.544	0.100
155.500	-35.547	0.099
155.600	-16.242	0.099
155.700	-22.335	0.099
155.800	-31.003	0.100
155.900	-23.404	0.100
156.000	-55.214	0.099
156.100	-33.509	0.100
156.200	-36.856	0.100
156.300	-35.382	0.099
156.400	-10.029	0.100
156.500	-23.318	0.100
156.600	-24.727	0.099
156.700	-28.219	0.100
156.800	-22.240	0.100
156.900	-51.473	0.099
157.000	-30.523	0.100
157.100	-14.244	0.100
157.200	-30.349	0.100
157.300	-59.287	0.100
157.400	-15.762	0.099
157.500	-13.141	0.100
157.600	-26.887	0.100
157.700	-60.013	0.099
157.800	-13.314	0.100
157.900	-27.833	0.100
158.000	0.216	0.099
158.100	-36.234	0.099
158.200	-13.692	0.100
158.300	-38.914	0.099
158.400	-47.917	0.100
158.500	-39.681	0.099
158.600	-34.362	0.100
158.700	-44.833	0.099
158.800	-38.648	0.099
158.900	-54.149	0.099
159.000	-56.040	0.099
159.100	-48.253	0.100
159.200	-17.083	0.099
159.300	-3.157	0.099
159.400	-25.114	0.099
159.500	-13.109	0.099
159.600	-32.059	0.100
159.700	-55.239	0.099
159.800	-61.617	0.099
159.900	-17.332	0.100
160.000	-26.994	0.100
160.100	-31.907	0.099
160.200	-24.242	0.099
160.300	-19.641	0.100
160.400	-28.996	0.099
160.500	-26.321	0.099
160.600	-28.190	0.099
160.700	-35.656	0.100
160.800	-52.434	0.099
160.900	-35.313	0.100
161.000	-38.276	0.099
161.100	-39.035	0.099
161.200	-27.607	0.100
161.300	-66.369	0.099
161.400	-36.440	0.099
161.500	-2.216	0.099
161.600	-33.037	0.100
161.700	-27.728	0.099
161.800	-28.500	0.100
161.900	-31.273	0.100
162.000	-25.149	0.099
162.100	-26.458	0.100
162.200	-26.569	0.100
162.300	-29.147	0.100
162.400	-40.470	0.099
162.500	-26.316	0.099
162.600	-35.591	0.100
162.700	-36.834	0.099
162.800	-8.367	0.100
162.900	-11.142	0.100
163.000	-38.743	0.099
163.100	-12.289	0.099
163.200	-35.290	0.100
163.300	-51.695	0.099
163.400	-40.894	0.100
163.500	-27.734	0.100
163.600	-26.414	0.099
163.700	-48.706	0.100
163.800	-19.390	0.099
163.900	-5.997	0.099
164.000	-41.158	0.100
164.100	-20.758	0.099
164.200	-31.490	0.100
164.300	-38.614	0.099
164.400	-53.370	0.099
164.500	-37.955	0.100
164.600	-29.694	0.099
164.700	-18.049	0.100
164.800	-29.743	0.100
164.900	-28.009	0.100
165.000	-27.843	0.100
165.100	-32.595	0.100
165.200	-18.231	0.100
165.300	-36.885	0.099
165.400	-33.437	0.099
165.500	-33.298	0.099
165.600	-45.561	0.100
165.700	-35.653	0.099
165.800	-16.215	0.100
165.900	-20.226	0.099
166.000	-39.293	0.099
166.100	-32.944	0.099
166.200	-18.785	0.099
166.300	-18.689	0.099
166.400	-53.841	0.099
166.500	-30.028	0.099
166.600	-26.319	0.099
166.700	-15.026	0.099
166.800	-37.146	0.100
166.900	-50.593	0.099
167.000	-23.451	0.099
167.100	-17.764	0.099
167.200	-34.474	0.099
167.300	-12.413	0.099
167.400	-2.810	0.100
167.500	-28.980	0.099
167.600	-58.051	0.100
167.700	-9.183	0.100
167.800	-27.870	0.100
167.900	-49.676	0.099
168.000	-27.031	0.099
168.100	-38.437	0.099
168.200	-18.786	0.099
168.300	-13.508	0.099
168.400	-49.534	0.099
168.500	-14.726	0.099
168.600	-23.500	0.099
168.700	-15.912	0.100
168.800	-25.409	0.099
168.900	-23.589	0.100
169.000	-11.681	0.100
169.100	-29.412	0.099
169.200	-32.634	0.100
169.300	-32.038	0.100
169.400	-36.368	0.099
169.500	2.846	0.100
169.600	-20.627	0.099
169.700	-15.161	0.099
169.800	-27.637	0.100
169.900	-26.692	0.100
170.000	-29.938	0.099
170.100	-39.547	0.099
170.200	-47.295	0.099
170.300	-28.052	0.100
170.400	-18.276	0.100
170.500	-18.830	0.100
170.600	-27.588	0.100
170.700	-29.962	0.100
170.800	-2.719	0.100
170.900	-27.614	0.099
171.000	-27.448	0.099
171.100	-36.767	0.100
171.200	-32.807	0.100
171.300	-26.897	0.099
171.400	-27.740	0.099
171.500	-45.023	0.100
171.600	-28.318	0.099
171.700	-27.816	0.099
171.800	-26.672	0.100
171.900	-17.940	0.100
172.000	-40.789	0.100
172.100	-25.539	0.099
172.200	2.415	0.100
172.300	-28.525	0.100
172.400	-18.831	0.099
172.500	-30.839	0.100
172.600	-11.511	0.099
172.700	-45.939	0.100
172.800	-37.326	0.099
172.900	-44.766	0.099
173.000	-24.439	0.100
173.100	-16.344	0.100
173.200	-20.997	0.100
173.300	-28.437	0.099
173.400	-27.561	0.100
173.500	18.318	0.099
173.600	-29.360	0.100
173.700	-19.883	0.100
173.800	-25.966	0.099
173.900	-36.117	0.100
174.000	-36.309	0.099
174.100	-21.499	0.099
174.200	-35.426	0.100
174.300	-31.947	0.100
174.400	-33.000	0.100
174.500	-20.286	0.099
174.600	-21.850	0.100
174.700	-18.555	0.099
174.800	-25.254	0.100
174.900	-46.621	0.100
175.000	-62.050	0.099
175.100	-28.868	0.099
175.200	-35.185	0.099
175.300	-29.261	0.099
175.400	-31.135	0.100
175.500	-18.545	0.099
175.600	-41.709	0.099
175.700	-27.649	0.099
175.800	-12.929	0.100
175.900	-45.988	0.100
176.000	-52.173	0.100
176.100	-40.959	0.100
176.200	-35.846	0.100
176.300	-14.363	0.099
176.400	-30.774	0.099
176.500	-31.081	0.100
176.600	-9.534	0.099
176.700	-46.347	0.099
176.800	-32.359	0.099
176.900	-6.881	0.099
177.000	-34.029	0.099
177.100	-21.675	0.099
177.200	-34.798	0.099
177.300	-27.283	0.100
177.400	-34.381	0.099
177.500	-14.307	0.099
177.600	-32.138	0.100
177.700	-36.272	0.100
177.800	-28.886	0.099
177.900	-39.404	0.100
178.000	-8.339	0.100
178.100	-34.765	0.099
178.200	-25.404	0.100
178.300	-36.951	0.100
178.400	-29.499	0.100
178.500	18.423	0.100
178.600	-43.167	0.100
178.700	-37.689	0.099
178.800	-23.146	0.100
178.900	-22.382	0.099
179.000	-31.401	0.099
179.100	-27.885	0.100
179.200	-37.895	0.100
179.300	-32.604	0.099
179.400	-14.328	0.099
179.500	-37.801	0.100
179.600	-28.692	0.100
179.700	-11.101	0.100
179.800	-32.533	0.100
179.900	-30.887	0.099
180.000	-35.675	0.100
180.100	-10.307	0.100
180.200	-9.137	0.099
180.300	-48.777	0.099
180.400	-15.406	0.100
180.500	-17.578	0.100
180.600	-19.046	0.100
180.700	-0.574	0.100
180.800	-37.522	0.099
180.900	-11.816	0.099
181.000	-4.467	0.100
181.100	-4.232	0.100
181.200	-27.354	0.100
181.300	8.081	0.100
181.400	25.198	0.100
181.500	-1.844	0.100
181.600	-15.747	0.099
181.700	10.192	0.099
181.800	36.494	0.100
181.900	-2.164	0.100
182.000	-21.830	0.100
182.100	24.521	0.100
182.200	16.107	0.100
182.300	5.641	0.100
182.400	24.477	0.100
182.500	28.853	0.100
182.600	18.818	0.100
182.700	45.080	0.099
182.800	85.992	0.100
182.900	70.723	0.100
183.000	22.840	0.100
183.100	61.116	0.100
183.200	61.117	0.100
183.300	48.903	0.100
183.400	34.138	0.100
183.500	31.721	0.100
183.600	24.905	0.099
183.700	31.820	0.100
183.800	55.028	0.100
183.900	56.228	0.099
184.000	39.868	0.099
184.100	23.952	0.100
184.200	14.150	0.100
184.300	19.705	0.099
184.400	11.447	0.100
184.500	40.376	0.100
184.600	57.827	0.100
184.700	37.923	0.100
184.800	58.221	0.100
184.900	43.349	0.100
185.000	1.223	0.100
185.100	36.680	0.100
185.200	30.426	0.100
185.300	27.081	0.100
185.400	4.890	0.099
185.500	33.525	0.100
185.600	56.376	0.100
185.700	49.119	0.100
185.800	37.072	0.100
185.900	25.833	0.099
186.000	18.718	0.100
186.100	13.946	0.100
186.200	16.080	0.100
186.300	15.386	0.099
186.400	17.800	0.100
186.500	41.531	0.100
186.600	27.838	0.100
186.700	16.033	0.100
186.800	45.012	0.099
186.900	12.622	0.100
187.000	20.975	0.100
187.100	20.038	0.099
187.200	6.271	0.100
187.300	22.992	0.100
187.400	27.380	0.100
187.500	29.574	0.100
187.600	31.055	0.100
187.700	16.884	0.099
187.800	35.382	0.099
187.900	17.134	0.099
188.000	23.925	0.100
188.100	23.904	0.099
188.200	14.741	0.099
188.300	19.574	0.099
188.400	39.915	0.099
188.500	35.905	0.099
188.600	14.179	0.100
188.700	41.891	0.100
188.800	43.184	0.100
188.900	25.298	0.100
189.000	13.330	0.099
189.100	28.696	0.099
189.200	-2.757	0.099
189.300	14.081	0.099
189.400	43.118	0.099
189.500	68.731	0.099
189.600	45.732	0.100
189.700	20.824	0.099
189.800	32.056	0.099
189.900	46.353	0.100
190.000	42.907	0.099
190.100	21.323	0.100
190.200	46.353	0.100
190.300	64.770	0.100
190.400	9.943	0.099
190.500	68.507	0.099
190.600	62.330	0.099
190.700	44.376	0.100
190.800	7.222	0.100
190.900	37.875	0.099
191.000	67.268	0.100
191.100	82.802	0.100
191.200	35.823	0.100
191.300	60.051	0.100
191.400	27.503	0.100
191.500	33.604	0.100
191.600	49.470	0.099
191.700	31.571	0.100
191.800	34.100	0.100
191.900	69.156	0.100
192.000	48.709	0.100
192.100	50.197	0.100
192.200	57.116	0.100
192.300	45.189	0.100
192.400	41.072	0.100
192.500	59.585	0.100
192.600	48.027	0.100
192.700	40.725	0.100
192.800	18.417	0.100
192.900	70.127	0.100
193.000	51.197	0.100
193.100	50.032	0.099
193.200	61.698	0.099
193.300	74.244	0.100
193.400	79.893	0.100
193.500	58.946	0.100
193.600	46.620	0.100
193.700	71.338	0.100
193.800	76.951	0.100
193.900	68.365	0.100
194.000	70.539	0.100
194.100	61.483	0.100
194.200	76.658	0.100
194.300	56.152	0.099
194.400	29.409	0.099
194.500	62.618	0.099
194.600	63.707	0.100
194.700	38.474	0.099
194.800	75.793	0.100
194.900	96.841	0.100
195.000	59.449	0.100
195.100	54.318	0.099
195.200	58.675	0.100
195.300	69.594	0.099
195.400	98.146	0.100
195.500	84.327	0.099
195.600	78.993	0.100
195.700	79.927	0.100
195.800	74.284	0.100
195.900	58.177	0.100
196.000	79.440	0.100
196.100	41.211	0.100
196.200	52.809	0.100
196.300	94.533	0.100
196.400	91.162	0.099
196.500	65.936	0.100
196.600	75.699	0.100
196.700	53.963	0.100
196.800	60.467	0.100
196.900	97.261	0.100
197.000	107.328	0.100
197.100	63.961	0.100
197.200	69.901	0.100
197.300	87.674	0.100
197.400	71.698	0.100
197.500	70.613	0.100
197.600	79.461	0.100
197.700	56.288	0.100
197.800	56.089	0.100
197.900	93.109	0.100
198.000	87.289	0.099
198.100	63.401	0.100
198.200	77.598	0.099
198.300	82.949	0.100
198.400	79.014	0.099
198.500	73.756	0.100
198.600	76.222	0.099
198.700	85.258	0.100
198.800	81.119	0.099
198.900	45.687	0.099
199.000	84.319	0.100
199.100	109.619	0.100
199.200	90.466	0.100
199.300	67.857	0.100
199.400	72.664	0.100
199.500	74.996	0.100
199.600	76.265	0.100
199.700	71.981	0.100
199.800	87.665	0.100
199.900	67.675	0.099
200.000	57.489	0.100
200.100	61.458	0.099
200.200	73.688	0.100
200.300	80.483	0.099
200.400	70.665	0.099
200.500	64.091	0.100
200.600	96.909	0.099
200.700	82.715	0.100
200.800	82.656	0.099
200.900	80.564	0.100
201.000	95.904	0.100
201.100	105.355	0.100
201.200	71.402	0.100
201.300	80.660	0.100
201.400	76.254	0.099
201.500	81.429	0.100
201.600	89.242	0.100
201.700	81.800	0.099
201.800	79.149	0.100
201.900	91.112	0.099
202.000	95.955	0.100
202.100	74.480	0.099
202.200	74.649	0.100
202.300	66.628	0.100
202.400	77.902	0.099
202.500	102.985	0.100
202.600	99.079	0.099
202.700	89.508	0.100
202.800	71.753	0.099
202.900	63.871	0.100
203.000	79.429	0.100
203.100	82.769	0.099
203.200	63.590	0.099
203.300	92.326	0.099
203.400	93.102	0.099
203.500	97.869	0.100
203.600	83.312	0.100
203.700	87.366	0.099
203.800	100.658	0.099
203.900	85.697	0.100
204.000	65.661	0.099
204.100	106.051	0.100
204.200	116.411	0.099
204.300	92.436	0.099
204.400	92.078	0.100
204.500	73.523	0.100
204.600	60.748	0.099
204.700	97.525	0.099
204.800	100.159	0.099
204.900	97.868	0.099
205.000	62.881	0.099
205.100	67.771	0.099
205.200	77.003	0.099
205.300	83.723	0.099
205.400	96.611	0.099
205.500	63.846	0.100
205.600	75.095	0.100
205.700	104.222	0.099
205.800	76.897	0.100
205.900	72.466	0.099
206.000	74.252	0.100
206.100	91.236	0.099
206.200	93.918	0.099
206.300	77.697	0.099
206.400	57.679	0.099
206.500	79.052	0.100
206.600	92.116	0.099
206.700	82.768	0.099
206.800	87.694	0.099
206.900	79.329	0.099
207.000	72.964	0.099
207.100	78.458	0.099
207.200	51.880	0.099
207.300	75.985	0.099
207.400	94.824	0.100
207.500	103.577	0.099
207.600	93.580	0.100
207.700	89.583	0.100
207.800	80.582	0.099
207.900	92.784	0.099
208.000	47.746	0.099
208.100	75.984	0.100
208.200	71.893	0.100
208.300	69.538	0.100
208.400	93.067	0.099
208.500	73.653	0.099
208.600	105.753	0.099
208.700	112.999	0.100
208.800	93.687	0.099
208.900	94.462	0.099
209.000	79.213	0.099
209.100	67.292	0.099
209.200	75.114	0.099
209.300	76.951	0.099
209.400	73.942	0.099
209.500	83.795	0.100
209.600	72.380	0.099
209.700	80.112	0.100
209.800	96.944	0.099
209.900	67.035	0.100
210.000	58.721	0.099
210.100	80.157	0.099
210.200	79.002	0.099
210.300	80.778	0.099
210.400	70.721	0.099
210.500	64.898	0.099
210.600	79.400	0.100
210.700	111.455	0.099
210.800	58.642	0.099
210.900	89.493	0.099
211.000	79.718	0.099
211.100	79.290	0.099
211.200	72.880	0.100
211.300	91.356	0.099
211.400	71.832	0.099
211.500	62.737	0.100
211.600	61.665	0.100
211.700	100.652	0.099
211.800	68.096	0.099
211.900	79.275	0.099
212.000	93.395	0.099
212.100	85.273	0.099
212.200	69.469	0.099
212.300	82.029	0.099
212.400	74.338	0.099
212.500	73.533	0.099
212.600	83.878	0.099
212.700	99.974	0.100
212.800	86.400	0.099
212.900	98.177	0.099
213.000	60.061	0.099
213.100	81.018	0.100
213.200	64.070	0.100
213.300	69.048	0.099
213.400	79.129	0.100
213.500	96.719	0.099
213.600	62.030	0.099
213.700	106.799	0.099
213.800	85.576	0.100
213.900	81.732	0.099
214.000	67.270	0.099
214.100	90.212	0.099
214.200	85.340	0.100
214.300	87.816	0.099
214.400	59.263	0.099
214.500	75.155	0.099
214.600	72.185	0.100
214.700	70.339	0.099
214.800	55.055	0.099
214.900	82.720	0.100
215.000	90.494	0.100
215.100	64.004	0.100
215.200	59.991	0.099
215.300	87.107	0.099
215.400	85.443	0.099
215.500	73.441	0.099
215.600	89.559	0.099
215.700	79.188	0.100
215.800	60.774	0.099
215.900	52.859	0.099
216.000	80.046	0.100
216.100	103.345	0.099
216.200	67.068	0.099
216.300	91.138	0.099
216.400	71.524	0.099
216.500	64.581	0.099
216.600	64.319	0.099
216.700	67.496	0.099
216.800	89.294	0.099
216.900	76.755	0.099
217.000	63.592	0.099
217.100	60.091	0.099
217.200	85.300	0.099
217.300	71.615	0.099
217.400	88.795	0.099
217.500	54.784	0.099
217.600	115.048	0.099
217.700	89.441	0.099
217.800	62.551	0.099
217.900	77.117	0.099
218.000	86.720	0.099
218.100	78.324	0.099
218.200	79.324	0.099
218.300	92.492	0.099
218.400	76.774	0.100
218.500	61.888	0.099
218.600	64.006	0.099
218.700	70.593	0.099
218.800	77.838	0.099
218.900	71.711	0.099
219.000	59.487	0.099
219.100	81.509	0.099
219.200	46.200	0.099
219.300	111.352	0.099
219.400	104.803	0.099
219.500	79.672	0.099
219.600	80.264	0.100
219.700	79.798	0.099
219.800	69.649	0.099
219.900	56.246	0.099
220.000	89.201	0.100
220.100	84.059	0.099
220.200	79.123	0.100
220.300	53.092	0.099
220.400	74.279	0.099
220.500	71.561	0.100
220.600	94.466	0.100
220.700	82.137	0.099
220.800	78.903	0.100
220.900	82.288	0.100
221.000	80.257	0.100
221.100	52.609	0.100
221.200	46.546	0.100
221.300	59.271	0.100
221.400	80.326	0.099
221.500	72.662	0.100
221.600	73.809	0.100
221.700	77.128	0.099
221.800	89.440	0.099
221.900	101.828	0.100
222.000	78.908	0.100
222.100	77.454	0.100
222.200	61.961	0.100
222.300	44.819	0.100
222.400	74.726	0.099
222.500	73.980	0.100
222.600	74.880	0.099
222.700	61.914	0.099
222.800	63.423	0.099
222.900	70.640	0.099
223.000	93.973	0.100
223.100	94.511	0.100
223.200	63.575	0.099
223.300	67.177	0.099
223.400	69.488	0.100
223.500	81.723	0.100
223.600	78.827	0.099
223.700	72.119	0.100
223.800	93.543	0.100
223.900	78.552	0.099
224.000	81.661	0.100
224.100	71.048	0.100
224.200	63.867	0.100
224.300	60.811	0.100
224.400	78.329	0.099
224.500	71.807	0.100
224.600	104.193	0.099
224.700	89.077	0.100
224.800	85.094	0.100
224.900	89.005	0.100
225.000	70.887	0.099
225.100	77.900	0.099
225.200	72.349	0.099
225.300	64.718	0.100
225.400	88.769	0.099
225.500	65.235	0.099
225.600	83.464	0.100
225.700	69.396	0.099
225.800	78.128	0.100
225.900	54.245	0.099
226.000	45.359	0.099
226.100	91.242	0.099
226.200	60.950	0.100
226.300	92.682	0.100
226.400	83.773	0.100
226.500	67.629	0.099
226.600	93.435	0.099
226.700	84.831	0.100
226.800	71.192	0.099
226.900	64.202	0.099
227.000	71.228	0.099
227.100	88.752	0.099
227.200	81.350	0.100
227.300	56.061	0.099
227.400	59.649	0.100
227.500	113.865	0.099
227.600	81.266	0.099
227.700	71.283	0.099
227.800	76.198	0.099
227.900	87.797	0.099
228.000	51.099	0.099
228.100	62.479	0.099
228.200	103.130	0.099
228.300	70.831	0.100
228.400	78.176	0.099
228.500	69.754	0.099
228.600	94.852	0.099
228.700	82.611	0.099
228.800	69.742	0.099
228.900	60.187	0.099
229.000	78.327	0.099
229.100	90.967	0.099
229.200	98.271	0.099
229.300	67.033	0.099
229.400	87.193	0.099
229.500	94.147	0.099
229.600	75.068	0.099
229.700	79.088	0.099
229.800	65.023	0.099
229.900	80.913	0.099
230.000	76.316	0.099
230.100	74.791	0.099
230.200	50.903	0.099
230.300	66.786	0.099
230.400	93.133	0.099
230.500	89.610	0.099
230.600	78.054	0.100
230.700	84.477	0.100
230.800	51.991	0.099
230.900	62.413	0.099
231.000	37.267	0.099
231.100	90.702	0.099
231.200	75.224	0.099
231.300	70.742	0.099
231.400	69.344	0.100
231.500	61.988	0.099
231.600	66.155	0.099
231.700	81.820	0.099
231.800	93.866	0.099
231.900	68.489	0.099
232.000	84.829	0.099
232.100	73.565	0.099
232.200	88.468	0.099
232.300	73.922	0.099
232.400	65.327	0.099
232.500	69.407	0.099
232.600	51.864	0.100
232.700	72.701	0.099
232.800	72.671	0.099
232.900	82.942	0.099
233.000	69.235	0.099
233.100	81.895	0.099
233.200	73.674	0.099
233.300	86.352	0.099
233.400	83.115	0.099
233.500	90.358	0.099
233.600	55.550	0.099
233.700	82.967	0.100
233.800	67.381	0.099
233.900	71.908	0.099
234.000	49.231	0.100
234.100	77.880	0.099
234.200	72.642	0.099
234.300	82.941	0.099
234.400	74.469	0.099
234.500	71.910	0.099
234.600	60.320	0.099
234.700	64.504	0.099
234.800	74.273	0.099
234.900	69.130	0.099
235.000	90.755	0.099
235.100	92.164	0.099
235.200	68.956	0.099
235.300	63.589	0.100
235.400	79.604	0.099
235.500	90.621	0.100
235.600	72.099	0.099
235.700	78.921	0.099
235.800	77.240	0.100
235.900	53.480	0.099
236.000	66.391	0.099
236.100	93.409	0.099
236.200	86.989	0.099
236.300	45.771	0.100
236.400	81.743	0.099
236.500	71.553	0.099
236.600	92.125	0.099
236.700	65.137	0.099
236.800	58.474	0.099
236.900	86.968	0.099
237.000	47.705	0.099
237.100	59.060	0.099
237.200	83.234	0.099
237.300	83.314	0.099
237.400	86.932	0.099
237.500	77.104	0.099
237.600	101.217	0.099
237.700	75.340	0.099
237.800	79.846	0.099
237.900	75.929	0.099
238.000	78.656	0.099
238.100	81.572	0.099
238.200	63.894	0.099
238.300	81.401	0.099
238.400	82.276	0.099
238.500	74.880	0.099
238.600	92.031	0.099
238.700	84.381	0.099
238.800	61.955	0.099
238.900	74.115	0.099
239.000	71.868	0.099
239.100	89.498	0.099
239.200	68.231	0.099
239.300	50.365	0.099
239.400	61.000	0.099
239.500	68.882	0.099
239.600	107.319	0.099
239.700	86.367	0.100
239.800	79.227	0.100
239.900	69.831	0.099
240.000	101.343	0.099
240.100	90.181	0.099
240.200	81.637	0.099
240.300	77.208	0.099
240.400	75.550	0.099
240.500	84.078	0.099
240.600	73.789	0.099
240.700	50.298	0.099
240.800	61.723	0.099
240.900	77.740	0.099
241.000	84.070	0.099
241.100	75.483	0.099
241.200	58.477	0.099
241.300	41.571	0.099
241.400	53.250	0.099
241.500	47.523	0.099
241.600	57.724	0.099
241.700	38.675	0.099
241.800	48.153	0.099
241.900	-0.228	0.099
242.000	34.061	0.099
242.100	9.684	0.099
242.200	27.460	0.099
242.300	27.518	0.099
242.400	38.915	0.100
242.500	30.380	0.099
242.600	-4.312	0.099
242.700	6.166	0.099
242.800	-6.217	0.099
242.900	18.195	0.099
243.000	34.520	0.100
243.100	11.449	0.099
243.200	2.168	0.099
243.300	9.414	0.099
243.400	-0.493	0.099
243.500	-6.618	0.099
243.600	17.105	0.099
243.700	-12.521	0.099
243.800	-29.140	0.099
243.900	-15.411	0.100
244.000	-16.022	0.099
244.100	12.927	0.100
244.200	14.345	0.099
244.300	-5.023	0.099
244.400	-16.610	0.099
244.500	-19.340	0.100
244.600	1.138	0.099
244.700	-14.340	0.099
244.800	-22.298	0.099
244.900	-6.178	0.099
245.000	-9.104	0.099
245.100	-9.950	0.099
245.200	-10.388	0.099
245.300	9.663	0.099
245.400	5.543	0.099
245.500	-8.154	0.099
245.600	-21.414	0.100
245.700	-34.381	0.099
245.800	-15.498	0.099
245.900	-31.485	0.100
246.000	-13.927	0.099
246.100	16.381	0.100
246.200	19.590	0.099
246.300	-33.708	0.099
246.400	-23.466	0.099
246.500	-18.256	0.099
246.600	-9.965	0.099
246.700	-32.399	0.099
246.800	-6.891	0.100
246.900	-3.859	0.099
247.000	-25.818	0.099
247.100	-16.666	0.099
247.200	-8.804	0.099
247.300	4.110	0.100
247.400	-35.093	0.100
247.500	-27.650	0.099
247.600	-12.702	0.099
247.700	-11.754	0.099
247.800	-4.461	0.099
247.900	-17.732	0.099
248.000	-4.441	0.099
248.100	-14.412	0.099
248.200	-38.301	0.099
248.300	-33.919	0.099
248.400	-4.135	0.099
248.500	16.800	0.099
248.600	-8.660	0.099
248.700	-6.781	0.099
248.800	-18.904	0.099
248.900	9.389	0.099
249.000	-4.809	0.099
249.100	23.639	0.099
249.200	-12.235	0.099
249.300	-17.717	0.100
249.400	-36.933	0.099
249.500	-13.595	0.099
249.600	-13.721	0.099
249.700	-42.149	0.099
249.800	-23.884	0.099
249.900	-3.959	0.099
250.000	2.685	0.100
250.100	-15.134	0.099
250.200	11.078	0.100
250.300	-28.465	0.099
250.400	21.044	0.099
250.500	-15.672	0.099
250.600	-19.716	0.099
250.700	-26.465	0.099
250.800	-9.161	0.099
250.900	-21.562	0.099
251.000	-15.300	0.099
251.100	-0.387	0.099
251.200	-1.012	0.099
251.300	-4.906	0.099
251.400	4.943	0.099
251.500	3.127	0.099
251.600	14.324	0.099
251.700	13.960	0.099
251.800	-13.402	0.099
251.900	-19.808	0.099
252.000	0.845	0.099
252.100	-50.574	0.099
252.200	-44.513	0.099
252.300	15.343	0.099
252.400	-31.569	0.099
252.500	9.389	0.099
252.600	-31.107	0.099
252.700	-2.936	0.099
252.800	-24.835	0.099
252.900	2.234	0.100
253.000	-9.369	0.099
253.100	-18.424	0.100
253.200	-25.537	0.099
253.300	7.508	0.099
253.400	-10.456	0.099
253.500	-36.806	0.100
253.600	-8.844	0.099
253.700	-1.817	0.099
253.800	-0.909	0.099
253.900	-24.983	0.099
254.000	-17.336	0.099
254.100	-34.857	0.099
254.200	-18.746	0.099
254.300	-10.882	0.099
254.400	-6.792	0.099
254.500	-20.172	0.099
254.600	-20.463	0.100
254.700	0.400	0.100
254.800	-14.177	0.099
254.900	-5.620	0.099
255.000	12.643	0.099
255.100	-15.055	0.099
255.200	-30.918	0.099
255.300	-28.527	0.099
255.400	-28.828	0.099
255.500	-17.243	0.099
255.600	0.129	0.100
255.700	3.115	0.099
255.800	-25.794	0.099
255.900	-14.175	0.099
256.000	-25.473	0.099
256.100	4.388	0.099
256.200	-21.285	0.099
256.300	-34.969	0.099
256.400	-27.098	0.100
256.500	-34.452	0.099
256.600	8.881	0.099
256.700	-8.827	0.099
256.800	-7.576	0.099
256.900	-22.935	0.099
257.000	-22.400	0.099
257.100	-25.443	0.099
257.200	-11.096	0.099
257.300	-39.153	0.099
257.400	-34.826	0.099
257.500	-22.704	0.099
257.600	-34.322	0.099
257.700	2.534	0.099
257.800	-28.786	0.099
257.900	-31.854	0.099
258.000	5.689	0.099
258.100	-3.604	0.099
258.200	-23.920	0.099
258.300	-24.598	0.099
258.400	-30.807	0.099
258.500	-32.977	0.099
258.600	-0.405	0.099
258.700	-38.822	0.099
258.800	-28.011	0.099
258.900	-16.746	0.099
259.000	-33.112	0.099
259.100	-14.016	0.099
259.200	-26.052	0.099
259.300	4.954	0.099
259.400	-7.648	0.099
259.500	-24.746	0.099
259.600	-26.703	0.099
259.700	-40.183	0.099
259.800	-16.739	0.099
259.900	-36.072	0.099
260.000	-0.103	0.099
260.100	0.793	0.099
260.200	-25.772	0.099
260.300	-18.888	0.099
260.400	-43.582	0.099
260.500	-12.302	0.099
260.600	-22.869	0.099
260.700	-11.830	0.099
260.800	-22.743	0.099
260.900	-38.800	0.099
261.000	-23.308	0.099
261.100	-21.410	0.100
261.200	-10.739	0.099
261.300	-15.180	0.099
261.400	-21.822	0.099
261.500	-9.550	0.099
261.600	-27.312	0.099
261.700	-47.423	0.099
261.800	-43.999	0.099
261.900	-36.305	0.099
262.000	-45.694	0.099
262.100	-31.834	0.099
262.200	-33.927	0.099
262.300	-1.624	0.099
262.400	-24.863	0.099
262.500	-27.251	0.099
262.600	-16.366	0.099
262.700	-47.627	0.099
262.800	-1.676	0.100
262.900	-33.415	0.099
263.000	-34.615	0.099
263.100	-27.912	0.099
263.200	-40.593	0.099
263.300	-26.936	0.099
263.400	-10.603	0.099
263.500	-20.456	0.099
263.600	-41.157	0.099
263.700	-30.888	0.099
263.800	-25.845	0.099
263.900	-36.033	0.099
264.000	-61.065	0.099
264.100	-41.447	0.099
264.200	-24.387	0.099
264.300	-40.896	0.100
264.400	-34.080	0.100
264.500	-23.988	0.099
264.600	-34.622	0.099
264.700	-29.735	0.099
264.800	-33.169	0.099
264.900	-22.966	0.099
265.000	-30.551	0.099
265.100	-51.061	0.099
265.200	-18.161	0.099
265.300	-23.346	0.099
265.400	-30.619	0.100
265.500	-59.483	0.099
265.600	-28.829	0.099
265.700	-28.556	0.099
265.800	-19.519	0.099
265.900	-49.800	0.099
266.000	-17.065	0.099
266.100	-4.876	0.099
266.200	-23.036	0.099
266.300	-42.304	0.099
266.400	-32.344	0.099
266.500	-45.774	0.099
266.600	-8.688	0.099
266.700	-23.196	0.099
266.800	-49.476	0.099
266.900	-20.827	0.099
267.000	-38.147	0.100
267.100	-28.340	0.099
267.200	-29.999	0.099
267.300	-47.016	0.099
267.400	-56.778	0.099
267.500	-57.127	0.099
267.600	-17.424	0.099
267.700	-50.268	0.100
267.800	-47.674	0.099
267.900	-39.528	0.099
268.000	-38.927	0.100
268.100	-43.118	0.099
268.200	-22.770	0.099
268.300	-33.531	0.099
268.400	-38.100	0.099
268.500	-51.840	0.099
268.600	-27.139	0.099
268.700	-28.314	0.099
268.800	-53.454	0.099
268.900	-84.492	0.099
269.000	-49.623	0.099
269.100	-28.992	0.099
269.200	-37.637	0.099
269.300	-21.022	0.099
269.400	-28.782	0.099
269.500	-26.275	0.099
269.600	-36.837	0.099
269.700	-39.148	0.100
269.800	-46.588	0.099
269.900	-55.909	0.099
270.000	-37.658	0.099
270.100	-36.823	0.099
270.200	-47.301	0.099
270.300	-26.716	0.099
270.400	-37.891	0.099
270.500	-43.321	0.099
270.600	-27.535	0.100
270.700	-44.242	0.100
270.800	-53.780	0.099
270.900	-63.169	0.100
271.000	-2.498	0.099
271.100	-18.350	0.100
271.200	-15.193	0.099
271.300	-43.930	0.099
271.400	-39.737	0.099
271.500	-34.726	0.100
271.600	-41.997	0.099
271.700	-29.295	0.099
271.800	-22.775	0.099
271.900	-32.213	0.099
272.000	-39.639	0.099
272.100	-43.546	0.099
272.200	-43.129	0.099
272.300	-38.052	0.100
272.400	-46.265	0.099
272.500	-35.927	0.100
272.600	-37.852	0.100
272.700	-48.522	0.099
272.800	-59.561	0.099
272.900	-56.281	0.099
273.000	-44.414	0.100
273.100	-16.501	0.099
273.200	-45.852	0.099
273.300	-9.984	0.099
273.400	-39.134	0.099
273.500	-62.130	0.099
273.600	-40.428	0.099
273.700	-41.065	0.099
273.800	-31.981	0.100
273.900	-56.476	0.099
274.000	-54.443	0.099
274.100	-20.569	0.100
274.200	-45.741	0.099
274.300	-35.487	0.099
274.400	-59.994	0.099
274.500	-67.451	0.099
274.600	-41.803	0.099
274.700	-49.887	0.099
274.800	-53.806	0.099
274.900	-33.283	0.099
275.000	-43.697	0.099
275.100	-48.006	0.099
275.200	-35.088	0.100
275.300	-32.087	0.100
275.400	-35.493	0.100
275.500	-48.532	0.100
275.600	-40.083	0.099
275.700	-10.314	0.099
275.800	-26.106	0.099
275.900	-53.244	0.099
276.000	-35.755	0.099
276.100	-48.067	0.099
276.200	-45.482	0.099
276.300	-44.378	0.099
276.400	-62.711	0.099
276.500	-48.533	0.099
276.600	-23.024	0.099
276.700	-54.098	0.099
276.800	-19.259	0.099
276.900	-43.208	0.099
277.000	-20.453	0.100
277.100	-56.718	0.099
277.200	-36.187	0.099
277.300	-31.745	0.099
277.400	-54.427	0.099
277.500	-71.278	0.099
277.600	-28.300	0.099
277.700	-45.200	0.099
277.800	-28.273	0.099
277.900	-33.817	0.099
278.000	-67.641	0.100
278.100	-37.806	0.099
278.200	-48.154	0.099
278.300	-47.457	0.099
278.400	-59.015	0.099
278.500	-24.012	0.099
278.600	-32.998	0.100
278.700	-30.032	0.099
278.800	-26.387	0.099
278.900	-57.798	0.100
279.000	-26.437	0.099
279.100	-50.088	0.099
279.200	-23.944	0.100
279.300	-43.801	0.099
279.400	-59.550	0.099
279.500	-59.332	0.099
279.600	-19.598	0.099
279.700	-18.488	0.099
279.800	-46.492	0.099
279.900	-62.845	0.100
280.000	-53.864	0.099
280.100	-42.735	0.100
280.200	-31.306	0.100
280.300	-26.694	0.100
280.400	-24.807	0.099
280.500	-32.322	0.100
280.600	-51.553	0.100
280.700	-66.200	0.099
280.800	-40.828	0.099
280.900	-46.490	0.099
281.000	-31.776	0.099
281.100	-31.238	0.099
281.200	-24.948	0.099
281.300	-51.363	0.100
281.400	-45.124	0.099
281.500	-26.920	0.100
281.600	-44.194	0.100
281.700	-42.840	0.099
281.800	-38.582	0.100
281.900	-68.084	0.099
282.000	-42.757	0.099
282.100	-30.653	0.099
282.200	-22.207	0.099
282.300	-35.710	0.099
282.400	-53.869	0.099
282.500	-58.385	0.099
282.600	-28.848	0.099
282.700	-36.023	0.099
282.800	-36.725	0.099
282.900	-20.788	0.099
283.000	-36.149	0.100
283.100	-71.127	0.099
283.200	-50.628	0.099
283.300	-52.745	0.100
283.400	-14.650	0.100
283.500	-52.277	0.100
283.600	-65.007	0.099
283.700	-24.897	0.100
283.800	-26.194	0.100
283.900	-38.878	0.100
284.000	-37.167	0.100
284.100	-46.949	0.099
284.200	-68.720	0.100
284.300	-37.673	0.099
284.400	-35.058	0.099
284.500	-49.269	0.099
284.600	-36.373	0.099
284.700	-33.465	0.099
284.800	-34.209	0.099
284.900	-15.508	0.099
285.000	-53.757	0.100
285.100	-46.327	0.099
285.200	-46.994	0.100
285.300	-33.189	0.099
285.400	-33.715	0.100
285.500	-36.247	0.099
285.600	-36.108	0.099
285.700	-19.160	0.099
285.800	-38.627	0.100
285.900	-48.482	0.099
286.000	-74.251	0.099
286.100	-27.578	0.100
286.200	-47.423	0.099
286.300	-44.319	0.099
286.400	-39.138	0.100
286.500	-73.494	0.099
286.600	-48.733	0.099
286.700	-49.479	0.099
286.800	-50.877	0.099
286.900	-48.182	0.099
287.000	-59.412	0.099
287.100	-38.832	0.100
287.200	-57.908	0.099
287.300	-51.922	0.100
287.400	-51.762	0.099
287.500	-33.583	0.099
287.600	-39.150	0.099
287.700	-28.935	0.100
287.800	-43.254	0.099
287.900	-50.787	0.099
288.000	-34.470	0.100
288.100	-19.273	0.099
288.200	-45.574	0.099
288.300	-39.018	0.100
288.400	-34.642	0.099
288.500	-29.179	0.099
288.600	-24.953	0.099
288.700	-47.526	0.100
288.800	-36.039	0.099
288.900	-68.440	0.100
289.000	-37.010	0.100
289.100	-11.365	0.100
289.200	-39.791	0.100
289.300	-64.217	0.099
289.400	-58.352	0.100
289.500	-55.923	0.100
289.600	-53.787	0.099
289.700	-31.938	0.099
289.800	-56.772	0.099
289.900	-35.083	0.099
290.000	-51.787	0.099
290.100	-21.646	0.099
290.200	-31.827	0.099
290.300	-26.289	0.099
290.400	-25.128	0.100
290.500	-46.258	0.099
290.600	-26.051	0.099
290.700	-19.558	0.099
290.800	-35.595	0.099
290.900	-40.390	0.099
291.000	-35.606	0.099
291.100	-46.775	0.099
291.200	-61.285	0.099
291.300	-39.747	0.099
291.400	-38.000	0.099
291.500	-43.509	0.099
291.600	-33.137	0.100
291.700	-50.506	0.099
291.800	-39.614	0.100
291.900	-43.998	0.100
292.000	-39.208	0.099
292.100	-33.453	0.099
292.200	-31.051	0.100
292.300	-25.753	0.100
292.400	-27.526	0.099
292.500	-44.234	0.100
292.600	-42.225	0.099
292.700	-40.952	0.099
292.800	-62.425	0.099
292.900	-19.311	0.099
293.000	-23.818	0.100
293.100	-63.000	0.099
293.200	-61.130	0.099
293.300	-24.678	0.099
293.400	-60.577	0.099
293.500	-24.131	0.100
293.600	-40.952	0.100
293.700	-32.755	0.099
293.800	-50.503	0.099
293.900	-65.232	0.100
294.000	-37.561	0.100
294.100	-49.687	0.100
294.200	-24.357	0.100
294.300	-26.887	0.100
294.400	-67.232	0.099
294.500	-62.016	0.099
294.600	-32.204	0.100
294.700	-15.698	0.100
294.800	-6.725	0.100
294.900	-42.292	0.100
295.000	-42.752	0.099
295.100	-37.581	0.100
295.200	-26.980	0.099
295.300	-14.443	0.099
295.400	-52.636	0.099
295.500	-53.909	0.099
295.600	-36.460	0.099
295.700	-46.052	0.100
295.800	-33.468	0.099
295.900	-29.933	0.099
296.000	-20.345	0.099
296.100	-55.983	0.099
296.200	-29.336	0.099
296.300	-36.265	0.099
296.400	-54.384	0.099
296.500	-43.502	0.099
296.600	-11.986	0.099
296.700	-34.616	0.099
296.800	-60.465	0.099
296.900	-41.990	0.099
297.000	-30.010	0.099
297.100	-33.076	0.100
297.200	-26.165	0.099
297.300	-22.769	0.100
297.400	-46.728	0.100
297.500	-44.997	0.100
297.600	-38.871	0.099
297.700	-32.685	0.099
297.800	-51.887	0.099
297.900	-12.127	0.099
298.000	-50.620	0.100
298.100	-34.790	0.100
298.200	-33.011	0.099
298.300	-42.891	0.100
298.400	-6.557	0.099
298.500	-44.311	0.100
298.600	-19.558	0.100
298.700	-27.615	0.100
298.800	-48.842	0.099
298.900	-28.572	0.100
299.000	-62.464	0.100
299.100	-24.556	0.100
299.200	-31.336	0.100
299.300	-28.798	0.099
299.400	-34.007	0.099
299.500	-30.470	0.100
299.600	-39.118	0.100
299.700	-36.773	0.100
299.800	-39.835	0.100
299.900	-51.965	0.100
300.000	-46.154	0.100
300.100	-41.727	0.100
300.200	-20.337	0.100
300.300	-31.474	0.100
300.400	-41.552	0.100
300.500	-41.288	0.100
300.600	-33.183	0.100
300.700	-31.449	0.100
300.800	4.536	0.100
300.900	-36.702	0.100
301.000	-55.592	0.100
301.100	-54.740	0.100
301.200	-28.562	0.100
301.300	-63.856	0.100
301.400	-37.101	0.100
301.500	-18.309	0.100
301.600	-28.617	0.100
301.700	-34.125	0.100
301.800	-57.508	0.100
301.900	-41.480	0.099
302.000	-15.240	0.100
302.100	-39.944	0.099
302.200	-21.466	0.100
302.300	-37.756	0.100
302.400	-37.383	0.100
302.500	-42.805	0.100
302.600	-29.236	0.100
302.700	-51.359	0.100
302.800	-52.333	0.100
302.900	-58.028	0.100
303.000	-22.003	0.100
303.100	-38.762	0.100
303.200	-33.296	0.100
303.300	-14.888	0.100
303.400	-30.533	0.099
303.500	-56.284	0.099
303.600	-16.299	0.099
303.700	-42.656	0.100
303.800	-21.261	0.100
303.900	-42.754	0.100
304.000	-55.141	0.099
304.100	-23.252	0.100
304.200	-35.543	0.100
304.300	-31.916	0.100
304.400	-37.165	0.100
304.500	-55.655	0.099
304.600	-32.261	0.100
304.700	-55.952	0.099
304.800	-20.847	0.100
304.900	-21.712	0.100
305.000	-41.252	0.099
305.100	-43.517	0.100
305.200	-49.332	0.100
305.300	-36.508	0.100
305.400	-32.017	0.100
305.500	-43.832	0.100
305.600	-47.458	0.100
305.700	-33.061	0.099
305.800	-37.020	0.100
305.900	-63.372	0.099
306.000	-58.289	0.099
306.100	-16.598	0.099
306.200	0.038	0.100
306.300	-49.855	0.099
306.400	-46.301	0.099
306.500	-48.160	0.100
306.600	-74.628	0.099
306.700	-5.898	0.100
306.800	-23.249	0.099
306.900	-19.158	0.100
307.000	-31.943	0.100
307.100	-13.959	0.100
307.200	-26.459	0.100
307.300	-30.169	0.100
307.400	-41.758	0.099
307.500	-33.804	0.099
307.600	-42.934	0.100
307.700	-45.280	0.100
307.800	-31.780	0.099
307.900	-61.517	0.099
308.000	-57.078	0.099
308.100	-23.075	0.099
308.200	-52.372	0.100
308.300	-41.595	0.100
308.400	-23.736	0.100
308.500	-51.517	0.099
308.600	-40.312	0.100
308.700	-30.762	0.100
308.800	-46.098	0.100
308.900	-10.100	0.099
309.000	-58.922	0.100
309.100	-36.725	0.100
309.200	-32.495	0.100
309.300	-45.999	0.100
309.400	-25.587	0.100
309.500	-33.261	0.100
309.600	-38.875	0.100
309.700	-67.251	0.099
309.800	-39.516	0.099
309.900	-34.636	0.099
310.000	-27.901	0.100
310.100	-49.125	0.099
310.200	-58.386	0.100
310.300	-33.412	0.099
310.400	-36.835	0.100
310.500	-21.074	0.100
310.600	-48.857	0.100
310.700	-30.469	0.099
310.800	-30.251	0.100
310.900	-69.092	0.099
311.000	-63.856	0.100
311.100	-36.719	0.099
311.200	-41.874	0.100
311.300	-25.296	0.099
311.400	-48.209	0.099
311.500	-33.030	0.099
311.600	-28.014	0.100
311.700	-27.564	0.099
311.800	-37.735	0.100
311.900	-19.963	0.100
312.000	-37.475	0.100
312.100	2.902	0.100
312.200	-10.898	0.100
312.300	-48.405	0.099
312.400	-55.878	0.099
312.500	-16.664	0.100
312.600	-33.965	0.100
312.700	-29.553	0.100
312.800	-13.114	0.100
312.900	-31.190	0.100
313.000	-45.277	0.100
313.100	-36.636	0.100
313.200	-47.374	0.099
313.300	-30.811	0.100
313.400	-39.993	0.100
313.500	-44.799	0.100
313.600	-44.983	0.099
313.700	-25.078	0.099
313.800	-24.483	0.100
313.900	-71.860	0.099
314.000	-19.962	0.100
314.100	-24.320	0.099
314.200	-34.211	0.099
314.300	-27.761	0.099
314.400	-38.516	0.099
314.500	-21.853	0.099
314.600	-45.631	0.100
314.700	-42.455	0.099
314.800	-7.048	0.100
314.900	-36.648	0.100
315.000	-19.387	0.100
315.100	-46.082	0.100
315.200	-11.284	0.099
315.300	-28.555	0.100
315.400	-52.321	0.100
315.500	-38.246	0.100
315.600	-21.480	0.099
315.700	-20.570	0.100
315.800	-55.694	0.100
315.900	-40.544	0.099
316.000	-27.934	0.100
316.100	-28.862	0.100
316.200	-25.336	0.100
316.300	-49.803	0.100
316.400	-60.778	0.099
316.500	-53.227	0.099
316.600	-28.450	0.100
316.700	-20.586	0.100
316.800	-23.659	0.100
316.900	-15.734	0.099
317.000	-30.868	0.099
317.100	-15.089	0.099
317.200	-34.407	0.100
317.300	-14.926	0.100
317.400	-20.277	0.100
317.500	-29.584	0.100
317.600	-24.244	0.100
317.700	-32.737	0.100
317.800	-43.912	0.100
317.900	-28.444	0.099
318.000	-23.240	0.100
318.100	-58.291	0.100
318.200	-43.030	0.099
318.300	-19.653	0.099
318.400	-45.305	0.099
318.500	-43.741	0.100
318.600	-40.835	0.100
318.700	-17.935	0.100
318.800	-50.269	0.100
318.900	-32.429	0.100
319.000	-15.842	0.099
319.100	-34.729	0.100
319.200	-28.420	0.100
319.300	-49.269	0.100
319.400	-19.609	0.099
319.500	-24.698	0.100
319.600	-42.708	0.099
319.700	-61.541	0.100
319.800	-30.797	0.099
319.900	-26.155	0.099
320.000	-31.702	0.100
320.100	-29.930	0.100
320.200	-57.635	0.099
320.300	-16.654	0.099
320.400	-35.371	0.100
320.500	-25.225	0.099
320.600	-43.863	0.100
320.700	-43.167	0.099
320.800	-53.634	0.100
320.900	-32.309	0.100
321.000	-44.054	0.100
321.100	-41.281	0.100
321.200	-0.258	0.100
321.300	-49.032	0.099
321.400	-23.569	0.100
321.500	-6.742	0.100
321.600	-32.732	0.100
321.700	-43.503	0.100
321.800	-39.937	0.100
321.900	-33.392	0.100
322.000	-46.250	0.099
322.100	-24.109	0.100
322.200	-2.472	0.100
322.300	-44.604	0.100
322.400	-12.335	0.100
322.500	-40.598	0.100
322.600	-23.790	0.099
322.700	-30.473	0.100
322.800	-14.355	0.100
322.900	-33.092	0.099
323.000	-17.035	0.100
323.100	-55.174	0.100
323.200	-29.405	0.100
323.300	-43.832	0.100
323.400	-49.136	0.100
323.500	-47.419	0.099
323.600	-52.134	0.099
323.700	-40.129	0.099
323.800	-10.583	0.100
323.900	-42.073	0.100
324.000	-43.815	0.100
324.100	-48.695	0.099
324.200	-37.616	0.100
324.300	-21.982	0.099
324.400	-18.342	0.100
324.500	-16.316	0.099
324.600	-31.010	0.099
324.700	-38.702	0.100
324.800	-37.586	0.100
324.900	-33.844	0.100
325.000	-44.022	0.100
325.100	-10.580	0.100
325.200	-14.902	0.099
325.300	-19.450	0.100
325.400	-15.655	0.099
325.500	-31.604	0.100
325.600	-59.578	0.099
325.700	-51.152	0.100
325.800	-38.482	0.100
325.900	-25.689	0.100
326.000	-23.370	0.100
326.100	-13.331	0.100
326.200	-18.885	0.100
326.300	-36.791	0.100
326.400	-37.048	0.100
326.500	-17.580	0.099
326.600	-41.941	0.100
326.700	-47.639	0.099
326.800	-34.405	0.100
326.900	-45.852	0.100
327.000	-13.823	0.100
327.100	-54.446	0.099
327.200	-12.880	0.100
327.300	-36.188	0.099
327.400	-74.721	0.099
327.500	-27.319	0.100
327.600	-35.485	0.100
327.700	-20.494	0.100
327.800	-25.126	0.100
327.900	-41.821	0.100
328.000	-22.877	0.100
328.100	-20.078	0.100
328.200	-29.024	0.099
328.300	-40.980	0.100
328.400	-31.831	0.099
328.500	-30.758	0.100
328.600	-29.242	0.099
328.700	-17.460	0.100
328.800	-23.652	0.100
328.900	-59.891	0.099
329.000	-48.135	0.099
329.100	16.253	0.100
329.200	-50.270	0.100
329.300	-43.854	0.100
329.400	-23.753	0.099
329.500	-19.678	0.100
329.600	-22.071	0.100
329.700	-29.164	0.100
329.800	-43.444	0.099
329.900	-15.987	0.099
330.000	-32.164	0.100
330.100	-30.334	0.099
330.200	-10.156	0.099
330.300	-27.894	0.100
330.400	-53.540	0.100
330.500	-54.340	0.100
330.600	-41.852	0.099
330.700	-44.070	0.099
330.800	-24.694	0.099
330.900	-19.026	0.099
331.000	19.512	0.100
331.100	-38.467	0.099
331.200	-10.028	0.099
331.300	10.792	0.100
331.400	-16.002	0.100
331.500	1.718	0.099
331.600	19.292	0.099
331.700	30.917	0.100
331.800	4.320	0.099
331.900	14.445	0.099
332.000	22.516	0.100
332.100	36.520	0.100
332.200	35.620	0.099
332.300	27.735	0.099
332.400	10.161	0.099
332.500	20.161	0.099
332.600	39.147	0.100
332.700	51.266	0.099
332.800	30.526	0.099
332.900	28.926	0.100
333.000	13.294	0.100
333.100	46.456	0.100
333.200	37.515	0.099
333.300	46.091	0.100
333.400	45.828	0.100
333.500	35.597	0.100
333.600	39.179	0.100
333.700	43.668	0.100
333.800	37.381	0.099
333.900	52.234	0.100
334.000	37.555	0.099
334.100	21.283	0.099
334.200	35.067	0.100
334.300	50.343	0.100
334.400	19.365	0.099
334.500	36.909	0.099
334.600	38.760	0.099
334.700	25.482	0.100
334.800	31.878	0.099
334.900	46.570	0.100
335.000	8.437	0.100
335.100	38.628	0.099
335.200	54.321	0.100
335.300	28.856	0.100
335.400	21.749	0.100
335.500	32.702	0.100
335.600	30.125	0.100
335.700	37.829	0.100
335.800	15.104	0.100
335.900	37.411	0.100
336.000	23.616	0.100
336.100	23.148	0.099
336.200	24.823	0.100
336.300	17.285	0.100
336.400	-2.410	0.099
336.500	19.976	0.100
336.600	22.201	0.100
336.700	39.709	0.100
336.800	24.709	0.100
336.900	27.543	0.100
337.000	2.622	0.100
337.100	10.939	0.100
337.200	17.743	0.100
337.300	30.812	0.099
337.400	11.442	0.099
337.500	45.572	0.100
337.600	30.301	0.100
337.700	38.563	0.099
337.800	3.583	0.099
337.900	21.729	0.100
338.000	15.665	0.100
338.100	53.782	0.100
338.200	25.884	0.099
338.300	45.213	0.100
338.400	43.333	0.100
338.500	25.851	0.100
338.600	61.487	0.100
338.700	38.615	0.099
338.800	17.726	0.100
338.900	32.166	0.099
339.000	15.135	0.099
339.100	17.702	0.100
339.200	32.591	0.100
339.300	59.907	0.100
339.400	56.965	0.100
339.500	48.627	0.100
339.600	54.972	0.099
339.700	43.337	0.100
339.800	20.415	0.099
339.900	51.741	0.099
340.000	22.306	0.099
340.100	42.385	0.099
340.200	-3.825	0.099
340.300	41.127	0.099
340.400	29.899	0.100
340.500	48.715	0.099
340.600	42.568	0.100
340.700	48.460	0.099
340.800	39.261	0.100
340.900	80.154	0.100
341.000	60.979	0.100
341.100	46.527	0.100
341.200	65.322	0.100
341.300	62.031	0.100
341.400	82.156	0.100
341.500	41.023	0.100
341.600	34.781	0.099
341.700	67.097	0.100
341.800	50.112	0.100
341.900	35.724	0.100
342.000	56.145	0.100
342.100	63.221	0.100
342.200	65.891	0.099
342.300	55.553	0.100
342.400	48.647	0.100
342.500	65.852	0.099
342.600	60.476	0.100
342.700	67.148	0.100
342.800	47.918	0.099
342.900	49.028	0.099
343.000	34.408	0.100
343.100	74.496	0.100
343.200	92.299	0.100
343.300	47.141	0.100
343.400	64.507	0.100
343.500	61.907	0.100
343.600	66.991	0.099
343.700	56.858	0.100
343.800	79.534	0.100
343.900	63.757	0.100
344.000	101.592	0.100
344.100	67.074	0.100
344.200	74.175	0.100
344.300	77.905	0.100
344.400	87.235	0.100
344.500	99.516	0.100
344.600	80.192	0.100
344.700	67.220	0.100
344.800	88.010	0.100
344.900	80.105	0.100
345.000	108.144	0.100
345.100	87.124	0.100
345.200	89.433	0.100
345.300	98.895	0.100
345.400	86.048	0.100
345.500	80.447	0.100
345.600	82.492	0.100
345.700	71.624	0.100
345.800	66.658	0.099
345.900	105.853	0.100
346.000	78.413	0.100
346.100	82.733	0.099
346.200	74.594	0.100
346.300	117.616	0.100
346.400	94.737	0.100
346.500	99.327	0.100
346.600	90.210	0.100
346.700	99.226	0.100
346.800	83.402	0.100
346.900	86.302	0.100
347.000	107.160	0.099
347.100	88.486	0.099
347.200	90.530	0.099
347.300	90.545	0.100
347.400	77.647	0.100
347.500	107.368	0.100
347.600	96.306	0.100
347.700	103.182	0.099
347.800	112.345	0.100
347.900	104.462	0.100
348.000	77.517	0.099
348.100	89.862	0.099
348.200	70.852	0.100
348.300	91.162	0.100
348.400	115.441	0.100
348.500	111.810	0.100
348.600	112.844	0.099
348.700	128.262	0.100
348.800	109.196	0.100
348.900	91.764	0.099
349.000	77.792	0.100
349.100	108.985	0.100
349.200	97.683	0.100
349.300	95.107	0.100
349.400	114.715	0.099
349.500	121.398	0.099
349.600	112.843	0.099
349.700	96.566	0.100
349.800	122.094	0.100
349.900	94.026	0.100
350.000	101.406	0.100
350.100	111.837	0.100
350.200	82.298	0.100
350.300	83.539	0.100
350.400	119.510	0.100
350.500	105.500	0.100
350.600	128.178	0.100
350.700	90.056	0.100
350.800	76.969	0.100
350.900	109.666	0.100
351.000	89.164	0.100
351.100	75.391	0.100
351.200	113.269	0.100
351.300	90.796	0.100
351.400	114.643	0.100
351.500	113.391	0.100
351.600	104.802	0.100
351.700	101.002	0.100
351.800	93.096	0.100
351.900	106.598	0.100
352.000	119.321	0.100
352.100	91.494	0.100
352.200	123.381	0.100
352.300	105.896	0.100
352.400	108.761	0.100
352.500	106.522	0.100
352.600	102.425	0.100
352.700	92.489	0.100
352.800	83.708	0.100
352.900	121.596	0.100
353.000	113.302	0.100
353.100	111.133	0.100
353.200	90.556	0.100
353.300	114.688	0.100
353.400	98.910	0.100
353.500	98.183	0.100
353.600	101.725	0.100
353.700	82.364	0.100
353.800	88.262	0.100
353.900	90.282	0.100
354.000	123.061	0.100
354.100	119.754	0.100
354.200	104.315	0.099
354.300	107.912	0.100
354.400	112.258	0.100
354.500	95.051	0.100
354.600	86.895	0.099
354.700	92.193	0.099
354.800	98.873	0.100
354.900	112.158	0.099
355.000	91.395	0.100
355.100	100.720	0.099
355.200	101.233	0.100
355.300	122.253	0.100
355.400	90.913	0.100
355.500	87.941	0.100
355.600	130.812	0.100
355.700	133.584	0.100
355.800	116.957	0.100
355.900	113.263	0.100
356.000	90.839	0.100
356.100	96.494	0.100
356.200	89.415	0.100
356.300	90.578	0.099
356.400	87.778	0.099
356.500	81.702	0.100
356.600	103.469	0.100
356.700	97.627	0.100
356.800	105.045	0.100
356.900	106.393	0.100
357.000	68.017	0.100
357.100	116.544	0.099
357.200	89.318	0.100
357.300	86.425	0.100
357.400	94.144	0.100
357.500	101.478	0.100
357.600	102.040	0.100
357.700	101.829	0.100
357.800	79.170	0.099
357.900	97.639	0.099
358.000	122.785	0.099
358.100	97.064	0.100
358.200	121.704	0.099
358.300	87.798	0.100
358.400	80.976	0.100
358.500	71.307	0.099
358.600	92.292	0.100
358.700	92.379	0.099
358.800	103.244	0.100
358.900	101.091	0.100
359.000	115.055	0.100
359.100	96.433	0.100
359.200	98.397	0.100
359.300	89.379	0.100
359.400	125.164	0.099
359.500	94.599	0.099
359.600	74.395	0.100
359.700	107.675	0.100
359.800	81.018	0.100
359.900	103.107	0.100
360.000	104.489	0.099
360.100	89.348	0.100
360.200	112.519	0.100
360.300	78.659	0.100
360.400	85.121	0.100
360.500	120.105	0.099
360.600	92.355	0.100
360.700	100.159	0.100
360.800	89.228	0.100
360.900	112.088	0.100
361.000	106.201	0.100
361.100	99.146	0.099
361.200	87.212	0.099
361.300	76.122	0.100
361.400	75.432	0.100
361.500	105.098	0.099
361.600	94.631	0.100
361.700	108.066	0.100
361.800	89.184	0.100
361.900	70.629	0.100
362.000	78.888	0.100
362.100	96.714	0.100
362.200	95.041	0.100
362.300	95.726	0.100
362.400	81.366	0.100
362.500	54.120	0.100
362.600	87.852	0.100
362.700	101.497	0.100
362.800	118.340	0.100
362.900	107.847	0.100
363.000	99.491	0.100
363.100	94.207	0.099
363.200	99.417	0.100
363.300	111.280	0.099
363.400	86.499	0.100
363.500	93.038	0.100
363.600	114.677	0.100
363.700	96.034	0.100
363.800	106.617	0.100
363.900	94.920	0.100
364.000	106.535	0.100
364.100	101.733	0.100
364.200	74.441	0.100
364.300	67.107	0.100
364.400	93.096	0.100
364.500	86.410	0.100
364.600	87.860	0.099
364.700	82.400	0.100
364.800	111.195	0.100
364.900	89.995	0.100
365.000	86.246	0.100
365.100	87.059	0.100
365.200	112.350	0.100
365.300	87.644	0.100
365.400	81.007	0.100
365.500	86.280	0.100
365.600	88.055	0.100
365.700	94.922	0.100
365.800	64.865	0.100
365.900	90.381	0.099
366.000	92.250	0.100
366.100	114.353	0.100
366.200	70.425	0.100
366.300	106.623	0.099
366.400	112.031	0.100
366.500	77.763	0.100
366.600	102.323	0.100
366.700	80.280	0.100
366.800	103.224	0.100
366.900	93.644	0.100
367.000	72.912	0.100
367.100	112.962	0.100
367.200	110.901	0.100
367.300	100.595	0.099
367.400	100.954	0.100
367.500	61.037	0.100
367.600	98.068	0.100
367.700	104.723	0.100
367.800	103.194	0.100
367.900	90.290	0.100
368.000	87.516	0.100
368.100	88.773	0.100
368.200	105.088	0.099
368.300	88.362	0.100
368.400	80.883	0.100
368.500	81.359	0.100
368.600	94.397	0.100
368.700	83.362	0.100
368.800	114.336	0.100
368.900	92.019	0.100
369.000	113.101	0.100
369.100	88.563	0.100
369.200	78.631	0.100
369.300	98.932	0.100
369.400	75.299	0.100
369.500	86.365	0.099
369.600	109.135	0.100
369.700	85.784	0.100
369.800	93.662	0.099
369.900	81.069	0.099
370.000	80.136	0.100
370.100	55.152	0.100
370.200	100.880	0.100
370.300	100.399	0.100
370.400	87.778	0.100
370.500	66.648	0.100
370.600	86.437	0.099
370.700	88.345	0.100
370.800	61.526	0.100
370.900	84.646	0.099
371.000	83.522	0.100
371.100	95.368	0.100
371.200	83.443	0.100
371.300	54.461	0.100
371.400	109.389	0.100
371.500	78.263	0.100
371.600	88.642	0.100
371.700	103.500	0.100
371.800	85.041	0.100
371.900	101.146	0.100
372.000	98.858	0.100
372.100	111.901	0.100
372.200	90.450	0.100
372.300	83.410	0.100
372.400	103.342	0.100
372.500	80.118	0.100
372.600	91.810	0.100
372.700	111.548	0.100
372.800	110.379	0.100
372.900	76.536	0.100
373.000	104.691	0.100
373.100	97.766	0.100
373.200	100.758	0.100
373.300	126.360	0.100
373.400	92.663	0.100
373.500	73.453	0.100
373.600	65.146	0.099
373.700	68.528	0.100
373.800	83.030	0.099
373.900	83.854	0.099
374.000	92.098	0.100
374.100	107.036	0.100
374.200	97.151	0.100
374.300	107.056	0.100
374.400	67.492	0.100
374.500	89.044	0.100
374.600	84.016	0.099
374.700	92.286	0.100
374.800	102.712	0.100
374.900	71.459	0.100
375.000	107.156	0.100
375.100	66.783	0.100
375.200	84.996	0.100
375.300	82.191	0.100
375.400	67.209	0.100
375.500	83.102	0.100
375.600	73.331	0.100
375.700	87.696	0.100
375.800	99.650	0.100
375.900	102.660	0.100
376.000	95.367	0.100
376.100	60.616	0.100
376.200	76.013	0.100
376.300	89.695	0.100
376.400	88.836	0.100
376.500	112.051	0.100
376.600	75.630	0.100
376.700	73.414	0.100
376.800	73.055	0.099
376.900	83.388	0.099
377.000	61.406	0.100
377.100	86.276	0.099
377.200	109.854	0.099
377.300	112.981	0.100
377.400	88.062	0.100
377.500	113.047	0.099
377.600	94.528	0.099
377.700	84.418	0.099
377.800	78.681	0.099
377.900	77.950	0.100
378.000	60.676	0.099
378.100	88.865	0.100
378.200	109.714	0.099
378.300	78.173	0.100
378.400	90.689	0.100
378.500	97.547	0.099
378.600	91.753	0.100
378.700	88.742	0.100
378.800	113.047	0.100
378.900	92.537	0.100
379.000	86.101	0.100
379.100	99.099	0.099
379.200	120.057	0.099
379.300	74.777	0.100
379.400	81.791	0.099
379.500	65.265	0.100
379.600	76.322	0.100
379.700	87.711	0.100
379.800	78.544	0.100
379.900	91.201	0.099
380.000	80.681	0.100
380.100	73.974	0.100
380.200	99.971	0.100
380.300	82.602	0.100
380.400	106.626	0.099
380.500	89.268	0.100
380.600	80.349	0.099
380.700	63.643	0.100
380.800	86.739	0.100
380.900	93.215	0.100
381.000	96.494	0.100
381.100	95.348	0.099
381.200	61.620	0.099
381.300	73.774	0.100
381.400	55.761	0.100
381.500	99.407	0.099
381.600	95.123	0.099
381.700	75.777	0.100
381.800	92.751	0.100
381.900	91.187	0.100
382.000	64.606	0.099
382.100	115.163	0.100
382.200	76.922	0.100
382.300	73.157	0.099
382.400	80.544	0.100
382.500	115.718	0.100
382.600	70.141	0.099
382.700	84.069	0.100
382.800	104.350	0.099
382.900	66.584	0.099
383.000	82.989	0.100
383.100	97.281	0.100
383.200	103.613	0.100
383.300	59.408	0.100
383.400	76.504	0.100
383.500	76.530	0.099
383.600	81.328	0.100
383.700	79.042	0.100
383.800	95.443	0.100
383.900	99.725	0.100
384.000	114.997	0.099
384.100	103.358	0.100
384.200	85.812	0.100
384.300	78.398	0.099
384.400	74.280	0.099
384.500	131.891	0.099
384.600	84.285	0.099
384.700	116.967	0.100
384.800	100.941	0.100
384.900	65.763	0.100
385.000	111.908	0.100
385.100	84.187	0.100
385.200	98.435	0.100
385.300	85.590	0.100
385.400	111.303	0.100
385.500	91.327	0.100
385.600	67.149	0.100
385.700	57.344	0.100
385.800	76.120	0.100
385.900	75.355	0.100
386.000	93.074	0.100
386.100	96.157	0.100
386.200	85.937	0.100
386.300	85.575	0.100
386.400	61.797	0.099
386.500	76.012	0.099
386.600	94.020	0.100
386.700	92.163	0.100
386.800	85.528	0.099
386.900	69.557	0.100
387.000	78.183	0.100
387.100	81.490	0.100
387.200	77.443	0.099
387.300	86.100	0.100
387.400	104.888	0.100
387.500	87.682	0.100
387.600	66.338	0.100
387.700	53.811	0.100
387.800	83.167	0.100
387.900	85.129	0.100
388.000	94.249	0.100
388.100	69.064	0.100
388.200	92.414	0.100
388.300	96.838	0.100
388.400	104.413	0.100
388.500	77.331	0.100
388.600	74.003	0.100
388.700	72.104	0.100
388.800	106.596	0.099
388.900	73.271	0.100
389.000	65.500	0.100
389.100	81.748	0.099
389.200	78.674	0.100
389.300	79.100	0.100
389.400	67.289	0.100
389.500	78.971	0.100
389.600	88.070	0.100
389.700	69.803	0.100
389.800	84.557	0.099
389.900	84.069	0.100
390.000	88.045	0.100
390.100	89.159	0.100
390.200	95.079	0.100
390.300	93.140	0.100
390.400	66.888	0.100
390.500	57.003	0.100
390.600	68.859	0.100
390.700	79.497	0.100
390.800	69.500	0.099
390.900	79.565	0.100
391.000	89.379	0.100
391.100	75.794	0.100
391.200	71.046	0.100
391.300	51.716	0.100
391.400	55.544	0.100
391.500	60.741	0.100
391.600	65.353	0.100
391.700	45.365	0.100
391.800	56.528	0.099
391.900	37.283	0.100
392.000	19.519	0.099
392.100	23.889	0.100
392.200	54.323	0.100
392.300	27.586	0.100
392.400	-1.740	0.100
392.500	30.110	0.100
392.600	-2.192	0.099
392.700	8.709	0.100
392.800	17.419	0.099
392.900	7.133	0.099
393.000	1.628	0.099
393.100	-18.574	0.099
393.200	2.621	0.100
393.300	1.733	0.099
393.400	5.462	0.100
393.500	9.599	0.099
393.600	-11.212	0.100
393.700	-28.056	0.100
393.800	-8.914	0.099
393.900	-23.094	0.100
394.000	-9.109	0.100
394.100	11.974	0.100
394.200	-33.342	0.100
394.300	-21.709	0.100
394.400	-46.730	0.100
394.500	-19.411	0.100
394.600	-12.361	0.100
394.700	-46.546	0.099
394.800	-28.321	0.099
394.900	-45.479	0.099
395.000	-19.193	0.099
395.100	-5.709	0.099
395.200	-13.080	0.099
395.300	-13.032	0.100
395.400	-46.781	0.099
395.500	-25.980	0.099
395.600	-34.170	0.099
395.700	-36.893	0.100
395.800	-19.546	0.100
395.900	-40.741	0.100
396.000	-56.283	0.099
396.100	-36.993	0.100
396.200	-37.864	0.100
396.300	-23.257	0.099
396.400	-9.415	0.099
396.500	-32.431	0.099
396.600	-31.620	0.100
396.700	-32.791	0.100
396.800	-38.446	0.100
396.900	-22.007	0.100
397.000	-14.402	0.099
397.100	-54.845	0.099
397.200	-16.103	0.099
397.300	-23.160	0.100
397.400	-18.666	0.100
397.500	-27.736	0.099
397.600	-55.530	0.099
397.700	-24.077	0.100
397.800	-22.490	0.099
397.900	-13.320	0.099
398.000	-36.168	0.099
398.100	-3.522	0.100
398.200	-20.027	0.099
398.300	-26.398	0.100
398.400	-24.782	0.100
398.500	-26.696	0.100
398.600	-0.196	0.099
398.700	-14.843	0.099
398.800	-43.825	0.100
398.900	-50.000	0.100
399.000	-19.506	0.100
399.100	-18.842	0.100
399.200	-38.991	0.099
399.300	-30.411	0.100
399.400	-18.429	0.100
399.500	-50.532	0.099
399.600	-24.959	0.099
399.700	13.922	0.100
399.800	-12.275	0.099
399.900	-15.610	0.100
400.000	-34.835	0.099
400.100	-28.241	0.100
400.200	-3.475	0.099
400.300	-28.443	0.099
400.400	-33.085	0.099
400.500	-22.584	0.100
400.600	-19.366	0.099
400.700	-6.668	0.100
400.800	-12.413	0.099
400.900	-3.768	0.100
401.000	-23.444	0.099
401.100	-15.539	0.100
401.200	-9.882	0.099
401.300	-24.069	0.099
401.400	-27.797	0.099
401.500	-18.527	0.099
401.600	-22.846	0.100
401.700	-52.186	0.099
401.800	3.611	0.099
401.900	-8.387	0.100
402.000	-15.201	0.100
402.100	-39.899	0.099
402.200	5.437	0.099
402.300	5.584	0.100
402.400	-25.287	0.099
402.500	-18.625	0.099
402.600	-12.665	0.100
402.700	-24.925	0.099
402.800	0.586	0.099
402.900	-11.021	0.099
403.000	-46.989	0.099
403.100	-39.630	0.099
403.200	-11.144	0.099
403.300	-24.425	0.099
403.400	-13.488	0.100
403.500	-24.925	0.099
403.600	-19.105	0.099
403.700	8.054	0.100
403.800	-20.929	0.099
403.900	-17.733	0.099
404.000	-38.722	0.099
404.100	-27.483	0.100
404.200	-13.972	0.099
404.300	-5.061	0.099
404.400	-25.391	0.100
404.500	-20.036	0.099
404.600	-7.978	0.100
404.700	-15.395	0.099
404.800	-31.313	0.099
404.900	-40.332	0.100
405.000	-35.283	0.100
405.100	-7.064	0.099
405.200	-8.099	0.100
405.300	-29.844	0.100
405.400	-35.601	0.099
405.500	-20.165	0.099
405.600	-30.274	0.099
405.700	-9.330	0.099
405.800	-10.822	0.099
405.900	-32.633	0.099
406.000	-4.372	0.099
406.100	-30.874	0.100
406.200	-18.000	0.099
406.300	-35.998	0.099
406.400	-25.300	0.099
406.500	4.827	0.099
406.600	-1.152	0.099
406.700	-41.826	0.099
406.800	-28.817	0.099
406.900	-36.122	0.099
407.000	-74.874	0.099
407.100	-12.918	0.099
407.200	-41.422	0.100
407.300	-31.585	0.099
407.400	-36.372	0.099
407.500	-30.518	0.100
407.600	-46.746	0.099
407.700	-26.573	0.099
407.800	-42.525	0.099
407.900	-21.411	0.099
408.000	-52.104	0.099
408.100	-33.299	0.099
408.200	-8.621	0.100
408.300	-16.329	0.099
408.400	-26.754	0.099
408.500	-20.231	0.100
408.600	-60.371	0.099
408.700	-22.503	0.100
408.800	-1.618	0.100
408.900	-50.210	0.099
409.000	-53.832	0.100
409.100	0.971	0.099
409.200	-25.316	0.100
409.300	-28.484	0.099
409.400	-33.119	0.100
409.500	-16.933	0.100
409.600	-26.186	0.099
409.700	-25.418	0.099
409.800	-7.705	0.099
409.900	3.837	0.100
410.000	-26.833	0.100
410.100	-28.457	0.100
410.200	-64.985	0.099
410.300	-24.492	0.099
410.400	-40.111	0.099
410.500	-14.979	0.099
410.600	-35.262	0.100
410.700	-47.832	0.099
410.800	-34.316	0.099
410.900	-45.866	0.100
411.000	-23.536	0.099
411.100	-18.538	0.099
411.200	-35.575	0.100
411.300	-40.204	0.100
411.400	-21.756	0.099
411.500	-23.956	0.100
411.600	-23.982	0.099
411.700	-16.228	0.099
411.800	-45.805	0.099
411.900	-29.230	0.099
412.000	-12.331	0.100
412.100	-41.071	0.099
412.200	-49.741	0.100
412.300	-41.525	0.099
412.400	-20.754	0.099
412.500	-13.054	0.099
412.600	-30.394	0.099
412.700	-41.342	0.099
412.800	-45.178	0.099
412.900	-38.137	0.099
413.000	-32.357	0.099
413.100	-27.400	0.099
413.200	-32.976	0.099
413.300	-26.728	0.099
413.400	-45.891	0.099
413.500	-28.107	0.099
413.600	-30.414	0.099
413.700	-33.603	0.099
413.800	-37.076	0.099
413.900	-35.342	0.099
414.000	-39.911	0.099
414.100	-30.634	0.099
414.200	-28.398	0.100
414.300	-24.606	0.099
414.400	-15.879	0.099
414.500	-58.223	0.099
414.600	-36.154	0.100
414.700	-16.942	0.099
414.800	-59.803	0.099
414.900	-27.862	0.099
415.000	-23.723	0.099
415.100	-46.507	0.099
415.200	-19.816	0.100
415.300	-51.685	0.099
415.400	-51.215	0.099
415.500	-30.264	0.099
415.600	-12.764	0.099
415.700	-29.960	0.099
415.800	-34.270	0.099
415.900	-35.271	0.100
416.000	-73.623	0.099
416.100	-46.011	0.099
416.200	-36.348	0.099
416.300	-1.540	0.099
416.400	-55.788	0.099
416.500	-38.179	0.099
416.600	-40.506	0.099
416.700	-44.328	0.099
416.800	-22.136	0.099
416.900	-30.831	0.099
417.000	-40.229	0.099
417.100	-18.944	0.099
417.200	-16.666	0.100
417.300	-44.483	0.099
417.400	-49.862	0.099
417.500	-45.182	0.099
417.600	-58.453	0.099
417.700	-40.280	0.100
417.800	-21.699	0.099
417.900	-36.916	0.100
418.000	-49.555	0.099
418.100	-64.822	0.099
418.200	-28.404	0.099
418.300	-35.353	0.099
418.400	-31.765	0.099
418.500	-56.583	0.099
418.600	-51.420	0.099
418.700	-46.058	0.099
418.800	-40.356	0.099
418.900	-19.637	0.099
419.000	-16.191	0.099
419.100	-49.553	0.100
419.200	-44.698	0.099
419.300	-41.718	0.099
419.400	-31.190	0.099
419.500	-34.748	0.099
419.600	-46.936	0.099
419.700	-36.854	0.099
419.800	-53.755	0.099
419.900	-54.150	0.099
420.000	-38.394	0.099
420.100	-42.014	0.099
420.200	-55.106	0.099
420.300	-48.372	0.099
420.400	-37.364	0.099
420.500	-23.402	0.099
420.600	-45.864	0.099
420.700	-22.989	0.099
420.800	-54.182	0.099
420.900	-36.745	0.099
421.000	-40.006	0.099
421.100	-17.352	0.099
421.200	-60.021	0.099
421.300	-43.413	0.099
421.400	-54.664	0.099
421.500	-53.168	0.099
421.600	-53.013	0.099
421.700	-39.509	0.100
421.800	-49.594	0.099
421.900	-48.255	0.099
422.000	-50.171	0.099
422.100	-50.741	0.099
422.200	-40.149	0.099
422.300	-35.546	0.099
422.400	-54.421	0.099
422.500	-41.306	0.099
422.600	-59.851	0.099
422.700	-65.142	0.099
422.800	-24.224	0.099
422.900	-13.623	0.099
423.000	-44.434	0.099
423.100	-46.050	0.099
423.200	-64.508	0.099
423.300	-26.007	0.099
423.400	-45.898	0.099
423.500	-38.671	0.099
423.600	-53.285	0.099
423.700	-41.251	0.099
423.800	-31.743	0.099
423.900	-45.218	0.099
424.000	-34.241	0.099
424.100	-41.538	0.099
424.200	-25.890	0.099
424.300	-38.612	0.099
424.400	-40.306	0.099
424.500	-44.266	0.099
424.600	-58.362	0.100
424.700	-43.366	0.099
424.800	-43.677	0.099
424.900	-60.008	0.099
425.000	-48.882	0.099
425.100	-27.381	0.099
425.200	-42.590	0.100
425.300	-91.130	0.100
425.400	-60.822	0.099
425.500	-25.368	0.099
425.600	-30.210	0.100
425.700	-27.847	0.099
425.800	-54.541	0.099
425.900	-49.250	0.099
426.000	-52.433	0.099
426.100	-54.232	0.099
426.200	-24.204	0.099
426.300	-26.863	0.100
426.400	-13.558	0.099
426.500	-32.998	0.099
426.600	-67.779	0.099
426.700	-71.415	0.099
426.800	-35.833	0.099
426.900	-47.213	0.099
427.000	-35.997	0.100
427.100	-26.943	0.099
427.200	-37.319	0.099
427.300	-61.258	0.099
427.400	-65.184	0.099
427.500	-42.915	0.099
427.600	-35.539	0.099
427.700	-79.666	0.099
427.800	-51.225	0.099
427.900	-31.837	0.099
428.000	-48.422	0.099
428.100	-53.754	0.099
428.200	-63.809	0.099
428.300	-60.682	0.099
428.400	-38.933	0.099
428.500	-30.449	0.099
428.600	-70.087	0.099
428.700	-61.184	0.099
428.800	-30.255	0.099
428.900	-57.067	0.099
429.000	-24.740	0.099
429.100	-49.275	0.099
429.200	-24.175	0.099
429.300	-59.410	0.099
429.400	-42.318	0.099
429.500	-31.514	0.099
429.600	-41.640	0.100
429.700	-45.995	0.099
429.800	-74.590	0.099
429.900	-32.905	0.099
430.000	-73.857	0.099
430.100	-35.847	0.099
430.200	-45.994	0.099
430.300	-33.442	0.099
430.400	-37.726	0.099
430.500	-45.145	0.099
430.600	-36.874	0.099
430.700	-31.157	0.099
430.800	-62.460	0.099
430.900	-55.706	0.099
431.000	-77.542	0.099
431.100	-48.779	0.099
431.200	-42.379	0.099
431.300	-34.582	0.099
431.400	-38.828	0.099
431.500	-31.096	0.099
431.600	-67.048	0.099
431.700	-43.532	0.099
431.800	-67.154	0.099
431.900	-46.967	0.099
432.000	-53.185	0.099
432.100	-42.965	0.099
432.200	-61.508	0.099
432.300	-35.935	0.099
432.400	-17.109	0.099
432.500	-46.335	0.099
432.600	-34.955	0.099
432.700	-40.765	0.099
432.800	-44.505	0.099
432.900	-73.473	0.100
433.000	-63.502	0.099
433.100	-29.087	0.099
433.200	-31.268	0.099
433.300	-61.884	0.099
433.400	-55.255	0.099
433.500	-30.755	0.100
433.600	-36.126	0.099
433.700	-54.603	0.100
433.800	-43.434	0.099
433.900	-41.483	0.099
434.000	-45.787	0.099
434.100	-38.991	0.099
434.200	-38.773	0.100
434.300	-60.486	0.099
434.400	-71.780	0.099
434.500	-57.810	0.099
434.600	-72.110	0.099
434.700	-42.056	0.099
434.800	-39.531	0.099
434.900	-7.403	0.099
435.000	-34.184	0.099
435.100	-18.327	0.099
435.200	-48.875	0.100
435.300	-46.947	0.099
435.400	-56.831	0.100
435.500	-49.404	0.099
435.600	-40.506	0.099
435.700	-57.485	0.099
435.800	-23.313	0.099
435.900	-43.521	0.099
436.000	-36.103	0.099
436.100	-56.000	0.100
436.200	-37.813	0.100
436.300	-29.535	0.100
436.400	-43.863	0.100
436.500	-35.589	0.100
436.600	-32.621	0.099
436.700	-51.416	0.099
436.800	-55.123	0.099
436.900	-68.507	0.099
437.000	-34.015	0.100
437.100	-39.462	0.099
437.200	-60.508	0.099
437.300	-51.736	0.099
437.400	-41.624	0.099
437.500	-29.750	0.099
437.600	-57.651	0.099
437.700	-38.300	0.099
437.800	-47.724	0.099
437.900	-26.256	0.099
438.000	-14.463	0.099
438.100	-45.518	0.099
438.200	-36.612	0.099
438.300	-47.828	0.099
438.400	-36.836	0.099
438.500	-72.819	0.099
438.600	-33.462	0.099
438.700	-34.613	0.100
438.800	-14.145	0.099
438.900	-43.975	0.099
439.000	-45.155	0.099
439.100	-69.938	0.099
439.200	-47.280	0.099
439.300	-63.901	0.099
439.400	-28.630	0.099
439.500	-38.832	0.099
439.600	-41.585	0.099
439.700	-31.641	0.099
439.800	-45.132	0.099
439.900	-34.404	0.099
440.000	-24.966	0.099
440.100	-54.866	0.099
440.200	-39.212	0.099
440.300	-52.224	0.099
440.400	-44.310	0.099
440.500	-27.561	0.099
440.600	-33.090	0.099
440.700	-73.752	0.099
440.800	-20.790	0.099
440.900	-51.785	0.099
441.000	-27.170	0.099
441.100	-37.831	0.099
441.200	-50.831	0.099
441.300	-41.965	0.099
441.400	-53.532	0.099
441.500	-51.028	0.099
441.600	-62.666	0.099
441.700	-40.585	0.099
441.800	-29.038	0.099
441.900	-61.358	0.099
442.000	-35.508	0.099
442.100	-38.033	0.099
442.200	-15.014	0.099
442.300	-33.756	0.099
442.400	-25.056	0.099
442.500	-56.805	0.099
442.600	-49.298	0.099
442.700	-38.887	0.099
442.800	-49.782	0.099
442.900	-48.790	0.099
443.000	-39.720	0.099
443.100	-53.545	0.099
443.200	-27.288	0.099
443.300	-44.117	0.099
443.400	-16.070	0.099
443.500	-44.386	0.099
443.600	-49.111	0.099
443.700	-51.122	0.099
443.800	-35.855	0.099
443.900	-48.316	0.099
444.000	-31.433	0.099
444.100	-28.201	0.099
444.200	-38.796	0.099
444.300	-49.668	0.099
444.400	-66.672	0.099
444.500	-76.654	0.099
444.600	-38.639	0.099
444.700	-24.638	0.099
444.800	-50.571	0.099
444.900	-61.096	0.099
445.000	-40.159	0.099
445.100	-42.561	0.099
445.200	-35.397	0.099
445.300	-28.402	0.099
445.400	-46.365	0.099
445.500	-42.033	0.099
445.600	-41.706	0.099
445.700	-22.453	0.099
445.800	-34.324	0.099
445.900	-48.355	0.099
446.000	-41.736	0.099
446.100	-57.708	0.099
446.200	-29.393	0.099
446.300	-36.415	0.099
446.400	-52.969	0.099
446.500	-47.473	0.099
446.600	-35.134	0.099
446.700	-19.593	0.099
446.800	-32.567	0.099
446.900	-41.271	0.099
447.000	-53.150	0.099
447.100	-54.340	0.099
447.200	-33.060	0.099
447.300	-39.737	0.099
447.400	-42.770	0.099
447.500	-34.975	0.099
447.600	-49.731	0.099
447.700	-43.430	0.099
447.800	-32.374	0.099
447.900	-59.451	0.099
448.000	-32.987	0.099
448.100	-35.585	0.099
448.200	-27.141	0.099
448.300	-42.927	0.099
448.400	-49.122	0.099
448.500	-55.601	0.099
448.600	-67.638	0.099
448.700	-65.903	0.099
448.800	-23.004	0.099
448.900	-19.960	0.099
449.000	-58.549	0.099
449.100	-53.103	0.099
449.200	-33.100	0.099
449.300	-43.848	0.099
449.400	-44.920	0.099
449.500	-65.210	0.099
449.600	-24.287	0.099
449.700	-49.125	0.099
449.800	-57.939	0.099
449.900	-47.456	0.099
450.000	-47.869	0.099
450.100	-31.000	0.099
450.200	-37.823	0.099
450.300	-36.403	0.099
450.400	-40.522	0.099
450.500	-22.527	0.099
450.600	-38.443	0.099
450.700	-33.159	0.099
450.800	-60.977	0.099
450.900	-48.379	0.099
451.000	-40.710	0.099
451.100	-40.221	0.099
451.200	-48.067	0.099
451.300	-29.962	0.099
451.400	-36.100	0.099
451.500	-61.177	0.099
451.600	-33.343	0.099
451.700	-47.954	0.099
451.800	-48.377	0.099
451.900	-66.267	0.099
452.000	-38.118	0.099
452.100	-45.298	0.099
452.200	-36.574	0.099
452.300	-37.059	0.099
452.400	-23.377	0.099
452.500	-44.562	0.099
452.600	-42.171	0.099
452.700	-53.366	0.099
452.800	-66.591	0.099
452.900	-42.652	0.099
453.000	-59.734	0.099
453.100	-26.651	0.099
453.200	-51.307	0.099
453.300	-39.545	0.099
453.400	-42.682	0.099
453.500	-58.506	0.099
453.600	-46.810	0.099
453.700	-41.035	0.099
453.800	-37.344	0.099
453.900	-28.101	0.099
454.000	-58.111	0.099
454.100	-48.351	0.099
454.200	-82.425	0.099
454.300	-49.291	0.099
454.400	-67.386	0.099
454.500	-27.131	0.099
454.600	-35.787	0.099
454.700	-27.937	0.099
454.800	-32.637	0.099
454.900	-32.311	0.099
455.000	-34.390	0.099
455.100	-36.789	0.099
455.200	-55.733	0.099
455.300	-70.963	0.099
455.400	-53.074	0.099
455.500	-29.406	0.099
455.600	-28.958	0.099
455.700	-62.747	0.099
455.800	-31.342	0.099
455.900	-24.832	0.099
456.000	-45.448	0.099
456.100	-37.149	0.099
456.200	-44.319	0.099
456.300	-46.370	0.099
456.400	-39.736	0.099
456.500	-52.476	0.099
456.600	-48.232	0.099
456.700	-17.927	0.099
456.800	-35.301	0.099
456.900	-38.489	0.099
457.000	-36.295	0.099
457.100	-57.179	0.099
457.200	-29.874	0.099
457.300	-26.815	0.099
457.400	-56.328	0.099
457.500	-46.015	0.099
457.600	-39.848	0.099
457.700	-22.248	0.099
457.800	-45.807	0.099
457.900	-49.059	0.099
458.000	-19.073	0.099
458.100	-54.943	0.099
458.200	-35.257	0.099
458.300	-25.472	0.099
458.400	-46.131	0.099
458.500	-23.158	0.099
458.600	-56.872	0.099
458.700	-23.989	0.099
458.800	-58.031	0.099
458.900	-14.701	0.099
459.000	-24.204	0.099
459.100	-54.440	0.099
459.200	-46.682	0.099
459.300	-53.173	0.099
459.400	-59.390	0.099
459.500	-20.605	0.099
459.600	-36.912	0.099
459.700	-26.040	0.099
459.800	-45.202	0.099
459.900	-41.023	0.099
460.000	-34.699	0.099
460.100	-40.883	0.099
460.200	-36.705	0.099
460.300	-49.914	0.099
460.400	-25.813	0.099
460.500	-24.553	0.099
460.600	-35.185	0.099
460.700	-57.237	0.099
460.800	-14.217	0.099
460.900	-57.833	0.099
461.000	-47.532	0.099
461.100	-55.178	0.099
461.200	-29.516	0.099
461.300	-26.712	0.099
461.400	-20.779	0.099
461.500	-31.090	0.099
461.600	-50.416	0.099
461.700	-40.118	0.099
461.800	-38.945	0.099
461.900	-30.393	0.099
462.000	-36.961	0.099
462.100	-39.783	0.099
462.200	-30.368	0.099
462.300	-25.124	0.099
462.400	-40.267	0.099
462.500	0.516	0.099
462.600	-49.839	0.099
462.700	-36.440	0.099
462.800	-31.208	0.099
462.900	-59.749	0.099
463.000	-39.879	0.099
463.100	-28.071	0.099
463.200	-60.610	0.099
463.300	-46.745	0.099
463.400	-46.878	0.099
463.500	-19.210	0.099
463.600	-58.218	0.099
463.700	-51.033	0.099
463.800	-41.281	0.099
463.900	-50.733	0.099
464.000	-30.645	0.099
464.100	-12.092	0.099
464.200	-43.922	0.099
464.300	-35.929	0.099
464.400	-55.695	0.099
464.500	-53.580	0.099
464.600	-58.437	0.099
464.700	-11.013	0.099
464.800	-45.350	0.099
464.900	-44.031	0.099
465.000	-28.439	0.099
465.100	-46.475	0.099
465.200	-35.931	0.099
465.300	-28.719	0.099
465.400	-33.954	0.099
465.500	-36.616	0.099
465.600	-43.520	0.099
465.700	-40.496	0.099
465.800	-30.515	0.099
465.900	-59.519	0.099
466.000	-34.173	0.099
466.100	-27.784	0.099
466.200	-22.919	0.099
466.300	-35.241	0.099
466.400	-27.687	0.099
466.500	-47.740	0.099
466.600	-13.794	0.099
466.700	-48.039	0.099
466.800	-35.220	0.099
466.900	-24.390	0.099
467.000	-51.925	0.099
467.100	-23.068	0.099
467.200	-22.225	0.099
467.300	-62.975	0.099
467.400	-77.137	0.099
467.500	-37.495	0.099
467.600	-4.791	0.099
467.700	-4.565	0.099
467.800	-39.646	0.099
467.900	-32.235	0.099
468.000	-11.372	0.099
468.100	-27.416	0.099
468.200	-49.808	0.099
468.300	-48.959	0.099
468.400	-25.824	0.099
468.500	-25.850	0.099
468.600	-25.074	0.099
468.700	-66.267	0.099
468.800	-55.046	0.099
468.900	-36.523	0.099
469.000	-29.951	0.099
469.100	-41.961	0.099
469.200	-17.228	0.099
469.300	-40.295	0.099
469.400	-29.321	0.099
469.500	-31.035	0.099
469.600	-32.675	0.099
469.700	-47.135	0.099
469.800	-38.960	0.099
469.900	-5.032	0.099
470.000	-42.662	0.099
470.100	-38.275	0.099
470.200	-11.849	0.099
470.300	-59.141	0.099
470.400	-47.333	0.099
470.500	-29.725	0.099
470.600	-8.300	0.099
470.700	-56.231	0.099
470.800	-45.713	0.099
470.900	-52.897	0.099
471.000	-24.790	0.099
471.100	-66.536	0.099
471.200	-29.692	0.099
471.300	-24.244	0.099
471.400	-30.133	0.099
471.500	-48.943	0.099
471.600	-55.791	0.099
471.700	-57.909	0.099
471.800	-18.786	0.099
471.900	-36.697	0.099
472.000	-21.279	0.099
472.100	-30.451	0.099
472.200	-26.518	0.099
472.300	-24.687	0.099
472.400	-36.308	0.099
472.500	-37.151	0.099
472.600	-25.690	0.099
472.700	-24.242	0.099
472.800	-60.983	0.099
472.900	-14.952	0.099
473.000	-44.616	0.099
473.100	-49.145	0.099
473.200	-34.912	0.099
473.300	-42.876	0.099
473.400	-48.755	0.099
473.500	-30.040	0.099
473.600	-43.519	0.099
473.700	-28.967	0.099
473.800	-44.198	0.099
473.900	-35.495	0.099
474.000	-42.947	0.099
474.100	-34.093	0.099
474.200	-10.707	0.099
474.300	-40.191	0.099
474.400	-41.974	0.099
474.500	-51.223	0.099
474.600	-45.033	0.099
474.700	-38.477	0.099
474.800	-86.218	0.099
474.900	-38.917	0.099
475.000	-20.709	0.099
475.100	-43.500	0.099
475.200	-17.858	0.099
475.300	-24.888	0.099
475.400	-24.410	0.099
475.500	-49.828	0.099
475.600	-22.536	0.099
475.700	-19.418	0.099
475.800	-31.685	0.099
475.900	-45.875	0.099
476.000	-29.545	0.099
476.100	-40.612	0.099
476.200	-45.549	0.099
476.300	-17.529	0.099
476.400	-37.918	0.099
476.500	-37.334	0.099
476.600	-29.110	0.099
476.700	-52.490	0.099
476.800	-27.667	0.099
476.900	-13.998	0.099
477.000	-37.694	0.099
477.100	-28.449	0.099
477.200	-48.481	0.099
477.300	-29.173	0.099
477.400	-35.259	0.099
477.500	-50.727	0.099
477.600	-57.217	0.099
477.700	-25.328	0.099
477.800	-2.548	0.099
477.900	-6.364	0.099
478.000	-41.466	0.099
478.100	-33.831	0.099
478.200	-35.825	0.099
478.300	-44.074	0.099
478.400	-18.199	0.099
478.500	-25.881	0.099
478.600	-26.478	0.099
478.700	-31.896	0.099
478.800	-44.583	0.099
478.900	-48.359	0.099
479.000	-53.047	0.099
479.100	-29.839	0.099
479.200	-28.599	0.099
479.300	-34.377	0.099
479.400	-30.609	0.099
479.500	-32.602	0.099
479.600	-51.760	0.099
479.700	-31.893	0.099
479.800	-29.323	0.099
479.900	-56.651	0.099
480.000	-29.520	0.099
480.100	-16.482	0.099
480.200	-24.813	0.099
480.300	-14.082	0.099
480.400	-30.508	0.099
480.500	-35.593	0.099
480.600	-59.553	0.099
480.700	-39.402	0.099
480.800	-38.867	0.099
480.900	-32.109	0.099
481.000	-33.244	0.099
481.100	-42.151	0.099
481.200	-45.181	0.099
481.300	12.192	0.099
481.400	-3.530	0.099
481.500	-31.997	0.099
481.600	36.820	0.099
481.700	6.462	0.099
481.800	4.765	0.099
481.900	21.188	0.099
482.000	0.246	0.099
482.100	24.218	0.099
482.200	15.361	0.099
482.300	23.271	0.099
482.400	13.313	0.099
482.500	42.448	0.099
482.600	-10.984	0.099
482.700	22.070	0.099
482.800	46.713	0.099
482.900	42.951	0.099
483.000	14.187	0.099
483.100	51.555	0.099
483.200	38.882	0.099
483.300	62.977	0.099
483.400	29.293	0.099
483.500	46.324	0.099
483.600	23.738	0.099
483.700	19.678	0.099
483.800	63.516	0.099
483.900	55.398	0.099
484.000	44.189	0.099
484.100	37.739	0.099
484.200	62.778	0.099
484.300	23.826	0.099
484.400	50.736	0.099
484.500	57.845	0.099
484.600	33.609	0.099
484.700	39.272	0.099
484.800	15.571	0.099
484.900	22.717	0.099
485.000	16.095	0.099
485.100	37.158	0.099
485.200	41.137	0.099
485.300	44.977	0.099
485.400	38.152	0.099
485.500	10.715	0.099
485.600	29.310	0.099
485.700	49.817	0.099
485.800	67.632	0.099
485.900	7.486	0.099
486.000	25.500	0.099
486.100	32.872	0.099
486.200	22.356	0.099
486.300	52.672	0.099
486.400	42.669	0.099
486.500	8.908	0.099
486.600	37.444	0.099
486.700	63.070	0.099
486.800	33.725	0.099
486.900	27.171	0.099
487.000	-11.990	0.099
487.100	29.850	0.099
487.200	28.975	0.099
487.300	25.277	0.099
487.400	51.388	0.099
487.500	32.552	0.099
487.600	17.752	0.099
487.700	5.570	0.099
487.800	20.126	0.099
487.900	45.724	0.099
488.000	27.161	0.099
488.100	39.396	0.099
488.200	32.996	0.099
488.300	5.747	0.099
488.400	41.283	0.099
488.500	30.662	0.099
488.600	13.505	0.099
488.700	39.165	0.099
488.800	24.113	0.099
488.900	42.420	0.099
489.000	39.938	0.099
489.100	47.577	0.099
489.200	19.974	0.099
489.300	67.758	0.099
489.400	72.790	0.099
489.500	55.912	0.099
489.600	43.656	0.099
489.700	39.018	0.099
489.800	40.345	0.099
489.900	3.790	0.099
490.000	27.210	0.099
490.100	56.077	0.099
490.200	49.875	0.099
490.300	47.689	0.099
490.400	73.383	0.099
490.500	46.717	0.099
490.600	51.951	0.099
490.700	36.840	0.099
490.800	42.853	0.099
490.900	77.858	0.099
491.000	74.541	0.099
491.100	30.993	0.099
491.200	65.012	0.099
491.300	50.818	0.099
491.400	53.935	0.099
491.500	56.772	0.099
491.600	75.717	0.099
491.700	58.211	0.099
491.800	72.519	0.099
491.900	72.381	0.099
492.000	74.566	0.099
492.100	75.562	0.099
492.200	64.102	0.099
492.300	87.916	0.099
492.400	77.794	0.099
492.500	80.050	0.099
492.600	82.813	0.099
492.700	47.029	0.099
492.800	78.160	0.099
492.900	76.263	0.099
493.000	80.919	0.099
493.100	90.292	0.099
493.200	85.433	0.099
493.300	81.460	0.099
493.400	80.039	0.099
493.500	77.326	0.099
493.600	72.986	0.099
493.700	75.781	0.099
493.800	62.854	0.099
493.900	92.996	0.099
494.000	83.076	0.099
494.100	66.221	0.099
494.200	88.234	0.099
494.300	72.123	0.099
494.400	87.077	0.099
494.500	93.556	0.099
494.600	78.770	0.099
494.700	93.901	0.099
494.800	103.963	0.099
494.900	117.630	0.099
495.000	110.736	0.099
495.100	107.445	0.099
495.200	86.287	0.099
495.300	81.576	0.099
495.400	104.248	0.099
495.500	71.663	0.099
495.600	81.313	0.099
495.700	88.894	0.099
495.800	96.208	0.099
495.900	103.149	0.099
496.000	88.362	0.099
496.100	92.943	0.099
496.200	84.264	0.099
496.300	92.170	0.099
496.400	142.601	0.099
496.500	125.190	0.099
496.600	121.528	0.099
496.700	81.082	0.099
496.800	116.432	0.099
496.900	119.900	0.099
497.000	94.151	0.099
497.100	84.077	0.099
497.200	81.990	0.099
497.300	122.583	0.099
497.400	107.985	0.099
497.500	110.670	0.099
497.600	111.664	0.099
497.700	97.570	0.099
497.800	117.924	0.099
497.900	86.113	0.099
498.000	118.978	0.099
498.100	108.460	0.099
498.200	152.180	0.099
498.300	157.855	0.099
498.400	126.923	0.099
498.500	123.066	0.099
498.600	121.637	0.099
498.700	99.228	0.099
498.800	129.723	0.099
498.900	65.592	0.099
499.000	77.894	0.099
499.100	114.344	0.099
499.200	133.908	0.099
499.300	119.605	0.099
499.400	114.102	0.099
499.500	115.223	0.099
499.600	102.898	0.099
499.700	71.584	0.099
499.800	110.244	0.099
499.900	115.229	0.099
500.000	127.246	0.099
500.100	125.675	0.099
500.200	129.056	0.099
500.300	115.207	0.099
500.400	97.191	0.099
500.500	163.644	0.099
500.600	127.715	0.099
500.700	119.782	0.099
500.800	114.384	0.099
500.900	121.451	0.099
501.000	111.988	0.099
501.100	94.036	0.099
501.200	138.025	0.099
501.300	140.578	0.099
501.400	120.823	0.099
501.500	114.613	0.099
501.600	131.673	0.099
501.700	107.267	0.099
501.800	109.724	0.099
501.900	111.102	0.099
502.000	114.916	0.099
502.100	121.430	0.099
502.200	94.771	0.099
502.300	128.176	0.099
502.400	107.296	0.099
502.500	137.584	0.099
502.600	121.560	0.099
502.700	99.847	0.099
502.800	98.018	0.099
502.900	113.041	0.099
503.000	109.859	0.099
503.100	116.497	0.099
503.200	129.868	0.099
503.300	135.706	0.099
503.400	113.461	0.099
503.500	107.474	0.099
503.600	105.558	0.099
503.700	95.717	0.099
503.800	114.262	0.099
503.900	134.772	0.099
504.000	109.988	0.099
504.100	123.192	0.099
504.200	112.581	0.099
504.300	112.335	0.099
504.400	94.741	0.099
504.500	97.568	0.099
504.600	122.105	0.099
504.700	95.397	0.099
504.800	121.997	0.099
504.900	124.643	0.099
505.000	112.435	0.099
505.100	100.357	0.099
505.200	112.437	0.099
505.300	113.884	0.099
505.400	109.667	0.099
505.500	121.879	0.099
505.600	85.476	0.099
505.700	84.684	0.099
505.800	97.518	0.099
505.900	107.107	0.099
506.000	104.544	0.099
506.100	129.297	0.099
506.200	129.128	0.099
506.300	80.451	0.099
506.400	115.847	0.099
506.500	79.273	0.099
506.600	110.925	0.099
506.700	99.340	0.099
506.800	91.989	0.099
506.900	120.534	0.099
507.000	105.648	0.099
507.100	107.223	0.099
507.200	117.656	0.099
507.300	94.843	0.099
507.400	95.429	0.099
507.500	113.091	0.099
507.600	118.844	0.099
507.700	105.634	0.099
507.800	82.844	0.099
507.900	99.691	0.099
508.000	121.877	0.099
508.100	94.305	0.099
508.200	101.254	0.099
508.300	98.142	0.099
508.400	121.953	0.099
508.500	104.904	0.099
508.600	108.734	0.099
508.700	109.696	0.099
508.800	93.174	0.099
508.900	121.219	0.099
509.000	117.782	0.099
509.100	105.145	0.099
509.200	107.330	0.099
509.300	84.118	0.099
509.400	81.893	0.099
509.500	125.360	0.099
509.600	109.517	0.099
509.700	97.993	0.099
509.800	114.799	0.099
509.900	92.287	0.099
510.000	107.443	0.099
510.100	98.189	0.099
510.200	101.276	0.099
510.300	103.492	0.099
510.400	95.441	0.099
510.500	83.377	0.099
510.600	89.969	0.099
510.700	99.997	0.099
510.800	79.899	0.099
510.900	114.748	0.099
511.000	96.707	0.099
511.100	92.541	0.099
511.200	107.703	0.099
511.300	109.173	0.099
511.400	100.653	0.099
511.500	96.298	0.099
511.600	98.375	0.099
511.700	110.909	0.099
511.800	94.603	0.099
511.900	82.163	0.099
512.000	93.713	0.099
512.100	89.334	0.099
512.200	107.191	0.099
512.300	101.790	0.099
512.400	128.627	0.099
512.500	79.098	0.099
512.600	99.106	0.099
512.700	109.359	0.099
512.800	107.237	0.099
512.900	107.321	0.099
513.000	90.559	0.099
513.100	93.820	0.099
513.200	99.146	0.099
513.300	104.976	0.099
513.400	101.615	0.099
513.500	95.716	0.099
513.600	128.042	0.099
513.700	80.772	0.099
513.800	82.940	0.099
513.900	113.167	0.099
514.000	126.689	0.099
514.100	118.576	0.099
514.200	73.494	0.099
514.300	81.747	0.099
514.400	113.812	0.099
514.500	98.074	0.099
514.600	113.316	0.099
514.700	136.582	0.099
514.800	142.786	0.099
514.900	118.096	0.099
515.000	79.282	0.099
515.100	114.182	0.099
515.200	112.362	0.099
515.300	112.850	0.099
515.400	98.368	0.099
515.500	82.439	0.099
515.600	78.608	0.099
515.700	84.121	0.099
515.800	109.870	0.099
515.900	106.987	0.099
516.000	101.497	0.099
516.100	98.241	0.099
516.200	85.681	0.099
516.300	91.025	0.099
516.400	96.122	0.099
516.500	88.702	0.099
516.600	94.609	0.099
516.700	75.276	0.099
516.800	103.003	0.099
516.900	104.221	0.099
517.000	101.731	0.099
517.100	90.224	0.099
517.200	87.339	0.099
517.300	127.593	0.099
517.400	94.613	0.099
517.500	81.639	0.099
517.600	104.924	0.099
517.700	79.189	0.099
517.800	64.066	0.099
517.900	111.856	0.099
518.000	102.248	0.099
518.100	127.650	0.099
518.200	94.398	0.099
518.300	93.453	0.099
518.400	92.432	0.099
518.500	92.054	0.099
518.600	104.987	0.099
518.700	113.314	0.099
518.800	118.761	0.099
518.900	99.810	0.099
519.000	86.378	0.099
519.100	48.342	0.099
519.200	84.488	0.099
519.300	97.937	0.099
519.400	84.372	0.099
519.500	97.263	0.099
519.600	99.031	0.099
519.700	109.658	0.099
519.800	104.499	0.099
519.900	92.062	0.099
520.000	69.254	0.099
520.100	79.333	0.099
520.200	82.506	0.099
520.300	104.454	0.099
520.400	116.282	0.099
520.500	102.412	0.099
520.600	86.550	0.099
520.700	104.749	0.099
520.800	80.885	0.099
520.900	107.819	0.099
521.000	79.301	0.099
521.100	78.614	0.099
521.200	82.520	0.099
521.300	82.326	0.099
521.400	85.737	0.099
521.500	104.340	0.099
521.600	95.848	0.099
521.700	82.297	0.099
521.800	119.809	0.099
521.900	101.462	0.099
522.000	105.108	0.099
522.100	86.290	0.099
522.200	88.159	0.099
522.300	121.432	0.099
522.400	84.293	0.099
522.500	108.455	0.099
522.600	86.272	0.099
522.700	101.052	0.099
522.800	104.296	0.099
522.900	71.143	0.099
523.000	105.040	0.099
523.100	102.845	0.099
523.200	89.396	0.099
523.300	82.159	0.099
523.400	83.637	0.099
523.500	97.718	0.099
523.600	86.334	0.099
523.700	60.321	0.099
523.800	96.854	0.099
523.900	92.131	0.099
524.000	117.684	0.099
524.100	87.952	0.099
524.200	99.194	0.099
524.300	108.617	0.099
524.400	86.430	0.099
524.500	108.850	0.099
524.600	78.643	0.099
524.700	80.193	0.099
524.800	60.298	0.099
524.900	39.822	0.099
525.000	133.181	0.099
525.100	113.649	0.099
525.200	98.880	0.099
525.300	69.680	0.099
525.400	82.461	0.099
525.500	85.305	0.099
525.600	70.970	0.099
525.700	75.472	0.099
525.800	78.209	0.099
525.900	85.908	0.099
526.000	86.962	0.099
526.100	82.411	0.099
526.200	87.686	0.099
526.300	88.094	0.099
526.400	89.697	0.099
526.500	109.608	0.099
526.600	98.146	0.099
526.700	105.099	0.099
526.800	89.601	0.099
526.900	77.024	0.099
527.000	73.298	0.099
527.100	69.546	0.099
527.200	89.069	0.099
527.300	103.400	0.099
527.400	80.120	0.099
527.500	95.580	0.099
527.600	94.036	0.099
527.700	98.872	0.099
527.800	105.346	0.099
527.900	95.192	0.099
528.000	89.279	0.099
528.100	76.799	0.099
528.200	74.049	0.099
528.300	110.106	0.099
528.400	88.539	0.099
528.500	83.209	0.099
528.600	106.278	0.099
528.700	111.417	0.099
528.800	93.063	0.099
528.900	70.474	0.099
529.000	57.469	0.099
529.100	73.738	0.099
529.200	89.730	0.099
529.300	103.294	0.099
529.400	97.486	0.099
529.500	57.375	0.099
529.600	49.869	0.099
529.700	66.466	0.099
529.800	131.013	0.099
529.900	91.031	0.099
530.000	90.212	0.099
530.100	72.072	0.099
530.200	86.278	0.099
530.300	106.475	0.099
530.400	86.940	0.099
530.500	80.751	0.099
530.600	92.546	0.099
530.700	87.238	0.099
530.800	93.240	0.099
530.900	95.014	0.099
531.000	74.178	0.099
531.100	103.291	0.099
531.200	91.700	0.099
531.300	92.148	0.099
531.400	82.660	0.099
531.500	84.669	0.099
531.600	88.255	0.099
531.700	75.017	0.099
531.800	111.697	0.100
531.900	84.243	0.099
532.000	82.871	0.100
532.100	103.643	0.100
532.200	90.852	0.099
532.300	103.589	0.100
532.400	87.488	0.100
532.500	85.719	0.100
532.600	100.857	0.100
532.700	110.095	0.100
532.800	87.860	0.100
532.900	85.824	0.100
533.000	81.073	0.100
533.100	74.812	0.100
533.200	74.936	0.100
533.300	100.451	0.100
533.400	71.645	0.100
533.500	97.312	0.100
533.600	75.748	0.100
533.700	84.258	0.100
533.800	87.993	0.100
533.900	92.694	0.100
534.000	69.219	0.100
534.100	85.446	0.100
534.200	90.503	0.100
534.300	117.123	0.100
534.400	86.465	0.100
534.500	78.680	0.100
534.600	67.814	0.100
534.700	73.286	0.100
534.800	76.386	0.100
534.900	95.649	0.100
535.000	75.647	0.100
535.100	88.795	0.100
535.200	110.524	0.100
535.300	93.279	0.100
535.400	87.383	0.100
535.500	86.386	0.100
535.600	92.052	0.100
535.700	76.815	0.100
535.800	103.164	0.100
535.900	99.615	0.100
536.000	76.920	0.100
536.100	53.678	0.100
536.200	62.805	0.100
536.300	86.653	0.100
536.400	103.023	0.100
536.500	104.927	0.100
536.600	83.803	0.100
536.700	108.567	0.100
536.800	69.716	0.100
536.900	82.466	0.100
537.000	65.567	0.100
537.100	79.253	0.100
537.200	89.381	0.100
537.300	97.580	0.100
537.400	78.947	0.100
537.500	86.169	0.100
537.600	97.461	0.100
537.700	79.548	0.100
537.800	83.326	0.100
537.900	75.965	0.100
538.000	79.148	0.100
538.100	81.140	0.100
538.200	80.976	0.100
538.300	81.024	0.100
538.400	81.557	0.100
538.500	89.637	0.100
538.600	87.985	0.100
538.700	91.472	0.100
538.800	84.666	0.100
538.900	95.929	0.100
539.000	78.538	0.100
539.100	103.275	0.100
539.200	92.583	0.100
539.300	72.166	0.100
539.400	81.670	0.100
539.500	76.656	0.100
539.600	115.677	0.100
539.700	76.994	0.100
539.800	85.258	0.100
539.900	85.899	0.100
540.000	73.127	0.100
540.100	72.440	0.100
540.200	88.800	0.100
540.300	98.495	0.100
540.400	98.856	0.100
540.500	91.515	0.100
540.600	98.491	0.100
540.700	100.603	0.100
540.800	84.946	0.100
540.900	87.054	0.100
541.000	93.873	0.100
541.100	69.293	0.100
541.200	77.690	0.100
541.300	50.234	0.100
541.400	49.823	0.100
541.500	33.388	0.100
541.600	70.750	0.100
541.700	31.693	0.100
541.800	49.208	0.100
541.900	46.497	0.100
542.000	16.759	0.100
542.100	18.778	0.100
542.200	7.246	0.100
542.300	7.620	0.100
542.400	10.921	0.100
542.500	14.196	0.100
542.600	-4.795	0.100
542.700	4.961	0.100
542.800	-39.962	0.100
542.900	-1.086	0.100
543.000	-14.291	0.100
543.100	16.555	0.100
543.200	4.395	0.100
543.300	-32.586	0.100
543.400	-24.788	0.100
543.500	-46.785	0.100
543.600	-16.288	0.100
543.700	-51.502	0.100
543.800	-30.807	0.100
543.900	-51.151	0.100
544.000	-30.899	0.100
544.100	-12.119	0.100
544.200	-17.187	0.100
544.300	-36.897	0.100
544.400	-55.708	0.100
544.500	-19.861	0.100
544.600	-44.842	0.100
544.700	-62.000	0.100
544.800	-42.154	0.100
544.900	-48.585	0.100
545.000	-56.701	0.100
545.100	-49.615	0.100
545.200	-12.597	0.100
545.300	-41.664	0.100
545.400	-31.235	0.100
545.500	-45.900	0.100
545.600	-49.033	0.100
545.700	-44.430	0.100
545.800	-36.572	0.100
545.900	-49.963	0.100
546.000	-32.992	0.100
546.100	-35.988	0.100
546.200	-35.747	0.100
546.300	-34.970	0.100
546.400	-51.451	0.100
546.500	-36.920	0.100
546.600	-46.888	0.100
546.700	-43.899	0.100
546.800	-30.352	0.100
546.900	-55.928	0.100
547.000	-19.879	0.100
547.100	-48.612	0.100
547.200	-62.459	0.100
547.300	-64.949	0.100
547.400	-41.292	0.100
547.500	-23.441	0.100
547.600	-40.950	0.100
547.700	-46.663	0.100
547.800	-14.591	0.100
547.900	-43.879	0.100
548.000	-8.118	0.100
548.100	-48.460	0.100
548.200	-30.428	0.100
548.300	-34.161	0.100
548.400	-16.010	0.100
548.500	-54.001	0.100
548.600	-39.157	0.100
548.700	-49.260	0.100
548.800	-41.894	0.100
548.900	-25.652	0.100
549.000	-41.327	0.100
549.100	-42.846	0.100
549.200	-42.776	0.100
549.300	-33.228	0.100
549.400	-17.169	0.100
549.500	-31.591	0.100
549.600	-25.281	0.100
549.700	-33.458	0.100
549.800	-46.804	0.100
549.900	-20.549	0.100
550.000	-51.190	0.100
550.100	-39.663	0.100
550.200	-38.396	0.100
550.300	-4.624	0.100
550.400	-37.351	0.100
550.500	-22.231	0.100
550.600	-53.261	0.100
550.700	-27.909	0.100
550.800	-61.574	0.100
550.900	-8.939	0.100
551.000	-33.018	0.100
551.100	-31.036	0.100
551.200	-33.344	0.100
551.300	-37.819	0.100
551.400	-27.155	0.100
551.500	-15.595	0.100
551.600	-27.480	0.100
551.700	-13.046	0.100
551.800	-10.083	0.100
551.900	-35.983	0.100
552.000	2.442	0.100
552.100	-20.091	0.100
552.200	-19.191	0.100
552.300	-22.309	0.100
552.400	-3.271	0.100
552.500	-32.350	0.100
552.600	-29.367	0.100
552.700	-75.574	0.100
552.800	-25.264	0.100
552.900	-26.192	0.100
553.000	-15.930	0.100
553.100	-46.071	0.100
553.200	-54.128	0.100
553.300	-19.425	0.100
553.400	-21.555	0.100
553.500	-27.392	0.100
553.600	-15.760	0.100
553.700	-21.317	0.100
553.800	-50.041	0.100
553.900	-31.061	0.100
554.000	-39.312	0.100
554.100	-18.993	0.100
554.200	-40.617	0.099
554.300	-15.606	0.099
554.400	-24.048	0.100
554.500	-24.969	0.099
554.600	-62.632	0.099
554.700	-11.361	0.100
554.800	-13.819	0.099
554.900	-15.677	0.099
555.000	-27.658	0.099
555.100	-6.394	0.099
555.200	-49.637	0.099
555.300	-40.248	0.099
555.400	-40.655	0.099
555.500	-27.490	0.099
555.600	-0.812	0.100
555.700	-41.606	0.099
555.800	-23.129	0.099
555.900	-19.143	0.099
556.000	-28.078	0.100
556.100	-18.633	0.099
556.200	-28.034	0.099
556.300	-20.726	0.099
556.400	-37.895	0.100
556.500	-52.617	0.099
556.600	-18.248	0.099
556.700	-35.397	0.099
556.800	-25.112	0.099
556.900	-33.174	0.099
557.000	-43.738	0.099
557.100	-20.398	0.099
557.200	-15.829	0.099
557.300	-27.990	0.099
557.400	-35.939	0.099
557.500	-60.846	0.099
557.600	-33.737	0.099
557.700	-47.092	0.099
557.800	-10.566	0.099
557.900	-21.243	0.099
558.000	-67.096	0.099
558.100	-0.884	0.099
558.200	-8.195	0.099
558.300	-44.057	0.099
558.400	-35.289	0.099
558.500	-33.562	0.099
558.600	-39.439	0.099
558.700	-20.139	0.100
558.800	-29.339	0.099
558.900	-22.848	0.100
559.000	-67.948	0.099
559.100	-28.122	0.099
559.200	-20.889	0.099
559.300	-26.864	0.099
559.400	-75.021	0.099
559.500	-13.207	0.099
559.600	-14.404	0.100
559.700	-42.593	0.100
559.800	-48.467	0.099
559.900	-50.390	0.099
560.000	-13.476	0.099
560.100	-39.310	0.099
560.200	-44.035	0.099
560.300	-16.814	0.099
560.400	-45.256	0.099
560.500	-42.457	0.099
560.600	-45.452	0.099
560.700	-55.802	0.099
560.800	-31.820	0.099
560.900	-43.033	0.100
561.000	-49.787	0.099
561.100	-20.757	0.100
561.200	-32.628	0.099
561.300	-45.522	0.099
561.400	-60.600	0.099
561.500	-27.204	0.099
561.600	-42.141	0.100
561.700	-39.092	0.099
561.800	-34.501	0.100
561.900	-25.754	0.099
562.000	-13.708	0.099
562.100	-55.189	0.099
562.200	-34.613	0.100
562.300	-54.963	0.099
562.400	-33.771	0.099
562.500	-48.065	0.099
562.600	-85.841	0.099
562.700	-23.860	0.099
562.800	-10.661	0.099
562.900	-23.986	0.099
563.000	-47.803	0.099
563.100	-37.768	0.099
563.200	-18.223	0.099
563.300	-17.246	0.099
563.400	-56.636	0.100
563.500	-43.594	0.099
563.600	-34.208	0.100
563.700	-21.929	0.100
563.800	-56.622	0.099
563.900	-21.693	0.099
564.000	-59.678	0.099
564.100	-31.071	0.099
564.200	-81.359	0.099
564.300	-29.069	0.100
564.400	-29.857	0.099
564.500	-45.565	0.099
564.600	-44.233	0.100
564.700	-34.349	0.099
564.800	-20.915	0.100
564.900	-53.348	0.100
565.000	-40.055	0.099
565.100	-65.833	0.099
565.200	-77.529	0.099
565.300	-46.815	0.099
565.400	-43.643	0.099
565.500	-25.583	0.100
565.600	-34.183	0.099
565.700	-32.834	0.099
565.800	-42.621	0.099
565.900	-66.543	0.099
566.000	-38.279	0.099
566.100	-36.794	0.099
566.200	-60.532	0.099
566.300	-40.367	0.099
566.400	-51.871	0.099
566.500	-71.934	0.099
566.600	-41.082	0.099
566.700	-25.460	0.099
566.800	-62.297	0.099
566.900	-37.683	0.099
567.000	-45.435	0.099
567.100	-26.049	0.099
567.200	-53.927	0.099
567.300	-43.647	0.099
567.400	-41.413	0.099
567.500	-45.858	0.099
567.600	-58.568	0.099
567.700	-91.494	0.099
567.800	-69.501	0.099
567.900	-55.803	0.099
568.000	-27.715	0.099
568.100	-33.310	0.099
568.200	-30.211	0.099
568.300	-62.640	0.099
568.400	-39.057	0.099
568.500	-30.430	0.099
568.600	-62.502	0.099
568.700	-59.951	0.099
568.800	-44.203	0.099
568.900	-20.458	0.099
569.000	-42.741	0.099
569.100	-42.488	0.099
569.200	-57.815	0.099
569.300	-46.297	0.099
569.400	-62.485	0.099
569.500	-39.565	0.099
569.600	-68.143	0.099
569.700	-18.217	0.099
569.800	-49.396	0.099
569.900	-56.601	0.099
570.000	-44.045	0.099
570.100	-39.445	0.099
570.200	-38.843	0.099
570.300	-49.193	0.099
570.400	-36.901	0.099
570.500	-44.697	0.099
570.600	-83.577	0.099
570.700	-47.136	0.099
570.800	-37.023	0.099
570.900	-53.344	0.099
571.000	-20.985	0.099
571.100	-55.889	0.099
571.200	-42.057	0.099
571.300	-48.648	0.099
571.400	-56.130	0.099
571.500	-50.627	0.100
571.600	-49.226	0.099
571.700	-68.093	0.099
571.800	-73.858	0.099
571.900	-36.593	0.099
572.000	-34.828	0.099
572.100	-46.310	0.099
572.200	-55.837	0.099
572.300	-36.660	0.099
572.400	-53.707	0.099
572.500	-40.035	0.099
572.600	-55.813	0.099
572.700	-29.185	0.099
572.800	-49.862	0.099
572.900	-49.934	0.099
573.000	-54.494	0.099
573.100	-43.784	0.099
573.200	-26.751	0.099
573.300	-36.376	0.099
573.400	-67.115	0.099
573.500	-48.942	0.099
573.600	-41.466	0.099
573.700	-48.434	0.099
573.800	-66.621	0.099
573.900	-51.583	0.099
574.000	-67.453	0.099
574.100	-42.769	0.099
574.200	-30.666	0.099
574.300	-39.225	0.099
574.400	-35.103	0.099
574.500	-65.913	0.100
574.600	-64.226	0.099
574.700	-44.971	0.099
574.800	-46.780	0.099
574.900	-68.620	0.099
575.000	-62.560	0.099
575.100	-52.036	0.099
575.200	-36.537	0.099
575.300	-41.181	0.099
575.400	-45.403	0.100
575.500	-43.260	0.099
575.600	-51.970	0.099
575.700	-47.747	0.099
575.800	-40.372	0.099
575.900	-39.216	0.099
576.000	-41.207	0.099
576.100	-45.487	0.100
576.200	-26.180	0.100
576.300	-63.208	0.099
576.400	-67.069	0.099
576.500	-61.674	0.099
576.600	-43.088	0.100
576.700	-63.644	0.099
576.800	-38.312	0.100
576.900	-63.846	0.100
577.000	-60.013	0.099
577.100	-62.233	0.099
577.200	-62.643	0.100
577.300	-56.191	0.099
577.400	-44.272	0.099
577.500	-51.021	0.099
577.600	-36.060	0.099
577.700	-52.537	0.100
577.800	-48.095	0.099
577.900	-41.889	0.099
578.000	-49.771	0.099
578.100	-61.375	0.099
578.200	-57.922	0.100
578.300	-48.525	0.099
578.400	-62.109	0.099
578.500	-43.745	0.099
578.600	-54.735	0.099
578.700	-41.711	0.100
578.800	-67.174	0.100
578.900	-43.281	0.099
579.000	-29.762	0.099
579.100	-33.143	0.100
579.200	-56.343	0.099
579.300	-73.719	0.099
579.400	-81.323	0.099
579.500	-59.912	0.099
579.600	-57.193	0.099
579.700	-62.127	0.099
579.800	-49.241	0.099
579.900	-56.075	0.099
580.000	-38.956	0.100
580.100	-38.515	0.099
580.200	-65.987	0.099
580.300	-47.781	0.099
580.400	-39.625	0.099
580.500	-65.894	0.100
580.600	-37.637	0.100
580.700	-68.294	0.099
580.800	-48.494	0.099
580.900	-59.317	0.099
581.000	-39.706	0.099
581.100	-59.826	0.099
581.200	-45.108	0.099
581.300	-49.340	0.099
581.400	-41.279	0.099
581.500	-58.046	0.099
581.600	-49.747	0.099
581.700	-62.652	0.099
581.800	-41.848	0.099
581.900	-55.643	0.099
582.000	-41.948	0.099
582.100	-53.739	0.099
582.200	-45.540	0.099
582.300	-77.099	0.099
582.400	-50.165	0.099
582.500	-76.017	0.099
582.600	-42.133	0.099
582.700	-28.650	0.099
582.800	-66.884	0.099
582.900	-30.148	0.099
583.000	-78.396	0.099
583.100	-54.437	0.100
583.200	-33.415	0.100
583.300	-24.042	0.100
583.400	-40.338	0.099
583.500	-50.338	0.100
583.600	-40.914	0.099
583.700	-43.233	0.099
583.800	-59.093	0.099
583.900	-85.939	0.099
584.000	-77.355	0.099
584.100	-39.423	0.099
584.200	-52.560	0.099
584.300	-47.329	0.100
584.400	-50.309	0.099
584.500	-47.900	0.100
584.600	-78.644	0.100
584.700	-63.804	0.099
584.800	-40.250	0.100
584.900	-48.418	0.099
585.000	-66.324	0.099
585.100	-54.026	0.099
585.200	-61.424	0.099
585.300	-40.583	0.100
585.400	-27.014	0.099
585.500	-34.808	0.099
585.600	-57.125	0.099
585.700	-41.184	0.100
585.800	-57.130	0.100
585.900	-41.714	0.099
586.000	-45.589	0.100
586.100	-44.015	0.099
586.200	-54.446	0.100
586.300	-47.408	0.100
586.400	-49.302	0.099
586.500	-61.965	0.099
586.600	-51.011	0.099
586.700	-49.777	0.099
586.800	-37.114	0.099
586.900	-40.180	0.100
587.000	-49.779	0.099
587.100	-61.180	0.100
587.200	-45.426	0.100
587.300	-40.049	0.100
587.400	-54.849	0.099
587.500	-48.532	0.099
587.600	-50.685	0.099
587.700	-54.188	0.100
587.800	-60.148	0.100
587.900	-73.974	0.100
588.000	-59.136	0.099
588.100	-53.052	0.099
588.200	-36.439	0.099
588.300	-36.107	0.099
588.400	-57.255	0.099
588.500	-50.207	0.099
588.600	-47.345	0.100
588.700	-46.586	0.099
588.800	-50.009	0.100
588.900	-43.616	0.099
589.000	-46.498	0.100
589.100	-46.932	0.100
589.200	-30.868	0.100
589.300	-43.558	0.099
589.400	-45.502	0.100
589.500	-53.478	0.099
589.600	-50.372	0.099
589.700	-50.886	0.099
589.800	-63.665	0.100
589.900	-46.422	0.100
590.000	-48.802	0.100
590.100	-28.169	0.100
590.200	-47.221	0.100
590.300	-35.190	0.100
590.400	-69.721	0.100
590.500	-71.997	0.100
590.600	-56.984	0.100
590.700	-73.051	0.100
590.800	-31.112	0.100
590.900	-26.095	0.100
591.000	-42.098	0.100
591.100	-56.273	0.099
591.200	-42.504	0.100
591.300	-44.103	0.099
591.400	-41.836	0.100
591.500	-37.650	0.100
591.600	-35.032	0.100
591.700	-50.503	0.100
591.800	-71.035	0.099
591.900	-22.033	0.100
592.000	-32.604	0.099
592.100	-51.855	0.099
592.200	-32.823	0.099
592.300	-43.024	0.100
592.400	-34.775	0.100
592.500	-53.745	0.100
592.600	-45.550	0.100
592.700	-57.115	0.099
592.800	-70.482	0.099
592.900	-49.105	0.099
593.000	-49.040	0.100
593.100	-34.402	0.100
593.200	-36.932	0.100
593.300	-56.468	0.099
593.400	-59.680	0.100
593.500	-64.150	0.099
593.600	-62.643	0.099
593.700	-55.799	0.099
593.800	-42.959	0.100
593.900	-49.619	0.099
594.000	-53.366	0.100
594.100	-41.641	0.099
594.200	-54.718	0.099
594.300	-75.185	0.099
594.400	-62.751	0.099
594.500	-78.417	0.100
594.600	-32.872	0.099
594.700	-49.479	0.099
594.800	-48.226	0.099
594.900	-37.051	0.099
595.000	-80.678	0.099
595.100	-56.070	0.099
595.200	-15.501	0.100
595.300	-29.760	0.099
595.400	-24.891	0.099
595.500	-28.533	0.100
595.600	-57.518	0.099
595.700	-53.471	0.099
595.800	-69.016	0.099
595.900	-32.174	0.099
596.000	-32.017	0.100
596.100	-37.855	0.099
596.200	-58.802	0.099
596.300	-53.875	0.100
596.400	-73.987	0.100
596.500	-25.987	0.099
596.600	-26.525	0.100
596.700	-55.845	0.099
596.800	-80.136	0.100
596.900	-84.896	0.100
597.000	-30.695	0.099
597.100	-34.430	0.099
597.200	-33.741	0.099
597.300	-75.526	0.100
597.400	-53.382	0.099
597.500	-51.638	0.100
597.600	-30.694	0.100
597.700	-45.025	0.100
597.800	-10.167	0.100
597.900	-73.113	0.100
598.000	-25.741	0.100
598.100	-52.170	0.099
598.200	-21.570	0.100
598.300	-52.580	0.100
598.400	-61.801	0.099
598.500	-28.438	0.100
598.600	-23.564	0.100
598.700	-38.131	0.100
598.800	-63.845	0.099
598.900	-62.678	0.099
599.000	-23.635	0.099
599.100	-51.901	0.100
599.200	-35.630	0.100
599.300	-54.967	0.100
599.400	-37.162	0.100
599.500	-40.741	0.099
599.600	-48.846	0.100
599.700	-79.276	0.100
599.800	-45.517	0.099
599.900	-30.704	0.099
600.000	-42.358	0.099
600.100	-43.148	0.100
600.200	-24.331	0.099
600.300	-23.595	0.100
600.400	-54.603	0.100
600.500	-39.710	0.100
600.600	-55.702	0.099
600.700	-49.414	0.100
600.800	-47.214	0.099
600.900	-28.362	0.100
601.000	-45.875	0.099
601.100	-47.316	0.100
601.200	-16.080	0.100
601.300	-53.644	0.099
601.400	-56.263	0.099
601.500	-43.021	0.100
601.600	-46.584	0.099
601.700	-54.199	0.100
601.800	-71.086	0.099
601.900	-38.809	0.099
602.000	-40.228	0.099
602.100	-35.698	0.100
602.200	-41.408	0.099
602.300	-41.121	0.099
602.400	-54.993	0.100
602.500	-48.843	0.100
602.600	-42.938	0.100
602.700	-50.144	0.099
602.800	-38.249	0.100
602.900	-33.982	0.100
603.000	-59.366	0.100
603.100	-41.971	0.100
603.200	-6.832	0.100
603.300	-48.065	0.100
603.400	-51.810	0.100
603.500	-41.304	0.100
603.600	-47.728	0.100
603.700	-54.285	0.100
603.800	-46.766	0.100
603.900	-35.322	0.100
604.000	-42.327	0.100
604.100	-42.789	0.100
604.200	-22.839	0.100
604.300	-50.337	0.100
604.400	-72.192	0.099
604.500	-54.437	0.099
604.600	-33.696	0.100
604.700	-47.351	0.100
604.800	-45.137	0.100
604.900	-29.330	0.100
605.000	-39.389	0.099
605.100	-42.365	0.100
605.200	-35.560	0.100
605.300	-33.271	0.099
605.400	-63.150	0.100
605.500	-36.467	0.100
605.600	-56.170	0.100
605.700	-52.881	0.099
605.800	-26.322	0.099
605.900	-44.523	0.100
606.000	-51.802	0.100
606.100	-56.317	0.100
606.200	-35.232	0.100
606.300	-50.637	0.100
606.400	-41.890	0.100
606.500	-50.236	0.100
606.600	-47.486	0.099
606.700	-52.827	0.100
606.800	-56.480	0.099
606.900	-41.519	0.099
607.000	-15.328	0.100
607.100	-25.196	0.100
607.200	-54.841	0.099
607.300	-27.410	0.100
607.400	-45.716	0.100
607.500	-41.357	0.100
607.600	-50.519	0.100
607.700	-43.651	0.100
607.800	-34.755	0.100
607.900	-45.174	0.099
608.000	-34.165	0.099
608.100	-22.431	0.100
608.200	-54.243	0.099
608.300	-40.613	0.100
608.400	-50.331	0.100
608.500	-41.532	0.100
608.600	-61.851	0.100
608.700	-41.026	0.100
608.800	-71.444	0.099
608.900	-41.177	0.099
609.000	-38.815	0.100
609.100	-27.205	0.100
609.200	-50.914	0.099
609.300	-36.997	0.100
609.400	-57.903	0.100
609.500	-44.275	0.100
609.600	-37.761	0.100
609.700	-34.696	0.100
609.800	-30.723	0.100
609.900	-46.358	0.099
610.000	-31.504	0.100
610.100	-41.104	0.099
610.200	-56.835	0.100
610.300	-30.103	0.100
610.400	-51.357	0.099
610.500	-54.539	0.099
610.600	-29.966	0.099
610.700	-31.633	0.100
610.800	-32.908	0.100
610.900	-82.017	0.099
611.000	-36.805	0.099
611.100	-28.267	0.099
611.200	-32.705	0.100
611.300	-52.912	0.099
611.400	-47.232	0.100
611.500	-44.607	0.099
611.600	-19.572	0.100
611.700	-47.267	0.100
611.800	-50.847	0.100
611.900	-49.307	0.099
612.000	-39.605	0.099
612.100	-49.045	0.100
612.200	-25.383	0.100
612.300	-37.077	0.100
612.400	-40.383	0.099
612.500	-34.505	0.099
612.600	-40.215	0.100
612.700	-25.126	0.100
612.800	-37.697	0.100
612.900	-32.013	0.100
613.000	-59.948	0.099
613.100	-27.648	0.099
613.200	-23.929	0.099
613.300	-54.669	0.100
613.400	-50.936	0.100
613.500	-29.052	0.100
613.600	-36.001	0.100
613.700	-42.750	0.100
613.800	-35.110	0.100
613.900	-53.410	0.100
614.000	-64.890	0.100
614.100	-57.786	0.100
614.200	-37.872	0.100
614.300	-48.087	0.100
614.400	-66.116	0.100
614.500	-33.538	0.099
614.600	-31.921	0.100
614.700	-35.549	0.099
614.800	-33.259	0.100
614.900	-41.186	0.100
615.000	-42.881	0.100
615.100	-50.017	0.100
615.200	-40.906	0.100
615.300	-48.283	0.100
615.400	-33.391	0.100
615.500	-44.193	0.100
615.600	-51.400	0.100
615.700	-53.031	0.099
615.800	-28.562	0.100
615.900	-32.250	0.100
616.000	-62.966	0.100
616.100	-32.166	0.100
616.200	-58.509	0.100
616.300	-44.065	0.100
616.400	-61.375	0.100
616.500	-63.040	0.099
616.600	-23.995	0.100
616.700	-52.125	0.100
616.800	-58.294	0.100
616.900	-42.858	0.100
617.000	-10.670	0.100
617.100	-28.976	0.100
617.200	-54.713	0.100
617.300	-58.941	0.100
617.400	-59.981	0.100
617.500	-36.840	0.099
617.600	-51.137	0.100
617.700	-27.358	0.100
617.800	-29.613	0.100
617.900	-41.199	0.100
618.000	-18.377	0.100
618.100	-28.666	0.100
618.200	-44.432	0.100
618.300	-46.787	0.100
618.400	-34.218	0.100
618.500	-34.690	0.100
618.600	-52.295	0.099
618.700	-54.440	0.100
618.800	-52.458	0.099
618.900	-36.500	0.100
619.000	-44.935	0.100
619.100	-29.379	0.100
619.200	-39.450	0.100
619.300	-50.200	0.099
619.400	-40.125	0.100
619.500	-56.805	0.100
619.600	-48.015	0.100
619.700	-54.155	0.100
619.800	-42.926	0.100
619.900	-48.012	0.099
620.000	-39.671	0.100
620.100	-61.683	0.100
620.200	-32.741	0.100
620.300	-8.083	0.099
620.400	-22.943	0.099
620.500	-47.060	0.100
620.600	-53.321	0.099
620.700	-32.910	0.100
620.800	-55.222	0.100
620.900	-29.507	0.100
621.000	-45.131	0.099
621.100	-49.572	0.100
621.200	-43.849	0.100
621.300	-27.566	0.099
621.400	-57.584	0.100
621.500	-44.589	0.100
621.600	-71.347	0.099
621.700	-46.999	0.100
621.800	-21.288	0.100
621.900	-18.161	0.100
622.000	-51.300	0.100
622.100	-31.546	0.100
622.200	-29.782	0.100
622.300	-62.780	0.100
622.400	-29.447	0.100
622.500	-43.516	0.100
622.600	-51.291	0.100
622.700	-52.296	0.099
622.800	-37.866	0.099
622.900	-45.033	0.100
623.000	-40.852	0.100
623.100	-41.694	0.099
623.200	-51.966	0.099
623.300	-10.805	0.100
623.400	-36.838	0.100
623.500	-59.983	0.100
623.600	-46.047	0.099
623.700	-19.806	0.100
623.800	-45.049	0.099
623.900	-49.604	0.100
624.000	-56.558	0.099
624.100	-29.763	0.100
624.200	-57.781	0.099
624.300	-55.562	0.100
624.400	-57.297	0.099
624.500	-18.274	0.100
624.600	-44.934	0.100
624.700	-20.545	0.100
624.800	-30.485	0.100
624.900	-31.123	0.099
625.000	-25.501	0.100
625.100	-39.011	0.100
625.200	-37.777	0.100
625.300	-60.912	0.099
625.400	-37.036	0.099
625.500	-21.704	0.100
625.600	-20.155	0.100
625.700	-32.909	0.099
625.800	-50.165	0.099
625.900	-42.485	0.099
626.000	-51.527	0.099
626.100	-34.808	0.099
626.200	-33.170	0.099
626.300	-51.722	0.099
626.400	-57.450	0.100
626.500	-29.005	0.100
626.600	-34.922	0.099
626.700	-24.968	0.099
626.800	-48.866	0.099
626.900	-44.841	0.100
627.000	-46.876	0.099
627.100	-15.418	0.100
627.200	-50.693	0.099
627.300	-72.780	0.099
627.400	-30.894	0.099
627.500	-8.409	0.099
627.600	-16.948	0.099
627.700	-55.577	0.099
627.800	-17.171	0.099
627.900	-51.943	0.099
628.000	-44.133	0.099
628.100	-45.198	0.099
628.200	-32.000	0.099
628.300	-19.059	0.100
628.400	-41.598	0.099
628.500	-22.297	0.099
628.600	-52.659	0.099
628.700	-48.303	0.099
628.800	-43.763	0.099
628.900	-35.249	0.099
629.000	-46.155	0.100
629.100	-20.537	0.100
629.200	-15.714	0.099
629.300	-52.729	0.099
629.400	-64.002	0.099
629.500	-62.894	0.099
629.600	-58.436	0.099
629.700	-29.080	0.099
629.800	-34.154	0.099
629.900	-8.974	0.100
630.000	-28.413	0.099
630.100	-30.562	0.099
630.200	-21.197	0.100
630.300	-46.144	0.100
630.400	-34.552	0.100
630.500	-23.567	0.100
630.600	-51.661	0.099
630.700	-57.251	0.099
630.800	-17.607	0.100
630.900	-21.219	0.100
631.000	-46.994	0.100
631.100	-24.347	0.100
631.200	-21.253	0.099
631.300	-13.616	0.100
631.400	-17.610	0.100
631.500	-20.222	0.100
631.600	23.126	0.099
631.700	-9.743	0.099
631.800	9.854	0.099
631.900	7.007	0.100
632.000	-5.280	0.099
632.100	-6.190	0.099
632.200	-8.426	0.100
632.300	18.888	0.100
632.400	14.470	0.100
632.500	19.747	0.100
632.600	5.520	0.099
632.700	33.145	0.099
632.800	34.363	0.099
632.900	42.192	0.100
633.000	10.958	0.099
633.100	13.842	0.100
633.200	40.394	0.100
633.300	28.418	0.099
633.400	36.032	0.100
633.500	30.847	0.100
633.600	43.065	0.100
633.700	54.249	0.100
633.800	19.303	0.100
633.900	61.860	0.100
634.000	32.442	0.099
634.100	62.530	0.100
634.200	39.060	0.100
634.300	52.331	0.100
634.400	28.773	0.100
634.500	24.559	0.099
634.600	5.423	0.100
634.700	29.341	0.099
634.800	39.631	0.099
634.900	24.320	0.100
635.000	12.858	0.099
635.100	33.547	0.099
635.200	51.765	0.100
635.300	49.796	0.099
635.400	35.859	0.100
635.500	29.168	0.099
635.600	33.405	0.099
635.700	39.182	0.099
635.800	37.045	0.100
635.900	2.418	0.099
636.000	33.476	0.100
636.100	23.838	0.099
636.200	43.438	0.100
636.300	30.342	0.099
636.400	35.436	0.099
636.500	21.741	0.099
636.600	17.498	0.099
636.700	20.902	0.099
636.800	37.672	0.099
636.900	11.945	0.100
637.000	63.695	0.099
637.100	23.138	0.099
637.200	34.400	0.099
637.300	7.448	0.099
637.400	23.239	0.099
637.500	32.446	0.099
637.600	49.958	0.099
637.700	26.447	0.100
637.800	36.980	0.100
637.900	38.698	0.099
638.000	16.595	0.099
638.100	20.960	0.099
638.200	48.279	0.100
638.300	33.418	0.099
638.400	8.414	0.099
638.500	27.019	0.100
638.600	41.188	0.100
638.700	22.803	0.100
638.800	35.486	0.099
638.900	56.281	0.100
639.000	29.678	0.099
639.100	37.824	0.099
639.200	31.276	0.099
639.300	30.377	0.099
639.400	43.191	0.100
639.500	61.454	0.100
639.600	47.343	0.100
639.700	46.609	0.099
639.800	39.855	0.100
639.900	23.699	0.099
640.000	34.492	0.099
640.100	47.926	0.099
640.200	69.352	0.099
640.300	70.329	0.100
640.400	51.512	0.100
640.500	39.731	0.100
640.600	65.375	0.100
640.700	39.562	0.099
640.800	68.305	0.100
640.900	35.527	0.099
641.000	41.436	0.099
641.100	34.179	0.100
641.200	69.544	0.099
641.300	79.843	0.099
641.400	76.124	0.100
641.500	60.681	0.100
641.600	55.037	0.099
641.700	85.194	0.100
641.800	56.401	0.100
641.900	84.445	0.100
642.000	81.505	0.099
642.100	72.826	0.100
642.200	63.207	0.100
642.300	86.214	0.100
642.400	37.741	0.100
642.500	59.806	0.099
642.600	55.885	0.100
642.700	80.319	0.100
642.800	64.655	0.099
642.900	87.775	0.100
643.000	73.119	0.099
643.100	70.292	0.099
643.200	58.859	0.099
643.300	73.017	0.100
643.400	86.032	0.100
643.500	64.544	0.099
643.600	87.302	0.100
643.700	102.500	0.099
643.800	89.461	0.099
643.900	71.435	0.099
644.000	70.138	0.099
644.100	82.539	0.100
644.200	91.636	0.099
644.300	109.178	0.099
644.400	109.536	0.100
644.500	86.923	0.099
644.600	91.737	0.100
644.700	106.421	0.100
644.800	88.080	0.100
644.900	110.046	0.100
645.000	81.239	0.100
645.100	106.134	0.100
645.200	83.583	0.100
645.300	91.420	0.099
645.400	126.331	0.099
645.500	75.602	0.100
645.600	92.853	0.100
645.700	112.058	0.099
645.800	98.865	0.100
645.900	129.423	0.099
646.000	106.493	0.099
646.100	86.908	0.099
646.200	108.227	0.100
646.300	108.263	0.099
646.400	100.416	0.099
646.500	99.183	0.099
646.600	127.409	0.099
646.700	122.195	0.100
646.800	104.089	0.099
646.900	107.915	0.099
647.000	129.396	0.099
647.100	104.154	0.099
647.200	106.605	0.099
647.300	110.622	0.099
647.400	137.550	0.099
647.500	110.918	0.099
647.600	149.414	0.100
647.700	127.856	0.100
647.800	127.726	0.100
647.900	137.595	0.099
648.000	131.799	0.099
648.100	123.971	0.099
648.200	112.481	0.099
648.300	149.705	0.099
648.400	104.561	0.099
648.500	110.630	0.099
648.600	153.216	0.099
648.700	139.653	0.099
648.800	143.953	0.099
648.900	120.677	0.099
649.000	111.822	0.099
649.100	104.515	0.099
649.200	129.921	0.100
649.300	88.077	0.099
649.400	110.233	0.099
649.500	118.488	0.099
649.600	146.965	0.099
649.700	160.068	0.099
649.800	115.221	0.099
649.900	137.957	0.099
650.000	124.417	0.099
650.100	118.994	0.099
650.200	132.605	0.099
650.300	158.345	0.099
650.400	139.052	0.099
650.500	132.952	0.100
650.600	126.675	0.099
650.700	98.526	0.099
650.800	130.874	0.099
650.900	141.537	0.099
651.000	115.778	0.099
651.100	118.951	0.099
651.200	110.982	0.099
651.300	137.314	0.099
651.400	128.111	0.100
651.500	134.290	0.099
651.600	112.037	0.099
651.700	142.966	0.099
651.800	109.967	0.100
651.900	120.209	0.100
652.000	101.982	0.100
652.100	131.526	0.099
652.200	126.904	0.099
652.300	153.146	0.099
652.400	114.918	0.099
652.500	122.468	0.099
652.600	120.989	0.099
652.700	118.410	0.099
652.800	139.867	0.099
652.900	133.125	0.099
653.000	122.959	0.099
653.100	138.683	0.099
653.200	133.423	0.099
653.300	118.828	0.099
653.400	127.377	0.099
653.500	98.756	0.099
653.600	117.108	0.099
653.700	113.852	0.099
653.800	106.277	0.100
653.900	123.259	0.099
654.000	110.500	0.099
654.100	122.798	0.099
654.200	107.338	0.099
654.300	128.809	0.099
654.400	127.645	0.100
654.500	111.894	0.099
654.600	127.532	0.100
654.700	110.726	0.099
654.800	135.875	0.099
654.900	118.188	0.100
655.000	116.888	0.099
655.100	108.564	0.099
655.200	103.489	0.099
655.300	140.515	0.099
655.400	148.564	0.099
655.500	98.887	0.100
655.600	119.873	0.099
655.700	133.249	0.099
655.800	126.912	0.100
655.900	93.200	0.099
656.000	109.345	0.099
656.100	128.976	0.099
656.200	147.077	0.099
656.300	116.979	0.099
656.400	106.539	0.099
656.500	111.331	0.099
656.600	121.167	0.099
656.700	117.009	0.099
656.800	111.484	0.099
656.900	128.482	0.100
657.000	106.430	0.100
657.100	125.784	0.100
657.200	103.768	0.099
657.300	114.401	0.099
657.400	111.438	0.099
657.500	90.369	0.100
657.600	104.557	0.100
657.700	125.486	0.100
657.800	110.959	0.099
657.900	122.609	0.100
658.000	88.136	0.099
658.100	91.471	0.099
658.200	119.222	0.099
658.300	122.244	0.100
658.400	120.496	0.100
658.500	121.572	0.099
658.600	112.474	0.099
658.700	124.916	0.099
658.800	114.625	0.099
658.900	87.965	0.099
659.000	80.239	0.099
659.100	125.859	0.099
659.200	115.410	0.100
659.300	72.430	0.099
659.400	134.609	0.099
659.500	130.396	0.100
659.600	116.546	0.100
659.700	96.313	0.099
659.800	87.382	0.100
659.900	104.097	0.099
660.000	84.388	0.099
660.100	118.462	0.099
660.200	119.472	0.099
660.300	113.224	0.099
660.400	93.444	0.100
660.500	122.020	0.100
660.600	108.841	0.099
660.700	92.362	0.099
660.800	77.948	0.099
660.900	122.758	0.099
661.000	116.776	0.100
661.100	73.638	0.099
661.200	98.346	0.100
661.300	105.120	0.099
661.400	127.000	0.099
661.500	113.179	0.100
661.600	99.549	0.099
661.700	102.222	0.099
661.800	106.502	0.099
661.900	103.580	0.099
662.000	95.481	0.099
662.100	123.970	0.100
662.200	115.586	0.099
662.300	120.225	0.100
662.400	78.964	0.100
662.500	122.853	0.100
662.600	106.289	0.099
662.700	104.233	0.100
662.800	122.506	0.099
662.900	118.614	0.100
663.000	109.135	0.100
663.100	102.124	0.100
663.200	85.163	0.099
663.300	77.561	0.099
663.400	88.181	0.099
663.500	109.816	0.099
663.600	113.994	0.099
663.700	119.173	0.099
663.800	103.517	0.099
663.900	104.561	0.099
664.000	94.471	0.099
664.100	75.169	0.099
664.200	126.240	0.099
664.300	112.603	0.099
664.400	113.285	0.100
664.500	95.162	0.100
664.600	91.017	0.099
664.700	109.697	0.100
664.800	134.435	0.100
664.900	95.143	0.099
665.000	94.381	0.100
665.100	104.553	0.100
665.200	96.500	0.099
665.300	100.314	0.100
665.400	84.343	0.099
665.500	70.576	0.099
665.600	114.042	0.099
665.700	101.181	0.099
665.800	90.369	0.099
665.900	105.603	0.099
666.000	101.462	0.099
666.100	129.505	0.099
666.200	82.961	0.099
666.300	105.534	0.100
666.400	105.749	0.099
666.500	81.572	0.099
666.600	68.870	0.099
666.700	104.703	0.099
666.800	126.237	0.099
666.900	103.530	0.100
667.000	98.017	0.100
667.100	109.557	0.099
667.200	98.191	0.099
667.300	90.209	0.099
667.400	115.900	0.100
667.500	101.970	0.099
667.600	108.830	0.099
667.700	99.711	0.099
667.800	91.013	0.099
667.900	92.708	0.099
668.000	110.701	0.099
668.100	106.767	0.100
668.200	123.970	0.099
668.300	114.697	0.099
668.400	116.816	0.099
668.500	84.936	0.099
668.600	100.532	0.099
668.700	128.738	0.099
668.800	104.221	0.100
668.900	96.855	0.100
669.000	97.630	0.100
669.100	96.741	0.100
669.200	106.272	0.099
669.300	97.698	0.099
669.400	102.272	0.099
669.500	96.967	0.100
669.600	105.273	0.099
669.700	94.141	0.099
669.800	71.542	0.099
669.900	113.606	0.100
670.000	90.430	0.099
670.100	100.427	0.099
670.200	85.305	0.100
670.300	95.441	0.099
670.400	96.145	0.099
670.500	82.749	0.099
670.600	101.408	0.099
670.700	101.807	0.099
670.800	100.264	0.099
670.900	125.180	0.099
671.000	109.589	0.099
671.100	109.861	0.100
671.200	103.248	0.100
671.300	106.099	0.100
671.400	108.920	0.099
671.500	90.163	0.100
671.600	102.760	0.100
671.700	110.909	0.100
671.800	94.758	0.099
671.900	112.043	0.100
672.000	105.022	0.100
672.100	88.808	0.099
672.200	81.725	0.099
672.300	109.124	0.100
672.400	92.129	0.100
672.500	92.685	0.100
672.600	88.963	0.100
672.700	94.189	0.100
672.800	91.197	0.100
672.900	61.510	0.099
673.000	109.599	0.100
673.100	120.177	0.099
673.200	106.286	0.100
673.300	89.003	0.100
673.400	104.406	0.100
673.500	110.199	0.100
673.600	85.220	0.100
673.700	64.850	0.100
673.800	92.834	0.100
673.900	94.318	0.100
674.000	89.260	0.099
674.100	101.171	0.099
674.200	128.635	0.100
674.300	84.090	0.099
674.400	108.885	0.099
674.500	99.904	0.099
674.600	88.654	0.099
674.700	78.485	0.099
674.800	98.392	0.099
674.900	102.850	0.100
675.000	63.043	0.099
675.100	101.144	0.099
675.200	85.748	0.099
675.300	80.831	0.099
675.400	67.461	0.100
675.500	96.702	0.099
675.600	112.009	0.100
675.700	83.057	0.100
675.800	109.832	0.099
675.900	111.894	0.099
676.000	80.175	0.100
676.100	130.119	0.100
676.200	91.930	0.100
676.300	100.476	0.100
676.400	93.199	0.099
676.500	110.307	0.100
676.600	107.185	0.100
676.700	82.706	0.099
676.800	78.232	0.099
676.900	101.767	0.100
677.000	118.935	0.100
677.100	83.189	0.100
677.200	58.965	0.099
677.300	69.580	0.100
677.400	76.715	0.100
677.500	118.985	0.100
677.600	100.702	0.099
677.700	89.538	0.100
677.800	97.457	0.100
677.900	106.092	0.100
678.000	123.753	0.099
678.100	91.704	0.099
678.200	98.566	0.100
678.300	94.418	0.100
678.400	86.518	0.100
678.500	113.342	0.100
678.600	108.564	0.100
678.700	101.082	0.100
678.800	86.512	0.099
678.900	103.186	0.100
679.000	100.064	0.100
679.100	90.061	0.099
679.200	82.457	0.100
679.300	84.502	0.099
679.400	77.339	0.099
679.500	102.983	0.099
679.600	101.102	0.099
679.700	124.119	0.099
679.800	76.475	0.100
679.900	92.474	0.100
680.000	95.678	0.100
680.100	107.436	0.100
680.200	102.431	0.100
680.300	87.989	0.100
680.400	103.570	0.100
680.500	100.736	0.100
680.600	95.599	0.100
680.700	60.458	0.100
680.800	104.197	0.100
680.900	97.961	0.099
681.000	118.261	0.100
681.100	122.617	0.100
681.200	83.193	0.100
681.300	81.049	0.100
681.400	101.923	0.099
681.500	100.947	0.100
681.600	98.137	0.100
681.700	69.748	0.099
681.800	91.749	0.100
681.900	76.280	0.100
682.000	79.451	0.099
682.100	56.961	0.099
682.200	107.874	0.100
682.300	114.468	0.099
682.400	99.627	0.099
682.500	101.831	0.100
682.600	84.987	0.100
682.700	88.179	0.100
682.800	103.593	0.100
682.900	111.559	0.100
683.000	80.646	0.100
683.100	92.377	0.099
683.200	78.384	0.100
683.300	83.738	0.099
683.400	95.339	0.100
683.500	94.306	0.099
683.600	112.214	0.100
683.700	97.242	0.100
683.800	68.791	0.099
683.900	75.980	0.099
684.000	82.045	0.100
684.100	90.101	0.100
684.200	69.316	0.100
684.300	93.553	0.100
684.400	103.397	0.100
684.500	98.406	0.100
684.600	85.304	0.100
684.700	121.359	0.100
684.800	89.258	0.100
684.900	58.537	0.099
685.000	98.707	0.099
685.100	95.148	0.100
685.200	115.276	0.100
685.300	83.976	0.100
685.400	72.083	0.100
685.500	90.177	0.100
685.600	100.679	0.100
685.700	78.161	0.100
685.800	78.664	0.100
685.900	70.470	0.099
686.000	66.452	0.099
686.100	113.657	0.100
686.200	104.063	0.100
686.300	96.438	0.100
686.400	88.264	0.100
686.500	109.852	0.100
686.600	90.047	0.099
686.700	91.363	0.100
686.800	98.302	0.100
686.900	103.248	0.099
687.000	90.965	0.100
687.100	94.470	0.100
687.200	91.952	0.100
687.300	78.864	0.100
687.400	81.581	0.100
687.500	81.571	0.100
687.600	77.551	0.100
687.700	90.118	0.100
687.800	107.865	0.100
687.900	84.055	0.100
688.000	94.709	0.100
688.100	79.987	0.100
688.200	68.203	0.100
688.300	89.774	0.100
688.400	74.763	0.100
688.500	84.909	0.100
688.600	121.653	0.100
688.700	95.659	0.100
688.800	81.399	0.100
688.900	68.062	0.100
689.000	67.709	0.100
689.100	96.721	0.100
689.200	98.060	0.099
689.300	91.156	0.100
689.400	96.762	0.100
689.500	56.723	0.099
689.600	94.001	0.099
689.700	95.264	0.100
689.800	107.343	0.100
689.900	85.843	0.099
690.000	80.084	0.099
690.100	105.060	0.100
690.200	95.615	0.100
690.300	71.374	0.100
690.400	94.836	0.100
690.500	101.865	0.100
690.600	111.460	0.100
690.700	95.605	0.099
690.800	63.383	0.100
690.900	77.806	0.100
691.000	69.539	0.100
691.100	61.776	0.100
691.200	91.174	0.100
691.300	65.456	0.100
691.400	61.954	0.100
691.500	81.320	0.100
691.600	74.901	0.100
691.700	25.307	0.099
691.800	26.807	0.099
691.900	23.947	0.100
692.000	39.709	0.100
692.100	24.676	0.100
692.200	33.557	0.100
692.300	29.085	0.100
692.400	20.515	0.100
692.500	-27.603	0.100
692.600	1.242	0.100
692.700	-1.183	0.100
692.800	-8.522	0.100
692.900	-4.201	0.100
693.000	-28.988	0.100
693.100	-19.873	0.100
693.200	-28.338	0.100
693.300	-21.565	0.100
693.400	-28.541	0.100
693.500	-34.458	0.100
693.600	-27.691	0.100
693.700	-35.858	0.099
693.800	-53.069	0.100
693.900	-49.945	0.100
694.000	-75.179	0.100
694.100	-32.106	0.100
694.200	-17.604	0.099
694.300	-50.876	0.100
694.400	-46.628	0.100
694.500	-41.323	0.100
694.600	-17.695	0.100
694.700	-69.360	0.100
694.800	-53.678	0.100
694.900	-66.368	0.100
695.000	-52.483	0.099
695.100	-30.794	0.100
695.200	-22.567	0.100
695.300	-45.624	0.100
695.400	-47.999	0.099
695.500	-60.610	0.100
695.600	-66.529	0.099
695.700	-68.415	0.100
695.800	-51.551	0.100
695.900	-56.799	0.100
696.000	-44.160	0.100
696.100	-50.746	0.100
696.200	-17.595	0.100
696.300	-42.868	0.100
696.400	-57.174	0.100
696.500	-68.297	0.100
696.600	-55.235	0.100
696.700	-52.877	0.100
696.800	-44.110	0.100
696.900	-48.416	0.100
697.000	-40.765	0.100
697.100	-53.569	0.100
697.200	-39.350	0.100
697.300	-21.936	0.100
697.400	-39.341	0.100
697.500	-55.596	0.100
697.600	-75.014	0.100
697.700	-65.665	0.100
697.800	-51.989	0.099
697.900	-47.397	0.100
698.000	-52.093	0.100
698.100	-59.504	0.100
698.200	-19.354	0.100
698.300	-35.621	0.100
698.400	-49.077	0.100
698.500	-51.941	0.100
698.600	-62.997	0.100
698.700	-12.917	0.100
698.800	-17.480	0.100
698.900	-43.082	0.100
699.000	-30.067	0.100
699.100	-36.487	0.100
699.200	-30.435	0.099
699.300	-39.806	0.100
699.400	-29.473	0.100
699.500	-40.878	0.099
699.600	-67.832	0.100
699.700	-57.176	0.100
699.800	-40.830	0.100
699.900	-27.900	0.100
700.000	-64.862	0.099
700.100	-47.576	0.100
700.200	-59.646	0.100
700.300	-45.270	0.100
700.400	3.806	0.099
700.500	-41.344	0.099
700.600	-18.766	0.100
700.700	-29.998	0.100
700.800	-41.438	0.100
700.900	-59.358	0.100
701.000	-30.747	0.100
701.100	-48.319	0.100
701.200	-27.809	0.100
701.300	-50.358	0.099
701.400	-45.413	0.100
701.500	-19.984	0.100
701.600	-44.514	0.100
701.700	-18.460	0.100
701.800	-26.961	0.100
701.900	-28.361	0.100
702.000	-4.270	0.100
702.100	-35.602	0.100
702.200	-18.006	0.100
702.300	-44.272	0.100
702.400	-29.156	0.100
702.500	-36.773	0.100
702.600	-20.737	0.100
702.700	-43.042	0.100
702.800	-18.688	0.099
702.900	-19.706	0.100
703.000	-34.541	0.100
703.100	-19.103	0.100
703.200	-15.621	0.100
703.300	-21.910	0.100
703.400	-54.285	0.099
703.500	-1.325	0.100
703.600	-27.201	0.100
703.700	-58.681	0.100
703.800	-44.435	0.100
703.900	-20.370	0.100
704.000	-9.013	0.100
704.100	-17.940	0.100
704.200	-16.189	0.100
704.300	-23.612	0.100
704.400	-12.990	0.100
704.500	-22.355	0.100
704.600	-47.012	0.100
704.700	-38.510	0.100
704.800	-63.606	0.100
704.900	-10.907	0.100
705.000	-29.107	0.100
705.100	-45.704	0.100
705.200	-26.653	0.100
705.300	7.889	0.100
705.400	-7.147	0.100
705.500	-24.820	0.100
705.600	-22.801	0.100
705.700	-42.331	0.100
705.800	-42.388	0.100
705.900	-38.509	0.100
706.000	-38.887	0.100
706.100	-31.418	0.100
706.200	-3.984	0.100
706.300	-49.320	0.100
706.400	-23.267	0.100
706.500	-0.058	0.100
706.600	-10.234	0.100
706.700	-29.341	0.100
706.800	-51.493	0.100
706.900	-46.778	0.100
707.000	-40.794	0.100
707.100	-38.292	0.100
707.200	-50.827	0.100
707.300	-27.125	0.100
707.400	-18.262	0.100
707.500	-21.036	0.100
707.600	-42.823	0.099
707.700	-35.463	0.100
707.800	-34.778	0.099
707.900	-21.529	0.100
708.000	-32.124	0.100
708.100	-1.459	0.100
708.200	-17.286	0.100
708.300	-30.105	0.100
708.400	-24.233	0.100
708.500	-30.901	0.100
708.600	-47.271	0.100
708.700	-28.620	0.100
708.800	-32.015	0.100
708.900	-25.520	0.100
709.000	-56.673	0.100
709.100	-42.653	0.100
709.200	-56.730	0.100
709.300	-43.100	0.100
709.400	-60.793	0.100
709.500	-39.697	0.100
709.600	-30.600	0.100
709.700	-33.906	0.100
709.800	-41.548	0.100
709.900	-38.260	0.100
710.000	-61.875	0.100
710.100	-43.188	0.100
710.200	-16.821	0.100
710.300	-15.960	0.100
710.400	-21.695	0.100
710.500	-24.135	0.100
710.600	-44.238	0.100
710.700	-46.307	0.100
710.800	-32.291	0.100
710.900	-34.071	0.100
711.000	-60.100	0.100
711.100	-37.492	0.100
711.200	-31.683	0.100
711.300	-70.368	0.100
711.400	-38.985	0.100
711.500	-29.785	0.100
711.600	-44.070	0.100
711.700	-46.373	0.100
711.800	-38.999	0.100
711.900	-39.203	0.099
712.000	-42.687	0.100
712.100	-21.938	0.100
712.200	-31.283	0.100
712.300	-44.835	0.100
712.400	-37.780	0.100
712.500	-21.716	0.100
712.600	-39.142	0.100
712.700	-71.075	0.100
712.800	-36.963	0.100
712.900	-35.144	0.100
713.000	-29.886	0.100
713.100	-18.446	0.100
713.200	-35.148	0.100
713.300	-46.121	0.100
713.400	-38.947	0.100
713.500	-44.164	0.100
713.600	-14.559	0.100
713.700	-52.786	0.100
713.800	-29.510	0.100
713.900	-37.135	0.100
714.000	-17.722	0.100
714.100	-56.614	0.100
714.200	-61.929	0.100
714.300	-65.912	0.100
714.400	-26.507	0.100
714.500	-38.156	0.100
714.600	-32.052	0.100
714.700	-9.190	0.100
714.800	-71.934	0.100
714.900	-54.807	0.100
715.000	-27.542	0.100
715.100	-35.310	0.099
715.200	-36.621	0.100
715.300	-44.744	0.100
715.400	-29.541	0.100
715.500	-24.482	0.100
715.600	-26.228	0.100
715.700	-52.316	0.100
715.800	-66.130	0.099
715.900	-66.279	0.100
716.000	-50.823	0.100
716.100	-46.199	0.100
716.200	-64.519	0.100
716.300	-28.203	0.100
716.400	-55.655	0.100
716.500	-41.990	0.100
716.600	-45.179	0.100
716.700	-42.603	0.100
716.800	-38.460	0.100
716.900	-51.554	0.100
717.000	-64.494	0.100
717.100	-58.963	0.100
717.200	-47.103	0.100
717.300	-24.035	0.100
717.400	-29.521	0.100
717.500	-31.109	0.100
717.600	-29.204	0.100
717.700	-36.957	0.100
717.800	-25.669	0.100
717.900	-58.651	0.100
718.000	-31.431	0.100
718.100	-63.060	0.100
718.200	-55.337	0.100
718.300	-60.010	0.100
718.400	-52.358	0.100
718.500	-52.991	0.100
718.600	-14.367	0.100
718.700	-42.384	0.100
718.800	-59.371	0.100
718.900	-65.811	0.100
719.000	-60.743	0.099
719.100	-36.666	0.100
719.200	-51.708	0.100
719.300	-45.978	0.100
719.400	-57.287	0.100
719.500	-55.704	0.100
719.600	-27.335	0.100
719.700	-46.176	0.100
719.800	-58.721	0.100
719.900	-66.059	0.100
720.000	-53.790	0.100
720.100	-33.429	0.100
720.200	-73.845	0.100
720.300	-42.411	0.100
720.400	-58.149	0.100
720.500	-50.162	0.100
720.600	-74.121	0.100
720.700	-68.693	0.100
720.800	-75.527	0.100
720.900	-52.979	0.099
721.000	-32.000	0.100
721.100	-54.119	0.100
721.200	-53.464	0.100
721.300	-33.517	0.100
721.400	-21.265	0.100
721.500	-45.278	0.100
721.600	-57.099	0.100
721.700	-34.396	0.100
721.800	-87.674	0.100
721.900	-62.446	0.100
722.000	-54.975	0.100
722.100	-55.620	0.100
722.200	-55.008	0.100
722.300	-49.888	0.100
722.400	-59.145	0.100
722.500	-50.327	0.100
722.600	-35.249	0.100
722.700	-46.023	0.100
722.800	-64.722	0.100
722.900	-42.641	0.100
723.000	-47.285	0.100
723.100	-50.572	0.100
723.200	-57.808	0.100
723.300	-51.288	0.100
723.400	-54.527	0.100
723.500	-42.792	0.100
723.600	-63.162	0.100
723.700	-39.505	0.100
723.800	-41.177	0.100
723.900	-36.979	0.100
724.000	-50.676	0.100
724.100	-23.348	0.100
724.200	-40.438	0.100
724.300	-56.100	0.100
724.400	-58.100	0.100
724.500	-77.490	0.100
724.600	-73.028	0.100
724.700	-57.059	0.100
724.800	-50.306	0.100
724.900	-46.939	0.100
725.000	-56.329	0.100
725.100	-45.947	0.100
725.200	-44.781	0.100
725.300	-56.268	0.100
725.400	-90.058	0.100
725.500	-50.239	0.100
725.600	-37.234	0.100
725.700	-50.154	0.100
725.800	-59.427	0.100
725.900	-48.734	0.100
726.000	-56.020	0.100
726.100	-54.761	0.100
726.200	-67.925	0.100
726.300	-34.776	0.100
726.400	-51.344	0.100
726.500	-40.524	0.100
726.600	-48.369	0.100
726.700	-77.074	0.100
726.800	-58.452	0.100
726.900	-59.476	0.100
727.000	-41.939	0.100
727.100	-89.941	0.100
727.200	-24.566	0.100
727.300	-65.685	0.100
727.400	-70.657	0.100
727.500	-42.706	0.100
727.600	-59.972	0.100
727.700	-39.810	0.100
727.800	-39.814	0.100
727.900	-48.784	0.100
728.000	-55.687	0.100
728.100	-78.454	0.100
728.200	-61.208	0.100
728.300	-45.230	0.100
728.400	-34.306	0.100
728.500	-43.720	0.100
728.600	-43.331	0.100
728.700	-61.704	0.100
728.800	-71.290	0.100
728.900	-54.653	0.100
729.000	-51.354	0.100
729.100	-60.548	0.100
729.200	-36.172	0.100
729.300	-63.017	0.100
729.400	-57.148	0.100
729.500	-41.321	0.100
729.600	-47.446	0.100
729.700	-46.077	0.100
729.800	-30.878	0.100
729.900	-49.938	0.100
730.000	-63.058	0.100
730.100	-36.163	0.100
730.200	-58.793	0.100
730.300	-19.242	0.100
730.400	-45.800	0.100
730.500	-52.198	0.100
730.600	-47.470	0.100
730.700	-58.713	0.100
730.800	-54.409	0.100
730.900	-58.671	0.100
731.000	-63.248	0.100
731.100	-70.596	0.100
731.200	-20.901	0.100
731.300	-48.755	0.100
731.400	-82.436	0.100
731.500	-54.766	0.100
731.600	-51.908	0.100
731.700	-45.394	0.100
731.800	-78.211	0.100
731.900	-53.136	0.100
732.000	-30.781	0.100
732.100	-23.149	0.100
732.200	-43.698	0.100
732.300	-49.365	0.100
732.400	-42.657	0.100
732.500	-43.800	0.100
732.600	-45.452	0.100
732.700	-33.667	0.100
732.800	-57.225	0.100
732.900	-38.098	0.100
733.000	-46.192	0.100
733.100	-58.448	0.100
733.200	-87.259	0.100
733.300	-66.473	0.100
733.400	-50.486	0.100
733.500	-70.474	0.100
733.600	-53.003	0.100
733.700	-69.500	0.100
733.800	-51.596	0.100
733.900	-48.388	0.100
734.000	-82.190	0.100
734.100	-47.390	0.100
734.200	-66.856	0.100
734.300	-44.529	0.100
734.400	-62.232	0.100
734.500	-47.015	0.100
734.600	-31.136	0.100
734.700	-45.428	0.100
734.800	-63.151	0.100
734.900	-65.168	0.100
735.000	-34.025	0.100
735.100	-44.679	0.100
735.200	-43.168	0.100
735.300	-32.628	0.100
735.400	-38.840	0.100
735.500	-37.967	0.100
735.600	-45.583	0.100
735.700	-35.325	0.100
735.800	-68.347	0.099
735.900	-56.982	0.100
736.000	-56.918	0.100
736.100	-66.365	0.100
736.200	-50.339	0.100
736.300	-67.916	0.100
736.400	-28.212	0.100
736.500	-56.986	0.100
736.600	-60.173	0.100
736.700	-72.202	0.100
736.800	-38.105	0.100
736.900	-51.512	0.100
737.000	-45.728	0.100
737.100	-38.489	0.100
737.200	-46.274	0.100
737.300	-44.684	0.100
737.400	-93.161	0.100
737.500	-46.299	0.100
737.600	-78.466	0.100
737.700	-50.649	0.100
737.800	-61.102	0.100
737.900	-47.316	0.100
738.000	-48.202	0.100
738.100	-29.307	0.100
738.200	-51.477	0.100
738.300	-47.133	0.100
738.400	-45.217	0.100
738.500	-60.743	0.099
738.600	-44.488	0.100
738.700	-70.572	0.099
738.800	-19.838	0.100
738.900	-47.512	0.100
739.000	-50.873	0.100
739.100	-42.061	0.100
739.200	-25.188	0.100
739.300	-74.318	0.100
739.400	-66.843	0.100
739.500	-58.310	0.100
739.600	-36.944	0.100
739.700	-53.166	0.100
739.800	-57.338	0.100
739.900	-53.642	0.100
740.000	-47.891	0.100
740.100	-62.416	0.100
740.200	-84.120	0.100
740.300	-56.726	0.100
740.400	-67.069	0.100
740.500	-43.489	0.100
740.600	-66.134	0.100
740.700	-63.342	0.100
740.800	-43.296	0.100
740.900	-49.534	0.100
741.000	-44.616	0.100
741.100	-55.228	0.100
741.200	-45.210	0.100
741.300	-49.631	0.100
741.400	-41.422	0.100
741.500	-50.659	0.100
741.600	-35.480	0.100
741.700	-33.472	0.100
741.800	-32.552	0.100
741.900	-55.580	0.100
742.000	-32.199	0.100
742.100	-75.771	0.100
742.200	-63.504	0.100
742.300	-92.114	0.100
742.400	-68.100	0.100
742.500	-32.505	0.100
742.600	-42.305	0.100
742.700	-61.543	0.099
742.800	-57.564	0.100
742.900	-62.918	0.099
743.000	-56.374	0.099
743.100	-40.967	0.100
743.200	-40.420	0.100
743.300	-53.732	0.100
743.400	-48.100	0.100
743.500	-52.698	0.100
743.600	-56.974	0.100
743.700	-38.547	0.100
743.800	-46.969	0.100
743.900	-21.076	0.100
744.000	-56.587	0.100
744.100	-38.950	0.100
744.200	-69.216	0.100
744.300	-49.061	0.100
744.400	-46.345	0.100
744.500	-43.789	0.099
744.600	-33.806	0.100
744.700	-57.134	0.100
744.800	-61.603	0.100
744.900	-55.927	0.100
745.000	-45.698	0.100
745.100	-63.764	0.100
745.200	-47.045	0.099
745.300	-55.630	0.100
745.400	-49.487	0.099
745.500	-46.884	0.100
745.600	-34.088	0.100
745.700	-42.618	0.100
745.800	-41.880	0.099
745.900	-49.650	0.100
746.000	-38.006	0.099
746.100	-51.648	0.100
746.200	-41.305	0.100
746.300	-35.604	0.100
746.400	-64.097	0.100
746.500	-47.455	0.100
746.600	-44.968	0.100
746.700	-42.313	0.100
746.800	-61.877	0.100
746.900	-51.647	0.099
747.000	-58.693	0.100
747.100	-62.707	0.100
747.200	-23.182	0.100
747.300	-52.664	0.100
747.400	-60.879	0.100
747.500	-42.269	0.100
747.600	-24.440	0.099
747.700	-40.083	0.100
747.800	-48.702	0.100
747.900	-30.162	0.100
748.000	-69.860	0.099
748.100	-32.091	0.100
748.200	-14.108	0.100
748.300	-70.325	0.100
748.400	-42.098	0.100
748.500	-55.661	0.100
748.600	-55.260	0.100
748.700	-59.941	0.100
748.800	-58.284	0.100
748.900	-54.266	0.100
749.000	-39.205	0.100
749.100	-41.532	0.100
749.200	-54.621	0.100
749.300	-57.104	0.100
749.400	-42.767	0.100
749.500	-42.180	0.100
749.600	-36.602	0.100
749.700	-39.736	0.100
749.800	-61.958	0.100
749.900	-56.879	0.099
750.000	-54.851	0.100
750.100	-60.057	0.100
750.200	-31.268	0.100
750.300	-66.167	0.099
750.400	-45.867	0.100
750.500	-47.130	0.100
750.600	-58.260	0.100
750.700	-38.812	0.100
750.800	-85.215	0.100
750.900	-36.676	0.100
751.000	-37.158	0.100
751.100	-53.843	0.100
751.200	-61.536	0.100
751.300	-27.810	0.100
751.400	-56.147	0.100
751.500	-64.745	0.100
751.600	-49.475	0.099
751.700	-54.336	0.100
751.800	-25.592	0.100
751.900	-26.105	0.100
752.000	-44.452	0.100
752.100	-51.013	0.100
752.200	-58.088	0.100
752.300	-78.655	0.099
752.400	-24.726	0.100
752.500	-35.020	0.100
752.600	-34.919	0.100
752.700	-22.634	0.099
752.800	-37.718	0.100
752.900	-66.536	0.099
753.000	-62.827	0.100
753.100	-41.144	0.100
753.200	-64.177	0.100
753.300	-38.053	0.100
753.400	-39.190	0.100
753.500	-58.364	0.100
753.600	-36.669	0.100
753.700	-58.927	0.100
753.800	-45.864	0.099
753.900	-41.202	0.100
754.000	-63.340	0.099
754.100	-36.159	0.100
754.200	-15.555	0.100
754.300	-29.472	0.100
754.400	-29.617	0.100
754.500	-57.343	0.099
754.600	-65.545	0.100
754.700	-34.858	0.100
754.800	-67.171	0.100
754.900	-36.018	0.100
755.000	-20.222	0.100
755.100	-36.506	0.100
755.200	-31.326	0.100
755.300	-71.706	0.100
755.400	-50.734	0.100
755.500	-43.488	0.100
755.600	-49.875	0.099
755.700	-55.615	0.100
755.800	-27.846	0.099
755.900	-38.955	0.100
756.000	-69.065	0.100
756.100	-47.686	0.100
756.200	-66.717	0.100
756.300	-56.532	0.100
756.400	-31.524	0.100
756.500	-30.122	0.100
756.600	-44.275	0.100
756.700	-76.644	0.100
756.800	-52.153	0.100
756.900	-34.492	0.099
757.000	-22.807	0.100
757.100	-21.733	0.100
757.200	-26.719	0.100
757.300	-37.703	0.100
757.400	-59.625	0.100
757.500	-50.259	0.100
757.600	-61.639	0.100
757.700	-52.952	0.100
757.800	-49.516	0.099
757.900	-49.341	0.100
758.000	-42.653	0.100
758.100	-56.344	0.100
758.200	-59.567	0.100
758.300	-33.095	0.100
758.400	-70.327	0.100
758.500	-34.142	0.100
758.600	-43.304	0.100
758.700	-49.981	0.100
758.800	-42.627	0.100
758.900	-33.402	0.100
759.000	-29.949	0.100
759.100	-58.782	0.100
759.200	-61.504	0.100
759.300	-37.747	0.100
759.400	-29.938	0.100
759.500	-26.195	0.100
759.600	-61.788	0.100
759.700	-51.698	0.100
759.800	-27.861	0.100
759.900	-47.886	0.100
760.000	-29.522	0.100
760.100	-55.785	0.100
760.200	-21.766	0.100
760.300	-61.812	0.100
760.400	-41.037	0.100
760.500	-47.506	0.100
760.600	-51.112	0.100
760.700	-36.951	0.100
760.800	-35.289	0.100
760.900	-44.179	0.100
761.000	-58.565	0.100
761.100	-24.195	0.100
761.200	-28.696	0.100
761.300	-52.588	0.100
761.400	-69.288	0.100
761.500	-31.778	0.100
761.600	-56.493	0.100
761.700	-46.792	0.100
761.800	-59.514	0.100
761.900	-48.851	0.100
762.000	-19.940	0.100
762.100	-49.357	0.100
762.200	-32.677	0.100
762.300	-64.293	0.100
762.400	-35.206	0.100
762.500	-42.949	0.100
762.600	-39.912	0.100
762.700	-29.812	0.100
762.800	-41.151	0.100
762.900	-49.832	0.100
763.000	-56.975	0.100
763.100	-47.853	0.100
763.200	-53.685	0.100
763.300	-41.654	0.100
763.400	-39.414	0.100
763.500	-43.451	0.100
763.600	-53.294	0.100
763.700	-19.643	0.100
763.800	-48.934	0.100
763.900	-51.849	0.100
764.000	-55.643	0.100
764.100	-29.843	0.100
764.200	-45.341	0.100
764.300	-29.034	0.100
764.400	-52.696	0.100
764.500	-53.139	0.100
764.600	-43.807	0.100
764.700	-43.054	0.100
764.800	-33.818	0.099
764.900	-19.392	0.100
765.000	-47.143	0.099
765.100	-42.758	0.100
765.200	-55.577	0.100
765.300	-60.578	0.100
765.400	-46.243	0.100
765.500	-39.494	0.100
765.600	-47.507	0.100
765.700	-20.031	0.099
765.800	-50.266	0.100
765.900	-41.574	0.099
766.000	-46.696	0.100
766.100	-49.139	0.099
766.200	-49.805	0.100
766.300	-35.252	0.100
766.400	-61.819	0.100
766.500	-31.549	0.100
766.600	-54.616	0.100
766.700	-38.937	0.100
766.800	-52.899	0.100
766.900	-38.728	0.100
767.000	-41.280	0.100
767.100	-62.830	0.100
767.200	-33.719	0.099
767.300	-26.338	0.100
767.400	-25.381	0.100
767.500	-51.617	0.100
767.600	-28.289	0.100
767.700	-34.845	0.100
767.800	-56.123	0.100
767.900	-63.942	0.100
768.000	-32.142	0.100
768.100	-18.364	0.100
768.200	-32.171	0.100
768.300	-49.892	0.100
768.400	-54.767	0.100
768.500	-49.879	0.099
768.600	-44.533	0.100
768.700	-24.128	0.100
768.800	-51.667	0.100
768.900	-64.761	0.099
769.000	-30.100	0.100
769.100	-44.836	0.100
769.200	-31.376	0.099
769.300	-47.827	0.099
769.400	-37.271	0.100
769.500	-52.748	0.100
769.600	-46.314	0.100
769.700	-39.894	0.100
769.800	-34.213	0.099
769.900	-30.473	0.100
770.000	-57.664	0.100
770.100	-30.246	0.100
770.200	-32.931	0.099
770.300	-21.581	0.100
770.400	-51.300	0.100
770.500	-34.891	0.100
770.600	-6.112	0.100
770.700	-49.610	0.100
770.800	-18.951	0.100
770.900	-47.287	0.100
771.000	-53.063	0.100
771.100	-40.109	0.100
771.200	-59.340	0.100
771.300	-38.695	0.099
771.400	-42.406	0.100
771.500	-17.448	0.100
771.600	-33.765	0.100
771.700	-31.022	0.100
771.800	-50.662	0.100
771.900	-29.333	0.100
772.000	-68.396	0.100
772.100	-45.718	0.100
772.200	-35.284	0.100
772.300	-22.438	0.100
772.400	-50.067	0.100
772.500	-66.238	0.099
772.600	-44.077	0.100
772.700	-45.912	0.100
772.800	-75.120	0.100
772.900	-47.612	0.100
773.000	-29.393	0.100
773.100	-77.223	0.100
773.200	-6.686	0.100
773.300	-27.812	0.100
773.400	-24.993	0.100
773.500	-32.666	0.100
773.600	-50.649	0.100
773.700	-36.818	0.100
773.800	-30.488	0.100
773.900	-52.818	0.100
774.000	-46.733	0.100
774.100	-43.436	0.100
774.200	-32.835	0.099
774.300	-15.556	0.100
774.400	-45.494	0.100
774.500	-55.543	0.099
774.600	-37.815	0.100
774.700	-37.324	0.100
774.800	-8.893	0.100
774.900	-39.089	0.100
775.000	-30.673	0.100
775.100	-45.111	0.099
775.200	-53.258	0.100
775.300	-34.798	0.100
775.400	-61.799	0.100
775.500	-32.973	0.100
775.600	-17.348	0.100
775.700	-58.515	0.100
775.800	-35.093	0.100
775.900	-27.833	0.100
776.000	-63.876	0.100
776.100	-35.888	0.100
776.200	-30.315	0.100
776.300	-47.002	0.100
776.400	-37.838	0.100
776.500	-45.965	0.100
776.600	-45.402	0.100
776.700	-50.661	0.100
776.800	-59.380	0.100
776.900	-46.163	0.100
777.000	-40.972	0.100
777.100	-30.233	0.100
777.200	-40.763	0.100
777.300	-46.296	0.100
777.400	-31.985	0.100
777.500	-32.938	0.100
777.600	-31.401	0.100
777.700	-48.037	0.100
777.800	-78.746	0.100
777.900	-42.801	0.100
778.000	-33.301	0.100
778.100	-35.898	0.100
778.200	-33.368	0.100
778.300	-34.680	0.100
778.400	-40.532	0.100
778.500	-39.286	0.100
778.600	-50.144	0.100
778.700	-51.150	0.100
778.800	-26.455	0.100
778.900	-47.945	0.100
779.000	-41.180	0.100
779.100	-30.428	0.100
779.200	-19.319	0.100
779.300	-61.759	0.100
779.400	-49.995	0.100
779.500	-26.904	0.099
779.600	-12.605	0.100
779.700	-54.933	0.100
779.800	-27.550	0.100
779.900	-45.337	0.100
780.000	-44.542	0.100
780.100	-47.102	0.100
780.200	-53.556	0.100
780.300	-21.941	0.100
780.400	-26.353	0.100
780.500	-43.568	0.100
780.600	-48.250	0.100
780.700	-53.027	0.100
780.800	-25.593	0.100
780.900	-54.761	0.100
781.000	-27.227	0.100
781.100	-36.967	0.100
781.200	-12.207	0.100
781.300	-29.623	0.100
781.400	-28.265	0.100
781.500	-10.819	0.100
781.600	2.248	0.100
781.700	-0.626	0.100
781.800	-7.560	0.100
781.900	-13.117	0.100
782.000	20.233	0.100
782.100	28.627	0.100
782.200	20.537	0.100
782.300	38.438	0.100
782.400	50.340	0.100
782.500	33.425	0.100
782.600	7.215	0.100
782.700	-8.953	0.100
782.800	19.061	0.100
782.900	23.522	0.100
783.000	28.788	0.100
783.100	51.959	0.100
783.200	47.624	0.100
783.300	53.306	0.100
783.400	30.306	0.100
783.500	26.006	0.100
783.600	22.205	0.100
783.700	60.206	0.100
783.800	54.727	0.100
783.900	53.077	0.100
784.000	35.795	0.100
784.100	36.679	0.100
784.200	21.782	0.100
784.300	50.886	0.100
784.400	64.356	0.100
784.500	46.414	0.100
784.600	32.600	0.100
784.700	28.147	0.100
784.800	42.261	0.100
784.900	18.350	0.100
785.000	41.582	0.100
785.100	59.950	0.100
785.200	42.359	0.100
785.300	39.873	0.100
785.400	26.117	0.100
785.500	48.221	0.100
785.600	32.908	0.100
785.700	41.912	0.100
785.800	33.529	0.100
785.900	23.162	0.100
786.000	55.769	0.100
786.100	29.067	0.100
786.200	31.280	0.100
786.300	37.780	0.100
786.400	36.641	0.100
786.500	30.202	0.100
786.600	21.062	0.100
786.700	36.289	0.100
786.800	31.829	0.100
786.900	29.790	0.100
787.000	55.376	0.100
787.100	42.422	0.100
787.200	49.807	0.100
787.300	25.420	0.100
787.400	-6.056	0.100
787.500	17.275	0.100
787.600	43.889	0.100
787.700	21.391	0.100
787.800	46.309	0.100
787.900	27.886	0.100
788.000	42.450	0.100
788.100	43.709	0.100
788.200	42.505	0.100
788.300	34.395	0.100
788.400	30.449	0.100
788.500	40.485	0.100
788.600	39.036	0.100
788.700	20.361	0.100
788.800	51.525	0.100
788.900	33.635	0.100
789.000	39.252	0.100
789.100	36.878	0.100
789.200	35.129	0.100
789.300	28.852	0.100
789.400	16.357	0.100
789.500	54.377	0.100
789.600	5.532	0.100
789.700	48.110	0.100
789.800	67.058	0.100
789.900	49.108	0.100
790.000	-2.674	0.100
790.100	28.215	0.100
790.200	54.185	0.100
790.300	80.295	0.100
790.400	60.004	0.100
790.500	76.526	0.100
790.600	50.931	0.100
790.700	42.059	0.100
790.800	60.592	0.100
790.900	72.363	0.100
791.000	54.136	0.100
791.100	60.437	0.100
791.200	51.106	0.100
791.300	69.898	0.100
791.400	64.795	0.100
791.500	67.487	0.100
791.600	73.154	0.100
791.700	31.000	0.100
791.800	75.505	0.100
791.900	35.489	0.099
792.000	80.729	0.100
792.100	74.757	0.100
792.200	108.904	0.100
792.300	80.695	0.100
792.400	69.883	0.100
792.500	56.630	0.100
792.600	50.058	0.100
792.700	69.722	0.100
792.800	76.970	0.100
792.900	73.093	0.100
793.000	77.174	0.100
793.100	65.450	0.100
793.200	76.635	0.100
793.300	79.427	0.100
793.400	86.338	0.100
793.500	97.103	0.100
793.600	76.278	0.100
793.700	93.680	0.100
793.800	68.982	0.100
793.900	101.973	0.100
794.000	83.637	0.100
794.100	99.816	0.100
794.200	82.899	0.100
794.300	87.815	0.100
794.400	81.601	0.100
794.500	86.769	0.100
794.600	116.713	0.100
794.700	111.266	0.100
794.800	84.558	0.100
794.900	93.383	0.100
795.000	89.458	0.100
795.100	105.412	0.100
795.200	100.144	0.100
795.300	109.388	0.100
795.400	131.227	0.100
795.500	92.731	0.100
795.600	116.800	0.100
795.700	132.547	0.100
795.800	100.690	0.100
795.900	121.210	0.100
796.000	112.878	0.100
796.100	123.535	0.100
796.200	130.041	0.100
796.300	125.780	0.100
796.400	119.188	0.100
796.500	107.130	0.100
796.600	133.855	0.100
796.700	114.211	0.100
796.800	96.267	0.100
796.900	146.913	0.100
797.000	137.582	0.100
797.100	130.742	0.100
797.200	117.129	0.100
797.300	114.666	0.100
797.400	136.402	0.100
797.500	120.581	0.100
797.600	127.493	0.100
797.700	156.717	0.100
797.800	137.814	0.100
797.900	132.079	0.100
798.000	117.642	0.100
798.100	130.872	0.100
798.200	159.297	0.100
798.300	144.475	0.100
798.400	86.650	0.100
798.500	117.228	0.100
798.600	157.552	0.100
798.700	129.431	0.100
798.800	108.964	0.100
798.900	114.621	0.100
799.000	130.823	0.100
799.100	112.090	0.100
799.200	148.607	0.100
799.300	159.728	0.100
799.400	135.734	0.100
799.500	148.443	0.100
799.600	130.027	0.100
799.700	133.735	0.100
799.800	141.762	0.100
799.900	142.069	0.100
800.000	120.415	0.100
