time /s	I /nA	E /V
0.100	-15.246	0.100
0.200	-34.267	0.100
0.300	-22.462	0.100
0.400	6.749	0.100
0.500	-3.990	0.100
0.600	-2.665	0.100
0.700	-13.859	0.100
0.800	-20.128	0.100
0.900	7.966	0.100
1.000	-18.079	0.100
1.100	-10.036	0.100
1.200	-26.051	0.100
1.300	-14.824	0.100
1.400	-13.588	0.100
1.500	-35.412	0.100
1.600	-7.200	0.100
1.700	-26.105	0.100
1.800	-3.799	0.100
1.900	-13.308	0.100
2.000	-27.695	0.100
2.100	-28.432	0.100
2.200	2.031	0.100
2.300	-6.487	0.100
2.400	-7.119	0.100
2.500	0.652	0.100
2.600	-16.909	0.100
2.700	-18.593	0.100
2.800	-9.774	0.100
2.900	-13.208	0.100
3.000	-23.969	0.100
3.100	-12.899	0.100
3.200	-4.343	0.100
3.300	-15.147	0.100
3.400	1.633	0.100
3.500	-22.652	0.100
3.600	-22.229	0.100
3.700	-16.091	0.100
3.800	-30.030	0.100
3.900	-36.516	0.100
4.000	-24.043	0.100
4.100	23.581	0.100
4.200	-37.793	0.100
4.300	-13.531	0.100
4.400	-18.304	0.100
4.500	1.615	0.100
4.600	-37.240	0.100
4.700	-33.638	0.100
4.800	-14.885	0.100
4.900	-4.500	0.100
5.000	-15.933	0.100
5.100	0.365	0.100
5.200	-12.630	0.100
5.300	-20.864	0.100
5.400	-10.365	0.100
5.500	-22.630	0.100
5.600	-13.418	0.100
5.700	-12.910	0.100
5.800	-10.586	0.100
5.900	-6.887	0.100
6.000	-20.821	0.100
6.100	-9.891	0.100
6.200	0.868	0.100
6.300	-24.102	0.100
6.400	-9.818	0.100
6.500	-5.278	0.100
6.600	-37.639	0.100
6.700	-4.680	0.100
6.800	-4.909	0.100
6.900	-20.990	0.100
7.000	1.634	0.100
7.100	0.583	0.100
7.200	-19.199	0.100
7.300	-4.769	0.100
7.400	-18.256	0.100
7.500	-9.206	0.100
7.600	-37.794	0.100
7.700	-7.695	0.100
7.800	2.461	0.100
7.900	-12.513	0.100
8.000	-17.197	0.100
8.100	-23.266	0.100
8.200	-6.298	0.100
8.300	-13.484	0.100
8.400	-32.992	0.100
8.500	-31.725	0.100
8.600	-15.462	0.100
8.700	-14.349	0.100
8.800	-10.939	0.100
8.900	-20.472	0.100
9.000	2.940	0.100
9.100	-16.942	0.100
9.200	-3.171	0.100
9.300	-18.942	0.100
9.400	-20.864	0.100
9.500	-16.999	0.100
9.600	-14.401	0.100
9.700	-7.583	0.100
9.800	-13.658	0.100
9.900	-18.687	0.100
10.000	-4.879	0.100
10.100	-10.988	0.100
10.200	-4.400	0.100
10.300	-32.105	0.100
10.400	-13.972	0.100
10.500	-12.287	0.100
10.600	8.252	0.100
10.700	3.261	0.100
10.800	-3.008	0.100
10.900	-46.300	0.100
11.000	6.101	0.100
11.100	-13.325	0.100
11.200	-31.780	0.100
11.300	-34.373	0.100
11.400	-21.469	0.100
11.500	-17.011	0.100
11.600	13.326	0.100
11.700	-15.366	0.100
11.800	-27.364	0.100
11.900	-21.656	0.100
12.000	-16.199	0.100
12.100	5.687	0.100
12.200	-23.305	0.100
12.300	-16.980	0.100
12.400	1.814	0.100
12.500	-44.107	0.100
12.600	-15.746	0.100
12.700	1.307	0.100
12.800	-20.542	0.100
12.900	-0.693	0.100
13.000	2.671	0.100
13.100	-2.321	0.100
13.200	-13.691	0.100
13.300	-3.856	0.100
13.400	-22.278	0.100
13.500	-26.233	0.100
13.600	-11.395	0.100
13.700	-9.386	0.100
13.800	-1.827	0.100
13.900	2.400	0.100
14.000	-14.282	0.100
14.100	-17.374	0.100
14.200	-44.820	0.100
14.300	-30.187	0.100
14.400	15.059	0.100
14.500	20.634	0.100
14.600	-26.965	0.100
14.700	-21.946	0.100
14.800	-21.371	0.100
14.900	-25.315	0.100
15.000	7.548	0.100
15.100	-14.414	0.100
15.200	-23.866	0.100
15.300	-19.338	0.100
15.400	5.439	0.100
15.500	-1.055	0.100
15.600	-10.895	0.100
15.700	-10.783	0.100
15.800	-18.540	0.100
15.900	-27.959	0.100
16.000	-4.206	0.100
16.100	-5.189	0.100
16.200	-19.243	0.100
16.300	9.140	0.100
16.400	-3.771	0.100
16.500	-18.481	0.100
16.600	-7.868	0.100
16.700	-17.211	0.100
16.800	-30.182	0.100
16.900	-7.125	0.100
17.000	6.862	0.100
17.100	-26.123	0.100
17.200	-0.117	0.100
17.300	-24.052	0.100
17.400	-13.283	0.100
17.500	1.468	0.100
17.600	6.889	0.100
17.700	-0.073	0.100
17.800	-5.852	0.100
17.900	-21.206	0.100
18.000	-30.223	0.100
18.100	-7.496	0.100
18.200	-1.660	0.100
18.300	-12.571	0.100
18.400	-15.302	0.100
18.500	3.790	0.100
18.600	-6.163	0.100
18.700	-4.257	0.100
18.800	-25.971	0.100
18.900	-24.673	0.100
19.000	-11.555	0.100
19.100	-41.010	0.100
19.200	0.973	0.100
19.300	1.457	0.100
19.400	-8.015	0.100
19.500	-17.444	0.100
19.600	1.643	0.100
19.700	-25.371	0.100
19.800	-8.990	0.100
19.900	-16.728	0.100
20.000	-9.541	0.100
20.100	-40.915	0.100
20.200	-7.213	0.100
20.300	-15.246	0.100
20.400	-6.631	0.100
20.500	1.733	0.100
20.600	-24.950	0.100
20.700	-9.251	0.100
20.800	-4.242	0.100
20.900	-26.260	0.100
21.000	-8.047	0.100
21.100	-16.414	0.100
21.200	-3.948	0.100
21.300	4.395	0.100
21.400	-24.372	0.100
21.500	-17.170	0.100
21.600	-22.914	0.100
21.700	-14.611	0.100
21.800	-14.515	0.100
21.900	-7.114	0.100
22.000	-17.716	0.100
22.100	-15.920	0.100
22.200	-32.729	0.100
22.300	-25.120	0.100
22.400	-12.658	0.100
22.500	-6.405	0.100
22.600	-13.048	0.100
22.700	-1.208	0.100
22.800	-15.042	0.100
22.900	-25.654	0.100
23.000	-18.423	0.100
23.100	-13.583	0.100
23.200	-6.055	0.100
23.300	-20.758	0.100
23.400	-11.383	0.100
23.500	-3.410	0.100
23.600	-17.122	0.100
23.700	-9.525	0.100
23.800	-0.395	0.100
23.900	-20.817	0.100
24.000	-10.265	0.100
24.100	-1.126	0.100
24.200	-7.370	0.100
24.300	-32.814	0.100
24.400	-31.195	0.100
24.500	-2.275	0.100
24.600	-2.252	0.100
24.700	-8.945	0.100
24.800	-20.087	0.100
24.900	-7.082	0.100
25.000	-24.056	0.100
25.100	-19.239	0.100
25.200	-21.656	0.100
25.300	10.526	0.100
25.400	-7.570	0.100
25.500	3.996	0.100
25.600	-0.352	0.100
25.700	-24.752	0.100
25.800	2.734	0.100
25.900	-12.166	0.100
26.000	-26.346	0.100
26.100	10.664	0.100
26.200	-4.476	0.100
26.300	-24.525	0.100
26.400	12.601	0.100
26.500	-22.609	0.100
26.600	13.554	0.100
26.700	-13.769	0.100
26.800	-21.710	0.100
26.900	-9.778	0.100
27.000	2.323	0.100
27.100	-9.723	0.100
27.200	-39.831	0.100
27.300	-40.706	0.100
27.400	-25.463	0.100
27.500	19.566	0.100
27.600	-14.948	0.100
27.700	-22.743	0.100
27.800	0.486	0.100
27.900	-14.071	0.100
28.000	-19.899	0.100
28.100	31.907	0.100
28.200	-19.564	0.100
28.300	-7.042	0.100
28.400	-2.634	0.100
28.500	-25.477	0.100
28.600	-16.441	0.100
28.700	-5.944	0.100
28.800	-9.510	0.100
28.900	-16.666	0.100
29.000	-11.100	0.100
29.100	15.909	0.100
29.200	-40.744	0.100
29.300	1.693	0.100
29.400	7.085	0.100
29.500	-35.537	0.100
29.600	-5.739	0.100
29.700	-14.638	0.100
29.800	-10.557	0.100
29.900	-19.614	0.100
30.000	-24.439	0.100
30.100	-2.619	0.100
30.200	10.360	0.100
30.300	-15.529	0.100
30.400	-5.491	0.100
30.500	9.918	0.100
30.600	-10.629	0.100
30.700	9.521	0.100
30.800	-4.653	0.100
30.900	1.740	0.100
31.000	-4.475	0.100
31.100	-1.578	0.100
31.200	5.587	0.100
31.300	22.258	0.100
31.400	30.592	0.100
31.500	37.195	0.100
31.600	3.098	0.100
31.700	-2.769	0.100
31.800	20.118	0.100
31.900	31.942	0.100
32.000	30.828	0.100
32.100	54.769	0.100
32.200	18.209	0.100
32.300	18.187	0.100
32.400	29.187	0.100
32.500	29.857	0.100
32.600	23.526	0.100
32.700	34.215	0.100
32.800	48.703	0.100
32.900	42.009	0.100
33.000	50.619	0.100
33.100	45.671	0.100
33.200	37.205	0.100
33.300	44.516	0.100
33.400	72.271	0.100
33.500	67.040	0.100
33.600	35.627	0.100
33.700	79.614	0.100
33.800	45.205	0.100
33.900	66.672	0.100
34.000	71.590	0.100
34.100	63.248	0.100
34.200	64.394	0.100
34.300	85.845	0.100
34.400	60.048	0.100
34.500	66.137	0.100
34.600	71.692	0.100
34.700	56.024	0.100
34.800	54.825	0.100
34.900	95.556	0.100
35.000	84.926	0.100
35.100	73.622	0.100
35.200	92.318	0.100
35.300	81.611	0.100
35.400	82.006	0.100
35.500	92.474	0.100
35.600	84.077	0.100
35.700	69.516	0.100
35.800	68.093	0.100
35.900	95.559	0.100
36.000	72.720	0.100
36.100	73.571	0.100
36.200	71.452	0.100
36.300	85.614	0.100
36.400	110.924	0.100
36.500	68.347	0.100
36.600	112.253	0.100
36.700	119.735	0.100
36.800	85.529	0.100
36.900	88.825	0.100
37.000	86.476	0.100
37.100	105.021	0.100
37.200	113.052	0.100
37.300	101.938	0.100
37.400	95.611	0.100
37.500	94.587	0.100
37.600	85.500	0.100
37.700	61.976	0.100
37.800	120.189	0.100
37.900	133.256	0.100
38.000	83.774	0.100
38.100	109.015	0.100
38.200	81.473	0.100
38.300	103.232	0.100
38.400	118.070	0.100
38.500	108.931	0.100
38.600	108.325	0.100
38.700	113.238	0.100
38.800	86.059	0.100
38.900	96.077	0.100
39.000	107.767	0.100
39.100	95.653	0.100
39.200	87.943	0.100
39.300	101.013	0.100
39.400	96.846	0.100
39.500	90.959	0.100
39.600	101.435	0.100
39.700	94.737	0.100
39.800	115.468	0.100
39.900	87.128	0.100
40.000	80.368	0.100
40.100	88.232	0.100
40.200	110.810	0.100
40.300	91.591	0.100
40.400	110.769	0.100
40.500	85.911	0.100
40.600	74.891	0.100
40.700	108.584	0.100
40.800	104.759	0.100
40.900	99.707	0.100
41.000	83.179	0.100
41.100	83.126	0.100
41.200	92.951	0.100
41.300	97.221	0.100
41.400	109.260	0.100
41.500	81.517	0.100
41.600	79.763	0.100
41.700	91.286	0.100
41.800	77.493	0.100
41.900	84.285	0.100
42.000	83.657	0.100
42.100	64.018	0.100
42.200	89.033	0.100
42.300	73.114	0.100
42.400	100.245	0.100
42.500	73.154	0.100
42.600	78.746	0.100
42.700	75.809	0.100
42.800	80.260	0.100
42.900	70.744	0.100
43.000	79.559	0.100
43.100	78.909	0.100
43.200	56.105	0.100
43.300	84.461	0.100
43.400	84.352	0.100
43.500	79.869	0.100
43.600	60.950	0.100
43.700	64.240	0.100
43.800	73.219	0.100
43.900	58.990	0.100
44.000	74.233	0.100
44.100	92.780	0.100
44.200	82.317	0.100
44.300	59.902	0.100
44.400	54.560	0.100
44.500	50.535	0.100
44.600	74.396	0.100
44.700	69.572	0.100
44.800	47.816	0.100
44.900	69.171	0.100
45.000	77.631	0.100
45.100	58.933	0.100
45.200	61.881	0.100
45.300	70.435	0.100
45.400	71.208	0.100
45.500	62.787	0.100
45.600	63.187	0.100
45.700	58.305	0.100
45.800	68.509	0.100
45.900	72.801	0.100
46.000	64.204	0.100
46.100	50.275	0.100
46.200	48.295	0.100
46.300	53.460	0.100
46.400	60.390	0.100
46.500	61.704	0.100
46.600	64.972	0.100
46.700	52.201	0.100
46.800	43.545	0.100
46.900	61.469	0.100
47.000	31.287	0.100
47.100	53.506	0.100
47.200	70.496	0.100
47.300	60.441	0.100
47.400	38.413	0.100
47.500	64.648	0.100
47.600	44.929	0.100
47.700	44.407	0.100
47.800	50.305	0.100
47.900	53.990	0.100
48.000	58.321	0.100
48.100	41.298	0.100
48.200	41.738	0.100
48.300	41.729	0.100
48.400	65.100	0.100
48.500	40.747	0.100
48.600	70.602	0.100
48.700	72.019	0.100
48.800	41.150	0.100
48.900	44.220	0.100
49.000	60.635	0.100
49.100	48.680	0.100
49.200	69.582	0.100
49.300	37.745	0.100
49.400	67.317	0.100
49.500	42.210	0.100
49.600	56.738	0.100
49.700	29.762	0.100
49.800	56.698	0.100
49.900	46.536	0.100
50.000	61.602	0.100
50.100	50.984	0.100
50.200	58.336	0.100
50.300	64.834	0.100
50.400	44.301	0.100
50.500	46.371	0.100
50.600	70.013	0.100
50.700	58.513	0.100
50.800	34.458	0.100
50.900	55.514	0.100
51.000	66.372	0.100
51.100	64.094	0.100
51.200	40.446	0.100
51.300	47.986	0.100
51.400	32.963	0.100
51.500	70.641	0.100
51.600	49.776	0.100
51.700	56.271	0.100
51.800	45.876	0.100
51.900	71.858	0.100
52.000	39.673	0.100
52.100	31.234	0.100
52.200	82.974	0.100
52.300	59.290	0.100
52.400	42.935	0.100
52.500	32.974	0.100
52.600	66.124	0.100
52.700	77.962	0.100
52.800	51.810	0.100
52.900	52.237	0.100
53.000	52.852	0.100
53.100	52.914	0.100
53.200	41.430	0.100
53.300	76.326	0.100
53.400	41.081	0.100
53.500	60.285	0.100
53.600	78.498	0.100
53.700	30.795	0.100
53.800	61.455	0.100
53.900	62.180	0.100
54.000	60.127	0.100
54.100	66.920	0.100
54.200	35.968	0.100
54.300	65.801	0.100
54.400	53.086	0.100
54.500	36.375	0.100
54.600	52.702	0.100
54.700	52.276	0.100
54.800	71.950	0.100
54.900	52.363	0.100
55.000	57.918	0.100
55.100	68.776	0.100
55.200	41.413	0.100
55.300	57.860	0.100
55.400	64.376	0.100
55.500	63.370	0.100
55.600	65.918	0.100
55.700	53.639	0.100
55.800	42.315	0.100
55.900	80.184	0.100
56.000	63.709	0.100
56.100	66.920	0.100
56.200	46.659	0.100
56.300	36.711	0.100
56.400	60.808	0.100
56.500	54.927	0.100
56.600	75.933	0.100
56.700	53.560	0.100
56.800	67.417	0.100
56.900	63.510	0.100
57.000	61.604	0.100
57.100	67.381	0.100
57.200	54.918	0.100
57.300	53.747	0.100
57.400	59.397	0.100
57.500	47.272	0.100
57.600	72.741	0.100
57.700	70.300	0.100
57.800	67.188	0.100
57.900	63.495	0.100
58.000	56.253	0.100
58.100	73.222	0.100
58.200	56.475	0.100
58.300	56.457	0.100
58.400	27.192	0.100
58.500	50.537	0.100
58.600	79.778	0.100
58.700	50.169	0.100
58.800	68.958	0.100
58.900	65.826	0.100
59.000	59.971	0.100
59.100	57.593	0.100
59.200	63.543	0.100
59.300	62.478	0.100
59.400	62.467	0.100
59.500	50.357	0.100
59.600	66.947	0.100
59.700	75.763	0.100
59.800	78.601	0.100
59.900	56.538	0.100
60.000	62.906	0.100
60.100	68.733	0.100
60.200	49.276	0.100
60.300	68.622	0.100
60.400	68.584	0.100
60.500	60.287	0.100
60.600	64.447	0.100
60.700	72.131	0.100
60.800	62.890	0.100
60.900	51.037	0.100
61.000	38.720	0.100
61.100	65.198	0.100
61.200	74.321	0.100
61.300	69.555	0.100
61.400	70.596	0.100
61.500	83.046	0.100
61.600	70.801	0.100
61.700	71.550	0.100
61.800	66.872	0.100
61.900	40.000	0.100
62.000	88.552	0.100
62.100	38.576	0.100
62.200	61.537	0.100
62.300	63.437	0.100
62.400	125.124	0.100
62.500	64.966	0.100
62.600	58.950	0.100
62.700	76.957	0.100
62.800	77.976	0.100
62.900	66.584	0.100
63.000	84.694	0.100
63.100	76.800	0.100
63.200	71.252	0.100
63.300	50.328	0.100
63.400	63.413	0.100
63.500	76.972	0.100
63.600	70.451	0.100
63.700	81.932	0.100
63.800	70.107	0.100
63.900	51.612	0.100
64.000	60.372	0.100
64.100	78.053	0.100
64.200	75.977	0.100
64.300	57.593	0.100
64.400	59.538	0.100
64.500	91.451	0.100
64.600	73.984	0.100
64.700	78.027	0.100
64.800	69.567	0.100
64.900	62.268	0.100
65.000	83.797	0.100
65.100	71.790	0.100
65.200	50.552	0.100
65.300	46.005	0.100
65.400	98.024	0.100
65.500	88.077	0.100
65.600	45.001	0.100
65.700	74.087	0.100
65.800	35.104	0.100
65.900	82.747	0.100
66.000	70.882	0.100
66.100	64.691	0.100
66.200	64.225	0.100
66.300	73.748	0.100
66.400	69.935	0.100
66.500	59.057	0.100
66.600	80.862	0.100
66.700	75.278	0.100
66.800	69.765	0.100
66.900	69.731	0.100
67.000	71.226	0.100
67.100	90.693	0.100
67.200	79.866	0.100
67.300	56.522	0.100
67.400	88.660	0.100
67.500	56.661	0.100
67.600	72.989	0.100
67.700	71.139	0.100
67.800	75.379	0.100
67.900	80.344	0.100
68.000	76.115	0.100
68.100	62.728	0.100
68.200	86.460	0.100
68.300	52.569	0.100
68.400	58.384	0.100
68.500	62.651	0.100
68.600	78.892	0.100
68.700	72.125	0.100
68.800	63.992	0.100
68.900	74.200	0.100
69.000	70.987	0.100
69.100	68.999	0.100
69.200	87.400	0.100
69.300	52.595	0.100
69.400	60.087	0.100
69.500	71.920	0.100
69.600	68.377	0.100
69.700	88.783	0.100
69.800	82.505	0.100
69.900	51.404	0.100
70.000	62.852	0.100
70.100	67.873	0.100
70.200	78.088	0.100
70.300	83.764	0.100
70.400	56.633	0.100
70.500	52.232	0.100
70.600	90.542	0.100
70.700	82.928	0.100
70.800	68.757	0.100
70.900	82.058	0.100
71.000	79.085	0.100
71.100	66.998	0.100
71.200	71.274	0.100
71.300	56.096	0.100
71.400	92.953	0.100
71.500	91.865	0.100
71.600	71.287	0.100
71.700	87.565	0.100
71.800	68.140	0.100
71.900	63.356	0.100
72.000	68.379	0.100
72.100	56.355	0.100
72.200	85.390	0.100
72.300	94.257	0.100
72.400	73.010	0.100
72.500	67.592	0.100
72.600	77.245	0.100
72.700	69.810	0.100
72.800	73.332	0.100
72.900	88.632	0.100
73.000	64.633	0.100
73.100	74.238	0.100
73.200	86.658	0.100
73.300	81.005	0.100
73.400	69.403	0.100
73.500	65.938	0.100
73.600	74.733	0.100
73.700	86.949	0.100
73.800	99.229	0.100
73.900	90.102	0.100
74.000	98.763	0.100
74.100	84.760	0.100
74.200	70.409	0.100
74.300	50.344	0.100
74.400	44.377	0.100
74.500	66.422	0.100
74.600	85.656	0.100
74.700	89.107	0.100
74.800	84.603	0.100
74.900	64.320	0.100
75.000	70.535	0.100
75.100	62.842	0.100
75.200	73.817	0.100
75.300	72.500	0.100
75.400	83.583	0.100
75.500	77.522	0.100
75.600	80.269	0.099
75.700	84.461	0.100
75.800	84.359	0.100
75.900	85.010	0.100
76.000	88.093	0.100
76.100	84.632	0.100
76.200	68.569	0.100
76.300	48.698	0.100
76.400	67.212	0.100
76.500	68.529	0.100
76.600	87.590	0.100
76.700	74.250	0.100
76.800	89.203	0.100
76.900	75.574	0.100
77.000	97.886	0.100
77.100	85.968	0.100
77.200	84.078	0.100
77.300	69.429	0.100
77.400	76.896	0.100
77.500	93.021	0.100
77.600	53.689	0.100
77.700	67.971	0.100
77.800	72.385	0.100
77.900	81.293	0.100
78.000	84.174	0.100
78.100	75.063	0.100
78.200	73.330	0.100
78.300	70.854	0.100
78.400	58.152	0.100
78.500	93.537	0.100
78.600	96.206	0.100
78.700	86.703	0.100
78.800	85.645	0.100
78.900	74.421	0.100
79.000	63.930	0.100
79.100	77.482	0.100
79.200	81.156	0.100
79.300	62.782	0.100
79.400	79.439	0.100
79.500	92.716	0.100
79.600	78.659	0.100
79.700	71.953	0.100
79.800	76.598	0.100
79.900	88.709	0.100
80.000	100.930	0.100
80.100	48.244	0.100
80.200	76.756	0.100
80.300	59.867	0.100
80.400	77.161	0.100
80.500	117.945	0.100
80.600	105.939	0.100
80.700	79.062	0.100
80.800	67.991	0.100
80.900	82.371	0.100
81.000	62.557	0.100
81.100	70.316	0.100
81.200	90.325	0.100
81.300	71.331	0.100
81.400	78.561	0.100
81.500	85.314	0.100
81.600	91.901	0.100
81.700	81.675	0.100
81.800	79.186	0.100
81.900	91.330	0.100
82.000	76.202	0.100
82.100	70.301	0.100
82.200	84.518	0.100
82.300	72.870	0.100
82.400	78.070	0.100
82.500	63.994	0.100
82.600	100.050	0.100
82.700	69.782	0.100
82.800	94.350	0.100
82.900	90.373	0.100
83.000	70.827	0.100
83.100	91.347	0.100
83.200	82.363	0.100
83.300	67.178	0.100
83.400	100.322	0.100
83.500	71.647	0.100
83.600	83.248	0.100
83.700	88.778	0.100
83.800	74.544	0.100
83.900	86.202	0.100
84.000	92.249	0.100
84.100	74.215	0.100
84.200	76.816	0.100
84.300	96.275	0.100
84.400	75.210	0.100
84.500	86.285	0.100
84.600	59.979	0.100
84.700	94.716	0.100
84.800	82.047	0.100
84.900	71.299	0.100
85.000	85.806	0.100
85.100	76.054	0.100
85.200	87.254	0.100
85.300	59.444	0.100
85.400	108.437	0.100
85.500	71.270	0.100
85.600	73.657	0.100
85.700	90.658	0.100
85.800	79.043	0.100
85.900	98.939	0.100
86.000	94.060	0.100
86.100	57.283	0.100
86.200	77.412	0.100
86.300	90.335	0.100
86.400	88.343	0.100
86.500	61.778	0.100
86.600	95.373	0.100
86.700	79.419	0.100
86.800	65.237	0.100
86.900	75.577	0.100
87.000	91.024	0.100
87.100	81.128	0.100
87.200	93.491	0.100
87.300	64.676	0.100
87.400	89.152	0.100
87.500	111.826	0.100
87.600	61.354	0.100
87.700	86.701	0.100
87.800	55.047	0.100
87.900	84.117	0.100
88.000	69.930	0.100
88.100	79.920	0.100
88.200	68.609	0.100
88.300	88.523	0.100
88.400	80.828	0.100
88.500	84.099	0.100
88.600	89.973	0.100
88.700	82.467	0.100
88.800	73.440	0.100
88.900	69.054	0.100
89.000	72.294	0.100
89.100	87.173	0.100
89.200	86.741	0.100
89.300	96.209	0.100
89.400	84.692	0.100
89.500	75.894	0.100
89.600	77.574	0.100
89.700	91.380	0.100
89.800	88.416	0.100
89.900	88.475	0.100
90.000	93.801	0.100
90.100	74.224	0.100
90.200	76.517	0.100
90.300	68.601	0.100
90.400	80.892	0.100
90.500	73.153	0.100
90.600	46.127	0.100
90.700	58.489	0.100
90.800	74.318	0.100
90.900	39.882	0.100
91.000	55.253	0.100
91.100	41.036	0.100
91.200	38.762	0.100
91.300	21.245	0.100
91.400	34.289	0.100
91.500	45.302	0.100
91.600	51.856	0.100
91.700	29.702	0.100
91.800	32.982	0.100
91.900	35.403	0.100
92.000	17.108	0.100
92.100	18.474	0.100
92.200	4.922	0.100
92.300	25.763	0.100
92.400	22.001	0.100
92.500	-12.011	0.100
92.600	11.890	0.100
92.700	6.344	0.100
92.800	3.239	0.100
92.900	7.335	0.100
93.000	-2.325	0.100
93.100	14.078	0.100
93.200	-13.676	0.100
93.300	3.502	0.100
93.400	-9.862	0.100
93.500	-25.451	0.100
93.600	-6.492	0.100
93.700	-23.953	0.100
93.800	-25.116	0.100
93.900	-30.713	0.100
94.000	-3.661	0.100
94.100	-10.789	0.100
94.200	-23.405	0.100
94.300	-10.282	0.100
94.400	-23.100	0.100
94.500	-22.923	0.100
94.600	-41.945	0.100
94.700	-7.039	0.100
94.800	-18.805	0.100
94.900	-30.758	0.100
95.000	-28.270	0.100
95.100	-23.391	0.100
95.200	-13.323	0.100
95.300	-18.834	0.100
95.400	-27.810	0.100
95.500	-10.877	0.100
95.600	-36.374	0.100
95.700	-22.479	0.100
95.800	-13.605	0.100
95.900	-27.377	0.100
96.000	-20.427	0.100
96.100	-18.480	0.100
96.200	-25.956	0.100
96.300	-9.047	0.100
96.400	-35.127	0.100
96.500	-56.607	0.100
96.600	-40.007	0.100
96.700	-25.603	0.100
96.800	-16.219	0.100
96.900	-7.185	0.100
97.000	-26.532	0.100
97.100	-55.933	0.100
97.200	-27.840	0.100
97.300	-31.505	0.100
97.400	-23.733	0.100
97.500	-27.439	0.100
97.600	-18.808	0.100
97.700	4.136	0.100
97.800	-12.396	0.100
97.900	-22.273	0.100
98.000	-13.873	0.100
98.100	-32.653	0.100
98.200	-13.489	0.100
98.300	-14.619	0.100
98.400	-16.045	0.100
98.500	-21.012	0.100
98.600	-11.359	0.100
98.700	-18.488	0.100
98.800	-33.957	0.100
98.900	-18.395	0.100
99.000	-33.247	0.100
99.100	-4.402	0.100
99.200	-21.513	0.100
99.300	-2.767	0.100
99.400	-11.167	0.100
99.500	-9.575	0.100
99.600	-3.388	0.100
99.700	-28.182	0.100
99.800	-45.462	0.100
99.900	-13.883	0.100
100.000	-10.974	0.100
100.100	-10.150	0.100
100.200	-58.079	0.099
100.300	-22.426	0.100
100.400	-19.771	0.100
100.500	-21.395	0.100
100.600	-22.033	0.100
100.700	-22.500	0.100
100.800	-30.737	0.100
100.900	-13.658	0.100
101.000	-15.792	0.100
101.100	-17.956	0.100
101.200	-18.184	0.100
101.300	-22.572	0.100
101.400	-29.924	0.100
101.500	-7.203	0.100
101.600	-25.395	0.100
101.700	-35.589	0.100
101.800	0.456	0.100
101.900	-26.654	0.100
102.000	1.474	0.100
102.100	-31.918	0.100
102.200	-10.676	0.100
102.300	-22.345	0.100
102.400	-31.565	0.100
102.500	-1.503	0.100
102.600	-9.399	0.100
102.700	-23.775	0.100
102.800	-26.120	0.100
102.900	-19.660	0.100
103.000	-33.862	0.100
103.100	-11.010	0.100
103.200	-29.482	0.100
103.300	-9.248	0.100
103.400	-9.889	0.100
103.500	-15.069	0.100
103.600	-38.631	0.100
103.700	-15.177	0.100
103.800	-9.196	0.100
103.900	3.824	0.100
104.000	-1.381	0.100
104.100	-33.431	0.100
104.200	-30.537	0.100
104.300	-26.746	0.100
104.400	-24.368	0.100
104.500	-29.829	0.100
104.600	-3.404	0.100
104.700	-31.896	0.100
104.800	-10.891	0.099
104.900	-2.417	0.100
105.000	-12.804	0.100
105.100	-24.770	0.100
105.200	-12.843	0.100
105.300	-17.331	0.100
105.400	-24.662	0.100
105.500	-29.417	0.100
105.600	-24.492	0.100
105.700	0.265	0.100
105.800	-19.618	0.100
105.900	-10.400	0.100
106.000	-40.738	0.100
106.100	-36.158	0.100
106.200	-29.839	0.100
106.300	-20.524	0.100
106.400	-9.119	0.100
106.500	-23.189	0.100
106.600	-32.002	0.100
106.700	-19.223	0.100
106.800	-17.863	0.100
106.900	-17.692	0.100
107.000	-36.331	0.100
107.100	-22.292	0.100
107.200	7.609	0.100
107.300	2.718	0.100
107.400	-36.703	0.100
107.500	-52.403	0.100
107.600	-25.635	0.100
107.700	-9.483	0.100
107.800	-20.229	0.100
107.900	-32.071	0.100
108.000	-12.110	0.100
108.100	-23.566	0.100
108.200	-28.201	0.100
108.300	-21.246	0.100
108.400	-14.549	0.100
108.500	-11.932	0.100
108.600	-15.104	0.100
108.700	-10.897	0.100
108.800	-27.235	0.100
108.900	-20.326	0.100
109.000	-51.032	0.100
109.100	-19.944	0.100
109.200	-41.312	0.100
109.300	0.094	0.100
109.400	-27.593	0.100
109.500	-2.255	0.100
109.600	-17.543	0.100
109.700	-39.971	0.100
109.800	-10.119	0.100
109.900	-0.665	0.100
110.000	-24.916	0.100
110.100	-20.725	0.100
110.200	-25.714	0.100
110.300	-22.019	0.100
110.400	-46.373	0.100
110.500	-24.795	0.100
110.600	-55.373	0.099
110.700	-22.553	0.100
110.800	-0.600	0.100
110.900	-19.663	0.100
111.000	-58.686	0.100
111.100	-10.777	0.100
111.200	-12.074	0.100
111.300	-25.676	0.100
111.400	-28.568	0.100
111.500	-36.427	0.100
111.600	-41.178	0.100
111.700	-24.401	0.100
111.800	-5.132	0.100
111.900	-28.323	0.100
112.000	-34.641	0.100
112.100	-24.371	0.100
112.200	6.830	0.100
112.300	-13.191	0.100
112.400	-22.885	0.100
112.500	-32.699	0.100
112.600	-23.659	0.100
112.700	-16.862	0.100
112.800	-17.219	0.100
112.900	-20.686	0.100
113.000	-8.019	0.099
113.100	-11.076	0.100
113.200	-31.152	0.100
113.300	-28.299	0.100
113.400	-33.792	0.100
113.500	-23.403	0.100
113.600	-14.907	0.100
113.700	-20.258	0.100
113.800	-12.770	0.100
113.900	-29.802	0.100
114.000	-32.608	0.100
114.100	-17.341	0.100
114.200	-5.547	0.100
114.300	-33.591	0.100
114.400	-36.916	0.100
114.500	-32.699	0.100
114.600	-5.929	0.100
114.700	-20.639	0.100
114.800	-13.372	0.100
114.900	-30.984	0.100
115.000	-25.344	0.100
115.100	-25.741	0.100
115.200	-18.577	0.100
115.300	-43.798	0.100
115.400	-35.693	0.100
115.500	-46.087	0.100
115.600	-34.623	0.100
115.700	-16.427	0.100
115.800	-34.772	0.100
115.900	-16.588	0.100
116.000	-19.995	0.100
116.100	-12.494	0.100
116.200	-29.640	0.100
116.300	-19.618	0.100
116.400	-24.352	0.100
116.500	-34.742	0.100
116.600	-43.044	0.100
116.700	-28.864	0.100
116.800	-21.310	0.100
116.900	-13.575	0.100
117.000	-8.564	0.100
117.100	-42.046	0.100
117.200	-43.597	0.100
117.300	-56.319	0.100
117.400	-21.738	0.100
117.500	-21.589	0.100
117.600	-23.909	0.100
117.700	-37.043	0.100
117.800	-32.203	0.100
117.900	-22.945	0.100
118.000	-24.001	0.100
118.100	-59.612	0.100
118.200	-15.300	0.100
118.300	-17.978	0.100
118.400	-22.990	0.100
118.500	-45.246	0.100
118.600	-30.848	0.100
118.700	-37.988	0.099
118.800	-24.761	0.100
118.900	-40.379	0.100
119.000	-32.807	0.100
119.100	-31.302	0.100
119.200	-33.757	0.100
119.300	5.714	0.100
119.400	-19.430	0.100
119.500	-31.711	0.100
119.600	-53.415	0.100
119.700	-7.244	0.100
119.800	-43.001	0.100
119.900	-23.008	0.100
120.000	-38.363	0.100
120.100	-53.084	0.100
120.200	-24.926	0.100
120.300	-29.036	0.100
120.400	-43.903	0.100
120.500	-6.083	0.100
120.600	-14.785	0.100
120.700	-23.624	0.100
120.800	-26.392	0.100
120.900	-47.032	0.100
121.000	-22.768	0.100
121.100	-6.964	0.100
121.200	-46.238	0.100
121.300	-28.281	0.100
121.400	-29.361	0.100
121.500	-24.309	0.100
121.600	-31.960	0.100
121.700	-50.406	0.100
121.800	-8.593	0.100
121.900	-24.820	0.100
122.000	-25.427	0.100
122.100	-42.963	0.100
122.200	-26.168	0.100
122.300	-28.095	0.100
122.400	-32.868	0.100
122.500	-33.711	0.100
122.600	-16.066	0.100
122.700	-20.974	0.100
122.800	-32.355	0.100
122.900	-38.686	0.100
123.000	-23.109	0.100
123.100	-42.258	0.100
123.200	-19.826	0.100
123.300	-49.094	0.100
123.400	-9.825	0.100
123.500	-30.904	0.100
123.600	-53.972	0.100
123.700	-10.748	0.100
123.800	-37.931	0.100
123.900	-35.588	0.100
124.000	-26.793	0.100
124.100	-24.772	0.100
124.200	-19.515	0.100
124.300	-35.371	0.100
124.400	-25.258	0.100
124.500	-27.206	0.100
124.600	-40.345	0.100
124.700	-24.379	0.100
124.800	-33.971	0.100
124.900	-21.166	0.100
125.000	-48.244	0.100
125.100	-34.713	0.100
125.200	-20.413	0.100
125.300	-37.172	0.100
125.400	-36.462	0.100
125.500	-38.868	0.100
125.600	-50.136	0.100
125.700	-41.118	0.100
125.800	-12.300	0.100
125.900	-23.029	0.100
126.000	-31.595	0.100
126.100	-27.685	0.100
126.200	-53.645	0.100
126.300	-19.359	0.100
126.400	-39.977	0.100
126.500	-34.147	0.100
126.600	-39.302	0.100
126.700	-14.807	0.100
126.800	-26.267	0.100
126.900	-26.205	0.100
127.000	-26.891	0.100
127.100	-50.331	0.100
127.200	-34.930	0.100
127.300	-40.754	0.100
127.400	-47.493	0.100
127.500	-12.219	0.100
127.600	-37.250	0.100
127.700	-39.631	0.100
127.800	-62.161	0.100
127.900	-58.529	0.100
128.000	-23.991	0.100
128.100	-28.346	0.100
128.200	-44.025	0.100
128.300	-35.644	0.100
128.400	-20.410	0.100
128.500	-14.872	0.100
128.600	-36.939	0.100
128.700	-23.348	0.100
128.800	-30.626	0.100
128.900	-47.811	0.100
129.000	-6.801	0.100
129.100	-16.971	0.100
129.200	-41.873	0.100
129.300	-52.020	0.100
129.400	-9.212	0.100
129.500	-39.228	0.100
129.600	-40.698	0.100
129.700	-26.126	0.100
129.800	-9.926	0.100
129.900	-59.620	0.100
130.000	-15.038	0.100
130.100	-23.248	0.100
130.200	-28.227	0.100
130.300	-40.302	0.100
130.400	-38.037	0.100
130.500	-49.122	0.100
130.600	-18.518	0.100
130.700	-35.731	0.100
130.800	-35.576	0.100
130.900	-24.893	0.100
131.000	-42.126	0.100
131.100	-17.538	0.100
131.200	-35.913	0.100
131.300	-28.500	0.100
131.400	-25.001	0.100
131.500	-28.351	0.100
131.600	-31.034	0.100
131.700	-51.150	0.100
131.800	-20.480	0.100
131.900	-16.581	0.100
132.000	-16.135	0.100
132.100	-33.242	0.100
132.200	-45.599	0.100
132.300	-26.769	0.100
132.400	-40.220	0.100
132.500	-27.421	0.100
132.600	-22.062	0.100
132.700	-15.580	0.100
132.800	-33.388	0.100
132.900	-29.165	0.100
133.000	-44.285	0.100
133.100	-19.188	0.100
133.200	-25.620	0.100
133.300	-50.677	0.100
133.400	-36.834	0.100
133.500	-35.740	0.100
133.600	-20.455	0.100
133.700	-26.512	0.100
133.800	-16.966	0.100
133.900	-40.375	0.100
134.000	-15.584	0.100
134.100	-36.185	0.100
134.200	-32.961	0.100
134.300	-36.276	0.100
134.400	-36.632	0.100
134.500	-32.209	0.100
134.600	-43.924	0.100
134.700	-22.164	0.100
134.800	-26.149	0.100
134.900	-31.343	0.100
135.000	-31.588	0.100
135.100	-12.680	0.100
135.200	-43.202	0.100
135.300	-32.320	0.100
135.400	-16.976	0.100
135.500	-32.587	0.100
135.600	-18.625	0.100
135.700	-40.582	0.100
135.800	-47.427	0.100
135.900	-17.175	0.100
136.000	-28.548	0.100
136.100	-35.655	0.100
136.200	-23.066	0.100
136.300	-34.465	0.100
136.400	-25.559	0.100
136.500	-37.935	0.100
136.600	-13.982	0.100
136.700	-45.522	0.100
136.800	-24.603	0.100
136.900	-38.200	0.100
137.000	-29.592	0.100
137.100	-26.602	0.100
137.200	-18.992	0.100
137.300	-33.464	0.100
137.400	-34.225	0.100
137.500	-41.719	0.100
137.600	-40.089	0.100
137.700	-44.502	0.100
137.800	-41.445	0.100
137.900	-20.088	0.100
138.000	-35.430	0.100
138.100	-44.087	0.100
138.200	2.780	0.100
138.300	-25.283	0.100
138.400	-31.476	0.100
138.500	-60.104	0.100
138.600	-41.283	0.100
138.700	-30.100	0.100
138.800	-6.907	0.100
138.900	-35.072	0.100
139.000	-45.588	0.100
139.100	-44.562	0.100
139.200	-2.819	0.100
139.300	-33.446	0.100
139.400	-44.144	0.100
139.500	-10.583	0.100
139.600	-33.677	0.100
139.700	-33.872	0.100
139.800	-27.803	0.100
139.900	-36.134	0.100
140.000	-48.281	0.100
140.100	-19.909	0.100
140.200	-28.156	0.100
140.300	-13.243	0.100
140.400	-23.323	0.100
140.500	-31.752	0.100
140.600	-38.724	0.100
140.700	-16.823	0.100
140.800	-45.721	0.100
140.900	-25.010	0.100
141.000	-20.564	0.100
141.100	-35.303	0.100
141.200	-31.852	0.100
141.300	-37.189	0.100
141.400	-18.577	0.100
141.500	-8.411	0.100
141.600	-12.751	0.100
141.700	-35.605	0.100
141.800	-13.071	0.100
141.900	-42.824	0.100
142.000	-26.241	0.100
142.100	-28.171	0.100
142.200	-37.581	0.100
142.300	-54.086	0.100
142.400	-19.365	0.100
142.500	-4.647	0.100
142.600	-21.772	0.100
142.700	-23.996	0.100
142.800	-31.922	0.100
142.900	-40.754	0.100
143.000	-2.904	0.100
143.100	-9.208	0.100
143.200	-23.791	0.100
143.300	-34.106	0.100
143.400	-20.200	0.100
143.500	-49.669	0.100
143.600	-19.604	0.100
143.700	-45.056	0.100
143.800	-13.537	0.100
143.900	-39.104	0.100
144.000	-30.868	0.100
144.100	-26.573	0.100
144.200	-49.877	0.100
144.300	-21.511	0.100
144.400	-34.231	0.100
144.500	-32.298	0.100
144.600	-40.586	0.100
144.700	-9.828	0.100
144.800	-50.989	0.100
144.900	-30.437	0.100
145.000	-31.529	0.100
145.100	-36.531	0.100
145.200	-22.019	0.100
145.300	-19.378	0.100
145.400	-32.722	0.100
145.500	-1.351	0.100
145.600	-17.780	0.100
145.700	-22.677	0.100
145.800	-45.281	0.100
145.900	-22.275	0.100
146.000	-27.928	0.100
146.100	-41.212	0.100
146.200	-39.326	0.100
146.300	-29.300	0.100
146.400	-37.593	0.100
146.500	-20.324	0.100
146.600	-25.291	0.100
146.700	-46.072	0.100
146.800	-42.295	0.100
146.900	-17.385	0.100
147.000	-34.570	0.100
147.100	-33.626	0.100
147.200	-68.682	0.100
147.300	-33.211	0.100
147.400	-27.259	0.100
147.500	-36.213	0.100
147.600	-24.659	0.100
147.700	-33.071	0.100
147.800	-34.968	0.100
147.900	-19.194	0.100
148.000	-16.676	0.100
148.100	-35.193	0.100
148.200	-27.521	0.100
148.300	-20.591	0.100
148.400	-31.019	0.100
148.500	-30.911	0.100
148.600	-45.985	0.100
148.700	-23.897	0.100
148.800	-22.164	0.100
148.900	-26.208	0.100
149.000	-54.167	0.100
149.100	-23.268	0.100
149.200	-46.531	0.100
149.300	-15.994	0.100
149.400	-21.624	0.100
149.500	-33.840	0.100
149.600	-3.621	0.100
149.700	-21.214	0.100
149.800	-25.173	0.100
149.900	-34.549	0.100
150.000	-27.479	0.100
150.100	-36.334	0.100
150.200	-14.814	0.100
150.300	-23.644	0.100
150.400	-30.110	0.100
150.500	-22.302	0.100
150.600	-48.308	0.100
150.700	-25.284	0.100
150.800	-11.521	0.100
150.900	-44.786	0.100
151.000	-33.162	0.100
151.100	-35.512	0.100
151.200	-14.148	0.100
151.300	-35.746	0.100
151.400	-35.139	0.100
151.500	-30.160	0.100
151.600	-37.845	0.100
151.700	-12.252	0.100
151.800	-27.396	0.100
151.900	-29.278	0.100
152.000	-11.901	0.100
152.100	-17.925	0.100
152.200	-33.261	0.100
152.300	-17.920	0.100
152.400	-21.683	0.100
152.500	-23.804	0.100
152.600	-39.984	0.100
152.700	-9.689	0.100
152.800	-52.490	0.100
152.900	-40.261	0.100
153.000	-16.991	0.100
153.100	-17.382	0.100
153.200	-25.357	0.100
153.300	-39.713	0.100
153.400	-25.399	0.100
153.500	-23.691	0.100
153.600	-12.088	0.099
153.700	-41.827	0.100
153.800	-45.797	0.100
153.900	-46.423	0.100
154.000	-19.748	0.100
154.100	-28.479	0.100
154.200	-18.314	0.099
154.300	-23.026	0.100
154.400	-13.295	0.100
154.500	-34.647	0.100
154.600	-27.589	0.100
154.700	-33.943	0.100
154.800	-18.222	0.100
154.900	1.953	0.100
155.000	-25.526	0.100
155.100	-30.268	0.099
155.200	-23.933	0.100
155.300	-30.344	0.100
155.400	-31.628	0.100
155.500	-22.564	0.100
155.600	-23.241	0.100
155.700	-19.630	0.100
155.800	-41.166	0.100
155.900	-19.627	0.100
156.000	-39.719	0.100
156.100	-28.856	0.100
156.200	-29.358	0.100
156.300	-17.623	0.100
156.400	-24.364	0.100
156.500	-32.266	0.100
156.600	-43.595	0.100
156.700	-22.455	0.100
156.800	-19.216	0.100
156.900	-3.425	0.100
157.000	-36.234	0.100
157.100	-43.317	0.100
157.200	-5.075	0.099
157.300	-44.338	0.100
157.400	-16.569	0.100
157.500	-31.355	0.100
157.600	-22.400	0.100
157.700	-8.073	0.100
157.800	-36.102	0.099
157.900	-28.278	0.100
158.000	-20.975	0.100
158.100	-17.062	0.100
158.200	-28.956	0.100
158.300	-20.175	0.100
158.400	-4.911	0.100
158.500	-24.655	0.100
158.600	-43.295	0.100
158.700	-19.323	0.100
158.800	-14.862	0.100
158.900	-33.909	0.100
159.000	-55.945	0.100
159.100	-21.661	0.100
159.200	-7.425	0.100
159.300	-2.008	0.100
159.400	-37.035	0.100
159.500	-50.707	0.100
159.600	-31.727	0.100
159.700	-29.314	0.100
159.800	-37.683	0.100
159.900	-27.543	0.099
160.000	-26.658	0.100
160.100	-29.794	0.099
160.200	-39.867	0.100
160.300	-41.023	0.100
160.400	2.842	0.100
160.500	-17.531	0.100
160.600	-53.461	0.100
160.700	-28.212	0.100
160.800	-34.923	0.100
160.900	-27.821	0.100
161.000	-28.871	0.099
161.100	-42.726	0.100
161.200	-34.411	0.099
161.300	-9.522	0.100
161.400	-22.556	0.100
161.500	-20.230	0.100
161.600	-16.642	0.100
161.700	-18.875	0.100
161.800	-12.169	0.100
161.900	-36.289	0.100
162.000	-20.190	0.100
162.100	-15.793	0.100
162.200	-21.399	0.099
162.300	-29.790	0.099
162.400	-11.532	0.099
162.500	-8.598	0.100
162.600	-29.750	0.100
162.700	-44.209	0.099
162.800	-23.614	0.100
162.900	17.590	0.100
163.000	-10.860	0.100
163.100	-15.324	0.100
163.200	-33.168	0.100
163.300	-16.855	0.100
163.400	-27.786	0.100
163.500	-58.066	0.099
163.600	-11.071	0.100
163.700	-20.741	0.100
163.800	-2.883	0.100
163.900	-27.250	0.100
164.000	-27.393	0.100
164.100	-44.833	0.099
164.200	-25.507	0.100
164.300	-34.682	0.099
164.400	-13.904	0.100
164.500	-44.847	0.100
164.600	-45.339	0.100
164.700	-30.450	0.099
164.800	-3.999	0.100
164.900	-26.066	0.100
165.000	-17.255	0.100
165.100	-19.759	0.100
165.200	-16.817	0.100
165.300	-20.231	0.100
165.400	-34.433	0.100
165.500	-12.717	0.100
165.600	-45.820	0.100
165.700	-18.364	0.100
165.800	-35.809	0.100
165.900	-21.959	0.100
166.000	-21.628	0.100
166.100	-26.906	0.100
166.200	-43.130	0.100
166.300	-12.498	0.100
166.400	-30.399	0.100
166.500	-50.429	0.100
166.600	-2.852	0.100
166.700	-14.719	0.100
166.800	-16.637	0.100
166.900	-26.669	0.100
167.000	-2.621	0.100
167.100	-32.244	0.100
167.200	-40.707	0.100
167.300	-22.452	0.100
167.400	-27.249	0.100
167.500	-29.019	0.099
167.600	-36.323	0.100
167.700	-25.088	0.100
167.800	-36.694	0.100
167.900	-19.107	0.100
168.000	-18.166	0.100
168.100	-16.592	0.100
168.200	-20.507	0.100
168.300	-35.154	0.100
168.400	-31.613	0.100
168.500	-17.803	0.100
168.600	-29.108	0.099
168.700	-16.899	0.099
168.800	-11.345	0.100
168.900	-53.959	0.100
169.000	-24.849	0.100
169.100	-30.879	0.100
169.200	-20.583	0.100
169.300	-11.342	0.100
169.400	-56.001	0.100
169.500	-10.268	0.100
169.600	-11.561	0.100
169.700	-23.376	0.100
169.800	-22.619	0.100
169.900	-35.084	0.100
170.000	-15.751	0.100
170.100	-2.989	0.100
170.200	-39.722	0.100
170.300	-8.074	0.099
170.400	-44.469	0.100
170.500	-3.386	0.100
170.600	-33.925	0.100
170.700	-11.059	0.100
170.800	-13.820	0.100
170.900	-35.195	0.100
171.000	-45.021	0.100
171.100	-9.420	0.100
171.200	-36.033	0.100
171.300	-27.483	0.100
171.400	-26.500	0.100
171.500	-19.454	0.100
171.600	-12.157	0.100
171.700	-18.724	0.100
171.800	-25.967	0.099
171.900	-55.270	0.100
172.000	-2.002	0.100
172.100	-13.985	0.100
172.200	-38.101	0.100
172.300	-31.309	0.100
172.400	-11.172	0.100
172.500	-33.307	0.100
172.600	-40.988	0.100
172.700	-31.236	0.100
172.800	-1.862	0.100
172.900	-16.777	0.100
173.000	-27.963	0.100
173.100	-10.461	0.100
173.200	-31.326	0.100
173.300	-17.637	0.100
173.400	-24.249	0.100
173.500	-16.714	0.100
173.600	-28.239	0.100
173.700	-23.233	0.100
173.800	-39.364	0.100
173.900	-31.514	0.100
174.000	-35.021	0.100
174.100	-11.989	0.100
174.200	-21.264	0.100
174.300	-40.723	0.100
174.400	-0.637	0.100
174.500	-12.547	0.100
174.600	-22.625	0.100
174.700	-21.481	0.100
174.800	-12.652	0.100
174.900	-26.369	0.100
175.000	-37.738	0.100
175.100	-21.842	0.100
175.200	-32.555	0.100
175.300	-47.032	0.100
175.400	-31.110	0.100
175.500	-23.708	0.100
175.600	4.252	0.100
175.700	-19.148	0.100
175.800	-25.612	0.100
175.900	-15.030	0.100
176.000	-14.276	0.100
176.100	-31.062	0.100
176.200	-8.487	0.100
176.300	-11.730	0.100
176.400	-37.660	0.100
176.500	-17.579	0.100
176.600	-46.275	0.100
176.700	-44.081	0.100
176.800	-28.870	0.100
176.900	-26.208	0.100
177.000	-19.529	0.100
177.100	-17.872	0.100
177.200	-13.222	0.100
177.300	-48.908	0.100
177.400	-19.739	0.100
177.500	-63.168	0.100
177.600	-28.940	0.100
177.700	-3.698	0.100
177.800	-22.407	0.099
177.900	-51.578	0.100
178.000	-9.058	0.100
178.100	-21.794	0.100
178.200	-41.097	0.100
178.300	-21.555	0.100
178.400	-33.362	0.100
178.500	-31.203	0.100
178.600	-14.634	0.100
178.700	-20.158	0.100
178.800	-32.342	0.100
178.900	-33.058	0.100
179.000	-20.881	0.100
179.100	-25.779	0.100
179.200	-10.864	0.100
179.300	-38.720	0.100
179.400	-28.180	0.100
179.500	-19.218	0.100
179.600	-14.831	0.100
179.700	-40.944	0.100
179.800	-6.538	0.100
179.900	-19.313	0.100
180.000	-11.200	0.100
180.100	-34.234	0.100
180.200	-0.983	0.100
180.300	-22.999	0.100
180.400	-14.491	0.100
180.500	-5.905	0.100
180.600	0.463	0.100
180.700	-14.658	0.100
180.800	-4.282	0.100
180.900	14.902	0.100
181.000	5.534	0.100
181.100	5.679	0.100
181.200	-5.705	0.100
181.300	36.850	0.100
181.400	37.031	0.100
181.500	19.874	0.100
181.600	31.930	0.100
181.700	17.691	0.100
181.800	22.498	0.100
181.900	45.088	0.100
182.000	48.316	0.100
182.100	44.879	0.100
182.200	27.304	0.100
182.300	59.710	0.100
182.400	40.056	0.100
182.500	21.131	0.100
182.600	43.423	0.100
182.700	53.459	0.100
182.800	51.520	0.100
182.900	29.779	0.100
183.000	35.359	0.100
183.100	34.015	0.100
183.200	44.517	0.100
183.300	25.798	0.100
183.400	48.631	0.100
183.500	42.820	0.100
183.600	34.479	0.100
183.700	38.054	0.100
183.800	35.265	0.100
183.900	31.569	0.100
184.000	20.947	0.100
184.100	37.208	0.100
184.200	54.744	0.100
184.300	43.694	0.100
184.400	20.219	0.100
184.500	53.850	0.100
184.600	34.064	0.100
184.700	42.081	0.100
184.800	29.477	0.100
184.900	27.965	0.100
185.000	26.694	0.100
185.100	27.129	0.100
185.200	63.380	0.100
185.300	33.292	0.100
185.400	47.789	0.100
185.500	39.568	0.100
185.600	37.429	0.100
185.700	7.999	0.100
185.800	53.254	0.100
185.900	43.887	0.100
186.000	32.686	0.100
186.100	28.092	0.100
186.200	27.821	0.100
186.300	23.569	0.100
186.400	39.344	0.100
186.500	35.413	0.100
186.600	48.887	0.100
186.700	21.585	0.100
186.800	52.010	0.100
186.900	30.054	0.100
187.000	53.254	0.100
187.100	34.991	0.100
187.200	40.960	0.100
187.300	23.646	0.100
187.400	28.032	0.100
187.500	30.324	0.100
187.600	64.234	0.100
187.700	47.598	0.100
187.800	67.868	0.100
187.900	53.547	0.100
188.000	55.699	0.100
188.100	47.438	0.100
188.200	73.203	0.100
188.300	72.764	0.100
188.400	65.828	0.100
188.500	54.333	0.100
188.600	56.576	0.100
188.700	50.470	0.100
188.800	61.469	0.100
188.900	67.623	0.100
189.000	69.111	0.100
189.100	65.033	0.100
189.200	66.197	0.100
189.300	64.940	0.100
189.400	64.688	0.100
189.500	82.968	0.100
189.600	73.362	0.100
189.700	53.055	0.100
189.800	69.122	0.100
189.900	81.733	0.100
190.000	74.083	0.100
190.100	109.964	0.100
190.200	85.780	0.100
190.300	90.898	0.100
190.400	81.608	0.100
190.500	77.269	0.100
190.600	67.921	0.100
190.700	89.447	0.100
190.800	81.771	0.099
190.900	87.753	0.100
191.000	109.654	0.100
191.100	97.212	0.100
191.200	90.452	0.100
191.300	79.940	0.100
191.400	102.299	0.100
191.500	92.728	0.100
191.600	113.859	0.100
191.700	87.778	0.100
191.800	101.964	0.100
191.900	85.577	0.100
192.000	89.287	0.100
192.100	121.613	0.100
192.200	69.515	0.100
192.300	94.493	0.100
192.400	119.079	0.100
192.500	113.662	0.100
192.600	114.327	0.100
192.700	116.032	0.100
192.800	106.607	0.100
192.900	96.094	0.100
193.000	93.409	0.100
193.100	132.844	0.100
193.200	106.763	0.100
193.300	103.802	0.100
193.400	111.637	0.100
193.500	104.352	0.100
193.600	91.868	0.100
193.700	92.008	0.100
193.800	134.669	0.099
193.900	111.372	0.100
194.000	103.343	0.100
194.100	111.835	0.100
194.200	103.412	0.100
194.300	106.045	0.100
194.400	105.950	0.100
194.500	112.318	0.100
194.600	99.598	0.100
194.700	114.946	0.100
194.800	111.905	0.100
194.900	124.839	0.100
195.000	113.699	0.100
195.100	112.507	0.100
195.200	116.382	0.100
195.300	101.950	0.100
195.400	122.965	0.100
195.500	100.980	0.100
195.600	103.526	0.100
195.700	101.701	0.100
195.800	125.699	0.100
195.900	89.352	0.100
196.000	89.323	0.100
196.100	107.611	0.100
196.200	114.928	0.100
196.300	123.494	0.100
196.400	114.368	0.100
196.500	108.954	0.100
196.600	104.516	0.100
196.700	105.295	0.100
196.800	104.278	0.100
196.900	117.648	0.100
197.000	96.604	0.100
197.100	82.772	0.100
197.200	125.209	0.100
197.300	122.475	0.100
197.400	78.947	0.100
197.500	107.691	0.100
197.600	134.101	0.100
197.700	96.362	0.100
197.800	107.744	0.100
197.900	119.147	0.100
198.000	124.337	0.100
198.100	102.333	0.100
198.200	72.785	0.100
198.300	122.376	0.100
198.400	121.754	0.100
198.500	91.129	0.100
198.600	132.002	0.100
198.700	121.868	0.100
198.800	124.398	0.100
198.900	89.513	0.100
199.000	101.599	0.100
199.100	110.713	0.100
199.200	114.360	0.100
199.300	92.817	0.100
199.400	109.596	0.100
199.500	113.577	0.100
199.600	103.416	0.100
199.700	117.711	0.100
199.800	91.274	0.100
199.900	93.746	0.100
200.000	116.641	0.100
200.100	96.705	0.100
200.200	111.861	0.100
200.300	81.056	0.100
200.400	107.853	0.100
200.500	99.480	0.100
200.600	100.186	0.100
200.700	114.625	0.100
200.800	103.754	0.100
200.900	84.305	0.100
201.000	118.821	0.100
201.100	112.951	0.100
201.200	101.041	0.100
201.300	119.114	0.100
201.400	108.299	0.100
201.500	88.061	0.100
201.600	95.489	0.100
201.700	115.868	0.100
201.800	114.758	0.100
201.900	95.139	0.100
202.000	108.831	0.100
202.100	107.302	0.100
202.200	107.058	0.100
202.300	105.630	0.100
202.400	107.854	0.100
202.500	99.079	0.100
202.600	83.863	0.100
202.700	92.107	0.100
202.800	112.701	0.100
202.900	99.892	0.100
203.000	118.674	0.100
203.100	104.817	0.100
203.200	122.576	0.100
203.300	99.801	0.100
203.400	78.191	0.100
203.500	93.984	0.100
203.600	96.089	0.100
203.700	110.052	0.100
203.800	101.422	0.100
203.900	93.619	0.100
204.000	110.025	0.100
204.100	101.816	0.100
204.200	99.200	0.100
204.300	122.670	0.100
204.400	102.246	0.100
204.500	102.432	0.100
204.600	99.108	0.100
204.700	99.024	0.100
204.800	96.294	0.100
204.900	102.218	0.100
205.000	92.092	0.100
205.100	99.229	0.100
205.200	114.448	0.100
205.300	109.823	0.100
205.400	96.406	0.100
205.500	112.191	0.100
205.600	106.665	0.100
205.700	96.764	0.100
205.800	116.700	0.100
205.900	111.229	0.100
206.000	103.869	0.100
206.100	102.162	0.100
206.200	93.971	0.100
206.300	103.996	0.100
206.400	121.789	0.100
206.500	115.513	0.100
206.600	83.539	0.100
206.700	126.706	0.100
206.800	112.408	0.100
206.900	102.997	0.100
207.000	88.104	0.100
207.100	101.737	0.100
207.200	84.125	0.100
207.300	105.529	0.100
207.400	103.879	0.100
207.500	111.813	0.100
207.600	118.515	0.100
207.700	110.173	0.100
207.800	114.608	0.100
207.900	112.236	0.100
208.000	101.018	0.100
208.100	98.713	0.100
208.200	122.748	0.100
208.300	80.701	0.100
208.400	103.921	0.100
208.500	110.372	0.100
208.600	120.242	0.100
208.700	82.027	0.100
208.800	106.818	0.100
208.900	104.596	0.100
209.000	81.056	0.100
209.100	106.509	0.100
209.200	97.779	0.100
209.300	108.622	0.100
209.400	105.646	0.100
209.500	91.387	0.100
209.600	108.101	0.100
209.700	87.928	0.100
209.800	86.347	0.100
209.900	110.997	0.100
210.000	98.673	0.100
210.100	112.842	0.100
210.200	99.488	0.100
210.300	115.857	0.100
210.400	100.970	0.100
210.500	96.535	0.100
210.600	86.011	0.100
210.700	89.100	0.100
210.800	90.903	0.100
210.900	137.710	0.099
211.000	101.653	0.100
211.100	108.802	0.100
211.200	106.009	0.100
211.300	84.450	0.100
211.400	101.402	0.100
211.500	116.792	0.100
211.600	101.008	0.100
211.700	98.217	0.100
211.800	96.320	0.100
211.900	83.212	0.100
212.000	97.395	0.100
212.100	101.945	0.100
212.200	77.486	0.100
212.300	111.266	0.100
212.400	112.084	0.100
212.500	89.262	0.100
212.600	92.038	0.100
212.700	86.467	0.100
212.800	95.689	0.100
212.900	105.043	0.100
213.000	106.225	0.100
213.100	117.961	0.100
213.200	107.491	0.100
213.300	88.101	0.100
213.400	116.046	0.100
213.500	114.275	0.100
213.600	97.598	0.100
213.700	88.596	0.100
213.800	84.813	0.100
213.900	112.383	0.100
214.000	81.733	0.100
214.100	97.603	0.100
214.200	119.084	0.100
214.300	104.310	0.100
214.400	91.512	0.100
214.500	103.339	0.100
214.600	88.012	0.100
214.700	85.067	0.100
214.800	92.948	0.100
214.900	106.797	0.099
215.000	111.908	0.100
215.100	105.681	0.100
215.200	82.520	0.100
215.300	102.050	0.100
215.400	105.993	0.100
215.500	97.157	0.100
215.600	79.904	0.100
215.700	105.105	0.100
215.800	126.738	0.100
215.900	71.635	0.100
216.000	76.792	0.100
216.100	94.222	0.100
216.200	115.506	0.100
216.300	103.775	0.100
216.400	105.318	0.100
216.500	93.066	0.100
216.600	103.085	0.100
216.700	96.036	0.100
216.800	100.398	0.100
216.900	92.225	0.100
217.000	112.758	0.100
217.100	107.839	0.100
217.200	98.202	0.100
217.300	88.289	0.100
217.400	100.894	0.100
217.500	89.765	0.100
217.600	109.842	0.100
217.700	92.799	0.100
217.800	96.990	0.100
217.900	95.641	0.100
218.000	97.572	0.100
218.100	100.064	0.100
218.200	99.593	0.100
218.300	90.253	0.100
218.400	84.548	0.100
218.500	99.872	0.100
218.600	112.427	0.100
218.700	83.351	0.100
218.800	120.352	0.100
218.900	83.949	0.100
219.000	113.048	0.100
219.100	92.277	0.100
219.200	91.317	0.100
219.300	123.798	0.100
219.400	113.693	0.100
219.500	96.236	0.100
219.600	110.026	0.100
219.700	83.426	0.100
219.800	88.100	0.100
219.900	109.248	0.100
220.000	86.292	0.100
220.100	117.470	0.100
220.200	108.278	0.100
220.300	110.486	0.100
220.400	94.431	0.100
220.500	79.103	0.100
220.600	103.958	0.100
220.700	115.632	0.100
220.800	101.668	0.100
220.900	86.959	0.100
221.000	115.340	0.100
221.100	78.626	0.100
221.200	104.537	0.100
221.300	110.679	0.100
221.400	103.183	0.100
221.500	76.795	0.100
221.600	96.728	0.100
221.700	98.591	0.100
221.800	104.360	0.100
221.900	99.548	0.100
222.000	70.912	0.100
222.100	89.289	0.100
222.200	87.953	0.100
222.300	110.860	0.100
222.400	121.508	0.100
222.500	108.466	0.100
222.600	124.086	0.100
222.700	105.873	0.100
222.800	90.292	0.099
222.900	78.638	0.100
223.000	92.819	0.100
223.100	100.215	0.100
223.200	64.075	0.100
223.300	122.943	0.100
223.400	123.317	0.100
223.500	117.558	0.099
223.600	102.112	0.100
223.700	91.772	0.100
223.800	113.397	0.100
223.900	79.861	0.100
224.000	88.859	0.100
224.100	109.707	0.100
224.200	100.005	0.100
224.300	96.876	0.100
224.400	82.572	0.100
224.500	97.365	0.100
224.600	104.768	0.100
224.700	103.535	0.100
224.800	101.295	0.100
224.900	112.111	0.100
225.000	81.024	0.100
225.100	99.845	0.100
225.200	94.470	0.100
225.300	99.881	0.099
225.400	79.971	0.100
225.500	102.804	0.099
225.600	95.155	0.100
225.700	78.972	0.100
225.800	106.795	0.099
225.900	87.004	0.099
226.000	100.178	0.099
226.100	111.336	0.099
226.200	105.892	0.100
226.300	105.869	0.100
226.400	83.729	0.099
226.500	93.898	0.100
226.600	117.077	0.100
226.700	132.793	0.100
226.800	134.108	0.100
226.900	82.179	0.100
227.000	84.592	0.100
227.100	94.055	0.100
227.200	101.470	0.100
227.300	110.790	0.100
227.400	84.284	0.100
227.500	108.211	0.100
227.600	83.517	0.099
227.700	107.401	0.100
227.800	99.357	0.100
227.900	100.360	0.099
228.000	102.511	0.100
228.100	88.862	0.100
228.200	88.778	0.100
228.300	106.340	0.100
228.400	119.871	0.100
228.500	105.576	0.099
228.600	91.816	0.100
228.700	83.468	0.100
228.800	82.312	0.099
228.900	110.296	0.100
229.000	101.416	0.100
229.100	95.902	0.100
229.200	87.460	0.100
229.300	90.700	0.100
229.400	94.863	0.099
229.500	72.208	0.100
229.600	94.638	0.099
229.700	98.147	0.100
229.800	122.228	0.100
229.900	89.289	0.100
230.000	96.918	0.100
230.100	90.230	0.100
230.200	89.940	0.100
230.300	98.817	0.100
230.400	99.191	0.100
230.500	92.265	0.100
230.600	88.186	0.100
230.700	105.627	0.100
230.800	76.275	0.100
230.900	104.130	0.100
231.000	97.824	0.100
231.100	108.315	0.100
231.200	106.321	0.100
231.300	72.071	0.100
231.400	82.430	0.100
231.500	100.999	0.100
231.600	96.955	0.100
231.700	94.802	0.099
231.800	108.052	0.100
231.900	84.369	0.100
232.000	87.913	0.100
232.100	88.081	0.100
232.200	94.655	0.100
232.300	97.166	0.099
232.400	103.117	0.100
232.500	98.822	0.100
232.600	88.223	0.100
232.700	107.963	0.100
232.800	91.323	0.099
232.900	121.837	0.100
233.000	76.622	0.100
233.100	90.440	0.099
233.200	100.895	0.100
233.300	122.928	0.100
233.400	104.339	0.100
233.500	72.366	0.100
233.600	105.742	0.100
233.700	100.938	0.100
233.800	105.798	0.100
233.900	84.665	0.100
234.000	106.236	0.100
234.100	107.315	0.100
234.200	95.681	0.100
234.300	60.063	0.100
234.400	98.830	0.100
234.500	111.611	0.100
234.600	101.796	0.100
234.700	73.544	0.100
234.800	111.282	0.099
234.900	85.062	0.100
235.000	89.005	0.100
235.100	108.551	0.100
235.200	84.543	0.099
235.300	105.545	0.100
235.400	67.215	0.100
235.500	107.183	0.100
235.600	106.839	0.100
235.700	89.496	0.100
235.800	107.073	0.100
235.900	95.941	0.099
236.000	107.342	0.099
236.100	95.353	0.100
236.200	102.415	0.100
236.300	91.687	0.100
236.400	100.989	0.100
236.500	100.117	0.100
236.600	88.143	0.100
236.700	97.547	0.099
236.800	121.872	0.100
236.900	88.961	0.100
237.000	77.051	0.099
237.100	103.347	0.100
237.200	98.061	0.100
237.300	109.062	0.099
237.400	80.648	0.100
237.500	91.723	0.100
237.600	79.393	0.100
237.700	81.608	0.100
237.800	108.608	0.099
237.900	95.920	0.100
238.000	98.130	0.100
238.100	105.639	0.099
238.200	98.302	0.100
238.300	73.234	0.100
238.400	89.596	0.100
238.500	90.993	0.099
238.600	75.415	0.100
238.700	103.196	0.099
238.800	95.715	0.100
238.900	104.938	0.100
239.000	108.902	0.099
239.100	87.053	0.100
239.200	98.926	0.099
239.300	77.569	0.100
239.400	119.438	0.100
239.500	75.119	0.100
239.600	98.935	0.100
239.700	100.160	0.099
239.800	87.265	0.099
239.900	101.482	0.100
240.000	109.811	0.100
240.100	87.339	0.100
240.200	78.791	0.100
240.300	75.747	0.100
240.400	96.782	0.100
240.500	83.733	0.100
240.600	74.655	0.100
240.700	63.415	0.100
240.800	54.294	0.100
240.900	59.444	0.100
241.000	46.036	0.100
241.100	68.224	0.099
241.200	33.658	0.100
241.300	58.353	0.100
241.400	47.086	0.100
241.500	44.632	0.100
241.600	25.367	0.100
241.700	21.124	0.100
241.800	19.442	0.100
241.900	3.611	0.100
242.000	22.393	0.100
242.100	-2.346	0.100
242.200	9.205	0.100
242.300	41.196	0.100
242.400	24.061	0.100
242.500	-11.203	0.100
242.600	-19.022	0.100
242.700	5.171	0.100
242.800	12.305	0.100
242.900	14.358	0.100
243.000	-18.257	0.099
243.100	-19.843	0.100
243.200	-4.576	0.100
243.300	2.435	0.100
243.400	2.451	0.100
243.500	3.146	0.100
243.600	11.052	0.100
243.700	-11.258	0.100
243.800	-10.289	0.099
243.900	-6.434	0.100
244.000	1.697	0.100
244.100	-6.107	0.100
244.200	-20.909	0.100
244.300	-8.668	0.099
244.400	-11.857	0.099
244.500	-23.456	0.099
244.600	-26.949	0.100
244.700	-16.295	0.100
244.800	-8.469	0.100
244.900	-25.988	0.100
245.000	-8.706	0.100
245.100	4.643	0.100
245.200	0.640	0.100
245.300	-18.764	0.100
245.400	-15.935	0.100
245.500	-10.535	0.100
245.600	-14.115	0.100
245.700	-6.669	0.100
245.800	-10.071	0.100
245.900	-19.232	0.100
246.000	-25.395	0.100
246.100	-23.514	0.100
246.200	-1.813	0.100
246.300	-16.137	0.100
246.400	-16.558	0.100
246.500	-4.103	0.100
246.600	-0.450	0.100
246.700	-29.057	0.100
246.800	1.455	0.100
246.900	-36.689	0.099
247.000	-9.684	0.100
247.100	-24.001	0.100
247.200	2.745	0.100
247.300	-21.842	0.100
247.400	-13.972	0.100
247.500	-26.609	0.100
247.600	-19.271	0.100
247.700	-36.575	0.100
247.800	-19.950	0.100
247.900	-5.568	0.099
248.000	-18.555	0.100
248.100	-23.961	0.100
248.200	-54.228	0.099
248.300	-9.302	0.100
248.400	-29.317	0.100
248.500	-13.852	0.100
248.600	-30.332	0.100
248.700	-20.788	0.099
248.800	-31.919	0.100
248.900	-18.471	0.100
249.000	-20.279	0.099
249.100	-29.480	0.100
249.200	-24.084	0.100
249.300	-15.724	0.100
249.400	-29.011	0.100
249.500	-30.121	0.100
249.600	-23.796	0.100
249.700	-44.492	0.100
249.800	-36.704	0.100
249.900	-16.893	0.100
250.000	-21.143	0.100
250.100	-35.183	0.100
250.200	-17.059	0.100
250.300	-31.227	0.100
250.400	-37.263	0.100
250.500	-10.124	0.100
250.600	-28.514	0.100
250.700	-21.896	0.100
250.800	-15.789	0.100
250.900	-23.981	0.100
251.000	-34.344	0.100
251.100	-48.354	0.100
251.200	4.656	0.100
251.300	-12.125	0.100
251.400	-53.898	0.100
251.500	-34.900	0.100
251.600	-35.227	0.100
251.700	-20.856	0.100
251.800	-40.101	0.100
251.900	-27.516	0.100
252.000	-23.998	0.100
252.100	-28.213	0.100
252.200	-45.081	0.099
252.300	-31.580	0.100
252.400	-24.136	0.100
252.500	-13.980	0.100
252.600	-39.263	0.100
252.700	-46.643	0.099
252.800	-29.947	0.100
252.900	-29.021	0.100
253.000	-34.095	0.100
253.100	-25.376	0.100
253.200	-37.222	0.100
253.300	-55.554	0.100
253.400	-16.346	0.100
253.500	-9.927	0.099
253.600	-25.677	0.100
253.700	-53.218	0.099
253.800	-53.832	0.100
253.900	-4.276	0.100
254.000	-32.125	0.099
254.100	-25.411	0.100
254.200	-45.396	0.100
254.300	-20.310	0.100
254.400	-52.953	0.100
254.500	-46.218	0.099
254.600	-50.538	0.100
254.700	-26.346	0.099
254.800	-21.924	0.100
254.900	-14.841	0.100
255.000	-38.736	0.100
255.100	-66.610	0.100
255.200	-35.428	0.100
255.300	-9.933	0.100
255.400	-27.555	0.100
255.500	-47.247	0.100
255.600	-37.077	0.100
255.700	-37.530	0.100
255.800	-33.477	0.100
255.900	-49.069	0.100
256.000	-43.089	0.100
256.100	-25.602	0.100
256.200	-35.346	0.099
256.300	-45.387	0.100
256.400	-18.096	0.100
256.500	-18.896	0.100
256.600	-46.006	0.100
256.700	-30.319	0.100
256.800	-26.672	0.100
256.900	-56.761	0.099
257.000	-59.305	0.100
257.100	-40.309	0.100
257.200	-30.719	0.099
257.300	-33.249	0.100
257.400	-53.638	0.099
257.500	-43.663	0.100
257.600	-45.797	0.100
257.700	-44.240	0.099
257.800	-41.573	0.100
257.900	-22.710	0.100
258.000	-27.525	0.100
258.100	-31.993	0.100
258.200	-43.231	0.100
258.300	-36.506	0.100
258.400	-37.589	0.100
258.500	-42.243	0.100
258.600	-42.577	0.100
258.700	-43.210	0.100
258.800	-18.480	0.100
258.900	-43.533	0.099
259.000	-43.172	0.100
259.100	-34.113	0.100
259.200	-42.918	0.099
259.300	-57.813	0.100
259.400	-43.566	0.100
259.500	-42.223	0.100
259.600	-30.231	0.100
259.700	-43.805	0.100
259.800	-54.317	0.100
259.900	-39.085	0.100
260.000	-45.418	0.100
260.100	-60.508	0.099
260.200	-28.688	0.100
260.300	-27.922	0.099
260.400	-51.527	0.100
260.500	-42.363	0.100
260.600	-63.500	0.100
260.700	-43.652	0.100
260.800	-37.786	0.099
260.900	-21.382	0.100
261.000	-36.995	0.100
261.100	-49.043	0.100
261.200	-52.611	0.100
261.300	-44.680	0.100
261.400	-58.704	0.100
261.500	-42.895	0.099
261.600	-47.506	0.100
261.700	-9.892	0.100
261.800	-61.933	0.099
261.900	-53.720	0.100
262.000	-44.023	0.100
262.100	-40.705	0.100
262.200	-49.796	0.100
262.300	-57.233	0.100
262.400	-44.313	0.100
262.500	-47.412	0.100
262.600	-39.196	0.100
262.700	-58.013	0.100
262.800	-45.919	0.100
262.900	-33.615	0.100
263.000	-47.675	0.100
263.100	-35.795	0.100
263.200	-45.499	0.100
263.300	-52.881	0.100
263.400	-45.952	0.100
263.500	-59.475	0.100
263.600	-54.362	0.100
263.700	-30.914	0.100
263.800	-41.098	0.100
263.900	-45.116	0.100
264.000	-43.437	0.100
264.100	-52.816	0.099
264.200	-33.170	0.100
264.300	-52.924	0.100
264.400	-53.966	0.100
264.500	-36.710	0.100
264.600	-58.253	0.100
264.700	-29.754	0.100
264.800	-47.942	0.100
264.900	-45.481	0.100
265.000	-71.104	0.100
265.100	-43.833	0.100
265.200	-51.604	0.100
265.300	-57.356	0.099
265.400	-42.015	0.100
265.500	-56.953	0.100
265.600	-53.367	0.100
265.700	-35.589	0.100
265.800	-66.417	0.100
265.900	-61.560	0.100
266.000	-56.371	0.100
266.100	-65.328	0.100
266.200	-37.147	0.099
266.300	-33.268	0.100
266.400	-53.621	0.100
266.500	-38.419	0.100
266.600	-67.188	0.100
266.700	-38.974	0.100
266.800	-48.034	0.100
266.900	-51.265	0.099
267.000	-41.526	0.100
267.100	-45.829	0.099
267.200	-69.763	0.100
267.300	-48.980	0.100
267.400	-26.420	0.100
267.500	-45.579	0.100
267.600	-28.311	0.100
267.700	-60.715	0.100
267.800	-66.554	0.099
267.900	-42.502	0.100
268.000	-53.488	0.100
268.100	-44.877	0.100
268.200	-52.614	0.100
268.300	-63.026	0.099
268.400	-25.720	0.100
268.500	-51.259	0.099
268.600	-66.115	0.100
268.700	-37.777	0.100
268.800	-41.329	0.100
268.900	-51.456	0.100
269.000	-50.081	0.100
269.100	-55.864	0.100
269.200	-42.147	0.099
269.300	-49.014	0.100
269.400	-45.248	0.099
269.500	-44.719	0.100
269.600	-49.894	0.100
269.700	-53.049	0.099
269.800	-42.922	0.100
269.900	-38.782	0.099
270.000	-64.744	0.100
270.100	-54.993	0.099
270.200	-53.862	0.100
270.300	-11.654	0.100
270.400	-57.662	0.100
270.500	-46.817	0.100
270.600	-50.613	0.100
270.700	-50.758	0.100
270.800	-59.279	0.100
270.900	-50.958	0.100
271.000	-40.266	0.100
271.100	-62.283	0.100
271.200	-52.607	0.100
271.300	-24.197	0.100
271.400	-44.764	0.100
271.500	-58.513	0.100
271.600	-61.483	0.100
271.700	-46.838	0.100
271.800	-61.149	0.100
271.900	-32.851	0.099
272.000	-83.625	0.100
272.100	-59.083	0.100
272.200	-41.575	0.100
272.300	-44.241	0.100
272.400	-46.160	0.099
272.500	-63.100	0.100
272.600	-59.340	0.099
272.700	-46.014	0.099
272.800	-54.892	0.100
272.900	-56.758	0.100
273.000	-57.110	0.100
273.100	-44.195	0.099
273.200	-67.783	0.099
273.300	-36.329	0.099
273.400	-62.515	0.100
273.500	-43.025	0.099
273.600	-41.252	0.100
273.700	-55.383	0.099
273.800	-51.590	0.100
273.900	-62.550	0.099
274.000	-32.400	0.100
274.100	-47.059	0.100
274.200	-39.931	0.100
274.300	-36.112	0.100
274.400	-61.505	0.099
274.500	-61.538	0.100
274.600	-55.651	0.099
274.700	-57.949	0.100
274.800	-52.880	0.100
274.900	-25.185	0.099
275.000	-47.287	0.100
275.100	-49.289	0.099
275.200	-48.415	0.100
275.300	-25.507	0.100
275.400	-62.812	0.100
275.500	-57.553	0.099
275.600	-69.056	0.100
275.700	-41.234	0.100
275.800	-41.637	0.100
275.900	-44.195	0.099
276.000	-54.280	0.100
276.100	-46.336	0.100
276.200	-54.177	0.100
276.300	-42.976	0.100
276.400	-46.990	0.100
276.500	-43.994	0.100
276.600	-55.101	0.099
276.700	-47.259	0.100
276.800	-56.016	0.099
276.900	-41.164	0.100
277.000	-59.047	0.100
277.100	-37.726	0.099
277.200	-48.939	0.100
277.300	-65.609	0.099
277.400	-37.618	0.099
277.500	-44.136	0.099
277.600	-42.475	0.100
277.700	-73.380	0.099
277.800	-84.979	0.100
277.900	-25.857	0.099
278.000	-45.381	0.100
278.100	-32.300	0.099
278.200	-59.335	0.100
278.300	-56.540	0.100
278.400	-38.766	0.099
278.500	-34.955	0.100
278.600	-68.462	0.099
278.700	-63.562	0.099
278.800	-54.356	0.099
278.900	-32.352	0.099
279.000	-32.910	0.099
279.100	-64.389	0.099
279.200	-32.819	0.100
279.300	-46.826	0.099
279.400	-35.156	0.100
279.500	-61.622	0.099
279.600	-41.245	0.100
279.700	-34.027	0.099
279.800	-35.979	0.100
279.900	-40.394	0.099
280.000	-50.949	0.100
280.100	-59.844	0.099
280.200	-70.801	0.100
280.300	-51.715	0.099
280.400	-46.374	0.099
280.500	-44.291	0.099
280.600	-46.856	0.099
280.700	-54.249	0.099
280.800	-51.852	0.100
280.900	-49.501	0.099
281.000	-42.940	0.099
281.100	-30.596	0.099
281.200	-68.468	0.099
281.300	-48.146	0.100
281.400	-57.139	0.099
281.500	-27.996	0.099
281.600	-58.185	0.099
281.700	-60.301	0.100
281.800	-55.392	0.099
281.900	-43.390	0.100
282.000	-47.534	0.099
282.100	-57.948	0.099
282.200	-50.663	0.100
282.300	-19.278	0.099
282.400	-54.332	0.100
282.500	-40.943	0.099
282.600	-39.146	0.100
282.700	-45.247	0.099
282.800	-38.030	0.099
282.900	-49.260	0.099
283.000	-41.105	0.099
283.100	-47.174	0.099
283.200	-43.396	0.099
283.300	-65.349	0.099
283.400	-44.715	0.099
283.500	-47.308	0.099
283.600	-56.234	0.100
283.700	-54.393	0.099
283.800	-42.344	0.099
283.900	-20.533	0.099
284.000	-41.329	0.099
284.100	-40.208	0.099
284.200	-39.846	0.099
284.300	-23.962	0.099
284.400	-51.108	0.099
284.500	-46.405	0.099
284.600	-55.493	0.099
284.700	-38.096	0.100
284.800	-61.664	0.100
284.900	-60.366	0.099
285.000	-24.485	0.099
285.100	-39.450	0.099
285.200	-30.060	0.099
285.300	-64.545	0.099
285.400	-61.546	0.100
285.500	-29.468	0.099
285.600	-51.048	0.099
285.700	-35.095	0.099
285.800	-35.246	0.100
285.900	-52.647	0.099
286.000	-63.506	0.099
286.100	-23.292	0.099
286.200	-72.788	0.100
286.300	-43.913	0.099
286.400	-11.302	0.100
286.500	-47.565	0.099
286.600	-65.325	0.100
286.700	-49.378	0.099
286.800	-48.188	0.099
286.900	-38.892	0.100
287.000	-32.271	0.099
287.100	-47.251	0.099
287.200	-42.067	0.099
287.300	-60.876	0.099
287.400	-39.151	0.099
287.500	-62.046	0.099
287.600	-53.102	0.099
287.700	-43.281	0.099
287.800	-36.744	0.099
287.900	-47.709	0.099
288.000	-25.632	0.099
288.100	-29.800	0.100
288.200	-62.477	0.099
288.300	-44.258	0.099
288.400	-68.088	0.099
288.500	-62.065	0.099
288.600	-34.665	0.099
288.700	-36.137	0.099
288.800	-46.645	0.099
288.900	-50.833	0.099
289.000	-35.115	0.099
289.100	-45.892	0.099
289.200	-61.254	0.099
289.300	-34.869	0.100
289.400	-54.688	0.099
289.500	-33.025	0.099
289.600	-44.789	0.099
289.700	-30.253	0.099
289.800	-43.120	0.099
289.900	-35.576	0.099
290.000	-74.773	0.099
290.100	-21.895	0.099
290.200	-37.578	0.099
290.300	-56.896	0.099
290.400	-51.809	0.099
290.500	-43.613	0.099
290.600	-44.808	0.099
290.700	-48.285	0.099
290.800	-53.136	0.099
290.900	-41.540	0.099
291.000	-51.081	0.099
291.100	-40.902	0.099
291.200	-25.620	0.099
291.300	-34.833	0.099
291.400	-42.249	0.099
291.500	-55.982	0.099
291.600	-42.778	0.099
291.700	-46.874	0.099
291.800	-35.580	0.099
291.900	-22.672	0.099
292.000	-61.358	0.099
292.100	-36.348	0.099
292.200	-33.142	0.099
292.300	-51.035	0.099
292.400	-53.920	0.099
292.500	-33.957	0.099
292.600	-48.195	0.099
292.700	-29.729	0.099
292.800	-35.320	0.099
292.900	-62.143	0.099
293.000	-46.646	0.099
293.100	-37.580	0.099
293.200	-61.251	0.099
293.300	-35.299	0.099
293.400	-54.863	0.099
293.500	-40.509	0.099
293.600	-31.227	0.099
293.700	-26.409	0.099
293.800	-53.768	0.099
293.900	-27.836	0.099
294.000	-32.397	0.099
294.100	-40.942	0.099
294.200	-49.440	0.099
294.300	-24.375	0.099
294.400	-37.809	0.099
294.500	-50.024	0.099
294.600	-50.444	0.099
294.700	-52.007	0.099
294.800	-45.724	0.099
294.900	-18.162	0.099
295.000	-27.008	0.099
295.100	-40.024	0.099
295.200	-53.013	0.099
295.300	-41.530	0.099
295.400	-25.622	0.099
295.500	-33.975	0.099
295.600	-40.897	0.099
295.700	-33.337	0.099
295.800	-49.483	0.099
295.900	-74.302	0.099
296.000	-47.378	0.099
296.100	-6.947	0.099
296.200	-39.519	0.099
296.300	-51.261	0.099
296.400	-25.351	0.099
296.500	-48.443	0.099
296.600	-50.962	0.099
296.700	-26.321	0.099
296.800	-35.074	0.099
296.900	-45.226	0.099
297.000	-40.990	0.099
297.100	-62.993	0.099
297.200	-42.494	0.099
297.300	-37.686	0.099
297.400	-38.873	0.099
297.500	-65.677	0.099
297.600	-42.729	0.099
297.700	-17.876	0.099
297.800	-39.555	0.099
297.900	-32.483	0.099
298.000	-23.227	0.099
298.100	-60.334	0.099
298.200	-49.325	0.099
298.300	-35.745	0.099
298.400	-36.499	0.099
298.500	-48.128	0.099
298.600	-42.696	0.099
298.700	-38.902	0.099
298.800	-40.788	0.099
298.900	-43.785	0.099
299.000	-37.315	0.099
299.100	-50.339	0.099
299.200	-34.514	0.099
299.300	-51.676	0.099
299.400	-38.593	0.099
299.500	-37.547	0.099
299.600	-44.826	0.099
299.700	-27.090	0.099
299.800	-46.943	0.099
299.900	-52.183	0.099
300.000	-30.449	0.099
300.100	-21.294	0.099
300.200	-42.065	0.099
300.300	-47.257	0.099
300.400	-27.979	0.099
300.500	-39.832	0.099
300.600	-40.364	0.099
300.700	-35.257	0.099
300.800	-43.482	0.099
300.900	-24.446	0.099
301.000	-57.302	0.099
301.100	-58.374	0.099
301.200	-50.422	0.099
301.300	-25.645	0.099
301.400	-29.263	0.099
301.500	-43.756	0.099
301.600	-36.847	0.099
301.700	-28.355	0.099
301.800	-29.435	0.099
301.900	-25.357	0.099
302.000	-63.667	0.099
302.100	-41.855	0.099
302.200	-43.408	0.099
302.300	-56.730	0.099
302.400	-32.847	0.099
302.500	-40.401	0.099
302.600	-29.073	0.099
302.700	-38.067	0.099
302.800	-47.475	0.099
302.900	-32.088	0.099
303.000	-23.435	0.099
303.100	-33.078	0.099
303.200	-44.760	0.099
303.300	-66.468	0.099
303.400	-22.879	0.099
303.500	-12.421	0.099
303.600	-61.672	0.099
303.700	-45.763	0.099
303.800	-35.606	0.099
303.900	-18.366	0.099
304.000	-30.435	0.099
304.100	-46.649	0.099
304.200	-38.212	0.099
304.300	-46.349	0.099
304.400	-38.430	0.099
304.500	-36.252	0.099
304.600	-38.719	0.099
304.700	-57.062	0.099
304.800	-40.989	0.099
304.900	-47.547	0.099
305.000	-41.649	0.099
305.100	-21.666	0.099
305.200	-32.598	0.099
305.300	-34.390	0.099
305.400	-33.431	0.099
305.500	-47.740	0.099
305.600	-47.676	0.099
305.700	-40.895	0.099
305.800	-27.084	0.099
305.900	-50.805	0.099
306.000	-40.462	0.099
306.100	-45.994	0.099
306.200	-39.535	0.099
306.300	-45.182	0.099
306.400	-34.100	0.099
306.500	-40.936	0.099
306.600	-34.507	0.099
306.700	-34.875	0.099
306.800	-12.897	0.099
306.900	-50.337	0.099
307.000	-25.305	0.099
307.100	-36.968	0.099
307.200	-52.055	0.099
307.300	-44.654	0.099
307.400	-46.238	0.099
307.500	-21.734	0.099
307.600	-34.213	0.099
307.700	-38.649	0.099
307.800	-47.312	0.099
307.900	-35.468	0.099
308.000	-44.374	0.099
308.100	-21.861	0.099
308.200	-43.730	0.099
308.300	-33.637	0.099
308.400	-30.536	0.099
308.500	-29.300	0.099
308.600	-15.504	0.099
308.700	-17.616	0.099
308.800	-26.792	0.099
308.900	-40.410	0.099
309.000	-44.675	0.099
309.100	-43.493	0.099
309.200	-43.492	0.099
309.300	-23.548	0.099
309.400	-42.415	0.099
309.500	-15.328	0.099
309.600	-44.526	0.099
309.700	-54.147	0.099
309.800	-36.493	0.099
309.900	-25.240	0.099
310.000	-44.011	0.099
310.100	-32.848	0.099
310.200	-37.872	0.099
310.300	-32.127	0.099
310.400	-37.805	0.099
310.500	-49.566	0.099
310.600	-27.595	0.099
310.700	-39.346	0.099
310.800	-37.119	0.099
310.900	-32.356	0.099
311.000	-29.374	0.099
311.100	-51.993	0.099
311.200	-20.370	0.099
311.300	-46.181	0.099
311.400	-43.988	0.099
311.500	-34.292	0.099
311.600	-25.435	0.099
311.700	-30.410	0.099
311.800	-37.836	0.099
311.900	-41.362	0.099
312.000	-21.784	0.099
312.100	-31.832	0.099
312.200	-40.743	0.099
312.300	-36.437	0.099
312.400	-17.332	0.099
312.500	-23.264	0.099
312.600	-29.972	0.099
312.700	-57.312	0.099
312.800	-33.782	0.099
312.900	-34.384	0.099
313.000	-39.840	0.099
313.100	-36.082	0.099
313.200	-38.364	0.099
313.300	-39.593	0.099
313.400	-42.423	0.099
313.500	-24.249	0.099
313.600	-30.460	0.099
313.700	-32.796	0.099
313.800	-52.457	0.099
313.900	-44.847	0.099
314.000	-28.444	0.099
314.100	-9.475	0.099
314.200	-44.840	0.099
314.300	-56.054	0.099
314.400	-44.880	0.099
314.500	-29.439	0.099
314.600	-39.316	0.099
314.700	-37.131	0.099
314.800	-23.938	0.099
314.900	-16.604	0.099
315.000	-47.192	0.099
315.100	-28.472	0.099
315.200	-25.084	0.099
315.300	-47.959	0.099
315.400	-18.864	0.099
315.500	-36.143	0.099
315.600	-34.828	0.099
315.700	-23.739	0.099
315.800	-27.810	0.099
315.900	-56.660	0.099
316.000	-43.298	0.099
316.100	-23.888	0.099
316.200	-37.336	0.099
316.300	-42.491	0.099
316.400	-27.168	0.099
316.500	-44.643	0.099
316.600	-47.088	0.099
316.700	-24.300	0.099
316.800	-39.419	0.099
316.900	-36.387	0.099
317.000	-29.760	0.099
317.100	-60.620	0.099
317.200	-26.734	0.099
317.300	-24.341	0.099
317.400	-40.754	0.099
317.500	-55.976	0.099
317.600	-33.917	0.099
317.700	-50.890	0.099
317.800	-24.965	0.099
317.900	-37.536	0.099
318.000	-37.912	0.099
318.100	-27.510	0.099
318.200	-36.184	0.099
318.300	-29.773	0.099
318.400	-40.908	0.099
318.500	-30.154	0.099
318.600	-26.324	0.099
318.700	-45.886	0.099
318.800	-49.067	0.099
318.900	-16.101	0.099
319.000	-32.696	0.099
319.100	-32.137	0.099
319.200	-44.680	0.099
319.300	-30.490	0.099
319.400	-34.049	0.099
319.500	-26.667	0.099
319.600	-37.618	0.099
319.700	-60.145	0.099
319.800	-30.875	0.099
319.900	-28.933	0.099
320.000	-35.686	0.099
320.100	-11.142	0.099
320.200	-12.205	0.099
320.300	-20.495	0.099
320.400	-58.589	0.099
320.500	-47.404	0.099
320.600	-34.378	0.099
320.700	-25.534	0.099
320.800	-34.655	0.099
320.900	-44.522	0.099
321.000	-1.735	0.099
321.100	-33.196	0.099
321.200	-23.501	0.099
321.300	-40.488	0.099
321.400	-41.764	0.099
321.500	-26.748	0.099
321.600	-31.182	0.099
321.700	-24.425	0.099
321.800	-34.087	0.099
321.900	-20.454	0.099
322.000	-41.595	0.099
322.100	-51.727	0.099
322.200	-37.072	0.099
322.300	-33.410	0.099
322.400	-29.217	0.099
322.500	-19.426	0.099
322.600	-26.864	0.099
322.700	-39.024	0.099
322.800	-43.018	0.099
322.900	-37.759	0.099
323.000	-33.276	0.099
323.100	-44.470	0.099
323.200	-31.377	0.099
323.300	-15.952	0.099
323.400	-32.160	0.099
323.500	-38.790	0.099
323.600	-17.478	0.099
323.700	-28.539	0.099
323.800	-29.148	0.099
323.900	-58.431	0.099
324.000	-39.277	0.099
324.100	-35.225	0.099
324.200	-14.604	0.099
324.300	-18.458	0.099
324.400	-33.830	0.099
324.500	-28.732	0.099
324.600	-31.234	0.099
324.700	-49.531	0.099
324.800	-30.668	0.099
324.900	-14.769	0.099
325.000	-29.144	0.099
325.100	-43.985	0.099
325.200	-41.559	0.099
325.300	-29.517	0.099
325.400	-27.745	0.099
325.500	-38.750	0.099
325.600	-22.330	0.099
325.700	-24.873	0.099
325.800	-42.872	0.099
325.900	-36.782	0.099
326.000	-39.929	0.099
326.100	-29.498	0.099
326.200	-29.043	0.099
326.300	-37.868	0.099
326.400	-32.880	0.099
326.500	-45.455	0.099
326.600	-46.559	0.099
326.700	-21.853	0.099
326.800	-22.290	0.099
326.900	-26.908	0.099
327.000	-32.856	0.099
327.100	-57.624	0.099
327.200	-26.824	0.099
327.300	-21.683	0.099
327.400	-32.430	0.099
327.500	-37.771	0.099
327.600	-19.983	0.099
327.700	-50.542	0.099
327.800	-41.052	0.099
327.900	-32.427	0.099
328.000	-9.524	0.099
328.100	-35.015	0.099
328.200	-27.133	0.099
328.300	-32.119	0.099
328.400	-22.694	0.099
328.500	-45.337	0.099
328.600	-32.766	0.099
328.700	-22.175	0.099
328.800	-29.194	0.099
328.900	-17.958	0.099
329.000	-35.126	0.099
329.100	-53.512	0.099
329.200	-53.670	0.099
329.300	-22.086	0.099
329.400	-46.024	0.099
329.500	-36.541	0.099
329.600	-32.300	0.099
329.700	-35.603	0.099
329.800	-24.308	0.099
329.900	-45.909	0.099
330.000	-43.156	0.099
330.100	-22.212	0.099
330.200	-46.804	0.099
330.300	-24.998	0.099
330.400	-29.877	0.099
330.500	-28.400	0.099
330.600	-16.517	0.099
330.700	20.394	0.099
330.800	-5.590	0.099
330.900	-14.264	0.099
331.000	17.076	0.099
331.100	25.302	0.099
331.200	14.385	0.099
331.300	23.651	0.099
331.400	14.088	0.099
331.500	26.197	0.099
331.600	38.891	0.099
331.700	12.891	0.099
331.800	55.395	0.099
331.900	58.258	0.099
332.000	30.325	0.099
332.100	14.599	0.099
332.200	59.820	0.099
332.300	37.413	0.099
332.400	32.867	0.099
332.500	27.808	0.099
332.600	49.686	0.099
332.700	67.501	0.099
332.800	25.254	0.099
332.900	25.886	0.099
333.000	38.379	0.099
333.100	52.438	0.099
333.200	37.164	0.099
333.300	40.952	0.099
333.400	45.767	0.099
333.500	27.578	0.099
333.600	30.741	0.099
333.700	14.931	0.099
333.800	18.721	0.099
333.900	55.752	0.099
334.000	42.432	0.099
334.100	18.900	0.099
334.200	12.436	0.099
334.300	34.404	0.099
334.400	35.781	0.099
334.500	21.978	0.099
334.600	21.185	0.099
334.700	5.808	0.099
334.800	52.007	0.099
334.900	31.748	0.099
335.000	24.461	0.099
335.100	33.205	0.099
335.200	29.183	0.099
335.300	32.136	0.099
335.400	36.810	0.099
335.500	7.462	0.099
335.600	26.196	0.099
335.700	12.042	0.099
335.800	25.479	0.099
335.900	44.176	0.099
336.000	42.087	0.099
336.100	33.921	0.099
336.200	44.275	0.099
336.300	38.579	0.099
336.400	51.504	0.099
336.500	44.739	0.099
336.600	39.660	0.099
336.700	45.395	0.099
336.800	44.059	0.099
336.900	17.034	0.099
337.000	26.254	0.099
337.100	56.281	0.099
337.200	57.366	0.099
337.300	29.577	0.099
337.400	38.102	0.099
337.500	53.928	0.099
337.600	53.059	0.099
337.700	30.339	0.099
337.800	61.216	0.099
337.900	34.150	0.099
338.000	57.118	0.099
338.100	64.533	0.099
338.200	58.906	0.099
338.300	33.339	0.099
338.400	64.302	0.099
338.500	58.490	0.099
338.600	46.967	0.099
338.700	62.114	0.099
338.800	67.711	0.099
338.900	64.499	0.099
339.000	72.314	0.099
339.100	76.280	0.099
339.200	52.383	0.099
339.300	51.476	0.099
339.400	56.871	0.099
339.500	76.528	0.099
339.600	67.163	0.099
339.700	84.829	0.099
339.800	75.968	0.099
339.900	86.175	0.099
340.000	71.258	0.099
340.100	71.617	0.099
340.200	88.907	0.099
340.300	64.405	0.099
340.400	72.092	0.099
340.500	79.806	0.099
340.600	96.907	0.099
340.700	95.979	0.099
340.800	83.274	0.099
340.900	82.935	0.099
341.000	91.184	0.099
341.100	94.679	0.099
341.200	87.671	0.099
341.300	92.321	0.099
341.400	98.771	0.099
341.500	91.096	0.099
341.600	102.589	0.099
341.700	88.838	0.099
341.800	122.624	0.099
341.900	106.167	0.099
342.000	104.044	0.099
342.100	106.673	0.099
342.200	95.176	0.099
342.300	99.476	0.099
342.400	108.978	0.099
342.500	115.790	0.099
342.600	92.463	0.099
342.700	119.238	0.099
342.800	115.701	0.099
342.900	115.481	0.099
343.000	97.476	0.099
343.100	109.717	0.099
343.200	101.026	0.099
343.300	120.242	0.099
343.400	104.515	0.099
343.500	104.490	0.099
343.600	111.695	0.099
343.700	109.973	0.099
343.800	116.209	0.099
343.900	125.954	0.099
344.000	107.119	0.099
344.100	116.184	0.099
344.200	137.126	0.099
344.300	124.928	0.099
344.400	101.815	0.099
344.500	121.707	0.099
344.600	109.061	0.099
344.700	109.818	0.099
344.800	114.517	0.099
344.900	109.512	0.099
345.000	126.625	0.099
345.100	125.699	0.099
345.200	121.667	0.099
345.300	115.263	0.099
345.400	127.052	0.099
345.500	124.176	0.099
345.600	117.592	0.099
345.700	149.013	0.099
345.800	105.218	0.099
345.900	118.580	0.099
346.000	103.563	0.099
346.100	121.977	0.099
346.200	103.062	0.099
346.300	138.323	0.099
346.400	137.928	0.099
346.500	121.203	0.099
346.600	113.880	0.099
346.700	124.059	0.099
346.800	119.311	0.099
346.900	110.351	0.099
347.000	118.086	0.099
347.100	115.064	0.099
347.200	119.675	0.099
347.300	112.306	0.099
347.400	122.951	0.099
347.500	115.692	0.099
347.600	137.139	0.099
347.700	106.289	0.099
347.800	125.704	0.099
347.900	94.155	0.099
348.000	115.161	0.099
348.100	108.705	0.099
348.200	125.087	0.099
348.300	114.910	0.099
348.400	130.659	0.099
348.500	99.013	0.099
348.600	115.280	0.099
348.700	117.173	0.099
348.800	112.663	0.099
348.900	120.167	0.099
349.000	120.713	0.099
349.100	109.174	0.099
349.200	124.016	0.099
349.300	115.365	0.099
349.400	101.901	0.099
349.500	110.015	0.099
349.600	128.322	0.099
349.700	104.537	0.099
349.800	115.824	0.099
349.900	119.688	0.099
350.000	109.521	0.099
350.100	122.182	0.099
350.200	114.444	0.099
350.300	103.570	0.099
350.400	101.462	0.099
350.500	96.459	0.099
350.600	128.592	0.099
350.700	137.201	0.099
350.800	100.307	0.099
350.900	125.058	0.099
351.000	112.303	0.099
351.100	116.782	0.099
351.200	109.641	0.099
351.300	107.645	0.099
351.400	109.808	0.099
351.500	124.991	0.099
351.600	96.682	0.099
351.700	123.021	0.099
351.800	85.426	0.099
351.900	106.254	0.099
352.000	121.883	0.099
352.100	119.768	0.099
352.200	117.728	0.099
352.300	137.646	0.099
352.400	112.435	0.099
352.500	105.580	0.099
352.600	87.408	0.099
352.700	116.888	0.099
352.800	118.203	0.099
352.900	117.044	0.099
353.000	137.019	0.099
353.100	113.297	0.099
353.200	119.991	0.099
353.300	122.610	0.099
353.400	83.817	0.099
353.500	123.015	0.099
353.600	120.137	0.099
353.700	104.672	0.099
353.800	113.340	0.099
353.900	105.803	0.099
354.000	113.459	0.099
354.100	101.190	0.099
354.200	113.152	0.099
354.300	115.265	0.099
354.400	113.772	0.099
354.500	89.144	0.099
354.600	115.303	0.099
354.700	146.898	0.099
354.800	96.791	0.099
354.900	98.318	0.099
355.000	124.220	0.099
355.100	110.207	0.099
355.200	91.061	0.099
355.300	116.192	0.099
355.400	100.023	0.099
355.500	94.470	0.099
355.600	108.868	0.099
355.700	120.942	0.099
355.800	113.495	0.099
355.900	100.420	0.099
356.000	130.082	0.099
356.100	101.136	0.099
356.200	102.547	0.099
356.300	109.210	0.099
356.400	122.787	0.099
356.500	102.059	0.099
356.600	112.471	0.099
356.700	102.580	0.099
356.800	101.807	0.099
356.900	95.870	0.099
357.000	104.760	0.099
357.100	100.714	0.099
357.200	88.870	0.099
357.300	109.591	0.099
357.400	110.094	0.099
357.500	114.366	0.099
357.600	129.752	0.099
357.700	116.978	0.099
357.800	104.622	0.099
357.900	94.063	0.099
358.000	122.441	0.099
358.100	115.499	0.099
358.200	86.074	0.099
358.300	121.422	0.099
358.400	127.242	0.099
358.500	98.105	0.099
358.600	121.894	0.099
358.700	104.135	0.099
358.800	94.672	0.099
358.900	86.781	0.099
359.000	110.180	0.099
359.100	95.887	0.099
359.200	105.240	0.099
359.300	116.458	0.099
359.400	100.050	0.099
359.500	89.921	0.099
359.600	107.029	0.099
359.700	125.301	0.099
359.800	108.236	0.099
359.900	115.503	0.099
360.000	95.699	0.099
360.100	95.822	0.099
360.200	113.363	0.099
360.300	117.210	0.099
360.400	101.360	0.099
360.500	105.568	0.099
360.600	98.544	0.099
360.700	109.265	0.099
360.800	107.119	0.099
360.900	116.421	0.099
361.000	78.694	0.099
361.100	122.129	0.099
361.200	101.851	0.099
361.300	107.844	0.099
361.400	113.059	0.099
361.500	105.713	0.099
361.600	94.026	0.099
361.700	120.306	0.099
361.800	110.553	0.099
361.900	117.311	0.099
362.000	98.594	0.099
362.100	90.073	0.099
362.200	131.472	0.100
362.300	109.038	0.099
362.400	120.480	0.100
362.500	106.612	0.100
362.600	109.762	0.099
362.700	112.692	0.100
362.800	101.421	0.099
362.900	109.644	0.100
363.000	89.116	0.100
363.100	136.630	0.099
363.200	119.962	0.100
363.300	102.095	0.099
363.400	106.877	0.099
363.500	83.528	0.100
363.600	106.744	0.100
363.700	98.490	0.100
363.800	118.016	0.100
363.900	97.275	0.100
364.000	123.193	0.100
364.100	137.733	0.100
364.200	99.485	0.100
364.300	100.002	0.100
364.400	116.570	0.100
364.500	75.255	0.100
364.600	92.603	0.100
364.700	114.556	0.100
364.800	89.070	0.100
364.900	103.957	0.100
365.000	90.370	0.100
365.100	108.906	0.100
365.200	113.453	0.100
365.300	93.276	0.100
365.400	112.169	0.100
365.500	86.875	0.100
365.600	109.399	0.100
365.700	120.832	0.100
365.800	105.806	0.100
365.900	79.803	0.100
366.000	109.169	0.100
366.100	115.502	0.100
366.200	101.142	0.100
366.300	82.674	0.100
366.400	114.295	0.100
366.500	116.391	0.100
366.600	100.904	0.100
366.700	113.120	0.100
366.800	97.689	0.100
366.900	103.384	0.100
367.000	110.304	0.100
367.100	115.272	0.100
367.200	97.113	0.100
367.300	109.096	0.100
367.400	116.794	0.100
367.500	91.083	0.100
367.600	98.349	0.100
367.700	136.672	0.100
367.800	101.396	0.100
367.900	91.357	0.100
368.000	89.788	0.100
368.100	91.274	0.100
368.200	107.040	0.100
368.300	101.750	0.100
368.400	96.895	0.100
368.500	116.783	0.100
368.600	102.541	0.100
368.700	122.609	0.100
368.800	124.489	0.100
368.900	98.741	0.100
369.000	102.361	0.100
369.100	100.210	0.100
369.200	121.487	0.100
369.300	100.279	0.100
369.400	105.134	0.100
369.500	115.341	0.100
369.600	104.212	0.100
369.700	95.455	0.100
369.800	103.804	0.100
369.900	103.783	0.100
370.000	104.888	0.100
370.100	114.766	0.100
370.200	102.435	0.100
370.300	90.862	0.100
370.400	117.730	0.100
370.500	113.459	0.100
370.600	95.772	0.100
370.700	100.078	0.100
370.800	76.585	0.100
370.900	112.466	0.100
371.000	100.662	0.100
371.100	95.725	0.100
371.200	101.017	0.100
371.300	126.585	0.100
371.400	109.000	0.100
371.500	120.189	0.100
371.600	86.245	0.100
371.700	113.329	0.100
371.800	94.098	0.100
371.900	93.970	0.100
372.000	105.795	0.100
372.100	98.484	0.100
372.200	97.069	0.100
372.300	108.279	0.100
372.400	109.645	0.100
372.500	97.585	0.100
372.600	113.296	0.100
372.700	91.177	0.100
372.800	112.764	0.100
372.900	98.536	0.100
373.000	113.661	0.100
373.100	126.459	0.100
373.200	101.825	0.100
373.300	72.039	0.100
373.400	121.207	0.100
373.500	106.911	0.100
373.600	89.950	0.100
373.700	107.331	0.100
373.800	108.877	0.100
373.900	104.731	0.100
374.000	111.815	0.100
374.100	126.494	0.100
374.200	104.148	0.100
374.300	99.887	0.100
374.400	122.600	0.100
374.500	117.789	0.100
374.600	98.937	0.100
374.700	93.617	0.100
374.800	103.628	0.100
374.900	105.774	0.100
375.000	105.132	0.100
375.100	96.203	0.100
375.200	102.470	0.100
375.300	88.963	0.100
375.400	102.747	0.100
375.500	113.506	0.100
375.600	121.502	0.100
375.700	113.251	0.100
375.800	96.383	0.100
375.900	104.198	0.100
376.000	99.230	0.100
376.100	101.258	0.100
376.200	110.545	0.100
376.300	100.186	0.100
376.400	106.745	0.100
376.500	119.416	0.100
376.600	84.858	0.100
376.700	88.197	0.100
376.800	93.260	0.100
376.900	123.183	0.100
377.000	89.865	0.100
377.100	113.475	0.100
377.200	104.455	0.100
377.300	100.459	0.100
377.400	108.575	0.100
377.500	102.176	0.100
377.600	96.968	0.100
377.700	95.552	0.100
377.800	106.263	0.100
377.900	105.855	0.100
378.000	108.906	0.100
378.100	103.837	0.100
378.200	89.471	0.100
378.300	105.344	0.100
378.400	81.796	0.100
378.500	79.435	0.100
378.600	106.937	0.100
378.700	100.581	0.100
378.800	108.616	0.100
378.900	115.193	0.100
379.000	95.803	0.100
379.100	99.407	0.100
379.200	120.206	0.100
379.300	120.357	0.100
379.400	94.674	0.100
379.500	99.470	0.100
379.600	114.764	0.100
379.700	103.844	0.100
379.800	98.723	0.100
379.900	100.969	0.100
380.000	117.838	0.100
380.100	94.452	0.100
380.200	115.698	0.100
380.300	109.029	0.100
380.400	104.710	0.100
380.500	76.766	0.100
380.600	89.321	0.100
380.700	117.231	0.100
380.800	95.475	0.100
380.900	105.618	0.100
381.000	82.795	0.100
381.100	123.320	0.100
381.200	93.490	0.100
381.300	98.650	0.100
381.400	95.547	0.100
381.500	106.110	0.100
381.600	109.001	0.100
381.700	114.739	0.100
381.800	89.920	0.100
381.900	111.402	0.100
382.000	108.605	0.100
382.100	102.234	0.100
382.200	114.148	0.100
382.300	100.331	0.100
382.400	100.473	0.100
382.500	94.883	0.100
382.600	110.053	0.100
382.700	109.900	0.100
382.800	81.104	0.100
382.900	94.317	0.100
383.000	118.616	0.100
383.100	116.477	0.100
383.200	102.669	0.100
383.300	103.120	0.100
383.400	115.948	0.100
383.500	85.680	0.100
383.600	90.971	0.100
383.700	107.012	0.100
383.800	98.109	0.100
383.900	116.855	0.100
384.000	107.151	0.100
384.100	90.200	0.100
384.200	84.087	0.100
384.300	98.660	0.100
384.400	91.137	0.100
384.500	92.889	0.100
384.600	112.562	0.100
384.700	106.541	0.100
384.800	107.069	0.100
384.900	104.936	0.100
385.000	93.056	0.099
385.100	100.027	0.100
385.200	91.620	0.099
385.300	87.699	0.100
385.400	117.771	0.099
385.500	88.832	0.099
385.600	71.109	0.100
385.700	79.965	0.099
385.800	118.403	0.099
385.900	117.112	0.099
386.000	87.131	0.100
386.100	84.703	0.100
386.200	136.257	0.100
386.300	97.095	0.100
386.400	87.599	0.100
386.500	130.686	0.099
386.600	108.858	0.100
386.700	69.509	0.099
386.800	115.081	0.100
386.900	106.037	0.100
387.000	93.517	0.100
387.100	97.582	0.099
387.200	122.163	0.099
387.300	122.829	0.099
387.400	103.986	0.099
387.500	106.861	0.099
387.600	106.059	0.100
387.700	115.483	0.100
387.800	97.415	0.099
387.900	76.299	0.100
388.000	91.354	0.100
388.100	104.870	0.099
388.200	94.375	0.100
388.300	107.762	0.100
388.400	84.176	0.099
388.500	118.133	0.100
388.600	103.054	0.100
388.700	104.961	0.099
388.800	103.010	0.099
388.900	84.542	0.099
389.000	113.105	0.099
389.100	97.421	0.099
389.200	83.269	0.099
389.300	87.388	0.099
389.400	81.681	0.099
389.500	111.578	0.100
389.600	120.272	0.100
389.700	116.168	0.100
389.800	86.931	0.100
389.900	79.071	0.100
390.000	100.324	0.100
390.100	96.576	0.099
390.200	118.760	0.100
390.300	84.243	0.100
390.400	78.470	0.100
390.500	79.965	0.100
390.600	81.138	0.099
390.700	63.223	0.100
390.800	62.719	0.100
390.900	44.168	0.100
391.000	53.982	0.100
391.100	34.316	0.100
391.200	32.077	0.099
391.300	24.831	0.099
391.400	54.477	0.100
391.500	31.768	0.099
391.600	11.314	0.099
391.700	25.747	0.099
391.800	26.405	0.099
391.900	-4.849	0.099
392.000	9.218	0.099
392.100	-10.658	0.099
392.200	-1.283	0.100
392.300	8.485	0.099
392.400	13.678	0.099
392.500	-12.619	0.099
392.600	3.381	0.100
392.700	-9.159	0.099
392.800	4.361	0.099
392.900	-3.398	0.099
393.000	-23.280	0.099
393.100	-8.619	0.100
393.200	-40.935	0.099
393.300	-3.340	0.100
393.400	-25.323	0.100
393.500	-0.511	0.099
393.600	-15.894	0.099
393.700	-17.407	0.100
393.800	-12.106	0.099
393.900	-14.945	0.099
394.000	-33.982	0.099
394.100	-13.810	0.099
394.200	-18.396	0.099
394.300	-24.311	0.099
394.400	-27.007	0.100
394.500	-26.440	0.099
394.600	-14.884	0.100
394.700	-10.205	0.100
394.800	-26.308	0.099
394.900	-8.682	0.099
395.000	-34.912	0.099
395.100	-39.013	0.099
395.200	-23.203	0.099
395.300	-23.010	0.099
395.400	-41.690	0.099
395.500	-9.766	0.100
395.600	-22.140	0.100
395.700	-35.901	0.099
395.800	-15.538	0.099
395.900	-28.760	0.099
396.000	-19.046	0.099
396.100	-35.109	0.099
396.200	-30.245	0.100
396.300	-23.295	0.099
396.400	-40.379	0.099
396.500	-24.488	0.099
396.600	-25.934	0.099
396.700	-21.522	0.099
396.800	-33.939	0.099
396.900	-39.860	0.099
397.000	-48.187	0.099
397.100	-19.256	0.099
397.200	-47.803	0.099
397.300	-15.183	0.099
397.400	-57.394	0.099
397.500	-40.178	0.099
397.600	2.507	0.099
397.700	-17.562	0.099
397.800	-28.327	0.099
397.900	-36.051	0.099
398.000	-12.213	0.099
398.100	-14.147	0.100
398.200	-37.734	0.100
398.300	-32.796	0.099
398.400	-37.917	0.099
398.500	-41.282	0.099
398.600	-24.972	0.100
398.700	-30.262	0.099
398.800	-27.894	0.099
398.900	-26.138	0.100
399.000	-37.225	0.099
399.100	9.326	0.100
399.200	-44.795	0.099
399.300	-21.667	0.100
399.400	-30.529	0.100
399.500	-50.181	0.099
399.600	-33.532	0.099
399.700	-20.699	0.099
399.800	-60.453	0.099
399.900	-35.339	0.099
400.000	-12.237	0.100
400.100	-19.851	0.099
400.200	-53.073	0.099
400.300	-40.763	0.099
400.400	-36.499	0.100
400.500	-48.991	0.099
400.600	-26.102	0.099
400.700	-50.346	0.099
400.800	-21.335	0.099
400.900	-21.744	0.099
401.000	-41.259	0.099
401.100	-24.715	0.100
401.200	-49.327	0.099
401.300	-58.255	0.099
401.400	-6.561	0.099
401.500	-33.532	0.099
401.600	-47.433	0.099
401.700	-44.160	0.099
401.800	-58.134	0.099
401.900	-26.205	0.100
402.000	-54.797	0.100
402.100	-28.137	0.099
402.200	-11.181	0.099
402.300	-35.523	0.100
402.400	-30.620	0.099
402.500	-28.991	0.099
402.600	-56.669	0.100
402.700	-45.922	0.099
402.800	-26.173	0.099
402.900	-61.345	0.099
403.000	-33.064	0.099
403.100	-36.378	0.099
403.200	-39.644	0.099
403.300	-62.177	0.099
403.400	-47.112	0.099
403.500	-25.986	0.099
403.600	-42.531	0.099
403.700	-24.847	0.099
403.800	-53.473	0.099
403.900	-48.691	0.099
404.000	-49.498	0.099
404.100	-28.057	0.099
404.200	-33.639	0.099
404.300	-37.871	0.099
404.400	-48.390	0.099
404.500	-35.537	0.099
404.600	-52.462	0.100
404.700	-55.718	0.099
404.800	-35.812	0.099
404.900	-59.342	0.099
405.000	-28.432	0.099
405.100	-53.808	0.099
405.200	-45.151	0.099
405.300	-41.143	0.099
405.400	-47.296	0.099
405.500	-41.463	0.099
405.600	-59.794	0.099
405.700	-27.367	0.099
405.800	-39.627	0.099
405.900	-59.093	0.099
406.000	-58.067	0.099
406.100	-41.053	0.099
406.200	-48.575	0.099
406.300	-45.651	0.099
406.400	-28.875	0.099
406.500	-53.157	0.099
406.600	-49.292	0.099
406.700	-25.262	0.099
406.800	-40.770	0.099
406.900	-56.995	0.099
407.000	-37.532	0.099
407.100	-68.295	0.099
407.200	-49.399	0.099
407.300	-48.828	0.099
407.400	-44.401	0.099
407.500	-47.239	0.099
407.600	-34.942	0.100
407.700	-42.754	0.099
407.800	-50.072	0.099
407.900	-34.323	0.099
408.000	-44.061	0.099
408.100	-47.856	0.099
408.200	-45.394	0.099
408.300	-48.250	0.099
408.400	-53.064	0.100
408.500	-63.587	0.099
408.600	-28.911	0.099
408.700	-44.326	0.099
408.800	-51.694	0.099
408.900	-45.743	0.099
409.000	-48.324	0.099
409.100	-45.470	0.099
409.200	-54.995	0.099
409.300	-53.997	0.099
409.400	-44.647	0.099
409.500	-60.945	0.099
409.600	-58.847	0.099
409.700	-41.516	0.099
409.800	-26.112	0.099
409.900	-62.928	0.099
410.000	-55.661	0.099
410.100	-54.214	0.099
410.200	-50.365	0.099
410.300	-52.346	0.099
410.400	-51.106	0.099
410.500	-54.601	0.099
410.600	-45.002	0.099
410.700	-60.847	0.099
410.800	-48.183	0.099
410.900	-51.907	0.099
411.000	-60.017	0.099
411.100	-32.888	0.099
411.200	-54.180	0.099
411.300	-42.416	0.100
411.400	-61.331	0.099
411.500	-65.583	0.099
411.600	-64.693	0.099
411.700	-69.577	0.099
411.800	-59.488	0.099
411.900	-69.922	0.099
412.000	-61.491	0.099
412.100	-38.005	0.099
412.200	-64.710	0.099
412.300	-51.170	0.099
412.400	-68.054	0.099
412.500	-53.819	0.099
412.600	-46.862	0.100
412.700	-52.271	0.099
412.800	-52.983	0.099
412.900	-55.402	0.099
413.000	-66.350	0.099
413.100	-57.986	0.099
413.200	-47.402	0.099
413.300	-49.881	0.099
413.400	-51.885	0.099
413.500	-63.346	0.099
413.600	-37.292	0.099
413.700	-60.169	0.099
413.800	-65.980	0.099
413.900	-61.968	0.099
414.000	-48.168	0.099
414.100	-56.591	0.099
414.200	-51.433	0.100
414.300	-49.173	0.099
414.400	-60.024	0.099
414.500	-55.604	0.099
414.600	-53.307	0.099
414.700	-49.287	0.099
414.800	-52.386	0.099
414.900	-58.641	0.099
415.000	-58.207	0.099
415.100	-72.969	0.099
415.200	-70.239	0.099
415.300	-55.503	0.099
415.400	-32.462	0.099
415.500	-41.933	0.099
415.600	-71.348	0.099
415.700	-38.792	0.099
415.800	-43.455	0.099
415.900	-52.296	0.099
416.000	-66.748	0.099
416.100	-45.692	0.099
416.200	-61.273	0.099
416.300	-73.060	0.099
416.400	-44.509	0.099
416.500	-64.501	0.099
416.600	-74.571	0.099
416.700	-65.249	0.099
416.800	-30.548	0.099
416.900	-68.621	0.099
417.000	-58.753	0.099
417.100	-42.700	0.099
417.200	-62.666	0.099
417.300	-34.193	0.099
417.400	-58.550	0.099
417.500	-54.907	0.099
417.600	-43.624	0.099
417.700	-61.430	0.099
417.800	-46.498	0.099
417.900	-57.670	0.099
418.000	-70.649	0.099
418.100	-56.461	0.099
418.200	-69.924	0.099
418.300	-71.393	0.100
418.400	-66.962	0.099
418.500	-59.515	0.099
418.600	-33.928	0.099
418.700	-63.036	0.099
418.800	-71.099	0.099
418.900	-36.428	0.099
419.000	-48.731	0.099
419.100	-71.781	0.099
419.200	-53.121	0.099
419.300	-64.078	0.099
419.400	-35.480	0.100
419.500	-63.827	0.099
419.600	-71.107	0.099
419.700	-45.462	0.100
419.800	-78.996	0.099
419.900	-70.043	0.099
420.000	-44.455	0.099
420.100	-52.829	0.099
420.200	-50.614	0.099
420.300	-61.004	0.099
420.400	-61.674	0.099
420.500	-59.866	0.100
420.600	-52.122	0.099
420.700	-74.277	0.099
420.800	-49.211	0.099
420.900	-67.758	0.099
421.000	-56.919	0.099
421.100	-71.596	0.100
421.200	-60.806	0.099
421.300	-51.132	0.099
421.400	-53.532	0.099
421.500	-68.077	0.099
421.600	-33.021	0.099
421.700	-46.777	0.099
421.800	-51.701	0.099
421.900	-58.156	0.099
422.000	-54.365	0.099
422.100	-44.093	0.099
422.200	-85.896	0.099
422.300	-58.996	0.099
422.400	-46.382	0.099
422.500	-71.011	0.099
422.600	-61.256	0.099
422.700	-52.594	0.099
422.800	-60.326	0.099
422.900	-51.826	0.099
423.000	-45.521	0.099
423.100	-44.231	0.099
423.200	-35.279	0.099
423.300	-60.342	0.099
423.400	-59.142	0.099
423.500	-47.988	0.099
423.600	-72.790	0.099
423.700	-64.896	0.099
423.800	-62.146	0.099
423.900	-66.047	0.099
424.000	-60.777	0.099
424.100	-53.182	0.099
424.200	-70.794	0.099
424.300	-44.709	0.099
424.400	-63.063	0.099
424.500	-61.161	0.099
424.600	-51.663	0.099
424.700	-40.461	0.099
424.800	-88.281	0.099
424.900	-64.598	0.099
425.000	-47.703	0.099
425.100	-42.687	0.099
425.200	-77.155	0.099
425.300	-57.526	0.099
425.400	-78.692	0.099
425.500	-53.333	0.099
425.600	-62.406	0.099
425.700	-73.131	0.099
425.800	-49.433	0.099
425.900	-54.043	0.099
426.000	-47.881	0.099
426.100	-51.009	0.099
426.200	-80.291	0.099
426.300	-43.441	0.099
426.400	-64.395	0.099
426.500	-42.241	0.099
426.600	-49.813	0.099
426.700	-46.265	0.099
426.800	-44.572	0.099
426.900	-45.110	0.099
427.000	-34.899	0.099
427.100	-50.761	0.099
427.200	-54.165	0.099
427.300	-70.210	0.099
427.400	-52.858	0.099
427.500	-69.221	0.099
427.600	-62.981	0.099
427.700	-71.028	0.099
427.800	-47.098	0.099
427.900	-47.724	0.099
428.000	-47.379	0.099
428.100	-61.716	0.099
428.200	-42.277	0.099
428.300	-54.998	0.099
428.400	-47.361	0.099
428.500	-51.031	0.099
428.600	-57.935	0.099
428.700	-65.732	0.099
428.800	-57.383	0.099
428.900	-52.118	0.099
429.000	-35.885	0.099
429.100	-54.147	0.099
429.200	-69.463	0.099
429.300	-45.255	0.099
429.400	-39.235	0.099
429.500	-73.134	0.099
429.600	-49.419	0.099
429.700	-30.756	0.099
429.800	-65.634	0.099
429.900	-48.721	0.099
430.000	-53.568	0.099
430.100	-46.171	0.099
430.200	-54.153	0.099
430.300	-49.689	0.099
430.400	-64.169	0.099
430.500	-66.694	0.099
430.600	-56.589	0.099
430.700	-78.641	0.099
430.800	-55.223	0.099
430.900	-54.788	0.099
431.000	-40.685	0.099
431.100	-35.234	0.099
431.200	-63.154	0.099
431.300	-35.646	0.099
431.400	-65.137	0.099
431.500	-52.707	0.099
431.600	-52.011	0.099
431.700	-53.116	0.099
431.800	-70.750	0.099
431.900	-53.621	0.099
432.000	-52.223	0.099
432.100	-50.207	0.099
432.200	-56.645	0.099
432.300	-53.291	0.099
432.400	-38.530	0.099
432.500	-39.308	0.099
432.600	-39.768	0.099
432.700	-72.587	0.099
432.800	-49.062	0.099
432.900	-42.859	0.099
433.000	-55.787	0.099
433.100	-43.682	0.099
433.200	-82.200	0.099
433.300	-50.743	0.099
433.400	-59.540	0.099
433.500	-63.510	0.099
433.600	-35.371	0.099
433.700	-50.110	0.099
433.800	-49.951	0.099
433.900	-35.040	0.099
434.000	-34.427	0.099
434.100	-56.704	0.099
434.200	-59.927	0.099
434.300	-41.596	0.099
434.400	-64.791	0.099
434.500	-46.476	0.099
434.600	-49.926	0.099
434.700	-37.181	0.099
434.800	-58.524	0.099
434.900	-37.187	0.099
435.000	-59.826	0.099
435.100	-63.030	0.099
435.200	-42.468	0.099
435.300	-57.501	0.099
435.400	-48.254	0.099
435.500	-49.671	0.099
435.600	-31.301	0.099
435.700	-57.022	0.099
435.800	-68.844	0.099
435.900	-66.933	0.099
436.000	-48.237	0.099
436.100	-41.569	0.099
436.200	-76.983	0.099
436.300	-41.535	0.099
436.400	-38.941	0.099
436.500	-48.603	0.099
436.600	-49.540	0.099
436.700	-52.034	0.099
436.800	-61.612	0.099
436.900	-57.938	0.099
437.000	-60.330	0.099
437.100	-20.342	0.099
437.200	-47.124	0.099
437.300	-54.503	0.099
437.400	-53.649	0.099
437.500	-53.390	0.099
437.600	-49.796	0.099
437.700	-76.058	0.099
437.800	-60.780	0.099
437.900	-43.781	0.099
438.000	-44.166	0.099
438.100	-47.112	0.099
438.200	-79.484	0.099
438.300	-28.859	0.099
438.400	-40.316	0.099
438.500	-64.681	0.099
438.600	-35.217	0.099
438.700	-49.053	0.099
438.800	-49.443	0.099
438.900	-49.191	0.099
439.000	-44.429	0.099
439.100	-69.122	0.099
439.200	-36.420	0.099
439.300	-34.968	0.099
439.400	-37.806	0.100
439.500	-44.455	0.099
439.600	-57.343	0.099
439.700	-39.882	0.099
439.800	-50.991	0.099
439.900	-64.922	0.099
440.000	-55.958	0.099
440.100	-57.597	0.099
440.200	-53.842	0.099
440.300	-40.784	0.099
440.400	-76.919	0.099
440.500	-48.918	0.099
440.600	-56.873	0.099
440.700	-57.920	0.099
440.800	-49.432	0.099
440.900	-26.249	0.099
441.000	-35.164	0.099
441.100	-49.407	0.099
441.200	-50.637	0.099
441.300	-53.216	0.099
441.400	-66.323	0.099
441.500	-32.330	0.099
441.600	-61.347	0.099
441.700	-35.956	0.099
441.800	-34.640	0.099
441.900	-55.208	0.099
442.000	-39.852	0.099
442.100	-47.542	0.099
442.200	-24.296	0.099
442.300	-58.072	0.099
442.400	-57.048	0.099
442.500	-44.366	0.099
442.600	-51.391	0.099
442.700	-38.830	0.099
442.800	-57.669	0.099
442.900	-31.526	0.099
443.000	-53.539	0.099
443.100	-34.881	0.099
443.200	-30.687	0.099
443.300	-59.067	0.099
443.400	-48.256	0.099
443.500	-35.661	0.099
443.600	-55.669	0.099
443.700	-56.290	0.099
443.800	-34.809	0.099
443.900	-70.490	0.099
444.000	-48.251	0.099
444.100	-28.927	0.099
444.200	-37.441	0.099
444.300	-54.388	0.099
444.400	-49.091	0.099
444.500	-39.379	0.099
444.600	-50.222	0.099
444.700	-53.067	0.099
444.800	-52.686	0.099
444.900	-54.499	0.099
445.000	-39.191	0.099
445.100	-65.796	0.099
445.200	-39.827	0.099
445.300	-51.134	0.099
445.400	-33.781	0.099
445.500	-47.737	0.099
445.600	-35.156	0.099
445.700	-43.003	0.099
445.800	-70.398	0.099
445.900	-46.353	0.099
446.000	-37.485	0.099
446.100	-44.772	0.099
446.200	-43.427	0.099
446.300	-35.170	0.099
446.400	-59.536	0.099
446.500	-44.566	0.099
446.600	-51.287	0.099
446.700	-50.505	0.099
446.800	-58.797	0.099
446.900	-37.717	0.099
447.000	-39.657	0.099
447.100	-38.473	0.099
447.200	-70.422	0.099
447.300	-49.083	0.099
447.400	-48.739	0.099
447.500	-53.679	0.100
447.600	-27.490	0.099
447.700	-58.928	0.099
447.800	-28.009	0.099
447.900	-42.537	0.099
448.000	-35.449	0.099
448.100	-54.575	0.099
448.200	-35.092	0.099
448.300	-59.265	0.099
448.400	-43.840	0.099
448.500	-34.695	0.099
448.600	-39.218	0.099
448.700	-37.393	0.099
448.800	-53.840	0.099
448.900	-38.364	0.099
449.000	-44.087	0.099
449.100	-66.756	0.099
449.200	-25.769	0.099
449.300	-57.366	0.099
449.400	-52.423	0.099
449.500	-35.387	0.099
449.600	-44.847	0.099
449.700	-28.798	0.099
449.800	-38.085	0.099
449.900	-31.377	0.099
450.000	-42.230	0.099
450.100	-62.528	0.099
450.200	-19.909	0.099
450.300	-43.413	0.099
450.400	-39.704	0.099
450.500	-40.216	0.099
450.600	-49.807	0.099
450.700	-42.859	0.099
450.800	-33.891	0.099
450.900	-56.655	0.099
451.000	-55.361	0.099
451.100	-36.451	0.099
451.200	-42.644	0.099
451.300	-32.432	0.099
451.400	-67.691	0.099
451.500	-40.756	0.099
451.600	-47.045	0.099
451.700	-55.625	0.099
451.800	-27.618	0.099
451.900	-32.516	0.099
452.000	-52.604	0.099
452.100	-50.287	0.099
452.200	-40.377	0.099
452.300	-46.385	0.099
452.400	-66.550	0.099
452.500	-34.977	0.099
452.600	-44.522	0.099
452.700	-29.017	0.099
452.800	-38.588	0.099
452.900	-48.856	0.099
453.000	-52.105	0.099
453.100	-54.042	0.099
453.200	-44.719	0.099
453.300	-41.175	0.099
453.400	-57.534	0.099
453.500	-43.320	0.099
453.600	-41.521	0.099
453.700	-32.576	0.099
453.800	-38.043	0.099
453.900	-49.997	0.099
454.000	-40.575	0.099
454.100	-39.743	0.099
454.200	-65.877	0.099
454.300	-31.156	0.099
454.400	-34.371	0.099
454.500	-21.446	0.099
454.600	-56.102	0.099
454.700	-43.743	0.099
454.800	-37.330	0.099
454.900	-54.618	0.099
455.000	-34.025	0.099
455.100	-33.933	0.099
455.200	-44.500	0.099
455.300	-39.203	0.099
455.400	-54.882	0.099
455.500	-39.675	0.099
455.600	-29.981	0.099
455.700	-48.942	0.099
455.800	-52.306	0.099
455.900	-32.060	0.099
456.000	-59.494	0.099
456.100	-54.013	0.099
456.200	-50.926	0.099
456.300	-20.960	0.099
456.400	-32.737	0.099
456.500	-43.313	0.099
456.600	-38.091	0.099
456.700	-54.583	0.099
456.800	-44.329	0.099
456.900	-26.333	0.099
457.000	-38.375	0.099
457.100	-52.103	0.099
457.200	-36.524	0.099
457.300	-54.503	0.099
457.400	-49.195	0.099
457.500	-37.711	0.099
457.600	-82.419	0.099
457.700	-49.043	0.099
457.800	-42.542	0.099
457.900	-36.420	0.099
458.000	-20.333	0.099
458.100	-33.846	0.099
458.200	-41.730	0.099
458.300	-50.297	0.099
458.400	-52.650	0.099
458.500	-32.406	0.099
458.600	-54.191	0.099
458.700	-50.310	0.099
458.800	-41.247	0.099
458.900	-38.251	0.099
459.000	-57.013	0.099
459.100	-22.907	0.099
459.200	-75.096	0.099
459.300	-40.305	0.099
459.400	-32.373	0.099
459.500	-30.344	0.099
459.600	-48.513	0.099
459.700	-27.594	0.099
459.800	-31.567	0.099
459.900	-63.271	0.099
460.000	-50.970	0.099
460.100	-23.044	0.099
460.200	-36.727	0.099
460.300	-42.860	0.099
460.400	-37.504	0.100
460.500	-59.457	0.099
460.600	-40.385	0.099
460.700	-43.489	0.099
460.800	-42.479	0.099
460.900	-66.383	0.099
461.000	-48.616	0.099
461.100	-3.213	0.099
461.200	-29.972	0.099
461.300	-34.405	0.099
461.400	-51.953	0.099
461.500	-50.639	0.099
461.600	-41.869	0.099
461.700	-43.572	0.099
461.800	-47.826	0.099
461.900	-44.412	0.099
462.000	-53.985	0.099
462.100	-33.036	0.099
462.200	-48.331	0.099
462.300	-29.729	0.099
462.400	-29.993	0.099
462.500	-39.987	0.099
462.600	-35.809	0.099
462.700	-78.898	0.099
462.800	-37.856	0.099
462.900	-66.327	0.099
463.000	-64.760	0.099
463.100	-35.796	0.099
463.200	-46.540	0.099
463.300	-39.320	0.099
463.400	-34.411	0.099
463.500	-50.384	0.099
463.600	-33.335	0.099
463.700	-42.663	0.099
463.800	-32.082	0.099
463.900	-54.013	0.099
464.000	-36.677	0.099
464.100	3.415	0.099
464.200	-33.255	0.100
464.300	-52.490	0.099
464.400	-38.184	0.099
464.500	-58.142	0.099
464.600	-41.437	0.099
464.700	-21.848	0.099
464.800	-27.362	0.099
464.900	-46.738	0.099
465.000	-40.221	0.099
465.100	-39.292	0.099
465.200	-26.326	0.099
465.300	-31.492	0.099
465.400	-20.470	0.099
465.500	-51.353	0.099
465.600	-38.450	0.099
465.700	-60.026	0.099
465.800	-24.768	0.099
465.900	-21.722	0.099
466.000	-32.210	0.099
466.100	-36.701	0.099
466.200	-38.208	0.099
466.300	-32.264	0.099
466.400	-50.141	0.099
466.500	-39.265	0.099
466.600	-57.904	0.099
466.700	-31.207	0.099
466.800	-48.093	0.099
466.900	-17.274	0.099
467.000	-54.498	0.099
467.100	-62.587	0.099
467.200	-33.341	0.099
467.300	-12.645	0.099
467.400	-46.625	0.099
467.500	-39.092	0.099
467.600	-36.567	0.099
467.700	-57.225	0.099
467.800	-27.501	0.099
467.900	-38.818	0.099
468.000	-50.355	0.099
468.100	-40.301	0.099
468.200	-26.171	0.099
468.300	-48.091	0.099
468.400	-26.945	0.099
468.500	-66.745	0.099
468.600	-32.915	0.099
468.700	-14.409	0.099
468.800	-33.596	0.099
468.900	-48.111	0.099
469.000	-61.094	0.099
469.100	-35.629	0.099
469.200	-28.479	0.099
469.300	-36.965	0.099
469.400	-48.260	0.099
469.500	-51.154	0.099
469.600	-29.918	0.099
469.700	-42.095	0.099
469.800	-30.536	0.099
469.900	-47.401	0.099
470.000	-43.839	0.099
470.100	-41.278	0.099
470.200	-50.190	0.099
470.300	-48.359	0.099
470.400	-46.465	0.099
470.500	-28.702	0.099
470.600	-36.993	0.099
470.700	-34.119	0.099
470.800	-33.293	0.099
470.900	-30.631	0.099
471.000	-37.175	0.099
471.100	-31.440	0.099
471.200	-46.763	0.099
471.300	-48.061	0.099
471.400	-38.725	0.099
471.500	-43.413	0.099
471.600	-24.078	0.099
471.700	-47.041	0.099
471.800	-36.535	0.099
471.900	-45.829	0.099
472.000	-41.445	0.099
472.100	-46.451	0.099
472.200	-37.470	0.099
472.300	-22.858	0.099
472.400	-28.582	0.099
472.500	-42.683	0.099
472.600	-49.438	0.099
472.700	-11.240	0.099
472.800	-27.343	0.099
472.900	-36.538	0.099
473.000	-37.179	0.099
473.100	-41.997	0.099
473.200	-37.792	0.099
473.300	-35.497	0.099
473.400	-36.707	0.099
473.500	-11.611	0.099
473.600	-56.635	0.099
473.700	-37.600	0.099
473.800	-25.814	0.099
473.900	-45.310	0.099
474.000	-38.494	0.099
474.100	-35.730	0.099
474.200	-27.116	0.099
474.300	-32.990	0.099
474.400	-52.121	0.099
474.500	-39.787	0.099
474.600	-31.641	0.099
474.700	-16.997	0.099
474.800	-43.667	0.100
474.900	-33.336	0.099
475.000	-45.115	0.099
475.100	-38.546	0.099
475.200	-57.818	0.099
475.300	-30.694	0.099
475.400	-42.665	0.099
475.500	-45.794	0.099
475.600	-40.280	0.099
475.700	-43.151	0.099
475.800	-37.802	0.099
475.900	-16.583	0.099
476.000	-24.061	0.099
476.100	-33.004	0.099
476.200	-45.775	0.099
476.300	-29.645	0.099
476.400	-35.348	0.100
476.500	-33.347	0.099
476.600	-33.534	0.099
476.700	-50.696	0.099
476.800	-36.611	0.099
476.900	-26.537	0.099
477.000	-11.137	0.099
477.100	-41.228	0.099
477.200	-18.740	0.099
477.300	-50.296	0.099
477.400	-42.805	0.099
477.500	-27.699	0.099
477.600	-30.528	0.099
477.700	-19.984	0.099
477.800	-35.869	0.099
477.900	-56.570	0.099
478.000	-44.206	0.099
478.100	-42.558	0.099
478.200	-57.359	0.099
478.300	-3.398	0.099
478.400	-27.546	0.099
478.500	-28.045	0.099
478.600	-34.417	0.099
478.700	-42.196	0.099
478.800	-46.165	0.099
478.900	-31.593	0.099
479.000	-37.846	0.099
479.100	-42.155	0.099
479.200	-36.344	0.099
479.300	-22.206	0.099
479.400	-38.938	0.099
479.500	-31.612	0.099
479.600	-46.935	0.099
479.700	-36.881	0.099
479.800	-28.231	0.099
479.900	-18.529	0.099
480.000	-55.644	0.099
480.100	-40.819	0.099
480.200	-41.285	0.099
480.300	-54.285	0.099
480.400	-5.764	0.099
480.500	-28.513	0.099
480.600	-23.243	0.099
480.700	-19.249	0.099
480.800	-9.816	0.099
480.900	3.595	0.099
481.000	-2.317	0.099
481.100	11.750	0.099
481.200	2.519	0.100
481.300	13.780	0.100
481.400	24.825	0.100
481.500	9.527	0.099
481.600	30.414	0.099
481.700	17.616	0.099
481.800	33.214	0.099
481.900	24.238	0.099
482.000	22.559	0.099
482.100	15.550	0.099
482.200	36.364	0.099
482.300	37.158	0.099
482.400	57.995	0.099
482.500	19.232	0.099
482.600	25.554	0.100
482.700	43.676	0.099
482.800	44.111	0.099
482.900	61.636	0.099
483.000	28.243	0.099
483.100	35.351	0.099
483.200	49.203	0.099
483.300	43.721	0.100
483.400	11.247	0.099
483.500	44.528	0.099
483.600	36.380	0.099
483.700	28.352	0.099
483.800	22.288	0.099
483.900	23.509	0.099
484.000	11.021	0.099
484.100	28.485	0.099
484.200	21.448	0.099
484.300	44.183	0.099
484.400	37.224	0.099
484.500	11.703	0.099
484.600	41.699	0.099
484.700	33.704	0.099
484.800	6.365	0.099
484.900	33.907	0.099
485.000	31.558	0.100
485.100	-0.132	0.099
485.200	31.726	0.099
485.300	39.645	0.099
485.400	28.879	0.099
485.500	36.198	0.099
485.600	38.904	0.099
485.700	22.783	0.099
485.800	11.534	0.099
485.900	35.412	0.099
486.000	29.893	0.099
486.100	23.775	0.099
486.200	32.425	0.099
486.300	19.188	0.099
486.400	29.469	0.099
486.500	51.617	0.099
486.600	48.580	0.099
486.700	16.353	0.099
486.800	40.550	0.099
486.900	44.004	0.099
487.000	48.380	0.099
487.100	43.359	0.099
487.200	55.022	0.099
487.300	53.676	0.099
487.400	48.734	0.099
487.500	63.332	0.099
487.600	45.588	0.099
487.700	46.658	0.099
487.800	33.294	0.099
487.900	25.667	0.099
488.000	38.763	0.099
488.100	45.882	0.099
488.200	64.709	0.099
488.300	59.428	0.099
488.400	43.429	0.099
488.500	59.286	0.099
488.600	81.392	0.099
488.700	72.149	0.099
488.800	43.586	0.100
488.900	47.153	0.099
489.000	57.215	0.099
489.100	77.941	0.099
489.200	66.453	0.099
489.300	51.917	0.099
489.400	59.793	0.099
489.500	76.367	0.099
489.600	75.311	0.099
489.700	85.776	0.099
489.800	70.774	0.099
489.900	68.617	0.099
490.000	90.940	0.099
490.100	94.723	0.099
490.200	70.181	0.099
490.300	80.052	0.099
490.400	86.487	0.099
490.500	89.231	0.099
490.600	78.340	0.099
490.700	79.326	0.099
490.800	97.383	0.099
490.900	79.599	0.099
491.000	97.871	0.099
491.100	82.209	0.099
491.200	91.501	0.099
491.300	91.676	0.099
491.400	109.536	0.099
491.500	83.205	0.099
491.600	82.894	0.099
491.700	106.115	0.099
491.800	107.378	0.099
491.900	108.232	0.099
492.000	78.282	0.099
492.100	109.860	0.099
492.200	109.437	0.099
492.300	110.636	0.099
492.400	115.637	0.099
492.500	104.151	0.099
492.600	104.062	0.099
492.700	95.134	0.099
492.800	107.655	0.099
492.900	124.331	0.099
493.000	115.867	0.099
493.100	97.003	0.099
493.200	118.958	0.099
493.300	141.838	0.099
493.400	124.689	0.099
493.500	115.962	0.099
493.600	128.486	0.099
493.700	101.502	0.099
493.800	119.773	0.099
493.900	110.235	0.099
494.000	123.478	0.099
494.100	96.330	0.099
494.200	124.607	0.099
494.300	127.290	0.099
494.400	114.851	0.099
494.500	113.391	0.099
494.600	132.349	0.099
494.700	132.210	0.099
494.800	102.240	0.099
494.900	144.055	0.099
495.000	135.058	0.099
495.100	126.654	0.099
495.200	122.799	0.099
495.300	131.329	0.099
495.400	134.922	0.099
495.500	120.442	0.099
495.600	102.226	0.099
495.700	120.393	0.099
495.800	134.018	0.099
495.900	140.470	0.099
496.000	140.156	0.099
496.100	132.897	0.099
496.200	111.769	0.099
496.300	99.074	0.099
496.400	118.232	0.099
496.500	130.681	0.099
496.600	151.421	0.099
496.700	107.392	0.099
496.800	127.509	0.099
496.900	140.769	0.099
497.000	145.112	0.099
497.100	125.381	0.099
497.200	132.205	0.099
497.300	128.241	0.099
497.400	125.142	0.099
497.500	120.953	0.099
497.600	93.766	0.099
497.700	142.154	0.099
497.800	129.211	0.099
497.900	129.224	0.099
498.000	127.721	0.099
498.100	97.408	0.099
498.200	114.240	0.099
498.300	125.668	0.099
498.400	133.241	0.099
498.500	150.447	0.099
498.600	120.936	0.099
498.700	112.299	0.099
498.800	135.639	0.099
498.900	108.175	0.099
499.000	129.288	0.099
499.100	120.062	0.099
499.200	123.262	0.099
499.300	134.679	0.099
499.400	127.841	0.099
499.500	120.805	0.099
499.600	123.585	0.099
499.700	102.975	0.099
499.800	124.203	0.099
499.900	123.977	0.099
500.000	116.979	0.099
500.100	123.001	0.099
500.200	129.883	0.099
500.300	106.167	0.099
500.400	101.617	0.099
500.500	114.108	0.099
500.600	124.917	0.099
500.700	132.126	0.099
500.800	133.414	0.099
500.900	132.372	0.099
501.000	106.531	0.099
501.100	126.800	0.099
501.200	99.130	0.099
501.300	124.624	0.099
501.400	109.367	0.099
501.500	129.069	0.099
501.600	110.422	0.099
501.700	112.184	0.099
501.800	108.156	0.099
501.900	130.390	0.099
502.000	123.064	0.099
502.100	118.098	0.099
502.200	128.843	0.099
502.300	101.060	0.099
502.400	116.475	0.099
502.500	120.397	0.099
502.600	116.510	0.099
502.700	121.744	0.099
502.800	111.337	0.099
502.900	118.783	0.099
503.000	106.307	0.099
503.100	124.167	0.099
503.200	118.090	0.099
503.300	132.907	0.099
503.400	102.334	0.099
503.500	100.666	0.099
503.600	106.460	0.099
503.700	118.685	0.099
503.800	107.715	0.099
503.900	118.003	0.099
504.000	111.759	0.099
504.100	116.484	0.099
504.200	121.141	0.099
504.300	115.596	0.099
504.400	104.200	0.099
504.500	110.693	0.099
504.600	94.094	0.099
504.700	146.609	0.099
504.800	98.934	0.099
504.900	115.914	0.099
505.000	114.604	0.099
505.100	129.399	0.099
505.200	96.334	0.099
505.300	135.153	0.099
505.400	120.041	0.099
505.500	114.959	0.099
505.600	112.797	0.099
505.700	121.108	0.099
505.800	82.782	0.099
505.900	113.220	0.099
506.000	128.798	0.099
506.100	110.536	0.099
506.200	113.548	0.099
506.300	122.728	0.099
506.400	116.261	0.099
506.500	120.003	0.099
506.600	118.262	0.099
506.700	107.091	0.099
506.800	108.857	0.099
506.900	122.006	0.099
507.000	96.278	0.099
507.100	97.555	0.099
507.200	106.144	0.099
507.300	136.215	0.099
507.400	112.942	0.099
507.500	106.793	0.099
507.600	117.111	0.099
507.700	104.566	0.099
507.800	108.984	0.099
507.900	112.133	0.099
508.000	107.674	0.099
508.100	127.482	0.099
508.200	117.419	0.099
508.300	110.693	0.099
508.400	104.485	0.099
508.500	106.354	0.099
508.600	120.866	0.099
508.700	116.693	0.099
508.800	108.902	0.099
508.900	99.930	0.099
509.000	124.342	0.099
509.100	97.765	0.099
509.200	116.276	0.099
509.300	122.336	0.099
509.400	102.188	0.099
509.500	113.740	0.099
509.600	107.357	0.099
509.700	91.985	0.099
509.800	121.236	0.099
509.900	124.598	0.099
510.000	116.551	0.099
510.100	89.532	0.099
510.200	103.600	0.099
510.300	102.576	0.099
510.400	111.841	0.099
510.500	105.294	0.099
510.600	102.500	0.099
510.700	107.888	0.099
510.800	104.665	0.099
510.900	132.472	0.099
511.000	118.434	0.099
511.100	122.162	0.099
511.200	124.082	0.099
511.300	83.735	0.099
511.400	92.584	0.099
511.500	112.778	0.099
511.600	137.218	0.099
511.700	124.733	0.099
511.800	105.359	0.099
511.900	106.533	0.099
512.000	112.267	0.099
512.100	134.810	0.099
512.200	102.025	0.099
512.300	99.367	0.099
512.400	112.674	0.099
512.500	120.027	0.099
512.600	112.792	0.099
512.700	97.155	0.099
512.800	113.580	0.099
512.900	92.453	0.099
513.000	97.000	0.099
513.100	124.496	0.099
513.200	94.342	0.099
513.300	108.824	0.099
513.400	113.051	0.099
513.500	94.590	0.099
513.600	118.371	0.099
513.700	104.910	0.099
513.800	111.628	0.099
513.900	104.235	0.099
514.000	110.653	0.099
514.100	113.967	0.099
514.200	111.661	0.099
514.300	120.834	0.099
514.400	118.896	0.099
514.500	105.430	0.099
514.600	115.124	0.099
514.700	92.552	0.099
514.800	106.168	0.099
514.900	138.536	0.099
515.000	100.339	0.099
515.100	97.582	0.099
515.200	107.165	0.099
515.300	117.831	0.099
515.400	115.984	0.099
515.500	109.939	0.099
515.600	94.952	0.099
515.700	87.275	0.099
515.800	141.667	0.099
515.900	112.511	0.099
516.000	110.051	0.099
516.100	106.893	0.099
516.200	120.874	0.099
516.300	119.297	0.099
516.400	120.542	0.099
516.500	92.140	0.099
516.600	111.992	0.099
516.700	54.133	0.100
516.800	102.354	0.099
516.900	112.471	0.099
517.000	110.769	0.099
517.100	126.710	0.099
517.200	108.010	0.099
517.300	95.246	0.099
517.400	140.451	0.099
517.500	113.151	0.099
517.600	104.314	0.099
517.700	117.793	0.099
517.800	109.434	0.099
517.900	100.458	0.099
518.000	107.069	0.099
518.100	121.796	0.099
518.200	111.356	0.099
518.300	100.001	0.099
518.400	122.891	0.099
518.500	99.452	0.099
518.600	111.433	0.099
518.700	106.324	0.099
518.800	97.363	0.099
518.900	111.822	0.099
519.000	97.798	0.099
519.100	117.981	0.099
519.200	104.625	0.099
519.300	118.286	0.099
519.400	115.881	0.099
519.500	94.290	0.099
519.600	112.668	0.099
519.700	88.298	0.099
519.800	115.083	0.099
519.900	102.764	0.099
520.000	141.331	0.099
520.100	127.263	0.099
520.200	109.629	0.099
520.300	87.611	0.099
520.400	115.147	0.099
520.500	109.045	0.099
520.600	96.842	0.099
520.700	106.139	0.099
520.800	98.424	0.099
520.900	100.070	0.099
521.000	103.988	0.099
521.100	90.665	0.099
521.200	104.414	0.099
521.300	115.010	0.099
521.400	110.879	0.099
521.500	117.136	0.099
521.600	99.314	0.099
521.700	100.046	0.099
521.800	124.590	0.099
521.900	111.032	0.099
522.000	99.611	0.099
522.100	100.409	0.099
522.200	115.777	0.099
522.300	106.222	0.099
522.400	109.772	0.099
522.500	97.141	0.099
522.600	115.018	0.099
522.700	117.990	0.099
522.800	115.580	0.099
522.900	106.918	0.099
523.000	117.056	0.099
523.100	101.969	0.099
523.200	107.129	0.099
523.300	69.960	0.099
523.400	108.424	0.099
523.500	124.026	0.099
523.600	131.088	0.099
523.700	98.892	0.099
523.800	97.516	0.099
523.900	109.363	0.099
524.000	107.691	0.099
524.100	101.085	0.099
524.200	103.690	0.099
524.300	91.898	0.099
524.400	100.021	0.100
524.500	115.141	0.099
524.600	96.345	0.099
524.700	84.980	0.099
524.800	101.080	0.099
524.900	99.056	0.099
525.000	111.214	0.099
525.100	103.272	0.100
525.200	113.552	0.099
525.300	117.203	0.099
525.400	103.098	0.099
525.500	106.506	0.099
525.600	98.366	0.099
525.700	100.461	0.099
525.800	110.002	0.099
525.900	98.396	0.099
526.000	100.204	0.099
526.100	111.944	0.099
526.200	113.426	0.100
526.300	90.354	0.099
526.400	111.250	0.100
526.500	101.023	0.099
526.600	110.117	0.100
526.700	119.578	0.100
526.800	81.756	0.099
526.900	111.740	0.099
527.000	94.588	0.099
527.100	112.515	0.099
527.200	104.239	0.099
527.300	97.624	0.099
527.400	109.413	0.099
527.500	119.276	0.100
527.600	116.607	0.099
527.700	72.900	0.099
527.800	89.350	0.099
527.900	97.476	0.099
528.000	94.934	0.099
528.100	111.594	0.099
528.200	129.612	0.099
528.300	95.431	0.099
528.400	84.752	0.099
528.500	98.176	0.099
528.600	120.067	0.099
528.700	95.042	0.099
528.800	115.642	0.099
528.900	100.681	0.099
529.000	107.506	0.099
529.100	111.573	0.099
529.200	83.223	0.099
529.300	99.714	0.099
529.400	98.188	0.099
529.500	95.114	0.099
529.600	86.670	0.099
529.700	128.050	0.099
529.800	91.491	0.099
529.900	113.008	0.099
530.000	102.467	0.099
530.100	86.461	0.099
530.200	117.588	0.099
530.300	110.522	0.099
530.400	103.543	0.099
530.500	105.089	0.099
530.600	90.155	0.099
530.700	114.062	0.099
530.800	115.175	0.099
530.900	112.988	0.099
531.000	113.547	0.099
531.100	84.168	0.099
531.200	89.041	0.100
531.300	107.577	0.099
531.400	109.385	0.099
531.500	122.969	0.099
531.600	116.358	0.099
531.700	99.020	0.099
531.800	130.958	0.099
531.900	85.733	0.099
532.000	88.485	0.099
532.100	94.570	0.099
532.200	110.589	0.099
532.300	91.622	0.099
532.400	93.926	0.099
532.500	110.062	0.099
532.600	143.877	0.099
532.700	108.698	0.099
532.800	93.144	0.099
532.900	122.793	0.099
533.000	91.472	0.099
533.100	119.049	0.099
533.200	105.746	0.099
533.300	97.697	0.100
533.400	98.402	0.099
533.500	116.563	0.099
533.600	70.243	0.099
533.700	98.482	0.099
533.800	118.669	0.099
533.900	89.924	0.099
534.000	116.024	0.099
534.100	102.594	0.099
534.200	88.936	0.099
534.300	84.096	0.099
534.400	95.046	0.099
534.500	114.840	0.099
534.600	105.086	0.099
534.700	80.220	0.099
534.800	101.611	0.099
534.900	68.400	0.099
535.000	102.068	0.099
535.100	111.433	0.099
535.200	106.917	0.099
535.300	93.548	0.099
535.400	100.020	0.099
535.500	98.961	0.099
535.600	101.629	0.099
535.700	105.548	0.099
535.800	72.814	0.099
535.900	109.152	0.099
536.000	92.364	0.099
536.100	97.467	0.099
536.200	119.281	0.099
536.300	107.288	0.099
536.400	117.838	0.100
536.500	107.181	0.099
536.600	94.387	0.099
536.700	83.506	0.099
536.800	120.719	0.099
536.900	106.597	0.099
537.000	105.301	0.099
537.100	99.480	0.099
537.200	93.815	0.099
537.300	93.580	0.099
537.400	101.000	0.099
537.500	92.797	0.099
537.600	112.560	0.099
537.700	105.702	0.099
537.800	101.331	0.099
537.900	112.341	0.099
538.000	109.030	0.099
538.100	101.022	0.099
538.200	103.274	0.099
538.300	90.088	0.099
538.400	102.857	0.099
538.500	102.591	0.099
538.600	108.680	0.099
538.700	107.917	0.099
538.800	109.152	0.100
538.900	79.854	0.099
539.000	118.156	0.099
539.100	98.851	0.099
539.200	108.430	0.099
539.300	99.841	0.099
539.400	92.061	0.100
539.500	111.835	0.100
539.600	93.198	0.099
539.700	86.043	0.099
539.800	105.866	0.099
539.900	108.414	0.099
540.000	105.641	0.099
540.100	109.520	0.099
540.200	111.909	0.099
540.300	89.805	0.099
540.400	77.586	0.099
540.500	71.925	0.099
540.600	69.752	0.099
540.700	60.405	0.100
540.800	51.989	0.099
540.900	51.337	0.099
541.000	37.606	0.099
541.100	44.329	0.099
541.200	26.863	0.099
541.300	36.467	0.099
541.400	13.001	0.099
541.500	31.747	0.099
541.600	0.702	0.099
541.700	3.062	0.099
541.800	13.800	0.099
541.900	25.246	0.099
542.000	7.013	0.099
542.100	6.836	0.099
542.200	4.953	0.099
542.300	6.795	0.099
542.400	5.193	0.099
542.500	-12.144	0.099
542.600	18.997	0.099
542.700	-0.888	0.099
542.800	-11.612	0.099
542.900	-41.639	0.099
543.000	-14.919	0.099
543.100	-22.419	0.099
543.200	-22.389	0.099
543.300	0.717	0.099
543.400	-35.051	0.099
543.500	6.689	0.099
543.600	-36.385	0.099
543.700	-41.926	0.099
543.800	-22.096	0.099
543.900	-33.326	0.099
544.000	-19.360	0.099
544.100	-23.687	0.099
544.200	-14.795	0.099
544.300	-28.383	0.099
544.400	-44.520	0.099
544.500	-23.375	0.099
544.600	-35.425	0.099
544.700	-35.405	0.099
544.800	-24.796	0.099
544.900	-38.540	0.099
545.000	-32.812	0.099
545.100	-23.975	0.099
545.200	-22.954	0.099
545.300	-41.379	0.099
545.400	-35.378	0.099
545.500	-27.614	0.099
545.600	-29.608	0.099
545.700	-12.964	0.099
545.800	-16.942	0.099
545.900	-28.576	0.099
546.000	-13.830	0.099
546.100	-42.005	0.099
546.200	-23.577	0.099
546.300	-30.013	0.099
546.400	-32.762	0.099
546.500	-36.753	0.099
546.600	-41.464	0.100
546.700	-32.545	0.099
546.800	-17.484	0.099
546.900	-22.451	0.099
547.000	-5.649	0.099
547.100	-50.581	0.099
547.200	-24.041	0.100
547.300	-44.686	0.099
547.400	-24.874	0.099
547.500	-30.816	0.099
547.600	-36.689	0.099
547.700	-29.328	0.100
547.800	-58.341	0.099
547.900	-40.063	0.099
548.000	-15.806	0.099
548.100	-37.556	0.099
548.200	-30.510	0.099
548.300	-59.377	0.099
548.400	-32.439	0.099
548.500	-31.567	0.099
548.600	-30.304	0.099
548.700	-32.554	0.099
548.800	-23.027	0.099
548.900	-42.279	0.099
549.000	-31.882	0.099
549.100	-30.117	0.099
549.200	-21.070	0.099
549.300	-31.459	0.099
549.400	-53.121	0.099
549.500	-42.656	0.099
549.600	-24.303	0.099
549.700	-12.419	0.099
549.800	-34.126	0.099
549.900	-42.980	0.100
550.000	-40.800	0.099
550.100	-35.990	0.099
550.200	-35.829	0.099
550.300	-42.295	0.099
550.400	-19.085	0.099
550.500	-25.841	0.099
550.600	-66.072	0.099
550.700	-28.672	0.099
550.800	-37.895	0.099
550.900	-45.207	0.099
551.000	-38.343	0.099
551.100	-58.037	0.099
551.200	-39.041	0.099
551.300	-40.355	0.099
551.400	-40.273	0.099
551.500	-39.630	0.099
551.600	-38.578	0.099
551.700	-44.614	0.099
551.800	-35.682	0.099
551.900	-32.000	0.099
552.000	-37.996	0.099
552.100	-53.531	0.100
552.200	-62.540	0.099
552.300	-69.708	0.099
552.400	-26.249	0.099
552.500	-24.832	0.099
552.600	-30.083	0.099
552.700	-37.731	0.099
552.800	-61.939	0.099
552.900	-43.596	0.099
553.000	-49.700	0.099
553.100	-57.896	0.099
553.200	-41.935	0.099
553.300	-54.526	0.099
553.400	-44.608	0.099
553.500	-57.042	0.099
553.600	-31.064	0.099
553.700	-46.149	0.100
553.800	-31.534	0.100
553.900	-59.810	0.099
554.000	-60.790	0.099
554.100	-51.999	0.100
554.200	-52.064	0.099
554.300	-31.910	0.100
554.400	-36.819	0.099
554.500	-59.296	0.099
554.600	-53.594	0.099
554.700	-39.518	0.099
554.800	-53.451	0.099
554.900	-50.466	0.099
555.000	-31.266	0.099
555.100	-36.536	0.099
555.200	-53.389	0.099
555.300	-58.046	0.099
555.400	-49.545	0.099
555.500	-66.845	0.099
555.600	-41.813	0.099
555.700	-46.569	0.100
555.800	-39.863	0.100
555.900	-45.671	0.099
556.000	-71.226	0.099
556.100	-63.511	0.100
556.200	-49.279	0.099
556.300	-70.753	0.099
556.400	-34.106	0.099
556.500	-63.320	0.099
556.600	-48.473	0.100
556.700	-41.394	0.099
556.800	-35.581	0.100
556.900	-61.188	0.099
557.000	-44.904	0.099
557.100	-60.241	0.099
557.200	-55.980	0.099
557.300	-33.595	0.100
557.400	-49.732	0.099
557.500	-58.031	0.100
557.600	-43.974	0.100
557.700	-75.594	0.100
557.800	-61.133	0.099
557.900	-64.126	0.100
558.000	-64.058	0.099
558.100	-50.369	0.099
558.200	-64.693	0.099
558.300	-57.050	0.099
558.400	-39.652	0.100
558.500	-43.571	0.100
558.600	-52.024	0.100
558.700	-65.397	0.100
558.800	-56.138	0.100
558.900	-53.237	0.100
559.000	-43.196	0.099
559.100	-51.276	0.099
559.200	-57.046	0.099
559.300	-51.733	0.099
559.400	-50.294	0.099
559.500	-50.023	0.099
559.600	-79.846	0.100
559.700	-51.627	0.100
559.800	-56.947	0.099
559.900	-51.832	0.100
560.000	-56.539	0.099
560.100	-51.902	0.100
560.200	-60.735	0.099
560.300	-56.585	0.099
560.400	-65.248	0.099
560.500	-50.128	0.100
560.600	-53.946	0.099
560.700	-42.607	0.099
560.800	-63.707	0.099
560.900	-74.168	0.099
561.000	-47.100	0.099
561.100	-27.101	0.100
561.200	-34.464	0.099
561.300	-77.753	0.100
561.400	-61.878	0.099
561.500	-42.173	0.099
561.600	-57.376	0.099
561.700	-47.784	0.099
561.800	-75.475	0.099
561.900	-64.313	0.099
562.000	-56.441	0.100
562.100	-62.330	0.099
562.200	-57.487	0.099
562.300	-37.675	0.099
562.400	-72.443	0.099
562.500	-47.355	0.099
562.600	-79.903	0.099
562.700	-46.002	0.099
562.800	-59.375	0.099
562.900	-51.587	0.100
563.000	-61.829	0.099
563.100	-63.943	0.099
563.200	-56.742	0.100
563.300	-94.976	0.099
563.400	-64.866	0.099
563.500	-56.545	0.099
563.600	-57.906	0.099
563.700	-58.660	0.100
563.800	-63.057	0.100
563.900	-63.245	0.099
564.000	-52.127	0.100
564.100	-86.260	0.099
564.200	-51.792	0.100
564.300	-48.756	0.099
564.400	-66.676	0.100
564.500	-58.434	0.099
564.600	-55.921	0.099
564.700	-57.353	0.100
564.800	-33.697	0.100
564.900	-73.299	0.099
565.000	-46.550	0.099
565.100	-61.837	0.099
565.200	-80.509	0.099
565.300	-69.782	0.099
565.400	-48.079	0.099
565.500	-78.962	0.099
565.600	-61.499	0.099
565.700	-49.300	0.100
565.800	-36.001	0.099
565.900	-51.892	0.099
566.000	-52.232	0.099
566.100	-86.588	0.099
566.200	-37.730	0.099
566.300	-47.633	0.100
566.400	-45.188	0.099
566.500	-65.793	0.099
566.600	-67.584	0.099
566.700	-59.896	0.100
566.800	-60.625	0.100
566.900	-86.386	0.099
567.000	-53.047	0.099
567.100	-45.765	0.099
567.200	-85.895	0.099
567.300	-76.985	0.099
567.400	-58.249	0.099
567.500	-49.029	0.099
567.600	-68.822	0.099
567.700	-56.572	0.099
567.800	-55.368	0.099
567.900	-55.738	0.099
568.000	-71.628	0.099
568.100	-59.203	0.099
568.200	-66.025	0.099
568.300	-77.694	0.099
568.400	-50.955	0.099
568.500	-70.634	0.099
568.600	-58.390	0.099
568.700	-89.111	0.099
568.800	-46.714	0.099
568.900	-76.156	0.099
569.000	-56.726	0.099
569.100	-65.872	0.099
569.200	-46.808	0.099
569.300	-51.998	0.099
569.400	-58.957	0.099
569.500	-46.468	0.099
569.600	-92.852	0.099
569.700	-65.735	0.099
569.800	-58.666	0.099
569.900	-71.869	0.099
570.000	-57.182	0.099
570.100	-77.950	0.099
570.200	-58.225	0.099
570.300	-69.557	0.099
570.400	-76.932	0.099
570.500	-61.704	0.099
570.600	-59.646	0.099
570.700	-72.319	0.099
570.800	-49.486	0.099
570.900	-54.615	0.099
571.000	-66.908	0.099
571.100	-79.799	0.099
571.200	-55.276	0.099
571.300	-58.610	0.099
571.400	-54.714	0.099
571.500	-70.556	0.099
571.600	-51.511	0.099
571.700	-68.922	0.099
571.800	-71.865	0.099
571.900	-48.842	0.099
572.000	-57.900	0.099
572.100	-57.823	0.099
572.200	-50.931	0.099
572.300	-63.419	0.099
572.400	-72.628	0.099
572.500	-63.810	0.099
572.600	-74.827	0.099
572.700	-48.432	0.099
572.800	-57.502	0.099
572.900	-58.690	0.099
573.000	-49.224	0.099
573.100	-72.494	0.099
573.200	-55.544	0.099
573.300	-60.941	0.099
573.400	-65.086	0.099
573.500	-77.881	0.099
573.600	-61.419	0.099
573.700	-57.027	0.100
573.800	-75.176	0.099
573.900	-46.663	0.099
574.000	-63.344	0.099
574.100	-59.368	0.099
574.200	-59.543	0.099
574.300	-64.343	0.099
574.400	-82.096	0.099
574.500	-65.628	0.099
574.600	-61.024	0.099
574.700	-61.405	0.099
574.800	-66.202	0.099
574.900	-83.314	0.099
575.000	-76.413	0.099
575.100	-45.881	0.099
575.200	-78.277	0.099
575.300	-75.120	0.099
575.400	-45.751	0.099
575.500	-62.567	0.099
575.600	-71.206	0.099
575.700	-57.536	0.099
575.800	-61.284	0.099
575.900	-70.683	0.099
576.000	-49.752	0.099
576.100	-70.079	0.100
576.200	-69.344	0.100
576.300	-94.976	0.099
576.400	-58.661	0.099
576.500	-52.828	0.099
576.600	-48.262	0.099
576.700	-73.196	0.099
576.800	-59.020	0.099
576.900	-56.138	0.099
577.000	-79.259	0.099
577.100	-51.312	0.099
577.200	-50.700	0.099
577.300	-58.320	0.099
577.400	-76.344	0.099
577.500	-52.199	0.099
577.600	-73.130	0.099
577.700	-71.727	0.099
577.800	-70.064	0.099
577.900	-50.654	0.099
578.000	-52.457	0.099
578.100	-51.289	0.099
578.200	-69.718	0.099
578.300	-65.231	0.099
578.400	-67.235	0.099
578.500	-45.370	0.099
578.600	-67.967	0.099
578.700	-74.698	0.099
578.800	-78.263	0.099
578.900	-53.230	0.099
579.000	-53.733	0.099
579.100	-64.118	0.099
579.200	-63.941	0.099
579.300	-41.783	0.099
579.400	-68.366	0.099
579.500	-73.349	0.099
579.600	-62.704	0.099
579.700	-37.799	0.099
579.800	-55.119	0.099
579.900	-52.987	0.099
580.000	-65.307	0.099
580.100	-63.713	0.099
580.200	-45.173	0.099
580.300	-65.000	0.099
580.400	-48.343	0.099
580.500	-68.822	0.099
580.600	-63.365	0.099
580.700	-67.156	0.099
580.800	-44.061	0.099
580.900	-75.476	0.099
581.000	-65.145	0.099
581.100	-66.817	0.099
581.200	-76.234	0.099
581.300	-51.598	0.099
581.400	-46.238	0.099
581.500	-77.002	0.099
581.600	-53.499	0.099
581.700	-61.033	0.099
581.800	-55.491	0.099
581.900	-73.179	0.099
582.000	-46.717	0.099
582.100	-60.780	0.099
582.200	-46.031	0.099
582.300	-59.477	0.099
582.400	-65.464	0.099
582.500	-52.802	0.099
582.600	-49.329	0.099
582.700	-54.736	0.099
582.800	-66.605	0.099
582.900	-57.386	0.099
583.000	-44.186	0.099
583.100	-69.978	0.099
583.200	-69.134	0.099
583.300	-51.393	0.099
583.400	-57.235	0.099
583.500	-63.209	0.099
583.600	-38.729	0.099
583.700	-58.851	0.099
583.800	-58.563	0.099
583.900	-88.502	0.099
584.000	-64.346	0.099
584.100	-42.925	0.099
584.200	-45.007	0.099
584.300	-67.847	0.099
584.400	-79.409	0.099
584.500	-50.394	0.099
584.600	-57.647	0.099
584.700	-51.586	0.099
584.800	-44.147	0.099
584.900	-92.007	0.099
585.000	-68.178	0.099
585.100	-44.201	0.099
585.200	-54.503	0.099
585.300	-75.446	0.099
585.400	-83.297	0.099
585.500	-32.581	0.099
585.600	-47.408	0.099
585.700	-68.574	0.099
585.800	-51.087	0.099
585.900	-59.525	0.099
586.000	-70.559	0.099
586.100	-88.204	0.099
586.200	-58.915	0.099
586.300	-27.027	0.099
586.400	-48.254	0.099
586.500	-72.198	0.099
586.600	-62.203	0.099
586.700	-57.529	0.099
586.800	-43.378	0.099
586.900	-74.700	0.099
587.000	-71.694	0.099
587.100	-79.174	0.099
587.200	-47.513	0.099
587.300	-28.953	0.099
587.400	-50.002	0.099
587.500	-48.873	0.099
587.600	-50.661	0.099
587.700	-75.616	0.099
587.800	-51.524	0.099
587.900	-67.551	0.099
588.000	-63.691	0.099
588.100	-40.114	0.099
588.200	-52.906	0.099
588.300	-50.179	0.099
588.400	-50.768	0.099
588.500	-56.186	0.099
588.600	-75.232	0.099
588.700	-56.078	0.099
588.800	-82.561	0.099
588.900	-52.957	0.099
589.000	-43.384	0.099
589.100	-52.921	0.099
589.200	-40.524	0.099
589.300	-42.393	0.099
589.400	-60.452	0.099
589.500	-55.531	0.099
589.600	-58.115	0.099
589.700	-48.267	0.099
589.800	-33.393	0.099
589.900	-65.961	0.099
590.000	-48.718	0.099
590.100	-49.468	0.099
590.200	-53.881	0.099
590.300	-73.010	0.099
590.400	-31.103	0.099
590.500	-42.349	0.099
590.600	-96.312	0.099
590.700	-52.656	0.099
590.800	-53.471	0.099
590.900	-45.871	0.099
591.000	-53.876	0.099
591.100	-62.650	0.099
591.200	-48.217	0.099
591.300	-60.459	0.099
591.400	-78.347	0.099
591.500	-50.773	0.099
591.600	-45.381	0.099
591.700	-49.105	0.099
591.800	-49.406	0.099
591.900	-66.099	0.099
592.000	-52.002	0.099
592.100	-58.796	0.099
592.200	-49.698	0.099
592.300	-34.880	0.099
592.400	-52.593	0.099
592.500	-69.303	0.099
592.600	-68.855	0.099
592.700	-28.437	0.099
592.800	-49.786	0.099
592.900	-56.344	0.099
593.000	-58.076	0.099
593.100	-57.346	0.099
593.200	-47.465	0.099
593.300	-47.920	0.099
593.400	-43.715	0.099
593.500	-55.018	0.099
593.600	-33.985	0.099
593.700	-49.027	0.099
593.800	-55.604	0.099
593.900	-39.100	0.099
594.000	-72.303	0.099
594.100	-60.563	0.099
594.200	-17.524	0.099
594.300	-31.385	0.099
594.400	-39.328	0.099
594.500	-69.852	0.099
594.600	-50.018	0.099
594.700	-51.189	0.099
594.800	-50.694	0.099
594.900	-74.396	0.099
595.000	-55.634	0.099
595.100	-47.530	0.099
595.200	-49.157	0.099
595.300	-45.543	0.099
595.400	-60.643	0.100
595.500	-55.902	0.099
595.600	-42.585	0.099
595.700	-55.539	0.099
595.800	-44.591	0.099
595.900	-37.784	0.099
596.000	-52.309	0.099
596.100	-56.863	0.099
596.200	-39.454	0.099
596.300	-57.001	0.099
596.400	-30.417	0.099
596.500	-51.744	0.099
596.600	-55.316	0.099
596.700	-55.321	0.099
596.800	-53.647	0.099
596.900	-48.619	0.099
597.000	-48.417	0.099
597.100	-56.468	0.099
597.200	-40.792	0.099
597.300	-42.284	0.099
597.400	-46.221	0.099
597.500	-53.988	0.099
597.600	-47.632	0.099
597.700	-58.666	0.099
597.800	-50.173	0.099
597.900	-49.802	0.099
598.000	-30.123	0.099
598.100	-42.641	0.099
598.200	-69.381	0.099
598.300	-36.039	0.099
598.400	-27.214	0.099
598.500	-57.302	0.099
598.600	-55.199	0.099
598.700	-48.725	0.099
598.800	-62.186	0.099
598.900	-55.510	0.099
599.000	-45.623	0.099
599.100	-53.717	0.099
599.200	-32.444	0.099
599.300	-56.620	0.099
599.400	-38.012	0.099
599.500	-49.507	0.099
599.600	-60.104	0.099
599.700	-35.555	0.099
599.800	-52.911	0.099
599.900	-28.074	0.099
600.000	-61.217	0.099
600.100	-46.812	0.099
600.200	-24.953	0.099
600.300	-55.767	0.099
600.400	-41.259	0.099
600.500	-52.092	0.099
600.600	-82.220	0.099
600.700	-50.430	0.099
600.800	-46.407	0.099
600.900	-39.764	0.099
601.000	-48.082	0.099
601.100	-53.066	0.099
601.200	-47.440	0.099
601.300	-45.336	0.099
601.400	-36.522	0.099
601.500	-37.257	0.099
601.600	-41.001	0.099
601.700	-44.432	0.099
601.800	-40.203	0.099
601.900	-60.504	0.099
602.000	-49.044	0.099
602.100	-43.983	0.099
602.200	-52.737	0.099
602.300	-58.612	0.099
602.400	-71.461	0.099
602.500	-68.557	0.099
602.600	-39.571	0.099
602.700	-46.838	0.099
602.800	-39.086	0.099
602.900	-48.766	0.099
603.000	-48.855	0.099
603.100	-50.320	0.099
603.200	-11.352	0.099
603.300	-47.160	0.099
603.400	-46.521	0.099
603.500	-51.744	0.099
603.600	-54.187	0.099
603.700	-53.100	0.099
603.800	-53.381	0.099
603.900	-40.934	0.099
604.000	-42.842	0.099
604.100	-29.888	0.099
604.200	-58.901	0.099
604.300	-40.500	0.099
604.400	-33.560	0.099
604.500	-45.375	0.099
604.600	-40.628	0.099
604.700	-70.048	0.099
604.800	-63.991	0.099
604.900	-28.631	0.099
605.000	-55.127	0.099
605.100	-46.147	0.099
605.200	-34.710	0.099
605.300	-44.024	0.099
605.400	-44.144	0.099
605.500	-48.845	0.099
605.600	-51.933	0.099
605.700	-34.875	0.099
605.800	-34.807	0.099
605.900	-53.839	0.099
606.000	-52.858	0.099
606.100	-36.061	0.099
606.200	-45.122	0.099
606.300	-48.726	0.099
606.400	-41.843	0.099
606.500	-39.223	0.099
606.600	-45.723	0.099
606.700	-32.916	0.099
606.800	-71.145	0.099
606.900	-47.999	0.099
607.000	-43.454	0.099
607.100	-34.248	0.100
607.200	-41.860	0.099
607.300	-56.088	0.099
607.400	-50.741	0.099
607.500	-48.324	0.099
607.600	-61.357	0.099
607.700	-44.616	0.099
607.800	-41.190	0.099
607.900	-31.752	0.099
608.000	-54.791	0.099
608.100	-32.733	0.099
608.200	-69.897	0.099
608.300	-39.713	0.099
608.400	-60.193	0.099
608.500	-42.108	0.099
608.600	-53.150	0.099
608.700	-27.755	0.099
608.800	-60.680	0.099
608.900	-36.395	0.099
609.000	-27.691	0.099
609.100	-58.674	0.099
609.200	-32.957	0.099
609.300	-51.353	0.099
609.400	-50.641	0.099
609.500	-44.780	0.099
609.600	-32.872	0.099
609.700	-58.520	0.099
609.800	-54.712	0.099
609.900	-34.001	0.099
610.000	-27.099	0.099
610.100	-46.725	0.099
610.200	-42.500	0.099
610.300	-32.968	0.099
610.400	-47.430	0.099
610.500	-46.780	0.099
610.600	-39.053	0.100
610.700	-50.842	0.099
610.800	-36.153	0.099
610.900	-52.401	0.099
611.000	-42.803	0.099
611.100	-41.610	0.099
611.200	-38.655	0.099
611.300	-36.242	0.099
611.400	-49.800	0.099
611.500	-27.503	0.099
611.600	-49.329	0.099
611.700	-32.911	0.099
611.800	-59.096	0.099
611.900	-24.569	0.099
612.000	-37.215	0.099
612.100	-51.658	0.099
612.200	-55.847	0.099
612.300	-29.995	0.099
612.400	-54.812	0.099
612.500	-27.012	0.099
612.600	-50.608	0.099
612.700	-45.354	0.099
612.800	-45.947	0.099
612.900	-41.502	0.099
613.000	-59.952	0.099
613.100	-34.026	0.099
613.200	-32.124	0.100
613.300	-46.252	0.099
613.400	-43.844	0.099
613.500	-51.313	0.099
613.600	-42.641	0.099
613.700	-50.302	0.099
613.800	-32.309	0.099
613.900	-43.766	0.099
614.000	-41.611	0.099
614.100	-51.391	0.099
614.200	-38.825	0.099
614.300	-32.727	0.099
614.400	-36.462	0.099
614.500	-39.007	0.099
614.600	-42.194	0.099
614.700	-35.016	0.099
614.800	-32.582	0.099
614.900	-52.233	0.099
615.000	-45.799	0.099
615.100	-28.483	0.099
615.200	-53.578	0.099
615.300	-34.690	0.099
615.400	-37.517	0.099
615.500	-53.936	0.099
615.600	-59.766	0.099
615.700	-28.196	0.099
615.800	-44.764	0.099
615.900	-44.437	0.099
616.000	-65.225	0.099
616.100	1.934	0.099
616.200	-69.850	0.099
616.300	-36.234	0.099
616.400	-43.275	0.099
616.500	-28.663	0.099
616.600	-34.024	0.099
616.700	-48.036	0.099
616.800	-33.513	0.099
616.900	-45.545	0.099
617.000	-56.239	0.099
617.100	-19.355	0.099
617.200	-50.714	0.099
617.300	-53.462	0.099
617.400	-34.257	0.099
617.500	-27.473	0.099
617.600	-46.332	0.099
617.700	-36.233	0.099
617.800	-47.710	0.099
617.900	-48.762	0.099
618.000	-62.788	0.099
618.100	-46.267	0.099
618.200	-63.128	0.099
618.300	-36.574	0.099
618.400	-29.675	0.099
618.500	-48.890	0.099
618.600	-45.525	0.099
618.700	-38.448	0.099
618.800	-25.850	0.099
618.900	-37.536	0.099
619.000	-67.284	0.099
619.100	-40.663	0.099
619.200	-39.029	0.099
619.300	-41.943	0.099
619.400	-30.570	0.099
619.500	-27.871	0.099
619.600	-26.426	0.099
619.700	-32.622	0.099
619.800	-35.694	0.099
619.900	-43.743	0.099
620.000	-44.507	0.099
620.100	-61.583	0.099
620.200	-28.607	0.099
620.300	-39.728	0.099
620.400	-41.653	0.099
620.500	-42.659	0.099
620.600	-34.428	0.099
620.700	-34.731	0.099
620.800	-56.343	0.099
620.900	-45.832	0.099
621.000	-50.186	0.099
621.100	-51.847	0.099
621.200	-48.811	0.099
621.300	-30.637	0.099
621.400	-42.680	0.099
621.500	-28.721	0.099
621.600	-33.978	0.099
621.700	-26.278	0.099
621.800	-60.653	0.099
621.900	-48.287	0.099
622.000	-46.506	0.099
622.100	-28.329	0.099
622.200	-31.691	0.099
622.300	-38.774	0.099
622.400	-50.155	0.099
622.500	-44.211	0.099
622.600	-39.448	0.099
622.700	-37.585	0.099
622.800	-43.651	0.099
622.900	-53.401	0.099
623.000	-24.159	0.099
623.100	-49.596	0.099
623.200	-59.776	0.099
623.300	-45.979	0.099
623.400	-12.899	0.099
623.500	-45.717	0.099
623.600	-56.038	0.099
623.700	-41.819	0.099
623.800	-39.207	0.099
623.900	-51.547	0.099
624.000	-18.476	0.099
624.100	-36.957	0.099
624.200	-46.851	0.099
624.300	-55.829	0.099
624.400	-45.556	0.099
624.500	-22.514	0.099
624.600	-42.964	0.099
624.700	-51.990	0.099
624.800	-43.264	0.099
624.900	-29.003	0.099
625.000	-30.850	0.099
625.100	-31.759	0.099
625.200	-41.498	0.099
625.300	-42.137	0.099
625.400	-51.079	0.099
625.500	-44.807	0.099
625.600	-35.713	0.099
625.700	-53.474	0.099
625.800	-33.753	0.099
625.900	-39.188	0.099
626.000	-28.635	0.099
626.100	-47.028	0.100
626.200	-54.137	0.099
626.300	-50.019	0.099
626.400	-26.975	0.099
626.500	-32.433	0.100
626.600	-38.184	0.099
626.700	-54.410	0.099
626.800	-57.858	0.099
626.900	-39.925	0.099
627.000	-23.168	0.099
627.100	-46.478	0.100
627.200	-34.084	0.099
627.300	-32.986	0.099
627.400	-42.968	0.099
627.500	-62.742	0.099
627.600	-11.983	0.099
627.700	-22.809	0.099
627.800	-61.896	0.099
627.900	-35.271	0.099
628.000	-30.628	0.099
628.100	-35.969	0.099
628.200	-39.884	0.099
628.300	-47.072	0.099
628.400	-43.187	0.099
628.500	-25.992	0.099
628.600	-25.894	0.099
628.700	-49.332	0.099
628.800	-53.101	0.099
628.900	-31.814	0.099
629.000	-49.143	0.099
629.100	-15.214	0.099
629.200	-51.171	0.099
629.300	-31.250	0.099
629.400	-29.877	0.099
629.500	-37.082	0.099
629.600	-28.428	0.099
629.700	-45.978	0.099
629.800	-40.795	0.099
629.900	-49.057	0.099
630.000	-52.010	0.099
630.100	-49.166	0.099
630.200	-36.940	0.099
630.300	-39.414	0.099
630.400	-37.044	0.099
630.500	-40.324	0.099
630.600	-38.073	0.099
630.700	-15.131	0.099
630.800	-24.085	0.100
630.900	-5.732	0.099
631.000	11.157	0.099
631.100	-11.962	0.099
631.200	8.950	0.099
631.300	23.578	0.099
631.400	3.985	0.099
631.500	28.200	0.099
631.600	17.741	0.099
631.700	6.682	0.099
631.800	44.098	0.099
631.900	34.042	0.099
632.000	46.863	0.099
632.100	46.141	0.099
632.200	22.819	0.099
632.300	7.197	0.099
632.400	14.731	0.099
632.500	62.248	0.099
632.600	33.454	0.099
632.700	38.180	0.099
632.800	35.661	0.099
632.900	42.623	0.099
633.000	30.626	0.099
633.100	55.814	0.099
633.200	21.464	0.099
633.300	48.944	0.099
633.400	24.067	0.099
633.500	15.907	0.099
633.600	37.353	0.099
633.700	51.042	0.099
633.800	40.554	0.099
633.900	37.559	0.099
634.000	30.199	0.099
634.100	46.105	0.099
634.200	11.908	0.099
634.300	14.690	0.099
634.400	45.732	0.099
634.500	9.622	0.099
634.600	38.830	0.099
634.700	36.117	0.099
634.800	32.374	0.099
634.900	33.082	0.099
635.000	35.913	0.099
635.100	27.742	0.099
635.200	60.552	0.099
635.300	21.198	0.099
635.400	43.797	0.099
635.500	33.626	0.099
635.600	21.549	0.099
635.700	37.779	0.099
635.800	45.685	0.099
635.900	30.622	0.099
636.000	52.739	0.099
636.100	31.987	0.099
636.200	13.216	0.099
636.300	32.724	0.099
636.400	34.725	0.099
636.500	17.463	0.099
636.600	66.508	0.099
636.700	30.803	0.099
636.800	53.789	0.099
636.900	61.049	0.099
637.000	22.554	0.099
637.100	52.777	0.099
637.200	49.165	0.099
637.300	36.071	0.099
637.400	34.753	0.099
637.500	51.033	0.099
637.600	40.558	0.099
637.700	53.099	0.099
637.800	67.471	0.099
637.900	47.367	0.099
638.000	56.968	0.099
638.100	59.050	0.099
638.200	51.840	0.099
638.300	47.336	0.099
638.400	54.236	0.099
638.500	59.824	0.099
638.600	70.272	0.099
638.700	70.141	0.099
638.800	58.289	0.099
638.900	24.768	0.099
639.000	83.406	0.099
639.100	77.057	0.099
639.200	61.759	0.099
639.300	62.459	0.099
639.400	62.395	0.099
639.500	61.693	0.099
639.600	54.452	0.099
639.700	59.319	0.099
639.800	76.844	0.099
639.900	70.888	0.099
640.000	92.335	0.099
640.100	77.447	0.099
640.200	77.597	0.099
640.300	75.732	0.099
640.400	65.535	0.099
640.500	110.054	0.099
640.600	89.524	0.099
640.700	82.393	0.099
640.800	84.254	0.099
640.900	88.036	0.099
641.000	79.966	0.099
641.100	92.351	0.099
641.200	102.536	0.099
641.300	89.612	0.099
641.400	92.665	0.099
641.500	94.953	0.099
641.600	93.662	0.100
641.700	105.761	0.099
641.800	100.297	0.099
641.900	75.551	0.099
642.000	104.482	0.099
642.100	107.947	0.099
642.200	108.122	0.099
642.300	103.986	0.099
642.400	129.360	0.099
642.500	98.754	0.100
642.600	96.576	0.100
642.700	113.057	0.099
642.800	124.029	0.099
642.900	103.254	0.099
643.000	96.568	0.099
643.100	128.717	0.099
643.200	90.673	0.099
643.300	112.261	0.099
643.400	118.959	0.099
643.500	107.462	0.099
643.600	124.236	0.099
643.700	94.462	0.099
643.800	128.557	0.099
643.900	123.733	0.099
644.000	117.939	0.099
644.100	150.750	0.099
644.200	140.811	0.099
644.300	127.873	0.099
644.400	109.706	0.099
644.500	131.321	0.099
644.600	120.999	0.100
644.700	121.399	0.099
644.800	138.861	0.099
644.900	127.304	0.099
645.000	131.770	0.099
645.100	130.840	0.099
645.200	137.657	0.099
645.300	143.905	0.099
645.400	111.248	0.099
645.500	115.856	0.099
645.600	147.735	0.099
645.700	148.027	0.099
645.800	120.215	0.099
645.900	119.809	0.099
646.000	142.968	0.099
646.100	118.479	0.099
646.200	124.232	0.100
646.300	125.223	0.099
646.400	119.960	0.100
646.500	120.353	0.100
646.600	130.254	0.099
646.700	134.284	0.099
646.800	138.454	0.100
646.900	102.048	0.100
647.000	126.123	0.099
647.100	115.402	0.100
647.200	109.206	0.099
647.300	125.902	0.099
647.400	121.949	0.099
647.500	121.515	0.099
647.600	103.040	0.099
647.700	119.565	0.099
647.800	138.522	0.099
647.900	111.582	0.099
648.000	114.127	0.099
648.100	128.966	0.099
648.200	117.235	0.099
648.300	113.552	0.099
648.400	147.349	0.099
648.500	129.073	0.099
648.600	95.790	0.099
648.700	125.993	0.099
648.800	126.389	0.100
648.900	117.618	0.100
649.000	119.741	0.099
649.100	125.357	0.100
649.200	145.684	0.099
649.300	122.927	0.099
649.400	114.911	0.100
649.500	135.500	0.099
649.600	123.140	0.099
649.700	104.654	0.099
649.800	132.868	0.099
649.900	113.415	0.099
650.000	101.076	0.099
650.100	125.254	0.099
650.200	124.632	0.099
650.300	101.873	0.100
650.400	130.826	0.099
650.500	99.149	0.099
650.600	133.180	0.099
650.700	129.167	0.099
650.800	123.514	0.099
650.900	131.513	0.099
651.000	120.991	0.099
651.100	125.592	0.099
651.200	119.187	0.099
651.300	118.458	0.099
651.400	113.270	0.099
651.500	130.184	0.099
651.600	109.904	0.100
651.700	131.548	0.099
651.800	99.289	0.099
651.900	135.908	0.099
652.000	136.538	0.099
652.100	117.576	0.099
652.200	117.396	0.099
652.300	105.641	0.099
652.400	126.280	0.099
652.500	124.741	0.099
652.600	110.605	0.099
652.700	103.885	0.100
652.800	102.370	0.099
652.900	112.038	0.099
653.000	103.481	0.099
653.100	114.825	0.099
653.200	92.892	0.099
653.300	110.562	0.099
653.400	117.840	0.099
653.500	132.868	0.099
653.600	118.578	0.099
653.700	100.568	0.099
653.800	139.251	0.099
653.900	107.717	0.099
654.000	115.843	0.099
654.100	129.172	0.099
654.200	104.773	0.100
654.300	129.500	0.099
654.400	125.492	0.099
654.500	113.365	0.099
654.600	97.271	0.099
654.700	104.838	0.099
654.800	105.484	0.099
654.900	120.830	0.099
655.000	112.325	0.099
655.100	132.040	0.099
655.200	93.019	0.100
655.300	112.386	0.099
655.400	115.663	0.099
655.500	114.323	0.099
655.600	123.572	0.099
655.700	120.027	0.099
655.800	107.278	0.099
655.900	127.679	0.099
656.000	109.979	0.099
656.100	123.227	0.099
656.200	133.322	0.099
656.300	111.980	0.099
656.400	102.465	0.099
656.500	114.234	0.099
656.600	122.837	0.099
656.700	129.466	0.099
656.800	110.124	0.099
656.900	113.522	0.099
657.000	110.968	0.099
657.100	106.669	0.099
657.200	133.423	0.100
657.300	86.701	0.099
657.400	94.638	0.099
657.500	118.187	0.099
657.600	126.454	0.099
657.700	108.514	0.099
657.800	104.546	0.099
657.900	121.208	0.099
658.000	130.790	0.099
658.100	88.002	0.099
658.200	127.063	0.099
658.300	102.653	0.100
658.400	102.405	0.099
658.500	113.480	0.099
658.600	126.712	0.099
658.700	112.486	0.099
658.800	114.524	0.099
658.900	134.059	0.099
659.000	104.666	0.099
659.100	103.547	0.099
659.200	116.464	0.099
659.300	109.487	0.099
659.400	95.376	0.099
659.500	117.510	0.099
659.600	117.955	0.100
659.700	110.126	0.099
659.800	89.031	0.099
659.900	123.959	0.099
660.000	116.036	0.099
660.100	121.122	0.099
660.200	113.552	0.099
660.300	97.503	0.099
660.400	117.641	0.099
660.500	106.762	0.099
660.600	103.742	0.099
660.700	116.079	0.099
660.800	125.278	0.099
660.900	112.572	0.099
661.000	112.116	0.099
661.100	111.560	0.099
661.200	109.494	0.099
661.300	95.542	0.099
661.400	105.889	0.099
661.500	114.526	0.099
661.600	89.238	0.099
661.700	143.365	0.099
661.800	124.861	0.100
661.900	107.478	0.099
662.000	108.276	0.099
662.100	102.805	0.099
662.200	130.099	0.100
662.300	96.372	0.099
662.400	120.711	0.099
662.500	113.046	0.099
662.600	103.561	0.099
662.700	128.156	0.099
662.800	92.309	0.099
662.900	120.127	0.099
663.000	113.728	0.099
663.100	122.649	0.099
663.200	134.392	0.100
663.300	109.120	0.099
663.400	86.759	0.099
663.500	90.663	0.099
663.600	101.311	0.099
663.700	108.927	0.099
663.800	117.712	0.099
663.900	136.772	0.099
664.000	104.258	0.099
664.100	99.305	0.100
664.200	104.139	0.099
664.300	103.675	0.099
664.400	113.861	0.099
664.500	107.833	0.099
664.600	112.664	0.099
664.700	127.218	0.099
664.800	103.310	0.100
664.900	118.258	0.099
665.000	92.983	0.099
665.100	100.937	0.099
665.200	115.576	0.099
665.300	114.321	0.099
665.400	99.474	0.099
665.500	122.342	0.099
665.600	110.957	0.100
665.700	86.479	0.099
665.800	121.763	0.100
665.900	109.173	0.099
666.000	118.888	0.099
666.100	123.033	0.099
666.200	89.882	0.099
666.300	122.269	0.099
666.400	107.063	0.099
666.500	122.479	0.099
666.600	102.770	0.099
666.700	127.229	0.099
666.800	100.578	0.099
666.900	101.520	0.099
667.000	107.463	0.100
667.100	124.226	0.099
667.200	122.225	0.099
667.300	104.964	0.099
667.400	121.214	0.100
667.500	106.453	0.099
667.600	85.225	0.099
667.700	109.368	0.099
667.800	99.462	0.099
667.900	125.356	0.099
668.000	104.073	0.099
668.100	79.849	0.099
668.200	107.738	0.099
668.300	115.981	0.099
668.400	107.090	0.099
668.500	106.345	0.099
668.600	113.090	0.099
668.700	113.519	0.099
668.800	114.301	0.099
668.900	113.325	0.100
669.000	107.049	0.099
669.100	103.088	0.099
669.200	99.077	0.100
669.300	120.297	0.099
669.400	111.156	0.099
669.500	108.706	0.100
669.600	101.975	0.099
669.700	113.382	0.099
669.800	114.039	0.099
669.900	106.376	0.099
670.000	95.273	0.099
670.100	125.295	0.099
670.200	105.407	0.099
670.300	94.122	0.099
670.400	107.857	0.099
670.500	106.670	0.099
670.600	112.587	0.099
670.700	105.467	0.100
670.800	120.072	0.099
670.900	113.245	0.099
671.000	103.290	0.099
671.100	120.813	0.099
671.200	102.930	0.099
671.300	99.963	0.100
671.400	113.288	0.099
671.500	104.538	0.099
671.600	91.193	0.100
671.700	132.667	0.099
671.800	97.827	0.099
671.900	102.749	0.099
672.000	118.293	0.099
672.100	115.767	0.100
672.200	97.605	0.099
672.300	119.838	0.099
672.400	104.522	0.099
672.500	101.284	0.099
672.600	108.709	0.099
672.700	87.648	0.099
672.800	119.224	0.100
672.900	116.495	0.099
673.000	111.908	0.099
673.100	116.227	0.099
673.200	96.592	0.099
673.300	107.431	0.099
673.400	111.856	0.099
673.500	108.978	0.099
673.600	96.020	0.099
673.700	90.569	0.099
673.800	112.081	0.099
673.900	103.285	0.100
674.000	110.793	0.099
674.100	110.691	0.099
674.200	124.204	0.099
674.300	107.680	0.099
674.400	104.568	0.099
674.500	113.357	0.100
674.600	116.811	0.100
674.700	104.834	0.099
674.800	113.089	0.099
674.900	109.525	0.099
675.000	99.292	0.099
675.100	104.603	0.099
675.200	87.570	0.099
675.300	108.871	0.099
675.400	134.172	0.099
675.500	78.473	0.099
675.600	115.596	0.099
675.700	98.656	0.099
675.800	125.534	0.099
675.900	84.416	0.099
676.000	106.940	0.099
676.100	114.547	0.099
676.200	101.492	0.099
676.300	104.001	0.100
676.400	97.017	0.100
676.500	93.891	0.099
676.600	129.653	0.099
676.700	90.944	0.100
676.800	97.973	0.099
676.900	103.315	0.099
677.000	122.730	0.099
677.100	104.417	0.099
677.200	83.521	0.100
677.300	98.014	0.099
677.400	84.161	0.099
677.500	120.162	0.099
677.600	117.167	0.099
677.700	114.195	0.099
677.800	73.654	0.099
677.900	113.138	0.099
678.000	113.909	0.099
678.100	98.967	0.099
678.200	102.191	0.099
678.300	105.347	0.099
678.400	107.780	0.100
678.500	120.605	0.099
678.600	90.978	0.100
678.700	111.785	0.099
678.800	113.529	0.100
678.900	96.578	0.099
679.000	124.208	0.099
679.100	112.092	0.099
679.200	116.947	0.099
679.300	106.455	0.099
679.400	93.132	0.099
679.500	116.868	0.099
679.600	97.312	0.099
679.700	104.050	0.099
679.800	111.889	0.099
679.900	113.234	0.099
680.000	106.074	0.099
680.100	105.504	0.099
680.200	126.844	0.100
680.300	92.414	0.099
680.400	105.407	0.099
680.500	100.456	0.100
680.600	98.916	0.099
680.700	104.458	0.099
680.800	104.430	0.099
680.900	103.062	0.099
681.000	107.688	0.100
681.100	98.308	0.100
681.200	92.757	0.099
681.300	80.832	0.099
681.400	120.532	0.100
681.500	109.316	0.099
681.600	100.185	0.099
681.700	109.900	0.099
681.800	119.495	0.099
681.900	107.918	0.100
682.000	114.550	0.099
682.100	126.214	0.099
682.200	90.791	0.099
682.300	108.317	0.099
682.400	95.818	0.099
682.500	86.096	0.099
682.600	114.813	0.100
682.700	117.785	0.100
682.800	101.293	0.100
682.900	106.693	0.099
683.000	114.648	0.099
683.100	92.729	0.099
683.200	109.983	0.100
683.300	135.034	0.100
683.400	77.207	0.099
683.500	107.666	0.099
683.600	89.015	0.099
683.700	113.555	0.100
683.800	78.663	0.099
683.900	96.207	0.099
684.000	100.215	0.100
684.100	121.609	0.100
684.200	102.770	0.099
684.300	112.926	0.099
684.400	100.260	0.100
684.500	89.614	0.099
684.600	91.611	0.099
684.700	105.745	0.099
684.800	96.320	0.099
684.900	121.682	0.099
685.000	89.015	0.100
685.100	104.811	0.099
685.200	88.714	0.099
685.300	114.558	0.099
685.400	133.811	0.099
685.500	111.632	0.099
685.600	94.368	0.099
685.700	102.682	0.099
685.800	106.594	0.099
685.900	112.067	0.100
686.000	86.902	0.099
686.100	85.799	0.099
686.200	99.014	0.099
686.300	127.992	0.099
686.400	95.251	0.099
686.500	102.000	0.099
686.600	99.588	0.099
686.700	92.780	0.099
686.800	88.816	0.099
686.900	93.529	0.099
687.000	96.153	0.099
687.100	99.701	0.099
687.200	102.947	0.099
687.300	109.863	0.099
687.400	122.098	0.099
687.500	96.420	0.099
687.600	96.506	0.099
687.700	110.265	0.099
687.800	95.364	0.099
687.900	94.358	0.099
688.000	87.742	0.099
688.100	105.950	0.099
688.200	101.137	0.099
688.300	105.953	0.099
688.400	79.534	0.099
688.500	101.725	0.099
688.600	81.777	0.099
688.700	99.973	0.099
688.800	103.973	0.099
688.900	115.926	0.099
689.000	95.628	0.099
689.100	100.991	0.099
689.200	118.191	0.099
689.300	69.116	0.099
689.400	112.889	0.099
689.500	108.209	0.099
689.600	109.991	0.099
689.700	105.346	0.099
689.800	118.287	0.099
689.900	101.117	0.099
690.000	87.615	0.099
690.100	103.874	0.099
690.200	109.059	0.099
690.300	103.516	0.099
690.400	96.513	0.099
690.500	77.461	0.099
690.600	66.839	0.099
690.700	61.775	0.099
690.800	78.772	0.099
690.900	46.268	0.099
691.000	29.453	0.099
691.100	55.724	0.099
691.200	17.988	0.099
691.300	18.487	0.099
691.400	22.976	0.099
691.500	3.715	0.099
691.600	2.312	0.099
691.700	19.632	0.099
691.800	17.777	0.099
691.900	16.377	0.099
692.000	-28.941	0.099
692.100	-11.506	0.099
692.200	10.775	0.099
692.300	42.507	0.099
692.400	-2.577	0.099
692.500	-16.253	0.099
692.600	-6.184	0.099
692.700	-24.074	0.099
692.800	-19.826	0.099
692.900	-15.885	0.099
693.000	-21.263	0.099
693.100	-24.849	0.099
693.200	-11.459	0.099
693.300	-21.061	0.099
693.400	-32.308	0.099
693.500	-23.323	0.099
693.600	-41.180	0.099
693.700	-14.463	0.099
693.800	-3.440	0.099
693.900	-51.925	0.099
694.000	-38.126	0.099
694.100	-22.627	0.099
694.200	-36.087	0.099
694.300	-32.333	0.099
694.400	-44.433	0.099
694.500	-25.057	0.099
694.600	-28.427	0.099
694.700	-16.766	0.099
694.800	-50.399	0.099
694.900	-30.914	0.099
695.000	-38.411	0.099
695.100	-35.454	0.099
695.200	-50.528	0.099
695.300	-16.885	0.099
695.400	-33.302	0.099
695.500	-21.091	0.099
695.600	-37.269	0.099
695.700	-26.040	0.099
695.800	-52.313	0.099
695.900	-25.918	0.099
696.000	-53.172	0.099
696.100	-42.107	0.099
696.200	-59.154	0.099
696.300	-58.732	0.099
696.400	-23.824	0.099
696.500	-38.305	0.099
696.600	-26.631	0.099
696.700	-32.055	0.099
696.800	-19.782	0.099
696.900	-29.673	0.099
697.000	-25.002	0.099
697.100	-29.828	0.099
697.200	-42.793	0.099
697.300	-29.604	0.099
697.400	-39.778	0.099
697.500	-34.949	0.099
697.600	-58.084	0.099
697.700	-25.882	0.099
697.800	-53.303	0.099
697.900	-35.833	0.099
698.000	-51.793	0.099
698.100	-55.994	0.099
698.200	-35.283	0.099
698.300	2.991	0.099
698.400	-15.652	0.099
698.500	-29.900	0.099
698.600	-54.818	0.099
698.700	-30.684	0.099
698.800	-26.236	0.099
698.900	-33.050	0.099
699.000	-51.938	0.099
699.100	-39.864	0.099
699.200	-40.005	0.099
699.300	-34.565	0.099
699.400	-48.301	0.099
699.500	-38.450	0.099
699.600	-42.923	0.099
699.700	-55.542	0.099
699.800	-49.748	0.099
699.900	-27.413	0.099
700.000	-20.227	0.099
700.100	-53.059	0.099
700.200	-46.409	0.099
700.300	-39.402	0.099
700.400	-30.356	0.099
700.500	-42.681	0.099
700.600	-51.446	0.099
700.700	-42.508	0.099
700.800	-34.914	0.099
700.900	-31.045	0.099
701.000	-72.693	0.099
701.100	-45.169	0.099
701.200	-25.161	0.099
701.300	-68.623	0.099
701.400	-56.607	0.099
701.500	-48.404	0.099
701.600	-38.833	0.099
701.700	-52.141	0.099
701.800	-57.073	0.099
701.900	-40.650	0.099
702.000	-61.933	0.099
702.100	-60.638	0.099
702.200	-64.431	0.099
702.300	-24.202	0.099
702.400	-25.320	0.099
702.500	-50.034	0.099
702.600	-40.630	0.099
702.700	-33.127	0.099
702.800	-60.674	0.099
702.900	-43.116	0.099
703.000	-46.496	0.099
703.100	-78.328	0.099
703.200	-60.223	0.099
703.300	-56.965	0.099
703.400	-50.800	0.099
703.500	-37.778	0.099
703.600	-43.649	0.099
703.700	-38.002	0.099
703.800	-56.903	0.099
703.900	-51.023	0.099
704.000	-50.411	0.099
704.100	-54.170	0.099
704.200	-41.108	0.099
704.300	-50.489	0.099
704.400	-74.241	0.099
704.500	-42.815	0.099
704.600	-53.102	0.099
704.700	-68.681	0.099
704.800	-36.894	0.099
704.900	-49.010	0.099
705.000	-56.633	0.099
705.100	-54.649	0.099
705.200	-74.836	0.099
705.300	-32.248	0.099
705.400	-58.862	0.099
705.500	-38.218	0.099
705.600	-43.142	0.099
705.700	-58.012	0.099
705.800	-41.901	0.099
705.900	-65.359	0.099
706.000	-62.599	0.099
706.100	-44.236	0.099
706.200	-32.804	0.099
706.300	-42.665	0.099
706.400	-65.822	0.099
706.500	-46.442	0.099
706.600	-55.596	0.099
706.700	-68.335	0.099
706.800	-47.897	0.099
706.900	-40.835	0.099
707.000	-39.856	0.099
707.100	-62.540	0.099
707.200	-52.139	0.099
707.300	-77.499	0.099
707.400	-66.875	0.099
707.500	-40.267	0.099
707.600	-59.712	0.099
707.700	-55.792	0.099
707.800	-45.359	0.099
707.900	-56.766	0.099
708.000	-61.099	0.099
708.100	-55.238	0.099
708.200	-43.257	0.099
708.300	-60.868	0.099
708.400	-59.574	0.099
708.500	-57.933	0.099
708.600	-61.206	0.099
708.700	-60.818	0.099
708.800	-35.472	0.099
708.900	-55.015	0.099
709.000	-63.895	0.099
709.100	-73.111	0.099
709.200	-53.644	0.099
709.300	-66.976	0.099
709.400	-55.854	0.099
709.500	-48.742	0.099
709.600	-67.019	0.099
709.700	-56.681	0.099
709.800	-81.265	0.099
709.900	-44.528	0.099
710.000	-63.369	0.099
710.100	-23.960	0.099
710.200	-53.435	0.099
710.300	-60.517	0.099
710.400	-51.076	0.099
710.500	-59.880	0.099
710.600	-62.300	0.099
710.700	-55.306	0.099
710.800	-65.550	0.099
710.900	-80.164	0.099
711.000	-47.771	0.099
711.100	-47.020	0.099
711.200	-67.671	0.099
711.300	-53.115	0.099
711.400	-72.624	0.099
711.500	-62.930	0.099
711.600	-49.822	0.099
711.700	-53.864	0.099
711.800	-60.786	0.099
711.900	-80.814	0.099
712.000	-73.320	0.099
712.100	-50.077	0.099
712.200	-59.718	0.099
712.300	-76.815	0.099
712.400	-67.261	0.099
712.500	-59.751	0.099
712.600	-55.564	0.099
712.700	-59.621	0.099
712.800	-70.016	0.099
712.900	-85.625	0.099
713.000	-77.176	0.099
713.100	-52.738	0.099
713.200	-55.902	0.099
713.300	-71.938	0.099
713.400	-63.368	0.099
713.500	-63.053	0.099
713.600	-80.588	0.099
713.700	-49.129	0.099
713.800	-62.005	0.099
713.900	-65.810	0.099
714.000	-70.708	0.099
714.100	-74.537	0.099
714.200	-67.454	0.099
714.300	-69.106	0.099
714.400	-62.036	0.099
714.500	-66.408	0.099
714.600	-55.770	0.099
714.700	-74.017	0.099
714.800	-53.080	0.099
714.900	-87.660	0.099
715.000	-77.603	0.099
715.100	-47.717	0.099
715.200	-56.689	0.099
715.300	-71.334	0.099
715.400	-77.129	0.099
715.500	-64.923	0.099
715.600	-45.088	0.099
715.700	-89.265	0.099
715.800	-50.937	0.099
715.900	-65.577	0.099
716.000	-67.316	0.099
716.100	-48.128	0.099
716.200	-71.841	0.099
716.300	-68.852	0.099
716.400	-76.768	0.099
716.500	-67.282	0.099
716.600	-63.141	0.099
716.700	-60.561	0.099
716.800	-49.679	0.099
716.900	-71.567	0.099
717.000	-66.962	0.099
717.100	-86.211	0.099
717.200	-79.093	0.099
717.300	-73.907	0.099
717.400	-40.224	0.099
717.500	-59.357	0.099
717.600	-55.724	0.099
717.700	-52.311	0.099
717.800	-72.950	0.099
717.900	-64.091	0.099
718.000	-61.029	0.099
718.100	-65.972	0.099
718.200	-78.525	0.099
718.300	-89.887	0.099
718.400	-68.033	0.099
718.500	-51.693	0.099
718.600	-77.863	0.099
718.700	-78.511	0.099
718.800	-62.866	0.099
718.900	-79.031	0.099
719.000	-74.193	0.099
719.100	-66.483	0.099
719.200	-71.059	0.099
719.300	-68.346	0.099
719.400	-81.404	0.099
719.500	-62.879	0.099
719.600	-56.466	0.099
719.700	-64.982	0.099
719.800	-57.886	0.099
719.900	-75.389	0.099
720.000	-71.966	0.099
720.100	-39.920	0.099
720.200	-55.706	0.099
720.300	-60.503	0.099
720.400	-84.763	0.099
720.500	-62.136	0.099
720.600	-69.477	0.099
720.700	-80.797	0.099
720.800	-62.607	0.099
720.900	-66.591	0.099
721.000	-88.521	0.099
721.100	-51.695	0.099
721.200	-77.342	0.099
721.300	-76.482	0.099
721.400	-72.010	0.099
721.500	-61.171	0.099
721.600	-66.479	0.099
721.700	-57.566	0.099
721.800	-73.573	0.099
721.900	-84.264	0.099
722.000	-69.209	0.099
722.100	-84.137	0.099
722.200	-61.366	0.099
722.300	-62.607	0.099
722.400	-61.652	0.099
722.500	-66.141	0.099
722.600	-76.677	0.099
722.700	-72.694	0.099
722.800	-65.161	0.099
722.900	-76.445	0.099
723.000	-80.837	0.099
723.100	-78.306	0.099
723.200	-60.484	0.099
723.300	-67.207	0.099
723.400	-80.597	0.099
723.500	-76.448	0.099
723.600	-58.219	0.099
723.700	-65.543	0.099
723.800	-84.382	0.099
723.900	-82.032	0.099
724.000	-63.298	0.099
724.100	-60.390	0.099
724.200	-99.142	0.099
724.300	-64.117	0.099
724.400	-66.877	0.099
724.500	-90.981	0.099
724.600	-53.797	0.099
724.700	-56.352	0.099
724.800	-73.659	0.099
724.900	-68.744	0.099
725.000	-70.377	0.099
725.100	-49.000	0.099
725.200	-50.700	0.099
725.300	-67.663	0.099
725.400	-40.537	0.099
725.500	-89.847	0.099
725.600	-62.787	0.099
725.700	-70.235	0.099
725.800	-74.408	0.099
725.900	-52.412	0.099
726.000	-75.092	0.099
726.100	-70.820	0.099
726.200	-74.940	0.099
726.300	-59.113	0.099
726.400	-68.564	0.099
726.500	-49.992	0.099
726.600	-66.412	0.099
726.700	-69.418	0.099
726.800	-70.227	0.099
726.900	-43.886	0.099
727.000	-47.921	0.099
727.100	-58.508	0.099
727.200	-66.682	0.099
727.300	-59.032	0.099
727.400	-93.691	0.099
727.500	-57.692	0.099
727.600	-66.768	0.099
727.700	-86.343	0.099
727.800	-64.919	0.099
727.900	-68.080	0.099
728.000	-51.463	0.099
728.100	-63.323	0.099
728.200	-59.133	0.099
728.300	-71.624	0.099
728.400	-81.929	0.099
728.500	-62.533	0.099
728.600	-86.366	0.099
728.700	-69.814	0.099
728.800	-64.151	0.099
728.900	-64.941	0.099
729.000	-61.907	0.099
729.100	-47.603	0.099
729.200	-72.959	0.099
729.300	-53.749	0.099
729.400	-89.474	0.099
729.500	-73.997	0.099
729.600	-58.809	0.099
729.700	-49.175	0.099
729.800	-58.370	0.099
729.900	-67.684	0.099
730.000	-75.206	0.099
730.100	-66.585	0.099
730.200	-47.098	0.099
730.300	-40.187	0.099
730.400	-58.173	0.099
730.500	-57.679	0.099
730.600	-69.325	0.099
730.700	-65.332	0.099
730.800	-58.220	0.099
730.900	-43.799	0.099
731.000	-60.436	0.099
731.100	-69.319	0.099
731.200	-51.933	0.099
731.300	-61.873	0.099
731.400	-47.768	0.099
731.500	-61.177	0.099
731.600	-65.565	0.099
731.700	-49.786	0.099
731.800	-86.784	0.099
731.900	-47.556	0.099
732.000	-67.344	0.099
732.100	-71.534	0.099
732.200	-77.594	0.099
732.300	-61.995	0.099
732.400	-59.039	0.099
732.500	-62.752	0.099
732.600	-56.992	0.099
732.700	-53.584	0.099
732.800	-78.353	0.099
732.900	-55.217	0.099
733.000	-41.158	0.099
733.100	-70.157	0.099
733.200	-54.589	0.099
733.300	-57.264	0.099
733.400	-54.205	0.099
733.500	-54.265	0.099
733.600	-63.598	0.099
733.700	-83.138	0.099
733.800	-49.733	0.099
733.900	-40.803	0.099
734.000	-76.674	0.099
734.100	-45.511	0.099
734.200	-58.926	0.099
734.300	-54.123	0.099
734.400	-60.008	0.099
734.500	-54.550	0.099
734.600	-67.972	0.099
734.700	-79.077	0.099
734.800	-52.642	0.099
734.900	-60.456	0.099
735.000	-77.041	0.099
735.100	-49.947	0.099
735.200	-57.152	0.099
735.300	-66.935	0.099
735.400	-59.864	0.099
735.500	-68.909	0.099
735.600	-61.242	0.099
735.700	-51.559	0.099
735.800	-60.440	0.099
735.900	-58.087	0.099
736.000	-65.257	0.099
736.100	-67.071	0.099
736.200	-54.107	0.099
736.300	-54.519	0.099
736.400	-52.879	0.099
736.500	-49.949	0.099
736.600	-46.718	0.099
736.700	-58.688	0.099
736.800	-51.824	0.099
736.900	-46.246	0.099
737.000	-86.101	0.099
737.100	-50.662	0.099
737.200	-71.004	0.099
737.300	-43.097	0.099
737.400	-52.981	0.099
737.500	-46.509	0.099
737.600	-43.146	0.099
737.700	-87.941	0.099
737.800	-54.349	0.099
737.900	-66.336	0.099
738.000	-22.471	0.099
738.100	-54.501	0.099
738.200	-59.994	0.099
738.300	-53.920	0.099
738.400	-54.479	0.099
738.500	-62.866	0.099
738.600	-72.136	0.099
738.700	-57.810	0.099
738.800	-54.274	0.099
738.900	-47.196	0.099
739.000	-62.348	0.099
739.100	-52.209	0.099
739.200	-55.892	0.099
739.300	-60.516	0.099
739.400	-54.074	0.099
739.500	-64.242	0.099
739.600	-53.596	0.099
739.700	-56.074	0.099
739.800	-52.583	0.099
739.900	-76.400	0.099
740.000	-51.699	0.099
740.100	-70.227	0.099
740.200	-54.463	0.099
740.300	-55.204	0.099
740.400	-54.329	0.099
740.500	-59.378	0.099
740.600	-53.533	0.099
740.700	-58.734	0.099
740.800	-75.729	0.099
740.900	-70.183	0.099
741.000	-69.158	0.099
741.100	-38.921	0.099
741.200	-51.740	0.099
741.300	-55.265	0.099
741.400	-32.639	0.099
741.500	-59.341	0.099
741.600	-61.365	0.099
741.700	-78.748	0.099
741.800	-52.960	0.099
741.900	-48.429	0.099
742.000	-45.925	0.099
742.100	-46.577	0.099
742.200	-51.371	0.099
742.300	-59.776	0.099
742.400	-68.975	0.099
742.500	-44.373	0.099
742.600	-78.930	0.099
742.700	-37.370	0.099
742.800	-43.811	0.099
742.900	-70.776	0.099
743.000	-55.782	0.099
743.100	-18.793	0.099
743.200	-60.676	0.099
743.300	-63.182	0.099
743.400	-70.648	0.099
743.500	-73.000	0.099
743.600	-48.731	0.099
743.700	-58.594	0.099
743.800	-54.920	0.099
743.900	-40.507	0.099
744.000	-54.326	0.099
744.100	-60.112	0.099
744.200	-58.681	0.099
744.300	-58.340	0.099
744.400	-64.405	0.099
744.500	-24.428	0.099
744.600	-53.446	0.099
744.700	-41.990	0.099
744.800	-45.719	0.099
744.900	-57.335	0.099
745.000	-64.985	0.099
745.100	-47.881	0.099
745.200	-50.238	0.099
745.300	-52.275	0.099
745.400	-57.422	0.099
745.500	-57.717	0.099
745.600	-43.742	0.099
745.700	-54.053	0.099
745.800	-82.576	0.099
745.900	-53.630	0.099
746.000	-61.831	0.099
746.100	-68.876	0.099
746.200	-58.281	0.099
746.300	-51.516	0.099
746.400	-46.424	0.099
746.500	-74.730	0.099
746.600	-45.059	0.099
746.700	-36.309	0.099
746.800	-42.382	0.099
746.900	-55.652	0.099
747.000	-78.733	0.099
747.100	-72.621	0.099
747.200	-47.714	0.099
747.300	-52.648	0.099
747.400	-45.113	0.099
747.500	-45.549	0.099
747.600	-49.831	0.099
747.700	-56.882	0.099
747.800	-50.470	0.099
747.900	-64.192	0.099
748.000	-51.414	0.099
748.100	-47.681	0.099
748.200	-48.818	0.099
748.300	-39.509	0.099
748.400	-54.481	0.099
748.500	-37.970	0.099
748.600	-46.385	0.099
748.700	-53.240	0.099
748.800	-62.281	0.099
748.900	-63.831	0.099
749.000	-38.737	0.099
749.100	-53.145	0.099
749.200	-43.431	0.099
749.300	-45.654	0.099
749.400	-58.898	0.099
749.500	-53.666	0.099
749.600	-34.863	0.099
749.700	-52.934	0.099
749.800	-59.816	0.099
749.900	-55.077	0.099
750.000	-48.578	0.099
750.100	-40.702	0.099
750.200	-61.008	0.099
750.300	-43.827	0.099
750.400	-44.985	0.099
750.500	-44.816	0.099
750.600	-48.780	0.099
750.700	-59.068	0.099
750.800	-41.939	0.099
750.900	-69.958	0.099
751.000	-49.948	0.099
751.100	-50.654	0.099
751.200	-48.105	0.099
751.300	-50.190	0.099
751.400	-32.487	0.099
751.500	-58.758	0.099
751.600	-15.230	0.099
751.700	-75.946	0.099
751.800	-48.479	0.099
751.900	-66.738	0.099
752.000	-44.836	0.099
752.100	-58.788	0.099
752.200	-35.578	0.099
752.300	-68.596	0.099
752.400	-73.761	0.099
752.500	-49.785	0.099
752.600	-40.826	0.099
752.700	-44.687	0.099
752.800	-62.000	0.099
752.900	-43.063	0.099
753.000	-32.416	0.099
753.100	-43.535	0.099
753.200	-44.275	0.099
753.300	-37.547	0.099
753.400	-20.003	0.099
753.500	-52.883	0.099
753.600	-64.949	0.099
753.700	-26.059	0.099
753.800	-57.039	0.099
753.900	-58.759	0.099
754.000	-65.201	0.099
754.100	-51.878	0.099
754.200	-29.929	0.099
754.300	-40.448	0.099
754.400	-40.817	0.099
754.500	-60.744	0.099
754.600	-58.575	0.099
754.700	-59.746	0.099
754.800	-39.931	0.099
754.900	-45.946	0.099
755.000	-30.605	0.099
755.100	-52.532	0.099
755.200	-40.105	0.099
755.300	-40.595	0.099
755.400	-48.082	0.099
755.500	-39.829	0.099
755.600	-36.307	0.099
755.700	-45.117	0.099
755.800	-61.737	0.099
755.900	-52.915	0.099
756.000	-61.371	0.099
756.100	-47.399	0.099
756.200	-59.104	0.099
756.300	-55.827	0.099
756.400	-47.143	0.099
756.500	-28.299	0.099
756.600	-49.289	0.099
756.700	-58.533	0.099
756.800	0.906	0.099
756.900	-45.200	0.099
757.000	-63.904	0.099
757.100	-59.951	0.099
757.200	-62.627	0.099
757.300	-45.434	0.099
757.400	-41.770	0.099
757.500	-44.121	0.099
757.600	-46.438	0.099
757.700	-52.376	0.099
757.800	-51.102	0.099
757.900	-36.610	0.099
758.000	-27.300	0.099
758.100	-35.321	0.099
758.200	-52.641	0.099
758.300	-51.245	0.099
758.400	-45.980	0.099
758.500	-52.410	0.099
758.600	-51.919	0.099
758.700	-68.413	0.099
758.800	-38.541	0.099
758.900	-39.602	0.099
759.000	-46.001	0.099
759.100	-43.009	0.099
759.200	-54.002	0.099
759.300	-45.181	0.099
759.400	-37.572	0.099
759.500	-53.718	0.099
759.600	-53.191	0.099
759.700	-50.535	0.099
759.800	-29.889	0.099
759.900	-34.202	0.099
760.000	-68.258	0.099
760.100	-59.233	0.099
760.200	-44.514	0.099
760.300	-51.375	0.099
760.400	-47.294	0.099
760.500	-56.997	0.099
760.600	-36.359	0.099
760.700	-34.002	0.099
760.800	-39.768	0.099
760.900	-44.900	0.099
761.000	-37.193	0.099
761.100	-32.402	0.099
761.200	-66.369	0.099
761.300	-38.925	0.099
761.400	-42.185	0.099
761.500	-28.262	0.099
761.600	-39.173	0.099
761.700	-31.515	0.099
761.800	-39.865	0.099
761.900	-53.340	0.099
762.000	-39.724	0.099
762.100	-46.322	0.099
762.200	-49.133	0.099
762.300	-53.599	0.099
762.400	-47.873	0.099
762.500	-20.837	0.099
762.600	-62.514	0.099
762.700	-74.807	0.099
762.800	-54.102	0.099
762.900	-46.951	0.099
763.000	-51.702	0.099
763.100	-36.853	0.099
763.200	-33.894	0.099
763.300	-56.651	0.099
763.400	-52.904	0.099
763.500	-49.846	0.099
763.600	-41.822	0.099
763.700	-18.445	0.099
763.800	-47.598	0.099
763.900	-50.578	0.099
764.000	-60.573	0.099
764.100	-50.593	0.099
764.200	-64.712	0.099
764.300	-26.114	0.099
764.400	-27.943	0.099
764.500	-48.448	0.099
764.600	-51.074	0.099
764.700	-58.573	0.099
764.800	-29.583	0.099
764.900	-33.778	0.099
765.000	-30.698	0.099
765.100	-43.667	0.099
765.200	-33.663	0.099
765.300	-38.775	0.099
765.400	-60.305	0.099
765.500	-26.209	0.099
765.600	-54.165	0.099
765.700	-41.747	0.099
765.800	-47.416	0.099
765.900	-29.944	0.099
766.000	-40.527	0.099
766.100	-38.025	0.099
766.200	-43.261	0.099
766.300	-29.280	0.099
766.400	-45.523	0.099
766.500	-39.182	0.099
766.600	-46.188	0.099
766.700	-39.924	0.099
766.800	-54.074	0.099
766.900	-43.708	0.099
767.000	-43.298	0.099
767.100	-54.413	0.099
767.200	-50.012	0.099
767.300	-50.677	0.099
767.400	-67.162	0.099
767.500	-43.518	0.099
767.600	-55.753	0.099
767.700	-26.967	0.099
767.800	-51.431	0.099
767.900	-41.403	0.099
768.000	-23.865	0.099
768.100	-43.716	0.099
768.200	-47.889	0.099
768.300	-42.061	0.099
768.400	-40.409	0.099
768.500	-54.827	0.099
768.600	-72.445	0.099
768.700	-40.554	0.099
768.800	-43.971	0.099
768.900	-38.982	0.099
769.000	-32.480	0.099
769.100	-32.216	0.099
769.200	-50.077	0.099
769.300	-40.895	0.099
769.400	-38.396	0.099
769.500	-43.597	0.099
769.600	-58.446	0.099
769.700	-31.086	0.099
769.800	-39.460	0.099
769.900	-25.550	0.099
770.000	-61.154	0.099
770.100	-26.820	0.099
770.200	-55.122	0.099
770.300	-27.362	0.099
770.400	-61.837	0.099
770.500	-46.696	0.099
770.600	-13.546	0.099
770.700	-54.047	0.099
770.800	-43.446	0.099
770.900	-45.157	0.099
771.000	-15.831	0.099
771.100	-48.782	0.099
771.200	-38.047	0.099
771.300	-20.998	0.099
771.400	-63.099	0.099
771.500	-52.156	0.099
771.600	-25.217	0.099
771.700	-14.750	0.099
771.800	-33.135	0.099
771.900	-53.093	0.099
772.000	-39.289	0.099
772.100	-49.461	0.099
772.200	-51.956	0.099
772.300	-36.330	0.099
772.400	-31.239	0.099
772.500	-57.554	0.099
772.600	-51.409	0.099
772.700	-40.129	0.099
772.800	-47.691	0.099
772.900	-37.781	0.099
773.000	-73.249	0.099
773.100	-39.958	0.099
773.200	-68.570	0.099
773.300	-9.784	0.099
773.400	-39.656	0.099
773.500	-45.626	0.099
773.600	-42.783	0.099
773.700	-52.559	0.099
773.800	-19.894	0.099
773.900	-58.886	0.099
774.000	-50.519	0.099
774.100	-38.485	0.099
774.200	-26.304	0.099
774.300	-27.588	0.099
774.400	-34.977	0.099
774.500	-45.524	0.099
774.600	-17.677	0.099
774.700	-43.084	0.099
774.800	-35.903	0.099
774.900	-41.703	0.099
775.000	-36.262	0.099
775.100	-39.269	0.099
775.200	-40.661	0.099
775.300	-42.545	0.099
775.400	-47.698	0.099
775.500	-44.890	0.099
775.600	-40.281	0.099
775.700	-14.843	0.099
775.800	-42.925	0.099
775.900	-43.089	0.099
776.000	-51.907	0.099
776.100	-28.679	0.099
776.200	-22.788	0.099
776.300	-56.785	0.099
776.400	-42.970	0.099
776.500	-19.607	0.099
776.600	-30.160	0.099
776.700	-43.308	0.099
776.800	-52.800	0.099
776.900	-25.896	0.099
777.000	-53.899	0.099
777.100	-52.480	0.099
777.200	-29.939	0.099
777.300	-38.666	0.099
777.400	-45.016	0.099
777.500	-41.554	0.099
777.600	-26.980	0.099
777.700	-37.646	0.099
777.800	-40.511	0.099
777.900	-35.917	0.099
778.000	-47.667	0.099
778.100	-51.502	0.099
778.200	-48.024	0.099
778.300	-47.441	0.099
778.400	-37.988	0.099
778.500	-39.174	0.099
778.600	-44.651	0.099
778.700	-40.684	0.099
778.800	-70.691	0.099
778.900	-30.442	0.099
779.000	-36.808	0.099
779.100	-36.676	0.099
779.200	-32.393	0.099
779.300	-42.171	0.099
779.400	-50.987	0.099
779.500	-25.747	0.099
779.600	-50.694	0.099
779.700	-36.037	0.099
779.800	-31.741	0.099
779.900	-44.834	0.099
780.000	-32.162	0.099
780.100	-53.180	0.099
780.200	-36.422	0.099
780.300	-49.439	0.099
780.400	-43.667	0.099
780.500	-23.366	0.099
780.600	-11.965	0.099
780.700	-25.004	0.099
780.800	-17.140	0.099
780.900	-12.003	0.099
781.000	6.271	0.099
781.100	-5.982	0.099
781.200	15.262	0.099
781.300	-0.154	0.099
781.400	15.359	0.099
781.500	15.837	0.099
781.600	45.179	0.099
781.700	36.822	0.099
781.800	31.478	0.099
781.900	67.449	0.099
782.000	-4.186	0.099
782.100	4.469	0.099
782.200	20.986	0.099
782.300	48.717	0.099
782.400	39.927	0.099
782.500	45.544	0.099
782.600	45.349	0.099
782.700	44.674	0.099
782.800	48.502	0.099
782.900	36.266	0.099
783.000	39.545	0.099
783.100	38.339	0.099
783.200	57.193	0.099
783.300	30.552	0.099
783.400	22.029	0.099
783.500	42.914	0.099
783.600	40.743	0.099
783.700	18.391	0.099
783.800	45.065	0.099
783.900	31.378	0.099
784.000	32.594	0.099
784.100	52.214	0.099
784.200	53.748	0.099
784.300	33.922	0.099
784.400	36.302	0.099
784.500	12.129	0.099
784.600	28.006	0.099
784.700	30.109	0.099
784.800	17.847	0.099
784.900	30.341	0.099
785.000	41.297	0.099
785.100	23.111	0.099
785.200	21.698	0.099
785.300	36.084	0.099
785.400	24.886	0.099
785.500	35.948	0.099
785.600	19.967	0.099
785.700	42.812	0.099
785.800	28.273	0.099
785.900	14.403	0.099
786.000	44.902	0.099
786.100	55.719	0.099
786.200	47.145	0.099
786.300	31.424	0.099
786.400	41.008	0.099
786.500	31.367	0.099
786.600	43.850	0.099
786.700	64.580	0.099
786.800	31.021	0.099
786.900	34.569	0.099
787.000	50.448	0.099
787.100	36.197	0.099
787.200	27.735	0.099
787.300	24.152	0.099
787.400	58.813	0.099
787.500	38.185	0.099
787.600	34.002	0.099
787.700	37.278	0.099
787.800	58.076	0.099
787.900	45.694	0.099
788.000	45.071	0.099
788.100	59.182	0.099
788.200	53.397	0.099
788.300	58.400	0.099
788.400	62.169	0.099
788.500	39.671	0.099
788.600	60.867	0.099
788.700	52.822	0.099
788.800	52.076	0.099
788.900	75.824	0.099
789.000	69.583	0.099
789.100	53.015	0.099
789.200	68.716	0.099
789.300	77.345	0.099
789.400	77.212	0.099
789.500	69.833	0.099
789.600	80.295	0.099
789.700	68.017	0.099
789.800	58.630	0.099
789.900	81.276	0.099
790.000	91.452	0.099
790.100	68.650	0.099
790.200	83.135	0.099
790.300	78.532	0.099
790.400	93.830	0.099
790.500	93.657	0.099
790.600	91.418	0.099
790.700	82.992	0.099
790.800	95.760	0.099
790.900	102.036	0.099
791.000	104.098	0.099
791.100	102.528	0.099
791.200	78.729	0.099
791.300	83.037	0.099
791.400	89.967	0.099
791.500	106.236	0.099
791.600	104.231	0.099
791.700	106.703	0.099
791.800	96.024	0.099
791.900	101.279	0.099
792.000	124.097	0.099
792.100	107.495	0.099
792.200	102.109	0.099
792.300	125.068	0.099
792.400	80.173	0.099
792.500	107.807	0.099
792.600	103.356	0.099
792.700	124.339	0.099
792.800	108.773	0.099
792.900	114.459	0.099
793.000	101.578	0.099
793.100	106.923	0.099
793.200	119.072	0.099
793.300	124.241	0.099
793.400	105.115	0.099
793.500	125.952	0.099
793.600	111.367	0.099
793.700	122.043	0.099
793.800	118.773	0.099
793.900	126.310	0.099
794.000	147.058	0.099
794.100	121.384	0.099
794.200	94.611	0.099
794.300	127.093	0.099
794.400	119.358	0.099
794.500	121.982	0.099
794.600	134.515	0.099
794.700	122.419	0.099
794.800	111.719	0.099
794.900	116.415	0.099
795.000	134.470	0.099
795.100	140.535	0.099
795.200	121.891	0.099
795.300	123.212	0.099
795.400	133.460	0.099
795.500	133.224	0.099
795.600	120.908	0.099
795.700	127.151	0.099
795.800	94.689	0.099
795.900	130.564	0.099
796.000	138.570	0.100
796.100	116.507	0.099
796.200	129.129	0.100
796.300	114.855	0.099
796.400	137.240	0.099
796.500	142.141	0.099
796.600	125.809	0.099
796.700	136.294	0.099
796.800	99.749	0.099
796.900	115.212	0.099
797.000	124.294	0.099
797.100	124.896	0.099
797.200	140.901	0.099
797.300	121.083	0.100
797.400	132.500	0.099
797.500	123.238	0.099
797.600	152.521	0.099
797.700	128.156	0.099
797.800	136.712	0.099
797.900	114.069	0.099
798.000	119.128	0.099
798.100	135.949	0.099
798.200	135.800	0.100
798.300	132.813	0.099
798.400	117.208	0.099
798.500	112.712	0.099
798.600	122.692	0.099
798.700	127.152	0.099
798.800	119.456	0.099
798.900	108.396	0.099
799.000	137.359	0.099
799.100	132.979	0.099
799.200	121.452	0.099
799.300	113.416	0.099
799.400	134.699	0.099
799.500	125.542	0.100
799.600	100.889	0.100
799.700	139.221	0.099
799.800	117.704	0.100
799.900	128.498	0.099
800.000	97.681	0.099
