time /s	I /nA	E /V
0.100	-9.793	0.100
0.200	3.602	0.100
0.300	-14.340	0.100
0.400	-48.102	0.100
0.500	-25.062	0.100
0.600	-13.509	0.100
0.700	-12.894	0.100
0.800	-31.021	0.100
0.900	-5.907	0.100
1.000	-7.141	0.100
1.100	-14.813	0.100
1.200	-29.952	0.100
1.300	-23.174	0.100
1.400	-7.094	0.100
1.500	-6.032	0.100
1.600	-26.375	0.100
1.700	-6.102	0.100
1.800	-14.401	0.100
1.900	-23.568	0.100
2.000	-14.375	0.100
2.100	-11.960	0.100
2.200	-17.632	0.100
2.300	-6.519	0.100
2.400	-6.154	0.100
2.500	-31.458	0.100
2.600	-13.024	0.100
2.700	-26.474	0.100
2.800	-0.810	0.100
2.900	-5.855	0.100
3.000	-22.762	0.100
3.100	-3.460	0.100
3.200	-34.842	0.100
3.300	-29.661	0.100
3.400	-25.686	0.100
3.500	-20.943	0.100
3.600	-28.851	0.100
3.700	1.383	0.100
3.800	-1.359	0.100
3.900	-11.831	0.100
4.000	-20.221	0.100
4.100	-27.426	0.100
4.200	-28.781	0.100
4.300	-4.904	0.100
4.400	6.935	0.100
4.500	-20.097	0.100
4.600	-22.897	0.100
4.700	-18.515	0.100
4.800	-21.547	0.100
4.900	-25.043	0.100
5.000	-21.811	0.100
5.100	-14.679	0.100
5.200	-2.412	0.100
5.300	3.950	0.100
5.400	-35.120	0.100
5.500	-3.186	0.100
5.600	-24.871	0.100
5.700	6.194	0.100
5.800	-8.950	0.100
5.900	-27.629	0.100
6.000	-16.720	0.100
6.100	-17.582	0.100
6.200	-12.010	0.100
6.300	0.297	0.100
6.400	-10.574	0.100
6.500	-36.523	0.100
6.600	-1.522	0.100
6.700	-16.945	0.100
6.800	-34.683	0.100
6.900	-15.809	0.100
7.000	-16.436	0.100
7.100	-5.220	0.100
7.200	-1.061	0.100
7.300	-24.889	0.100
7.400	-43.332	0.100
7.500	-20.450	0.100
7.600	0.474	0.100
7.700	-19.654	0.100
7.800	-26.282	0.100
7.900	-0.917	0.100
8.000	-24.771	0.100
8.100	-24.424	0.100
8.200	-23.339	0.100
8.300	-30.664	0.100
8.400	-3.404	0.100
8.500	-20.660	0.100
8.600	-17.198	0.100
8.700	-17.642	0.100
8.800	-18.624	0.100
8.900	-24.248	0.100
9.000	10.538	0.100
9.100	-10.699	0.100
9.200	-14.743	0.100
9.300	-11.128	0.100
9.400	-24.221	0.100
9.500	-14.639	0.100
9.600	-11.555	0.100
9.700	-23.551	0.100
9.800	-17.864	0.100
9.900	-1.537	0.100
10.000	-13.209	0.100
10.100	-13.236	0.100
10.200	-7.944	0.100
10.300	-38.247	0.100
10.400	-22.595	0.100
10.500	-10.255	0.100
10.600	-1.944	0.100
10.700	-2.030	0.100
10.800	-0.929	0.100
10.900	-30.374	0.100
11.000	-14.188	0.100
11.100	-29.234	0.100
11.200	-13.151	0.100
11.300	-7.599	0.100
11.400	-13.100	0.100
11.500	-41.524	0.100
11.600	-14.138	0.100
11.700	-16.142	0.100
11.800	-45.094	0.100
11.900	-34.132	0.100
12.000	1.322	0.100
12.100	-5.832	0.100
12.200	-11.381	0.100
12.300	-13.835	0.100
12.400	-18.273	0.100
12.500	-3.334	0.100
12.600	-37.011	0.100
12.700	-28.898	0.100
12.800	2.353	0.100
12.900	-16.093	0.100
13.000	-15.109	0.100
13.100	-11.198	0.100
13.200	-13.785	0.100
13.300	-17.950	0.100
13.400	-31.836	0.100
13.500	6.202	0.100
13.600	-27.714	0.100
13.700	-0.213	0.100
13.800	-30.095	0.100
13.900	-38.738	0.100
14.000	-5.960	0.100
14.100	-2.036	0.100
14.200	-8.347	0.100
14.300	-6.649	0.100
14.400	-19.020	0.100
14.500	-27.530	0.100
14.600	-19.341	0.100
14.700	-14.195	0.100
14.800	-8.915	0.100
14.900	-9.687	0.100
15.000	-31.248	0.100
15.100	-10.008	0.100
15.200	-18.744	0.100
15.300	-17.613	0.100
15.400	-19.271	0.100
15.500	-18.763	0.100
15.600	-0.071	0.100
15.700	-19.875	0.100
15.800	-17.990	0.100
15.900	-12.189	0.100
16.000	-18.074	0.100
16.100	-4.071	0.100
16.200	-30.473	0.100
16.300	-25.312	0.100
16.400	-17.596	0.100
16.500	-19.183	0.100
16.600	-14.250	0.100
16.700	-1.181	0.100
16.800	-16.943	0.100
16.900	5.233	0.100
17.000	-32.988	0.100
17.100	-20.880	0.100
17.200	-17.926	0.100
17.300	-25.594	0.100
17.400	-13.041	0.100
17.500	-6.229	0.100
17.600	-29.186	0.100
17.700	-16.659	0.100
17.800	-17.647	0.100
17.900	-31.095	0.100
18.000	11.275	0.100
18.100	-23.652	0.100
18.200	-32.046	0.100
18.300	5.409	0.100
18.400	-10.713	0.100
18.500	-28.545	0.100
18.600	-9.330	0.100
18.700	4.455	0.100
18.800	-15.681	0.100
18.900	-6.091	0.100
19.000	-22.446	0.100
19.100	-20.319	0.100
19.200	-5.093	0.100
19.300	-42.426	0.100
19.400	-15.510	0.100
19.500	-18.735	0.100
19.600	-16.115	0.100
19.700	-29.698	0.100
19.800	-0.619	0.100
19.900	-11.668	0.100
20.000	0.270	0.100
20.100	-14.963	0.100
20.200	-6.515	0.100
20.300	-20.950	0.100
20.400	-14.375	0.100
20.500	-15.660	0.100
20.600	-18.256	0.100
20.700	-9.675	0.100
20.800	-24.149	0.100
20.900	-28.929	0.100
21.000	-21.047	0.100
21.100	-5.611	0.100
21.200	-6.511	0.100
21.300	-17.311	0.100
21.400	-3.195	0.100
21.500	-9.657	0.100
21.600	-4.909	0.100
21.700	-16.747	0.100
21.800	-25.617	0.100
21.900	-15.545	0.100
22.000	-5.267	0.100
22.100	-34.261	0.100
22.200	13.546	0.100
22.300	-10.352	0.100
22.400	-26.574	0.100
22.500	1.145	0.100
22.600	-17.777	0.100
22.700	-26.532	0.100
22.800	-45.187	0.100
22.900	-22.541	0.100
23.000	-11.061	0.100
23.100	-15.230	0.100
23.200	-3.068	0.100
23.300	-20.892	0.100
23.400	12.515	0.100
23.500	-32.452	0.100
23.600	-8.021	0.100
23.700	-17.723	0.100
23.800	-11.617	0.100
23.900	-3.151	0.100
24.000	-17.959	0.100
24.100	-10.596	0.100
24.200	-29.452	0.100
24.300	-24.450	0.100
24.400	-15.070	0.100
24.500	-17.955	0.100
24.600	-3.603	0.100
24.700	-19.144	0.100
24.800	-16.227	0.100
24.900	-18.981	0.100
25.000	-33.257	0.100
25.100	-14.080	0.100
25.200	-23.264	0.100
25.300	-7.285	0.100
25.400	-1.991	0.100
25.500	-4.473	0.100
25.600	-10.587	0.100
25.700	-19.274	0.100
25.800	-30.072	0.100
25.900	-31.444	0.100
26.000	-12.185	0.100
26.100	-14.077	0.100
26.200	-13.308	0.100
26.300	-11.781	0.100
26.400	-28.969	0.100
26.500	-14.045	0.100
26.600	-2.588	0.100
26.700	-10.315	0.100
26.800	-33.316	0.100
26.900	-15.231	0.100
27.000	-16.526	0.100
27.100	-24.547	0.100
27.200	-1.780	0.100
27.300	-38.821	0.100
27.400	-16.814	0.100
27.500	-24.968	0.100
27.600	-26.719	0.100
27.700	-1.811	0.100
27.800	-12.399	0.100
27.900	5.063	0.100
28.000	-16.649	0.100
28.100	-4.416	0.100
28.200	-28.193	0.100
28.300	-9.654	0.100
28.400	-11.527	0.100
28.500	-33.624	0.100
28.600	-7.710	0.100
28.700	-23.954	0.100
28.800	5.128	0.100
28.900	-6.117	0.100
29.000	-9.211	0.100
29.100	-19.269	0.100
29.200	7.840	0.100
29.300	-5.149	0.100
29.400	-11.101	0.100
29.500	-14.964	0.100
29.600	-11.963	0.100
29.700	-18.686	0.100
29.800	-5.991	0.100
29.900	-17.551	0.100
30.000	-17.836	0.100
30.100	-17.490	0.100
30.200	-15.247	0.100
30.300	-41.740	0.100
30.400	-0.338	0.100
30.500	-18.283	0.100
30.600	-1.990	0.100
30.700	-3.343	0.100
30.800	-20.987	0.100
30.900	-21.450	0.100
31.000	1.801	0.100
31.100	-7.860	0.100
31.200	7.344	0.100
31.300	0.770	0.100
31.400	-10.360	0.100
31.500	-16.120	0.100
31.600	2.830	0.100
31.700	11.163	0.100
31.800	3.889	0.100
31.900	1.941	0.100
32.000	-27.715	0.100
32.100	11.377	0.100
32.200	12.580	0.100
32.300	-21.844	0.100
32.400	4.673	0.100
32.500	13.957	0.100
32.600	11.612	0.100
32.700	6.663	0.100
32.800	15.449	0.100
32.900	-8.446	0.100
33.000	11.322	0.100
33.100	19.538	0.100
33.200	0.796	0.100
33.300	8.213	0.100
33.400	5.562	0.100
33.500	37.757	0.100
33.600	8.691	0.100
33.700	22.555	0.100
33.800	-6.092	0.100
33.900	16.345	0.100
34.000	-2.024	0.100
34.100	9.985	0.100
34.200	22.970	0.100
34.300	23.094	0.100
34.400	-0.913	0.100
34.500	29.600	0.100
34.600	2.621	0.100
34.700	9.222	0.100
34.800	31.207	0.100
34.900	25.329	0.100
35.000	31.802	0.100
35.100	33.968	0.100
35.200	19.011	0.100
35.300	32.057	0.100
35.400	24.634	0.100
35.500	28.826	0.100
35.600	30.130	0.100
35.700	18.882	0.100
35.800	14.427	0.100
35.900	19.991	0.100
36.000	41.508	0.100
36.100	28.292	0.100
36.200	36.427	0.100
36.300	29.611	0.100
36.400	34.793	0.100
36.500	25.389	0.100
36.600	37.403	0.100
36.700	37.781	0.100
36.800	26.906	0.100
36.900	53.639	0.100
37.000	38.375	0.100
37.100	35.565	0.100
37.200	53.402	0.100
37.300	29.095	0.100
37.400	36.426	0.100
37.500	43.061	0.100
37.600	18.539	0.100
37.700	45.850	0.100
37.800	27.750	0.100
37.900	40.508	0.100
38.000	58.440	0.100
38.100	55.041	0.100
38.200	37.694	0.100
38.300	33.071	0.100
38.400	33.001	0.100
38.500	66.043	0.100
38.600	62.788	0.100
38.700	50.984	0.100
38.800	42.142	0.100
38.900	57.409	0.100
39.000	26.052	0.100
39.100	55.724	0.100
39.200	67.232	0.100
39.300	47.346	0.100
39.400	53.812	0.100
39.500	43.218	0.100
39.600	74.333	0.100
39.700	40.825	0.100
39.800	39.406	0.100
39.900	31.112	0.100
40.000	52.530	0.100
40.100	57.163	0.100
40.200	48.870	0.100
40.300	60.434	0.100
40.400	54.102	0.100
40.500	37.801	0.100
40.600	52.360	0.100
40.700	70.865	0.100
40.800	51.102	0.100
40.900	30.818	0.100
41.000	46.825	0.100
41.100	47.939	0.100
41.200	70.155	0.100
41.300	44.635	0.100
41.400	35.639	0.100
41.500	45.933	0.100
41.600	53.495	0.100
41.700	40.140	0.100
41.800	44.413	0.100
41.900	42.540	0.100
42.000	48.519	0.100
42.100	50.425	0.100
42.200	64.843	0.100
42.300	40.315	0.100
42.400	69.717	0.100
42.500	65.125	0.100
42.600	61.965	0.100
42.700	55.231	0.100
42.800	66.211	0.100
42.900	41.015	0.100
43.000	41.980	0.100
43.100	35.084	0.100
43.200	50.888	0.100
43.300	57.088	0.100
43.400	48.308	0.100
43.500	50.417	0.100
43.600	71.639	0.100
43.700	29.937	0.100
43.800	63.208	0.100
43.900	65.182	0.100
44.000	37.704	0.100
44.100	41.796	0.100
44.200	65.278	0.100
44.300	35.832	0.100
44.400	46.956	0.100
44.500	56.714	0.100
44.600	54.068	0.100
44.700	45.363	0.100
44.800	53.398	0.100
44.900	44.464	0.100
45.000	49.616	0.100
45.100	49.649	0.100
45.200	44.956	0.100
45.300	46.589	0.100
45.400	51.546	0.100
45.500	39.999	0.100
45.600	54.423	0.100
45.700	45.907	0.100
45.800	45.024	0.100
45.900	39.828	0.100
46.000	47.214	0.100
46.100	32.191	0.100
46.200	48.475	0.100
46.300	57.607	0.100
46.400	53.713	0.100
46.500	55.389	0.100
46.600	48.549	0.100
46.700	41.544	0.100
46.800	39.229	0.100
46.900	31.494	0.100
47.000	41.200	0.100
47.100	52.706	0.100
47.200	29.678	0.100
47.300	33.999	0.100
47.400	49.043	0.100
47.500	24.162	0.100
47.600	50.483	0.100
47.700	48.796	0.100
47.800	46.080	0.100
47.900	33.948	0.100
48.000	44.270	0.100
48.100	31.115	0.100
48.200	56.840	0.100
48.300	60.060	0.100
48.400	47.724	0.100
48.500	50.706	0.100
48.600	39.552	0.100
48.700	53.509	0.100
48.800	58.412	0.100
48.900	45.158	0.100
49.000	29.955	0.100
49.100	42.301	0.100
49.200	44.050	0.100
49.300	38.585	0.100
49.400	35.391	0.100
49.500	53.191	0.100
49.600	21.392	0.100
49.700	46.946	0.100
49.800	27.899	0.100
49.900	35.816	0.100
50.000	32.935	0.100
50.100	36.164	0.100
50.200	46.614	0.100
50.300	40.779	0.100
50.400	48.807	0.100
50.500	44.013	0.100
50.600	56.845	0.100
50.700	19.493	0.100
50.800	42.193	0.100
50.900	37.904	0.100
51.000	55.642	0.100
51.100	43.734	0.100
51.200	35.042	0.100
51.300	40.240	0.100
51.400	41.260	0.100
51.500	37.030	0.100
51.600	13.910	0.100
51.700	58.331	0.100
51.800	36.029	0.100
51.900	49.977	0.100
52.000	35.831	0.100
52.100	53.754	0.100
52.200	33.738	0.100
52.300	39.468	0.100
52.400	44.922	0.100
52.500	38.928	0.100
52.600	24.873	0.100
52.700	69.059	0.100
52.800	41.920	0.100
52.900	35.288	0.100
53.000	28.168	0.100
53.100	39.201	0.100
53.200	48.182	0.100
53.300	61.427	0.100
53.400	41.099	0.100
53.500	19.672	0.100
53.600	21.470	0.100
53.700	41.775	0.100
53.800	49.247	0.100
53.900	53.679	0.100
54.000	14.584	0.100
54.100	32.772	0.100
54.200	64.209	0.100
54.300	30.170	0.100
54.400	36.342	0.100
54.500	39.620	0.100
54.600	46.961	0.100
54.700	40.072	0.100
54.800	61.807	0.100
54.900	35.060	0.100
55.000	33.983	0.100
55.100	61.399	0.100
55.200	41.805	0.100
55.300	26.368	0.100
55.400	33.812	0.100
55.500	13.408	0.100
55.600	50.014	0.100
55.700	31.491	0.100
55.800	52.644	0.100
55.900	52.634	0.100
56.000	32.034	0.100
56.100	35.610	0.100
56.200	45.071	0.100
56.300	35.358	0.100
56.400	53.882	0.100
56.500	57.349	0.100
56.600	34.896	0.100
56.700	47.068	0.100
56.800	43.965	0.100
56.900	30.818	0.100
57.000	39.451	0.100
57.100	46.844	0.100
57.200	43.015	0.100
57.300	38.212	0.100
57.400	41.079	0.100
57.500	45.177	0.100
57.600	42.419	0.100
57.700	57.616	0.100
57.800	35.760	0.100
57.900	51.450	0.100
58.000	44.072	0.100
58.100	38.964	0.100
58.200	43.577	0.100
58.300	35.769	0.100
58.400	46.394	0.100
58.500	73.645	0.100
58.600	51.589	0.100
58.700	20.659	0.100
58.800	34.787	0.100
58.900	50.329	0.100
59.000	21.443	0.100
59.100	70.233	0.100
59.200	50.296	0.100
59.300	40.382	0.100
59.400	51.678	0.100
59.500	31.398	0.100
59.600	18.038	0.100
59.700	52.607	0.100
59.800	42.579	0.100
59.900	56.773	0.100
60.000	58.286	0.100
60.100	38.570	0.100
60.200	32.691	0.100
60.300	44.035	0.100
60.400	51.310	0.100
60.500	52.666	0.100
60.600	27.359	0.100
60.700	37.067	0.100
60.800	44.212	0.100
60.900	46.563	0.100
61.000	29.095	0.100
61.100	39.461	0.100
61.200	52.739	0.100
61.300	46.587	0.100
61.400	61.269	0.100
61.500	41.239	0.100
61.600	15.289	0.100
61.700	54.180	0.100
61.800	48.137	0.100
61.900	48.728	0.100
62.000	64.686	0.100
62.100	52.255	0.100
62.200	53.625	0.100
62.300	42.853	0.100
62.400	48.206	0.100
62.500	38.312	0.100
62.600	54.674	0.100
62.700	33.331	0.100
62.800	53.290	0.100
62.900	35.880	0.100
63.000	37.798	0.100
63.100	52.335	0.100
63.200	61.759	0.100
63.300	36.226	0.100
63.400	37.361	0.100
63.500	52.034	0.100
63.600	43.193	0.100
63.700	44.576	0.100
63.800	56.604	0.100
63.900	53.358	0.100
64.000	24.739	0.100
64.100	55.959	0.100
64.200	53.495	0.100
64.300	33.686	0.100
64.400	42.375	0.100
64.500	44.800	0.100
64.600	73.496	0.100
64.700	44.487	0.100
64.800	51.078	0.100
64.900	49.539	0.100
65.000	37.670	0.100
65.100	52.996	0.100
65.200	58.710	0.100
65.300	51.340	0.100
65.400	23.536	0.100
65.500	57.395	0.100
65.600	78.160	0.100
65.700	52.979	0.100
65.800	35.472	0.100
65.900	18.876	0.100
66.000	31.317	0.100
66.100	59.856	0.100
66.200	30.949	0.100
66.300	63.010	0.100
66.400	49.512	0.100
66.500	44.947	0.100
66.600	32.311	0.100
66.700	48.749	0.100
66.800	49.731	0.100
66.900	20.166	0.100
67.000	72.550	0.100
67.100	57.706	0.100
67.200	43.505	0.100
67.300	40.431	0.100
67.400	48.760	0.100
67.500	32.493	0.100
67.600	37.479	0.100
67.700	35.625	0.100
67.800	44.176	0.100
67.900	76.061	0.100
68.000	64.577	0.100
68.100	52.538	0.100
68.200	52.938	0.100
68.300	41.103	0.100
68.400	47.531	0.100
68.500	50.802	0.100
68.600	60.031	0.100
68.700	54.842	0.100
68.800	65.856	0.100
68.900	36.145	0.100
69.000	50.061	0.100
69.100	57.698	0.100
69.200	53.495	0.100
69.300	41.543	0.100
69.400	55.821	0.100
69.500	47.368	0.100
69.600	47.639	0.100
69.700	68.655	0.100
69.800	46.507	0.100
69.900	33.976	0.100
70.000	33.067	0.100
70.100	47.153	0.100
70.200	50.234	0.100
70.300	65.402	0.100
70.400	49.387	0.100
70.500	62.875	0.100
70.600	62.045	0.100
70.700	41.084	0.100
70.800	53.816	0.100
70.900	56.045	0.100
71.000	52.813	0.100
71.100	40.468	0.100
71.200	56.353	0.100
71.300	40.158	0.100
71.400	37.402	0.100
71.500	53.458	0.100
71.600	37.576	0.100
71.700	65.433	0.100
71.800	38.299	0.100
71.900	41.795	0.100
72.000	54.952	0.100
72.100	49.758	0.100
72.200	49.549	0.100
72.300	56.396	0.100
72.400	71.333	0.100
72.500	40.699	0.100
72.600	58.522	0.100
72.700	42.347	0.100
72.800	42.834	0.100
72.900	58.540	0.100
73.000	62.180	0.100
73.100	53.771	0.100
73.200	56.278	0.100
73.300	50.402	0.100
73.400	35.533	0.100
73.500	66.875	0.100
73.600	53.101	0.100
73.700	61.620	0.100
73.800	69.499	0.100
73.900	54.080	0.100
74.000	50.085	0.100
74.100	59.104	0.100
74.200	56.728	0.100
74.300	44.202	0.100
74.400	48.373	0.100
74.500	46.768	0.100
74.600	61.279	0.100
74.700	48.766	0.100
74.800	53.103	0.100
74.900	63.305	0.100
75.000	59.565	0.100
75.100	60.005	0.100
75.200	53.085	0.100
75.300	46.020	0.100
75.400	49.916	0.100
75.500	61.264	0.100
75.600	51.605	0.100
75.700	34.539	0.100
75.800	45.436	0.100
75.900	56.339	0.100
76.000	64.383	0.100
76.100	70.941	0.100
76.200	55.146	0.100
76.300	53.363	0.100
76.400	57.873	0.100
76.500	53.449	0.100
76.600	51.319	0.100
76.700	65.943	0.100
76.800	53.293	0.100
76.900	52.837	0.100
77.000	64.025	0.100
77.100	65.958	0.100
77.200	65.303	0.100
77.300	55.960	0.100
77.400	61.756	0.100
77.500	54.440	0.100
77.600	50.581	0.100
77.700	57.839	0.100
77.800	44.162	0.100
77.900	48.515	0.100
78.000	55.727	0.100
78.100	77.200	0.100
78.200	66.593	0.100
78.300	37.124	0.100
78.400	56.907	0.100
78.500	56.646	0.100
78.600	51.402	0.100
78.700	77.919	0.100
78.800	54.003	0.100
78.900	52.563	0.100
79.000	53.122	0.100
79.100	50.433	0.100
79.200	76.450	0.100
79.300	56.247	0.100
79.400	30.909	0.100
79.500	38.417	0.100
79.600	49.547	0.100
79.700	66.120	0.100
79.800	68.784	0.100
79.900	62.201	0.100
80.000	45.766	0.100
80.100	71.360	0.100
80.200	43.951	0.100
80.300	45.862	0.100
80.400	76.334	0.100
80.500	37.595	0.100
80.600	51.968	0.100
80.700	72.231	0.100
80.800	67.855	0.100
80.900	57.809	0.100
81.000	50.286	0.100
81.100	47.317	0.100
81.200	40.146	0.100
81.300	54.012	0.100
81.400	80.060	0.100
81.500	53.623	0.100
81.600	56.705	0.100
81.700	54.751	0.100
81.800	54.074	0.100
81.900	52.627	0.100
82.000	52.279	0.100
82.100	50.771	0.100
82.200	64.900	0.100
82.300	63.421	0.100
82.400	63.347	0.100
82.500	60.159	0.100
82.600	51.916	0.100
82.700	43.048	0.100
82.800	52.161	0.100
82.900	65.459	0.100
83.000	63.528	0.100
83.100	66.375	0.100
83.200	56.728	0.100
83.300	59.914	0.100
83.400	70.478	0.100
83.500	54.702	0.100
83.600	51.615	0.100
83.700	59.017	0.100
83.800	49.107	0.100
83.900	55.476	0.100
84.000	67.778	0.100
84.100	55.494	0.100
84.200	61.744	0.100
84.300	75.008	0.100
84.400	44.465	0.100
84.500	79.580	0.100
84.600	58.921	0.100
84.700	52.260	0.100
84.800	50.125	0.100
84.900	68.180	0.100
85.000	43.777	0.100
85.100	52.037	0.100
85.200	57.000	0.100
85.300	61.133	0.100
85.400	38.213	0.100
85.500	53.771	0.100
85.600	39.107	0.100
85.700	53.874	0.100
85.800	77.369	0.100
85.900	69.936	0.100
86.000	66.859	0.100
86.100	73.487	0.100
86.200	58.627	0.100
86.300	48.915	0.100
86.400	48.876	0.100
86.500	41.366	0.100
86.600	50.130	0.100
86.700	69.820	0.100
86.800	49.668	0.100
86.900	65.336	0.100
87.000	59.593	0.100
87.100	47.490	0.100
87.200	69.443	0.100
87.300	68.982	0.100
87.400	51.788	0.100
87.500	73.174	0.100
87.600	57.734	0.100
87.700	33.067	0.100
87.800	61.001	0.100
87.900	68.832	0.100
88.000	61.957	0.100
88.100	86.773	0.100
88.200	63.026	0.100
88.300	58.614	0.100
88.400	52.100	0.100
88.500	62.085	0.100
88.600	47.929	0.100
88.700	65.963	0.100
88.800	51.895	0.100
88.900	56.412	0.100
89.000	79.829	0.100
89.100	59.720	0.100
89.200	66.066	0.100
89.300	76.132	0.100
89.400	45.289	0.100
89.500	73.347	0.100
89.600	68.465	0.100
89.700	43.374	0.100
89.800	36.413	0.100
89.900	64.989	0.100
90.000	54.641	0.100
90.100	63.474	0.100
90.200	42.350	0.100
90.300	60.456	0.100
90.400	54.612	0.100
90.500	70.014	0.100
90.600	43.553	0.100
90.700	64.176	0.100
90.800	51.095	0.100
90.900	38.333	0.100
91.000	39.867	0.100
91.100	57.910	0.100
91.200	38.621	0.100
91.300	44.073	0.100
91.400	34.316	0.100
91.500	24.373	0.100
91.600	26.774	0.100
91.700	21.502	0.100
91.800	34.746	0.100
91.900	26.354	0.100
92.000	36.288	0.100
92.100	16.104	0.100
92.200	14.945	0.100
92.300	17.827	0.100
92.400	23.606	0.100
92.500	24.214	0.100
92.600	17.241	0.100
92.700	21.919	0.100
92.800	-0.969	0.100
92.900	1.972	0.100
93.000	15.597	0.100
93.100	9.769	0.100
93.200	11.198	0.100
93.300	-12.344	0.100
93.400	-3.150	0.100
93.500	-0.181	0.100
93.600	16.354	0.100
93.700	2.195	0.100
93.800	-5.285	0.100
93.900	-0.350	0.100
94.000	17.519	0.100
94.100	6.527	0.100
94.200	-10.182	0.100
94.300	7.470	0.100
94.400	-10.831	0.100
94.500	-3.701	0.100
94.600	11.105	0.100
94.700	-20.178	0.100
94.800	-5.648	0.100
94.900	18.301	0.100
95.000	-8.581	0.100
95.100	14.025	0.100
95.200	-16.975	0.100
95.300	-12.053	0.100
95.400	-10.148	0.100
95.500	-6.177	0.100
95.600	-9.472	0.100
95.700	10.313	0.100
95.800	-13.447	0.100
95.900	-13.351	0.100
96.000	11.723	0.100
96.100	4.908	0.100
96.200	6.062	0.100
96.300	-5.793	0.100
96.400	2.201	0.100
96.500	-6.124	0.100
96.600	7.342	0.100
96.700	-8.649	0.100
96.800	-19.612	0.100
96.900	-8.670	0.100
97.000	-0.609	0.100
97.100	-6.821	0.100
97.200	9.986	0.100
97.300	-15.436	0.100
97.400	-5.208	0.100
97.500	-7.268	0.100
97.600	-2.522	0.100
97.700	-10.102	0.100
97.800	4.012	0.100
97.900	-19.438	0.100
98.000	-7.321	0.100
98.100	3.802	0.100
98.200	3.716	0.100
98.300	0.760	0.100
98.400	2.990	0.100
98.500	-11.200	0.100
98.600	-22.570	0.100
98.700	29.606	0.100
98.800	-1.459	0.100
98.900	-6.990	0.100
99.000	-6.191	0.100
99.100	-23.198	0.100
99.200	-5.765	0.100
99.300	-18.455	0.100
99.400	-12.262	0.100
99.500	-6.966	0.100
99.600	1.062	0.100
99.700	-10.825	0.100
99.800	8.308	0.100
99.900	-6.572	0.100
100.000	-23.118	0.100
100.100	-10.460	0.100
100.200	-18.818	0.100
100.300	-35.092	0.100
100.400	17.262	0.100
100.500	-1.951	0.100
100.600	-4.091	0.100
100.700	0.384	0.100
100.800	-17.239	0.100
100.900	-0.534	0.100
101.000	-10.567	0.100
101.100	2.719	0.100
101.200	-34.165	0.100
101.300	-9.573	0.100
101.400	-12.665	0.100
101.500	-9.786	0.100
101.600	-13.705	0.100
101.700	-5.926	0.100
101.800	6.386	0.100
101.900	-3.282	0.100
102.000	-41.609	0.100
102.100	1.958	0.100
102.200	-9.750	0.100
102.300	10.960	0.100
102.400	-2.394	0.100
102.500	-3.559	0.100
102.600	-18.272	0.100
102.700	-13.677	0.100
102.800	3.028	0.100
102.900	-15.147	0.100
103.000	-1.436	0.100
103.100	2.305	0.100
103.200	-24.029	0.100
103.300	12.146	0.100
103.400	4.220	0.100
103.500	-20.376	0.100
103.600	-7.069	0.100
103.700	-17.417	0.100
103.800	-21.244	0.100
103.900	-6.554	0.100
104.000	-12.949	0.100
104.100	-10.027	0.100
104.200	-20.803	0.100
104.300	-15.782	0.100
104.400	-16.544	0.100
104.500	-24.295	0.100
104.600	-7.940	0.100
104.700	-6.258	0.100
104.800	-7.003	0.100
104.900	-25.752	0.100
105.000	-23.964	0.100
105.100	-6.268	0.100
105.200	-7.684	0.100
105.300	-2.155	0.100
105.400	8.304	0.100
105.500	-8.893	0.100
105.600	-4.112	0.100
105.700	-18.507	0.100
105.800	-35.093	0.100
105.900	-10.068	0.100
106.000	-2.996	0.100
106.100	-19.682	0.100
106.200	-9.674	0.100
106.300	8.357	0.100
106.400	-13.496	0.100
106.500	-14.754	0.100
106.600	-8.745	0.100
106.700	-33.219	0.100
106.800	-9.732	0.100
106.900	-2.318	0.100
107.000	-17.520	0.100
107.100	-26.954	0.100
107.200	-20.260	0.100
107.300	-14.246	0.100
107.400	-12.441	0.100
107.500	-1.058	0.100
107.600	-20.241	0.100
107.700	-21.048	0.100
107.800	-11.584	0.100
107.900	-12.618	0.100
108.000	-37.129	0.100
108.100	-12.038	0.100
108.200	-7.650	0.100
108.300	2.563	0.100
108.400	-21.796	0.100
108.500	-6.364	0.100
108.600	-7.063	0.100
108.700	-5.708	0.100
108.800	-19.919	0.100
108.900	-0.035	0.100
109.000	-16.811	0.100
109.100	-18.821	0.100
109.200	-21.077	0.100
109.300	-26.658	0.100
109.400	-2.395	0.100
109.500	-13.905	0.100
109.600	-27.297	0.100
109.700	-5.792	0.100
109.800	-24.731	0.100
109.900	-7.764	0.100
110.000	-16.142	0.100
110.100	-15.818	0.100
110.200	-9.720	0.100
110.300	-0.159	0.100
110.400	-16.243	0.100
110.500	-8.218	0.100
110.600	-23.033	0.100
110.700	-2.100	0.100
110.800	-27.053	0.100
110.900	-16.731	0.100
111.000	-12.442	0.100
111.100	-33.694	0.100
111.200	-11.586	0.100
111.300	0.726	0.100
111.400	-21.786	0.100
111.500	-16.737	0.100
111.600	-19.938	0.100
111.700	-20.226	0.100
111.800	-27.201	0.100
111.900	-24.304	0.100
112.000	1.005	0.100
112.100	-16.255	0.100
112.200	-4.379	0.100
112.300	-15.864	0.100
112.400	-5.344	0.100
112.500	-16.888	0.100
112.600	-8.072	0.100
112.700	-10.027	0.100
112.800	-40.948	0.100
112.900	-37.362	0.100
113.000	3.018	0.100
113.100	-17.583	0.100
113.200	-27.319	0.100
113.300	-16.847	0.100
113.400	-1.364	0.100
113.500	-29.972	0.100
113.600	-5.907	0.100
113.700	-16.690	0.100
113.800	-24.131	0.100
113.900	-12.424	0.100
114.000	-6.941	0.100
114.100	-15.939	0.100
114.200	-17.958	0.100
114.300	-25.332	0.100
114.400	-27.442	0.100
114.500	-16.968	0.100
114.600	-16.085	0.100
114.700	-23.288	0.100
114.800	-18.406	0.100
114.900	-21.058	0.100
115.000	-18.023	0.100
115.100	-1.562	0.100
115.200	-17.577	0.100
115.300	-36.982	0.100
115.400	-11.058	0.100
115.500	-6.658	0.100
115.600	-32.335	0.100
115.700	-17.553	0.100
115.800	-19.151	0.100
115.900	-24.903	0.100
116.000	-26.917	0.100
116.100	-25.439	0.100
116.200	-31.409	0.100
116.300	-21.831	0.100
116.400	-10.177	0.100
116.500	-20.945	0.100
116.600	-27.088	0.100
116.700	-27.914	0.100
116.800	-18.350	0.100
116.900	-20.159	0.100
117.000	-31.525	0.100
117.100	-4.351	0.100
117.200	-17.357	0.100
117.300	-18.520	0.100
117.400	0.983	0.100
117.500	-17.908	0.100
117.600	-29.876	0.100
117.700	3.735	0.100
117.800	-10.933	0.100
117.900	-10.067	0.100
118.000	-8.273	0.100
118.100	-11.995	0.100
118.200	-8.258	0.100
118.300	-14.606	0.100
118.400	-18.726	0.100
118.500	-13.510	0.100
118.600	-19.985	0.100
118.700	-21.021	0.100
118.800	-25.527	0.100
118.900	-15.901	0.100
119.000	-22.729	0.100
119.100	-10.530	0.100
119.200	-37.441	0.100
119.300	-9.741	0.100
119.400	-6.556	0.100
119.500	-13.328	0.100
119.600	-30.353	0.100
119.700	-28.701	0.100
119.800	-18.081	0.100
119.900	-28.058	0.100
120.000	-22.397	0.100
120.100	-31.241	0.100
120.200	-12.684	0.100
120.300	-27.013	0.100
120.400	-18.035	0.100
120.500	-23.079	0.100
120.600	-23.898	0.100
120.700	-23.666	0.100
120.800	-27.018	0.100
120.900	-13.265	0.100
121.000	-27.197	0.100
121.100	-24.167	0.100
121.200	0.524	0.100
121.300	-19.673	0.100
121.400	-36.751	0.100
121.500	-34.531	0.100
121.600	-21.239	0.100
121.700	-14.208	0.100
121.800	1.662	0.100
121.900	-34.826	0.100
122.000	-30.982	0.100
122.100	-9.297	0.100
122.200	-17.267	0.100
122.300	-27.013	0.100
122.400	-18.621	0.100
122.500	-30.086	0.100
122.600	-29.635	0.100
122.700	-7.346	0.100
122.800	-18.575	0.100
122.900	-23.260	0.100
123.000	-17.999	0.100
123.100	-24.719	0.100
123.200	-39.520	0.100
123.300	-9.239	0.100
123.400	-30.714	0.100
123.500	-30.879	0.100
123.600	15.956	0.100
123.700	-33.221	0.100
123.800	-19.324	0.100
123.900	-11.565	0.100
124.000	-10.661	0.100
124.100	-25.804	0.100
124.200	2.491	0.100
124.300	-29.060	0.100
124.400	-30.972	0.100
124.500	-32.280	0.100
124.600	-12.048	0.100
124.700	-10.709	0.100
124.800	-15.600	0.100
124.900	-24.536	0.100
125.000	-11.663	0.100
125.100	-40.450	0.100
125.200	-18.963	0.100
125.300	-9.348	0.100
125.400	-20.566	0.100
125.500	-19.598	0.100
125.600	-31.807	0.100
125.700	-18.675	0.100
125.800	-28.102	0.100
125.900	-26.856	0.100
126.000	-30.990	0.100
126.100	-32.155	0.100
126.200	-16.154	0.100
126.300	-30.639	0.100
126.400	-15.751	0.100
126.500	-19.399	0.100
126.600	-24.292	0.100
126.700	-25.548	0.100
126.800	-27.675	0.100
126.900	-21.190	0.100
127.000	-25.582	0.100
127.100	-19.067	0.100
127.200	-13.228	0.100
127.300	-24.138	0.100
127.400	-14.767	0.100
127.500	-29.964	0.100
127.600	-6.750	0.100
127.700	-30.727	0.100
127.800	-17.608	0.100
127.900	-36.324	0.100
128.000	-37.418	0.100
128.100	-34.054	0.100
128.200	-41.018	0.100
128.300	-22.212	0.100
128.400	-34.110	0.100
128.500	-27.960	0.100
128.600	-4.846	0.100
128.700	-31.538	0.100
128.800	-21.125	0.100
128.900	-27.989	0.100
129.000	-22.042	0.100
129.100	-24.498	0.100
129.200	-20.624	0.100
129.300	-23.843	0.100
129.400	-13.786	0.100
129.500	-22.223	0.100
129.600	-11.552	0.100
129.700	-16.537	0.100
129.800	-22.344	0.100
129.900	-21.520	0.100
130.000	-19.588	0.100
130.100	-33.765	0.100
130.200	-34.982	0.100
130.300	-7.243	0.100
130.400	-38.087	0.100
130.500	-13.335	0.100
130.600	-21.577	0.100
130.700	-25.409	0.100
130.800	-46.346	0.100
130.900	-11.471	0.100
131.000	-28.454	0.100
131.100	-48.890	0.100
131.200	-28.124	0.100
131.300	-20.815	0.100
131.400	-28.840	0.100
131.500	-21.499	0.100
131.600	-12.812	0.100
131.700	-27.927	0.100
131.800	5.053	0.100
131.900	-10.092	0.100
132.000	-17.406	0.100
132.100	-25.871	0.100
132.200	-28.765	0.100
132.300	-13.245	0.100
132.400	-17.513	0.100
132.500	-42.904	0.100
132.600	-26.001	0.100
132.700	-22.262	0.100
132.800	-50.528	0.100
132.900	-24.516	0.100
133.000	-12.956	0.100
133.100	-20.416	0.100
133.200	-32.883	0.100
133.300	-22.524	0.100
133.400	-25.376	0.100
133.500	-30.090	0.100
133.600	-14.962	0.100
133.700	-23.378	0.100
133.800	-17.956	0.100
133.900	-28.681	0.100
134.000	-24.418	0.100
134.100	-21.421	0.100
134.200	-41.026	0.100
134.300	-25.807	0.100
134.400	-34.706	0.100
134.500	-41.698	0.100
134.600	-29.476	0.100
134.700	-17.279	0.100
134.800	-29.659	0.100
134.900	-25.551	0.100
135.000	-23.900	0.100
135.100	-31.911	0.100
135.200	-34.943	0.100
135.300	-31.771	0.100
135.400	5.221	0.100
135.500	-18.899	0.100
135.600	-6.073	0.100
135.700	-17.199	0.100
135.800	-24.893	0.100
135.900	-20.216	0.100
136.000	-22.654	0.100
136.100	-24.326	0.100
136.200	-32.676	0.100
136.300	-15.554	0.100
136.400	-33.013	0.100
136.500	-22.762	0.100
136.600	-28.501	0.100
136.700	-13.921	0.100
136.800	-12.873	0.100
136.900	-29.479	0.100
137.000	-8.143	0.100
137.100	-22.757	0.100
137.200	-27.525	0.100
137.300	-27.554	0.100
137.400	-28.713	0.100
137.500	-19.050	0.100
137.600	-19.689	0.100
137.700	-36.884	0.100
137.800	-28.713	0.100
137.900	-37.313	0.100
138.000	-25.852	0.100
138.100	-34.226	0.100
138.200	-23.450	0.100
138.300	-25.284	0.100
138.400	-39.949	0.100
138.500	-42.772	0.100
138.600	-16.770	0.100
138.700	-31.788	0.100
138.800	-17.605	0.100
138.900	-12.069	0.100
139.000	-20.709	0.100
139.100	-49.842	0.100
139.200	-11.192	0.100
139.300	-4.306	0.100
139.400	-25.760	0.100
139.500	-22.602	0.100
139.600	-33.328	0.100
139.700	-29.261	0.100
139.800	-13.691	0.100
139.900	-27.010	0.100
140.000	-14.746	0.100
140.100	-11.560	0.100
140.200	-29.351	0.100
140.300	-17.479	0.100
140.400	-11.529	0.100
140.500	-29.147	0.100
140.600	-15.284	0.100
140.700	-17.651	0.100
140.800	-21.123	0.100
140.900	-22.612	0.100
141.000	-21.723	0.100
141.100	-23.978	0.100
141.200	-12.326	0.100
141.300	-43.874	0.100
141.400	-29.912	0.100
141.500	-23.764	0.100
141.600	-16.285	0.100
141.700	-23.009	0.100
141.800	-19.072	0.100
141.900	-18.727	0.100
142.000	-15.451	0.100
142.100	-16.954	0.100
142.200	-26.611	0.100
142.300	-17.066	0.100
142.400	-28.298	0.100
142.500	-25.786	0.100
142.600	-14.145	0.100
142.700	-28.158	0.100
142.800	-28.830	0.100
142.900	-35.416	0.100
143.000	-15.440	0.100
143.100	-19.447	0.100
143.200	4.105	0.100
143.300	-25.909	0.100
143.400	-26.639	0.100
143.500	-36.457	0.100
143.600	-8.772	0.100
143.700	-18.638	0.100
143.800	-13.427	0.100
143.900	-29.101	0.100
144.000	-36.172	0.100
144.100	-16.171	0.100
144.200	-20.110	0.100
144.300	-44.517	0.100
144.400	-10.978	0.100
144.500	-17.870	0.100
144.600	-8.152	0.100
144.700	-11.529	0.100
144.800	-15.381	0.100
144.900	-40.060	0.100
145.000	-33.919	0.100
145.100	-50.099	0.100
145.200	-25.900	0.100
145.300	-22.496	0.100
145.400	-21.121	0.100
145.500	-30.969	0.100
145.600	-26.276	0.100
145.700	-47.710	0.100
145.800	-34.211	0.100
145.900	-7.525	0.100
146.000	-40.768	0.100
146.100	-17.952	0.100
146.200	1.769	0.100
146.300	-28.799	0.100
146.400	-18.383	0.100
146.500	-25.608	0.100
146.600	-24.981	0.100
146.700	-10.658	0.100
146.800	-11.015	0.100
146.900	-28.306	0.100
147.000	-38.985	0.100
147.100	-16.174	0.100
147.200	-35.880	0.100
147.300	-23.673	0.100
147.400	-47.180	0.100
147.500	-15.954	0.100
147.600	-15.853	0.100
147.700	-15.893	0.100
147.800	-38.046	0.100
147.900	-10.913	0.100
148.000	-9.730	0.100
148.100	-13.533	0.100
148.200	-26.522	0.100
148.300	-24.830	0.100
148.400	-42.166	0.100
148.500	-15.469	0.100
148.600	-17.629	0.100
148.700	-17.266	0.100
148.800	-8.163	0.100
148.900	-19.440	0.100
149.000	-26.135	0.100
149.100	-10.562	0.100
149.200	-20.993	0.100
149.300	-24.869	0.100
149.400	-0.899	0.100
149.500	-28.424	0.100
149.600	-17.420	0.100
149.700	-16.313	0.100
149.800	-33.032	0.100
149.900	-38.320	0.100
150.000	-22.102	0.100
150.100	-19.520	0.100
150.200	-25.104	0.100
150.300	-16.581	0.100
150.400	-47.446	0.100
150.500	-22.443	0.100
150.600	-30.200	0.100
150.700	-18.322	0.100
150.800	-8.295	0.100
150.900	-20.938	0.100
151.000	-25.038	0.100
151.100	-26.054	0.100
151.200	-17.132	0.100
151.300	-18.797	0.100
151.400	-13.041	0.100
151.500	-15.108	0.100
151.600	-32.744	0.100
151.700	-23.485	0.100
151.800	-27.479	0.100
151.900	-11.346	0.100
152.000	-4.704	0.100
152.100	-25.696	0.100
152.200	-30.580	0.100
152.300	-20.471	0.100
152.400	-27.715	0.100
152.500	-19.185	0.100
152.600	-16.473	0.100
152.700	-29.162	0.100
152.800	-44.176	0.100
152.900	-33.228	0.100
153.000	10.560	0.100
153.100	-14.787	0.100
153.200	-18.140	0.100
153.300	-26.884	0.100
153.400	-20.707	0.100
153.500	-8.856	0.100
153.600	-35.622	0.100
153.700	-25.051	0.100
153.800	-16.780	0.100
153.900	-28.045	0.100
154.000	-27.452	0.100
154.100	-46.415	0.100
154.200	-39.491	0.100
154.300	-4.246	0.100
154.400	-18.726	0.100
154.500	-22.909	0.100
154.600	-39.534	0.100
154.700	-18.484	0.100
154.800	-29.572	0.100
154.900	-27.006	0.100
155.000	-11.586	0.100
155.100	-7.371	0.100
155.200	-12.703	0.100
155.300	-19.530	0.100
155.400	-36.984	0.100
155.500	-38.406	0.100
155.600	-5.026	0.100
155.700	-23.869	0.100
155.800	-20.136	0.100
155.900	-7.246	0.100
156.000	-15.627	0.100
156.100	-25.335	0.100
156.200	-33.127	0.100
156.300	-33.803	0.100
156.400	-13.004	0.100
156.500	-19.509	0.100
156.600	-22.191	0.100
156.700	-11.839	0.100
156.800	-19.607	0.100
156.900	-18.792	0.100
157.000	-17.269	0.100
157.100	-26.370	0.100
157.200	-31.332	0.100
157.300	-20.987	0.100
157.400	-21.360	0.100
157.500	-11.099	0.100
157.600	-11.835	0.100
157.700	-35.702	0.100
157.800	-26.019	0.100
157.900	-19.527	0.100
158.000	-21.545	0.100
158.100	-7.332	0.100
158.200	-9.437	0.100
158.300	-43.753	0.100
158.400	-3.073	0.100
158.500	-30.442	0.100
158.600	-25.982	0.100
158.700	-15.474	0.100
158.800	-15.895	0.100
158.900	-28.875	0.100
159.000	-19.669	0.100
159.100	-44.137	0.100
159.200	-10.439	0.100
159.300	-24.333	0.100
159.400	-20.310	0.100
159.500	-31.147	0.100
159.600	-22.451	0.100
159.700	-23.843	0.100
159.800	-34.983	0.100
159.900	-10.561	0.100
160.000	-28.025	0.100
160.100	-10.701	0.100
160.200	-12.983	0.100
160.300	-34.989	0.100
160.400	-25.492	0.100
160.500	-23.507	0.100
160.600	-21.810	0.100
160.700	-16.147	0.100
160.800	-22.473	0.100
160.900	-26.847	0.100
161.000	-14.072	0.100
161.100	-19.530	0.100
161.200	-28.703	0.100
161.300	-18.885	0.100
161.400	-35.628	0.100
161.500	-11.870	0.100
161.600	-17.380	0.100
161.700	-32.232	0.100
161.800	-13.719	0.100
161.900	-16.287	0.100
162.000	-8.006	0.100
162.100	-27.376	0.100
162.200	-5.260	0.100
162.300	-9.970	0.100
162.400	-33.266	0.100
162.500	-47.341	0.100
162.600	-20.295	0.100
162.700	-37.040	0.100
162.800	-11.789	0.100
162.900	-10.590	0.100
163.000	-33.504	0.100
163.100	-29.702	0.100
163.200	-3.772	0.100
163.300	-19.050	0.100
163.400	-10.947	0.100
163.500	-18.994	0.100
163.600	-22.022	0.100
163.700	-10.289	0.100
163.800	-33.763	0.100
163.900	-40.070	0.100
164.000	-26.514	0.100
164.100	-15.818	0.100
164.200	-23.700	0.100
164.300	-23.987	0.100
164.400	-24.574	0.100
164.500	-28.911	0.100
164.600	-36.623	0.100
164.700	2.856	0.100
164.800	-17.036	0.100
164.900	-18.323	0.100
165.000	-20.848	0.100
165.100	-18.886	0.100
165.200	-20.968	0.100
165.300	-21.037	0.100
165.400	-27.465	0.100
165.500	1.154	0.100
165.600	-15.205	0.100
165.700	-26.010	0.100
165.800	-17.898	0.100
165.900	-36.250	0.100
166.000	-35.954	0.100
166.100	-19.558	0.100
166.200	-30.120	0.100
166.300	-43.970	0.100
166.400	-27.273	0.100
166.500	-2.576	0.100
166.600	-17.444	0.100
166.700	-6.968	0.100
166.800	-23.835	0.100
166.900	-30.161	0.100
167.000	-10.676	0.100
167.100	-34.933	0.100
167.200	-24.451	0.100
167.300	-8.215	0.100
167.400	-31.752	0.100
167.500	-11.706	0.100
167.600	-27.724	0.100
167.700	-19.990	0.100
167.800	-32.200	0.100
167.900	-20.512	0.100
168.000	-25.125	0.100
168.100	-6.992	0.100
168.200	-11.117	0.100
168.300	-28.298	0.100
168.400	-17.733	0.100
168.500	-21.933	0.100
168.600	-32.463	0.100
168.700	-37.610	0.100
168.800	-22.368	0.100
168.900	-9.147	0.100
169.000	-20.222	0.100
169.100	-33.298	0.100
169.200	-31.914	0.100
169.300	-16.797	0.100
169.400	-12.317	0.100
169.500	-24.939	0.100
169.600	-12.190	0.100
169.700	-14.882	0.100
169.800	-18.153	0.100
169.900	-14.295	0.100
170.000	-22.375	0.100
170.100	-25.525	0.100
170.200	-27.361	0.100
170.300	-13.259	0.100
170.400	-23.488	0.100
170.500	-24.590	0.100
170.600	-14.547	0.100
170.700	-18.543	0.100
170.800	-33.256	0.100
170.900	-15.313	0.100
171.000	-19.049	0.100
171.100	-20.030	0.100
171.200	-23.430	0.100
171.300	-31.688	0.100
171.400	-14.960	0.100
171.500	-30.348	0.100
171.600	-37.709	0.100
171.700	-3.187	0.100
171.800	-19.691	0.100
171.900	-7.892	0.100
172.000	-19.179	0.100
172.100	-31.116	0.100
172.200	-18.474	0.100
172.300	-31.258	0.100
172.400	-14.018	0.100
172.500	-11.625	0.100
172.600	-10.951	0.100
172.700	-19.210	0.100
172.800	-23.049	0.100
172.900	-5.105	0.100
173.000	-17.725	0.100
173.100	-4.431	0.100
173.200	-28.588	0.100
173.300	-22.797	0.100
173.400	1.156	0.100
173.500	-23.301	0.100
173.600	-31.221	0.100
173.700	-18.868	0.100
173.800	-28.197	0.100
173.900	-19.817	0.100
174.000	-24.629	0.100
174.100	-12.803	0.100
174.200	-20.263	0.100
174.300	-11.213	0.100
174.400	-28.143	0.100
174.500	-17.794	0.100
174.600	-13.189	0.100
174.700	-39.037	0.100
174.800	-26.925	0.100
174.900	-5.319	0.100
175.000	-20.717	0.100
175.100	-24.784	0.100
175.200	-29.608	0.100
175.300	-20.802	0.100
175.400	-15.912	0.100
175.500	-0.398	0.100
175.600	-30.483	0.100
175.700	-15.561	0.100
175.800	-2.734	0.100
175.900	-21.538	0.100
176.000	-18.338	0.100
176.100	-26.486	0.100
176.200	-27.331	0.100
176.300	-19.347	0.100
176.400	-7.396	0.100
176.500	-4.346	0.100
176.600	-32.280	0.100
176.700	-29.076	0.100
176.800	-33.076	0.100
176.900	-20.063	0.100
177.000	-12.543	0.100
177.100	-28.526	0.100
177.200	-20.245	0.100
177.300	-11.912	0.100
177.400	-30.435	0.100
177.500	-16.599	0.100
177.600	-30.162	0.100
177.700	-26.438	0.100
177.800	-21.161	0.100
177.900	-17.988	0.100
178.000	-12.038	0.100
178.100	-4.887	0.100
178.200	-34.113	0.100
178.300	-19.445	0.100
178.400	-13.144	0.100
178.500	-20.010	0.100
178.600	-19.555	0.100
178.700	-20.525	0.100
178.800	-14.421	0.100
178.900	-29.250	0.100
179.000	-5.358	0.100
179.100	-29.772	0.100
179.200	-1.472	0.100
179.300	-8.377	0.100
179.400	-24.529	0.100
179.500	-16.355	0.100
179.600	-19.983	0.100
179.700	-30.682	0.100
179.800	-13.370	0.100
179.900	-9.947	0.100
180.000	-23.846	0.100
180.100	-8.443	0.100
180.200	0.568	0.100
180.300	-14.390	0.100
180.400	-3.508	0.100
180.500	-38.609	0.100
180.600	-26.833	0.100
180.700	-22.889	0.100
180.800	-3.568	0.100
180.900	-21.670	0.100
181.000	-10.061	0.100
181.100	-1.356	0.100
181.200	-2.446	0.100
181.300	-0.367	0.100
181.400	3.348	0.100
181.500	-3.551	0.100
181.600	6.229	0.100
181.700	-0.894	0.100
181.800	13.187	0.100
181.900	15.815	0.100
182.000	6.871	0.100
182.100	1.849	0.100
182.200	17.790	0.100
182.300	23.256	0.100
182.400	7.811	0.100
182.500	7.094	0.100
182.600	14.851	0.100
182.700	15.318	0.100
182.800	38.883	0.100
182.900	-3.894	0.100
183.000	25.539	0.100
183.100	44.133	0.100
183.200	1.001	0.100
183.300	5.740	0.100
183.400	17.370	0.100
183.500	29.659	0.100
183.600	8.265	0.100
183.700	13.304	0.100
183.800	3.368	0.100
183.900	19.488	0.100
184.000	37.857	0.100
184.100	17.031	0.100
184.200	16.358	0.100
184.300	11.625	0.100
184.400	30.594	0.100
184.500	18.632	0.100
184.600	4.348	0.100
184.700	10.459	0.100
184.800	17.676	0.100
184.900	12.679	0.100
185.000	12.234	0.100
185.100	27.436	0.100
185.200	8.759	0.100
185.300	15.797	0.100
185.400	31.423	0.100
185.500	1.946	0.100
185.600	15.371	0.100
185.700	19.881	0.100
185.800	28.755	0.100
185.900	37.152	0.100
186.000	25.162	0.100
186.100	19.345	0.100
186.200	16.440	0.100
186.300	19.732	0.100
186.400	30.365	0.100
186.500	20.591	0.100
186.600	34.671	0.100
186.700	8.175	0.100
186.800	21.416	0.100
186.900	11.362	0.100
187.000	14.832	0.100
187.100	35.691	0.100
187.200	24.734	0.100
187.300	10.239	0.100
187.400	4.961	0.100
187.500	16.760	0.100
187.600	26.156	0.100
187.700	31.257	0.100
187.800	37.893	0.100
187.900	9.147	0.100
188.000	28.655	0.100
188.100	36.355	0.100
188.200	18.846	0.100
188.300	31.751	0.100
188.400	42.364	0.100
188.500	44.617	0.100
188.600	11.300	0.100
188.700	42.047	0.100
188.800	19.963	0.100
188.900	32.131	0.100
189.000	36.420	0.100
189.100	32.432	0.100
189.200	31.716	0.100
189.300	24.710	0.100
189.400	33.710	0.100
189.500	26.844	0.100
189.600	40.589	0.100
189.700	29.848	0.100
189.800	42.857	0.100
189.900	33.720	0.100
190.000	50.599	0.100
190.100	34.462	0.100
190.200	48.444	0.100
190.300	46.790	0.100
190.400	39.586	0.100
190.500	58.968	0.100
190.600	50.999	0.100
190.700	38.722	0.100
190.800	38.333	0.100
190.900	13.520	0.100
191.000	38.282	0.100
191.100	66.099	0.100
191.200	31.482	0.100
191.300	59.253	0.100
191.400	43.745	0.100
191.500	41.009	0.100
191.600	58.513	0.100
191.700	27.544	0.100
191.800	60.289	0.100
191.900	52.822	0.100
192.000	44.459	0.100
192.100	63.683	0.100
192.200	59.452	0.100
192.300	47.099	0.100
192.400	27.488	0.100
192.500	59.698	0.100
192.600	58.979	0.100
192.700	64.783	0.100
192.800	71.853	0.100
192.900	49.247	0.100
193.000	48.676	0.100
193.100	53.357	0.100
193.200	44.009	0.100
193.300	59.049	0.100
193.400	46.447	0.100
193.500	67.370	0.100
193.600	61.525	0.100
193.700	45.170	0.100
193.800	48.949	0.100
193.900	64.983	0.100
194.000	59.093	0.100
194.100	66.571	0.100
194.200	68.252	0.100
194.300	55.806	0.100
194.400	54.178	0.100
194.500	56.945	0.100
194.600	64.919	0.100
194.700	66.539	0.100
194.800	57.093	0.100
194.900	45.469	0.100
195.000	45.088	0.100
195.100	53.565	0.100
195.200	83.189	0.100
195.300	39.268	0.100
195.400	71.547	0.100
195.500	62.922	0.100
195.600	46.175	0.100
195.700	49.376	0.100
195.800	63.486	0.100
195.900	49.202	0.100
196.000	83.228	0.100
196.100	60.663	0.100
196.200	67.877	0.100
196.300	41.715	0.100
196.400	71.426	0.100
196.500	62.119	0.100
196.600	69.459	0.100
196.700	58.872	0.100
196.800	64.808	0.100
196.900	80.646	0.100
197.000	72.951	0.100
197.100	72.304	0.100
197.200	69.541	0.100
197.300	45.770	0.100
197.400	55.384	0.100
197.500	59.328	0.100
197.600	75.854	0.100
197.700	55.642	0.100
197.800	70.813	0.100
197.900	50.351	0.100
198.000	62.624	0.100
198.100	73.104	0.100
198.200	62.099	0.100
198.300	71.369	0.100
198.400	61.860	0.100
198.500	61.300	0.100
198.600	55.507	0.100
198.700	82.489	0.100
198.800	73.936	0.100
198.900	78.119	0.100
199.000	68.842	0.100
199.100	68.984	0.100
199.200	73.038	0.100
199.300	78.398	0.100
199.400	42.248	0.100
199.500	70.498	0.100
199.600	80.747	0.100
199.700	80.698	0.100
199.800	56.513	0.100
199.900	74.963	0.100
200.000	70.100	0.100
200.100	45.831	0.100
200.200	58.445	0.100
200.300	80.968	0.100
200.400	81.502	0.100
200.500	60.825	0.100
200.600	57.617	0.100
200.700	41.239	0.100
200.800	74.297	0.100
200.900	77.445	0.100
201.000	69.809	0.100
201.100	64.610	0.100
201.200	68.869	0.100
201.300	69.494	0.100
201.400	65.612	0.100
201.500	65.846	0.100
201.600	74.527	0.100
201.700	75.425	0.100
201.800	70.765	0.100
201.900	61.664	0.100
202.000	55.244	0.100
202.100	73.781	0.100
202.200	51.772	0.100
202.300	71.138	0.100
202.400	78.303	0.100
202.500	67.727	0.100
202.600	62.703	0.100
202.700	65.239	0.100
202.800	58.421	0.100
202.900	45.101	0.100
203.000	90.541	0.100
203.100	58.520	0.100
203.200	66.201	0.100
203.300	80.232	0.100
203.400	68.665	0.100
203.500	57.810	0.100
203.600	76.097	0.100
203.700	71.686	0.100
203.800	66.689	0.100
203.900	84.956	0.100
204.000	51.903	0.100
204.100	70.342	0.100
204.200	64.068	0.100
204.300	55.317	0.100
204.400	64.252	0.100
204.500	73.697	0.100
204.600	67.618	0.100
204.700	78.188	0.100
204.800	69.948	0.100
204.900	70.536	0.100
205.000	62.377	0.100
205.100	71.687	0.100
205.200	55.726	0.100
205.300	78.283	0.100
205.400	58.182	0.100
205.500	42.373	0.100
205.600	76.361	0.100
205.700	89.891	0.100
205.800	63.368	0.100
205.900	76.298	0.100
206.000	77.162	0.100
206.100	54.931	0.100
206.200	66.199	0.100
206.300	85.981	0.100
206.400	72.208	0.100
206.500	48.999	0.100
206.600	51.332	0.100
206.700	80.253	0.100
206.800	79.226	0.100
206.900	74.797	0.100
207.000	44.361	0.100
207.100	83.548	0.100
207.200	64.334	0.100
207.300	59.980	0.100
207.400	72.691	0.100
207.500	69.098	0.100
207.600	68.140	0.100
207.700	71.843	0.100
207.800	70.639	0.100
207.900	62.712	0.100
208.000	87.487	0.100
208.100	56.677	0.100
208.200	68.061	0.100
208.300	74.574	0.100
208.400	69.985	0.100
208.500	72.872	0.100
208.600	64.576	0.100
208.700	60.442	0.100
208.800	67.580	0.100
208.900	74.999	0.100
209.000	75.667	0.100
209.100	66.603	0.100
209.200	63.708	0.100
209.300	66.533	0.100
209.400	43.035	0.100
209.500	76.005	0.100
209.600	71.082	0.100
209.700	65.841	0.100
209.800	75.321	0.100
209.900	39.867	0.100
210.000	67.062	0.100
210.100	85.261	0.100
210.200	58.992	0.100
210.300	87.066	0.100
210.400	68.949	0.100
210.500	70.521	0.100
210.600	68.824	0.100
210.700	59.880	0.100
210.800	70.832	0.100
210.900	69.444	0.100
211.000	71.997	0.100
211.100	67.170	0.100
211.200	61.511	0.100
211.300	59.096	0.100
211.400	55.481	0.100
211.500	71.564	0.100
211.600	72.686	0.100
211.700	59.104	0.100
211.800	82.142	0.100
211.900	52.155	0.100
212.000	68.198	0.100
212.100	83.263	0.100
212.200	67.878	0.100
212.300	68.928	0.100
212.400	65.282	0.100
212.500	65.003	0.100
212.600	82.377	0.100
212.700	73.609	0.100
212.800	58.489	0.100
212.900	71.502	0.100
213.000	98.612	0.100
213.100	62.713	0.100
213.200	38.814	0.100
213.300	81.465	0.100
213.400	79.041	0.100
213.500	57.122	0.100
213.600	83.802	0.100
213.700	72.952	0.100
213.800	75.885	0.100
213.900	53.762	0.100
214.000	50.930	0.100
214.100	68.722	0.100
214.200	67.305	0.100
214.300	74.326	0.100
214.400	80.097	0.100
214.500	70.306	0.100
214.600	63.240	0.100
214.700	75.340	0.100
214.800	80.045	0.100
214.900	61.510	0.100
215.000	64.243	0.100
215.100	67.910	0.100
215.200	68.254	0.100
215.300	59.455	0.100
215.400	71.668	0.100
215.500	73.663	0.100
215.600	68.070	0.100
215.700	81.343	0.100
215.800	72.614	0.100
215.900	54.484	0.100
216.000	90.089	0.100
216.100	68.629	0.100
216.200	85.509	0.100
216.300	80.437	0.100
216.400	67.588	0.100
216.500	55.403	0.100
216.600	78.441	0.100
216.700	48.606	0.100
216.800	84.462	0.100
216.900	65.068	0.100
217.000	55.767	0.100
217.100	70.397	0.100
217.200	71.067	0.100
217.300	73.956	0.100
217.400	80.560	0.100
217.500	57.394	0.100
217.600	74.736	0.100
217.700	67.796	0.100
217.800	56.353	0.100
217.900	63.547	0.100
218.000	90.894	0.100
218.100	73.746	0.100
218.200	84.949	0.100
218.300	55.647	0.100
218.400	74.343	0.100
218.500	76.652	0.100
218.600	70.315	0.100
218.700	64.383	0.100
218.800	83.658	0.100
218.900	58.861	0.100
219.000	47.632	0.100
219.100	75.160	0.100
219.200	59.688	0.100
219.300	85.414	0.100
219.400	69.416	0.100
219.500	78.864	0.100
219.600	69.557	0.100
219.700	81.333	0.100
219.800	64.188	0.100
219.900	70.559	0.100
220.000	74.933	0.100
220.100	65.268	0.100
220.200	63.465	0.100
220.300	83.047	0.100
220.400	48.754	0.100
220.500	77.848	0.100
220.600	79.342	0.100
220.700	68.178	0.100
220.800	67.199	0.100
220.900	77.774	0.100
221.000	46.962	0.100
221.100	72.059	0.100
221.200	55.313	0.100
221.300	40.837	0.100
221.400	63.547	0.100
221.500	98.453	0.100
221.600	74.896	0.100
221.700	67.236	0.100
221.800	73.349	0.100
221.900	67.952	0.100
222.000	61.107	0.100
222.100	75.030	0.100
222.200	53.629	0.100
222.300	64.809	0.100
222.400	86.589	0.100
222.500	75.069	0.100
222.600	57.916	0.100
222.700	80.591	0.100
222.800	70.933	0.100
222.900	69.428	0.100
223.000	62.139	0.100
223.100	48.377	0.100
223.200	83.452	0.100
223.300	67.884	0.100
223.400	76.470	0.100
223.500	72.028	0.100
223.600	53.675	0.100
223.700	79.779	0.100
223.800	70.627	0.100
223.900	63.581	0.100
224.000	71.898	0.100
224.100	83.571	0.100
224.200	73.202	0.100
224.300	67.783	0.100
224.400	75.960	0.100
224.500	73.255	0.100
224.600	61.969	0.100
224.700	73.812	0.100
224.800	67.677	0.100
224.900	74.916	0.100
225.000	64.476	0.100
225.100	55.600	0.100
225.200	76.391	0.100
225.300	76.270	0.100
225.400	78.295	0.100
225.500	36.215	0.100
225.600	79.753	0.100
225.700	68.574	0.100
225.800	60.951	0.100
225.900	70.250	0.100
226.000	63.226	0.100
226.100	78.748	0.100
226.200	68.932	0.100
226.300	63.148	0.100
226.400	65.276	0.100
226.500	69.764	0.100
226.600	61.099	0.100
226.700	77.985	0.100
226.800	73.582	0.100
226.900	59.016	0.100
227.000	71.313	0.100
227.100	77.861	0.100
227.200	65.104	0.100
227.300	61.244	0.100
227.400	65.272	0.100
227.500	63.443	0.100
227.600	58.612	0.100
227.700	70.229	0.100
227.800	75.615	0.100
227.900	71.804	0.100
228.000	45.634	0.100
228.100	59.904	0.100
228.200	64.685	0.100
228.300	67.431	0.100
228.400	72.771	0.100
228.500	73.112	0.100
228.600	69.516	0.100
228.700	72.697	0.100
228.800	74.643	0.100
228.900	75.696	0.100
229.000	67.198	0.100
229.100	83.826	0.100
229.200	76.772	0.100
229.300	67.955	0.100
229.400	80.028	0.100
229.500	57.103	0.100
229.600	75.545	0.100
229.700	78.484	0.100
229.800	70.219	0.100
229.900	60.641	0.100
230.000	55.109	0.100
230.100	71.143	0.100
230.200	78.815	0.100
230.300	81.879	0.100
230.400	66.804	0.100
230.500	53.710	0.100
230.600	73.630	0.100
230.700	45.588	0.100
230.800	78.547	0.100
230.900	79.630	0.100
231.000	53.724	0.100
231.100	70.092	0.100
231.200	75.087	0.100
231.300	76.079	0.100
231.400	83.629	0.100
231.500	61.551	0.100
231.600	57.706	0.100
231.700	79.851	0.100
231.800	60.504	0.100
231.900	67.590	0.100
232.000	61.897	0.100
232.100	58.016	0.100
232.200	67.696	0.100
232.300	71.904	0.100
232.400	66.116	0.100
232.500	52.556	0.100
232.600	70.588	0.100
232.700	58.166	0.100
232.800	57.198	0.100
232.900	101.792	0.100
233.000	64.394	0.100
233.100	68.923	0.100
233.200	66.325	0.100
233.300	65.547	0.100
233.400	62.794	0.100
233.500	66.957	0.100
233.600	58.832	0.100
233.700	73.360	0.100
233.800	72.209	0.100
233.900	76.654	0.100
234.000	74.288	0.100
234.100	65.000	0.100
234.200	67.597	0.100
234.300	76.930	0.100
234.400	74.417	0.100
234.500	59.557	0.100
234.600	71.051	0.100
234.700	82.614	0.100
234.800	53.142	0.100
234.900	57.688	0.100
235.000	65.470	0.100
235.100	57.141	0.100
235.200	57.322	0.100
235.300	64.003	0.100
235.400	69.926	0.100
235.500	76.374	0.100
235.600	72.411	0.100
235.700	59.033	0.100
235.800	56.381	0.100
235.900	85.328	0.100
236.000	58.843	0.100
236.100	77.801	0.100
236.200	69.554	0.100
236.300	51.549	0.100
236.400	63.481	0.100
236.500	83.466	0.100
236.600	56.079	0.100
236.700	70.690	0.100
236.800	76.106	0.100
236.900	61.490	0.100
237.000	76.097	0.100
237.100	65.069	0.100
237.200	75.360	0.100
237.300	77.586	0.100
237.400	72.485	0.100
237.500	45.577	0.100
237.600	60.348	0.100
237.700	70.218	0.100
237.800	55.232	0.100
237.900	69.158	0.100
238.000	55.522	0.100
238.100	65.883	0.100
238.200	72.939	0.100
238.300	66.556	0.100
238.400	89.920	0.100
238.500	64.663	0.100
238.600	62.129	0.100
238.700	58.485	0.100
238.800	80.137	0.100
238.900	60.222	0.100
239.000	56.275	0.100
239.100	77.009	0.100
239.200	59.192	0.100
239.300	67.980	0.100
239.400	73.343	0.100
239.500	60.478	0.100
239.600	65.646	0.100
239.700	81.686	0.100
239.800	56.728	0.100
239.900	60.921	0.100
240.000	82.473	0.100
240.100	65.370	0.100
240.200	73.283	0.100
240.300	69.736	0.100
240.400	71.123	0.100
240.500	62.730	0.100
240.600	70.709	0.100
240.700	65.241	0.100
240.800	69.220	0.100
240.900	43.674	0.100
241.000	43.466	0.100
241.100	50.633	0.100
241.200	65.578	0.100
241.300	42.765	0.100
241.400	35.764	0.100
241.500	45.149	0.100
241.600	35.340	0.100
241.700	39.903	0.100
241.800	17.905	0.100
241.900	28.682	0.100
242.000	35.856	0.100
242.100	23.528	0.100
242.200	26.248	0.100
242.300	33.821	0.100
242.400	29.296	0.100
242.500	17.125	0.100
242.600	21.431	0.100
242.700	-2.438	0.100
242.800	18.437	0.100
242.900	17.028	0.100
243.000	4.558	0.100
243.100	17.838	0.100
243.200	35.886	0.100
243.300	19.414	0.100
243.400	12.006	0.100
243.500	0.610	0.100
243.600	8.933	0.100
243.700	12.264	0.100
243.800	23.280	0.100
243.900	5.806	0.100
244.000	15.800	0.100
244.100	21.804	0.100
244.200	7.292	0.100
244.300	5.217	0.100
244.400	-3.877	0.100
244.500	-4.808	0.100
244.600	12.395	0.100
244.700	5.167	0.100
244.800	-6.215	0.100
244.900	2.114	0.100
245.000	10.517	0.100
245.100	14.480	0.100
245.200	12.679	0.100
245.300	-8.716	0.100
245.400	-3.712	0.100
245.500	8.465	0.100
245.600	0.493	0.100
245.700	-1.754	0.100
245.800	2.049	0.100
245.900	-1.600	0.100
246.000	-6.655	0.100
246.100	17.248	0.100
246.200	-4.350	0.100
246.300	-15.574	0.100
246.400	0.384	0.100
246.500	19.786	0.100
246.600	2.562	0.100
246.700	12.037	0.100
246.800	1.333	0.100
246.900	-16.101	0.100
247.000	-8.473	0.100
247.100	8.183	0.100
247.200	16.380	0.100
247.300	-0.294	0.100
247.400	-14.469	0.100
247.500	8.112	0.100
247.600	12.804	0.100
247.700	-3.969	0.100
247.800	0.224	0.100
247.900	12.799	0.100
248.000	-0.977	0.100
248.100	4.310	0.100
248.200	-13.750	0.100
248.300	-22.063	0.100
248.400	1.013	0.100
248.500	-0.881	0.100
248.600	1.577	0.100
248.700	-7.387	0.100
248.800	-6.765	0.100
248.900	0.159	0.100
249.000	5.084	0.100
249.100	-0.425	0.100
249.200	-0.821	0.100
249.300	2.325	0.100
249.400	1.053	0.100
249.500	-0.608	0.100
249.600	-13.338	0.100
249.700	3.007	0.100
249.800	16.183	0.100
249.900	-6.384	0.100
250.000	-14.142	0.100
250.100	-0.699	0.100
250.200	-14.777	0.100
250.300	-6.161	0.100
250.400	-4.347	0.100
250.500	-1.393	0.100
250.600	-29.536	0.100
250.700	-19.111	0.100
250.800	17.117	0.100
250.900	-2.540	0.100
251.000	-23.378	0.100
251.100	-26.013	0.100
251.200	-6.836	0.100
251.300	-16.817	0.100
251.400	-13.224	0.100
251.500	-2.970	0.100
251.600	-7.931	0.100
251.700	1.111	0.100
251.800	-12.289	0.100
251.900	-13.449	0.100
252.000	-6.236	0.100
252.100	-17.354	0.100
252.200	-9.841	0.100
252.300	-23.993	0.100
252.400	-16.359	0.100
252.500	-13.993	0.100
252.600	1.016	0.100
252.700	-12.278	0.100
252.800	2.433	0.100
252.900	-6.835	0.100
253.000	-21.824	0.100
253.100	-3.929	0.100
253.200	-20.091	0.100
253.300	-20.498	0.100
253.400	-0.087	0.100
253.500	-27.768	0.100
253.600	-18.148	0.100
253.700	-35.874	0.100
253.800	-9.187	0.100
253.900	-1.570	0.100
254.000	-12.172	0.100
254.100	-27.317	0.100
254.200	-21.297	0.100
254.300	-24.713	0.100
254.400	-16.431	0.100
254.500	9.607	0.100
254.600	-15.361	0.100
254.700	-22.801	0.100
254.800	-24.436	0.100
254.900	-7.650	0.100
255.000	-22.346	0.100
255.100	-21.358	0.100
255.200	-27.981	0.100
255.300	-15.532	0.100
255.400	-7.161	0.100
255.500	5.187	0.100
255.600	-8.807	0.100
255.700	-18.629	0.100
255.800	-8.788	0.100
255.900	-32.446	0.100
256.000	-17.938	0.100
256.100	-3.953	0.100
256.200	-6.647	0.100
256.300	-16.540	0.100
256.400	-17.016	0.100
256.500	-1.526	0.100
256.600	-6.001	0.100
256.700	-27.856	0.100
256.800	-21.580	0.100
256.900	-7.031	0.100
257.000	-26.831	0.100
257.100	-46.133	0.100
257.200	-39.100	0.100
257.300	0.809	0.100
257.400	-1.861	0.100
257.500	-13.360	0.100
257.600	-30.886	0.100
257.700	-22.572	0.100
257.800	-15.303	0.100
257.900	-9.773	0.100
258.000	-19.836	0.100
258.100	-5.049	0.100
258.200	-14.141	0.100
258.300	1.471	0.100
258.400	-38.666	0.100
258.500	-26.174	0.100
258.600	-24.750	0.100
258.700	-15.559	0.100
258.800	-23.547	0.100
258.900	-12.796	0.100
259.000	-21.263	0.100
259.100	-13.504	0.100
259.200	-7.983	0.100
259.300	-19.488	0.100
259.400	-38.776	0.100
259.500	-26.019	0.100
259.600	-24.046	0.100
259.700	-16.374	0.100
259.800	-13.143	0.100
259.900	-23.501	0.100
260.000	-14.219	0.100
260.100	-6.574	0.100
260.200	-19.572	0.100
260.300	-35.427	0.100
260.400	-3.218	0.100
260.500	-24.417	0.100
260.600	-17.382	0.100
260.700	-18.125	0.100
260.800	-44.719	0.100
260.900	-22.985	0.100
261.000	-15.176	0.100
261.100	-22.952	0.100
261.200	-10.215	0.100
261.300	-27.747	0.100
261.400	-32.466	0.100
261.500	-29.977	0.100
261.600	-23.247	0.100
261.700	-13.636	0.100
261.800	-14.113	0.100
261.900	-24.156	0.100
262.000	-31.519	0.100
262.100	1.163	0.100
262.200	-17.372	0.100
262.300	-43.208	0.100
262.400	-27.625	0.100
262.500	-19.370	0.100
262.600	-32.108	0.100
262.700	-33.011	0.100
262.800	-14.485	0.100
262.900	-16.972	0.100
263.000	-24.052	0.100
263.100	-27.514	0.100
263.200	-23.522	0.100
263.300	-19.607	0.100
263.400	-48.348	0.100
263.500	-16.659	0.100
263.600	-17.460	0.100
263.700	-25.248	0.100
263.800	-35.499	0.100
263.900	-29.876	0.100
264.000	-35.560	0.100
264.100	-0.547	0.100
264.200	-18.657	0.100
264.300	-34.288	0.100
264.400	-17.385	0.100
264.500	-26.161	0.100
264.600	-23.849	0.100
264.700	-26.365	0.100
264.800	-14.139	0.100
264.900	-22.627	0.100
265.000	-33.105	0.100
265.100	-28.552	0.100
265.200	-35.009	0.100
265.300	-29.181	0.100
265.400	-7.316	0.100
265.500	-41.722	0.100
265.600	-34.006	0.100
265.700	-30.459	0.100
265.800	-13.491	0.100
265.900	-7.675	0.100
266.000	-27.658	0.100
266.100	-33.945	0.100
266.200	-35.190	0.100
266.300	-41.040	0.100
266.400	-16.648	0.100
266.500	-40.843	0.100
266.600	-40.256	0.100
266.700	-17.757	0.100
266.800	-13.300	0.100
266.900	-17.528	0.100
267.000	-50.840	0.100
267.100	-28.869	0.100
267.200	-10.895	0.100
267.300	-38.162	0.100
267.400	-23.750	0.100
267.500	-12.682	0.100
267.600	-37.864	0.100
267.700	-21.997	0.100
267.800	-26.019	0.100
267.900	-37.232	0.100
268.000	-14.686	0.100
268.100	-32.357	0.100
268.200	-33.285	0.100
268.300	-16.100	0.100
268.400	-28.620	0.100
268.500	-39.422	0.100
268.600	-5.844	0.100
268.700	-38.819	0.100
268.800	-22.692	0.100
268.900	-40.988	0.100
269.000	-27.135	0.100
269.100	-28.258	0.100
269.200	-27.831	0.100
269.300	-25.960	0.100
269.400	-48.161	0.100
269.500	-15.563	0.100
269.600	-28.149	0.100
269.700	-25.904	0.100
269.800	-24.458	0.100
269.900	-25.902	0.100
270.000	-14.605	0.100
270.100	-43.186	0.100
270.200	-46.155	0.100
270.300	-29.402	0.100
270.400	-34.033	0.100
270.500	-32.792	0.100
270.600	-25.107	0.100
270.700	-13.623	0.100
270.800	-42.650	0.100
270.900	-23.853	0.100
271.000	-19.280	0.100
271.100	-24.248	0.100
271.200	-46.523	0.100
271.300	-36.467	0.100
271.400	-21.168	0.100
271.500	-23.829	0.100
271.600	-26.658	0.100
271.700	-20.347	0.100
271.800	-35.958	0.100
271.900	-29.382	0.100
272.000	-18.829	0.100
272.100	-19.081	0.100
272.200	-43.932	0.100
272.300	-34.869	0.100
272.400	-21.395	0.100
272.500	-28.616	0.100
272.600	-36.960	0.100
272.700	-22.445	0.100
272.800	-32.742	0.100
272.900	-23.497	0.100
273.000	-38.850	0.100
273.100	-35.532	0.100
273.200	-29.307	0.100
273.300	-49.236	0.100
273.400	-34.820	0.100
273.500	-31.603	0.100
273.600	-39.015	0.100
273.700	-33.472	0.100
273.800	-38.340	0.100
273.900	-17.975	0.100
274.000	-25.289	0.100
274.100	-28.369	0.100
274.200	-25.937	0.100
274.300	-38.010	0.100
274.400	-19.513	0.100
274.500	-47.041	0.100
274.600	-23.703	0.100
274.700	-13.772	0.100
274.800	-34.156	0.100
274.900	-29.260	0.100
275.000	-32.604	0.100
275.100	-23.352	0.100
275.200	-43.723	0.100
275.300	-41.289	0.100
275.400	-37.727	0.100
275.500	-26.224	0.100
275.600	-26.161	0.100
275.700	-35.532	0.100
275.800	-31.425	0.100
275.900	-24.605	0.100
276.000	-40.314	0.100
276.100	-33.318	0.100
276.200	-18.101	0.100
276.300	-29.898	0.100
276.400	-28.519	0.100
276.500	-26.928	0.100
276.600	-19.184	0.100
276.700	-26.185	0.100
276.800	-53.075	0.100
276.900	-29.184	0.100
277.000	-38.165	0.100
277.100	-12.105	0.100
277.200	-33.454	0.100
277.300	-32.391	0.100
277.400	-36.705	0.100
277.500	-52.650	0.100
277.600	-16.703	0.100
277.700	-24.512	0.100
277.800	-25.140	0.100
277.900	-20.226	0.100
278.000	-32.778	0.100
278.100	-79.802	0.100
278.200	-30.196	0.100
278.300	-22.440	0.100
278.400	-30.291	0.100
278.500	-16.694	0.100
278.600	-33.961	0.100
278.700	-30.302	0.100
278.800	-18.391	0.100
278.900	-26.297	0.100
279.000	-39.098	0.100
279.100	-23.896	0.100
279.200	-47.481	0.100
279.300	-13.863	0.100
279.400	-23.974	0.100
279.500	-42.247	0.100
279.600	-20.935	0.100
279.700	-24.784	0.100
279.800	-34.737	0.100
279.900	-35.052	0.100
280.000	-43.598	0.100
280.100	-19.840	0.100
280.200	-33.831	0.100
280.300	-28.224	0.100
280.400	-19.919	0.100
280.500	-32.343	0.100
280.600	-13.777	0.100
280.700	-41.674	0.100
280.800	-33.260	0.100
280.900	-38.722	0.100
281.000	-51.656	0.100
281.100	-25.889	0.100
281.200	-27.618	0.100
281.300	-42.303	0.100
281.400	-17.927	0.100
281.500	-24.715	0.100
281.600	-46.910	0.100
281.700	-26.591	0.100
281.800	-32.915	0.100
281.900	-28.355	0.100
282.000	-31.027	0.100
282.100	-49.394	0.100
282.200	-18.757	0.100
282.300	-23.248	0.100
282.400	-43.698	0.100
282.500	-35.809	0.100
282.600	-12.983	0.100
282.700	-54.500	0.100
282.800	-26.172	0.100
282.900	-38.302	0.100
283.000	-39.164	0.100
283.100	-30.823	0.100
283.200	-20.231	0.100
283.300	-31.105	0.100
283.400	-30.262	0.100
283.500	-33.717	0.100
283.600	-24.004	0.100
283.700	-28.525	0.100
283.800	-29.073	0.100
283.900	-37.981	0.100
284.000	-26.783	0.100
284.100	-43.455	0.100
284.200	-33.587	0.100
284.300	-20.539	0.100
284.400	-13.805	0.100
284.500	-37.845	0.100
284.600	-22.968	0.100
284.700	-29.407	0.100
284.800	-51.210	0.100
284.900	-26.760	0.100
285.000	-28.430	0.100
285.100	-33.754	0.100
285.200	-22.485	0.100
285.300	-38.781	0.100
285.400	-38.925	0.100
285.500	-7.109	0.100
285.600	-21.116	0.100
285.700	-42.567	0.100
285.800	-20.283	0.100
285.900	-40.916	0.100
286.000	-25.698	0.100
286.100	-0.259	0.100
286.200	-38.241	0.100
286.300	-41.570	0.100
286.400	-27.215	0.100
286.500	-21.296	0.100
286.600	-47.776	0.100
286.700	-15.603	0.100
286.800	-41.378	0.100
286.900	-32.957	0.100
287.000	-35.334	0.100
287.100	-38.725	0.100
287.200	-27.396	0.100
287.300	-14.740	0.100
287.400	-19.288	0.100
287.500	-52.406	0.100
287.600	-13.873	0.100
287.700	-40.149	0.100
287.800	-20.314	0.100
287.900	-17.599	0.100
288.000	-25.318	0.100
288.100	-38.439	0.100
288.200	-40.324	0.100
288.300	-38.382	0.100
288.400	-15.372	0.100
288.500	-27.181	0.100
288.600	-33.122	0.100
288.700	-36.792	0.100
288.800	-19.292	0.100
288.900	-38.154	0.100
289.000	-23.831	0.100
289.100	-15.663	0.100
289.200	-30.135	0.100
289.300	-27.235	0.100
289.400	-53.764	0.100
289.500	-33.787	0.100
289.600	-30.497	0.100
289.700	-35.777	0.100
289.800	-50.935	0.100
289.900	-30.707	0.100
290.000	-29.263	0.100
290.100	-27.225	0.100
290.200	-16.376	0.100
290.300	-27.413	0.100
290.400	-42.748	0.100
290.500	-25.056	0.100
290.600	-22.181	0.100
290.700	-27.023	0.100
290.800	-20.245	0.100
290.900	-40.805	0.100
291.000	-35.844	0.100
291.100	-14.791	0.100
291.200	-34.644	0.100
291.300	-32.039	0.100
291.400	-30.596	0.100
291.500	-39.639	0.100
291.600	-38.489	0.100
291.700	-38.647	0.100
291.800	-31.195	0.100
291.900	-39.103	0.100
292.000	-40.104	0.100
292.100	-27.833	0.100
292.200	-35.808	0.100
292.300	-38.292	0.100
292.400	-46.323	0.100
292.500	-25.674	0.100
292.600	-27.908	0.100
292.700	-41.208	0.100
292.800	-24.247	0.100
292.900	-21.397	0.100
293.000	-28.803	0.100
293.100	-31.538	0.100
293.200	-25.826	0.100
293.300	-30.291	0.100
293.400	-29.236	0.100
293.500	-36.212	0.100
293.600	-25.649	0.100
293.700	-35.721	0.100
293.800	-30.307	0.100
293.900	-57.561	0.100
294.000	-27.258	0.100
294.100	-27.336	0.100
294.200	-34.388	0.100
294.300	-11.943	0.100
294.400	-10.924	0.100
294.500	-29.209	0.100
294.600	-24.813	0.100
294.700	-28.668	0.100
294.800	-54.680	0.100
294.900	-10.167	0.100
295.000	-29.585	0.100
295.100	-36.665	0.100
295.200	-29.158	0.100
295.300	-16.521	0.100
295.400	-18.138	0.100
295.500	-24.131	0.100
295.600	-48.802	0.100
295.700	-13.613	0.100
295.800	-20.757	0.100
295.900	-33.477	0.100
296.000	-22.585	0.100
296.100	-29.830	0.100
296.200	-43.612	0.100
296.300	-9.614	0.100
296.400	-24.190	0.100
296.500	-42.159	0.100
296.600	-24.964	0.100
296.700	-12.401	0.100
296.800	-47.913	0.100
296.900	-37.222	0.100
297.000	-46.654	0.100
297.100	-17.869	0.100
297.200	-11.343	0.100
297.300	-36.183	0.100
297.400	-25.751	0.100
297.500	-39.217	0.100
297.600	-34.852	0.100
297.700	-26.176	0.100
297.800	-28.800	0.100
297.900	-36.359	0.100
298.000	-32.138	0.100
298.100	-18.312	0.100
298.200	-30.364	0.100
298.300	-30.073	0.100
298.400	-18.823	0.100
298.500	-40.964	0.100
298.600	-25.124	0.100
298.700	-20.241	0.100
298.800	-18.688	0.100
298.900	-34.812	0.100
299.000	-36.918	0.100
299.100	-20.367	0.100
299.200	-52.312	0.100
299.300	-28.411	0.100
299.400	-29.897	0.100
299.500	-32.250	0.100
299.600	-26.639	0.100
299.700	-43.382	0.100
299.800	-25.427	0.100
299.900	-30.066	0.100
300.000	-31.848	0.100
300.100	-26.728	0.100
300.200	-11.866	0.100
300.300	-25.762	0.100
300.400	-28.565	0.100
300.500	-22.901	0.100
300.600	-37.057	0.100
300.700	-44.467	0.100
300.800	-14.847	0.100
300.900	-52.243	0.100
301.000	-8.138	0.100
301.100	-19.433	0.100
301.200	-40.262	0.100
301.300	-27.250	0.100
301.400	-33.800	0.100
301.500	-28.728	0.100
301.600	-26.780	0.100
301.700	-49.032	0.100
301.800	-26.528	0.100
301.900	-17.966	0.100
302.000	-47.983	0.100
302.100	-33.978	0.100
302.200	-15.443	0.100
302.300	-18.770	0.100
302.400	-32.279	0.100
302.500	-15.273	0.100
302.600	-27.869	0.100
302.700	-38.562	0.100
302.800	-20.380	0.100
302.900	-39.733	0.100
303.000	-41.643	0.100
303.100	-32.164	0.100
303.200	-11.988	0.100
303.300	-22.262	0.100
303.400	-47.008	0.100
303.500	-27.357	0.100
303.600	-28.187	0.100
303.700	-21.426	0.100
303.800	-32.855	0.100
303.900	-24.803	0.100
304.000	-10.004	0.100
304.100	-25.400	0.100
304.200	-16.500	0.100
304.300	-26.816	0.100
304.400	-39.028	0.100
304.500	-12.823	0.100
304.600	-20.263	0.100
304.700	-31.314	0.100
304.800	-39.682	0.100
304.900	-33.826	0.100
305.000	-45.640	0.100
305.100	-29.772	0.100
305.200	-22.818	0.100
305.300	-10.041	0.100
305.400	-36.861	0.100
305.500	-26.923	0.100
305.600	-18.851	0.100
305.700	-29.694	0.100
305.800	-21.884	0.100
305.900	-42.395	0.100
306.000	-31.264	0.100
306.100	-19.099	0.100
306.200	-33.770	0.100
306.300	-50.547	0.100
306.400	-22.132	0.100
306.500	-29.150	0.100
306.600	-17.178	0.100
306.700	-37.560	0.100
306.800	-44.385	0.100
306.900	-24.390	0.100
307.000	-22.495	0.100
307.100	-25.028	0.100
307.200	-22.069	0.100
307.300	-22.474	0.100
307.400	-37.773	0.100
307.500	-37.332	0.100
307.600	-32.858	0.100
307.700	-19.927	0.100
307.800	-23.413	0.100
307.900	-34.181	0.100
308.000	-23.335	0.100
308.100	-20.592	0.100
308.200	-23.983	0.100
308.300	-40.416	0.100
308.400	-23.204	0.100
308.500	-42.108	0.100
308.600	-32.695	0.100
308.700	-31.646	0.100
308.800	-4.423	0.100
308.900	-20.867	0.100
309.000	-20.800	0.100
309.100	-30.697	0.100
309.200	-35.829	0.100
309.300	-35.621	0.100
309.400	-27.658	0.100
309.500	-18.137	0.100
309.600	-28.447	0.100
309.700	-12.718	0.100
309.800	-27.811	0.100
309.900	-27.260	0.100
310.000	-31.472	0.100
310.100	-13.927	0.100
310.200	-25.243	0.100
310.300	-35.709	0.100
310.400	-33.232	0.100
310.500	-37.433	0.100
310.600	-31.377	0.100
310.700	-3.423	0.100
310.800	-8.342	0.100
310.900	-32.190	0.100
311.000	-17.541	0.100
311.100	-41.091	0.100
311.200	-30.245	0.100
311.300	-17.385	0.100
311.400	-40.233	0.100
311.500	-33.702	0.100
311.600	-34.736	0.100
311.700	-28.674	0.100
311.800	-26.741	0.100
311.900	-8.407	0.100
312.000	-25.827	0.100
312.100	-22.812	0.100
312.200	-35.576	0.100
312.300	-25.515	0.100
312.400	-36.079	0.100
312.500	-30.792	0.100
312.600	-8.904	0.100
312.700	-22.433	0.100
312.800	-20.972	0.100
312.900	-25.248	0.100
313.000	-44.736	0.100
313.100	-10.974	0.100
313.200	-26.532	0.100
313.300	-32.155	0.100
313.400	-13.132	0.100
313.500	-37.885	0.100
313.600	-29.939	0.100
313.700	-20.365	0.100
313.800	-40.581	0.100
313.900	-30.385	0.100
314.000	-22.820	0.100
314.100	-22.790	0.100
314.200	-33.470	0.100
314.300	-21.389	0.100
314.400	-38.239	0.100
314.500	-46.649	0.100
314.600	-9.558	0.100
314.700	-8.235	0.100
314.800	-14.414	0.100
314.900	-32.675	0.100
315.000	-49.758	0.100
315.100	-21.243	0.100
315.200	-22.559	0.100
315.300	-30.298	0.100
315.400	-32.704	0.100
315.500	-24.289	0.100
315.600	-22.598	0.100
315.700	-33.752	0.100
315.800	-36.782	0.100
315.900	-14.846	0.100
316.000	-2.115	0.100
316.100	-32.742	0.100
316.200	-32.878	0.100
316.300	-16.051	0.100
316.400	-24.161	0.100
316.500	-27.430	0.100
316.600	-41.307	0.100
316.700	-23.122	0.100
316.800	-26.365	0.100
316.900	-19.153	0.100
317.000	-32.424	0.100
317.100	-21.269	0.100
317.200	-16.385	0.100
317.300	-34.549	0.100
317.400	-34.121	0.100
317.500	-28.750	0.100
317.600	-28.849	0.100
317.700	-27.589	0.100
317.800	-27.627	0.100
317.900	-42.038	0.100
318.000	-39.243	0.100
318.100	-31.966	0.100
318.200	-24.574	0.100
318.300	-17.734	0.100
318.400	-34.656	0.100
318.500	-17.533	0.100
318.600	-32.027	0.100
318.700	-28.013	0.100
318.800	-32.781	0.100
318.900	-13.892	0.100
319.000	-32.136	0.100
319.100	-24.711	0.100
319.200	-32.041	0.100
319.300	-25.363	0.100
319.400	-38.031	0.100
319.500	-24.494	0.100
319.600	-43.102	0.100
319.700	-42.712	0.100
319.800	-24.657	0.100
319.900	-28.131	0.100
320.000	-21.330	0.100
320.100	-17.063	0.100
320.200	-50.170	0.100
320.300	-32.004	0.100
320.400	-16.808	0.100
320.500	-24.525	0.100
320.600	-24.972	0.100
320.700	-24.716	0.100
320.800	-45.480	0.100
320.900	-32.297	0.100
321.000	-18.532	0.100
321.100	-27.528	0.100
321.200	-21.474	0.100
321.300	-31.669	0.100
321.400	-20.063	0.100
321.500	-33.151	0.100
321.600	-7.716	0.100
321.700	-29.506	0.100
321.800	-20.569	0.100
321.900	-17.958	0.100
322.000	-28.207	0.100
322.100	-14.679	0.100
322.200	-17.619	0.100
322.300	-39.674	0.100
322.400	-18.204	0.100
322.500	-20.210	0.100
322.600	-24.825	0.100
322.700	-18.174	0.100
322.800	-23.952	0.100
322.900	-30.819	0.100
323.000	-40.335	0.100
323.100	-22.914	0.100
323.200	-8.377	0.100
323.300	-23.474	0.100
323.400	-32.485	0.100
323.500	-13.137	0.100
323.600	-30.067	0.100
323.700	-55.808	0.100
323.800	-25.585	0.100
323.900	-23.148	0.100
324.000	-27.738	0.100
324.100	-28.035	0.100
324.200	-29.239	0.100
324.300	-34.407	0.100
324.400	-33.971	0.100
324.500	-25.246	0.100
324.600	-17.711	0.100
324.700	-19.763	0.100
324.800	-2.034	0.100
324.900	-33.445	0.100
325.000	-28.899	0.100
325.100	-3.808	0.100
325.200	-39.514	0.100
325.300	-30.825	0.100
325.400	-2.756	0.100
325.500	-27.874	0.100
325.600	-20.783	0.100
325.700	-36.067	0.100
325.800	-32.752	0.100
325.900	-17.152	0.100
326.000	-25.879	0.100
326.100	-34.007	0.100
326.200	-9.679	0.100
326.300	-26.464	0.100
326.400	-20.793	0.100
326.500	-40.548	0.100
326.600	-34.672	0.100
326.700	-7.947	0.100
326.800	-30.900	0.100
326.900	-11.369	0.100
327.000	-25.347	0.100
327.100	-14.574	0.100
327.200	-47.192	0.100
327.300	-45.661	0.100
327.400	-27.126	0.100
327.500	-18.041	0.100
327.600	-24.387	0.100
327.700	-7.986	0.100
327.800	-20.813	0.100
327.900	-20.001	0.100
328.000	-21.782	0.100
328.100	-24.504	0.100
328.200	-43.817	0.100
328.300	-17.297	0.100
328.400	-13.216	0.100
328.500	-35.406	0.100
328.600	-23.267	0.100
328.700	-23.405	0.100
328.800	-16.931	0.100
328.900	-24.920	0.100
329.000	-19.984	0.100
329.100	-9.169	0.100
329.200	-18.947	0.100
329.300	-26.946	0.100
329.400	-16.334	0.100
329.500	-24.257	0.100
329.600	-33.162	0.100
329.700	-16.357	0.100
329.800	-27.703	0.100
329.900	-44.763	0.100
330.000	-31.101	0.100
330.100	-8.266	0.100
330.200	-33.328	0.100
330.300	-25.509	0.100
330.400	-15.719	0.100
330.500	-15.234	0.100
330.600	-32.774	0.100
330.700	-25.071	0.100
330.800	-7.888	0.100
330.900	-39.538	0.100
331.000	12.976	0.100
331.100	-8.963	0.100
331.200	-12.185	0.100
331.300	6.956	0.100
331.400	0.180	0.100
331.500	-1.627	0.100
331.600	3.995	0.100
331.700	-9.853	0.100
331.800	2.881	0.100
331.900	20.282	0.100
332.000	15.863	0.100
332.100	1.769	0.100
332.200	17.219	0.100
332.300	-2.144	0.100
332.400	7.055	0.100
332.500	14.503	0.100
332.600	30.277	0.100
332.700	26.206	0.100
332.800	9.157	0.100
332.900	1.713	0.100
333.000	7.598	0.100
333.100	20.166	0.100
333.200	18.078	0.100
333.300	28.312	0.100
333.400	21.011	0.100
333.500	10.342	0.100
333.600	30.889	0.100
333.700	5.236	0.100
333.800	-11.054	0.100
333.900	8.735	0.100
334.000	19.837	0.100
334.100	16.816	0.100
334.200	15.795	0.100
334.300	-1.994	0.100
334.400	15.651	0.100
334.500	17.451	0.100
334.600	13.987	0.100
334.700	18.686	0.100
334.800	13.864	0.100
334.900	6.393	0.100
335.000	9.947	0.100
335.100	-11.937	0.100
335.200	-3.537	0.100
335.300	24.924	0.100
335.400	18.852	0.100
335.500	-2.169	0.100
335.600	18.822	0.100
335.700	-15.086	0.100
335.800	21.510	0.100
335.900	33.569	0.100
336.000	-13.583	0.100
336.100	21.115	0.100
336.200	29.267	0.100
336.300	9.098	0.100
336.400	11.729	0.100
336.500	29.518	0.100
336.600	10.995	0.100
336.700	4.172	0.100
336.800	36.294	0.100
336.900	14.407	0.100
337.000	24.595	0.100
337.100	39.359	0.100
337.200	-9.558	0.100
337.300	17.210	0.100
337.400	12.128	0.100
337.500	6.152	0.100
337.600	16.928	0.100
337.700	34.701	0.100
337.800	14.253	0.100
337.900	21.945	0.100
338.000	23.249	0.100
338.100	11.529	0.100
338.200	11.059	0.100
338.300	39.753	0.100
338.400	25.973	0.100
338.500	22.197	0.100
338.600	24.960	0.100
338.700	10.021	0.100
338.800	27.484	0.100
338.900	39.046	0.100
339.000	35.625	0.100
339.100	29.626	0.100
339.200	24.033	0.100
339.300	9.422	0.100
339.400	44.306	0.100
339.500	21.130	0.100
339.600	36.801	0.100
339.700	29.181	0.100
339.800	27.062	0.100
339.900	10.855	0.100
340.000	47.297	0.100
340.100	45.662	0.100
340.200	6.668	0.100
340.300	42.807	0.100
340.400	37.056	0.100
340.500	38.341	0.100
340.600	22.260	0.100
340.700	47.345	0.100
340.800	38.535	0.100
340.900	42.629	0.100
341.000	30.269	0.100
341.100	35.448	0.100
341.200	47.105	0.100
341.300	51.518	0.100
341.400	38.196	0.100
341.500	41.836	0.100
341.600	24.950	0.100
341.700	42.711	0.100
341.800	47.446	0.100
341.900	53.047	0.100
342.000	32.939	0.100
342.100	55.850	0.100
342.200	59.831	0.100
342.300	66.275	0.100
342.400	28.589	0.100
342.500	32.750	0.100
342.600	52.900	0.100
342.700	47.131	0.100
342.800	33.185	0.100
342.900	54.252	0.100
343.000	61.374	0.100
343.100	53.702	0.100
343.200	56.715	0.100
343.300	53.754	0.100
343.400	34.288	0.100
343.500	48.590	0.100
343.600	61.492	0.100
343.700	51.912	0.100
343.800	55.883	0.100
343.900	46.949	0.100
344.000	47.126	0.100
344.100	69.344	0.100
344.200	52.076	0.100
344.300	47.534	0.100
344.400	65.838	0.100
344.500	54.037	0.100
344.600	29.688	0.100
344.700	65.083	0.100
344.800	48.431	0.100
344.900	66.020	0.100
345.000	68.511	0.100
345.100	62.350	0.100
345.200	49.390	0.100
345.300	66.169	0.100
345.400	79.579	0.100
345.500	70.766	0.100
345.600	65.769	0.100
345.700	38.596	0.100
345.800	47.040	0.100
345.900	84.859	0.100
346.000	59.931	0.100
346.100	57.385	0.100
346.200	61.986	0.100
346.300	59.294	0.100
346.400	69.538	0.100
346.500	48.879	0.100
346.600	52.513	0.100
346.700	66.184	0.100
346.800	79.885	0.100
346.900	44.040	0.100
347.000	58.392	0.100
347.100	65.332	0.100
347.200	50.308	0.100
347.300	77.906	0.100
347.400	58.688	0.100
347.500	57.821	0.100
347.600	67.161	0.100
347.700	66.924	0.100
347.800	87.529	0.100
347.900	75.949	0.100
348.000	74.110	0.100
348.100	63.463	0.100
348.200	67.665	0.100
348.300	58.732	0.100
348.400	60.765	0.100
348.500	52.884	0.100
348.600	76.590	0.100
348.700	75.402	0.100
348.800	79.227	0.100
348.900	41.707	0.100
349.000	59.219	0.100
349.100	74.452	0.100
349.200	70.365	0.100
349.300	69.783	0.100
349.400	72.546	0.100
349.500	67.189	0.100
349.600	67.823	0.100
349.700	71.499	0.100
349.800	63.721	0.100
349.900	64.799	0.100
350.000	64.886	0.100
350.100	71.939	0.100
350.200	55.948	0.100
350.300	66.017	0.100
350.400	61.253	0.100
350.500	87.085	0.100
350.600	71.046	0.100
350.700	78.749	0.100
350.800	71.549	0.100
350.900	75.758	0.100
351.000	52.693	0.100
351.100	77.709	0.100
351.200	74.149	0.100
351.300	41.173	0.100
351.400	76.748	0.100
351.500	71.189	0.100
351.600	71.461	0.100
351.700	71.073	0.100
351.800	82.824	0.100
351.900	46.049	0.100
352.000	77.939	0.100
352.100	65.600	0.100
352.200	76.238	0.100
352.300	81.944	0.100
352.400	77.322	0.100
352.500	64.435	0.100
352.600	62.609	0.100
352.700	60.162	0.100
352.800	52.795	0.100
352.900	64.187	0.100
353.000	66.708	0.100
353.100	74.400	0.100
353.200	92.145	0.100
353.300	86.748	0.100
353.400	78.566	0.100
353.500	84.044	0.100
353.600	55.206	0.100
353.700	69.577	0.100
353.800	68.305	0.100
353.900	64.125	0.100
354.000	81.131	0.100
354.100	65.518	0.100
354.200	76.383	0.100
354.300	64.145	0.100
354.400	85.049	0.100
354.500	74.073	0.100
354.600	71.089	0.100
354.700	52.786	0.100
354.800	72.076	0.100
354.900	71.233	0.100
355.000	83.083	0.100
355.100	56.865	0.100
355.200	67.666	0.100
355.300	79.945	0.100
355.400	68.618	0.100
355.500	70.838	0.100
355.600	64.651	0.100
355.700	54.760	0.100
355.800	63.864	0.100
355.900	77.819	0.100
356.000	39.341	0.100
356.100	89.721	0.100
356.200	79.504	0.100
356.300	72.417	0.100
356.400	84.337	0.100
356.500	76.865	0.100
356.600	55.976	0.100
356.700	87.458	0.100
356.800	77.911	0.100
356.900	65.305	0.100
357.000	72.406	0.100
357.100	74.026	0.100
357.200	69.394	0.100
357.300	61.409	0.100
357.400	49.749	0.100
357.500	63.477	0.100
357.600	76.514	0.100
357.700	72.425	0.100
357.800	66.960	0.100
357.900	73.498	0.100
358.000	78.056	0.100
358.100	79.202	0.100
358.200	81.412	0.100
358.300	49.274	0.100
358.400	71.228	0.100
358.500	88.341	0.100
358.600	66.831	0.100
358.700	63.099	0.100
358.800	85.302	0.100
358.900	83.176	0.100
359.000	59.614	0.100
359.100	80.761	0.100
359.200	66.657	0.100
359.300	62.726	0.100
359.400	84.513	0.100
359.500	74.500	0.100
359.600	56.996	0.100
359.700	87.298	0.100
359.800	75.379	0.100
359.900	74.063	0.100
360.000	60.194	0.100
360.100	77.142	0.100
360.200	82.356	0.100
360.300	63.965	0.100
360.400	68.013	0.100
360.500	80.099	0.100
360.600	60.037	0.100
360.700	64.568	0.100
360.800	66.687	0.100
360.900	95.318	0.100
361.000	46.184	0.100
361.100	80.853	0.100
361.200	51.503	0.100
361.300	72.198	0.100
361.400	69.256	0.100
361.500	84.654	0.100
361.600	77.876	0.100
361.700	81.493	0.100
361.800	74.185	0.100
361.900	70.244	0.100
362.000	76.670	0.100
362.100	75.073	0.100
362.200	68.628	0.100
362.300	70.178	0.100
362.400	58.498	0.100
362.500	69.414	0.100
362.600	98.589	0.100
362.700	66.003	0.100
362.800	74.017	0.100
362.900	66.027	0.100
363.000	58.487	0.100
363.100	62.679	0.100
363.200	67.603	0.100
363.300	57.874	0.100
363.400	68.099	0.100
363.500	70.994	0.100
363.600	58.635	0.100
363.700	64.604	0.100
363.800	86.064	0.100
363.900	67.487	0.100
364.000	76.407	0.100
364.100	75.951	0.100
364.200	71.031	0.100
364.300	83.235	0.100
364.400	61.192	0.100
364.500	70.112	0.100
364.600	89.035	0.100
364.700	71.071	0.100
364.800	66.120	0.100
364.900	83.135	0.100
365.000	69.305	0.100
365.100	47.304	0.100
365.200	62.145	0.100
365.300	75.862	0.100
365.400	72.885	0.100
365.500	71.297	0.100
365.600	71.953	0.100
365.700	72.258	0.100
365.800	84.404	0.100
365.900	88.772	0.100
366.000	53.339	0.100
366.100	90.483	0.100
366.200	62.732	0.100
366.300	64.741	0.100
366.400	59.645	0.100
366.500	81.942	0.100
366.600	67.248	0.100
366.700	68.912	0.100
366.800	75.839	0.100
366.900	82.232	0.100
367.000	90.994	0.100
367.100	64.820	0.100
367.200	62.282	0.100
367.300	57.013	0.100
367.400	66.567	0.100
367.500	78.196	0.100
367.600	89.094	0.100
367.700	70.462	0.100
367.800	65.638	0.100
367.900	81.511	0.100
368.000	54.092	0.100
368.100	67.102	0.100
368.200	84.174	0.100
368.300	73.450	0.100
368.400	74.519	0.100
368.500	77.813	0.100
368.600	57.079	0.100
368.700	61.476	0.100
368.800	63.037	0.100
368.900	51.095	0.100
369.000	71.367	0.100
369.100	97.263	0.100
369.200	78.783	0.100
369.300	73.518	0.100
369.400	82.097	0.100
369.500	54.353	0.100
369.600	76.111	0.100
369.700	82.301	0.100
369.800	56.732	0.100
369.900	82.650	0.100
370.000	81.570	0.100
370.100	78.142	0.100
370.200	57.150	0.100
370.300	81.501	0.100
370.400	69.322	0.100
370.500	73.318	0.100
370.600	73.814	0.100
370.700	73.289	0.100
370.800	70.110	0.100
370.900	63.548	0.100
371.000	82.081	0.100
371.100	74.622	0.100
371.200	67.748	0.100
371.300	55.040	0.100
371.400	72.875	0.100
371.500	77.974	0.100
371.600	57.196	0.100
371.700	83.620	0.100
371.800	92.472	0.100
371.900	42.412	0.100
372.000	62.885	0.100
372.100	76.552	0.100
372.200	76.891	0.100
372.300	66.999	0.100
372.400	81.904	0.100
372.500	71.484	0.100
372.600	92.517	0.100
372.700	66.590	0.100
372.800	64.477	0.100
372.900	91.640	0.100
373.000	70.414	0.100
373.100	78.003	0.100
373.200	73.115	0.100
373.300	61.462	0.100
373.400	79.864	0.100
373.500	71.724	0.100
373.600	78.218	0.100
373.700	72.157	0.100
373.800	73.327	0.100
373.900	40.584	0.100
374.000	75.993	0.100
374.100	82.733	0.100
374.200	85.173	0.100
374.300	82.543	0.100
374.400	47.742	0.100
374.500	68.912	0.100
374.600	61.130	0.100
374.700	70.068	0.100
374.800	61.493	0.100
374.900	73.229	0.100
375.000	72.515	0.100
375.100	82.557	0.100
375.200	88.380	0.100
375.300	75.004	0.100
375.400	51.866	0.100
375.500	70.936	0.100
375.600	60.826	0.100
375.700	86.027	0.100
375.800	84.836	0.100
375.900	73.092	0.100
376.000	62.613	0.100
376.100	82.983	0.100
376.200	65.498	0.100
376.300	78.001	0.100
376.400	80.149	0.100
376.500	69.105	0.100
376.600	75.751	0.100
376.700	72.484	0.100
376.800	76.354	0.100
376.900	74.831	0.100
377.000	75.162	0.100
377.100	85.689	0.100
377.200	91.891	0.100
377.300	56.891	0.100
377.400	69.978	0.100
377.500	67.453	0.100
377.600	60.398	0.100
377.700	74.344	0.100
377.800	78.439	0.100
377.900	68.447	0.100
378.000	64.257	0.100
378.100	85.286	0.100
378.200	72.517	0.100
378.300	69.789	0.100
378.400	67.859	0.100
378.500	83.695	0.100
378.600	76.082	0.100
378.700	72.245	0.100
378.800	61.383	0.100
378.900	62.472	0.100
379.000	57.282	0.100
379.100	77.275	0.100
379.200	72.590	0.100
379.300	84.518	0.100
379.400	62.355	0.100
379.500	70.679	0.100
379.600	72.016	0.100
379.700	73.485	0.100
379.800	69.112	0.100
379.900	59.122	0.100
380.000	80.241	0.100
380.100	51.508	0.100
380.200	69.807	0.100
380.300	76.894	0.100
380.400	83.425	0.100
380.500	83.605	0.100
380.600	80.584	0.100
380.700	52.947	0.100
380.800	76.289	0.100
380.900	70.067	0.100
381.000	63.970	0.100
381.100	59.255	0.100
381.200	79.688	0.100
381.300	76.132	0.100
381.400	89.381	0.100
381.500	67.611	0.100
381.600	61.473	0.100
381.700	81.444	0.100
381.800	71.161	0.100
381.900	45.514	0.100
382.000	97.016	0.100
382.100	61.800	0.100
382.200	78.341	0.100
382.300	74.882	0.100
382.400	85.403	0.100
382.500	65.951	0.100
382.600	58.364	0.100
382.700	73.766	0.100
382.800	67.861	0.100
382.900	78.759	0.100
383.000	70.699	0.100
383.100	69.891	0.100
383.200	64.651	0.100
383.300	73.063	0.100
383.400	85.882	0.100
383.500	74.906	0.100
383.600	63.041	0.100
383.700	73.258	0.100
383.800	62.595	0.100
383.900	68.880	0.100
384.000	80.996	0.100
384.100	78.018	0.100
384.200	72.952	0.100
384.300	82.019	0.100
384.400	70.861	0.100
384.500	53.075	0.100
384.600	76.165	0.100
384.700	83.088	0.100
384.800	70.194	0.100
384.900	70.549	0.100
385.000	63.703	0.100
385.100	69.161	0.100
385.200	75.950	0.100
385.300	50.862	0.100
385.400	88.881	0.100
385.500	82.242	0.100
385.600	58.290	0.100
385.700	69.244	0.100
385.800	65.119	0.100
385.900	57.676	0.100
386.000	84.323	0.100
386.100	83.448	0.100
386.200	69.458	0.100
386.300	73.207	0.100
386.400	66.460	0.100
386.500	79.013	0.100
386.600	61.257	0.100
386.700	78.987	0.100
386.800	56.688	0.100
386.900	75.655	0.100
387.000	66.159	0.100
387.100	82.071	0.100
387.200	70.275	0.100
387.300	66.150	0.100
387.400	93.604	0.100
387.500	64.890	0.100
387.600	74.023	0.100
387.700	59.100	0.100
387.800	69.043	0.100
387.900	76.108	0.100
388.000	86.603	0.100
388.100	54.933	0.100
388.200	92.541	0.100
388.300	75.471	0.100
388.400	61.222	0.100
388.500	71.044	0.100
388.600	78.263	0.100
388.700	48.204	0.100
388.800	83.518	0.100
388.900	73.435	0.100
389.000	54.666	0.100
389.100	88.662	0.100
389.200	64.164	0.100
389.300	72.047	0.100
389.400	89.687	0.100
389.500	65.119	0.100
389.600	82.258	0.100
389.700	61.233	0.100
389.800	83.026	0.100
389.900	72.927	0.100
390.000	54.653	0.100
390.100	71.782	0.100
390.200	63.242	0.100
390.300	70.063	0.100
390.400	65.917	0.100
390.500	76.881	0.100
390.600	64.365	0.100
390.700	62.626	0.100
390.800	60.161	0.100
390.900	53.045	0.100
391.000	48.647	0.100
391.100	55.687	0.100
391.200	47.540	0.100
391.300	36.374	0.100
391.400	39.876	0.100
391.500	33.306	0.100
391.600	26.704	0.100
391.700	18.633	0.100
391.800	29.422	0.100
391.900	40.281	0.100
392.000	24.978	0.100
392.100	37.332	0.100
392.200	12.497	0.100
392.300	42.161	0.100
392.400	26.105	0.100
392.500	20.791	0.100
392.600	10.027	0.100
392.700	16.450	0.100
392.800	27.444	0.100
392.900	8.015	0.100
393.000	0.512	0.100
393.100	-10.534	0.100
393.200	5.579	0.100
393.300	20.655	0.100
393.400	23.095	0.100
393.500	11.906	0.100
393.600	4.074	0.100
393.700	10.255	0.100
393.800	-9.878	0.100
393.900	8.103	0.100
394.000	8.268	0.100
394.100	5.007	0.100
394.200	15.574	0.100
394.300	13.552	0.100
394.400	8.239	0.100
394.500	10.519	0.100
394.600	4.901	0.100
394.700	3.568	0.100
394.800	13.525	0.100
394.900	-2.390	0.100
395.000	-8.246	0.100
395.100	2.046	0.100
395.200	3.407	0.100
395.300	-1.679	0.100
395.400	-4.725	0.100
395.500	13.003	0.100
395.600	4.772	0.100
395.700	-13.457	0.100
395.800	-12.926	0.100
395.900	13.102	0.100
396.000	16.021	0.100
396.100	-5.431	0.100
396.200	-7.962	0.100
396.300	8.342	0.100
396.400	-4.356	0.100
396.500	-8.595	0.100
396.600	0.027	0.100
396.700	0.633	0.100
396.800	-9.477	0.100
396.900	13.325	0.100
397.000	6.231	0.100
397.100	1.934	0.100
397.200	12.838	0.100
397.300	-12.222	0.100
397.400	-15.625	0.100
397.500	10.331	0.100
397.600	-10.843	0.100
397.700	-0.653	0.100
397.800	2.534	0.100
397.900	-18.994	0.100
398.000	-10.328	0.100
398.100	3.314	0.100
398.200	-2.416	0.100
398.300	2.413	0.100
398.400	0.702	0.100
398.500	-22.288	0.100
398.600	-1.461	0.100
398.700	-5.793	0.100
398.800	3.506	0.100
398.900	-24.377	0.100
399.000	9.189	0.100
399.100	-11.622	0.100
399.200	-5.203	0.100
399.300	-11.989	0.100
399.400	-11.234	0.100
399.500	-17.203	0.100
399.600	-12.515	0.100
399.700	-30.404	0.100
399.800	-14.058	0.100
399.900	-6.219	0.100
400.000	-13.802	0.100
400.100	1.469	0.100
400.200	2.994	0.100
400.300	-23.744	0.100
400.400	-15.630	0.100
400.500	2.148	0.100
400.600	-8.306	0.100
400.700	-3.636	0.100
400.800	-13.554	0.100
400.900	-11.938	0.100
401.000	3.957	0.100
401.100	-25.066	0.100
401.200	-1.637	0.100
401.300	-16.664	0.100
401.400	-12.102	0.100
401.500	-17.924	0.100
401.600	-11.002	0.100
401.700	-18.554	0.100
401.800	-21.466	0.100
401.900	-9.770	0.100
402.000	-8.411	0.100
402.100	-7.679	0.100
402.200	-19.786	0.100
402.300	-26.896	0.100
402.400	-22.134	0.100
402.500	-0.205	0.100
402.600	-19.856	0.100
402.700	-3.961	0.100
402.800	0.263	0.100
402.900	-20.076	0.100
403.000	-25.972	0.100
403.100	-12.671	0.100
403.200	-13.552	0.100
403.300	-12.022	0.100
403.400	1.795	0.100
403.500	-30.155	0.100
403.600	-7.075	0.100
403.700	-21.894	0.100
403.800	-19.096	0.100
403.900	-37.160	0.100
404.000	-11.224	0.100
404.100	-21.762	0.100
404.200	-26.612	0.100
404.300	-21.495	0.100
404.400	-17.485	0.100
404.500	-40.877	0.100
404.600	-18.146	0.100
404.700	-18.314	0.100
404.800	-0.817	0.100
404.900	-21.783	0.100
405.000	-31.749	0.100
405.100	-17.587	0.100
405.200	-26.156	0.100
405.300	-12.471	0.100
405.400	0.219	0.100
405.500	-23.523	0.100
405.600	-26.102	0.100
405.700	-36.967	0.100
405.800	-7.096	0.100
405.900	-20.711	0.100
406.000	-13.730	0.100
406.100	-28.409	0.100
406.200	-28.457	0.100
406.300	-13.567	0.100
406.400	-30.417	0.100
406.500	-14.828	0.100
406.600	-22.880	0.100
406.700	-29.635	0.100
406.800	-21.997	0.100
406.900	-22.218	0.100
407.000	-20.250	0.100
407.100	-23.718	0.100
407.200	-15.286	0.100
407.300	-14.550	0.100
407.400	-33.113	0.100
407.500	-24.803	0.100
407.600	-46.851	0.100
407.700	-24.158	0.100
407.800	-28.951	0.100
407.900	-27.335	0.100
408.000	-16.846	0.100
408.100	-5.836	0.100
408.200	-12.193	0.100
408.300	-18.586	0.100
408.400	-27.712	0.100
408.500	-19.638	0.100
408.600	-20.188	0.100
408.700	-31.331	0.100
408.800	-26.628	0.100
408.900	-18.667	0.100
409.000	-9.981	0.100
409.100	-31.389	0.100
409.200	-22.732	0.100
409.300	-39.382	0.100
409.400	-15.030	0.100
409.500	-39.263	0.100
409.600	-39.225	0.100
409.700	-22.879	0.100
409.800	-31.435	0.100
409.900	-25.525	0.100
410.000	-29.461	0.100
410.100	-15.969	0.100
410.200	-17.023	0.100
410.300	-29.636	0.100
410.400	-28.220	0.100
410.500	-17.670	0.100
410.600	-6.772	0.100
410.700	-30.512	0.100
410.800	-41.967	0.100
410.900	-23.300	0.100
411.000	-29.318	0.100
411.100	-60.616	0.100
411.200	-43.211	0.100
411.300	-23.074	0.100
411.400	-24.058	0.100
411.500	-28.276	0.100
411.600	-22.742	0.100
411.700	-38.277	0.100
411.800	-33.010	0.100
411.900	-7.957	0.100
412.000	-19.224	0.100
412.100	-29.099	0.100
412.200	-28.291	0.100
412.300	-28.491	0.100
412.400	-23.123	0.100
412.500	-44.382	0.100
412.600	-31.151	0.100
412.700	-34.704	0.100
412.800	-20.885	0.100
412.900	-24.886	0.100
413.000	-3.521	0.100
413.100	-35.619	0.100
413.200	-46.004	0.100
413.300	-31.442	0.100
413.400	-15.329	0.100
413.500	-36.783	0.100
413.600	-18.664	0.100
413.700	-46.001	0.100
413.800	-25.402	0.100
413.900	-25.616	0.100
414.000	-33.900	0.100
414.100	-36.992	0.100
414.200	-37.776	0.100
414.300	-37.425	0.100
414.400	-32.626	0.100
414.500	-25.528	0.100
414.600	-42.397	0.100
414.700	-44.414	0.100
414.800	-34.913	0.100
414.900	-27.864	0.100
415.000	-21.095	0.100
415.100	-29.893	0.100
415.200	-39.890	0.100
415.300	-44.562	0.100
415.400	-24.709	0.100
415.500	-39.327	0.100
415.600	-52.389	0.100
415.700	-9.116	0.100
415.800	-38.183	0.100
415.900	-30.012	0.100
416.000	-25.737	0.100
416.100	-35.940	0.100
416.200	-19.228	0.100
416.300	-26.593	0.100
416.400	-27.278	0.100
416.500	-14.042	0.100
416.600	-39.825	0.100
416.700	-52.163	0.100
416.800	-42.580	0.100
416.900	-54.936	0.100
417.000	-39.680	0.100
417.100	-12.573	0.100
417.200	-26.812	0.100
417.300	-40.055	0.100
417.400	-39.401	0.100
417.500	-24.032	0.100
417.600	-26.584	0.100
417.700	-39.676	0.100
417.800	-30.413	0.100
417.900	-41.471	0.100
418.000	-34.584	0.100
418.100	-42.643	0.100
418.200	-27.043	0.100
418.300	-17.494	0.100
418.400	-44.069	0.100
418.500	-42.987	0.100
418.600	-19.218	0.100
418.700	-40.442	0.100
418.800	-41.919	0.100
418.900	-23.278	0.100
419.000	-23.643	0.100
419.100	-28.000	0.100
419.200	-47.495	0.100
419.300	-35.616	0.100
419.400	-27.646	0.100
419.500	-12.642	0.100
419.600	-27.775	0.100
419.700	-49.300	0.100
419.800	-35.208	0.100
419.900	-70.360	0.100
420.000	-38.102	0.100
420.100	-30.856	0.100
420.200	-15.878	0.100
420.300	-28.185	0.100
420.400	-29.992	0.100
420.500	-36.052	0.100
420.600	-24.937	0.100
420.700	-37.494	0.100
420.800	-39.753	0.100
420.900	-27.774	0.100
421.000	-42.304	0.100
421.100	-48.235	0.100
421.200	-12.738	0.100
421.300	-50.991	0.100
421.400	-37.428	0.100
421.500	-12.652	0.100
421.600	-49.252	0.100
421.700	-52.845	0.100
421.800	-34.821	0.100
421.900	-32.466	0.100
422.000	-45.214	0.100
422.100	-35.331	0.100
422.200	-31.622	0.100
422.300	-53.972	0.100
422.400	-25.340	0.100
422.500	-34.042	0.100
422.600	-28.353	0.100
422.700	-21.954	0.100
422.800	-37.052	0.100
422.900	-38.461	0.100
423.000	-44.773	0.100
423.100	-38.800	0.100
423.200	-21.870	0.100
423.300	-25.294	0.100
423.400	-49.483	0.100
423.500	-17.582	0.100
423.600	-23.279	0.100
423.700	-53.844	0.100
423.800	-22.148	0.100
423.900	-17.552	0.100
424.000	-47.023	0.100
424.100	-34.530	0.100
424.200	-34.677	0.100
424.300	-38.566	0.100
424.400	-35.076	0.100
424.500	-37.823	0.100
424.600	-36.093	0.100
424.700	-23.100	0.100
424.800	-29.839	0.100
424.900	-33.726	0.100
425.000	-26.924	0.100
425.100	-35.158	0.100
425.200	-50.095	0.100
425.300	-24.172	0.100
425.400	-42.526	0.100
425.500	-49.416	0.100
425.600	-30.537	0.100
425.700	-47.356	0.100
425.800	-54.473	0.100
425.900	-39.401	0.100
426.000	-31.456	0.100
426.100	-27.192	0.100
426.200	-28.995	0.100
426.300	-42.895	0.100
426.400	-42.117	0.100
426.500	-13.523	0.100
426.600	-41.995	0.100
426.700	-29.352	0.100
426.800	-37.641	0.100
426.900	-41.073	0.100
427.000	-25.305	0.100
427.100	-24.283	0.100
427.200	-53.126	0.100
427.300	-37.750	0.100
427.400	-39.425	0.100
427.500	-35.964	0.100
427.600	-44.338	0.100
427.700	-21.916	0.100
427.800	-43.314	0.100
427.900	-19.282	0.100
428.000	-24.674	0.100
428.100	-40.352	0.100
428.200	-56.479	0.100
428.300	-24.190	0.100
428.400	-36.328	0.100
428.500	-31.672	0.100
428.600	-26.166	0.100
428.700	-32.134	0.100
428.800	-39.136	0.100
428.900	-37.375	0.100
429.000	-53.397	0.100
429.100	-27.164	0.100
429.200	-34.738	0.100
429.300	-52.777	0.100
429.400	-28.011	0.100
429.500	-22.628	0.100
429.600	-51.314	0.100
429.700	-41.592	0.100
429.800	-43.844	0.100
429.900	-47.360	0.100
430.000	-25.265	0.100
430.100	-24.948	0.100
430.200	-41.441	0.100
430.300	-35.781	0.100
430.400	-30.255	0.100
430.500	-43.523	0.100
430.600	-24.360	0.100
430.700	-25.068	0.100
430.800	-32.888	0.100
430.900	-35.162	0.100
431.000	-40.979	0.100
431.100	-34.680	0.100
431.200	-34.427	0.100
431.300	-43.351	0.100
431.400	-18.975	0.100
431.500	-38.089	0.100
431.600	-35.756	0.100
431.700	-15.697	0.100
431.800	-16.505	0.100
431.900	-40.322	0.100
432.000	-43.359	0.100
432.100	-38.546	0.100
432.200	-29.950	0.100
432.300	-50.869	0.100
432.400	-38.317	0.100
432.500	-37.609	0.100
432.600	-23.396	0.100
432.700	-37.201	0.100
432.800	-30.088	0.100
432.900	-32.054	0.100
433.000	-21.526	0.100
433.100	-51.879	0.100
433.200	-30.680	0.100
433.300	-21.927	0.100
433.400	-41.463	0.100
433.500	-31.780	0.100
433.600	-33.127	0.100
433.700	-38.596	0.100
433.800	-24.531	0.100
433.900	-18.733	0.100
434.000	-37.825	0.100
434.100	-32.407	0.100
434.200	-51.979	0.100
434.300	-37.721	0.100
434.400	-26.846	0.100
434.500	-39.621	0.100
434.600	-21.531	0.100
434.700	-38.201	0.100
434.800	-34.135	0.100
434.900	-35.136	0.100
435.000	-35.231	0.100
435.100	-28.891	0.100
435.200	-28.967	0.100
435.300	-45.218	0.100
435.400	-38.692	0.100
435.500	-31.889	0.100
435.600	-34.537	0.100
435.700	-23.142	0.100
435.800	-54.857	0.100
435.900	-18.546	0.100
436.000	-44.236	0.100
436.100	-33.904	0.100
436.200	-24.418	0.100
436.300	-32.635	0.100
436.400	-27.358	0.100
436.500	-32.369	0.100
436.600	-41.697	0.100
436.700	-34.403	0.100
436.800	-31.521	0.100
436.900	-50.255	0.100
437.000	-42.617	0.100
437.100	-23.987	0.100
437.200	-25.481	0.100
437.300	-27.760	0.100
437.400	-23.559	0.100
437.500	-40.492	0.100
437.600	-30.680	0.100
437.700	-35.428	0.100
437.800	-46.927	0.100
437.900	-30.533	0.100
438.000	-30.245	0.100
438.100	-42.329	0.100
438.200	-21.282	0.100
438.300	-31.738	0.100
438.400	-39.751	0.100
438.500	-25.815	0.100
438.600	-39.493	0.100
438.700	-38.778	0.100
438.800	-22.218	0.100
438.900	-39.367	0.100
439.000	-25.810	0.100
439.100	-41.551	0.100
439.200	-54.794	0.100
439.300	-30.502	0.100
439.400	-14.247	0.100
439.500	-35.647	0.100
439.600	-23.798	0.100
439.700	-22.347	0.100
439.800	-33.911	0.100
439.900	-31.381	0.100
440.000	-29.132	0.100
440.100	-48.562	0.100
440.200	-40.004	0.100
440.300	-20.273	0.100
440.400	-47.560	0.100
440.500	-33.035	0.100
440.600	-39.989	0.100
440.700	-43.699	0.100
440.800	-20.290	0.100
440.900	-36.816	0.100
441.000	-30.476	0.100
441.100	-39.533	0.100
441.200	-22.851	0.100
441.300	-39.716	0.100
441.400	-35.107	0.100
441.500	-38.940	0.100
441.600	-38.881	0.100
441.700	-15.153	0.100
441.800	-46.679	0.100
441.900	-26.105	0.100
442.000	-36.287	0.100
442.100	-37.804	0.100
442.200	-35.890	0.100
442.300	-30.897	0.100
442.400	-32.498	0.100
442.500	-45.828	0.100
442.600	-29.210	0.100
442.700	-28.051	0.100
442.800	-42.852	0.100
442.900	-15.174	0.100
443.000	-17.749	0.100
443.100	-33.971	0.100
443.200	-26.880	0.100
443.300	-31.659	0.100
443.400	-36.766	0.100
443.500	-38.962	0.100
443.600	-24.850	0.100
443.700	-30.980	0.100
443.800	-22.487	0.100
443.900	-36.000	0.100
444.000	-46.346	0.100
444.100	-22.861	0.100
444.200	-30.081	0.100
444.300	-24.071	0.100
444.400	-27.775	0.100
444.500	-22.862	0.100
444.600	-26.589	0.100
444.700	-27.006	0.100
444.800	-26.350	0.100
444.900	-33.263	0.100
445.000	-43.159	0.100
445.100	-35.049	0.100
445.200	-28.170	0.100
445.300	-32.637	0.100
445.400	-22.566	0.100
445.500	-4.826	0.100
445.600	-23.992	0.100
445.700	-68.627	0.100
445.800	-26.881	0.100
445.900	-13.433	0.100
446.000	-42.427	0.100
446.100	-29.928	0.100
446.200	-20.838	0.100
446.300	-49.164	0.100
446.400	-41.121	0.100
446.500	-44.979	0.100
446.600	-47.424	0.100
446.700	-35.867	0.100
446.800	-19.481	0.100
446.900	-17.397	0.100
447.000	-19.016	0.100
447.100	-47.834	0.100
447.200	-39.515	0.100
447.300	-30.979	0.100
447.400	-39.881	0.100
447.500	-17.774	0.100
447.600	-42.212	0.100
447.700	-40.670	0.100
447.800	-24.509	0.100
447.900	-17.626	0.100
448.000	-50.935	0.100
448.100	-37.837	0.100
448.200	-29.744	0.100
448.300	-17.969	0.100
448.400	-34.526	0.100
448.500	-31.490	0.100
448.600	-37.950	0.100
448.700	-44.706	0.100
448.800	-28.610	0.100
448.900	-52.902	0.100
449.000	-43.702	0.100
449.100	-32.908	0.100
449.200	-40.710	0.100
449.300	-16.937	0.100
449.400	-32.749	0.100
449.500	-17.839	0.100
449.600	-42.225	0.100
449.700	-26.033	0.100
449.800	-30.321	0.100
449.900	-27.360	0.100
450.000	-26.201	0.100
450.100	-51.849	0.100
450.200	-41.243	0.100
450.300	-20.524	0.100
450.400	-28.380	0.100
450.500	-35.903	0.100
450.600	-26.843	0.100
450.700	-41.418	0.100
450.800	-35.013	0.100
450.900	-46.617	0.100
451.000	-38.922	0.100
451.100	-7.844	0.100
451.200	-32.809	0.100
451.300	-36.219	0.100
451.400	-37.668	0.100
451.500	-38.986	0.100
451.600	-43.833	0.100
451.700	-11.799	0.100
451.800	-15.746	0.100
451.900	-34.080	0.100
452.000	-22.690	0.100
452.100	-20.334	0.100
452.200	-45.426	0.100
452.300	-18.550	0.100
452.400	-35.767	0.100
452.500	-33.556	0.100
452.600	-38.655	0.100
452.700	-39.420	0.100
452.800	-23.370	0.100
452.900	-36.417	0.100
453.000	-34.652	0.100
453.100	-26.913	0.100
453.200	-29.215	0.100
453.300	-41.836	0.100
453.400	-33.708	0.100
453.500	-22.199	0.100
453.600	-43.858	0.100
453.700	-10.455	0.100
453.800	-24.756	0.100
453.900	-44.152	0.100
454.000	-26.472	0.100
454.100	-36.839	0.100
454.200	-36.461	0.100
454.300	-3.170	0.100
454.400	-18.414	0.100
454.500	-28.584	0.100
454.600	-32.356	0.100
454.700	-17.636	0.100
454.800	-41.860	0.100
454.900	-30.275	0.100
455.000	-33.364	0.100
455.100	-22.471	0.100
455.200	-23.526	0.100
455.300	-12.021	0.100
455.400	-31.077	0.100
455.500	-31.628	0.100
455.600	-12.028	0.100
455.700	-37.646	0.100
455.800	-26.612	0.100
455.900	-37.666	0.100
456.000	-43.034	0.100
456.100	-29.983	0.100
456.200	-33.229	0.100
456.300	-40.616	0.100
456.400	-29.498	0.100
456.500	-34.448	0.100
456.600	-33.328	0.100
456.700	-31.191	0.100
456.800	-36.371	0.100
456.900	-31.899	0.100
457.000	-26.904	0.100
457.100	-30.139	0.100
457.200	-25.514	0.100
457.300	-36.298	0.100
457.400	-33.341	0.100
457.500	-40.237	0.100
457.600	-38.903	0.100
457.700	-21.779	0.100
457.800	-23.639	0.100
457.900	-47.511	0.100
458.000	-44.067	0.100
458.100	-4.360	0.100
458.200	-20.079	0.100
458.300	-17.802	0.100
458.400	-14.623	0.100
458.500	-23.871	0.100
458.600	-15.696	0.100
458.700	-44.896	0.100
458.800	-23.735	0.100
458.900	-34.118	0.100
459.000	-25.441	0.100
459.100	-43.424	0.100
459.200	-37.126	0.100
459.300	-17.784	0.100
459.400	-24.215	0.100
459.500	-25.117	0.100
459.600	-21.814	0.100
459.700	-30.073	0.100
459.800	-28.316	0.100
459.900	-24.159	0.100
460.000	-35.405	0.100
460.100	-34.038	0.100
460.200	-16.050	0.100
460.300	-39.602	0.100
460.400	-46.877	0.100
460.500	-18.624	0.100
460.600	-39.830	0.100
460.700	-31.475	0.100
460.800	-8.527	0.100
460.900	-19.806	0.100
461.000	-28.236	0.100
461.100	-22.724	0.100
461.200	-25.644	0.100
461.300	-18.887	0.100
461.400	-18.973	0.100
461.500	-28.148	0.100
461.600	-38.778	0.100
461.700	-13.516	0.100
461.800	-37.208	0.100
461.900	-43.976	0.100
462.000	-36.187	0.100
462.100	-38.378	0.100
462.200	-27.927	0.100
462.300	-9.164	0.100
462.400	-44.153	0.100
462.500	-36.723	0.100
462.600	-12.729	0.100
462.700	-33.162	0.100
462.800	-30.810	0.100
462.900	-25.157	0.100
463.000	-33.041	0.100
463.100	-25.584	0.100
463.200	-42.254	0.100
463.300	-31.532	0.100
463.400	-19.535	0.100
463.500	-22.439	0.100
463.600	-34.051	0.100
463.700	-12.395	0.100
463.800	-27.583	0.100
463.900	-26.696	0.100
464.000	-28.769	0.100
464.100	-34.314	0.100
464.200	-30.958	0.100
464.300	-34.385	0.100
464.400	-22.962	0.100
464.500	-35.435	0.100
464.600	-12.694	0.100
464.700	-27.009	0.100
464.800	-37.625	0.100
464.900	-30.443	0.100
465.000	-24.329	0.100
465.100	-35.775	0.100
465.200	-6.836	0.100
465.300	-37.708	0.100
465.400	-19.480	0.100
465.500	-1.387	0.100
465.600	-44.089	0.100
465.700	-38.218	0.100
465.800	-35.664	0.100
465.900	-14.868	0.100
466.000	-40.285	0.100
466.100	-8.673	0.100
466.200	-35.048	0.100
466.300	-20.969	0.100
466.400	-45.772	0.100
466.500	-36.068	0.100
466.600	-16.762	0.100
466.700	-35.385	0.100
466.800	-32.772	0.100
466.900	-23.176	0.100
467.000	-28.060	0.100
467.100	-37.821	0.100
467.200	-30.023	0.100
467.300	-31.507	0.100
467.400	-31.796	0.100
467.500	-17.140	0.100
467.600	-41.798	0.100
467.700	-13.687	0.100
467.800	-10.386	0.100
467.900	-37.849	0.100
468.000	-18.643	0.100
468.100	-25.485	0.100
468.200	-62.288	0.100
468.300	-17.801	0.100
468.400	-36.332	0.100
468.500	-42.024	0.100
468.600	-32.453	0.100
468.700	-9.416	0.100
468.800	-29.572	0.100
468.900	-22.948	0.100
469.000	-24.004	0.100
469.100	-35.159	0.100
469.200	-47.815	0.100
469.300	-29.455	0.100
469.400	-41.548	0.100
469.500	-35.217	0.100
469.600	0.248	0.100
469.700	-48.369	0.100
469.800	-15.386	0.100
469.900	-32.145	0.100
470.000	-27.786	0.100
470.100	-58.530	0.100
470.200	-23.685	0.100
470.300	-22.124	0.100
470.400	-23.043	0.100
470.500	-33.576	0.099
470.600	-43.450	0.100
470.700	-13.949	0.100
470.800	-17.376	0.100
470.900	-27.359	0.100
471.000	-19.944	0.100
471.100	-16.814	0.100
471.200	-19.546	0.100
471.300	-31.207	0.100
471.400	-17.161	0.100
471.500	-37.523	0.100
471.600	-28.616	0.100
471.700	-25.005	0.100
471.800	-35.469	0.100
471.900	-27.430	0.100
472.000	-29.136	0.100
472.100	-29.936	0.100
472.200	-34.922	0.100
472.300	-23.481	0.100
472.400	-26.273	0.100
472.500	-43.875	0.100
472.600	-35.004	0.100
472.700	-46.625	0.100
472.800	-23.022	0.100
472.900	-14.485	0.100
473.000	-28.003	0.100
473.100	-37.650	0.100
473.200	-23.316	0.100
473.300	-21.482	0.100
473.400	-37.891	0.100
473.500	-42.828	0.100
473.600	-4.666	0.100
473.700	-14.248	0.100
473.800	-31.260	0.100
473.900	-36.717	0.100
474.000	-33.925	0.099
474.100	-36.785	0.100
474.200	-37.790	0.099
474.300	-15.132	0.100
474.400	-26.109	0.100
474.500	-26.960	0.100
474.600	-14.718	0.100
474.700	-42.743	0.099
474.800	-31.058	0.100
474.900	-19.212	0.099
475.000	-42.644	0.100
475.100	-18.513	0.100
475.200	-47.118	0.099
475.300	-33.591	0.100
475.400	-14.244	0.100
475.500	-28.567	0.100
475.600	-33.978	0.100
475.700	-28.505	0.100
475.800	-25.913	0.100
475.900	-33.199	0.100
476.000	1.851	0.100
476.100	-17.830	0.100
476.200	-19.388	0.100
476.300	-21.789	0.100
476.400	-21.710	0.100
476.500	-25.586	0.100
476.600	-24.630	0.100
476.700	-8.053	0.100
476.800	-31.727	0.099
476.900	-18.390	0.099
477.000	-21.627	0.100
477.100	-36.174	0.099
477.200	-34.555	0.100
477.300	-31.212	0.099
477.400	-24.299	0.099
477.500	-34.379	0.100
477.600	-28.527	0.100
477.700	-8.006	0.100
477.800	-25.074	0.099
477.900	-35.252	0.099
478.000	-23.747	0.100
478.100	-13.600	0.099
478.200	-47.753	0.100
478.300	-27.088	0.100
478.400	-10.912	0.100
478.500	-52.479	0.099
478.600	-16.087	0.099
478.700	-14.090	0.099
478.800	-53.727	0.099
478.900	-15.549	0.099
479.000	-16.800	0.100
479.100	-32.944	0.100
479.200	1.119	0.100
479.300	-10.084	0.100
479.400	-35.877	0.100
479.500	-22.944	0.100
479.600	-26.852	0.099
479.700	-19.238	0.099
479.800	-37.816	0.099
479.900	-20.786	0.099
480.000	-24.558	0.099
480.100	-25.917	0.099
480.200	-18.636	0.099
480.300	-25.601	0.099
480.400	-28.661	0.099
480.500	-35.959	0.099
480.600	-36.352	0.099
480.700	-25.555	0.099
480.800	-24.481	0.099
480.900	-10.529	0.099
481.000	10.519	0.099
481.100	-14.749	0.099
481.200	-13.714	0.099
481.300	-4.689	0.099
481.400	10.327	0.099
481.500	3.558	0.099
481.600	-1.911	0.099
481.700	-2.637	0.099
481.800	-8.687	0.099
481.900	27.059	0.099
482.000	11.308	0.099
482.100	14.401	0.099
482.200	8.988	0.099
482.300	14.274	0.099
482.400	12.812	0.099
482.500	15.956	0.099
482.600	12.022	0.099
482.700	4.124	0.099
482.800	26.659	0.099
482.900	36.874	0.099
483.000	17.129	0.099
483.100	12.031	0.099
483.200	16.413	0.099
483.300	0.256	0.099
483.400	18.642	0.099
483.500	-1.570	0.099
483.600	4.042	0.099
483.700	19.539	0.099
483.800	9.461	0.099
483.900	1.139	0.099
484.000	6.122	0.099
484.100	14.755	0.099
484.200	4.381	0.099
484.300	32.943	0.099
484.400	11.749	0.099
484.500	15.463	0.099
484.600	6.024	0.099
484.700	-7.454	0.099
484.800	30.874	0.099
484.900	15.865	0.099
485.000	9.552	0.099
485.100	6.384	0.099
485.200	5.490	0.099
485.300	18.066	0.099
485.400	11.471	0.099
485.500	23.279	0.099
485.600	11.595	0.099
485.700	19.329	0.099
485.800	-3.365	0.099
485.900	6.362	0.099
486.000	5.969	0.099
486.100	20.864	0.099
486.200	4.109	0.099
486.300	18.595	0.099
486.400	12.379	0.099
486.500	-10.940	0.099
486.600	10.618	0.099
486.700	9.184	0.099
486.800	21.996	0.099
486.900	31.854	0.099
487.000	10.860	0.099
487.100	-0.093	0.099
487.200	15.600	0.099
487.300	27.043	0.099
487.400	18.419	0.099
487.500	22.376	0.099
487.600	25.636	0.099
487.700	22.611	0.099
487.800	11.858	0.099
487.900	27.511	0.099
488.000	19.025	0.099
488.100	23.964	0.099
488.200	13.961	0.099
488.300	9.731	0.099
488.400	10.404	0.099
488.500	30.723	0.099
488.600	29.665	0.099
488.700	9.565	0.099
488.800	12.869	0.099
488.900	34.393	0.099
489.000	35.680	0.099
489.100	18.522	0.099
489.200	29.810	0.099
489.300	15.608	0.099
489.400	8.617	0.099
489.500	36.723	0.099
489.600	16.427	0.099
489.700	24.009	0.099
489.800	30.620	0.099
489.900	31.988	0.099
490.000	28.576	0.099
490.100	43.538	0.099
490.200	41.715	0.099
490.300	30.830	0.099
490.400	27.242	0.099
490.500	32.100	0.099
490.600	28.717	0.099
490.700	36.053	0.099
490.800	32.992	0.099
490.900	24.892	0.099
491.000	42.124	0.099
491.100	38.759	0.099
491.200	39.002	0.099
491.300	24.721	0.099
491.400	21.077	0.099
491.500	42.162	0.099
491.600	56.560	0.099
491.700	39.030	0.099
491.800	59.658	0.099
491.900	42.061	0.099
492.000	30.730	0.099
492.100	40.070	0.099
492.200	48.166	0.099
492.300	48.684	0.099
492.400	20.557	0.099
492.500	57.873	0.099
492.600	28.323	0.099
492.700	49.719	0.099
492.800	69.042	0.099
492.900	53.142	0.099
493.000	48.432	0.099
493.100	43.821	0.099
493.200	40.786	0.099
493.300	69.224	0.099
493.400	53.185	0.099
493.500	36.061	0.099
493.600	61.866	0.099
493.700	41.143	0.099
493.800	56.929	0.099
493.900	56.418	0.099
494.000	47.330	0.099
494.100	59.700	0.099
494.200	54.095	0.099
494.300	62.856	0.099
494.400	55.718	0.099
494.500	67.478	0.099
494.600	56.064	0.099
494.700	35.466	0.099
494.800	46.417	0.099
494.900	58.517	0.099
495.000	60.687	0.099
495.100	56.910	0.099
495.200	87.227	0.099
495.300	51.343	0.099
495.400	80.855	0.099
495.500	51.879	0.099
495.600	64.285	0.099
495.700	61.325	0.099
495.800	72.878	0.099
495.900	82.867	0.099
496.000	67.180	0.099
496.100	63.420	0.099
496.200	45.009	0.099
496.300	60.499	0.099
496.400	51.607	0.099
496.500	68.539	0.099
496.600	61.599	0.099
496.700	68.041	0.099
496.800	47.202	0.099
496.900	81.276	0.099
497.000	73.479	0.099
497.100	81.960	0.099
497.200	71.662	0.099
497.300	61.527	0.099
497.400	64.490	0.099
497.500	59.742	0.099
497.600	83.836	0.099
497.700	73.570	0.099
497.800	65.182	0.099
497.900	54.415	0.099
498.000	63.165	0.099
498.100	56.335	0.099
498.200	58.879	0.099
498.300	67.167	0.099
498.400	88.198	0.099
498.500	72.320	0.099
498.600	84.917	0.099
498.700	64.907	0.099
498.800	54.791	0.099
498.900	70.589	0.099
499.000	67.416	0.099
499.100	63.866	0.099
499.200	74.939	0.099
499.300	77.028	0.099
499.400	54.067	0.099
499.500	82.553	0.099
499.600	81.205	0.099
499.700	68.656	0.099
499.800	80.640	0.099
499.900	54.951	0.099
500.000	70.106	0.099
500.100	73.114	0.099
500.200	49.694	0.099
500.300	59.522	0.099
500.400	81.002	0.099
500.500	74.726	0.099
500.600	80.240	0.099
500.700	66.713	0.099
500.800	53.581	0.099
500.900	65.174	0.099
501.000	73.676	0.099
501.100	81.634	0.099
501.200	67.589	0.099
501.300	88.414	0.099
501.400	69.280	0.099
501.500	73.300	0.099
501.600	78.490	0.099
501.700	71.425	0.099
501.800	78.840	0.099
501.900	72.210	0.099
502.000	62.376	0.099
502.100	67.498	0.099
502.200	77.006	0.099
502.300	82.835	0.099
502.400	80.478	0.099
502.500	67.469	0.099
502.600	65.104	0.099
502.700	66.943	0.099
502.800	69.582	0.099
502.900	74.968	0.099
503.000	96.144	0.099
503.100	49.568	0.099
503.200	65.684	0.099
503.300	76.989	0.099
503.400	79.576	0.099
503.500	66.711	0.099
503.600	81.702	0.099
503.700	85.538	0.099
503.800	57.428	0.099
503.900	78.692	0.099
504.000	63.195	0.099
504.100	68.660	0.099
504.200	74.923	0.099
504.300	72.592	0.099
504.400	77.920	0.099
504.500	67.302	0.099
504.600	85.358	0.099
504.700	60.309	0.099
504.800	86.480	0.099
504.900	80.255	0.099
505.000	52.727	0.099
505.100	72.145	0.099
505.200	49.641	0.099
505.300	89.359	0.099
505.400	60.739	0.099
505.500	45.858	0.099
505.600	74.825	0.099
505.700	76.324	0.099
505.800	55.054	0.099
505.900	71.859	0.099
506.000	92.016	0.099
506.100	71.659	0.099
506.200	65.216	0.099
506.300	81.065	0.099
506.400	71.449	0.099
506.500	74.644	0.099
506.600	77.891	0.099
506.700	69.659	0.099
506.800	62.971	0.099
506.900	73.633	0.099
507.000	66.975	0.099
507.100	97.102	0.099
507.200	73.656	0.099
507.300	77.051	0.099
507.400	88.574	0.099
507.500	63.816	0.099
507.600	62.955	0.099
507.700	83.290	0.099
507.800	47.673	0.099
507.900	71.707	0.099
508.000	62.986	0.099
508.100	94.406	0.099
508.200	86.725	0.099
508.300	67.353	0.099
508.400	80.456	0.099
508.500	75.487	0.099
508.600	84.474	0.099
508.700	56.155	0.099
508.800	63.300	0.099
508.900	53.192	0.099
509.000	60.579	0.099
509.100	89.356	0.099
509.200	79.726	0.099
509.300	71.469	0.099
509.400	75.414	0.099
509.500	74.059	0.099
509.600	73.065	0.099
509.700	70.362	0.099
509.800	62.086	0.099
509.900	65.365	0.099
510.000	56.421	0.099
510.100	78.280	0.099
510.200	103.465	0.099
510.300	80.751	0.099
510.400	60.918	0.099
510.500	74.623	0.099
510.600	71.322	0.099
510.700	83.674	0.099
510.800	60.499	0.099
510.900	78.809	0.099
511.000	68.815	0.099
511.100	63.591	0.099
511.200	77.316	0.099
511.300	76.902	0.099
511.400	66.918	0.099
511.500	76.091	0.099
511.600	78.075	0.099
511.700	65.086	0.099
511.800	77.345	0.099
511.900	60.474	0.099
512.000	86.317	0.099
512.100	67.369	0.099
512.200	71.057	0.099
512.300	65.635	0.099
512.400	87.683	0.099
512.500	62.663	0.099
512.600	79.717	0.099
512.700	75.940	0.099
512.800	66.939	0.099
512.900	74.228	0.099
513.000	70.755	0.099
513.100	76.388	0.099
513.200	78.893	0.099
513.300	79.771	0.099
513.400	66.821	0.099
513.500	72.926	0.099
513.600	72.397	0.099
513.700	72.375	0.099
513.800	83.487	0.099
513.900	60.548	0.099
514.000	85.561	0.099
514.100	69.554	0.099
514.200	68.835	0.099
514.300	77.841	0.099
514.400	68.235	0.099
514.500	67.603	0.099
514.600	78.156	0.099
514.700	82.798	0.099
514.800	66.055	0.099
514.900	60.207	0.099
515.000	91.912	0.099
515.100	83.801	0.099
515.200	72.204	0.099
515.300	74.985	0.099
515.400	77.298	0.099
515.500	74.890	0.099
515.600	75.971	0.099
515.700	83.304	0.099
515.800	71.467	0.099
515.900	74.174	0.099
516.000	75.620	0.099
516.100	67.920	0.099
516.200	60.290	0.099
516.300	80.249	0.099
516.400	80.138	0.099
516.500	83.300	0.099
516.600	83.985	0.099
516.700	60.596	0.099
516.800	67.524	0.099
516.900	89.621	0.099
517.000	80.499	0.099
517.100	58.765	0.099
517.200	54.487	0.099
517.300	67.047	0.099
517.400	79.570	0.099
517.500	59.333	0.099
517.600	58.025	0.099
517.700	76.393	0.099
517.800	75.912	0.099
517.900	83.842	0.099
518.000	69.941	0.099
518.100	60.447	0.099
518.200	85.573	0.099
518.300	88.547	0.099
518.400	61.496	0.099
518.500	74.032	0.099
518.600	83.991	0.099
518.700	74.765	0.099
518.800	83.888	0.099
518.900	84.778	0.099
519.000	55.527	0.099
519.100	70.514	0.099
519.200	57.072	0.099
519.300	93.475	0.099
519.400	71.637	0.099
519.500	75.315	0.099
519.600	78.600	0.099
519.700	81.433	0.099
519.800	68.475	0.099
519.900	61.209	0.099
520.000	80.745	0.099
520.100	78.528	0.099
520.200	62.023	0.099
520.300	78.007	0.099
520.400	82.498	0.099
520.500	69.790	0.099
520.600	66.645	0.099
520.700	77.459	0.099
520.800	78.484	0.099
520.900	73.237	0.099
521.000	62.170	0.099
521.100	92.912	0.099
521.200	69.971	0.099
521.300	85.511	0.099
521.400	86.234	0.099
521.500	49.289	0.099
521.600	57.469	0.099
521.700	85.138	0.099
521.800	76.968	0.099
521.900	70.990	0.099
522.000	67.485	0.099
522.100	83.106	0.099
522.200	80.392	0.099
522.300	68.817	0.099
522.400	70.683	0.099
522.500	76.277	0.099
522.600	81.519	0.099
522.700	66.637	0.099
522.800	74.700	0.099
522.900	83.931	0.099
523.000	68.765	0.099
523.100	55.702	0.099
523.200	90.878	0.099
523.300	70.804	0.099
523.400	59.897	0.099
523.500	112.449	0.099
523.600	68.121	0.099
523.700	65.899	0.099
523.800	74.828	0.099
523.900	70.674	0.099
524.000	58.584	0.099
524.100	59.834	0.099
524.200	67.547	0.099
524.300	78.620	0.099
524.400	71.063	0.099
524.500	71.950	0.099
524.600	53.064	0.099
524.700	79.791	0.099
524.800	70.843	0.099
524.900	89.314	0.099
525.000	72.842	0.099
525.100	82.136	0.099
525.200	91.533	0.099
525.300	61.619	0.099
525.400	78.023	0.099
525.500	64.740	0.099
525.600	55.186	0.099
525.700	63.868	0.099
525.800	75.001	0.099
525.900	83.566	0.099
526.000	74.633	0.099
526.100	80.755	0.099
526.200	75.055	0.099
526.300	65.976	0.099
526.400	74.639	0.099
526.500	90.420	0.099
526.600	63.038	0.099
526.700	89.783	0.099
526.800	91.210	0.099
526.900	40.255	0.099
527.000	74.673	0.099
527.100	79.569	0.099
527.200	63.943	0.099
527.300	44.119	0.099
527.400	67.921	0.099
527.500	67.647	0.099
527.600	96.358	0.099
527.700	89.637	0.099
527.800	69.614	0.099
527.900	69.008	0.099
528.000	74.631	0.099
528.100	67.799	0.099
528.200	56.182	0.099
528.300	74.517	0.099
528.400	79.595	0.099
528.500	95.735	0.099
528.600	57.074	0.099
528.700	57.408	0.099
528.800	82.433	0.099
528.900	66.506	0.099
529.000	72.117	0.099
529.100	83.330	0.099
529.200	66.659	0.099
529.300	79.980	0.099
529.400	77.904	0.099
529.500	64.601	0.099
529.600	73.766	0.099
529.700	69.361	0.099
529.800	68.947	0.099
529.900	75.203	0.099
530.000	74.928	0.099
530.100	69.126	0.099
530.200	71.855	0.099
530.300	65.165	0.099
530.400	73.841	0.099
530.500	78.433	0.099
530.600	61.834	0.099
530.700	63.968	0.099
530.800	60.057	0.099
530.900	77.781	0.099
531.000	65.470	0.099
531.100	71.764	0.099
531.200	63.385	0.099
531.300	69.551	0.099
531.400	85.247	0.099
531.500	74.560	0.099
531.600	66.517	0.099
531.700	39.179	0.099
531.800	61.352	0.099
531.900	74.036	0.099
532.000	74.272	0.099
532.100	89.127	0.099
532.200	63.097	0.099
532.300	62.969	0.099
532.400	79.488	0.099
532.500	78.138	0.099
532.600	66.359	0.099
532.700	68.706	0.099
532.800	63.956	0.099
532.900	74.959	0.099
533.000	70.505	0.099
533.100	63.252	0.099
533.200	82.194	0.099
533.300	72.228	0.099
533.400	80.176	0.099
533.500	69.132	0.099
533.600	64.801	0.099
533.700	78.180	0.099
533.800	69.856	0.099
533.900	69.602	0.099
534.000	65.221	0.099
534.100	85.483	0.099
534.200	61.404	0.099
534.300	61.603	0.099
534.400	71.355	0.099
534.500	70.428	0.099
534.600	87.684	0.099
534.700	86.489	0.099
534.800	75.725	0.099
534.900	65.103	0.099
535.000	65.009	0.099
535.100	70.969	0.099
535.200	65.623	0.099
535.300	76.934	0.099
535.400	72.639	0.099
535.500	55.809	0.099
535.600	71.960	0.100
535.700	67.890	0.100
535.800	74.937	0.100
535.900	86.922	0.100
536.000	71.893	0.100
536.100	73.425	0.100
536.200	67.497	0.100
536.300	66.080	0.100
536.400	79.720	0.100
536.500	75.341	0.100
536.600	73.112	0.100
536.700	67.433	0.100
536.800	78.958	0.100
536.900	75.879	0.100
537.000	78.389	0.100
537.100	82.795	0.100
537.200	78.810	0.100
537.300	74.307	0.100
537.400	70.313	0.100
537.500	64.898	0.100
537.600	83.040	0.100
537.700	76.516	0.100
537.800	61.335	0.100
537.900	74.172	0.100
538.000	93.305	0.100
538.100	64.582	0.100
538.200	52.958	0.100
538.300	78.470	0.100
538.400	79.485	0.100
538.500	77.696	0.100
538.600	68.397	0.100
538.700	76.190	0.100
538.800	83.758	0.100
538.900	74.281	0.100
539.000	67.995	0.100
539.100	47.328	0.100
539.200	83.976	0.100
539.300	72.881	0.100
539.400	81.243	0.100
539.500	67.099	0.100
539.600	71.727	0.100
539.700	68.190	0.100
539.800	51.280	0.100
539.900	78.060	0.100
540.000	80.869	0.100
540.100	58.317	0.100
540.200	61.031	0.100
540.300	80.163	0.100
540.400	68.799	0.100
540.500	70.985	0.100
540.600	55.103	0.100
540.700	52.389	0.100
540.800	67.620	0.100
540.900	49.261	0.100
541.000	58.383	0.100
541.100	68.929	0.100
541.200	47.582	0.100
541.300	13.828	0.100
541.400	48.874	0.100
541.500	25.348	0.100
541.600	22.590	0.100
541.700	34.984	0.100
541.800	20.055	0.100
541.900	-0.346	0.100
542.000	39.439	0.100
542.100	14.232	0.100
542.200	4.569	0.100
542.300	19.555	0.100
542.400	18.801	0.100
542.500	6.806	0.100
542.600	21.928	0.100
542.700	8.107	0.100
542.800	26.760	0.100
542.900	0.936	0.100
543.000	-0.763	0.100
543.100	5.573	0.100
543.200	11.319	0.100
543.300	-7.398	0.100
543.400	-0.991	0.100
543.500	12.704	0.100
543.600	10.727	0.100
543.700	22.362	0.100
543.800	10.055	0.100
543.900	-8.320	0.100
544.000	22.449	0.100
544.100	2.760	0.100
544.200	-13.651	0.100
544.300	-2.174	0.100
544.400	0.823	0.100
544.500	1.248	0.100
544.600	9.989	0.100
544.700	-14.069	0.100
544.800	1.558	0.100
544.900	0.062	0.100
545.000	4.662	0.100
545.100	-2.312	0.100
545.200	10.675	0.100
545.300	-9.674	0.100
545.400	-7.003	0.100
545.500	3.992	0.100
545.600	-9.484	0.100
545.700	-17.597	0.100
545.800	6.875	0.100
545.900	-2.764	0.100
546.000	-3.472	0.100
546.100	10.874	0.100
546.200	-16.841	0.100
546.300	20.341	0.100
546.400	-1.303	0.100
546.500	6.400	0.100
546.600	-2.271	0.100
546.700	7.769	0.100
546.800	-8.998	0.100
546.900	-10.404	0.100
547.000	0.480	0.100
547.100	-11.498	0.100
547.200	-12.169	0.100
547.300	-16.818	0.100
547.400	-11.759	0.100
547.500	6.120	0.100
547.600	-11.884	0.100
547.700	0.265	0.100
547.800	-5.571	0.100
547.900	-2.406	0.100
548.000	-22.302	0.100
548.100	-0.926	0.100
548.200	-12.679	0.100
548.300	-22.962	0.100
548.400	1.669	0.100
548.500	1.732	0.100
548.600	-3.572	0.100
548.700	-8.836	0.100
548.800	-10.392	0.100
548.900	-25.596	0.100
549.000	-11.983	0.100
549.100	11.928	0.100
549.200	-21.647	0.100
549.300	-22.037	0.100
549.400	-14.274	0.100
549.500	-14.920	0.100
549.600	0.082	0.100
549.700	0.545	0.100
549.800	-35.529	0.100
549.900	4.687	0.100
550.000	-12.072	0.100
550.100	-10.364	0.100
550.200	-24.352	0.100
550.300	-15.076	0.100
550.400	-1.835	0.100
550.500	-6.275	0.100
550.600	-4.408	0.100
550.700	-25.426	0.100
550.800	-25.777	0.100
550.900	-3.628	0.100
551.000	-15.673	0.100
551.100	-7.792	0.100
551.200	-21.699	0.100
551.300	-4.015	0.100
551.400	-6.620	0.100
551.500	-13.467	0.100
551.600	-19.624	0.100
551.700	-10.507	0.100
551.800	-21.255	0.100
551.900	-29.903	0.100
552.000	1.564	0.100
552.100	-20.974	0.100
552.200	-10.700	0.100
552.300	-30.333	0.100
552.400	-3.382	0.100
552.500	-23.563	0.100
552.600	3.156	0.100
552.700	-35.465	0.100
552.800	-25.103	0.100
552.900	-18.806	0.100
553.000	-19.176	0.100
553.100	-11.822	0.100
553.200	-23.081	0.100
553.300	-30.673	0.100
553.400	-15.059	0.100
553.500	-6.444	0.100
553.600	-24.506	0.100
553.700	-21.400	0.100
553.800	-19.136	0.100
553.900	-29.085	0.100
554.000	-6.562	0.100
554.100	-43.679	0.100
554.200	-31.243	0.100
554.300	-22.688	0.100
554.400	-24.256	0.100
554.500	-2.759	0.100
554.600	-26.690	0.100
554.700	-10.523	0.100
554.800	-24.401	0.100
554.900	-16.288	0.100
555.000	3.038	0.100
555.100	-32.725	0.100
555.200	-26.085	0.100
555.300	-31.340	0.100
555.400	-27.293	0.100
555.500	-17.491	0.100
555.600	-28.099	0.100
555.700	-22.642	0.100
555.800	-38.262	0.100
555.900	-26.532	0.100
556.000	-22.159	0.100
556.100	-32.243	0.100
556.200	-34.109	0.100
556.300	-22.279	0.100
556.400	-33.773	0.100
556.500	-24.462	0.100
556.600	-30.422	0.100
556.700	-10.593	0.100
556.800	-26.810	0.100
556.900	-32.548	0.100
557.000	-16.469	0.100
557.100	-24.600	0.100
557.200	-17.680	0.100
557.300	-29.523	0.100
557.400	-21.086	0.100
557.500	-21.970	0.100
557.600	-34.624	0.100
557.700	-27.667	0.100
557.800	-31.857	0.100
557.900	-42.321	0.100
558.000	-41.636	0.100
558.100	-4.137	0.100
558.200	-21.001	0.100
558.300	-29.731	0.100
558.400	-43.458	0.100
558.500	-21.308	0.100
558.600	-32.204	0.100
558.700	-19.193	0.100
558.800	-32.193	0.100
558.900	-28.751	0.100
559.000	-20.835	0.100
559.100	-35.708	0.100
559.200	-37.346	0.100
559.300	-9.789	0.100
559.400	-38.081	0.100
559.500	-19.360	0.100
559.600	-19.061	0.100
559.700	-41.179	0.100
559.800	-52.124	0.100
559.900	-26.727	0.100
560.000	-24.646	0.100
560.100	-20.146	0.100
560.200	-29.269	0.100
560.300	-18.835	0.100
560.400	-36.583	0.100
560.500	-10.649	0.100
560.600	-31.827	0.100
560.700	-30.054	0.100
560.800	-46.593	0.100
560.900	-16.112	0.100
561.000	-14.737	0.100
561.100	-48.861	0.100
561.200	-44.080	0.100
561.300	-42.342	0.100
561.400	-18.655	0.100
561.500	-39.799	0.100
561.600	-31.366	0.100
561.700	-34.541	0.100
561.800	-31.041	0.100
561.900	-43.765	0.100
562.000	-36.921	0.100
562.100	-34.149	0.100
562.200	-19.049	0.100
562.300	-26.812	0.100
562.400	-39.673	0.100
562.500	-41.706	0.100
562.600	-19.329	0.100
562.700	-26.172	0.100
562.800	-34.060	0.100
562.900	-36.944	0.100
563.000	-30.487	0.100
563.100	-32.013	0.100
563.200	-19.328	0.100
563.300	-22.829	0.100
563.400	-29.411	0.100
563.500	-47.017	0.100
563.600	-39.337	0.100
563.700	-27.386	0.100
563.800	-24.300	0.100
563.900	-44.576	0.100
564.000	-39.577	0.100
564.100	-43.028	0.100
564.200	-19.496	0.100
564.300	-32.830	0.100
564.400	-30.929	0.100
564.500	-37.379	0.100
564.600	-33.932	0.100
564.700	-37.955	0.100
564.800	-32.799	0.100
564.900	-35.298	0.100
565.000	-27.392	0.100
565.100	-34.752	0.100
565.200	-25.483	0.100
565.300	-62.365	0.100
565.400	-17.996	0.100
565.500	-28.175	0.100
565.600	-51.141	0.100
565.700	-40.406	0.100
565.800	-19.327	0.100
565.900	-49.819	0.100
566.000	-29.764	0.100
566.100	-12.996	0.100
566.200	-33.711	0.100
566.300	-31.753	0.100
566.400	-30.336	0.100
566.500	-42.898	0.100
566.600	-25.583	0.100
566.700	-35.510	0.100
566.800	-52.664	0.100
566.900	-24.486	0.100
567.000	-28.745	0.100
567.100	-28.231	0.100
567.200	-29.763	0.100
567.300	-50.667	0.100
567.400	-28.133	0.100
567.500	-17.439	0.100
567.600	-30.285	0.100
567.700	-33.639	0.100
567.800	-20.800	0.100
567.900	-46.946	0.100
568.000	-41.349	0.100
568.100	-31.200	0.100
568.200	-28.169	0.100
568.300	-46.948	0.100
568.400	-27.042	0.100
568.500	-30.931	0.100
568.600	-40.944	0.100
568.700	-30.550	0.100
568.800	-49.750	0.100
568.900	-35.504	0.100
569.000	-15.417	0.100
569.100	-49.382	0.100
569.200	-56.242	0.100
569.300	-34.534	0.100
569.400	-45.440	0.100
569.500	-28.901	0.100
569.600	-18.822	0.100
569.700	-61.891	0.100
569.800	-42.431	0.100
569.900	-11.313	0.100
570.000	-33.137	0.100
570.100	-39.657	0.100
570.200	-47.042	0.100
570.300	-41.419	0.100
570.400	-33.534	0.100
570.500	-8.020	0.100
570.600	-45.072	0.100
570.700	-34.426	0.100
570.800	-37.266	0.100
570.900	-47.795	0.100
571.000	-49.563	0.100
571.100	-29.174	0.100
571.200	-41.754	0.100
571.300	-43.299	0.100
571.400	-52.046	0.100
571.500	-40.946	0.100
571.600	-22.247	0.100
571.700	-29.139	0.100
571.800	-42.327	0.100
571.900	-45.153	0.100
572.000	-29.915	0.100
572.100	-35.986	0.100
572.200	-39.721	0.100
572.300	-21.196	0.100
572.400	-34.515	0.100
572.500	-25.825	0.100
572.600	-23.039	0.100
572.700	-50.486	0.100
572.800	-12.219	0.100
572.900	-47.287	0.100
573.000	-35.429	0.100
573.100	-35.095	0.100
573.200	-47.075	0.100
573.300	-50.077	0.100
573.400	-44.847	0.100
573.500	-53.297	0.100
573.600	-29.812	0.100
573.700	-31.872	0.100
573.800	-46.986	0.100
573.900	-28.182	0.100
574.000	-33.856	0.100
574.100	-38.457	0.100
574.200	-65.133	0.100
574.300	-37.157	0.100
574.400	-33.611	0.100
574.500	-34.762	0.100
574.600	-37.645	0.100
574.700	-33.620	0.100
574.800	-50.546	0.100
574.900	-45.441	0.100
575.000	-55.134	0.100
575.100	-36.357	0.100
575.200	-25.447	0.100
575.300	-42.512	0.100
575.400	-44.423	0.100
575.500	-37.209	0.100
575.600	-14.574	0.100
575.700	-19.152	0.100
575.800	-53.148	0.100
575.900	-53.867	0.100
576.000	-53.437	0.100
576.100	-47.017	0.100
576.200	-44.432	0.100
576.300	-30.528	0.100
576.400	-42.792	0.100
576.500	-33.984	0.100
576.600	-36.830	0.100
576.700	-32.420	0.100
576.800	-25.360	0.100
576.900	-22.282	0.100
577.000	-33.463	0.100
577.100	-34.255	0.100
577.200	-37.261	0.100
577.300	-42.849	0.100
577.400	-18.066	0.100
577.500	-38.895	0.100
577.600	-47.762	0.100
577.700	-35.098	0.100
577.800	-36.269	0.100
577.900	-49.762	0.100
578.000	-29.898	0.100
578.100	-33.559	0.100
578.200	-35.701	0.100
578.300	-49.498	0.100
578.400	-33.911	0.100
578.500	-35.732	0.100
578.600	-27.097	0.100
578.700	-39.681	0.100
578.800	-51.474	0.100
578.900	-33.195	0.100
579.000	-31.588	0.100
579.100	-32.033	0.100
579.200	-30.903	0.100
579.300	-37.947	0.100
579.400	-36.934	0.100
579.500	-22.277	0.100
579.600	-33.871	0.100
579.700	-47.484	0.100
579.800	-34.660	0.100
579.900	-43.495	0.100
580.000	-34.052	0.100
580.100	-46.689	0.100
580.200	-38.139	0.100
580.300	-52.578	0.100
580.400	-40.039	0.100
580.500	-33.865	0.100
580.600	-26.004	0.100
580.700	-15.242	0.100
580.800	-32.325	0.100
580.900	-54.681	0.100
581.000	-19.696	0.100
581.100	-22.198	0.100
581.200	-58.259	0.100
581.300	-13.664	0.100
581.400	-39.202	0.100
581.500	-35.350	0.100
581.600	-28.356	0.100
581.700	-33.383	0.100
581.800	-47.022	0.100
581.900	-35.828	0.100
582.000	-46.565	0.100
582.100	-25.442	0.100
582.200	-33.095	0.100
582.300	-47.640	0.100
582.400	-30.937	0.100
582.500	-36.531	0.100
582.600	-60.193	0.100
582.700	-62.795	0.100
582.800	-28.830	0.100
582.900	-36.397	0.100
583.000	-30.609	0.100
583.100	-38.096	0.100
583.200	-29.089	0.100
583.300	-27.839	0.100
583.400	-48.320	0.100
583.500	-46.839	0.100
583.600	-36.493	0.100
583.700	-47.729	0.100
583.800	-51.571	0.100
583.900	-24.739	0.100
584.000	-29.247	0.100
584.100	-47.144	0.100
584.200	-37.545	0.100
584.300	-23.102	0.100
584.400	-43.481	0.100
584.500	-56.284	0.100
584.600	-25.897	0.100
584.700	-19.022	0.100
584.800	-13.835	0.100
584.900	-44.300	0.100
585.000	-28.611	0.100
585.100	-36.849	0.100
585.200	-39.652	0.100
585.300	-38.496	0.100
585.400	-41.653	0.100
585.500	-46.396	0.100
585.600	-36.661	0.100
585.700	1.283	0.100
585.800	-23.656	0.100
585.900	-43.139	0.100
586.000	-43.271	0.100
586.100	-46.563	0.100
586.200	-43.224	0.100
586.300	-31.475	0.100
586.400	-41.994	0.100
586.500	-36.227	0.100
586.600	-14.209	0.100
586.700	-26.430	0.100
586.800	-47.952	0.100
586.900	-29.268	0.100
587.000	-48.934	0.100
587.100	-27.243	0.100
587.200	-29.526	0.100
587.300	-43.174	0.100
587.400	-22.321	0.100
587.500	-14.817	0.100
587.600	-32.457	0.100
587.700	-40.971	0.100
587.800	-48.780	0.100
587.900	-59.923	0.100
588.000	-36.115	0.100
588.100	-30.451	0.100
588.200	-37.263	0.100
588.300	-32.677	0.100
588.400	-24.611	0.100
588.500	-34.270	0.100
588.600	-34.440	0.100
588.700	-41.907	0.100
588.800	-24.885	0.100
588.900	-46.802	0.100
589.000	-21.601	0.100
589.100	-26.826	0.100
589.200	-35.586	0.100
589.300	-55.338	0.100
589.400	-45.267	0.100
589.500	-24.363	0.100
589.600	-28.971	0.100
589.700	-47.200	0.100
589.800	-31.036	0.100
589.900	-52.836	0.100
590.000	-40.430	0.100
590.100	-32.139	0.100
590.200	-34.994	0.100
590.300	-28.688	0.100
590.400	-36.824	0.100
590.500	-42.232	0.100
590.600	-20.479	0.100
590.700	-42.015	0.100
590.800	-48.197	0.100
590.900	-36.573	0.100
591.000	-27.185	0.100
591.100	-37.219	0.100
591.200	-25.131	0.100
591.300	-33.645	0.100
591.400	-58.720	0.100
591.500	-27.202	0.100
591.600	-31.120	0.100
591.700	-23.985	0.100
591.800	-15.015	0.100
591.900	-40.772	0.100
592.000	-47.164	0.100
592.100	-36.760	0.100
592.200	-35.975	0.100
592.300	-30.900	0.100
592.400	-31.736	0.100
592.500	-25.939	0.100
592.600	-36.741	0.100
592.700	-37.240	0.100
592.800	-51.709	0.100
592.900	-36.841	0.100
593.000	-20.156	0.100
593.100	-35.333	0.100
593.200	-33.433	0.100
593.300	-30.594	0.100
593.400	-35.854	0.100
593.500	-24.195	0.100
593.600	-35.048	0.100
593.700	-40.526	0.100
593.800	-35.762	0.100
593.900	-32.429	0.100
594.000	-21.243	0.100
594.100	-32.200	0.100
594.200	-37.748	0.100
594.300	-28.942	0.100
594.400	-33.751	0.100
594.500	-25.891	0.100
594.600	-37.256	0.100
594.700	-41.782	0.100
594.800	-43.214	0.100
594.900	-25.569	0.100
595.000	-28.016	0.100
595.100	-45.879	0.100
595.200	-25.716	0.100
595.300	-26.467	0.100
595.400	-26.378	0.100
595.500	-43.559	0.100
595.600	-19.226	0.100
595.700	-40.501	0.100
595.800	-45.526	0.100
595.900	-51.296	0.100
596.000	-48.969	0.100
596.100	-30.116	0.100
596.200	-37.979	0.100
596.300	-34.147	0.100
596.400	-37.438	0.100
596.500	-43.941	0.100
596.600	-19.850	0.100
596.700	-31.247	0.100
596.800	-33.400	0.100
596.900	-37.837	0.100
597.000	-43.031	0.100
597.100	-40.172	0.100
597.200	-31.926	0.100
597.300	-41.351	0.100
597.400	-27.139	0.100
597.500	-32.762	0.100
597.600	-34.139	0.100
597.700	-18.987	0.100
597.800	-28.344	0.100
597.900	-50.547	0.100
598.000	-42.843	0.100
598.100	-28.300	0.100
598.200	-35.914	0.100
598.300	-19.092	0.100
598.400	-42.045	0.100
598.500	-35.322	0.100
598.600	-19.963	0.100
598.700	-43.792	0.100
598.800	-44.309	0.100
598.900	-35.502	0.100
599.000	-18.323	0.100
599.100	-33.833	0.100
599.200	-25.284	0.100
599.300	-31.778	0.100
599.400	-38.778	0.100
599.500	-29.468	0.100
599.600	-27.301	0.100
599.700	-40.292	0.100
599.800	-29.147	0.100
599.900	-25.560	0.100
600.000	-28.452	0.100
600.100	-28.155	0.100
600.200	-39.494	0.100
600.300	-26.799	0.100
600.400	-12.592	0.100
600.500	-47.003	0.100
600.600	-42.136	0.100
600.700	-34.192	0.100
600.800	-54.235	0.100
600.900	-40.330	0.100
601.000	-29.597	0.100
601.100	-22.045	0.100
601.200	-30.367	0.100
601.300	-21.668	0.100
601.400	-32.405	0.100
601.500	-43.864	0.100
601.600	-22.652	0.100
601.700	-12.865	0.100
601.800	-27.289	0.100
601.900	-32.816	0.100
602.000	-32.798	0.100
602.100	-31.707	0.100
602.200	-32.832	0.100
602.300	-41.147	0.100
602.400	-25.116	0.100
602.500	-26.192	0.100
602.600	-51.955	0.100
602.700	-36.570	0.100
602.800	-38.823	0.100
602.900	-39.222	0.100
603.000	-25.805	0.100
603.100	-18.977	0.100
603.200	-54.585	0.100
603.300	-27.733	0.100
603.400	-45.953	0.100
603.500	-25.899	0.100
603.600	-30.647	0.100
603.700	-39.001	0.100
603.800	-48.912	0.100
603.900	-23.221	0.100
604.000	-31.380	0.100
604.100	-29.335	0.100
604.200	-14.120	0.100
604.300	-22.918	0.100
604.400	-25.715	0.100
604.500	-36.640	0.100
604.600	-32.639	0.100
604.700	-31.890	0.100
604.800	-21.737	0.100
604.900	-33.910	0.100
605.000	-29.917	0.100
605.100	-40.752	0.100
605.200	-30.823	0.100
605.300	-22.801	0.100
605.400	-29.083	0.100
605.500	-34.773	0.100
605.600	-38.085	0.100
605.700	-31.071	0.100
605.800	-46.940	0.100
605.900	-24.853	0.100
606.000	-27.550	0.100
606.100	-32.701	0.100
606.200	-36.363	0.100
606.300	-33.138	0.100
606.400	-9.365	0.100
606.500	-31.453	0.100
606.600	-22.933	0.100
606.700	-34.120	0.100
606.800	-27.811	0.100
606.900	-36.777	0.100
607.000	-35.779	0.100
607.100	-34.771	0.100
607.200	-20.891	0.100
607.300	-35.706	0.100
607.400	-42.909	0.100
607.500	-38.555	0.100
607.600	-45.136	0.100
607.700	-20.991	0.100
607.800	-20.071	0.100
607.900	-28.914	0.100
608.000	-23.775	0.100
608.100	-30.976	0.100
608.200	-38.586	0.100
608.300	-27.619	0.100
608.400	-36.118	0.100
608.500	-23.718	0.100
608.600	-18.641	0.100
608.700	-42.692	0.100
608.800	-23.904	0.100
608.900	-32.198	0.100
609.000	-19.450	0.100
609.100	-31.382	0.100
609.200	-31.958	0.100
609.300	-22.496	0.100
609.400	-31.277	0.100
609.500	-29.643	0.100
609.600	-51.625	0.100
609.700	-36.672	0.100
609.800	-44.856	0.100
609.900	-28.945	0.100
610.000	-14.921	0.100
610.100	-29.601	0.100
610.200	-30.303	0.100
610.300	-34.299	0.100
610.400	-24.732	0.100
610.500	-22.265	0.100
610.600	-40.203	0.100
610.700	-40.468	0.100
610.800	-23.818	0.100
610.900	-25.432	0.100
611.000	-29.634	0.100
611.100	-15.807	0.100
611.200	-39.314	0.100
611.300	-47.461	0.100
611.400	-46.220	0.100
611.500	-24.546	0.100
611.600	-41.308	0.100
611.700	-41.185	0.100
611.800	-31.052	0.100
611.900	-21.427	0.100
612.000	-37.468	0.100
612.100	-15.359	0.100
612.200	-30.258	0.100
612.300	-38.663	0.100
612.400	-20.366	0.100
612.500	-46.914	0.100
612.600	-27.953	0.100
612.700	-18.104	0.100
612.800	-41.615	0.100
612.900	-35.800	0.100
613.000	-40.708	0.100
613.100	-24.212	0.100
613.200	-36.097	0.100
613.300	-36.101	0.100
613.400	-19.846	0.100
613.500	-15.921	0.100
613.600	-20.500	0.100
613.700	-44.219	0.100
613.800	-38.048	0.100
613.900	-28.776	0.100
614.000	-40.569	0.100
614.100	-13.607	0.100
614.200	-30.516	0.100
614.300	-28.086	0.100
614.400	-32.195	0.100
614.500	-48.403	0.100
614.600	-25.020	0.100
614.700	-18.248	0.100
614.800	-26.226	0.100
614.900	-21.869	0.100
615.000	-32.843	0.100
615.100	-40.063	0.100
615.200	-26.757	0.100
615.300	-25.699	0.100
615.400	-27.559	0.100
615.500	-23.208	0.100
615.600	-35.631	0.100
615.700	-27.597	0.100
615.800	-33.689	0.100
615.900	-46.081	0.100
616.000	-32.447	0.100
616.100	-40.013	0.100
616.200	-31.559	0.100
616.300	-29.786	0.100
616.400	-30.011	0.100
616.500	-21.749	0.100
616.600	-9.429	0.100
616.700	-32.541	0.100
616.800	-17.134	0.100
616.900	-17.118	0.100
617.000	-34.838	0.100
617.100	-24.087	0.100
617.200	-31.726	0.100
617.300	-15.009	0.100
617.400	-46.260	0.100
617.500	-30.292	0.100
617.600	-43.003	0.100
617.700	-28.159	0.100
617.800	-29.395	0.100
617.900	-30.251	0.100
618.000	-33.052	0.100
618.100	-37.538	0.100
618.200	-29.202	0.100
618.300	-25.583	0.100
618.400	-24.410	0.100
618.500	-24.859	0.100
618.600	-35.995	0.100
618.700	-36.811	0.100
618.800	-25.382	0.100
618.900	-32.303	0.100
619.000	-23.675	0.100
619.100	-12.144	0.100
619.200	-39.552	0.100
619.300	-40.077	0.100
619.400	-37.816	0.100
619.500	-53.105	0.100
619.600	-39.740	0.100
619.700	-12.024	0.100
619.800	-31.751	0.100
619.900	-45.727	0.100
620.000	-36.012	0.100
620.100	-20.508	0.100
620.200	-12.719	0.100
620.300	-38.129	0.100
620.400	-44.045	0.100
620.500	-36.299	0.100
620.600	-23.259	0.100
620.700	-11.774	0.100
620.800	-38.638	0.100
620.900	-18.339	0.100
621.000	-41.276	0.100
621.100	-27.725	0.100
621.200	-33.034	0.100
621.300	-33.352	0.100
621.400	-35.177	0.100
621.500	-11.434	0.100
621.600	-23.291	0.100
621.700	-30.454	0.100
621.800	-18.647	0.100
621.900	-49.273	0.100
622.000	-26.918	0.100
622.100	-24.498	0.100
622.200	-30.441	0.100
622.300	-32.609	0.100
622.400	-28.675	0.100
622.500	-27.434	0.100
622.600	-26.020	0.100
622.700	-26.895	0.100
622.800	-34.251	0.100
622.900	-8.030	0.100
623.000	-24.989	0.100
623.100	-31.647	0.100
623.200	-26.196	0.100
623.300	-16.955	0.100
623.400	-39.725	0.100
623.500	-11.799	0.100
623.600	-32.739	0.100
623.700	-31.987	0.100
623.800	-27.684	0.100
623.900	-31.783	0.100
624.000	-26.993	0.100
624.100	-24.924	0.100
624.200	-23.027	0.100
624.300	-25.656	0.100
624.400	-33.553	0.100
624.500	-43.382	0.100
624.600	-22.397	0.100
624.700	-20.453	0.100
624.800	-50.359	0.100
624.900	-20.526	0.100
625.000	-29.077	0.100
625.100	-31.525	0.100
625.200	-21.072	0.100
625.300	-17.742	0.100
625.400	-37.949	0.100
625.500	-42.136	0.100
625.600	-26.592	0.100
625.700	-26.734	0.100
625.800	-27.488	0.100
625.900	-32.985	0.100
626.000	-33.935	0.100
626.100	-31.184	0.100
626.200	-26.170	0.100
626.300	-29.476	0.100
626.400	-21.647	0.100
626.500	-22.336	0.100
626.600	-30.709	0.100
626.700	-34.795	0.100
626.800	-20.663	0.100
626.900	-46.594	0.100
627.000	-17.312	0.100
627.100	-24.313	0.100
627.200	-39.166	0.100
627.300	-17.406	0.100
627.400	-24.017	0.100
627.500	-19.779	0.100
627.600	-18.105	0.100
627.700	-32.800	0.100
627.800	-50.749	0.100
627.900	-18.970	0.100
628.000	-37.401	0.100
628.100	-23.545	0.100
628.200	-25.083	0.100
628.300	-48.654	0.100
628.400	-8.280	0.100
628.500	-26.371	0.100
628.600	-32.905	0.100
628.700	-21.760	0.100
628.800	-28.026	0.100
628.900	-27.168	0.100
629.000	-32.694	0.100
629.100	-34.578	0.100
629.200	-33.122	0.100
629.300	-30.498	0.100
629.400	-25.483	0.100
629.500	-43.769	0.100
629.600	-21.491	0.100
629.700	-26.031	0.100
629.800	-31.951	0.100
629.900	-13.600	0.100
630.000	-33.212	0.100
630.100	-23.483	0.100
630.200	-17.237	0.100
630.300	-24.936	0.100
630.400	-35.816	0.100
630.500	-29.808	0.100
630.600	-38.556	0.100
630.700	-28.946	0.100
630.800	-34.507	0.100
630.900	-23.918	0.100
631.000	-25.031	0.100
631.100	-11.182	0.100
631.200	-13.395	0.100
631.300	-20.514	0.100
631.400	-5.926	0.100
631.500	-1.997	0.100
631.600	0.612	0.100
631.700	-5.063	0.100
631.800	23.764	0.100
631.900	29.547	0.100
632.000	16.365	0.100
632.100	-2.831	0.100
632.200	3.849	0.100
632.300	-6.509	0.100
632.400	13.873	0.100
632.500	2.393	0.100
632.600	4.131	0.100
632.700	17.129	0.100
632.800	26.131	0.100
632.900	-1.319	0.100
633.000	17.054	0.100
633.100	13.822	0.100
633.200	26.053	0.100
633.300	-1.399	0.100
633.400	33.364	0.100
633.500	15.150	0.100
633.600	-1.073	0.100
633.700	21.846	0.100
633.800	35.049	0.100
633.900	-9.049	0.100
634.000	18.490	0.100
634.100	12.939	0.100
634.200	-17.564	0.100
634.300	27.278	0.100
634.400	-0.334	0.100
634.500	-1.348	0.100
634.600	32.124	0.100
634.700	25.454	0.100
634.800	-17.829	0.100
634.900	20.980	0.100
635.000	4.363	0.100
635.100	16.064	0.100
635.200	13.285	0.100
635.300	23.617	0.100
635.400	4.036	0.100
635.500	3.183	0.100
635.600	8.943	0.100
635.700	7.518	0.100
635.800	20.074	0.100
635.900	19.241	0.100
636.000	6.900	0.100
636.100	15.171	0.100
636.200	5.037	0.100
636.300	4.502	0.100
636.400	7.170	0.100
636.500	22.876	0.100
636.600	12.445	0.100
636.700	29.966	0.100
636.800	-0.512	0.100
636.900	5.636	0.100
637.000	9.327	0.100
637.100	22.471	0.100
637.200	12.869	0.100
637.300	14.028	0.100
637.400	16.482	0.100
637.500	5.462	0.100
637.600	40.457	0.100
637.700	19.373	0.100
637.800	5.906	0.100
637.900	39.621	0.100
638.000	16.656	0.100
638.100	-5.166	0.100
638.200	22.971	0.100
638.300	17.922	0.100
638.400	21.085	0.100
638.500	26.795	0.100
638.600	22.127	0.100
638.700	29.467	0.100
638.800	27.249	0.100
638.900	13.869	0.100
639.000	3.240	0.100
639.100	27.381	0.100
639.200	27.471	0.100
639.300	26.033	0.100
639.400	36.300	0.100
639.500	28.433	0.100
639.600	25.906	0.100
639.700	39.894	0.100
639.800	27.204	0.100
639.900	28.842	0.100
640.000	41.775	0.100
640.100	12.671	0.100
640.200	46.024	0.100
640.300	37.352	0.100
640.400	16.804	0.100
640.500	22.087	0.100
640.600	16.987	0.100
640.700	54.004	0.100
640.800	34.100	0.100
640.900	38.563	0.100
641.000	30.045	0.100
641.100	41.676	0.100
641.200	32.988	0.100
641.300	15.476	0.100
641.400	25.492	0.100
641.500	48.392	0.100
641.600	27.759	0.100
641.700	29.820	0.100
641.800	40.409	0.100
641.900	41.263	0.100
642.000	42.755	0.100
642.100	35.093	0.100
642.200	29.832	0.100
642.300	66.325	0.100
642.400	48.561	0.100
642.500	53.726	0.100
642.600	48.470	0.100
642.700	37.818	0.100
642.800	35.207	0.100
642.900	47.606	0.100
643.000	43.575	0.100
643.100	44.303	0.100
643.200	51.844	0.100
643.300	49.669	0.100
643.400	31.264	0.100
643.500	22.615	0.100
643.600	38.050	0.100
643.700	69.807	0.100
643.800	39.619	0.100
643.900	49.302	0.100
644.000	61.295	0.100
644.100	54.063	0.100
644.200	59.626	0.100
644.300	43.638	0.100
644.400	50.590	0.100
644.500	56.674	0.100
644.600	60.113	0.100
644.700	58.189	0.100
644.800	63.846	0.100
644.900	49.695	0.100
645.000	43.398	0.100
645.100	57.604	0.100
645.200	74.851	0.100
645.300	59.105	0.100
645.400	48.760	0.100
645.500	71.712	0.100
645.600	67.705	0.100
645.700	51.860	0.100
645.800	66.942	0.100
645.900	67.448	0.100
646.000	54.165	0.100
646.100	67.433	0.100
646.200	73.167	0.100
646.300	64.712	0.100
646.400	68.772	0.100
646.500	74.475	0.100
646.600	61.010	0.100
646.700	70.149	0.100
646.800	71.580	0.100
646.900	54.217	0.100
647.000	67.557	0.100
647.100	54.689	0.100
647.200	74.534	0.100
647.300	65.502	0.100
647.400	73.650	0.100
647.500	74.111	0.100
647.600	73.100	0.100
647.700	60.080	0.100
647.800	83.299	0.100
647.900	66.990	0.100
648.000	53.784	0.100
648.100	76.179	0.100
648.200	79.426	0.100
648.300	46.350	0.100
648.400	75.162	0.100
648.500	55.109	0.100
648.600	62.968	0.100
648.700	78.858	0.100
648.800	71.876	0.100
648.900	72.414	0.100
649.000	69.104	0.100
649.100	96.657	0.100
649.200	84.748	0.100
649.300	84.116	0.100
649.400	64.766	0.100
649.500	63.199	0.100
649.600	74.118	0.100
649.700	69.643	0.100
649.800	69.687	0.100
649.900	77.558	0.100
650.000	67.356	0.100
650.100	78.063	0.100
650.200	88.950	0.100
650.300	77.670	0.100
650.400	46.154	0.100
650.500	61.834	0.100
650.600	70.991	0.100
650.700	64.336	0.100
650.800	78.044	0.100
650.900	73.062	0.100
651.000	82.516	0.100
651.100	59.437	0.100
651.200	73.405	0.100
651.300	75.991	0.100
651.400	82.332	0.100
651.500	63.571	0.100
651.600	79.942	0.100
651.700	80.995	0.100
651.800	78.878	0.100
651.900	94.407	0.100
652.000	77.395	0.100
652.100	60.975	0.100
652.200	58.101	0.100
652.300	88.606	0.100
652.400	53.211	0.100
652.500	73.400	0.100
652.600	64.440	0.100
652.700	48.707	0.100
652.800	95.178	0.100
652.900	71.686	0.100
653.000	50.725	0.100
653.100	89.725	0.100
653.200	73.219	0.100
653.300	69.455	0.100
653.400	71.381	0.100
653.500	54.752	0.100
653.600	68.806	0.100
653.700	73.884	0.100
653.800	67.324	0.100
653.900	81.464	0.100
654.000	93.913	0.100
654.100	75.841	0.100
654.200	67.786	0.100
654.300	84.235	0.100
654.400	71.585	0.100
654.500	86.013	0.100
654.600	80.491	0.100
654.700	66.379	0.100
654.800	64.037	0.100
654.900	65.331	0.100
655.000	71.741	0.100
655.100	76.120	0.100
655.200	59.454	0.100
655.300	83.316	0.100
655.400	88.534	0.100
655.500	89.577	0.100
655.600	56.143	0.100
655.700	63.070	0.100
655.800	59.607	0.100
655.900	64.648	0.100
656.000	91.828	0.100
656.100	74.451	0.100
656.200	33.766	0.100
656.300	71.116	0.100
656.400	74.842	0.100
656.500	61.923	0.100
656.600	63.648	0.100
656.700	80.839	0.100
656.800	51.555	0.100
656.900	62.959	0.100
657.000	88.015	0.100
657.100	80.263	0.100
657.200	75.689	0.100
657.300	64.604	0.100
657.400	80.001	0.100
657.500	71.728	0.100
657.600	76.444	0.100
657.700	72.202	0.100
657.800	83.953	0.100
657.900	53.419	0.100
658.000	69.368	0.100
658.100	80.259	0.100
658.200	82.498	0.100
658.300	82.835	0.100
658.400	62.056	0.100
658.500	80.942	0.100
658.600	79.091	0.100
658.700	82.980	0.100
658.800	57.980	0.100
658.900	69.500	0.100
659.000	61.976	0.100
659.100	68.754	0.100
659.200	76.973	0.100
659.300	87.470	0.100
659.400	69.309	0.100
659.500	60.375	0.100
659.600	80.116	0.100
659.700	71.058	0.100
659.800	75.596	0.100
659.900	76.701	0.100
660.000	74.015	0.100
660.100	77.132	0.100
660.200	95.681	0.100
660.300	53.835	0.100
660.400	86.986	0.100
660.500	75.247	0.100
660.600	53.245	0.100
660.700	59.796	0.100
660.800	83.371	0.100
660.900	87.754	0.100
661.000	70.133	0.100
661.100	54.765	0.100
661.200	61.069	0.100
661.300	86.610	0.100
661.400	79.790	0.100
661.500	69.277	0.100
661.600	69.623	0.100
661.700	63.335	0.100
661.800	59.754	0.100
661.900	96.142	0.100
662.000	79.337	0.100
662.100	90.210	0.100
662.200	75.729	0.100
662.300	84.450	0.100
662.400	64.781	0.100
662.500	74.861	0.100
662.600	68.037	0.100
662.700	58.690	0.100
662.800	89.584	0.100
662.900	74.799	0.100
663.000	83.021	0.100
663.100	88.913	0.100
663.200	67.301	0.100
663.300	83.252	0.100
663.400	68.908	0.100
663.500	63.598	0.100
663.600	68.196	0.100
663.700	68.607	0.100
663.800	79.907	0.100
663.900	90.664	0.100
664.000	73.131	0.100
664.100	77.027	0.100
664.200	75.586	0.100
664.300	79.979	0.100
664.400	60.033	0.100
664.500	69.828	0.100
664.600	71.425	0.100
664.700	73.037	0.100
664.800	79.981	0.100
664.900	81.381	0.100
665.000	68.785	0.100
665.100	79.615	0.100
665.200	82.438	0.100
665.300	66.153	0.100
665.400	73.458	0.100
665.500	79.772	0.100
665.600	88.902	0.100
665.700	85.831	0.100
665.800	66.425	0.100
665.900	59.418	0.100
666.000	75.549	0.100
666.100	79.008	0.100
666.200	76.235	0.100
666.300	67.906	0.100
666.400	59.553	0.100
666.500	75.344	0.100
666.600	84.674	0.100
666.700	71.245	0.100
666.800	65.339	0.100
666.900	79.458	0.100
667.000	56.831	0.100
667.100	65.443	0.100
667.200	73.716	0.100
667.300	54.243	0.100
667.400	86.489	0.100
667.500	84.031	0.100
667.600	82.910	0.100
667.700	66.849	0.100
667.800	77.232	0.100
667.900	60.630	0.100
668.000	68.198	0.100
668.100	88.325	0.100
668.200	68.980	0.100
668.300	70.418	0.100
668.400	76.875	0.100
668.500	61.896	0.100
668.600	72.241	0.100
668.700	83.966	0.100
668.800	61.373	0.100
668.900	82.162	0.100
669.000	78.900	0.100
669.100	72.447	0.100
669.200	81.195	0.100
669.300	72.882	0.100
669.400	63.738	0.100
669.500	78.513	0.100
669.600	74.854	0.100
669.700	71.782	0.100
669.800	83.583	0.100
669.900	70.974	0.100
670.000	72.153	0.100
670.100	87.909	0.100
670.200	69.072	0.100
670.300	67.721	0.100
670.400	70.334	0.100
670.500	56.028	0.100
670.600	57.324	0.100
670.700	71.367	0.100
670.800	79.815	0.100
670.900	68.228	0.100
671.000	92.067	0.100
671.100	70.119	0.100
671.200	53.178	0.100
671.300	72.814	0.100
671.400	93.725	0.100
671.500	70.642	0.100
671.600	66.241	0.100
671.700	60.390	0.100
671.800	69.285	0.100
671.900	71.627	0.100
672.000	79.863	0.100
672.100	75.113	0.100
672.200	72.525	0.100
672.300	73.808	0.100
672.400	75.041	0.100
672.500	72.319	0.100
672.600	70.283	0.100
672.700	86.626	0.100
672.800	68.954	0.100
672.900	68.962	0.100
673.000	68.199	0.100
673.100	64.118	0.100
673.200	70.217	0.100
673.300	69.274	0.100
673.400	66.596	0.100
673.500	63.690	0.100
673.600	85.952	0.100
673.700	84.210	0.100
673.800	66.864	0.100
673.900	60.333	0.100
674.000	68.371	0.100
674.100	75.696	0.100
674.200	80.189	0.100
674.300	84.254	0.100
674.400	67.038	0.100
674.500	88.040	0.100
674.600	75.921	0.100
674.700	67.706	0.100
674.800	75.217	0.100
674.900	77.280	0.100
675.000	62.256	0.100
675.100	76.839	0.100
675.200	57.266	0.100
675.300	52.988	0.100
675.400	72.921	0.100
675.500	74.049	0.100
675.600	68.033	0.100
675.700	80.845	0.100
675.800	71.222	0.100
675.900	75.160	0.100
676.000	64.713	0.100
676.100	70.417	0.100
676.200	74.642	0.100
676.300	74.515	0.100
676.400	87.194	0.100
676.500	81.081	0.100
676.600	74.630	0.100
676.700	72.119	0.100
676.800	75.854	0.100
676.900	75.097	0.100
677.000	63.811	0.100
677.100	74.508	0.100
677.200	86.990	0.100
677.300	41.462	0.100
677.400	75.366	0.100
677.500	58.723	0.100
677.600	82.977	0.100
677.700	82.181	0.100
677.800	80.410	0.100
677.900	60.791	0.100
678.000	75.932	0.100
678.100	57.007	0.100
678.200	77.046	0.100
678.300	74.017	0.100
678.400	69.096	0.100
678.500	66.227	0.100
678.600	77.661	0.100
678.700	86.149	0.100
678.800	69.286	0.100
678.900	74.380	0.100
679.000	78.183	0.100
679.100	52.847	0.100
679.200	78.720	0.100
679.300	62.228	0.100
679.400	66.356	0.100
679.500	69.656	0.100
679.600	71.830	0.100
679.700	77.946	0.100
679.800	84.077	0.100
679.900	60.004	0.100
680.000	74.178	0.100
680.100	87.019	0.100
680.200	68.010	0.100
680.300	64.489	0.100
680.400	80.014	0.100
680.500	70.933	0.100
680.600	52.411	0.100
680.700	101.318	0.100
680.800	58.829	0.100
680.900	61.984	0.100
681.000	62.799	0.100
681.100	73.893	0.100
681.200	74.571	0.100
681.300	85.784	0.100
681.400	62.667	0.100
681.500	73.002	0.100
681.600	59.068	0.100
681.700	69.379	0.100
681.800	82.200	0.100
681.900	85.196	0.100
682.000	64.312	0.100
682.100	65.896	0.100
682.200	67.111	0.100
682.300	60.614	0.100
682.400	74.665	0.100
682.500	73.913	0.100
682.600	58.377	0.100
682.700	78.052	0.100
682.800	64.660	0.100
682.900	62.112	0.100
683.000	64.636	0.100
683.100	74.569	0.100
683.200	91.146	0.100
683.300	62.919	0.100
683.400	76.486	0.100
683.500	69.793	0.100
683.600	85.803	0.100
683.700	66.885	0.100
683.800	71.206	0.100
683.900	56.838	0.100
684.000	62.470	0.100
684.100	60.331	0.100
684.200	84.736	0.100
684.300	85.479	0.100
684.400	61.447	0.100
684.500	69.819	0.100
684.600	67.357	0.100
684.700	75.895	0.100
684.800	76.118	0.100
684.900	77.781	0.100
685.000	69.858	0.100
685.100	68.223	0.100
685.200	72.479	0.100
685.300	80.691	0.100
685.400	79.621	0.100
685.500	84.791	0.100
685.600	73.569	0.100
685.700	70.784	0.100
685.800	55.046	0.100
685.900	75.947	0.100
686.000	64.294	0.100
686.100	67.188	0.100
686.200	68.376	0.100
686.300	85.252	0.100
686.400	64.807	0.100
686.500	51.227	0.100
686.600	88.589	0.100
686.700	67.006	0.100
686.800	66.789	0.100
686.900	79.653	0.100
687.000	78.455	0.100
687.100	67.703	0.100
687.200	68.500	0.100
687.300	56.770	0.100
687.400	84.311	0.100
687.500	55.154	0.100
687.600	62.361	0.100
687.700	74.759	0.100
687.800	81.253	0.100
687.900	98.434	0.100
688.000	62.563	0.100
688.100	64.395	0.100
688.200	86.034	0.100
688.300	84.454	0.100
688.400	59.566	0.100
688.500	47.871	0.100
688.600	63.371	0.100
688.700	65.884	0.100
688.800	77.624	0.100
688.900	68.780	0.100
689.000	82.541	0.100
689.100	89.736	0.100
689.200	76.238	0.100
689.300	65.795	0.100
689.400	71.417	0.100
689.500	82.295	0.100
689.600	67.907	0.100
689.700	46.294	0.100
689.800	78.318	0.100
689.900	86.030	0.100
690.000	70.289	0.100
690.100	77.355	0.100
690.200	75.230	0.100
690.300	56.269	0.100
690.400	81.768	0.100
690.500	54.277	0.100
690.600	78.753	0.100
690.700	68.088	0.100
690.800	56.497	0.100
690.900	53.493	0.100
691.000	52.516	0.100
691.100	64.104	0.100
691.200	42.649	0.100
691.300	35.036	0.100
691.400	26.496	0.100
691.500	34.506	0.100
691.600	34.852	0.100
691.700	29.841	0.100
691.800	20.310	0.100
691.900	12.560	0.100
692.000	20.147	0.100
692.100	22.081	0.100
692.200	23.543	0.100
692.300	25.757	0.100
692.400	22.686	0.100
692.500	23.085	0.100
692.600	19.588	0.100
692.700	-10.704	0.100
692.800	11.006	0.100
692.900	-11.091	0.100
693.000	8.741	0.100
693.100	-13.690	0.100
693.200	15.334	0.100
693.300	1.138	0.100
693.400	-2.306	0.100
693.500	2.007	0.100
693.600	5.716	0.100
693.700	8.098	0.100
693.800	7.046	0.100
693.900	-16.104	0.100
694.000	16.516	0.100
694.100	-5.347	0.100
694.200	0.215	0.100
694.300	-5.553	0.100
694.400	-19.717	0.100
694.500	4.537	0.100
694.600	-9.511	0.100
694.700	-0.783	0.100
694.800	1.934	0.100
694.900	-11.943	0.100
695.000	-1.828	0.100
695.100	-14.401	0.100
695.200	-10.573	0.100
695.300	28.271	0.100
695.400	19.522	0.100
695.500	-11.311	0.100
695.600	6.448	0.100
695.700	-27.969	0.100
695.800	1.139	0.100
695.900	12.814	0.100
696.000	3.804	0.100
696.100	-7.417	0.100
696.200	5.020	0.100
696.300	-16.589	0.100
696.400	-4.760	0.100
696.500	-2.062	0.100
696.600	-7.598	0.100
696.700	-21.149	0.100
696.800	-0.958	0.100
696.900	-20.233	0.100
697.000	-11.460	0.100
697.100	-16.955	0.100
697.200	4.071	0.100
697.300	-3.359	0.100
697.400	6.366	0.100
697.500	-10.420	0.100
697.600	5.565	0.100
697.700	-12.005	0.100
697.800	-7.360	0.100
697.900	-13.296	0.100
698.000	-4.922	0.100
698.100	-5.544	0.100
698.200	-10.482	0.100
698.300	1.003	0.100
698.400	-13.513	0.100
698.500	0.447	0.100
698.600	-21.545	0.100
698.700	-24.117	0.100
698.800	2.377	0.100
698.900	-12.285	0.100
699.000	-8.279	0.100
699.100	-7.871	0.100
699.200	-7.836	0.100
699.300	-8.060	0.100
699.400	-9.458	0.100
699.500	-23.603	0.100
699.600	-13.663	0.100
699.700	-14.678	0.100
699.800	-9.653	0.100
699.900	-24.113	0.100
700.000	-18.472	0.100
700.100	1.797	0.100
700.200	-5.115	0.100
700.300	-33.594	0.100
700.400	-25.111	0.100
700.500	-28.998	0.100
700.600	-20.621	0.100
700.700	-8.041	0.100
700.800	-29.117	0.100
700.900	-14.218	0.100
701.000	-19.737	0.100
701.100	-20.122	0.100
701.200	-5.874	0.100
701.300	-25.517	0.100
701.400	-19.106	0.100
701.500	-9.620	0.100
701.600	-11.526	0.100
701.700	-38.276	0.100
701.800	-11.722	0.100
701.900	-28.375	0.100
702.000	-28.344	0.100
702.100	-4.387	0.100
702.200	-14.892	0.100
702.300	-23.419	0.100
702.400	-24.884	0.100
702.500	-24.327	0.100
702.600	-13.904	0.100
702.700	-26.962	0.100
702.800	-19.184	0.100
702.900	-26.447	0.100
703.000	-24.778	0.100
703.100	-19.683	0.100
703.200	-18.474	0.100
703.300	-24.925	0.100
703.400	-32.646	0.100
703.500	-26.929	0.100
703.600	-20.110	0.100
703.700	-26.092	0.100
703.800	-11.616	0.100
703.900	-35.670	0.100
704.000	-28.680	0.100
704.100	-17.256	0.100
704.200	-26.922	0.100
704.300	-39.455	0.100
704.400	-32.406	0.100
704.500	-27.808	0.100
704.600	-7.348	0.100
704.700	-1.873	0.100
704.800	-20.431	0.100
704.900	-20.823	0.100
705.000	-28.199	0.100
705.100	-17.523	0.100
705.200	-24.918	0.100
705.300	-31.587	0.100
705.400	-9.383	0.100
705.500	-34.971	0.100
705.600	-16.203	0.100
705.700	-21.879	0.100
705.800	-24.700	0.100
705.900	-20.396	0.100
706.000	-34.404	0.100
706.100	-34.259	0.100
706.200	-45.699	0.100
706.300	-49.339	0.100
706.400	-44.028	0.100
706.500	-5.403	0.100
706.600	-42.362	0.100
706.700	-14.617	0.100
706.800	-37.506	0.100
706.900	-27.281	0.100
707.000	-39.501	0.100
707.100	-38.951	0.100
707.200	-31.208	0.100
707.300	-25.121	0.100
707.400	-26.625	0.100
707.500	-41.116	0.100
707.600	-11.910	0.100
707.700	-32.049	0.100
707.800	-19.279	0.100
707.900	-19.761	0.100
708.000	-19.747	0.100
708.100	-36.944	0.100
708.200	-43.890	0.100
708.300	-34.563	0.100
708.400	-22.953	0.100
708.500	-50.188	0.100
708.600	-16.294	0.100
708.700	-28.046	0.100
708.800	-24.848	0.100
708.900	-26.818	0.100
709.000	-26.372	0.100
709.100	-25.749	0.100
709.200	-45.554	0.100
709.300	-30.919	0.100
709.400	-27.224	0.100
709.500	-41.624	0.100
709.600	-28.378	0.100
709.700	-19.521	0.100
709.800	-26.138	0.100
709.900	-36.508	0.100
710.000	-15.744	0.100
710.100	-34.198	0.100
710.200	-26.000	0.100
710.300	-12.592	0.100
710.400	-50.606	0.100
710.500	-38.067	0.100
710.600	-24.318	0.100
710.700	-46.379	0.100
710.800	-26.556	0.100
710.900	-31.547	0.100
711.000	-44.434	0.100
711.100	-37.967	0.100
711.200	-20.738	0.100
711.300	-31.062	0.100
711.400	-26.368	0.100
711.500	-23.958	0.100
711.600	-36.992	0.100
711.700	-33.546	0.100
711.800	-40.431	0.100
711.900	-38.853	0.100
712.000	-29.740	0.100
712.100	-28.999	0.100
712.200	-26.097	0.100
712.300	-44.809	0.100
712.400	-31.500	0.100
712.500	-28.520	0.100
712.600	-28.279	0.100
712.700	-28.211	0.100
712.800	-28.574	0.100
712.900	-43.803	0.100
713.000	-37.882	0.100
713.100	-40.872	0.100
713.200	-30.212	0.100
713.300	-33.371	0.100
713.400	-30.649	0.100
713.500	-33.640	0.100
713.600	-24.689	0.100
713.700	-39.083	0.100
713.800	-37.343	0.100
713.900	-34.933	0.100
714.000	-24.727	0.100
714.100	-42.219	0.100
714.200	-58.014	0.100
714.300	-32.687	0.100
714.400	-34.252	0.100
714.500	-45.729	0.100
714.600	-27.485	0.100
714.700	-36.371	0.100
714.800	-54.197	0.100
714.900	-27.877	0.100
715.000	-23.599	0.100
715.100	-51.621	0.100
715.200	-39.459	0.100
715.300	-38.290	0.100
715.400	-36.470	0.100
715.500	-17.786	0.100
715.600	-31.118	0.100
715.700	-46.520	0.100
715.800	-35.833	0.100
715.900	-29.517	0.100
716.000	-43.715	0.100
716.100	-55.017	0.100
716.200	-33.779	0.100
716.300	-44.372	0.100
716.400	-25.633	0.100
716.500	-32.644	0.100
716.600	-43.043	0.100
716.700	-35.582	0.100
716.800	-26.862	0.100
716.900	-43.601	0.100
717.000	-36.714	0.100
717.100	-36.283	0.100
717.200	-50.960	0.100
717.300	-57.351	0.100
717.400	-33.941	0.100
717.500	-25.062	0.100
717.600	-42.870	0.100
717.700	-42.951	0.100
717.800	-36.029	0.100
717.900	-25.573	0.100
718.000	-28.804	0.100
718.100	-39.540	0.100
718.200	-35.165	0.100
718.300	-67.216	0.100
718.400	-39.683	0.100
718.500	-16.626	0.100
718.600	-59.877	0.100
718.700	-39.337	0.100
718.800	-31.035	0.100
718.900	-29.985	0.100
719.000	-40.912	0.100
719.100	-52.740	0.100
719.200	-30.071	0.100
719.300	-34.344	0.100
719.400	-50.203	0.100
719.500	-45.107	0.100
719.600	-26.068	0.100
719.700	-33.087	0.100
719.800	-59.683	0.100
719.900	-31.420	0.100
720.000	-49.949	0.100
720.100	-41.767	0.100
720.200	-39.564	0.100
720.300	-33.422	0.100
720.400	-42.325	0.100
720.500	-38.152	0.100
720.600	-50.059	0.100
720.700	-47.202	0.100
720.800	-29.251	0.100
720.900	-38.301	0.100
721.000	-29.215	0.100
721.100	-36.862	0.100
721.200	-18.582	0.100
721.300	-26.699	0.100
721.400	-46.442	0.100
721.500	-49.758	0.100
721.600	-47.783	0.100
721.700	-51.521	0.100
721.800	-43.032	0.100
721.900	-30.975	0.100
722.000	-41.744	0.100
722.100	-50.722	0.100
722.200	-61.322	0.100
722.300	-28.893	0.100
722.400	-38.160	0.100
722.500	-38.695	0.100
722.600	-29.941	0.100
722.700	-22.938	0.100
722.800	-31.026	0.100
722.900	-45.922	0.100
723.000	-39.915	0.100
723.100	-28.434	0.100
723.200	-41.957	0.100
723.300	-49.087	0.100
723.400	-26.405	0.100
723.500	-45.085	0.100
723.600	-29.896	0.100
723.700	-23.301	0.100
723.800	-35.460	0.100
723.900	-50.563	0.100
724.000	-23.772	0.100
724.100	-34.327	0.100
724.200	-55.632	0.100
724.300	-25.708	0.100
724.400	-26.036	0.100
724.500	-42.620	0.100
724.600	-55.750	0.100
724.700	-32.510	0.100
724.800	-27.938	0.100
724.900	-41.259	0.100
725.000	-36.258	0.100
725.100	-52.361	0.100
725.200	-29.147	0.100
725.300	-40.513	0.100
725.400	-34.186	0.100
725.500	-51.323	0.100
725.600	-53.545	0.100
725.700	-33.666	0.100
725.800	-49.911	0.100
725.900	-33.129	0.100
726.000	-32.698	0.100
726.100	-39.234	0.100
726.200	-55.403	0.100
726.300	-53.757	0.100
726.400	-29.064	0.100
726.500	-60.318	0.100
726.600	-55.544	0.100
726.700	-17.874	0.100
726.800	-16.777	0.100
726.900	-18.861	0.100
727.000	-43.095	0.100
727.100	-45.125	0.100
727.200	-58.720	0.100
727.300	-37.290	0.100
727.400	-26.950	0.100
727.500	-38.948	0.100
727.600	-22.815	0.100
727.700	-41.274	0.100
727.800	-38.560	0.100
727.900	-39.550	0.100
728.000	-42.182	0.100
728.100	-37.213	0.100
728.200	-26.548	0.100
728.300	-45.914	0.100
728.400	-31.292	0.100
728.500	-56.320	0.100
728.600	-40.782	0.100
728.700	-27.643	0.100
728.800	-53.455	0.100
728.900	-24.324	0.100
729.000	-28.817	0.100
729.100	-37.757	0.100
729.200	-49.610	0.100
729.300	-31.768	0.100
729.400	-37.844	0.100
729.500	-39.884	0.100
729.600	-17.752	0.100
729.700	-33.170	0.100
729.800	-53.461	0.100
729.900	-48.397	0.100
730.000	-31.173	0.100
730.100	-28.851	0.100
730.200	-40.197	0.100
730.300	-53.331	0.100
730.400	-50.799	0.100
730.500	-24.713	0.100
730.600	-18.995	0.100
730.700	-21.686	0.100
730.800	-39.670	0.100
730.900	-48.170	0.100
731.000	-44.090	0.100
731.100	-26.122	0.100
731.200	-44.255	0.100
731.300	-30.073	0.100
731.400	-41.944	0.100
731.500	-52.071	0.100
731.600	-32.879	0.100
731.700	-39.856	0.100
731.800	-21.239	0.100
731.900	-33.703	0.100
732.000	-18.938	0.100
732.100	-57.541	0.100
732.200	-49.764	0.100
732.300	-43.727	0.100
732.400	-32.966	0.100
732.500	-38.038	0.100
732.600	-40.780	0.100
732.700	-50.147	0.100
732.800	-34.939	0.100
732.900	-43.590	0.100
733.000	-31.853	0.100
733.100	-41.111	0.100
733.200	-36.461	0.100
733.300	-45.798	0.100
733.400	-31.220	0.100
733.500	-43.520	0.100
733.600	-38.268	0.100
733.700	-45.072	0.100
733.800	-45.781	0.100
733.900	-33.553	0.100
734.000	-33.886	0.100
734.100	-33.658	0.100
734.200	-38.553	0.100
734.300	-22.860	0.100
734.400	-42.326	0.100
734.500	-42.471	0.100
734.600	-33.388	0.100
734.700	-47.820	0.100
734.800	-37.622	0.100
734.900	-39.826	0.100
735.000	-24.934	0.100
735.100	-33.826	0.100
735.200	-25.174	0.100
735.300	-46.598	0.100
735.400	-37.771	0.100
735.500	-48.095	0.100
735.600	-32.703	0.100
735.700	-34.965	0.100
735.800	-40.634	0.100
735.900	-23.815	0.100
736.000	-31.649	0.100
736.100	-39.851	0.100
736.200	-39.635	0.100
736.300	-40.420	0.100
736.400	-33.946	0.100
736.500	-42.199	0.100
736.600	-33.687	0.100
736.700	-31.155	0.100
736.800	-40.001	0.100
736.900	-60.317	0.100
737.000	-32.007	0.100
737.100	-44.366	0.100
737.200	-50.045	0.100
737.300	-5.518	0.100
737.400	-30.867	0.100
737.500	-31.978	0.100
737.600	-31.559	0.100
737.700	-36.521	0.100
737.800	-33.563	0.100
737.900	-44.639	0.100
738.000	-32.551	0.100
738.100	-30.558	0.100
738.200	-27.593	0.100
738.300	-42.914	0.100
738.400	-16.178	0.100
738.500	-44.578	0.100
738.600	-43.146	0.100
738.700	-45.353	0.100
738.800	-29.926	0.100
738.900	-39.772	0.100
739.000	-23.240	0.100
739.100	-31.910	0.100
739.200	-37.542	0.100
739.300	-23.745	0.100
739.400	-34.025	0.100
739.500	-36.261	0.100
739.600	-33.998	0.100
739.700	-43.557	0.100
739.800	-46.723	0.100
739.900	-44.545	0.100
740.000	-25.750	0.100
740.100	-30.493	0.100
740.200	-34.294	0.100
740.300	-40.922	0.100
740.400	-31.261	0.100
740.500	-28.997	0.100
740.600	-32.069	0.100
740.700	-49.177	0.100
740.800	-34.448	0.100
740.900	-13.589	0.100
741.000	-18.954	0.100
741.100	-33.398	0.100
741.200	-51.572	0.100
741.300	-21.675	0.100
741.400	-47.209	0.100
741.500	-50.485	0.100
741.600	-34.691	0.100
741.700	-34.673	0.100
741.800	-37.004	0.100
741.900	-54.910	0.100
742.000	-41.966	0.100
742.100	-32.492	0.100
742.200	-30.839	0.100
742.300	-41.928	0.100
742.400	-34.158	0.100
742.500	-30.660	0.100
742.600	-10.492	0.100
742.700	-44.487	0.100
742.800	-32.773	0.100
742.900	-31.239	0.100
743.000	-49.373	0.100
743.100	-31.193	0.100
743.200	-38.301	0.100
743.300	-51.379	0.100
743.400	-35.489	0.100
743.500	-32.380	0.100
743.600	-34.828	0.100
743.700	-34.347	0.100
743.800	-48.525	0.100
743.900	-35.903	0.100
744.000	-20.373	0.100
744.100	-47.736	0.100
744.200	-44.536	0.100
744.300	-29.394	0.100
744.400	-47.220	0.100
744.500	-33.479	0.100
744.600	-27.377	0.100
744.700	-54.944	0.100
744.800	-15.544	0.100
744.900	-28.840	0.100
745.000	-31.465	0.100
745.100	-49.065	0.100
745.200	-39.491	0.100
745.300	-30.919	0.100
745.400	-29.336	0.100
745.500	-31.424	0.100
745.600	-34.766	0.100
745.700	-23.535	0.100
745.800	-32.422	0.100
745.900	-39.871	0.100
746.000	-31.866	0.100
746.100	-17.478	0.100
746.200	-34.164	0.100
746.300	-37.245	0.100
746.400	-26.148	0.100
746.500	-52.986	0.100
746.600	-38.965	0.100
746.700	-20.333	0.100
746.800	-48.894	0.100
746.900	-16.734	0.100
747.000	-20.538	0.100
747.100	-35.546	0.100
747.200	-29.111	0.100
747.300	-36.960	0.100
747.400	-41.552	0.100
747.500	-25.699	0.100
747.600	-43.548	0.100
747.700	-39.344	0.100
747.800	-35.801	0.100
747.900	-26.672	0.100
748.000	-37.975	0.100
748.100	-21.621	0.100
748.200	-26.078	0.100
748.300	-60.471	0.100
748.400	-29.849	0.100
748.500	-35.188	0.100
748.600	-34.948	0.100
748.700	-28.350	0.100
748.800	-39.327	0.100
748.900	-31.362	0.100
749.000	-40.732	0.100
749.100	-45.583	0.100
749.200	-22.847	0.100
749.300	-29.454	0.100
749.400	-35.979	0.100
749.500	-42.641	0.100
749.600	-22.366	0.100
749.700	-49.201	0.100
749.800	-39.569	0.100
749.900	-21.852	0.100
750.000	-34.676	0.100
750.100	-28.731	0.100
750.200	-28.938	0.100
750.300	-38.457	0.100
750.400	-27.729	0.100
750.500	-36.682	0.100
750.600	-30.902	0.100
750.700	-21.836	0.100
750.800	-35.484	0.100
750.900	-44.645	0.100
751.000	-26.693	0.100
751.100	-27.530	0.100
751.200	-40.582	0.100
751.300	-24.017	0.100
751.400	-49.397	0.100
751.500	-44.039	0.100
751.600	-28.206	0.100
751.700	-27.172	0.100
751.800	-28.702	0.100
751.900	-38.387	0.100
752.000	-29.005	0.100
752.100	-51.879	0.100
752.200	-7.518	0.100
752.300	-31.976	0.100
752.400	-16.948	0.100
752.500	-28.734	0.100
752.600	-34.120	0.100
752.700	-30.152	0.100
752.800	-40.285	0.100
752.900	-41.250	0.100
753.000	-34.527	0.100
753.100	-31.579	0.100
753.200	-27.477	0.100
753.300	-20.528	0.100
753.400	-25.831	0.100
753.500	-51.875	0.100
753.600	-36.173	0.100
753.700	-29.543	0.100
753.800	-26.436	0.100
753.900	-28.526	0.100
754.000	-31.160	0.100
754.100	-39.910	0.100
754.200	-25.017	0.100
754.300	-20.418	0.100
754.400	-39.520	0.100
754.500	-27.992	0.100
754.600	-40.239	0.100
754.700	-23.997	0.100
754.800	-25.607	0.100
754.900	-28.999	0.100
755.000	-45.190	0.100
755.100	-17.171	0.100
755.200	-24.904	0.100
755.300	-35.443	0.100
755.400	-35.108	0.100
755.500	-35.682	0.100
755.600	-20.221	0.100
755.700	-20.409	0.100
755.800	-36.826	0.100
755.900	-43.338	0.100
756.000	-30.456	0.100
756.100	-36.334	0.100
756.200	-40.689	0.100
756.300	-30.471	0.100
756.400	-63.980	0.100
756.500	-38.578	0.100
756.600	-40.830	0.100
756.700	-41.375	0.100
756.800	-41.603	0.100
756.900	-19.337	0.100
757.000	-17.712	0.100
757.100	-42.160	0.100
757.200	-42.703	0.100
757.300	-28.002	0.100
757.400	-38.590	0.100
757.500	-28.573	0.100
757.600	-27.667	0.100
757.700	-36.317	0.100
757.800	-33.895	0.100
757.900	-29.026	0.100
758.000	-49.691	0.100
758.100	-28.121	0.100
758.200	-28.693	0.100
758.300	-26.627	0.100
758.400	-30.179	0.100
758.500	-34.633	0.100
758.600	-32.147	0.100
758.700	-29.894	0.100
758.800	-40.891	0.100
758.900	-25.815	0.100
759.000	-25.622	0.100
759.100	-45.903	0.100
759.200	-43.129	0.100
759.300	-29.259	0.100
759.400	-32.681	0.100
759.500	-26.111	0.100
759.600	-18.678	0.100
759.700	-31.740	0.100
759.800	-34.139	0.100
759.900	-20.210	0.100
760.000	-52.344	0.100
760.100	-35.182	0.100
760.200	-23.423	0.100
760.300	-51.612	0.100
760.400	-37.563	0.100
760.500	-38.088	0.100
760.600	-28.266	0.100
760.700	-32.319	0.100
760.800	-22.327	0.100
760.900	-34.936	0.100
761.000	-32.455	0.100
761.100	-36.679	0.100
761.200	-34.855	0.100
761.300	-24.404	0.100
761.400	-48.396	0.100
761.500	-38.767	0.100
761.600	-7.489	0.100
761.700	-13.883	0.100
761.800	-35.314	0.100
761.900	-4.349	0.100
762.000	-45.365	0.100
762.100	-46.694	0.100
762.200	-24.246	0.100
762.300	-32.237	0.100
762.400	-23.760	0.100
762.500	-27.527	0.100
762.600	-45.762	0.100
762.700	-28.190	0.100
762.800	-35.577	0.100
762.900	-49.069	0.100
763.000	-44.864	0.100
763.100	-21.240	0.100
763.200	-40.376	0.100
763.300	-42.123	0.100
763.400	-22.399	0.100
763.500	-28.715	0.100
763.600	-13.256	0.100
763.700	-25.123	0.100
763.800	-17.463	0.100
763.900	-28.884	0.100
764.000	-35.139	0.100
764.100	-35.224	0.100
764.200	-26.016	0.100
764.300	-42.205	0.100
764.400	-30.037	0.100
764.500	-16.919	0.100
764.600	-31.045	0.100
764.700	-17.586	0.100
764.800	-26.086	0.100
764.900	-36.048	0.100
765.000	-42.358	0.100
765.100	-37.536	0.100
765.200	-33.252	0.100
765.300	-14.635	0.100
765.400	-32.557	0.100
765.500	-66.249	0.100
765.600	-25.452	0.100
765.700	-22.316	0.100
765.800	-18.548	0.100
765.900	-19.105	0.100
766.000	-17.716	0.100
766.100	-42.884	0.100
766.200	-20.715	0.100
766.300	-19.268	0.100
766.400	-37.087	0.100
766.500	-35.143	0.100
766.600	-33.783	0.100
766.700	-45.771	0.100
766.800	-40.676	0.100
766.900	-11.467	0.100
767.000	-23.296	0.100
767.100	-53.864	0.100
767.200	-16.809	0.100
767.300	-21.904	0.100
767.400	-29.038	0.100
767.500	-39.056	0.100
767.600	-41.286	0.100
767.700	-28.961	0.100
767.800	-28.604	0.100
767.900	-33.683	0.100
768.000	-11.499	0.100
768.100	-9.970	0.100
768.200	-15.194	0.100
768.300	-30.702	0.100
768.400	-26.391	0.100
768.500	-25.387	0.100
768.600	-46.487	0.100
768.700	-44.841	0.100
768.800	-47.813	0.100
768.900	-28.452	0.100
769.000	-28.376	0.100
769.100	-23.979	0.100
769.200	-19.332	0.100
769.300	-27.286	0.100
769.400	-34.480	0.100
769.500	-34.252	0.100
769.600	-34.956	0.100
769.700	-30.890	0.100
769.800	-27.403	0.100
769.900	-21.704	0.100
770.000	-24.419	0.100
770.100	-25.859	0.100
770.200	-19.753	0.100
770.300	-32.871	0.100
770.400	-34.325	0.100
770.500	-41.044	0.100
770.600	-47.650	0.100
770.700	-31.652	0.100
770.800	-24.084	0.100
770.900	-22.632	0.100
771.000	-37.467	0.100
771.100	-34.892	0.100
771.200	-7.732	0.100
771.300	-20.020	0.100
771.400	-30.770	0.100
771.500	-20.232	0.100
771.600	-33.427	0.100
771.700	-40.122	0.100
771.800	-27.480	0.100
771.900	-27.603	0.100
772.000	-29.749	0.100
772.100	-14.699	0.100
772.200	-36.858	0.100
772.300	-28.777	0.100
772.400	-21.412	0.100
772.500	-43.898	0.100
772.600	-20.976	0.100
772.700	-24.902	0.100
772.800	-34.077	0.100
772.900	-32.234	0.100
773.000	-37.258	0.100
773.100	-34.936	0.100
773.200	-33.241	0.100
773.300	-32.644	0.100
773.400	-34.004	0.100
773.500	-27.335	0.100
773.600	-33.279	0.100
773.700	-25.655	0.100
773.800	-25.112	0.100
773.900	-24.667	0.100
774.000	-56.894	0.100
774.100	-52.198	0.100
774.200	-36.404	0.100
774.300	-30.794	0.100
774.400	-13.861	0.100
774.500	-3.902	0.100
774.600	-27.136	0.100
774.700	-38.657	0.100
774.800	-34.792	0.100
774.900	-43.102	0.100
775.000	-36.991	0.100
775.100	-18.649	0.100
775.200	-26.438	0.100
775.300	-30.609	0.100
775.400	-47.212	0.100
775.500	-51.762	0.100
775.600	-15.808	0.100
775.700	-11.043	0.100
775.800	-23.115	0.100
775.900	-24.820	0.100
776.000	-35.185	0.100
776.100	-37.001	0.100
776.200	-31.321	0.100
776.300	-41.129	0.100
776.400	-24.891	0.100
776.500	-15.514	0.100
776.600	-48.037	0.100
776.700	-30.027	0.100
776.800	-32.886	0.100
776.900	-22.008	0.100
777.000	-32.348	0.100
777.100	-22.752	0.100
777.200	-28.268	0.100
777.300	-20.028	0.100
777.400	-37.889	0.100
777.500	-34.320	0.100
777.600	-36.355	0.100
777.700	-30.553	0.100
777.800	-47.585	0.100
777.900	-14.962	0.100
778.000	-30.008	0.100
778.100	-29.528	0.100
778.200	-29.042	0.100
778.300	-28.829	0.100
778.400	-22.684	0.100
778.500	-25.512	0.100
778.600	-19.266	0.100
778.700	-32.564	0.100
778.800	-29.939	0.100
778.900	-29.744	0.100
779.000	-31.785	0.100
779.100	-40.198	0.100
779.200	-41.857	0.100
779.300	-33.164	0.100
779.400	-22.817	0.100
779.500	-16.931	0.100
779.600	-30.298	0.100
779.700	-34.107	0.100
779.800	-19.443	0.100
779.900	-31.182	0.100
780.000	-30.793	0.100
780.100	-15.158	0.100
780.200	-39.765	0.100
780.300	-20.217	0.100
780.400	-36.654	0.100
780.500	-39.054	0.100
780.600	-9.216	0.100
780.700	-20.250	0.100
780.800	-21.864	0.100
780.900	-26.596	0.100
781.000	-23.372	0.100
781.100	-36.700	0.100
781.200	-13.095	0.100
781.300	-12.770	0.100
781.400	-8.356	0.100
781.500	-19.481	0.100
781.600	0.730	0.100
781.700	2.812	0.100
781.800	26.188	0.100
781.900	10.341	0.100
782.000	-16.933	0.100
782.100	3.623	0.100
782.200	-0.697	0.100
782.300	-4.774	0.100
782.400	21.021	0.100
782.500	0.564	0.100
782.600	35.348	0.100
782.700	17.182	0.100
782.800	17.004	0.100
782.900	20.588	0.100
783.000	12.637	0.100
783.100	11.749	0.100
783.200	26.195	0.100
783.300	17.379	0.100
783.400	2.398	0.100
783.500	22.342	0.100
783.600	9.659	0.100
783.700	8.811	0.100
783.800	13.941	0.100
783.900	11.399	0.100
784.000	9.863	0.100
784.100	22.139	0.100
784.200	5.748	0.100
784.300	15.414	0.100
784.400	0.061	0.100
784.500	31.242	0.100
784.600	2.539	0.100
784.700	-7.421	0.100
784.800	4.081	0.100
784.900	9.577	0.100
785.000	22.850	0.100
785.100	0.060	0.100
785.200	2.690	0.100
785.300	20.917	0.100
785.400	2.169	0.100
785.500	16.649	0.100
785.600	20.152	0.100
785.700	-4.741	0.100
785.800	6.976	0.100
785.900	9.923	0.100
786.000	-4.181	0.100
786.100	14.909	0.100
786.200	21.493	0.100
786.300	16.421	0.100
786.400	22.418	0.100
786.500	13.058	0.100
786.600	12.158	0.100
786.700	14.809	0.100
786.800	23.660	0.100
786.900	4.466	0.100
787.000	26.291	0.100
787.100	32.655	0.100
787.200	6.378	0.100
787.300	4.103	0.100
787.400	24.953	0.100
787.500	13.491	0.100
787.600	17.008	0.100
787.700	13.851	0.100
787.800	-6.897	0.100
787.900	13.959	0.100
788.000	36.057	0.100
788.100	15.103	0.100
788.200	34.728	0.100
788.300	13.673	0.100
788.400	9.956	0.100
788.500	43.993	0.100
788.600	10.601	0.100
788.700	11.909	0.100
788.800	20.931	0.100
788.900	27.149	0.100
789.000	23.748	0.100
789.100	36.752	0.100
789.200	11.990	0.100
789.300	9.350	0.100
789.400	36.392	0.100
789.500	35.837	0.100
789.600	20.770	0.100
789.700	18.991	0.100
789.800	19.063	0.100
789.900	18.227	0.100
790.000	27.417	0.100
790.100	19.646	0.100
790.200	40.927	0.100
790.300	41.641	0.100
790.400	38.077	0.100
790.500	25.972	0.100
790.600	26.686	0.100
790.700	25.191	0.100
790.800	16.601	0.100
790.900	41.615	0.100
791.000	44.249	0.100
791.100	57.447	0.100
791.200	34.188	0.100
791.300	30.872	0.100
791.400	39.175	0.100
791.500	37.695	0.100
791.600	48.623	0.100
791.700	40.832	0.100
791.800	38.741	0.100
791.900	39.525	0.100
792.000	26.574	0.100
792.100	46.009	0.100
792.200	41.505	0.100
792.300	48.236	0.100
792.400	34.100	0.100
792.500	56.202	0.100
792.600	43.607	0.100
792.700	45.944	0.100
792.800	39.364	0.100
792.900	38.615	0.100
793.000	40.850	0.100
793.100	56.244	0.100
793.200	49.004	0.100
793.300	35.473	0.100
793.400	36.617	0.100
793.500	54.242	0.100
793.600	49.341	0.100
793.700	52.707	0.100
793.800	63.137	0.100
793.900	44.107	0.100
794.000	57.922	0.100
794.100	50.930	0.100
794.200	50.212	0.100
794.300	52.045	0.100
794.400	52.451	0.100
794.500	60.053	0.100
794.600	60.667	0.100
794.700	53.549	0.100
794.800	54.556	0.100
794.900	67.103	0.100
795.000	58.717	0.100
795.100	68.317	0.100
795.200	46.887	0.100
795.300	64.103	0.100
795.400	52.452	0.100
795.500	45.048	0.100
795.600	66.074	0.100
795.700	77.501	0.100
795.800	78.321	0.100
795.900	71.902	0.100
796.000	65.605	0.100
796.100	75.943	0.100
796.200	53.919	0.100
796.300	51.212	0.100
796.400	66.475	0.100
796.500	71.439	0.100
796.600	56.686	0.100
796.700	66.942	0.100
796.800	61.532	0.100
796.900	64.736	0.100
797.000	71.180	0.100
797.100	68.228	0.100
797.200	61.572	0.100
797.300	62.328	0.100
797.400	83.284	0.100
797.500	69.690	0.100
797.600	77.243	0.100
797.700	58.828	0.100
797.800	75.976	0.100
797.900	66.397	0.100
798.000	83.119	0.100
798.100	67.750	0.100
798.200	62.199	0.100
798.300	85.634	0.100
798.400	46.839	0.100
798.500	61.396	0.100
798.600	68.279	0.100
798.700	53.890	0.100
798.800	87.556	0.100
798.900	65.528	0.100
799.000	84.085	0.100
799.100	74.387	0.100
799.200	71.448	0.100
799.300	71.905	0.100
799.400	72.307	0.100
799.500	77.551	0.100
799.600	83.389	0.100
799.700	60.094	0.100
799.800	76.692	0.100
799.900	64.680	0.100
800.000	80.131	0.100
