time /s	I /nA	E /V
0.100	-13.214	0.100
0.200	-25.913	0.100
0.300	-18.899	0.100
0.400	-8.026	0.100
0.500	-5.359	0.100
0.600	13.133	0.100
0.700	4.498	0.100
0.800	-39.563	0.100
0.900	-11.290	0.100
1.000	-29.213	0.100
1.100	-27.689	0.100
1.200	-4.580	0.100
1.300	-34.161	0.100
1.400	-12.282	0.100
1.500	-7.543	0.100
1.600	2.440	0.100
1.700	-4.317	0.100
1.800	-31.388	0.100
1.900	-38.223	0.100
2.000	1.654	0.100
2.100	2.367	0.100
2.200	-7.215	0.100
2.300	-30.250	0.100
2.400	-16.024	0.100
2.500	-22.249	0.100
2.600	-26.362	0.100
2.700	-6.098	0.100
2.800	-32.251	0.099
2.900	-3.374	0.100
3.000	-18.870	0.100
3.100	-6.707	0.100
3.200	-42.350	0.100
3.300	-22.992	0.100
3.400	-11.645	0.100
3.500	0.650	0.100
3.600	2.467	0.100
3.700	-6.284	0.100
3.800	-11.620	0.100
3.900	-25.384	0.100
4.000	-16.707	0.100
4.100	-29.202	0.100
4.200	-16.366	0.100
4.300	-9.498	0.100
4.400	-17.066	0.100
4.500	-26.608	0.100
4.600	-8.828	0.100
4.700	-14.895	0.100
4.800	-15.766	0.100
4.900	-20.365	0.100
5.000	4.412	0.100
5.100	2.344	0.100
5.200	-11.348	0.100
5.300	-19.836	0.099
5.400	-9.470	0.100
5.500	-25.104	0.100
5.600	-24.244	0.100
5.700	-25.849	0.100
5.800	-10.939	0.100
5.900	-21.146	0.100
6.000	-13.102	0.100
6.100	-17.448	0.100
6.200	-8.791	0.100
6.300	-31.519	0.100
6.400	-25.382	0.100
6.500	-4.311	0.100
6.600	-17.646	0.100
6.700	-17.830	0.100
6.800	-4.764	0.100
6.900	-21.192	0.100
7.000	-20.715	0.100
7.100	-0.440	0.100
7.200	-24.455	0.100
7.300	0.299	0.100
7.400	-1.594	0.100
7.500	-19.284	0.100
7.600	-26.380	0.100
7.700	-11.915	0.100
7.800	-5.330	0.100
7.900	-38.602	0.100
8.000	-0.720	0.100
8.100	-19.396	0.100
8.200	-8.085	0.100
8.300	0.646	0.100
8.400	-20.125	0.100
8.500	-21.315	0.100
8.600	12.033	0.100
8.700	-28.871	0.100
8.800	-25.194	0.100
8.900	-0.038	0.100
9.000	-32.894	0.100
9.100	-17.643	0.100
9.200	-11.630	0.100
9.300	-19.867	0.100
9.400	-4.025	0.100
9.500	-10.688	0.100
9.600	-15.969	0.100
9.700	-3.571	0.100
9.800	-14.229	0.100
9.900	-25.035	0.100
10.000	-14.819	0.100
10.100	-15.539	0.100
10.200	-22.031	0.100
10.300	-18.674	0.100
10.400	-21.051	0.100
10.500	-0.068	0.100
10.600	-21.713	0.100
10.700	2.234	0.100
10.800	-8.131	0.100
10.900	-16.296	0.100
11.000	-14.086	0.100
11.100	-19.376	0.100
11.200	3.471	0.100
11.300	-13.607	0.100
11.400	-17.415	0.100
11.500	-14.223	0.100
11.600	-29.715	0.100
11.700	-8.439	0.100
11.800	-25.788	0.100
11.900	-22.341	0.100
12.000	0.120	0.100
12.100	-12.938	0.100
12.200	-20.641	0.100
12.300	-23.372	0.100
12.400	-8.914	0.100
12.500	-3.362	0.100
12.600	-12.411	0.100
12.700	-12.819	0.100
12.800	-8.145	0.100
12.900	-6.520	0.100
13.000	-9.818	0.100
13.100	-11.380	0.100
13.200	-28.018	0.100
13.300	-32.704	0.100
13.400	-0.481	0.100
13.500	-15.754	0.100
13.600	-2.341	0.100
13.700	-30.832	0.099
13.800	-24.920	0.100
13.900	-11.818	0.100
14.000	-41.021	0.100
14.100	-1.756	0.100
14.200	5.195	0.100
14.300	-21.631	0.100
14.400	-15.590	0.100
14.500	-2.820	0.100
14.600	-10.087	0.100
14.700	-21.747	0.100
14.800	-11.635	0.100
14.900	-23.837	0.100
15.000	-3.744	0.100
15.100	-16.962	0.100
15.200	-6.457	0.100
15.300	11.743	0.100
15.400	-17.775	0.100
15.500	-17.785	0.100
15.600	-8.239	0.100
15.700	-23.118	0.100
15.800	5.495	0.100
15.900	-8.025	0.100
16.000	-20.529	0.100
16.100	-22.211	0.100
16.200	-24.007	0.100
16.300	-12.417	0.100
16.400	-18.683	0.100
16.500	-3.689	0.100
16.600	-24.089	0.100
16.700	-18.078	0.100
16.800	-3.091	0.100
16.900	-39.804	0.100
17.000	-16.213	0.100
17.100	-32.935	0.100
17.200	-22.036	0.100
17.300	-16.167	0.100
17.400	-3.267	0.100
17.500	-7.803	0.100
17.600	3.900	0.100
17.700	-18.101	0.100
17.800	-12.004	0.100
17.900	-26.755	0.100
18.000	-10.840	0.100
18.100	-10.097	0.100
18.200	-39.209	0.100
18.300	-33.446	0.100
18.400	-0.186	0.100
18.500	-6.334	0.100
18.600	-16.426	0.100
18.700	6.319	0.100
18.800	-31.045	0.100
18.900	-9.633	0.100
19.000	-4.176	0.100
19.100	-11.055	0.100
19.200	0.891	0.100
19.300	-12.791	0.100
19.400	-22.500	0.100
19.500	-20.930	0.100
19.600	-25.694	0.100
19.700	-0.621	0.100
19.800	-6.656	0.100
19.900	2.508	0.100
20.000	-7.126	0.100
20.100	-26.799	0.100
20.200	-24.308	0.100
20.300	-8.876	0.100
20.400	-17.898	0.100
20.500	-23.212	0.100
20.600	8.906	0.100
20.700	-20.084	0.100
20.800	-25.283	0.100
20.900	-16.826	0.100
21.000	-17.245	0.100
21.100	-1.990	0.100
21.200	-10.256	0.100
21.300	-9.415	0.100
21.400	-8.150	0.100
21.500	-25.391	0.100
21.600	-19.608	0.100
21.700	-11.323	0.100
21.800	-9.924	0.100
21.900	-12.436	0.100
22.000	-10.808	0.100
22.100	-5.655	0.100
22.200	-22.182	0.100
22.300	-16.151	0.100
22.400	-22.769	0.100
22.500	-15.930	0.100
22.600	9.253	0.100
22.700	-1.909	0.100
22.800	-6.768	0.100
22.900	-2.539	0.100
23.000	-15.989	0.100
23.100	-14.537	0.100
23.200	-23.918	0.100
23.300	-3.757	0.100
23.400	-24.393	0.100
23.500	0.277	0.100
23.600	-33.705	0.100
23.700	8.219	0.100
23.800	-17.969	0.100
23.900	-17.612	0.100
24.000	-8.120	0.100
24.100	-28.794	0.100
24.200	-34.750	0.100
24.300	-20.110	0.100
24.400	-9.960	0.100
24.500	-16.777	0.100
24.600	8.804	0.100
24.700	-26.314	0.100
24.800	-26.752	0.100
24.900	11.964	0.100
25.000	-12.295	0.100
25.100	-7.822	0.100
25.200	-10.420	0.100
25.300	-9.753	0.100
25.400	-6.163	0.100
25.500	-11.612	0.100
25.600	-18.748	0.100
25.700	-34.939	0.100
25.800	-15.703	0.100
25.900	-29.912	0.100
26.000	-10.377	0.100
26.100	-18.907	0.100
26.200	-21.271	0.100
26.300	-25.597	0.100
26.400	-17.490	0.100
26.500	4.162	0.100
26.600	-23.178	0.100
26.700	-9.709	0.100
26.800	-15.379	0.100
26.900	-35.736	0.100
27.000	-4.139	0.100
27.100	4.984	0.100
27.200	-18.757	0.100
27.300	-16.626	0.100
27.400	-21.304	0.100
27.500	-25.515	0.100
27.600	4.348	0.100
27.700	0.217	0.100
27.800	-5.447	0.100
27.900	10.047	0.100
28.000	-42.356	0.100
28.100	-2.216	0.100
28.200	-18.962	0.100
28.300	-14.777	0.100
28.400	-22.498	0.100
28.500	-2.613	0.100
28.600	-11.038	0.100
28.700	-11.177	0.100
28.800	-6.821	0.100
28.900	-12.507	0.100
29.000	-19.934	0.100
29.100	-18.957	0.100
29.200	-9.929	0.100
29.300	-3.905	0.100
29.400	0.573	0.100
29.500	-11.765	0.100
29.600	3.269	0.100
29.700	-10.040	0.100
29.800	-0.002	0.100
29.900	1.543	0.100
30.000	-15.623	0.100
30.100	-14.460	0.100
30.200	-7.222	0.100
30.300	-13.186	0.100
30.400	14.679	0.100
30.500	4.917	0.100
30.600	8.677	0.100
30.700	10.480	0.100
30.800	17.351	0.100
30.900	9.739	0.100
31.000	20.772	0.100
31.100	14.020	0.100
31.200	13.545	0.100
31.300	28.616	0.100
31.400	27.058	0.100
31.500	38.974	0.100
31.600	38.424	0.100
31.700	35.747	0.100
31.800	18.445	0.100
31.900	42.432	0.100
32.000	54.946	0.100
32.100	37.615	0.100
32.200	46.831	0.100
32.300	43.079	0.099
32.400	49.371	0.100
32.500	25.126	0.100
32.600	42.125	0.100
32.700	43.606	0.100
32.800	58.425	0.100
32.900	49.024	0.100
33.000	45.259	0.100
33.100	35.669	0.100
33.200	21.397	0.100
33.300	49.647	0.100
33.400	57.173	0.100
33.500	34.907	0.100
33.600	52.987	0.100
33.700	44.300	0.100
33.800	45.089	0.100
33.900	53.185	0.100
34.000	58.604	0.100
34.100	46.061	0.100
34.200	70.592	0.100
34.300	45.608	0.100
34.400	37.904	0.100
34.500	50.400	0.100
34.600	61.527	0.100
34.700	36.985	0.100
34.800	65.779	0.100
34.900	63.385	0.100
35.000	35.483	0.100
35.100	68.550	0.100
35.200	70.368	0.100
35.300	59.307	0.100
35.400	66.900	0.100
35.500	49.035	0.100
35.600	89.428	0.100
35.700	73.978	0.100
35.800	63.557	0.100
35.900	57.713	0.100
36.000	58.699	0.100
36.100	82.581	0.099
36.200	79.169	0.099
36.300	98.330	0.100
36.400	88.662	0.100
36.500	81.168	0.100
36.600	84.867	0.100
36.700	79.074	0.100
36.800	68.701	0.100
36.900	84.263	0.100
37.000	102.473	0.100
37.100	89.283	0.100
37.200	91.866	0.100
37.300	77.072	0.100
37.400	83.055	0.100
37.500	105.016	0.100
37.600	82.096	0.100
37.700	87.284	0.100
37.800	102.879	0.100
37.900	84.652	0.100
38.000	93.245	0.100
38.100	87.793	0.100
38.200	80.332	0.100
38.300	91.997	0.100
38.400	94.126	0.100
38.500	81.860	0.100
38.600	90.458	0.100
38.700	100.749	0.100
38.800	93.150	0.100
38.900	96.962	0.100
39.000	100.046	0.100
39.100	77.142	0.100
39.200	96.964	0.100
39.300	104.396	0.100
39.400	86.222	0.100
39.500	96.412	0.100
39.600	91.007	0.100
39.700	89.854	0.100
39.800	94.520	0.100
39.900	76.494	0.100
40.000	84.526	0.100
40.100	61.679	0.100
40.200	82.289	0.100
40.300	105.156	0.100
40.400	89.093	0.100
40.500	81.275	0.100
40.600	80.310	0.100
40.700	102.620	0.100
40.800	99.078	0.100
40.900	65.471	0.100
41.000	74.908	0.100
41.100	86.153	0.100
41.200	84.431	0.100
41.300	78.526	0.100
41.400	62.803	0.100
41.500	69.687	0.100
41.600	63.074	0.100
41.700	65.085	0.100
41.800	70.431	0.100
41.900	78.473	0.100
42.000	85.153	0.100
42.100	63.823	0.100
42.200	71.613	0.100
42.300	65.402	0.100
42.400	66.544	0.100
42.500	64.660	0.100
42.600	36.071	0.100
42.700	79.621	0.100
42.800	66.086	0.100
42.900	64.162	0.100
43.000	42.570	0.100
43.100	72.052	0.100
43.200	44.614	0.100
43.300	69.180	0.100
43.400	40.291	0.100
43.500	72.787	0.100
43.600	59.345	0.100
43.700	62.086	0.100
43.800	56.415	0.100
43.900	49.238	0.100
44.000	48.383	0.100
44.100	63.271	0.100
44.200	60.682	0.100
44.300	36.244	0.100
44.400	48.916	0.100
44.500	49.584	0.100
44.600	40.114	0.100
44.700	48.418	0.100
44.800	50.995	0.100
44.900	47.985	0.100
45.000	51.143	0.100
45.100	51.759	0.100
45.200	46.094	0.100
45.300	58.557	0.100
45.400	44.182	0.100
45.500	32.143	0.100
45.600	41.659	0.100
45.700	60.026	0.100
45.800	30.518	0.100
45.900	31.450	0.100
46.000	39.181	0.100
46.100	23.198	0.100
46.200	43.976	0.100
46.300	50.834	0.100
46.400	27.656	0.100
46.500	25.016	0.100
46.600	51.196	0.100
46.700	49.684	0.100
46.800	55.881	0.100
46.900	40.930	0.100
47.000	19.239	0.100
47.100	43.805	0.100
47.200	29.408	0.100
47.300	26.881	0.100
47.400	44.495	0.100
47.500	30.129	0.100
47.600	49.711	0.100
47.700	36.322	0.100
47.800	27.448	0.100
47.900	54.478	0.100
48.000	49.147	0.100
48.100	34.762	0.100
48.200	34.162	0.100
48.300	35.295	0.100
48.400	42.098	0.100
48.500	25.628	0.100
48.600	28.456	0.100
48.700	11.811	0.100
48.800	39.238	0.100
48.900	40.114	0.100
49.000	42.284	0.100
49.100	35.785	0.100
49.200	31.340	0.100
49.300	13.712	0.100
49.400	58.856	0.100
49.500	40.854	0.100
49.600	17.379	0.100
49.700	16.957	0.100
49.800	57.775	0.100
49.900	25.178	0.100
50.000	20.292	0.100
50.100	49.041	0.100
50.200	36.879	0.100
50.300	35.123	0.100
50.400	36.142	0.100
50.500	21.212	0.100
50.600	30.503	0.100
50.700	37.853	0.100
50.800	39.675	0.100
50.900	53.287	0.100
51.000	32.720	0.100
51.100	35.070	0.100
51.200	43.753	0.100
51.300	32.127	0.100
51.400	24.334	0.100
51.500	53.973	0.100
51.600	38.342	0.100
51.700	47.417	0.100
51.800	38.004	0.100
51.900	23.979	0.100
52.000	39.187	0.100
52.100	40.749	0.100
52.200	42.894	0.100
52.300	31.609	0.100
52.400	45.461	0.100
52.500	31.598	0.100
52.600	44.290	0.100
52.700	31.747	0.100
52.800	50.671	0.100
52.900	37.558	0.100
53.000	34.744	0.100
53.100	25.932	0.100
53.200	39.889	0.100
53.300	41.237	0.100
53.400	37.356	0.100
53.500	47.864	0.100
53.600	56.154	0.100
53.700	28.838	0.100
53.800	34.531	0.100
53.900	57.344	0.100
54.000	31.780	0.100
54.100	34.056	0.100
54.200	45.640	0.100
54.300	32.058	0.100
54.400	53.675	0.100
54.500	47.057	0.100
54.600	30.720	0.100
54.700	53.188	0.100
54.800	30.489	0.100
54.900	27.692	0.100
55.000	52.034	0.100
55.100	51.785	0.100
55.200	38.912	0.100
55.300	58.928	0.100
55.400	36.460	0.100
55.500	27.454	0.100
55.600	63.737	0.100
55.700	51.683	0.100
55.800	12.544	0.100
55.900	61.064	0.100
56.000	45.070	0.100
56.100	38.493	0.100
56.200	51.978	0.100
56.300	50.253	0.100
56.400	34.658	0.100
56.500	39.256	0.100
56.600	58.619	0.100
56.700	63.102	0.100
56.800	53.236	0.100
56.900	42.269	0.100
57.000	51.217	0.100
57.100	31.813	0.100
57.200	49.445	0.100
57.300	57.180	0.100
57.400	63.490	0.100
57.500	54.502	0.100
57.600	30.070	0.100
57.700	52.982	0.100
57.800	75.078	0.100
57.900	58.070	0.100
58.000	44.913	0.100
58.100	67.384	0.100
58.200	40.892	0.100
58.300	48.721	0.100
58.400	42.750	0.100
58.500	57.579	0.100
58.600	38.618	0.100
58.700	36.166	0.100
58.800	56.729	0.100
58.900	50.332	0.100
59.000	45.134	0.100
59.100	47.335	0.100
59.200	35.648	0.100
59.300	51.458	0.100
59.400	76.496	0.100
59.500	43.046	0.100
59.600	57.308	0.100
59.700	50.423	0.100
59.800	44.710	0.100
59.900	49.999	0.100
60.000	54.886	0.100
60.100	42.030	0.100
60.200	53.081	0.100
60.300	53.055	0.100
60.400	35.105	0.100
60.500	55.570	0.100
60.600	41.064	0.100
60.700	62.019	0.100
60.800	61.326	0.100
60.900	50.497	0.100
61.000	43.874	0.100
61.100	75.692	0.100
61.200	45.793	0.100
61.300	62.514	0.100
61.400	62.581	0.100
61.500	55.349	0.100
61.600	59.015	0.100
61.700	63.774	0.100
61.800	63.841	0.100
61.900	43.786	0.100
62.000	61.145	0.100
62.100	60.376	0.100
62.200	34.712	0.100
62.300	62.188	0.100
62.400	65.017	0.100
62.500	51.556	0.100
62.600	40.409	0.100
62.700	62.047	0.100
62.800	49.143	0.100
62.900	59.772	0.100
63.000	63.099	0.100
63.100	51.318	0.100
63.200	59.934	0.100
63.300	44.998	0.100
63.400	53.693	0.100
63.500	57.806	0.100
63.600	56.961	0.100
63.700	52.379	0.100
63.800	68.818	0.100
63.900	53.946	0.100
64.000	50.944	0.100
64.100	68.126	0.100
64.200	51.803	0.100
64.300	66.686	0.100
64.400	52.731	0.100
64.500	43.461	0.100
64.600	61.092	0.100
64.700	62.241	0.100
64.800	50.696	0.100
64.900	68.387	0.100
65.000	60.412	0.100
65.100	64.955	0.100
65.200	48.083	0.100
65.300	55.289	0.100
65.400	57.735	0.100
65.500	48.556	0.100
65.600	60.227	0.100
65.700	60.623	0.100
65.800	55.241	0.100
65.900	48.785	0.100
66.000	25.422	0.100
66.100	80.307	0.100
66.200	58.149	0.100
66.300	54.449	0.100
66.400	70.902	0.100
66.500	64.987	0.100
66.600	55.667	0.100
66.700	88.265	0.100
66.800	54.942	0.100
66.900	38.832	0.100
67.000	62.380	0.100
67.100	71.512	0.100
67.200	54.747	0.100
67.300	55.442	0.100
67.400	67.093	0.100
67.500	66.037	0.100
67.600	61.139	0.100
67.700	68.280	0.100
67.800	75.840	0.100
67.900	64.907	0.100
68.000	60.159	0.100
68.100	50.390	0.100
68.200	73.658	0.100
68.300	42.156	0.100
68.400	73.862	0.100
68.500	47.446	0.100
68.600	52.607	0.100
68.700	73.338	0.100
68.800	90.055	0.100
68.900	56.556	0.100
69.000	68.011	0.100
69.100	51.459	0.100
69.200	67.829	0.100
69.300	62.454	0.100
69.400	46.751	0.100
69.500	59.007	0.100
69.600	58.091	0.100
69.700	72.759	0.100
69.800	63.858	0.100
69.900	69.509	0.100
70.000	70.113	0.100
70.100	71.385	0.100
70.200	88.679	0.100
70.300	51.454	0.100
70.400	43.306	0.100
70.500	46.747	0.100
70.600	47.970	0.100
70.700	74.152	0.100
70.800	74.800	0.100
70.900	63.806	0.100
71.000	60.642	0.100
71.100	46.905	0.100
71.200	56.532	0.100
71.300	69.841	0.100
71.400	65.643	0.100
71.500	55.848	0.100
71.600	70.711	0.100
71.700	65.252	0.100
71.800	68.102	0.100
71.900	71.797	0.100
72.000	60.181	0.100
72.100	55.195	0.100
72.200	61.809	0.100
72.300	80.866	0.100
72.400	66.231	0.100
72.500	71.531	0.100
72.600	69.539	0.100
72.700	49.178	0.100
72.800	61.849	0.100
72.900	68.527	0.100
73.000	48.243	0.100
73.100	78.489	0.100
73.200	52.547	0.100
73.300	68.990	0.100
73.400	70.449	0.100
73.500	58.091	0.100
73.600	55.585	0.100
73.700	74.348	0.100
73.800	70.932	0.100
73.900	72.119	0.100
74.000	72.925	0.100
74.100	64.505	0.100
74.200	85.641	0.100
74.300	56.746	0.100
74.400	63.590	0.100
74.500	64.133	0.100
74.600	59.930	0.100
74.700	39.459	0.100
74.800	79.591	0.100
74.900	64.045	0.100
75.000	65.385	0.100
75.100	73.207	0.100
75.200	68.194	0.100
75.300	55.266	0.100
75.400	71.637	0.100
75.500	65.947	0.100
75.600	55.824	0.100
75.700	60.722	0.100
75.800	54.902	0.100
75.900	53.338	0.100
76.000	81.765	0.100
76.100	72.668	0.100
76.200	74.045	0.100
76.300	61.099	0.100
76.400	63.153	0.100
76.500	62.605	0.100
76.600	82.246	0.100
76.700	89.924	0.100
76.800	69.912	0.100
76.900	59.600	0.100
77.000	49.038	0.100
77.100	52.876	0.100
77.200	80.195	0.100
77.300	73.187	0.100
77.400	59.716	0.100
77.500	69.938	0.100
77.600	82.257	0.100
77.700	65.049	0.100
77.800	72.180	0.100
77.900	69.541	0.100
78.000	65.092	0.100
78.100	79.260	0.100
78.200	65.630	0.100
78.300	52.894	0.100
78.400	69.200	0.100
78.500	66.681	0.100
78.600	102.563	0.100
78.700	71.678	0.100
78.800	55.544	0.100
78.900	57.606	0.100
79.000	64.736	0.100
79.100	74.063	0.100
79.200	73.103	0.100
79.300	77.296	0.100
79.400	55.457	0.100
79.500	47.877	0.100
79.600	100.060	0.100
79.700	56.089	0.100
79.800	65.926	0.100
79.900	65.736	0.100
80.000	73.948	0.100
80.100	61.782	0.100
80.200	71.725	0.100
80.300	75.161	0.100
80.400	92.271	0.100
80.500	74.388	0.100
80.600	44.803	0.100
80.700	63.993	0.100
80.800	71.290	0.100
80.900	75.568	0.100
81.000	78.946	0.100
81.100	47.469	0.100
81.200	59.644	0.100
81.300	75.396	0.100
81.400	76.106	0.100
81.500	66.648	0.100
81.600	79.483	0.100
81.700	63.974	0.100
81.800	79.259	0.100
81.900	68.350	0.100
82.000	70.332	0.100
82.100	71.633	0.100
82.200	88.128	0.100
82.300	57.079	0.100
82.400	56.833	0.100
82.500	87.266	0.100
82.600	86.359	0.100
82.700	76.459	0.100
82.800	79.942	0.100
82.900	72.623	0.100
83.000	65.100	0.100
83.100	77.337	0.100
83.200	61.587	0.100
83.300	65.904	0.100
83.400	69.666	0.100
83.500	55.175	0.100
83.600	78.518	0.100
83.700	81.237	0.100
83.800	60.125	0.100
83.900	75.814	0.100
84.000	73.867	0.100
84.100	70.969	0.100
84.200	78.921	0.100
84.300	52.481	0.100
84.400	65.456	0.100
84.500	62.196	0.100
84.600	87.972	0.100
84.700	68.828	0.100
84.800	67.407	0.100
84.900	78.396	0.100
85.000	62.019	0.100
85.100	69.980	0.100
85.200	76.228	0.100
85.300	62.415	0.100
85.400	63.086	0.100
85.500	95.613	0.100
85.600	86.832	0.100
85.700	54.111	0.100
85.800	57.052	0.100
85.900	88.969	0.100
86.000	75.180	0.100
86.100	61.337	0.100
86.200	73.428	0.100
86.300	74.920	0.100
86.400	66.115	0.100
86.500	77.762	0.100
86.600	77.945	0.100
86.700	70.842	0.100
86.800	86.359	0.100
86.900	72.693	0.100
87.000	80.084	0.100
87.100	75.545	0.100
87.200	71.913	0.100
87.300	77.246	0.100
87.400	82.479	0.100
87.500	69.378	0.100
87.600	73.006	0.100
87.700	62.157	0.100
87.800	62.313	0.100
87.900	79.136	0.100
88.000	83.875	0.100
88.100	68.277	0.100
88.200	68.860	0.100
88.300	75.864	0.100
88.400	76.618	0.100
88.500	76.943	0.100
88.600	85.391	0.100
88.700	77.295	0.100
88.800	61.802	0.100
88.900	70.769	0.100
89.000	76.548	0.100
89.100	70.299	0.100
89.200	89.517	0.100
89.300	64.951	0.100
89.400	62.346	0.100
89.500	75.157	0.100
89.600	75.993	0.100
89.700	63.044	0.100
89.800	86.382	0.100
89.900	65.056	0.100
90.000	71.407	0.100
90.100	80.727	0.100
90.200	70.222	0.100
90.300	64.578	0.100
90.400	70.799	0.100
90.500	61.677	0.100
90.600	47.756	0.100
90.700	19.899	0.100
90.800	35.740	0.100
90.900	40.307	0.100
91.000	48.558	0.100
91.100	31.481	0.100
91.200	32.931	0.100
91.300	44.505	0.100
91.400	10.132	0.100
91.500	20.410	0.100
91.600	22.638	0.100
91.700	29.603	0.100
91.800	5.348	0.100
91.900	7.838	0.100
92.000	-1.841	0.100
92.100	-1.202	0.100
92.200	15.033	0.100
92.300	4.789	0.100
92.400	9.945	0.100
92.500	7.217	0.100
92.600	-28.228	0.100
92.700	17.513	0.100
92.800	-1.820	0.100
92.900	-5.716	0.100
93.000	16.955	0.100
93.100	-14.529	0.100
93.200	2.820	0.100
93.300	-6.325	0.100
93.400	-24.390	0.100
93.500	-0.985	0.100
93.600	2.147	0.100
93.700	-14.827	0.100
93.800	-2.861	0.100
93.900	-7.415	0.100
94.000	-17.565	0.100
94.100	0.235	0.100
94.200	-16.418	0.100
94.300	-17.749	0.100
94.400	-25.789	0.100
94.500	-5.054	0.100
94.600	-4.451	0.100
94.700	-20.003	0.100
94.800	-13.045	0.100
94.900	-24.678	0.100
95.000	-12.881	0.100
95.100	-16.481	0.100
95.200	-21.781	0.100
95.300	-22.717	0.100
95.400	-24.295	0.100
95.500	-20.551	0.100
95.600	0.556	0.100
95.700	-33.671	0.100
95.800	-23.035	0.100
95.900	-12.461	0.100
96.000	-15.908	0.100
96.100	-46.048	0.100
96.200	-17.183	0.100
96.300	-12.350	0.100
96.400	-43.437	0.100
96.500	-13.303	0.100
96.600	11.035	0.100
96.700	-12.929	0.100
96.800	-29.761	0.100
96.900	-40.883	0.100
97.000	-12.130	0.100
97.100	-7.475	0.100
97.200	-9.327	0.100
97.300	-4.269	0.100
97.400	-17.652	0.100
97.500	-26.899	0.100
97.600	-13.976	0.100
97.700	-29.830	0.100
97.800	-15.281	0.100
97.900	-26.304	0.100
98.000	-2.746	0.100
98.100	-34.943	0.100
98.200	-19.828	0.100
98.300	-22.553	0.100
98.400	-16.431	0.100
98.500	-19.521	0.100
98.600	-12.172	0.100
98.700	-6.561	0.100
98.800	-37.918	0.100
98.900	-21.695	0.100
99.000	-16.102	0.100
99.100	-20.588	0.100
99.200	-14.455	0.100
99.300	-31.454	0.100
99.400	0.181	0.100
99.500	-26.012	0.100
99.600	-13.105	0.100
99.700	-0.840	0.100
99.800	-20.872	0.100
99.900	-18.790	0.100
100.000	-16.329	0.100
100.100	-26.453	0.100
100.200	-39.160	0.100
100.300	-2.441	0.100
100.400	-5.220	0.100
100.500	-23.215	0.100
100.600	10.391	0.100
100.700	-6.930	0.100
100.800	-20.865	0.100
100.900	-7.109	0.100
101.000	-20.394	0.100
101.100	-28.198	0.100
101.200	-0.290	0.100
101.300	-37.324	0.100
101.400	-11.368	0.100
101.500	-4.062	0.100
101.600	-16.651	0.100
101.700	-22.565	0.100
101.800	-0.852	0.100
101.900	-26.355	0.100
102.000	-6.631	0.100
102.100	-12.747	0.100
102.200	-23.821	0.100
102.300	-9.836	0.100
102.400	-0.543	0.100
102.500	-22.540	0.100
102.600	-25.791	0.100
102.700	-5.209	0.100
102.800	-3.137	0.100
102.900	-13.857	0.100
103.000	-21.042	0.100
103.100	-20.985	0.100
103.200	-14.545	0.100
103.300	-32.566	0.100
103.400	-10.993	0.100
103.500	-11.996	0.100
103.600	-5.687	0.100
103.700	-15.567	0.100
103.800	-32.536	0.100
103.900	2.435	0.100
104.000	-7.127	0.100
104.100	-9.889	0.100
104.200	-26.123	0.100
104.300	-14.724	0.100
104.400	-10.996	0.100
104.500	-17.497	0.100
104.600	-13.796	0.100
104.700	-12.640	0.100
104.800	-7.128	0.100
104.900	-8.763	0.100
105.000	-2.117	0.100
105.100	-16.238	0.100
105.200	1.016	0.100
105.300	-18.416	0.100
105.400	-3.137	0.100
105.500	-1.971	0.100
105.600	-26.111	0.100
105.700	-18.499	0.100
105.800	-20.780	0.100
105.900	-18.232	0.100
106.000	-30.148	0.100
106.100	-15.151	0.100
106.200	-16.251	0.100
106.300	-1.602	0.100
106.400	-14.381	0.100
106.500	-6.643	0.100
106.600	-20.190	0.100
106.700	-14.074	0.100
106.800	-8.883	0.100
106.900	-25.216	0.100
107.000	-4.801	0.100
107.100	-30.850	0.100
107.200	-16.154	0.100
107.300	-6.324	0.100
107.400	-26.652	0.100
107.500	-12.830	0.100
107.600	-17.952	0.100
107.700	-29.137	0.100
107.800	-41.040	0.100
107.900	-1.501	0.100
108.000	8.519	0.100
108.100	-22.714	0.100
108.200	-5.266	0.100
108.300	-22.435	0.100
108.400	-16.974	0.100
108.500	-9.826	0.100
108.600	-18.833	0.100
108.700	-19.759	0.100
108.800	-35.411	0.100
108.900	-12.860	0.100
109.000	-11.760	0.100
109.100	-17.352	0.100
109.200	-11.986	0.100
109.300	-9.816	0.100
109.400	-34.866	0.100
109.500	-21.062	0.100
109.600	-1.665	0.100
109.700	-6.298	0.100
109.800	-18.130	0.100
109.900	-8.535	0.100
110.000	-17.416	0.100
110.100	-39.586	0.100
110.200	-12.441	0.100
110.300	-21.858	0.100
110.400	-24.450	0.100
110.500	-16.808	0.100
110.600	-19.218	0.100
110.700	-23.532	0.100
110.800	-30.620	0.100
110.900	-27.224	0.100
111.000	-45.010	0.100
111.100	-4.450	0.100
111.200	-9.450	0.100
111.300	11.126	0.100
111.400	-22.576	0.100
111.500	-31.045	0.100
111.600	-24.347	0.100
111.700	-21.957	0.100
111.800	-15.775	0.100
111.900	-40.261	0.100
112.000	-21.313	0.100
112.100	-36.311	0.100
112.200	-14.894	0.100
112.300	-34.747	0.100
112.400	-10.591	0.100
112.500	-2.667	0.100
112.600	-13.205	0.100
112.700	-24.201	0.100
112.800	-30.230	0.100
112.900	-20.028	0.100
113.000	-29.562	0.100
113.100	-23.229	0.100
113.200	-1.397	0.100
113.300	-42.815	0.100
113.400	-24.068	0.100
113.500	-13.897	0.100
113.600	-6.886	0.100
113.700	-29.269	0.100
113.800	11.800	0.100
113.900	-9.563	0.100
114.000	-24.578	0.100
114.100	-24.939	0.100
114.200	-25.529	0.100
114.300	-16.468	0.100
114.400	-30.598	0.100
114.500	-33.519	0.100
114.600	-7.091	0.100
114.700	-22.868	0.100
114.800	-36.462	0.100
114.900	-22.411	0.100
115.000	-27.842	0.100
115.100	-34.680	0.100
115.200	-19.262	0.100
115.300	-27.070	0.100
115.400	-21.531	0.100
115.500	-21.677	0.100
115.600	-14.187	0.100
115.700	-28.246	0.100
115.800	-3.879	0.100
115.900	-4.668	0.100
116.000	-22.121	0.100
116.100	-16.807	0.100
116.200	-24.487	0.100
116.300	-18.391	0.100
116.400	-21.281	0.100
116.500	-27.903	0.100
116.600	-23.028	0.100
116.700	-30.031	0.100
116.800	-30.937	0.100
116.900	-16.140	0.100
117.000	11.540	0.100
117.100	-17.533	0.100
117.200	-28.157	0.100
117.300	-20.512	0.100
117.400	-24.731	0.100
117.500	-20.275	0.100
117.600	-25.723	0.100
117.700	-29.560	0.100
117.800	-18.769	0.100
117.900	-20.481	0.100
118.000	-21.914	0.100
118.100	-11.664	0.100
118.200	-27.159	0.100
118.300	-63.744	0.100
118.400	-34.298	0.100
118.500	0.562	0.100
118.600	-18.280	0.100
118.700	-18.609	0.100
118.800	-11.837	0.100
118.900	-35.761	0.100
119.000	-10.918	0.100
119.100	-22.727	0.100
119.200	-33.568	0.100
119.300	-15.096	0.100
119.400	-19.056	0.100
119.500	-18.544	0.100
119.600	-25.989	0.100
119.700	-16.274	0.100
119.800	-29.763	0.100
119.900	-34.945	0.100
120.000	-20.100	0.100
120.100	-29.890	0.100
120.200	-14.694	0.100
120.300	-30.170	0.100
120.400	-22.523	0.100
120.500	-26.272	0.100
120.600	-20.962	0.100
120.700	-8.982	0.100
120.800	-23.095	0.100
120.900	-23.623	0.100
121.000	-31.933	0.100
121.100	-18.970	0.100
121.200	-38.841	0.100
121.300	-17.499	0.100
121.400	-33.720	0.100
121.500	-23.531	0.100
121.600	-33.902	0.100
121.700	-43.005	0.100
121.800	-27.912	0.100
121.900	-7.268	0.100
122.000	-42.796	0.100
122.100	-17.903	0.100
122.200	-17.868	0.100
122.300	-44.043	0.100
122.400	-38.014	0.100
122.500	-1.655	0.100
122.600	-23.896	0.100
122.700	-37.216	0.100
122.800	0.188	0.100
122.900	-24.805	0.100
123.000	-35.902	0.100
123.100	-34.153	0.100
123.200	-43.246	0.100
123.300	-25.832	0.100
123.400	-36.275	0.100
123.500	-10.877	0.100
123.600	-17.383	0.100
123.700	-24.637	0.100
123.800	-40.085	0.100
123.900	-32.408	0.100
124.000	-16.945	0.100
124.100	-17.139	0.100
124.200	-17.115	0.100
124.300	-27.733	0.100
124.400	-50.284	0.100
124.500	-24.120	0.100
124.600	-27.627	0.100
124.700	-29.436	0.100
124.800	-31.071	0.100
124.900	-24.884	0.100
125.000	-24.507	0.100
125.100	-15.759	0.100
125.200	-21.913	0.100
125.300	-42.780	0.100
125.400	-33.967	0.100
125.500	-13.780	0.100
125.600	-19.829	0.100
125.700	-27.211	0.100
125.800	-38.590	0.100
125.900	-20.858	0.100
126.000	-40.469	0.100
126.100	-18.358	0.100
126.200	-19.228	0.100
126.300	-29.492	0.100
126.400	-15.616	0.100
126.500	-34.267	0.100
126.600	-26.616	0.100
126.700	-36.129	0.100
126.800	-12.713	0.100
126.900	-14.465	0.100
127.000	-8.655	0.100
127.100	-24.581	0.100
127.200	-15.644	0.100
127.300	-22.275	0.100
127.400	-27.769	0.100
127.500	-41.385	0.100
127.600	-22.541	0.100
127.700	-20.481	0.100
127.800	-13.483	0.100
127.900	-37.598	0.100
128.000	-35.693	0.100
128.100	-20.527	0.100
128.200	-18.474	0.100
128.300	-25.842	0.100
128.400	-46.200	0.100
128.500	-40.867	0.100
128.600	-23.742	0.100
128.700	-12.557	0.100
128.800	-31.117	0.100
128.900	-34.582	0.100
129.000	-19.771	0.100
129.100	-43.864	0.100
129.200	-30.406	0.100
129.300	-23.686	0.100
129.400	-33.728	0.100
129.500	-24.458	0.100
129.600	-27.750	0.100
129.700	-45.368	0.100
129.800	-18.670	0.100
129.900	-29.105	0.100
130.000	-30.272	0.100
130.100	-21.165	0.100
130.200	-20.292	0.100
130.300	-40.620	0.100
130.400	-27.363	0.100
130.500	-33.900	0.100
130.600	-41.033	0.100
130.700	-11.001	0.100
130.800	-20.444	0.100
130.900	-32.088	0.100
131.000	-39.353	0.100
131.100	-39.058	0.100
131.200	-24.949	0.100
131.300	-27.241	0.100
131.400	-42.653	0.100
131.500	-31.202	0.100
131.600	-15.744	0.100
131.700	-28.216	0.100
131.800	-6.225	0.100
131.900	-33.892	0.100
132.000	-32.635	0.100
132.100	-4.535	0.100
132.200	-21.419	0.100
132.300	-40.429	0.100
132.400	-35.613	0.100
132.500	-4.774	0.100
132.600	-37.558	0.100
132.700	-28.089	0.100
132.800	-30.513	0.100
132.900	-16.007	0.100
133.000	-4.421	0.100
133.100	-34.990	0.100
133.200	-35.400	0.100
133.300	-45.341	0.100
133.400	-23.077	0.100
133.500	-31.944	0.100
133.600	-13.867	0.100
133.700	-42.477	0.100
133.800	-24.032	0.100
133.900	-33.476	0.100
134.000	-24.724	0.100
134.100	-12.176	0.100
134.200	-33.531	0.100
134.300	-35.585	0.100
134.400	-12.803	0.100
134.500	-29.762	0.100
134.600	-40.679	0.100
134.700	-34.032	0.100
134.800	-19.065	0.100
134.900	-18.830	0.100
135.000	-43.350	0.100
135.100	-30.580	0.100
135.200	-25.498	0.100
135.300	-38.184	0.100
135.400	-15.487	0.100
135.500	-33.741	0.100
135.600	-39.767	0.100
135.700	-32.933	0.100
135.800	-26.534	0.100
135.900	-20.379	0.100
136.000	0.271	0.100
136.100	-33.867	0.100
136.200	-29.523	0.100
136.300	-23.796	0.100
136.400	-28.254	0.100
136.500	-26.591	0.100
136.600	-32.509	0.100
136.700	-38.931	0.100
136.800	-28.322	0.100
136.900	-29.790	0.100
137.000	-37.732	0.100
137.100	-35.668	0.100
137.200	-23.249	0.100
137.300	0.718	0.100
137.400	-22.934	0.100
137.500	-15.971	0.100
137.600	-50.052	0.100
137.700	-30.372	0.100
137.800	-24.443	0.100
137.900	-9.507	0.099
138.000	-20.509	0.100
138.100	-18.637	0.100
138.200	-14.773	0.100
138.300	-33.693	0.100
138.400	-33.681	0.100
138.500	-11.660	0.100
138.600	-30.674	0.100
138.700	-31.406	0.100
138.800	-18.758	0.100
138.900	-32.895	0.100
139.000	-21.407	0.100
139.100	-12.558	0.100
139.200	-44.066	0.100
139.300	-43.908	0.100
139.400	-3.750	0.100
139.500	-19.232	0.100
139.600	-17.810	0.100
139.700	-26.271	0.100
139.800	-28.745	0.100
139.900	-45.538	0.100
140.000	-34.726	0.100
140.100	-17.583	0.100
140.200	-29.517	0.100
140.300	-12.774	0.100
140.400	-39.086	0.100
140.500	-45.303	0.100
140.600	-1.137	0.100
140.700	-15.364	0.100
140.800	-28.914	0.100
140.900	-17.121	0.100
141.000	-30.154	0.100
141.100	-12.179	0.099
141.200	-15.639	0.100
141.300	-24.775	0.100
141.400	-24.729	0.100
141.500	-21.188	0.100
141.600	-40.633	0.100
141.700	-15.954	0.100
141.800	-6.747	0.100
141.900	-10.029	0.100
142.000	-29.864	0.100
142.100	-21.909	0.100
142.200	-26.287	0.100
142.300	-26.379	0.100
142.400	-31.225	0.100
142.500	-37.866	0.100
142.600	-17.226	0.100
142.700	-16.058	0.100
142.800	-43.823	0.100
142.900	-30.581	0.100
143.000	-20.013	0.100
143.100	-21.878	0.100
143.200	-30.726	0.100
143.300	-13.767	0.100
143.400	-31.711	0.100
143.500	-17.892	0.100
143.600	-22.359	0.100
143.700	-40.260	0.100
143.800	-22.381	0.100
143.900	-23.785	0.100
144.000	-47.775	0.100
144.100	-10.858	0.100
144.200	-28.141	0.100
144.300	-29.055	0.100
144.400	-36.287	0.100
144.500	-14.106	0.100
144.600	-11.378	0.100
144.700	-36.156	0.100
144.800	-7.398	0.100
144.900	-31.104	0.100
145.000	-20.795	0.100
145.100	-27.889	0.100
145.200	-37.534	0.100
145.300	-14.379	0.100
145.400	-28.128	0.100
145.500	-15.590	0.100
145.600	-10.830	0.100
145.700	-34.015	0.100
145.800	-32.479	0.100
145.900	-22.378	0.100
146.000	-7.137	0.100
146.100	-18.118	0.100
146.200	-32.938	0.100
146.300	-26.486	0.100
146.400	-2.254	0.100
146.500	-21.274	0.100
146.600	-34.396	0.100
146.700	-34.169	0.100
146.800	-20.655	0.100
146.900	-26.058	0.100
147.000	-29.361	0.100
147.100	-23.291	0.100
147.200	-27.564	0.100
147.300	-29.677	0.100
147.400	-4.031	0.100
147.500	-42.941	0.100
147.600	-36.853	0.100
147.700	-29.894	0.100
147.800	-22.317	0.100
147.900	-14.052	0.100
148.000	-42.704	0.100
148.100	-27.991	0.100
148.200	-35.665	0.100
148.300	-24.542	0.100
148.400	-18.758	0.100
148.500	-7.915	0.100
148.600	-36.261	0.100
148.700	-16.029	0.100
148.800	-24.439	0.100
148.900	-27.272	0.100
149.000	-30.086	0.100
149.100	-36.017	0.100
149.200	-21.457	0.100
149.300	-20.707	0.100
149.400	-15.294	0.100
149.500	-31.401	0.100
149.600	-18.858	0.100
149.700	-7.584	0.100
149.800	-29.150	0.100
149.900	-25.040	0.100
150.000	-36.435	0.100
150.100	5.425	0.100
150.200	-9.802	0.100
150.300	-28.418	0.100
150.400	-35.471	0.100
150.500	-31.820	0.100
150.600	-29.698	0.100
150.700	-25.235	0.099
150.800	-32.758	0.100
150.900	-15.965	0.100
151.000	-26.463	0.100
151.100	-16.511	0.100
151.200	-11.362	0.100
151.300	-15.031	0.100
151.400	-40.872	0.100
151.500	-17.330	0.100
151.600	-26.020	0.100
151.700	-9.010	0.100
151.800	-22.736	0.100
151.900	-20.459	0.100
152.000	-23.880	0.100
152.100	-37.266	0.100
152.200	-12.194	0.100
152.300	-21.075	0.100
152.400	-20.092	0.100
152.500	-19.984	0.100
152.600	-7.262	0.100
152.700	-17.559	0.100
152.800	-0.532	0.100
152.900	-28.629	0.100
153.000	-18.736	0.100
153.100	-30.520	0.100
153.200	-17.157	0.100
153.300	-37.044	0.100
153.400	-31.951	0.100
153.500	4.893	0.100
153.600	-31.183	0.100
153.700	-41.016	0.100
153.800	-21.986	0.100
153.900	-20.697	0.100
154.000	-25.683	0.100
154.100	-33.807	0.100
154.200	-18.969	0.100
154.300	-38.768	0.100
154.400	-9.924	0.100
154.500	-19.097	0.100
154.600	-21.197	0.100
154.700	-19.530	0.100
154.800	-14.399	0.100
154.900	-12.894	0.100
155.000	-28.636	0.100
155.100	-24.922	0.100
155.200	-29.038	0.100
155.300	-25.020	0.100
155.400	-22.917	0.100
155.500	-12.803	0.100
155.600	-28.207	0.100
155.700	-33.119	0.100
155.800	-13.357	0.100
155.900	-15.105	0.100
156.000	-33.921	0.100
156.100	-26.214	0.100
156.200	-12.982	0.100
156.300	-7.456	0.100
156.400	-19.517	0.100
156.500	-24.895	0.100
156.600	-26.215	0.100
156.700	-15.533	0.100
156.800	-42.959	0.100
156.900	-19.381	0.100
157.000	-24.951	0.100
157.100	-13.955	0.100
157.200	-22.217	0.100
157.300	-22.773	0.100
157.400	-3.402	0.100
157.500	-30.368	0.100
157.600	-8.142	0.100
157.700	-32.975	0.100
157.800	-17.626	0.100
157.900	-16.318	0.100
158.000	-45.915	0.100
158.100	-15.677	0.100
158.200	-20.154	0.100
158.300	-16.990	0.100
158.400	-15.116	0.100
158.500	-32.578	0.100
158.600	-12.355	0.100
158.700	-26.935	0.100
158.800	-12.350	0.100
158.900	-24.748	0.100
159.000	-9.169	0.100
159.100	-21.304	0.100
159.200	-20.358	0.100
159.300	-37.557	0.100
159.400	-21.708	0.100
159.500	-16.812	0.100
159.600	-2.165	0.100
159.700	-6.513	0.100
159.800	-34.256	0.100
159.900	-13.781	0.100
160.000	-24.586	0.100
160.100	-13.468	0.100
160.200	-18.049	0.100
160.300	-26.589	0.100
160.400	-24.159	0.100
160.500	-9.396	0.100
160.600	-15.868	0.100
160.700	-20.922	0.100
160.800	-22.241	0.100
160.900	-27.327	0.100
161.000	-31.708	0.100
161.100	4.138	0.100
161.200	-26.392	0.100
161.300	-11.647	0.100
161.400	-17.452	0.100
161.500	-23.948	0.100
161.600	-10.060	0.100
161.700	-24.172	0.100
161.800	-44.085	0.100
161.900	-7.586	0.100
162.000	-18.528	0.100
162.100	-24.084	0.100
162.200	-21.090	0.100
162.300	-19.020	0.100
162.400	-42.861	0.100
162.500	-21.508	0.100
162.600	-11.521	0.100
162.700	-19.594	0.100
162.800	-15.582	0.100
162.900	-20.855	0.100
163.000	-27.443	0.100
163.100	-11.689	0.100
163.200	-11.563	0.100
163.300	-28.057	0.100
163.400	-22.967	0.100
163.500	-28.570	0.100
163.600	-23.020	0.100
163.700	-34.170	0.100
163.800	-17.418	0.100
163.900	-3.205	0.100
164.000	-6.736	0.100
164.100	-27.310	0.100
164.200	-21.645	0.100
164.300	-38.362	0.100
164.400	-13.075	0.100
164.500	-15.256	0.100
164.600	-23.917	0.100
164.700	-32.259	0.100
164.800	-10.037	0.100
164.900	-0.378	0.100
165.000	-12.502	0.100
165.100	-21.967	0.100
165.200	-22.901	0.100
165.300	-21.663	0.100
165.400	-23.120	0.100
165.500	-18.454	0.100
165.600	-33.227	0.100
165.700	-20.210	0.100
165.800	-22.492	0.100
165.900	-25.705	0.100
166.000	-21.624	0.100
166.100	-17.048	0.100
166.200	-34.473	0.100
166.300	-6.278	0.100
166.400	-18.382	0.100
166.500	-19.321	0.100
166.600	-15.263	0.100
166.700	-15.799	0.100
166.800	-21.713	0.100
166.900	3.125	0.100
167.000	-19.846	0.100
167.100	-25.526	0.100
167.200	-9.416	0.100
167.300	-36.272	0.100
167.400	-21.532	0.100
167.500	-25.442	0.100
167.600	-11.295	0.100
167.700	-10.377	0.100
167.800	-14.074	0.100
167.900	-41.742	0.100
168.000	-29.737	0.100
168.100	-22.525	0.100
168.200	-18.371	0.100
168.300	-15.803	0.100
168.400	-0.658	0.100
168.500	-18.385	0.100
168.600	-31.799	0.100
168.700	-24.230	0.100
168.800	-29.240	0.100
168.900	-13.392	0.100
169.000	-20.872	0.100
169.100	-26.167	0.100
169.200	-16.650	0.100
169.300	-25.161	0.100
169.400	-36.345	0.100
169.500	-7.253	0.100
169.600	-33.271	0.100
169.700	-11.129	0.100
169.800	-30.242	0.100
169.900	-6.471	0.100
170.000	-31.955	0.100
170.100	-10.188	0.100
170.200	-19.742	0.100
170.300	-13.565	0.100
170.400	-12.412	0.100
170.500	-5.132	0.100
170.600	-45.269	0.100
170.700	-0.218	0.100
170.800	-39.184	0.100
170.900	-12.054	0.100
171.000	-31.919	0.100
171.100	-7.053	0.100
171.200	-8.275	0.100
171.300	-17.125	0.100
171.400	-14.904	0.100
171.500	-11.096	0.100
171.600	-24.327	0.100
171.700	-37.803	0.100
171.800	-19.692	0.100
171.900	-23.143	0.100
172.000	-8.504	0.100
172.100	-21.159	0.100
172.200	-5.197	0.100
172.300	-21.907	0.100
172.400	-3.637	0.100
172.500	-10.324	0.100
172.600	-5.548	0.100
172.700	-28.551	0.100
172.800	-29.649	0.100
172.900	-11.222	0.100
173.000	-10.921	0.100
173.100	-19.317	0.100
173.200	-21.016	0.100
173.300	-10.430	0.100
173.400	-18.257	0.100
173.500	-11.789	0.100
173.600	-17.614	0.100
173.700	-22.104	0.100
173.800	-22.669	0.100
173.900	-10.124	0.100
174.000	0.886	0.100
174.100	-24.640	0.100
174.200	-19.654	0.100
174.300	-18.035	0.100
174.400	-8.718	0.100
174.500	-23.608	0.100
174.600	-11.583	0.100
174.700	-35.135	0.100
174.800	-24.300	0.100
174.900	-8.967	0.100
175.000	-17.397	0.100
175.100	-13.796	0.100
175.200	-15.101	0.100
175.300	-21.471	0.100
175.400	-15.722	0.100
175.500	-19.015	0.100
175.600	-23.137	0.100
175.700	-8.985	0.100
175.800	-12.687	0.100
175.900	-11.212	0.100
176.000	-12.095	0.100
176.100	-18.607	0.100
176.200	-8.032	0.100
176.300	-20.260	0.100
176.400	-15.932	0.100
176.500	-30.410	0.100
176.600	-17.639	0.100
176.700	-29.408	0.100
176.800	-7.570	0.100
176.900	6.956	0.100
177.000	-24.652	0.100
177.100	-18.094	0.100
177.200	-35.707	0.100
177.300	-7.437	0.100
177.400	-5.990	0.100
177.500	-25.014	0.100
177.600	-22.620	0.100
177.700	-12.095	0.100
177.800	-21.733	0.100
177.900	-43.192	0.100
178.000	-7.275	0.100
178.100	-30.359	0.100
178.200	-11.684	0.100
178.300	-0.746	0.100
178.400	-15.080	0.100
178.500	-23.119	0.100
178.600	-10.725	0.100
178.700	-19.665	0.100
178.800	-24.872	0.100
178.900	-6.254	0.100
179.000	-21.483	0.100
179.100	-26.734	0.100
179.200	-17.751	0.100
179.300	-35.694	0.100
179.400	-19.369	0.100
179.500	-8.182	0.100
179.600	-29.765	0.100
179.700	-10.763	0.100
179.800	-10.986	0.100
179.900	-35.131	0.100
180.000	7.111	0.100
180.100	-7.845	0.100
180.200	-2.405	0.100
180.300	-12.602	0.100
180.400	-17.291	0.100
180.500	6.731	0.100
180.600	27.394	0.100
180.700	31.087	0.100
180.800	20.621	0.100
180.900	12.792	0.100
181.000	17.579	0.100
181.100	32.436	0.100
181.200	33.696	0.100
181.300	42.313	0.100
181.400	38.425	0.100
181.500	57.841	0.100
181.600	54.997	0.100
181.700	61.560	0.100
181.800	61.209	0.100
181.900	49.611	0.100
182.000	33.757	0.100
182.100	73.099	0.100
182.200	41.191	0.100
182.300	48.478	0.100
182.400	69.602	0.100
182.500	69.819	0.100
182.600	49.157	0.100
182.700	55.095	0.100
182.800	55.758	0.100
182.900	57.068	0.100
183.000	69.731	0.100
183.100	53.581	0.100
183.200	59.391	0.100
183.300	42.624	0.100
183.400	44.111	0.100
183.500	64.464	0.100
183.600	48.608	0.100
183.700	32.758	0.100
183.800	47.643	0.100
183.900	68.391	0.100
184.000	42.738	0.100
184.100	51.838	0.100
184.200	55.059	0.100
184.300	34.010	0.100
184.400	42.044	0.100
184.500	51.497	0.100
184.600	30.415	0.100
184.700	38.015	0.100
184.800	44.223	0.100
184.900	45.522	0.100
185.000	44.692	0.100
185.100	63.049	0.100
185.200	51.356	0.100
185.300	49.249	0.100
185.400	40.716	0.100
185.500	28.251	0.100
185.600	48.295	0.100
185.700	29.837	0.100
185.800	52.696	0.100
185.900	47.744	0.100
186.000	41.221	0.099
186.100	48.496	0.100
186.200	53.233	0.100
186.300	29.129	0.100
186.400	46.040	0.100
186.500	78.926	0.100
186.600	46.706	0.100
186.700	73.395	0.100
186.800	50.222	0.100
186.900	22.868	0.100
187.000	49.192	0.100
187.100	56.373	0.100
187.200	60.574	0.100
187.300	77.284	0.100
187.400	63.729	0.100
187.500	67.545	0.100
187.600	59.908	0.100
187.700	54.786	0.100
187.800	46.417	0.100
187.900	73.908	0.100
188.000	60.696	0.100
188.100	74.159	0.100
188.200	86.866	0.100
188.300	53.382	0.100
188.400	69.490	0.100
188.500	83.631	0.100
188.600	84.288	0.100
188.700	56.603	0.100
188.800	77.411	0.100
188.900	75.680	0.100
189.000	81.931	0.100
189.100	80.593	0.100
189.200	83.446	0.100
189.300	73.696	0.100
189.400	94.566	0.100
189.500	78.207	0.100
189.600	87.535	0.100
189.700	97.523	0.100
189.800	88.774	0.100
189.900	100.761	0.100
190.000	91.567	0.100
190.100	86.010	0.100
190.200	81.467	0.100
190.300	94.320	0.100
190.400	88.791	0.100
190.500	98.096	0.100
190.600	85.944	0.100
190.700	107.529	0.100
190.800	89.807	0.100
190.900	102.708	0.100
191.000	99.869	0.100
191.100	100.032	0.100
191.200	113.925	0.100
191.300	89.976	0.100
191.400	109.632	0.100
191.500	87.532	0.100
191.600	85.688	0.100
191.700	100.953	0.100
191.800	114.794	0.100
191.900	96.827	0.100
192.000	110.502	0.100
192.100	102.120	0.100
192.200	109.390	0.100
192.300	103.595	0.100
192.400	100.610	0.100
192.500	96.228	0.100
192.600	123.682	0.100
192.700	100.201	0.100
192.800	96.066	0.100
192.900	104.782	0.100
193.000	94.745	0.100
193.100	113.738	0.100
193.200	119.699	0.100
193.300	105.515	0.100
193.400	107.046	0.100
193.500	125.918	0.100
193.600	88.996	0.100
193.700	86.898	0.100
193.800	100.296	0.100
193.900	113.330	0.100
194.000	113.453	0.100
194.100	92.348	0.100
194.200	123.418	0.100
194.300	91.185	0.100
194.400	121.263	0.100
194.500	107.487	0.100
194.600	104.452	0.100
194.700	99.066	0.100
194.800	109.122	0.100
194.900	101.745	0.100
195.000	88.006	0.100
195.100	103.315	0.100
195.200	97.809	0.100
195.300	118.457	0.100
195.400	85.286	0.100
195.500	109.723	0.100
195.600	112.603	0.100
195.700	99.545	0.100
195.800	111.059	0.100
195.900	106.743	0.100
196.000	98.892	0.100
196.100	102.961	0.100
196.200	118.388	0.100
196.300	106.850	0.100
196.400	98.250	0.100
196.500	104.132	0.100
196.600	103.777	0.100
196.700	110.002	0.100
196.800	89.912	0.100
196.900	107.079	0.100
197.000	95.645	0.100
197.100	86.855	0.100
197.200	103.969	0.100
197.300	113.788	0.100
197.400	125.671	0.100
197.500	108.817	0.100
197.600	101.539	0.100
197.700	107.327	0.100
197.800	94.143	0.100
197.900	107.676	0.100
198.000	91.987	0.100
198.100	108.001	0.100
198.200	98.399	0.100
198.300	100.624	0.100
198.400	84.328	0.100
198.500	116.670	0.100
198.600	115.226	0.100
198.700	111.621	0.100
198.800	105.352	0.100
198.900	91.234	0.100
199.000	112.973	0.100
199.100	91.138	0.100
199.200	102.300	0.100
199.300	92.396	0.100
199.400	123.701	0.100
199.500	89.945	0.100
199.600	91.655	0.100
199.700	93.767	0.100
199.800	106.953	0.100
199.900	103.013	0.100
200.000	91.195	0.100
200.100	98.166	0.100
200.200	122.724	0.100
200.300	95.158	0.100
200.400	89.394	0.100
200.500	101.779	0.100
200.600	103.736	0.100
200.700	91.189	0.100
200.800	98.921	0.100
200.900	89.377	0.100
201.000	108.718	0.100
201.100	108.639	0.100
201.200	91.284	0.100
201.300	89.358	0.100
201.400	97.034	0.100
201.500	87.316	0.100
201.600	91.631	0.100
201.700	110.316	0.100
201.800	93.703	0.100
201.900	102.934	0.100
202.000	95.743	0.100
202.100	90.890	0.100
202.200	110.350	0.100
202.300	92.654	0.100
202.400	97.426	0.100
202.500	111.365	0.100
202.600	96.276	0.100
202.700	99.770	0.100
202.800	92.503	0.100
202.900	102.933	0.100
203.000	109.992	0.100
203.100	95.379	0.100
203.200	100.542	0.100
203.300	82.094	0.100
203.400	103.706	0.100
203.500	83.304	0.100
203.600	83.227	0.100
203.700	54.677	0.100
203.800	96.274	0.100
203.900	109.435	0.100
204.000	96.940	0.100
204.100	91.789	0.100
204.200	107.100	0.100
204.300	120.646	0.099
204.400	97.526	0.100
204.500	91.834	0.100
204.600	103.396	0.100
204.700	103.418	0.100
204.800	93.107	0.100
204.900	112.154	0.100
205.000	92.353	0.100
205.100	105.724	0.100
205.200	100.266	0.100
205.300	113.319	0.100
205.400	90.126	0.100
205.500	64.104	0.099
205.600	103.645	0.100
205.700	108.721	0.099
205.800	90.403	0.100
205.900	95.438	0.100
206.000	96.470	0.099
206.100	94.364	0.100
206.200	84.867	0.100
206.300	101.316	0.100
206.400	102.544	0.100
206.500	93.023	0.100
206.600	105.782	0.100
206.700	88.903	0.099
206.800	79.146	0.100
206.900	104.869	0.100
207.000	99.935	0.099
207.100	87.946	0.099
207.200	108.334	0.099
207.300	70.540	0.100
207.400	91.614	0.099
207.500	111.627	0.099
207.600	89.731	0.100
207.700	95.361	0.099
207.800	100.507	0.099
207.900	92.041	0.099
208.000	91.728	0.099
208.100	92.167	0.099
208.200	84.442	0.099
208.300	100.122	0.099
208.400	118.347	0.099
208.500	104.331	0.099
208.600	90.463	0.099
208.700	112.198	0.099
208.800	74.690	0.099
208.900	113.517	0.100
209.000	113.789	0.099
209.100	77.031	0.099
209.200	100.956	0.099
209.300	86.372	0.099
209.400	93.681	0.099
209.500	94.118	0.099
209.600	107.181	0.099
209.700	89.049	0.100
209.800	86.796	0.099
209.900	101.993	0.100
210.000	84.204	0.099
210.100	98.556	0.099
210.200	91.025	0.099
210.300	91.120	0.099
210.400	110.297	0.099
210.500	95.153	0.099
210.600	96.766	0.099
210.700	95.349	0.099
210.800	102.909	0.099
210.900	105.895	0.099
211.000	96.417	0.099
211.100	89.718	0.099
211.200	86.359	0.099
211.300	90.461	0.099
211.400	93.438	0.099
211.500	95.283	0.099
211.600	93.057	0.099
211.700	98.856	0.099
211.800	99.107	0.099
211.900	74.956	0.099
212.000	93.380	0.099
212.100	100.577	0.100
212.200	108.346	0.099
212.300	95.562	0.099
212.400	88.005	0.099
212.500	104.337	0.099
212.600	94.219	0.100
212.700	74.554	0.099
212.800	91.051	0.099
212.900	105.865	0.099
213.000	103.899	0.100
213.100	95.220	0.099
213.200	87.406	0.099
213.300	95.167	0.099
213.400	97.787	0.099
213.500	81.105	0.099
213.600	105.959	0.099
213.700	73.261	0.099
213.800	105.225	0.099
213.900	87.452	0.099
214.000	103.858	0.099
214.100	112.117	0.099
214.200	91.002	0.099
214.300	85.075	0.099
214.400	102.245	0.099
214.500	93.978	0.099
214.600	68.228	0.099
214.700	106.874	0.099
214.800	104.628	0.099
214.900	84.262	0.099
215.000	83.307	0.099
215.100	97.926	0.099
215.200	96.385	0.099
215.300	75.195	0.099
215.400	101.470	0.099
215.500	81.355	0.099
215.600	89.041	0.099
215.700	106.520	0.099
215.800	100.644	0.099
215.900	97.914	0.099
216.000	91.390	0.099
216.100	89.335	0.099
216.200	85.016	0.099
216.300	85.139	0.099
216.400	113.541	0.099
216.500	106.338	0.099
216.600	94.211	0.099
216.700	89.345	0.099
216.800	101.436	0.099
216.900	107.051	0.099
217.000	95.301	0.099
217.100	89.573	0.099
217.200	97.066	0.099
217.300	81.149	0.099
217.400	89.577	0.099
217.500	101.582	0.099
217.600	85.837	0.099
217.700	96.408	0.099
217.800	97.033	0.099
217.900	94.992	0.099
218.000	92.262	0.099
218.100	80.288	0.099
218.200	83.048	0.099
218.300	86.446	0.099
218.400	92.457	0.099
218.500	50.156	0.099
218.600	103.237	0.099
218.700	102.299	0.099
218.800	87.933	0.099
218.900	105.007	0.099
219.000	100.339	0.099
219.100	100.199	0.099
219.200	93.102	0.099
219.300	78.094	0.099
219.400	78.115	0.099
219.500	89.230	0.099
219.600	94.358	0.099
219.700	102.059	0.099
219.800	106.721	0.099
219.900	98.746	0.099
220.000	82.208	0.099
220.100	82.341	0.099
220.200	79.336	0.099
220.300	102.360	0.099
220.400	102.570	0.099
220.500	91.663	0.099
220.600	102.042	0.099
220.700	98.288	0.099
220.800	80.310	0.099
220.900	90.484	0.099
221.000	93.820	0.099
221.100	88.718	0.099
221.200	104.138	0.099
221.300	83.895	0.099
221.400	94.510	0.099
221.500	110.662	0.099
221.600	101.638	0.099
221.700	86.278	0.099
221.800	92.803	0.099
221.900	98.483	0.099
222.000	83.565	0.099
222.100	89.418	0.099
222.200	92.887	0.099
222.300	70.340	0.099
222.400	96.942	0.099
222.500	87.779	0.099
222.600	95.751	0.099
222.700	100.275	0.099
222.800	86.228	0.099
222.900	90.153	0.099
223.000	99.185	0.099
223.100	84.742	0.099
223.200	99.887	0.099
223.300	106.390	0.099
223.400	82.602	0.099
223.500	83.240	0.099
223.600	90.679	0.099
223.700	89.391	0.099
223.800	91.248	0.099
223.900	91.392	0.099
224.000	103.096	0.099
224.100	101.810	0.099
224.200	88.280	0.099
224.300	79.487	0.099
224.400	109.575	0.099
224.500	81.786	0.099
224.600	85.747	0.099
224.700	96.070	0.099
224.800	89.163	0.099
224.900	88.278	0.099
225.000	81.369	0.099
225.100	87.584	0.099
225.200	83.989	0.099
225.300	103.303	0.099
225.400	99.925	0.099
225.500	82.159	0.099
225.600	91.140	0.099
225.700	128.067	0.099
225.800	98.115	0.099
225.900	77.436	0.099
226.000	94.561	0.099
226.100	90.682	0.099
226.200	100.605	0.099
226.300	92.155	0.099
226.400	108.083	0.099
226.500	93.055	0.099
226.600	80.548	0.099
226.700	74.045	0.099
226.800	102.828	0.099
226.900	85.661	0.099
227.000	84.987	0.099
227.100	113.807	0.099
227.200	103.971	0.099
227.300	89.797	0.099
227.400	90.543	0.099
227.500	68.768	0.099
227.600	93.671	0.099
227.700	101.892	0.099
227.800	70.704	0.099
227.900	108.664	0.099
228.000	96.942	0.099
228.100	91.554	0.099
228.200	91.243	0.099
228.300	100.650	0.099
228.400	103.713	0.099
228.500	99.881	0.099
228.600	104.750	0.099
228.700	90.447	0.099
228.800	101.193	0.099
228.900	92.665	0.099
229.000	78.774	0.099
229.100	96.462	0.099
229.200	81.449	0.099
229.300	70.828	0.099
229.400	99.365	0.099
229.500	105.055	0.099
229.600	81.820	0.099
229.700	75.970	0.099
229.800	95.639	0.099
229.900	90.309	0.099
230.000	102.982	0.099
230.100	97.762	0.099
230.200	89.131	0.099
230.300	95.778	0.099
230.400	96.159	0.099
230.500	84.360	0.099
230.600	91.106	0.099
230.700	96.556	0.099
230.800	108.630	0.099
230.900	92.009	0.099
231.000	103.807	0.099
231.100	89.340	0.099
231.200	103.662	0.099
231.300	74.974	0.099
231.400	85.387	0.099
231.500	99.999	0.099
231.600	81.016	0.099
231.700	96.659	0.099
231.800	79.068	0.099
231.900	98.855	0.099
232.000	111.288	0.099
232.100	79.974	0.099
232.200	99.310	0.099
232.300	101.389	0.099
232.400	92.670	0.099
232.500	82.240	0.099
232.600	96.951	0.099
232.700	83.596	0.099
232.800	88.948	0.099
232.900	92.640	0.099
233.000	98.977	0.099
233.100	102.609	0.099
233.200	83.268	0.099
233.300	86.865	0.099
233.400	92.334	0.099
233.500	106.910	0.099
233.600	77.835	0.099
233.700	86.195	0.099
233.800	132.644	0.099
233.900	72.619	0.099
234.000	99.095	0.099
234.100	104.217	0.099
234.200	107.556	0.099
234.300	90.742	0.099
234.400	76.650	0.099
234.500	101.438	0.099
234.600	98.021	0.099
234.700	88.723	0.099
234.800	93.938	0.099
234.900	85.884	0.099
235.000	91.304	0.099
235.100	93.399	0.099
235.200	85.297	0.099
235.300	98.899	0.099
235.400	82.187	0.099
235.500	96.196	0.099
235.600	92.162	0.099
235.700	102.878	0.099
235.800	99.510	0.099
235.900	92.017	0.099
236.000	70.735	0.099
236.100	74.243	0.099
236.200	104.966	0.099
236.300	101.685	0.099
236.400	119.128	0.099
236.500	86.999	0.099
236.600	99.277	0.099
236.700	92.724	0.099
236.800	86.518	0.099
236.900	91.910	0.099
237.000	81.963	0.099
237.100	86.672	0.099
237.200	73.706	0.099
237.300	92.780	0.099
237.400	101.246	0.099
237.500	102.863	0.099
237.600	92.739	0.099
237.700	88.490	0.099
237.800	73.985	0.099
237.900	95.812	0.099
238.000	91.021	0.099
238.100	90.837	0.099
238.200	109.453	0.099
238.300	93.833	0.099
238.400	89.762	0.099
238.500	86.440	0.099
238.600	89.928	0.099
238.700	81.040	0.099
238.800	87.978	0.099
238.900	76.233	0.099
239.000	97.872	0.099
239.100	111.052	0.099
239.200	99.885	0.099
239.300	74.395	0.099
239.400	94.846	0.099
239.500	93.915	0.099
239.600	84.889	0.099
239.700	92.778	0.099
239.800	96.959	0.099
239.900	94.743	0.099
240.000	81.415	0.099
240.100	68.014	0.099
240.200	86.461	0.099
240.300	79.999	0.099
240.400	85.945	0.099
240.500	64.715	0.099
240.600	60.783	0.099
240.700	45.672	0.099
240.800	45.686	0.099
240.900	34.757	0.099
241.000	57.742	0.099
241.100	48.923	0.099
241.200	41.086	0.099
241.300	39.651	0.099
241.400	24.918	0.099
241.500	38.776	0.099
241.600	3.409	0.099
241.700	39.582	0.099
241.800	9.967	0.099
241.900	-2.617	0.099
242.000	23.636	0.099
242.100	5.563	0.099
242.200	17.562	0.099
242.300	15.592	0.099
242.400	-8.309	0.099
242.500	9.162	0.099
242.600	-1.135	0.099
242.700	-14.167	0.099
242.800	9.945	0.099
242.900	-19.787	0.099
243.000	-12.504	0.099
243.100	9.997	0.099
243.200	-14.359	0.099
243.300	-12.409	0.099
243.400	4.853	0.099
243.500	-6.883	0.099
243.600	-9.656	0.099
243.700	-15.712	0.099
243.800	-23.585	0.099
243.900	4.816	0.099
244.000	7.563	0.099
244.100	-25.086	0.099
244.200	-40.865	0.099
244.300	-8.674	0.099
244.400	-10.415	0.099
244.500	-19.168	0.099
244.600	-20.475	0.099
244.700	-25.496	0.099
244.800	-33.909	0.099
244.900	5.491	0.099
245.000	-20.646	0.099
245.100	-17.400	0.099
245.200	-8.759	0.099
245.300	-45.923	0.099
245.400	-9.569	0.099
245.500	-5.407	0.099
245.600	-15.019	0.099
245.700	-14.920	0.099
245.800	-11.835	0.099
245.900	-6.550	0.099
246.000	-4.984	0.099
246.100	-1.715	0.099
246.200	-17.957	0.099
246.300	-33.953	0.099
246.400	-5.180	0.099
246.500	-18.465	0.099
246.600	-26.589	0.099
246.700	-27.651	0.099
246.800	-7.855	0.099
246.900	-13.152	0.099
247.000	-3.071	0.099
247.100	-12.113	0.099
247.200	-17.333	0.099
247.300	-29.037	0.099
247.400	-22.915	0.099
247.500	-7.823	0.099
247.600	-22.489	0.099
247.700	-24.140	0.099
247.800	-0.101	0.099
247.900	-36.756	0.099
248.000	-16.459	0.099
248.100	4.797	0.099
248.200	-16.927	0.099
248.300	-23.309	0.099
248.400	-2.605	0.099
248.500	-40.225	0.099
248.600	-8.761	0.099
248.700	-8.157	0.099
248.800	-26.425	0.099
248.900	-24.239	0.099
249.000	-18.467	0.099
249.100	-13.838	0.099
249.200	-16.472	0.099
249.300	-21.755	0.099
249.400	-10.922	0.099
249.500	-39.374	0.099
249.600	-10.526	0.099
249.700	-22.137	0.099
249.800	-9.763	0.099
249.900	-11.293	0.099
250.000	-22.326	0.099
250.100	-10.822	0.099
250.200	-22.108	0.099
250.300	-28.927	0.099
250.400	-23.166	0.099
250.500	-12.541	0.099
250.600	-25.718	0.099
250.700	-20.553	0.099
250.800	-26.431	0.099
250.900	-7.555	0.099
251.000	-20.259	0.099
251.100	-22.678	0.099
251.200	-14.004	0.099
251.300	-20.328	0.099
251.400	-18.659	0.099
251.500	-37.105	0.099
251.600	-13.994	0.099
251.700	-42.811	0.099
251.800	-14.848	0.099
251.900	-4.975	0.099
252.000	-17.692	0.099
252.100	-24.460	0.099
252.200	-29.068	0.099
252.300	-4.441	0.099
252.400	-16.845	0.099
252.500	-12.674	0.099
252.600	-27.108	0.099
252.700	-15.422	0.099
252.800	-20.681	0.099
252.900	-42.466	0.099
253.000	-22.848	0.099
253.100	-10.734	0.099
253.200	-24.577	0.099
253.300	-15.436	0.099
253.400	-16.419	0.099
253.500	-24.343	0.099
253.600	-25.609	0.099
253.700	-12.991	0.099
253.800	-10.619	0.099
253.900	-40.248	0.099
254.000	-45.461	0.099
254.100	-12.106	0.099
254.200	-21.917	0.099
254.300	-19.033	0.099
254.400	-34.127	0.099
254.500	-30.860	0.099
254.600	-31.764	0.099
254.700	-17.772	0.099
254.800	0.392	0.099
254.900	-23.259	0.099
255.000	-45.640	0.099
255.100	-21.003	0.099
255.200	-31.338	0.099
255.300	-29.377	0.099
255.400	-30.988	0.099
255.500	-5.740	0.099
255.600	-10.454	0.099
255.700	-44.465	0.099
255.800	-5.066	0.099
255.900	-22.715	0.099
256.000	-24.053	0.099
256.100	-39.245	0.099
256.200	-26.785	0.099
256.300	-3.771	0.099
256.400	-32.799	0.099
256.500	-30.023	0.099
256.600	-37.236	0.099
256.700	-21.170	0.099
256.800	-10.468	0.099
256.900	-24.545	0.099
257.000	-31.771	0.099
257.100	-38.603	0.099
257.200	-44.805	0.099
257.300	-26.954	0.099
257.400	-15.440	0.099
257.500	-15.291	0.099
257.600	-43.208	0.099
257.700	-21.567	0.099
257.800	-14.036	0.099
257.900	-11.541	0.099
258.000	-27.087	0.099
258.100	-28.767	0.099
258.200	-41.132	0.099
258.300	-19.354	0.099
258.400	-34.506	0.099
258.500	-42.052	0.099
258.600	-40.047	0.099
258.700	-23.775	0.099
258.800	-25.512	0.099
258.900	-16.990	0.099
259.000	-29.763	0.099
259.100	-35.490	0.099
259.200	-18.927	0.099
259.300	-27.852	0.099
259.400	-36.062	0.099
259.500	-2.696	0.099
259.600	-37.952	0.099
259.700	-37.724	0.099
259.800	-29.396	0.099
259.900	-25.342	0.099
260.000	-28.279	0.099
260.100	-36.826	0.099
260.200	-13.011	0.099
260.300	-33.963	0.099
260.400	-23.478	0.099
260.500	-19.445	0.099
260.600	-34.190	0.099
260.700	-24.572	0.099
260.800	-38.801	0.099
260.900	-32.345	0.099
261.000	-28.886	0.099
261.100	-45.278	0.099
261.200	-21.865	0.099
261.300	-6.940	0.099
261.400	-26.204	0.099
261.500	-39.899	0.099
261.600	-29.303	0.099
261.700	-17.734	0.099
261.800	-58.453	0.099
261.900	-33.474	0.099
262.000	-38.941	0.099
262.100	-17.906	0.099
262.200	-33.340	0.099
262.300	-44.884	0.099
262.400	-23.920	0.099
262.500	-4.674	0.099
262.600	-31.761	0.099
262.700	-36.023	0.099
262.800	-35.138	0.099
262.900	-34.663	0.099
263.000	-37.668	0.099
263.100	-29.737	0.099
263.200	-20.055	0.099
263.300	-33.553	0.099
263.400	-35.778	0.099
263.500	-50.858	0.099
263.600	-30.004	0.099
263.700	-34.973	0.099
263.800	-26.518	0.099
263.900	-34.986	0.099
264.000	-30.523	0.099
264.100	-34.435	0.099
264.200	-29.765	0.099
264.300	-56.783	0.099
264.400	-30.077	0.099
264.500	-24.553	0.099
264.600	-39.243	0.099
264.700	-25.517	0.099
264.800	-14.935	0.099
264.900	-35.018	0.099
265.000	-32.808	0.099
265.100	-31.611	0.099
265.200	-34.478	0.099
265.300	-36.005	0.099
265.400	-37.825	0.099
265.500	-38.353	0.099
265.600	-33.203	0.099
265.700	-19.523	0.099
265.800	-42.334	0.099
265.900	-48.921	0.099
266.000	-31.421	0.099
266.100	-39.022	0.099
266.200	-23.263	0.099
266.300	-35.486	0.099
266.400	-41.515	0.099
266.500	-34.853	0.099
266.600	-37.525	0.099
266.700	-41.587	0.099
266.800	-31.527	0.099
266.900	-34.551	0.099
267.000	-36.085	0.099
267.100	-23.037	0.099
267.200	-26.711	0.099
267.300	-29.121	0.099
267.400	-33.765	0.099
267.500	-40.344	0.099
267.600	-42.450	0.099
267.700	-19.209	0.099
267.800	-35.722	0.099
267.900	-32.789	0.099
268.000	-36.219	0.099
268.100	-32.477	0.099
268.200	-40.153	0.099
268.300	-28.287	0.099
268.400	-48.653	0.099
268.500	-30.715	0.099
268.600	-62.218	0.099
268.700	-50.436	0.099
268.800	-21.030	0.099
268.900	-31.474	0.099
269.000	-38.592	0.099
269.100	-24.799	0.099
269.200	-47.803	0.099
269.300	-48.403	0.099
269.400	-24.394	0.099
269.500	-32.378	0.099
269.600	-38.177	0.099
269.700	-38.186	0.099
269.800	-32.675	0.099
269.900	-41.171	0.099
270.000	-15.596	0.099
270.100	-50.522	0.099
270.200	-45.392	0.099
270.300	-36.509	0.099
270.400	-36.429	0.099
270.500	-28.634	0.099
270.600	-23.377	0.099
270.700	-31.083	0.099
270.800	-41.641	0.099
270.900	-46.123	0.099
271.000	-37.367	0.099
271.100	-43.497	0.099
271.200	-38.901	0.099
271.300	-38.044	0.099
271.400	-34.783	0.099
271.500	-25.734	0.099
271.600	-49.826	0.099
271.700	-24.645	0.099
271.800	-42.843	0.099
271.900	-41.545	0.099
272.000	-39.470	0.099
272.100	-31.518	0.099
272.200	-41.415	0.099
272.300	-35.906	0.099
272.400	-43.682	0.099
272.500	-43.265	0.099
272.600	-52.232	0.099
272.700	-38.038	0.099
272.800	-48.794	0.099
272.900	-30.108	0.099
273.000	-17.166	0.099
273.100	-36.407	0.099
273.200	-16.384	0.099
273.300	-43.477	0.099
273.400	-45.970	0.099
273.500	-39.464	0.099
273.600	-42.973	0.099
273.700	-45.168	0.099
273.800	-34.311	0.099
273.900	-33.629	0.099
274.000	-23.697	0.099
274.100	-41.043	0.099
274.200	-45.493	0.099
274.300	-39.162	0.099
274.400	-24.627	0.099
274.500	-44.028	0.099
274.600	-39.856	0.099
274.700	-31.881	0.099
274.800	-45.860	0.099
274.900	-19.382	0.099
275.000	-35.363	0.099
275.100	-32.754	0.099
275.200	-34.511	0.099
275.300	-31.614	0.099
275.400	-48.804	0.099
275.500	-47.729	0.099
275.600	-43.227	0.099
275.700	-35.414	0.099
275.800	-33.753	0.099
275.900	-31.179	0.099
276.000	-41.842	0.099
276.100	-39.393	0.099
276.200	-7.770	0.099
276.300	-65.597	0.099
276.400	-16.227	0.099
276.500	-40.488	0.099
276.600	-42.919	0.099
276.700	-38.024	0.099
276.800	-51.518	0.099
276.900	-40.147	0.099
277.000	-34.060	0.099
277.100	-50.385	0.099
277.200	-18.260	0.099
277.300	-53.379	0.099
277.400	-34.395	0.099
277.500	-39.210	0.099
277.600	-32.957	0.099
277.700	-38.374	0.099
277.800	-51.164	0.099
277.900	-32.888	0.100
278.000	-49.652	0.100
278.100	-38.088	0.100
278.200	-33.628	0.100
278.300	-35.135	0.100
278.400	-39.553	0.100
278.500	-37.869	0.100
278.600	-43.249	0.100
278.700	-43.495	0.100
278.800	-29.842	0.100
278.900	-57.232	0.100
279.000	-26.701	0.100
279.100	-41.256	0.100
279.200	-51.435	0.100
279.300	-22.110	0.100
279.400	-39.981	0.100
279.500	-49.691	0.100
279.600	-32.132	0.100
279.700	-37.396	0.100
279.800	-48.800	0.100
279.900	-41.470	0.100
280.000	-26.228	0.100
280.100	-39.502	0.100
280.200	-34.473	0.100
280.300	-38.282	0.100
280.400	-33.402	0.100
280.500	-30.000	0.100
280.600	-39.086	0.100
280.700	-34.096	0.100
280.800	-32.159	0.100
280.900	-57.699	0.100
281.000	-53.492	0.100
281.100	-27.389	0.100
281.200	-35.914	0.100
281.300	-47.557	0.100
281.400	-31.521	0.100
281.500	-39.464	0.100
281.600	-38.575	0.100
281.700	-31.398	0.100
281.800	-53.345	0.100
281.900	-35.591	0.100
282.000	-33.290	0.100
282.100	-40.760	0.100
282.200	-38.404	0.100
282.300	-31.297	0.100
282.400	-36.043	0.100
282.500	-38.639	0.100
282.600	-26.971	0.100
282.700	-51.375	0.100
282.800	-38.692	0.100
282.900	-36.541	0.100
283.000	-35.861	0.100
283.100	-20.353	0.100
283.200	-30.966	0.100
283.300	-40.852	0.100
283.400	-32.023	0.100
283.500	-34.672	0.100
283.600	-37.300	0.100
283.700	-26.712	0.100
283.800	-28.793	0.100
283.900	-58.122	0.100
284.000	-35.538	0.100
284.100	-38.903	0.100
284.200	-38.625	0.100
284.300	-24.903	0.100
284.400	-43.234	0.100
284.500	-40.476	0.100
284.600	-26.403	0.100
284.700	-24.302	0.100
284.800	-40.001	0.100
284.900	-26.431	0.100
285.000	-41.825	0.100
285.100	-56.831	0.100
285.200	-17.230	0.100
285.300	-50.912	0.100
285.400	-54.639	0.100
285.500	-37.864	0.100
285.600	-37.573	0.100
285.700	-42.989	0.100
285.800	-26.665	0.100
285.900	-40.434	0.100
286.000	-29.912	0.100
286.100	-41.376	0.100
286.200	-33.593	0.100
286.300	-32.724	0.100
286.400	-34.267	0.100
286.500	-31.277	0.100
286.600	-36.633	0.100
286.700	-46.422	0.100
286.800	-45.862	0.100
286.900	-29.610	0.100
287.000	-38.745	0.100
287.100	-35.852	0.100
287.200	-39.568	0.100
287.300	-28.830	0.100
287.400	-35.115	0.100
287.500	-35.694	0.100
287.600	-42.014	0.100
287.700	-58.755	0.100
287.800	-39.283	0.100
287.900	-33.597	0.100
288.000	-48.622	0.100
288.100	-33.610	0.100
288.200	-39.216	0.100
288.300	-23.586	0.100
288.400	-35.323	0.100
288.500	-40.072	0.100
288.600	-31.281	0.100
288.700	-24.573	0.100
288.800	-45.478	0.100
288.900	-37.728	0.100
289.000	-3.415	0.100
289.100	-44.085	0.100
289.200	-29.858	0.100
289.300	-14.489	0.100
289.400	-59.304	0.100
289.500	-44.133	0.100
289.600	-46.826	0.100
289.700	-16.121	0.100
289.800	-39.808	0.100
289.900	-49.822	0.100
290.000	-37.927	0.100
290.100	-23.334	0.100
290.200	-29.008	0.100
290.300	-41.064	0.100
290.400	-14.614	0.100
290.500	-37.924	0.100
290.600	-62.374	0.100
290.700	-59.152	0.100
290.800	-35.866	0.100
290.900	-65.502	0.100
291.000	-47.067	0.100
291.100	-32.043	0.100
291.200	-29.046	0.100
291.300	-16.365	0.100
291.400	-29.512	0.100
291.500	-26.950	0.100
291.600	-37.487	0.100
291.700	-23.058	0.100
291.800	-28.933	0.100
291.900	-32.575	0.100
292.000	-49.481	0.100
292.100	-29.842	0.100
292.200	-19.928	0.100
292.300	-28.586	0.100
292.400	-32.892	0.100
292.500	-7.976	0.100
292.600	-47.938	0.100
292.700	-55.829	0.100
292.800	-27.592	0.100
292.900	-27.364	0.100
293.000	-58.457	0.100
293.100	-30.997	0.100
293.200	-30.567	0.100
293.300	-23.535	0.100
293.400	-41.727	0.100
293.500	-22.101	0.100
293.600	-36.073	0.100
293.700	-32.386	0.100
293.800	-33.753	0.100
293.900	-30.043	0.100
294.000	-33.122	0.100
294.100	-43.022	0.100
294.200	-57.473	0.100
294.300	-35.482	0.100
294.400	-30.702	0.100
294.500	-34.074	0.100
294.600	-40.061	0.100
294.700	-34.019	0.100
294.800	-36.585	0.100
294.900	-30.695	0.100
295.000	-43.048	0.100
295.100	-36.859	0.100
295.200	-28.800	0.100
295.300	-27.991	0.100
295.400	-34.192	0.100
295.500	-31.152	0.100
295.600	-37.409	0.100
295.700	-35.621	0.100
295.800	-35.528	0.100
295.900	-33.651	0.100
296.000	-8.916	0.100
296.100	-47.636	0.100
296.200	-45.115	0.100
296.300	-31.702	0.100
296.400	-27.687	0.100
296.500	-37.746	0.100
296.600	-28.130	0.100
296.700	-44.619	0.100
296.800	-29.040	0.100
296.900	-40.602	0.100
297.000	-40.605	0.100
297.100	-31.229	0.100
297.200	-34.237	0.100
297.300	-30.526	0.100
297.400	-26.949	0.100
297.500	-43.167	0.100
297.600	-51.550	0.100
297.700	-19.014	0.100
297.800	-34.928	0.100
297.900	-27.768	0.100
298.000	-24.827	0.100
298.100	-22.999	0.100
298.200	-56.928	0.100
298.300	-22.848	0.100
298.400	-21.117	0.100
298.500	-33.660	0.100
298.600	-20.268	0.100
298.700	-21.269	0.100
298.800	-38.311	0.100
298.900	-26.011	0.100
299.000	-34.016	0.100
299.100	-25.238	0.100
299.200	-19.467	0.100
299.300	-24.844	0.100
299.400	-37.791	0.100
299.500	-39.633	0.100
299.600	-58.078	0.100
299.700	-29.200	0.100
299.800	-27.331	0.100
299.900	-16.555	0.100
300.000	-39.738	0.100
300.100	-17.259	0.100
300.200	-33.818	0.100
300.300	-31.638	0.100
300.400	-18.995	0.100
300.500	-59.201	0.100
300.600	-35.584	0.100
300.700	-22.061	0.100
300.800	-37.978	0.100
300.900	-19.119	0.100
301.000	-13.835	0.100
301.100	-47.368	0.100
301.200	-29.182	0.100
301.300	-21.881	0.100
301.400	-43.488	0.100
301.500	-38.306	0.100
301.600	-24.325	0.100
301.700	-22.530	0.100
301.800	-43.333	0.100
301.900	-49.726	0.100
302.000	-41.565	0.100
302.100	-2.972	0.100
302.200	-35.588	0.100
302.300	-41.992	0.100
302.400	-36.758	0.100
302.500	-40.936	0.100
302.600	-29.152	0.100
302.700	-27.809	0.100
302.800	-32.153	0.100
302.900	-38.975	0.100
303.000	-28.159	0.100
303.100	-22.427	0.100
303.200	-37.675	0.100
303.300	-31.895	0.100
303.400	-48.279	0.100
303.500	-44.065	0.100
303.600	-22.789	0.100
303.700	-43.549	0.100
303.800	-30.503	0.100
303.900	-26.573	0.100
304.000	-26.500	0.100
304.100	-27.581	0.100
304.200	-31.069	0.100
304.300	-57.260	0.100
304.400	-35.851	0.100
304.500	-24.790	0.100
304.600	-30.080	0.100
304.700	-29.018	0.100
304.800	-38.271	0.100
304.900	-19.172	0.100
305.000	-12.396	0.100
305.100	-26.697	0.100
305.200	-30.310	0.100
305.300	-35.191	0.100
305.400	-37.229	0.100
305.500	-58.114	0.100
305.600	-24.833	0.100
305.700	-27.509	0.100
305.800	-40.218	0.100
305.900	-8.920	0.100
306.000	-27.655	0.100
306.100	-33.294	0.100
306.200	-29.574	0.100
306.300	-35.806	0.100
306.400	-34.663	0.100
306.500	-13.164	0.100
306.600	-17.643	0.100
306.700	-47.700	0.100
306.800	-29.205	0.100
306.900	-29.132	0.100
307.000	-25.759	0.100
307.100	-42.350	0.100
307.200	-47.174	0.100
307.300	-31.620	0.100
307.400	-14.801	0.100
307.500	-42.764	0.100
307.600	-27.057	0.100
307.700	-24.593	0.100
307.800	-50.359	0.100
307.900	-26.193	0.100
308.000	-26.642	0.100
308.100	-31.463	0.100
308.200	-36.440	0.100
308.300	-19.348	0.100
308.400	-43.823	0.100
308.500	-29.811	0.100
308.600	-35.166	0.100
308.700	-41.990	0.100
308.800	-20.656	0.100
308.900	-22.628	0.100
309.000	-31.516	0.100
309.100	-31.344	0.100
309.200	-24.894	0.100
309.300	-39.792	0.100
309.400	-37.273	0.100
309.500	-36.873	0.100
309.600	-29.268	0.100
309.700	-21.611	0.100
309.800	-18.758	0.100
309.900	-41.081	0.100
310.000	-40.062	0.100
310.100	-17.908	0.100
310.200	-39.427	0.100
310.300	-20.574	0.100
310.400	-28.923	0.100
310.500	-17.562	0.100
310.600	-17.614	0.100
310.700	-30.791	0.100
310.800	-39.773	0.100
310.900	-29.199	0.100
311.000	-25.940	0.100
311.100	-20.622	0.100
311.200	-28.576	0.100
311.300	-32.527	0.100
311.400	-19.653	0.100
311.500	-24.880	0.100
311.600	-28.885	0.100
311.700	-33.049	0.100
311.800	-18.050	0.100
311.900	-38.404	0.100
312.000	-25.222	0.100
312.100	-29.078	0.100
312.200	-18.096	0.100
312.300	-23.241	0.100
312.400	-37.934	0.100
312.500	-38.461	0.100
312.600	-24.244	0.100
312.700	-43.545	0.100
312.800	-22.463	0.100
312.900	-29.774	0.100
313.000	-28.723	0.100
313.100	-46.096	0.100
313.200	-18.027	0.100
313.300	-33.217	0.100
313.400	-34.311	0.100
313.500	-19.128	0.100
313.600	-25.082	0.100
313.700	-32.339	0.100
313.800	-30.050	0.100
313.900	-29.614	0.100
314.000	-30.982	0.100
314.100	-27.254	0.100
314.200	-29.307	0.100
314.300	-20.388	0.100
314.400	-18.547	0.100
314.500	-40.316	0.100
314.600	-36.696	0.100
314.700	-19.224	0.100
314.800	-26.923	0.100
314.900	-42.150	0.100
315.000	-37.146	0.100
315.100	-26.243	0.100
315.200	-13.619	0.100
315.300	-28.014	0.100
315.400	-51.855	0.100
315.500	-25.978	0.100
315.600	-30.959	0.100
315.700	-18.900	0.100
315.800	-21.605	0.100
315.900	-15.282	0.100
316.000	-37.947	0.100
316.100	-24.355	0.100
316.200	-21.068	0.100
316.300	-22.366	0.100
316.400	-29.681	0.100
316.500	-5.460	0.100
316.600	-34.984	0.100
316.700	-35.920	0.100
316.800	-31.002	0.100
316.900	-27.543	0.100
317.000	-35.106	0.100
317.100	-37.637	0.100
317.200	-33.796	0.100
317.300	-17.806	0.100
317.400	-30.005	0.100
317.500	-34.422	0.100
317.600	-36.208	0.100
317.700	-27.483	0.100
317.800	-28.946	0.100
317.900	-28.758	0.100
318.000	-16.542	0.100
318.100	-20.694	0.100
318.200	-37.426	0.100
318.300	-30.422	0.100
318.400	-44.227	0.100
318.500	-24.017	0.100
318.600	-26.857	0.100
318.700	-26.084	0.100
318.800	-24.597	0.100
318.900	-38.144	0.100
319.000	-8.640	0.100
319.100	-20.437	0.100
319.200	-30.109	0.100
319.300	-31.784	0.100
319.400	-22.497	0.100
319.500	-28.809	0.100
319.600	-24.692	0.100
319.700	-19.305	0.100
319.800	-29.364	0.100
319.900	-41.733	0.100
320.000	-12.585	0.100
320.100	-20.127	0.100
320.200	-18.909	0.100
320.300	-11.402	0.100
320.400	-33.130	0.100
320.500	-29.885	0.100
320.600	-40.950	0.100
320.700	-22.397	0.100
320.800	-15.208	0.100
320.900	-41.020	0.100
321.000	-34.134	0.100
321.100	-7.813	0.100
321.200	-18.262	0.100
321.300	-33.342	0.100
321.400	-13.582	0.100
321.500	-39.660	0.100
321.600	-20.307	0.100
321.700	-30.807	0.100
321.800	-29.224	0.100
321.900	-32.582	0.100
322.000	-31.359	0.100
322.100	-47.144	0.100
322.200	-29.057	0.100
322.300	-1.457	0.100
322.400	-35.646	0.100
322.500	-28.740	0.100
322.600	-15.427	0.100
322.700	-37.012	0.100
322.800	-35.787	0.100
322.900	-34.186	0.100
323.000	-18.439	0.100
323.100	-27.192	0.100
323.200	-35.431	0.100
323.300	-42.719	0.100
323.400	-23.909	0.100
323.500	-26.041	0.100
323.600	-10.728	0.100
323.700	-24.755	0.100
323.800	-23.782	0.100
323.900	-26.339	0.100
324.000	-27.764	0.100
324.100	-23.577	0.100
324.200	-23.420	0.100
324.300	-28.301	0.100
324.400	-22.826	0.100
324.500	-26.929	0.100
324.600	-21.864	0.100
324.700	-26.783	0.100
324.800	-18.429	0.100
324.900	-27.869	0.100
325.000	-30.073	0.100
325.100	-51.025	0.100
325.200	-21.012	0.100
325.300	-31.627	0.100
325.400	-15.887	0.100
325.500	-17.063	0.100
325.600	-37.325	0.100
325.700	-30.960	0.100
325.800	-8.699	0.100
325.900	-26.467	0.100
326.000	-43.810	0.100
326.100	-23.111	0.100
326.200	-35.464	0.100
326.300	-19.438	0.100
326.400	-7.541	0.100
326.500	-47.599	0.100
326.600	-20.830	0.100
326.700	-12.462	0.100
326.800	-21.465	0.100
326.900	-23.447	0.100
327.000	-14.764	0.100
327.100	-32.361	0.100
327.200	-15.582	0.100
327.300	-19.690	0.100
327.400	-23.774	0.100
327.500	-13.628	0.100
327.600	-14.736	0.100
327.700	-28.305	0.100
327.800	-21.550	0.100
327.900	-25.797	0.100
328.000	-31.575	0.100
328.100	-13.572	0.100
328.200	-34.295	0.100
328.300	-18.247	0.100
328.400	-30.606	0.100
328.500	-34.710	0.100
328.600	-23.878	0.100
328.700	-17.870	0.100
328.800	-13.658	0.100
328.900	-31.259	0.100
329.000	-22.226	0.100
329.100	-21.859	0.100
329.200	-17.660	0.100
329.300	-15.607	0.100
329.400	-45.603	0.100
329.500	-30.290	0.100
329.600	-21.043	0.100
329.700	-26.619	0.100
329.800	-17.941	0.100
329.900	-8.570	0.100
330.000	-37.276	0.100
330.100	-24.334	0.100
330.200	-24.736	0.100
330.300	-17.399	0.100
330.400	-5.800	0.100
330.500	5.822	0.100
330.600	0.192	0.100
330.700	9.388	0.100
330.800	20.136	0.100
330.900	10.052	0.100
331.000	23.635	0.100
331.100	34.592	0.100
331.200	28.370	0.100
331.300	63.987	0.100
331.400	44.120	0.100
331.500	50.882	0.100
331.600	38.484	0.100
331.700	39.522	0.100
331.800	43.621	0.100
331.900	55.058	0.100
332.000	51.789	0.100
332.100	47.505	0.100
332.200	48.666	0.100
332.300	45.071	0.100
332.400	53.305	0.100
332.500	57.226	0.100
332.600	42.581	0.100
332.700	47.498	0.100
332.800	60.276	0.100
332.900	58.972	0.100
333.000	33.794	0.100
333.100	58.111	0.100
333.200	50.753	0.100
333.300	59.033	0.100
333.400	67.412	0.100
333.500	71.937	0.100
333.600	21.031	0.100
333.700	30.310	0.100
333.800	46.859	0.100
333.900	47.734	0.100
334.000	39.722	0.100
334.100	44.231	0.100
334.200	65.860	0.100
334.300	47.950	0.100
334.400	22.800	0.100
334.500	50.620	0.100
334.600	46.695	0.100
334.700	40.444	0.100
334.800	46.289	0.100
334.900	44.289	0.100
335.000	38.440	0.100
335.100	51.869	0.100
335.200	48.214	0.100
335.300	39.003	0.100
335.400	37.879	0.100
335.500	21.861	0.100
335.600	39.089	0.100
335.700	48.248	0.100
335.800	31.890	0.100
335.900	34.552	0.100
336.000	29.706	0.100
336.100	61.931	0.100
336.200	35.126	0.100
336.300	43.178	0.100
336.400	46.228	0.100
336.500	33.915	0.100
336.600	72.139	0.100
336.700	38.510	0.100
336.800	63.179	0.100
336.900	69.602	0.100
337.000	43.679	0.100
337.100	54.833	0.100
337.200	58.060	0.100
337.300	49.371	0.100
337.400	51.666	0.100
337.500	52.714	0.100
337.600	55.388	0.100
337.700	65.959	0.100
337.800	79.388	0.100
337.900	55.261	0.100
338.000	68.419	0.100
338.100	63.419	0.100
338.200	63.629	0.100
338.300	70.099	0.100
338.400	73.684	0.100
338.500	60.113	0.100
338.600	62.895	0.100
338.700	74.610	0.100
338.800	75.019	0.100
338.900	84.368	0.100
339.000	88.965	0.100
339.100	74.825	0.100
339.200	84.916	0.100
339.300	73.213	0.100
339.400	90.708	0.100
339.500	93.804	0.100
339.600	83.275	0.100
339.700	78.325	0.100
339.800	91.838	0.100
339.900	86.472	0.100
340.000	77.886	0.100
340.100	91.009	0.100
340.200	100.297	0.100
340.300	79.923	0.100
340.400	81.442	0.100
340.500	94.920	0.100
340.600	106.079	0.100
340.700	91.447	0.100
340.800	91.935	0.100
340.900	84.037	0.100
341.000	100.619	0.100
341.100	69.919	0.100
341.200	95.449	0.100
341.300	110.701	0.100
341.400	78.109	0.100
341.500	90.172	0.100
341.600	111.279	0.100
341.700	96.443	0.100
341.800	108.213	0.100
341.900	112.512	0.100
342.000	107.508	0.100
342.100	100.284	0.100
342.200	115.051	0.100
342.300	93.909	0.100
342.400	101.542	0.100
342.500	99.613	0.100
342.600	112.181	0.100
342.700	112.044	0.100
342.800	103.698	0.100
342.900	107.382	0.100
343.000	125.354	0.100
343.100	109.314	0.100
343.200	113.189	0.100
343.300	123.229	0.100
343.400	118.926	0.100
343.500	102.004	0.100
343.600	129.839	0.100
343.700	120.825	0.100
343.800	109.258	0.100
343.900	131.195	0.100
344.000	102.136	0.100
344.100	110.251	0.100
344.200	126.490	0.100
344.300	116.873	0.100
344.400	113.840	0.100
344.500	123.590	0.100
344.600	121.990	0.100
344.700	114.243	0.100
344.800	95.061	0.100
344.900	111.997	0.100
345.000	109.100	0.100
345.100	118.739	0.100
345.200	133.967	0.100
345.300	128.594	0.100
345.400	134.202	0.100
345.500	121.764	0.100
345.600	108.616	0.100
345.700	113.125	0.100
345.800	116.267	0.100
345.900	121.060	0.100
346.000	116.378	0.100
346.100	126.827	0.100
346.200	110.298	0.100
346.300	124.891	0.100
346.400	124.944	0.100
346.500	120.414	0.100
346.600	124.522	0.100
346.700	98.633	0.100
346.800	103.205	0.100
346.900	127.709	0.100
347.000	119.696	0.100
347.100	120.880	0.100
347.200	121.631	0.100
347.300	109.754	0.100
347.400	105.408	0.100
347.500	97.880	0.100
347.600	112.993	0.100
347.700	124.519	0.100
347.800	113.596	0.100
347.900	108.617	0.100
348.000	122.164	0.100
348.100	108.133	0.100
348.200	121.436	0.100
348.300	124.901	0.100
348.400	103.967	0.100
348.500	99.874	0.100
348.600	112.598	0.100
348.700	112.075	0.100
348.800	117.570	0.100
348.900	108.619	0.100
349.000	84.539	0.100
349.100	125.762	0.100
349.200	115.269	0.100
349.300	88.078	0.100
349.400	136.379	0.100
349.500	134.388	0.100
349.600	103.736	0.100
349.700	112.755	0.100
349.800	99.339	0.100
349.900	116.232	0.100
350.000	118.718	0.100
350.100	118.750	0.100
350.200	97.510	0.100
350.300	113.531	0.100
350.400	116.383	0.100
350.500	101.375	0.100
350.600	111.350	0.100
350.700	120.139	0.100
350.800	94.615	0.100
350.900	116.312	0.100
351.000	107.842	0.100
351.100	119.524	0.100
351.200	119.715	0.100
351.300	98.444	0.100
351.400	109.260	0.100
351.500	94.111	0.100
351.600	115.786	0.100
351.700	95.596	0.100
351.800	112.234	0.100
351.900	110.447	0.100
352.000	103.871	0.100
352.100	113.926	0.100
352.200	117.074	0.100
352.300	100.607	0.100
352.400	105.188	0.100
352.500	106.707	0.100
352.600	97.739	0.100
352.700	115.768	0.100
352.800	93.533	0.100
352.900	126.048	0.100
353.000	122.600	0.100
353.100	106.865	0.100
353.200	94.819	0.100
353.300	130.341	0.100
353.400	114.033	0.100
353.500	87.475	0.100
353.600	105.336	0.100
353.700	105.817	0.100
353.800	100.115	0.100
353.900	97.710	0.100
354.000	120.061	0.100
354.100	124.418	0.100
354.200	108.559	0.100
354.300	90.685	0.100
354.400	101.638	0.100
354.500	96.819	0.100
354.600	74.841	0.100
354.700	101.238	0.100
354.800	122.327	0.100
354.900	109.730	0.100
355.000	116.600	0.100
355.100	96.935	0.100
355.200	101.233	0.100
355.300	116.517	0.100
355.400	96.941	0.100
355.500	109.157	0.100
355.600	122.487	0.100
355.700	115.734	0.100
355.800	106.390	0.100
355.900	114.585	0.100
356.000	89.829	0.100
356.100	101.053	0.100
356.200	113.699	0.100
356.300	110.229	0.100
356.400	98.287	0.100
356.500	110.187	0.100
356.600	89.496	0.100
356.700	105.448	0.100
356.800	110.266	0.100
356.900	106.798	0.100
357.000	116.430	0.100
357.100	113.934	0.100
357.200	83.378	0.100
357.300	110.630	0.100
357.400	104.206	0.100
357.500	112.225	0.100
357.600	99.050	0.100
357.700	102.338	0.100
357.800	90.501	0.100
357.900	113.892	0.100
358.000	102.387	0.100
358.100	89.818	0.100
358.200	97.266	0.100
358.300	104.272	0.100
358.400	115.979	0.100
358.500	92.789	0.100
358.600	104.093	0.100
358.700	97.576	0.100
358.800	114.310	0.100
358.900	119.868	0.100
359.000	97.307	0.100
359.100	116.129	0.100
359.200	83.713	0.100
359.300	88.227	0.100
359.400	115.949	0.100
359.500	87.076	0.100
359.600	89.602	0.100
359.700	113.513	0.100
359.800	108.944	0.100
359.900	98.202	0.100
360.000	116.662	0.100
360.100	103.816	0.100
360.200	99.114	0.100
360.300	109.350	0.100
360.400	100.855	0.100
360.500	96.798	0.100
360.600	93.335	0.100
360.700	93.629	0.100
360.800	124.801	0.100
360.900	130.863	0.100
361.000	92.099	0.100
361.100	115.058	0.100
361.200	103.850	0.100
361.300	94.285	0.100
361.400	94.434	0.100
361.500	94.335	0.100
361.600	121.569	0.100
361.700	95.031	0.100
361.800	105.366	0.100
361.900	93.068	0.100
362.000	92.069	0.100
362.100	99.531	0.100
362.200	103.199	0.100
362.300	119.221	0.100
362.400	99.726	0.100
362.500	99.087	0.100
362.600	98.480	0.100
362.700	98.245	0.100
362.800	86.535	0.100
362.900	115.305	0.100
363.000	114.984	0.100
363.100	110.081	0.100
363.200	108.506	0.100
363.300	99.248	0.100
363.400	84.317	0.100
363.500	92.926	0.100
363.600	88.829	0.100
363.700	102.445	0.100
363.800	115.955	0.100
363.900	96.869	0.100
364.000	100.192	0.100
364.100	108.844	0.100
364.200	86.772	0.100
364.300	101.938	0.100
364.400	99.490	0.100
364.500	85.684	0.100
364.600	116.865	0.100
364.700	106.696	0.100
364.800	89.581	0.100
364.900	92.698	0.100
365.000	112.079	0.100
365.100	108.591	0.100
365.200	104.823	0.100
365.300	102.135	0.100
365.400	96.195	0.100
365.500	110.174	0.100
365.600	109.158	0.100
365.700	78.859	0.100
365.800	106.351	0.100
365.900	89.017	0.100
366.000	92.240	0.100
366.100	103.115	0.100
366.200	107.079	0.100
366.300	107.781	0.100
366.400	114.885	0.100
366.500	104.892	0.100
366.600	75.496	0.100
366.700	111.940	0.100
366.800	99.807	0.100
366.900	97.105	0.100
367.000	111.026	0.100
367.100	77.690	0.100
367.200	102.077	0.100
367.300	102.064	0.100
367.400	106.152	0.100
367.500	102.786	0.100
367.600	97.426	0.100
367.700	83.338	0.100
367.800	118.135	0.100
367.900	112.035	0.100
368.000	91.776	0.100
368.100	99.944	0.100
368.200	110.444	0.100
368.300	81.101	0.100
368.400	93.345	0.100
368.500	114.279	0.100
368.600	92.072	0.100
368.700	99.454	0.100
368.800	94.159	0.100
368.900	85.144	0.100
369.000	100.395	0.100
369.100	98.929	0.100
369.200	93.170	0.100
369.300	101.965	0.100
369.400	103.032	0.100
369.500	96.558	0.100
369.600	97.858	0.100
369.700	98.606	0.100
369.800	103.258	0.100
369.900	101.599	0.100
370.000	96.409	0.100
370.100	90.588	0.100
370.200	102.670	0.100
370.300	94.941	0.100
370.400	101.966	0.100
370.500	105.707	0.100
370.600	96.947	0.100
370.700	98.559	0.100
370.800	98.294	0.100
370.900	98.592	0.100
371.000	99.786	0.100
371.100	92.791	0.100
371.200	91.735	0.100
371.300	93.560	0.100
371.400	115.341	0.100
371.500	92.333	0.100
371.600	87.004	0.100
371.700	101.304	0.100
371.800	95.845	0.100
371.900	84.461	0.100
372.000	93.664	0.100
372.100	92.232	0.100
372.200	91.427	0.100
372.300	101.271	0.100
372.400	93.096	0.100
372.500	98.967	0.100
372.600	95.387	0.100
372.700	92.367	0.100
372.800	108.554	0.100
372.900	109.529	0.100
373.000	83.826	0.100
373.100	100.757	0.100
373.200	94.728	0.100
373.300	100.354	0.100
373.400	105.549	0.100
373.500	112.680	0.100
373.600	90.827	0.100
373.700	106.385	0.100
373.800	82.033	0.100
373.900	89.848	0.100
374.000	104.078	0.100
374.100	106.617	0.100
374.200	98.903	0.100
374.300	88.966	0.100
374.400	92.176	0.100
374.500	73.176	0.100
374.600	108.711	0.100
374.700	93.656	0.100
374.800	101.052	0.100
374.900	100.276	0.100
375.000	88.536	0.100
375.100	94.717	0.100
375.200	111.845	0.100
375.300	77.143	0.100
375.400	108.367	0.100
375.500	104.364	0.100
375.600	109.051	0.100
375.700	91.496	0.100
375.800	107.420	0.100
375.900	90.825	0.100
376.000	101.413	0.100
376.100	98.461	0.100
376.200	100.221	0.100
376.300	102.588	0.100
376.400	97.957	0.100
376.500	75.656	0.100
376.600	89.264	0.100
376.700	107.599	0.100
376.800	90.032	0.100
376.900	102.614	0.100
377.000	103.139	0.100
377.100	92.262	0.100
377.200	106.846	0.100
377.300	103.270	0.100
377.400	98.622	0.100
377.500	100.965	0.100
377.600	101.766	0.100
377.700	98.004	0.100
377.800	106.702	0.100
377.900	103.311	0.100
378.000	82.353	0.100
378.100	106.569	0.100
378.200	84.323	0.100
378.300	118.629	0.100
378.400	96.673	0.100
378.500	93.370	0.100
378.600	106.856	0.100
378.700	119.169	0.100
378.800	83.924	0.100
378.900	92.870	0.100
379.000	100.292	0.100
379.100	90.748	0.100
379.200	91.896	0.100
379.300	85.047	0.100
379.400	101.407	0.100
379.500	111.201	0.100
379.600	105.845	0.100
379.700	101.300	0.100
379.800	92.971	0.100
379.900	96.151	0.100
380.000	92.820	0.100
380.100	96.007	0.100
380.200	78.593	0.100
380.300	80.738	0.100
380.400	122.552	0.100
380.500	94.713	0.100
380.600	98.812	0.100
380.700	97.685	0.100
380.800	94.731	0.100
380.900	89.886	0.100
381.000	117.769	0.100
381.100	101.609	0.100
381.200	101.954	0.100
381.300	94.314	0.100
381.400	92.953	0.100
381.500	98.271	0.100
381.600	97.726	0.100
381.700	102.964	0.100
381.800	100.497	0.100
381.900	97.535	0.100
382.000	74.852	0.100
382.100	109.919	0.100
382.200	111.434	0.100
382.300	101.330	0.100
382.400	85.496	0.100
382.500	96.705	0.100
382.600	91.848	0.100
382.700	103.195	0.100
382.800	94.754	0.100
382.900	84.757	0.100
383.000	100.372	0.100
383.100	102.511	0.100
383.200	102.544	0.100
383.300	107.900	0.100
383.400	98.536	0.100
383.500	89.255	0.100
383.600	104.755	0.100
383.700	90.923	0.100
383.800	112.602	0.100
383.900	82.996	0.100
384.000	92.875	0.100
384.100	114.337	0.100
384.200	92.357	0.100
384.300	84.907	0.100
384.400	113.362	0.100
384.500	102.379	0.100
384.600	99.549	0.100
384.700	104.308	0.100
384.800	108.414	0.100
384.900	91.889	0.100
385.000	83.682	0.100
385.100	94.508	0.100
385.200	94.169	0.100
385.300	102.650	0.100
385.400	99.935	0.100
385.500	84.595	0.100
385.600	86.422	0.100
385.700	101.874	0.100
385.800	102.799	0.100
385.900	102.878	0.100
386.000	97.067	0.100
386.100	81.694	0.100
386.200	91.777	0.100
386.300	99.144	0.100
386.400	105.868	0.100
386.500	90.793	0.100
386.600	88.846	0.100
386.700	89.011	0.100
386.800	90.068	0.100
386.900	105.446	0.100
387.000	94.339	0.100
387.100	98.960	0.100
387.200	85.362	0.100
387.300	85.803	0.100
387.400	125.656	0.100
387.500	86.441	0.100
387.600	75.771	0.100
387.700	92.021	0.100
387.800	104.317	0.099
387.900	91.208	0.100
388.000	112.264	0.100
388.100	100.243	0.100
388.200	97.555	0.100
388.300	86.860	0.100
388.400	104.268	0.100
388.500	95.286	0.100
388.600	94.678	0.100
388.700	89.547	0.100
388.800	84.410	0.100
388.900	120.981	0.100
389.000	85.567	0.100
389.100	96.685	0.100
389.200	101.963	0.100
389.300	83.220	0.100
389.400	105.852	0.100
389.500	94.289	0.100
389.600	84.708	0.100
389.700	85.262	0.100
389.800	101.950	0.100
389.900	98.633	0.100
390.000	82.340	0.100
390.100	90.006	0.100
390.200	77.125	0.100
390.300	77.107	0.100
390.400	79.481	0.100
390.500	43.575	0.100
390.600	67.253	0.100
390.700	58.947	0.100
390.800	52.481	0.100
390.900	52.421	0.100
391.000	26.491	0.100
391.100	19.396	0.100
391.200	42.312	0.100
391.300	32.619	0.100
391.400	7.325	0.100
391.500	6.756	0.100
391.600	20.810	0.100
391.700	11.694	0.100
391.800	9.247	0.100
391.900	3.079	0.100
392.000	8.354	0.100
392.100	-0.770	0.100
392.200	-9.489	0.100
392.300	-2.810	0.100
392.400	1.535	0.100
392.500	-25.953	0.100
392.600	-18.820	0.100
392.700	-0.933	0.100
392.800	-16.816	0.100
392.900	-12.829	0.100
393.000	-10.196	0.100
393.100	-18.513	0.100
393.200	-20.840	0.100
393.300	-34.292	0.100
393.400	-17.514	0.100
393.500	-16.077	0.100
393.600	-7.736	0.100
393.700	-37.379	0.100
393.800	-22.552	0.100
393.900	-5.965	0.100
394.000	-42.936	0.100
394.100	-29.044	0.100
394.200	-28.949	0.100
394.300	-37.769	0.100
394.400	-31.237	0.100
394.500	-27.018	0.100
394.600	-26.090	0.100
394.700	-18.426	0.100
394.800	-27.810	0.100
394.900	-36.148	0.100
395.000	-18.565	0.100
395.100	-25.328	0.100
395.200	-44.199	0.100
395.300	-23.547	0.100
395.400	-18.799	0.100
395.500	-24.734	0.100
395.600	-14.777	0.100
395.700	-24.520	0.100
395.800	-37.082	0.100
395.900	-34.569	0.100
396.000	-45.726	0.100
396.100	-36.540	0.100
396.200	-29.866	0.100
396.300	-42.979	0.100
396.400	-24.411	0.100
396.500	-17.192	0.100
396.600	-48.548	0.100
396.700	-34.011	0.100
396.800	-18.259	0.100
396.900	-31.902	0.100
397.000	-23.340	0.100
397.100	-24.725	0.100
397.200	-21.271	0.100
397.300	-33.904	0.100
397.400	-20.771	0.100
397.500	-28.636	0.100
397.600	-21.019	0.100
397.700	-20.906	0.100
397.800	-49.237	0.100
397.900	-13.282	0.100
398.000	-33.730	0.100
398.100	-45.549	0.100
398.200	-20.795	0.100
398.300	-21.578	0.100
398.400	-18.893	0.100
398.500	-19.899	0.100
398.600	-20.830	0.100
398.700	-47.801	0.100
398.800	-26.339	0.100
398.900	-5.558	0.100
399.000	-27.521	0.100
399.100	-32.463	0.100
399.200	-42.219	0.100
399.300	-41.512	0.100
399.400	-34.405	0.100
399.500	-35.539	0.100
399.600	-14.236	0.100
399.700	-38.293	0.100
399.800	-26.415	0.100
399.900	-17.750	0.100
400.000	-26.472	0.100
400.100	-14.900	0.100
400.200	-37.871	0.100
400.300	-32.101	0.100
400.400	-49.381	0.100
400.500	-29.361	0.100
400.600	-20.252	0.100
400.700	-38.594	0.100
400.800	-35.489	0.100
400.900	-28.834	0.100
401.000	-23.675	0.100
401.100	-29.082	0.100
401.200	-21.956	0.100
401.300	-10.848	0.100
401.400	-26.290	0.100
401.500	-19.036	0.100
401.600	-31.876	0.100
401.700	-26.655	0.100
401.800	-23.472	0.099
401.900	-26.757	0.100
402.000	-36.188	0.100
402.100	-30.703	0.100
402.200	-36.568	0.100
402.300	-11.656	0.100
402.400	-35.963	0.100
402.500	-26.954	0.100
402.600	-29.409	0.100
402.700	-28.949	0.100
402.800	-29.942	0.100
402.900	-20.511	0.100
403.000	-28.662	0.100
403.100	-51.356	0.100
403.200	-16.185	0.100
403.300	-16.560	0.100
403.400	-15.508	0.100
403.500	-34.682	0.100
403.600	-31.948	0.100
403.700	-23.287	0.100
403.800	-22.799	0.100
403.900	-24.956	0.100
404.000	-40.366	0.100
404.100	-20.029	0.100
404.200	-32.697	0.100
404.300	-30.156	0.100
404.400	-40.488	0.100
404.500	-23.180	0.100
404.600	-24.654	0.100
404.700	-38.355	0.100
404.800	-44.416	0.100
404.900	-15.291	0.100
405.000	-39.620	0.100
405.100	-34.689	0.100
405.200	-29.938	0.100
405.300	-28.487	0.100
405.400	-45.874	0.100
405.500	-28.679	0.100
405.600	-25.474	0.100
405.700	-31.582	0.100
405.800	-27.450	0.100
405.900	-46.385	0.100
406.000	-50.767	0.100
406.100	-17.675	0.100
406.200	-29.263	0.099
406.300	-33.177	0.100
406.400	-42.191	0.100
406.500	-45.105	0.100
406.600	-41.674	0.100
406.700	-19.421	0.100
406.800	-19.757	0.100
406.900	-25.666	0.100
407.000	-35.298	0.100
407.100	-16.529	0.100
407.200	-43.949	0.100
407.300	-15.272	0.100
407.400	-35.360	0.100
407.500	-46.216	0.100
407.600	-36.784	0.100
407.700	-21.309	0.100
407.800	-42.534	0.100
407.900	-40.155	0.100
408.000	-35.572	0.100
408.100	-30.329	0.100
408.200	-41.622	0.100
408.300	-41.733	0.100
408.400	-19.035	0.100
408.500	-46.268	0.100
408.600	-35.975	0.100
408.700	-44.514	0.100
408.800	-34.859	0.100
408.900	-52.203	0.100
409.000	-32.964	0.100
409.100	-30.940	0.100
409.200	-43.399	0.100
409.300	-24.238	0.100
409.400	-42.693	0.100
409.500	-62.877	0.100
409.600	-42.715	0.100
409.700	-54.167	0.100
409.800	-20.279	0.100
409.900	-21.355	0.100
410.000	-39.927	0.100
410.100	-20.762	0.100
410.200	-30.904	0.100
410.300	-44.850	0.100
410.400	-46.578	0.100
410.500	-34.174	0.100
410.600	-36.965	0.100
410.700	-41.988	0.100
410.800	-29.390	0.100
410.900	-29.970	0.100
411.000	-38.871	0.100
411.100	-34.809	0.100
411.200	-55.056	0.100
411.300	-43.964	0.100
411.400	-27.117	0.100
411.500	-35.468	0.100
411.600	-42.747	0.100
411.700	-15.366	0.100
411.800	-49.003	0.100
411.900	-34.535	0.100
412.000	-38.335	0.100
412.100	-51.845	0.100
412.200	-42.169	0.100
412.300	-33.201	0.100
412.400	-43.268	0.100
412.500	-34.620	0.100
412.600	-45.871	0.100
412.700	-22.245	0.100
412.800	-40.419	0.100
412.900	-48.170	0.100
413.000	-44.664	0.100
413.100	-38.844	0.100
413.200	-27.536	0.100
413.300	-66.744	0.100
413.400	-28.165	0.100
413.500	-34.938	0.100
413.600	-37.096	0.100
413.700	-29.695	0.100
413.800	-26.656	0.100
413.900	-45.230	0.100
414.000	-32.660	0.100
414.100	-57.322	0.100
414.200	-49.037	0.100
414.300	-39.265	0.100
414.400	-28.957	0.100
414.500	-58.958	0.100
414.600	-37.891	0.100
414.700	-41.388	0.100
414.800	-38.720	0.100
414.900	-37.098	0.100
415.000	-47.247	0.100
415.100	-48.488	0.100
415.200	-37.030	0.100
415.300	-56.924	0.100
415.400	-25.981	0.100
415.500	-42.343	0.100
415.600	-38.490	0.100
415.700	-39.124	0.100
415.800	-48.598	0.100
415.900	-28.330	0.100
416.000	-43.347	0.100
416.100	-35.145	0.100
416.200	-44.997	0.100
416.300	-42.229	0.100
416.400	-32.655	0.100
416.500	-45.415	0.100
416.600	-46.041	0.100
416.700	-41.329	0.100
416.800	-34.132	0.100
416.900	-46.303	0.100
417.000	-35.510	0.100
417.100	-52.326	0.100
417.200	-49.287	0.100
417.300	-24.651	0.100
417.400	-48.463	0.100
417.500	-45.054	0.100
417.600	-63.036	0.100
417.700	-35.186	0.100
417.800	-31.481	0.100
417.900	-42.249	0.100
418.000	-46.717	0.100
418.100	-35.451	0.100
418.200	-48.729	0.100
418.300	-58.449	0.100
418.400	-55.927	0.100
418.500	-20.342	0.100
418.600	-45.562	0.100
418.700	-39.783	0.100
418.800	-35.114	0.100
418.900	-38.105	0.100
419.000	-60.511	0.100
419.100	-48.325	0.100
419.200	-42.675	0.100
419.300	-41.296	0.100
419.400	-57.054	0.100
419.500	-59.355	0.100
419.600	-29.576	0.100
419.700	-40.196	0.100
419.800	-37.104	0.100
419.900	-27.705	0.100
420.000	-58.714	0.100
420.100	-37.213	0.100
420.200	-20.534	0.100
420.300	-43.501	0.100
420.400	-40.593	0.100
420.500	-50.404	0.100
420.600	-57.509	0.100
420.700	-45.126	0.100
420.800	-74.902	0.100
420.900	-69.577	0.100
421.000	-24.012	0.100
421.100	-34.837	0.100
421.200	-57.345	0.100
421.300	-25.395	0.100
421.400	-29.111	0.100
421.500	-54.771	0.100
421.600	-48.289	0.100
421.700	-37.267	0.100
421.800	-51.917	0.100
421.900	-47.499	0.100
422.000	-49.467	0.100
422.100	-54.094	0.100
422.200	-33.273	0.100
422.300	-46.354	0.100
422.400	-47.900	0.100
422.500	-44.560	0.100
422.600	-48.641	0.100
422.700	-32.675	0.100
422.800	-45.339	0.100
422.900	-46.977	0.100
423.000	-38.725	0.100
423.100	-48.616	0.100
423.200	-49.013	0.100
423.300	-46.904	0.100
423.400	-50.694	0.100
423.500	-51.615	0.100
423.600	-38.422	0.100
423.700	-39.043	0.100
423.800	-47.392	0.100
423.900	-28.681	0.100
424.000	-42.923	0.100
424.100	-42.443	0.100
424.200	-38.998	0.100
424.300	-53.020	0.100
424.400	-60.308	0.100
424.500	-45.156	0.100
424.600	-48.655	0.100
424.700	-51.019	0.100
424.800	-43.679	0.100
424.900	-40.679	0.100
425.000	-67.640	0.100
425.100	-34.466	0.100
425.200	-45.478	0.100
425.300	-24.556	0.100
425.400	-49.831	0.100
425.500	-63.832	0.100
425.600	-57.177	0.100
425.700	-37.344	0.100
425.800	-44.400	0.100
425.900	-56.957	0.100
426.000	-43.427	0.100
426.100	-47.920	0.100
426.200	-55.839	0.100
426.300	-37.628	0.100
426.400	-53.958	0.100
426.500	-39.954	0.100
426.600	-54.118	0.100
426.700	-47.505	0.100
426.800	-36.993	0.100
426.900	-48.657	0.100
427.000	-51.073	0.100
427.100	-49.818	0.100
427.200	-46.277	0.100
427.300	-53.138	0.100
427.400	-45.038	0.100
427.500	-31.598	0.100
427.600	-59.136	0.100
427.700	-40.621	0.100
427.800	-58.035	0.100
427.900	-29.015	0.100
428.000	-57.937	0.100
428.100	-36.431	0.100
428.200	-54.540	0.100
428.300	-48.622	0.100
428.400	-28.149	0.100
428.500	-41.345	0.100
428.600	-21.513	0.100
428.700	-57.277	0.100
428.800	-49.550	0.100
428.900	-55.793	0.100
429.000	-75.689	0.100
429.100	-55.787	0.100
429.200	-41.412	0.100
429.300	-36.518	0.100
429.400	-59.921	0.100
429.500	-40.940	0.100
429.600	-27.771	0.100
429.700	-38.675	0.100
429.800	-43.342	0.100
429.900	-55.289	0.100
430.000	-35.486	0.100
430.100	-39.140	0.100
430.200	-48.401	0.100
430.300	-48.399	0.100
430.400	-44.291	0.100
430.500	-61.033	0.100
430.600	-47.320	0.100
430.700	-47.441	0.100
430.800	-44.723	0.100
430.900	-44.898	0.100
431.000	-36.198	0.100
431.100	-54.996	0.100
431.200	-37.436	0.100
431.300	-37.704	0.100
431.400	-62.833	0.100
431.500	-49.464	0.100
431.600	-48.932	0.100
431.700	-56.188	0.100
431.800	-45.951	0.100
431.900	-39.763	0.100
432.000	-54.176	0.100
432.100	-36.222	0.100
432.200	-35.199	0.100
432.300	-40.799	0.100
432.400	-35.805	0.100
432.500	-45.861	0.100
432.600	-46.240	0.100
432.700	-39.588	0.100
432.800	-44.100	0.100
432.900	-48.305	0.100
433.000	-41.992	0.100
433.100	-44.468	0.100
433.200	-44.476	0.100
433.300	-29.288	0.100
433.400	-67.463	0.100
433.500	-39.520	0.100
433.600	-27.597	0.100
433.700	-36.703	0.100
433.800	-50.350	0.100
433.900	-51.544	0.100
434.000	-26.837	0.100
434.100	-45.833	0.100
434.200	-50.074	0.100
434.300	-57.281	0.100
434.400	-35.769	0.100
434.500	-37.983	0.100
434.600	-53.015	0.100
434.700	-39.689	0.100
434.800	-30.532	0.100
434.900	-54.690	0.100
435.000	-21.298	0.100
435.100	-37.281	0.100
435.200	-31.796	0.100
435.300	-63.857	0.100
435.400	-46.887	0.100
435.500	-43.435	0.100
435.600	-47.744	0.100
435.700	-35.208	0.100
435.800	-43.453	0.100
435.900	-29.453	0.100
436.000	-43.370	0.100
436.100	-46.906	0.100
436.200	-33.039	0.100
436.300	-48.527	0.100
436.400	-47.781	0.100
436.500	-19.021	0.100
436.600	-63.587	0.100
436.700	-58.887	0.100
436.800	-27.414	0.100
436.900	-64.494	0.100
437.000	-25.975	0.100
437.100	-29.753	0.100
437.200	-51.635	0.100
437.300	-34.759	0.100
437.400	-33.105	0.100
437.500	-56.216	0.100
437.600	-43.231	0.100
437.700	-39.077	0.100
437.800	-48.963	0.100
437.900	-43.917	0.100
438.000	-36.231	0.100
438.100	-56.128	0.100
438.200	-43.518	0.100
438.300	-44.347	0.100
438.400	-50.690	0.100
438.500	-47.027	0.100
438.600	-41.252	0.100
438.700	-49.029	0.100
438.800	-24.416	0.100
438.900	-48.598	0.100
439.000	-68.191	0.100
439.100	-31.255	0.100
439.200	-29.039	0.100
439.300	-44.208	0.100
439.400	-34.818	0.100
439.500	-38.904	0.100
439.600	-58.306	0.100
439.700	-23.213	0.100
439.800	-39.835	0.100
439.900	-52.857	0.100
440.000	-37.107	0.100
440.100	-38.281	0.100
440.200	-46.774	0.100
440.300	-30.093	0.100
440.400	-51.001	0.100
440.500	-40.092	0.100
440.600	-53.968	0.100
440.700	-40.272	0.100
440.800	-38.855	0.100
440.900	-38.333	0.100
441.000	-51.568	0.100
441.100	-32.037	0.100
441.200	-43.585	0.100
441.300	-40.053	0.100
441.400	-33.316	0.100
441.500	-30.304	0.100
441.600	-39.171	0.100
441.700	-53.677	0.100
441.800	-47.296	0.100
441.900	-35.804	0.100
442.000	-42.647	0.100
442.100	-37.145	0.100
442.200	-44.353	0.100
442.300	-34.715	0.100
442.400	-27.562	0.100
442.500	-53.008	0.100
442.600	-40.850	0.100
442.700	-23.455	0.100
442.800	-42.720	0.100
442.900	-43.382	0.100
443.000	-37.363	0.100
443.100	-54.923	0.100
443.200	-33.142	0.100
443.300	-34.236	0.100
443.400	-46.583	0.100
443.500	-49.120	0.100
443.600	-19.384	0.100
443.700	-46.676	0.100
443.800	-43.759	0.100
443.900	-50.068	0.100
444.000	-46.417	0.100
444.100	-35.000	0.100
444.200	-40.206	0.100
444.300	-47.871	0.100
444.400	-55.827	0.100
444.500	-23.363	0.100
444.600	-56.566	0.100
444.700	-23.650	0.100
444.800	-48.069	0.100
444.900	-55.828	0.100
445.000	-37.051	0.100
445.100	-33.715	0.100
445.200	-32.180	0.100
445.300	-31.152	0.100
445.400	-32.031	0.100
445.500	-63.078	0.100
445.600	-23.863	0.100
445.700	-52.504	0.100
445.800	-48.148	0.100
445.900	-37.773	0.100
446.000	-41.934	0.100
446.100	-29.722	0.100
446.200	-27.148	0.100
446.300	-36.992	0.100
446.400	-36.067	0.100
446.500	-35.249	0.100
446.600	-45.023	0.100
446.700	-33.029	0.100
446.800	-29.491	0.100
446.900	-46.034	0.100
447.000	-38.760	0.100
447.100	-40.572	0.100
447.200	-48.080	0.100
447.300	-32.219	0.100
447.400	-40.557	0.100
447.500	-44.318	0.100
447.600	-27.915	0.100
447.700	-37.770	0.100
447.800	-28.711	0.100
447.900	-31.140	0.100
448.000	-43.917	0.100
448.100	-25.592	0.100
448.200	-24.395	0.100
448.300	-39.386	0.100
448.400	-39.628	0.100
448.500	-33.690	0.100
448.600	-42.913	0.100
448.700	-41.863	0.100
448.800	-30.291	0.100
448.900	-41.176	0.100
449.000	-45.996	0.100
449.100	-29.294	0.100
449.200	-46.684	0.100
449.300	-34.559	0.100
449.400	-63.809	0.100
449.500	-30.943	0.100
449.600	-33.233	0.100
449.700	-28.133	0.100
449.800	-51.710	0.100
449.900	-31.800	0.100
450.000	-43.184	0.100
450.100	-44.553	0.100
450.200	-22.791	0.100
450.300	-51.913	0.100
450.400	-25.999	0.100
450.500	-40.717	0.100
450.600	-48.950	0.100
450.700	-32.978	0.100
450.800	-24.595	0.100
450.900	-43.724	0.100
451.000	-41.840	0.100
451.100	-57.381	0.100
451.200	-38.579	0.100
451.300	-15.858	0.100
451.400	-25.559	0.100
451.500	-35.838	0.100
451.600	-24.599	0.100
451.700	-22.176	0.100
451.800	-32.929	0.100
451.900	-30.054	0.100
452.000	-38.733	0.100
452.100	-43.408	0.100
452.200	-34.337	0.100
452.300	-54.178	0.100
452.400	-29.003	0.100
452.500	-31.868	0.100
452.600	-40.879	0.100
452.700	-37.388	0.100
452.800	-33.333	0.100
452.900	-36.368	0.100
453.000	-40.766	0.100
453.100	-31.392	0.100
453.200	-41.582	0.100
453.300	-42.114	0.100
453.400	-37.342	0.100
453.500	-30.316	0.100
453.600	-32.082	0.100
453.700	-34.951	0.100
453.800	-26.808	0.100
453.900	-35.553	0.100
454.000	-25.978	0.100
454.100	-38.249	0.100
454.200	-25.954	0.100
454.300	-32.879	0.100
454.400	-45.208	0.100
454.500	-51.835	0.100
454.600	-31.464	0.100
454.700	-29.526	0.100
454.800	-70.970	0.100
454.900	-33.294	0.100
455.000	-17.755	0.100
455.100	-34.813	0.100
455.200	-43.592	0.100
455.300	-25.656	0.100
455.400	-35.546	0.100
455.500	-29.897	0.100
455.600	-53.557	0.100
455.700	-33.286	0.100
455.800	-27.459	0.100
455.900	-29.283	0.100
456.000	-25.568	0.100
456.100	-25.176	0.100
456.200	-38.546	0.100
456.300	-50.289	0.100
456.400	-43.467	0.100
456.500	-52.674	0.100
456.600	-22.232	0.100
456.700	-38.788	0.100
456.800	-48.053	0.100
456.900	-61.019	0.100
457.000	-39.925	0.100
457.100	-40.771	0.100
457.200	-6.624	0.100
457.300	-17.661	0.100
457.400	-32.140	0.100
457.500	-38.147	0.100
457.600	-48.844	0.100
457.700	-31.774	0.100
457.800	-58.753	0.100
457.900	-42.139	0.100
458.000	-53.769	0.100
458.100	-32.117	0.100
458.200	-37.759	0.100
458.300	-40.295	0.100
458.400	-21.924	0.100
458.500	-40.481	0.100
458.600	-40.507	0.100
458.700	-26.609	0.100
458.800	-49.150	0.100
458.900	-40.423	0.100
459.000	-29.168	0.100
459.100	-37.687	0.100
459.200	-19.467	0.100
459.300	-39.917	0.100
459.400	-28.032	0.100
459.500	-18.000	0.100
459.600	-29.136	0.100
459.700	-35.402	0.100
459.800	-48.049	0.100
459.900	-26.436	0.100
460.000	-29.919	0.100
460.100	-22.200	0.100
460.200	-54.973	0.100
460.300	-50.165	0.100
460.400	-38.768	0.100
460.500	-9.071	0.100
460.600	-41.665	0.100
460.700	-37.495	0.100
460.800	-37.997	0.100
460.900	-37.250	0.100
461.000	-27.692	0.100
461.100	-40.501	0.100
461.200	-35.841	0.100
461.300	-26.207	0.100
461.400	-34.741	0.100
461.500	-23.986	0.100
461.600	-25.476	0.100
461.700	-25.456	0.100
461.800	-37.016	0.100
461.900	-49.371	0.100
462.000	-20.615	0.100
462.100	-14.015	0.100
462.200	-31.775	0.100
462.300	-49.316	0.100
462.400	-38.555	0.100
462.500	-15.497	0.100
462.600	-4.555	0.100
462.700	-29.357	0.100
462.800	-43.305	0.100
462.900	-26.529	0.100
463.000	-10.383	0.100
463.100	-47.588	0.100
463.200	-33.140	0.100
463.300	-43.584	0.100
463.400	-17.227	0.100
463.500	-59.979	0.100
463.600	-20.102	0.100
463.700	-35.080	0.100
463.800	-26.683	0.100
463.900	-26.569	0.100
464.000	-25.366	0.100
464.100	-55.670	0.100
464.200	-33.258	0.100
464.300	-14.258	0.100
464.400	-42.943	0.100
464.500	-27.539	0.100
464.600	-30.497	0.100
464.700	-16.950	0.100
464.800	-22.369	0.100
464.900	-35.229	0.100
465.000	-46.376	0.100
465.100	-28.711	0.100
465.200	-22.206	0.100
465.300	-33.598	0.100
465.400	-30.217	0.100
465.500	-48.235	0.100
465.600	-36.550	0.100
465.700	-30.247	0.100
465.800	-43.095	0.100
465.900	-34.976	0.100
466.000	-25.494	0.100
466.100	-33.613	0.100
466.200	-26.308	0.100
466.300	-13.587	0.100
466.400	-27.178	0.100
466.500	-37.444	0.100
466.600	-25.351	0.100
466.700	-46.250	0.100
466.800	-32.118	0.100
466.900	-15.483	0.100
467.000	-30.664	0.100
467.100	-31.165	0.100
467.200	-36.073	0.100
467.300	-64.535	0.100
467.400	-21.778	0.100
467.500	-31.804	0.100
467.600	-40.845	0.100
467.700	-35.892	0.100
467.800	-7.670	0.100
467.900	-36.619	0.100
468.000	-40.092	0.100
468.100	-28.749	0.100
468.200	-36.711	0.100
468.300	-39.246	0.100
468.400	-41.005	0.100
468.500	-30.131	0.100
468.600	-24.801	0.100
468.700	-35.576	0.100
468.800	-29.424	0.100
468.900	-32.641	0.100
469.000	-29.519	0.100
469.100	-35.276	0.100
469.200	-21.949	0.100
469.300	-50.333	0.100
469.400	-25.231	0.100
469.500	-21.431	0.100
469.600	-57.021	0.100
469.700	-41.297	0.100
469.800	-33.259	0.100
469.900	-37.699	0.100
470.000	-26.474	0.100
470.100	-13.727	0.100
470.200	-51.422	0.100
470.300	-35.970	0.100
470.400	-20.388	0.100
470.500	-27.388	0.100
470.600	-43.274	0.100
470.700	-10.203	0.100
470.800	-54.718	0.100
470.900	-39.218	0.100
471.000	-38.210	0.100
471.100	-29.320	0.100
471.200	-34.129	0.100
471.300	-24.550	0.100
471.400	-36.638	0.100
471.500	-39.600	0.100
471.600	-21.360	0.100
471.700	-38.569	0.100
471.800	-28.358	0.100
471.900	-21.085	0.100
472.000	-47.612	0.100
472.100	-21.498	0.100
472.200	-15.361	0.100
472.300	-36.300	0.100
472.400	-37.281	0.100
472.500	-44.024	0.100
472.600	-15.842	0.100
472.700	-39.483	0.100
472.800	-24.885	0.100
472.900	-39.709	0.100
473.000	-27.588	0.100
473.100	-35.975	0.100
473.200	-19.931	0.100
473.300	-17.523	0.100
473.400	-38.476	0.100
473.500	-23.242	0.100
473.600	-34.822	0.100
473.700	-32.369	0.100
473.800	-23.186	0.100
473.900	-16.352	0.100
474.000	-40.946	0.100
474.100	-34.202	0.100
474.200	-38.910	0.100
474.300	-17.619	0.100
474.400	-22.502	0.100
474.500	-32.180	0.100
474.600	-24.139	0.100
474.700	-50.415	0.100
474.800	-36.115	0.100
474.900	-24.247	0.100
475.000	-30.961	0.100
475.100	-37.065	0.100
475.200	-27.846	0.100
475.300	-35.508	0.100
475.400	-27.871	0.100
475.500	-21.132	0.100
475.600	-35.592	0.100
475.700	-37.543	0.100
475.800	-46.984	0.100
475.900	-11.174	0.100
476.000	-13.670	0.100
476.100	-29.455	0.100
476.200	-17.010	0.100
476.300	-29.432	0.100
476.400	-42.441	0.100
476.500	-36.559	0.100
476.600	-39.397	0.100
476.700	-48.683	0.100
476.800	-16.562	0.100
476.900	-46.988	0.100
477.000	-39.752	0.100
477.100	-8.412	0.100
477.200	-35.955	0.100
477.300	-30.841	0.100
477.400	-21.723	0.100
477.500	-31.106	0.100
477.600	-39.832	0.100
477.700	-24.944	0.100
477.800	-42.031	0.100
477.900	-47.068	0.100
478.000	-15.109	0.100
478.100	-8.248	0.100
478.200	-35.914	0.100
478.300	-24.452	0.100
478.400	-5.485	0.100
478.500	-10.919	0.100
478.600	-24.741	0.100
478.700	-27.664	0.100
478.800	-35.917	0.100
478.900	-37.008	0.100
479.000	-25.057	0.100
479.100	-51.033	0.100
479.200	-17.961	0.100
479.300	-39.987	0.100
479.400	-28.865	0.100
479.500	-26.986	0.100
479.600	-30.671	0.100
479.700	-26.829	0.100
479.800	-46.295	0.100
479.900	-20.669	0.100
480.000	-6.518	0.100
480.100	-22.075	0.100
480.200	-15.761	0.100
480.300	-9.903	0.100
480.400	-18.565	0.100
480.500	5.574	0.100
480.600	16.423	0.100
480.700	1.235	0.100
480.800	12.143	0.100
480.900	30.651	0.100
481.000	27.852	0.100
481.100	36.085	0.100
481.200	38.021	0.100
481.300	42.310	0.100
481.400	40.558	0.100
481.500	45.375	0.100
481.600	29.048	0.100
481.700	58.295	0.100
481.800	56.584	0.100
481.900	43.015	0.100
482.000	51.954	0.100
482.100	58.587	0.100
482.200	41.868	0.100
482.300	59.376	0.100
482.400	57.041	0.100
482.500	46.058	0.100
482.600	60.403	0.100
482.700	51.359	0.100
482.800	27.195	0.100
482.900	46.897	0.100
483.000	59.771	0.100
483.100	41.672	0.100
483.200	53.112	0.100
483.300	28.562	0.100
483.400	47.444	0.100
483.500	53.833	0.100
483.600	39.509	0.100
483.700	40.088	0.100
483.800	31.876	0.100
483.900	59.281	0.100
484.000	53.774	0.100
484.100	38.006	0.100
484.200	26.557	0.100
484.300	45.345	0.100
484.400	50.987	0.100
484.500	28.999	0.100
484.600	33.706	0.100
484.700	48.378	0.100
484.800	43.373	0.100
484.900	41.327	0.100
485.000	59.382	0.100
485.100	31.573	0.100
485.200	32.227	0.100
485.300	32.122	0.100
485.400	31.912	0.100
485.500	52.148	0.100
485.600	34.933	0.100
485.700	30.849	0.100
485.800	42.232	0.100
485.900	48.615	0.100
486.000	29.776	0.100
486.100	45.800	0.100
486.200	33.244	0.100
486.300	64.736	0.100
486.400	52.385	0.100
486.500	53.890	0.100
486.600	33.801	0.100
486.700	43.298	0.100
486.800	60.650	0.100
486.900	53.114	0.100
487.000	29.182	0.100
487.100	72.895	0.100
487.200	65.622	0.100
487.300	57.224	0.100
487.400	66.344	0.100
487.500	54.293	0.100
487.600	72.963	0.100
487.700	67.904	0.100
487.800	49.268	0.100
487.900	54.692	0.100
488.000	63.172	0.100
488.100	64.737	0.100
488.200	81.794	0.100
488.300	51.686	0.100
488.400	59.307	0.100
488.500	69.463	0.100
488.600	72.380	0.100
488.700	72.282	0.100
488.800	72.416	0.100
488.900	48.838	0.100
489.000	76.741	0.100
489.100	78.484	0.100
489.200	78.269	0.100
489.300	73.904	0.100
489.400	59.736	0.100
489.500	98.474	0.100
489.600	100.293	0.100
489.700	88.692	0.100
489.800	85.498	0.100
489.900	84.496	0.100
490.000	105.117	0.100
490.100	92.758	0.100
490.200	85.006	0.100
490.300	87.645	0.100
490.400	78.393	0.100
490.500	97.394	0.100
490.600	103.950	0.100
490.700	88.874	0.100
490.800	104.290	0.100
490.900	89.896	0.100
491.000	89.490	0.100
491.100	94.449	0.100
491.200	100.496	0.100
491.300	94.049	0.100
491.400	111.319	0.100
491.500	103.317	0.100
491.600	105.328	0.100
491.700	118.252	0.100
491.800	115.260	0.100
491.900	98.991	0.100
492.000	116.689	0.100
492.100	107.181	0.100
492.200	112.977	0.100
492.300	111.340	0.100
492.400	119.126	0.100
492.500	101.427	0.100
492.600	112.191	0.100
492.700	109.499	0.100
492.800	127.074	0.100
492.900	130.631	0.100
493.000	111.251	0.100
493.100	129.080	0.100
493.200	118.714	0.100
493.300	100.256	0.100
493.400	117.251	0.100
493.500	121.713	0.100
493.600	116.891	0.100
493.700	126.017	0.100
493.800	120.859	0.100
493.900	117.295	0.100
494.000	123.955	0.100
494.100	147.525	0.100
494.200	116.530	0.100
494.300	118.196	0.100
494.400	134.769	0.100
494.500	115.854	0.100
494.600	120.121	0.100
494.700	131.105	0.100
494.800	127.941	0.100
494.900	133.969	0.100
495.000	120.445	0.100
495.100	132.430	0.100
495.200	93.517	0.100
495.300	115.547	0.100
495.400	128.720	0.100
495.500	142.221	0.100
495.600	116.514	0.100
495.700	121.644	0.100
495.800	129.033	0.100
495.900	117.060	0.100
496.000	119.511	0.100
496.100	137.481	0.100
496.200	122.344	0.100
496.300	109.701	0.100
496.400	138.807	0.100
496.500	116.958	0.100
496.600	140.249	0.100
496.700	149.669	0.100
496.800	101.211	0.100
496.900	115.131	0.100
497.000	122.314	0.100
497.100	122.739	0.100
497.200	124.449	0.100
497.300	119.977	0.100
497.400	112.822	0.100
497.500	119.840	0.100
497.600	129.646	0.100
497.700	119.173	0.100
497.800	125.254	0.100
497.900	124.184	0.100
498.000	112.531	0.100
498.100	118.807	0.100
498.200	118.854	0.100
498.300	124.433	0.100
498.400	127.827	0.100
498.500	125.388	0.100
498.600	103.189	0.100
498.700	115.674	0.100
498.800	124.772	0.100
498.900	112.090	0.100
499.000	132.729	0.100
499.100	108.699	0.100
499.200	127.367	0.100
499.300	137.554	0.100
499.400	104.779	0.100
499.500	123.091	0.100
499.600	107.688	0.100
499.700	114.719	0.100
499.800	112.472	0.100
499.900	124.989	0.100
500.000	94.998	0.100
500.100	106.002	0.100
500.200	113.091	0.100
500.300	110.989	0.100
500.400	125.034	0.100
500.500	106.761	0.100
500.600	115.445	0.100
500.700	129.705	0.100
500.800	108.749	0.100
500.900	90.568	0.100
501.000	111.670	0.100
501.100	126.073	0.100
501.200	106.907	0.100
501.300	116.650	0.100
501.400	119.252	0.100
501.500	117.609	0.100
501.600	113.087	0.100
501.700	102.009	0.100
501.800	102.318	0.100
501.900	115.889	0.100
502.000	97.386	0.100
502.100	117.070	0.100
502.200	110.164	0.100
502.300	98.738	0.100
502.400	110.392	0.100
502.500	103.326	0.100
502.600	127.617	0.100
502.700	109.696	0.100
502.800	111.283	0.100
502.900	114.140	0.100
503.000	91.578	0.100
503.100	95.199	0.100
503.200	122.386	0.100
503.300	104.649	0.100
503.400	127.266	0.100
503.500	105.761	0.100
503.600	113.314	0.100
503.700	120.641	0.100
503.800	101.104	0.100
503.900	117.734	0.100
504.000	129.912	0.100
504.100	90.911	0.100
504.200	107.177	0.100
504.300	122.578	0.100
504.400	121.457	0.100
504.500	104.760	0.100
504.600	109.102	0.100
504.700	100.281	0.100
504.800	129.801	0.100
504.900	104.689	0.100
505.000	109.578	0.100
505.100	104.201	0.100
505.200	109.061	0.100
505.300	93.859	0.100
505.400	116.361	0.100
505.500	106.817	0.100
505.600	113.543	0.100
505.700	109.707	0.100
505.800	90.476	0.100
505.900	104.481	0.100
506.000	119.453	0.100
506.100	92.698	0.100
506.200	105.026	0.100
506.300	111.095	0.100
506.400	100.472	0.100
506.500	114.751	0.100
506.600	117.432	0.100
506.700	107.770	0.100
506.800	94.512	0.100
506.900	121.860	0.100
507.000	108.242	0.100
507.100	95.655	0.100
507.200	102.359	0.100
507.300	98.116	0.100
507.400	117.469	0.100
507.500	125.020	0.100
507.600	108.017	0.100
507.700	96.604	0.100
507.800	104.642	0.100
507.900	96.590	0.100
508.000	94.395	0.100
508.100	114.339	0.100
508.200	97.687	0.100
508.300	116.237	0.100
508.400	120.051	0.100
508.500	97.483	0.100
508.600	103.852	0.100
508.700	103.781	0.100
508.800	99.011	0.100
508.900	105.789	0.100
509.000	106.135	0.100
509.100	98.772	0.100
509.200	118.231	0.100
509.300	101.966	0.100
509.400	104.890	0.100
509.500	104.777	0.100
509.600	111.363	0.100
509.700	92.390	0.100
509.800	122.463	0.100
509.900	108.327	0.100
510.000	103.664	0.100
510.100	98.194	0.100
510.200	103.626	0.100
510.300	99.033	0.100
510.400	116.424	0.100
510.500	101.045	0.100
510.600	107.395	0.100
510.700	113.737	0.100
510.800	105.735	0.100
510.900	101.102	0.100
511.000	101.458	0.100
511.100	102.132	0.100
511.200	96.143	0.100
511.300	94.657	0.100
511.400	95.316	0.100
511.500	102.610	0.100
511.600	93.299	0.100
511.700	102.904	0.100
511.800	114.364	0.100
511.900	98.093	0.100
512.000	94.865	0.100
512.100	119.701	0.100
512.200	100.505	0.100
512.300	108.187	0.100
512.400	101.725	0.100
512.500	103.507	0.100
512.600	112.966	0.100
512.700	107.639	0.100
512.800	108.379	0.100
512.900	92.493	0.100
513.000	114.799	0.100
513.100	113.061	0.100
513.200	93.501	0.100
513.300	119.016	0.100
513.400	101.622	0.100
513.500	104.985	0.100
513.600	108.222	0.100
513.700	86.842	0.100
513.800	115.859	0.100
513.900	107.976	0.100
514.000	99.596	0.100
514.100	94.714	0.100
514.200	105.026	0.100
514.300	104.864	0.100
514.400	97.667	0.100
514.500	91.955	0.100
514.600	104.837	0.100
514.700	108.279	0.100
514.800	119.102	0.100
514.900	120.829	0.100
515.000	86.096	0.100
515.100	113.873	0.100
515.200	115.508	0.100
515.300	117.915	0.100
515.400	103.898	0.100
515.500	84.695	0.100
515.600	100.261	0.100
515.700	101.930	0.100
515.800	107.692	0.100
515.900	102.644	0.100
516.000	95.004	0.100
516.100	105.642	0.100
516.200	118.606	0.100
516.300	103.915	0.100
516.400	110.275	0.100
516.500	112.517	0.100
516.600	107.017	0.100
516.700	109.767	0.100
516.800	95.403	0.100
516.900	80.025	0.100
517.000	87.307	0.100
517.100	101.946	0.100
517.200	99.138	0.100
517.300	109.549	0.100
517.400	103.928	0.100
517.500	96.613	0.100
517.600	100.794	0.100
517.700	111.743	0.100
517.800	101.335	0.100
517.900	91.151	0.100
518.000	86.271	0.100
518.100	84.315	0.100
518.200	114.828	0.100
518.300	105.206	0.100
518.400	108.495	0.100
518.500	89.490	0.100
518.600	97.255	0.100
518.700	98.060	0.100
518.800	99.649	0.100
518.900	102.640	0.100
519.000	109.756	0.100
519.100	122.535	0.100
519.200	88.597	0.100
519.300	98.842	0.100
519.400	85.624	0.100
519.500	113.173	0.100
519.600	106.325	0.100
519.700	117.445	0.100
519.800	95.684	0.100
519.900	103.755	0.100
520.000	118.826	0.100
520.100	97.549	0.100
520.200	96.137	0.100
520.300	107.342	0.100
520.400	93.765	0.100
520.500	73.625	0.100
520.600	122.704	0.100
520.700	91.627	0.100
520.800	110.820	0.100
520.900	93.211	0.100
521.000	104.669	0.100
521.100	101.453	0.100
521.200	102.666	0.100
521.300	84.912	0.100
521.400	92.931	0.100
521.500	114.181	0.100
521.600	104.622	0.100
521.700	104.197	0.100
521.800	99.867	0.100
521.900	93.853	0.100
522.000	114.251	0.100
522.100	89.776	0.100
522.200	105.399	0.100
522.300	103.858	0.100
522.400	92.660	0.100
522.500	89.157	0.100
522.600	105.249	0.100
522.700	99.588	0.100
522.800	106.848	0.100
522.900	115.390	0.100
523.000	82.058	0.100
523.100	91.065	0.100
523.200	109.323	0.100
523.300	85.172	0.100
523.400	108.839	0.100
523.500	105.971	0.100
523.600	106.965	0.100
523.700	93.703	0.100
523.800	116.611	0.100
523.900	95.297	0.100
524.000	81.981	0.100
524.100	111.340	0.100
524.200	96.036	0.100
524.300	95.848	0.100
524.400	103.500	0.100
524.500	85.883	0.100
524.600	102.833	0.100
524.700	117.315	0.100
524.800	90.731	0.100
524.900	92.256	0.100
525.000	113.926	0.100
525.100	73.948	0.100
525.200	88.117	0.100
525.300	93.830	0.100
525.400	102.332	0.100
525.500	88.565	0.100
525.600	113.372	0.100
525.700	95.953	0.100
525.800	93.850	0.100
525.900	96.666	0.100
526.000	90.127	0.100
526.100	96.252	0.100
526.200	93.802	0.100
526.300	92.197	0.100
526.400	108.963	0.100
526.500	114.015	0.100
526.600	94.775	0.100
526.700	116.718	0.100
526.800	105.949	0.100
526.900	107.579	0.100
527.000	103.429	0.100
527.100	100.397	0.100
527.200	115.083	0.100
527.300	104.087	0.100
527.400	74.759	0.100
527.500	104.597	0.100
527.600	115.711	0.100
527.700	107.773	0.100
527.800	98.274	0.100
527.900	107.269	0.100
528.000	95.098	0.100
528.100	97.041	0.100
528.200	90.092	0.100
528.300	106.225	0.100
528.400	76.186	0.100
528.500	107.788	0.100
528.600	115.695	0.100
528.700	105.470	0.100
528.800	94.670	0.100
528.900	103.101	0.100
529.000	102.747	0.100
529.100	105.410	0.100
529.200	107.089	0.100
529.300	94.751	0.100
529.400	102.396	0.100
529.500	84.944	0.100
529.600	89.745	0.100
529.700	110.134	0.100
529.800	104.164	0.100
529.900	90.549	0.100
530.000	117.469	0.100
530.100	95.143	0.100
530.200	92.144	0.100
530.300	92.820	0.100
530.400	110.165	0.100
530.500	96.120	0.100
530.600	97.200	0.100
530.700	110.291	0.100
530.800	103.728	0.100
530.900	104.239	0.100
531.000	86.173	0.100
531.100	78.586	0.100
531.200	95.727	0.100
531.300	77.580	0.100
531.400	102.226	0.100
531.500	120.587	0.100
531.600	86.345	0.100
531.700	103.325	0.100
531.800	86.237	0.100
531.900	102.954	0.100
532.000	99.539	0.100
532.100	117.219	0.100
532.200	101.025	0.100
532.300	99.399	0.100
532.400	121.718	0.100
532.500	90.892	0.100
532.600	95.950	0.100
532.700	96.295	0.100
532.800	95.471	0.100
532.900	96.745	0.100
533.000	101.427	0.100
533.100	90.556	0.100
533.200	104.103	0.100
533.300	102.871	0.100
533.400	109.635	0.100
533.500	112.970	0.100
533.600	81.272	0.100
533.700	111.846	0.100
533.800	105.111	0.100
533.900	106.124	0.100
534.000	102.387	0.100
534.100	95.570	0.100
534.200	88.165	0.100
534.300	88.745	0.100
534.400	93.234	0.100
534.500	111.626	0.100
534.600	120.703	0.100
534.700	103.613	0.100
534.800	113.874	0.100
534.900	106.081	0.100
535.000	78.868	0.100
535.100	98.710	0.100
535.200	81.896	0.100
535.300	89.348	0.100
535.400	115.670	0.100
535.500	106.895	0.100
535.600	104.989	0.100
535.700	86.604	0.100
535.800	110.404	0.100
535.900	79.150	0.100
536.000	107.865	0.100
536.100	100.888	0.100
536.200	88.314	0.100
536.300	108.521	0.100
536.400	118.361	0.100
536.500	84.207	0.100
536.600	109.062	0.100
536.700	118.472	0.100
536.800	90.607	0.100
536.900	92.249	0.100
537.000	120.956	0.100
537.100	75.852	0.100
537.200	106.634	0.100
537.300	115.728	0.100
537.400	82.289	0.100
537.500	97.019	0.100
537.600	115.481	0.100
537.700	90.054	0.100
537.800	100.877	0.100
537.900	108.433	0.100
538.000	87.021	0.100
538.100	103.979	0.100
538.200	90.063	0.100
538.300	95.747	0.100
538.400	111.396	0.100
538.500	95.563	0.100
538.600	104.432	0.100
538.700	107.774	0.100
538.800	94.096	0.100
538.900	106.254	0.100
539.000	96.014	0.100
539.100	88.144	0.100
539.200	91.280	0.100
539.300	98.754	0.100
539.400	80.776	0.100
539.500	109.691	0.100
539.600	96.392	0.100
539.700	91.374	0.100
539.800	106.468	0.100
539.900	85.306	0.100
540.000	105.058	0.100
540.100	111.256	0.100
540.200	91.651	0.100
540.300	80.348	0.100
540.400	73.368	0.100
540.500	71.760	0.100
540.600	38.891	0.100
540.700	36.827	0.100
540.800	38.877	0.100
540.900	35.411	0.100
541.000	42.164	0.100
541.100	32.662	0.100
541.200	12.744	0.100
541.300	20.700	0.100
541.400	22.330	0.100
541.500	9.580	0.100
541.600	18.187	0.100
541.700	1.506	0.100
541.800	-11.261	0.100
541.900	-9.124	0.100
542.000	3.559	0.100
542.100	-13.820	0.100
542.200	2.162	0.100
542.300	-24.401	0.100
542.400	-21.655	0.100
542.500	10.253	0.100
542.600	-10.935	0.100
542.700	-36.447	0.100
542.800	-2.252	0.100
542.900	-6.497	0.100
543.000	-25.062	0.100
543.100	-21.012	0.100
543.200	-32.209	0.100
543.300	-17.061	0.100
543.400	-12.057	0.100
543.500	-12.699	0.100
543.600	-24.511	0.100
543.700	-37.278	0.100
543.800	-41.296	0.100
543.900	-18.310	0.100
544.000	-20.089	0.100
544.100	-45.444	0.100
544.200	-40.564	0.100
544.300	-30.991	0.100
544.400	-26.231	0.100
544.500	-30.001	0.100
544.600	-27.769	0.100
544.700	-54.151	0.100
544.800	-49.548	0.100
544.900	-48.488	0.100
545.000	-18.150	0.100
545.100	-37.327	0.100
545.200	-11.854	0.100
545.300	-41.520	0.100
545.400	-22.202	0.100
545.500	-37.799	0.100
545.600	-52.568	0.100
545.700	-39.432	0.100
545.800	-26.410	0.100
545.900	-11.318	0.100
546.000	-42.668	0.100
546.100	-41.282	0.100
546.200	-42.762	0.100
546.300	-26.051	0.100
546.400	-34.543	0.100
546.500	-51.177	0.100
546.600	-26.079	0.100
546.700	-49.737	0.100
546.800	-38.699	0.100
546.900	-33.371	0.100
547.000	-14.277	0.100
547.100	-27.276	0.100
547.200	-23.142	0.100
547.300	-24.568	0.100
547.400	-28.095	0.100
547.500	-40.617	0.100
547.600	-32.459	0.100
547.700	-16.611	0.100
547.800	-31.844	0.100
547.900	-46.932	0.100
548.000	-32.744	0.100
548.100	-40.132	0.100
548.200	-23.123	0.100
548.300	-33.211	0.100
548.400	-29.045	0.100
548.500	-34.082	0.100
548.600	-13.963	0.100
548.700	-17.155	0.100
548.800	-31.373	0.100
548.900	-28.013	0.100
549.000	-30.332	0.100
549.100	-33.924	0.100
549.200	-24.586	0.100
549.300	-40.923	0.100
549.400	-40.743	0.100
549.500	-43.555	0.100
549.600	-31.120	0.100
549.700	-35.073	0.100
549.800	-31.544	0.100
549.900	-35.444	0.100
550.000	-13.775	0.100
550.100	-17.438	0.100
550.200	-33.249	0.100
550.300	-42.572	0.100
550.400	-23.560	0.100
550.500	-46.550	0.100
550.600	-52.575	0.100
550.700	-26.251	0.100
550.800	-22.260	0.100
550.900	-16.631	0.100
551.000	-27.328	0.100
551.100	-38.716	0.100
551.200	-34.372	0.100
551.300	-20.112	0.100
551.400	-43.746	0.100
551.500	-29.446	0.100
551.600	-13.186	0.100
551.700	-38.307	0.100
551.800	-53.294	0.100
551.900	-34.197	0.100
552.000	-38.520	0.100
552.100	-29.816	0.100
552.200	-19.493	0.100
552.300	-39.724	0.100
552.400	-23.424	0.100
552.500	-23.089	0.100
552.600	-20.747	0.100
552.700	-33.191	0.100
552.800	-25.041	0.100
552.900	-26.396	0.100
553.000	-27.771	0.100
553.100	-46.685	0.100
553.200	-35.360	0.100
553.300	-20.581	0.100
553.400	-46.211	0.100
553.500	-34.407	0.100
553.600	-23.549	0.100
553.700	-32.876	0.100
553.800	-52.876	0.100
553.900	-49.173	0.100
554.000	-32.207	0.100
554.100	-24.468	0.100
554.200	-32.776	0.100
554.300	-47.302	0.100
554.400	-38.340	0.100
554.500	-36.059	0.100
554.600	-55.130	0.100
554.700	-51.426	0.100
554.800	-33.642	0.100
554.900	-28.253	0.100
555.000	-36.514	0.100
555.100	-20.865	0.100
555.200	-38.537	0.100
555.300	-26.774	0.100
555.400	-29.291	0.100
555.500	-44.359	0.100
555.600	-16.734	0.100
555.700	-34.296	0.100
555.800	-40.620	0.100
555.900	-39.177	0.100
556.000	-30.613	0.100
556.100	-33.762	0.100
556.200	-33.588	0.100
556.300	-28.181	0.100
556.400	-41.832	0.100
556.500	-18.491	0.100
556.600	-60.726	0.100
556.700	-37.152	0.100
556.800	-14.495	0.100
556.900	-36.674	0.100
557.000	-46.363	0.100
557.100	-27.460	0.100
557.200	-54.423	0.100
557.300	-46.732	0.100
557.400	-42.781	0.100
557.500	-40.133	0.100
557.600	-38.160	0.100
557.700	-41.141	0.100
557.800	-33.643	0.100
557.900	-36.216	0.100
558.000	-29.468	0.100
558.100	-37.928	0.100
558.200	-64.804	0.100
558.300	-31.588	0.100
558.400	-47.825	0.100
558.500	-34.517	0.100
558.600	-50.176	0.100
558.700	-45.278	0.100
558.800	-36.199	0.100
558.900	-35.740	0.100
559.000	-44.273	0.100
559.100	-35.166	0.100
559.200	-32.703	0.100
559.300	-52.671	0.100
559.400	-41.132	0.100
559.500	-60.583	0.100
559.600	-54.536	0.100
559.700	-37.047	0.100
559.800	-38.475	0.100
559.900	-36.921	0.100
560.000	-24.190	0.100
560.100	-33.330	0.100
560.200	-48.818	0.100
560.300	-40.954	0.100
560.400	-44.578	0.100
560.500	-54.391	0.100
560.600	-45.175	0.100
560.700	-41.020	0.100
560.800	-63.591	0.100
560.900	-31.010	0.100
561.000	-50.271	0.100
561.100	-41.574	0.100
561.200	-22.030	0.100
561.300	-45.029	0.100
561.400	-32.641	0.100
561.500	-38.517	0.100
561.600	-60.817	0.100
561.700	-39.979	0.100
561.800	-43.899	0.100
561.900	-45.994	0.100
562.000	-52.439	0.100
562.100	-32.911	0.100
562.200	-24.141	0.100
562.300	-42.461	0.100
562.400	-52.307	0.100
562.500	-59.587	0.100
562.600	-36.584	0.100
562.700	-43.007	0.100
562.800	-66.121	0.100
562.900	-33.461	0.100
563.000	-57.987	0.100
563.100	-48.263	0.100
563.200	-47.050	0.100
563.300	-55.171	0.100
563.400	-31.115	0.100
563.500	-30.340	0.100
563.600	-47.174	0.100
563.700	-49.385	0.100
563.800	-44.283	0.100
563.900	-52.481	0.100
564.000	-49.447	0.100
564.100	-37.573	0.100
564.200	-50.040	0.100
564.300	-46.138	0.100
564.400	-48.476	0.100
564.500	-43.629	0.100
564.600	-32.015	0.100
564.700	-29.030	0.100
564.800	-62.920	0.100
564.900	-65.131	0.100
565.000	-25.693	0.100
565.100	-50.433	0.100
565.200	-64.254	0.100
565.300	-32.605	0.100
565.400	-37.384	0.100
565.500	-49.658	0.100
565.600	-38.522	0.100
565.700	-61.138	0.100
565.800	-54.252	0.100
565.900	-61.131	0.100
566.000	-46.678	0.100
566.100	-35.122	0.100
566.200	-59.364	0.100
566.300	-57.324	0.100
566.400	-17.679	0.100
566.500	-55.938	0.100
566.600	-54.380	0.100
566.700	-55.270	0.100
566.800	-49.938	0.100
566.900	-39.094	0.100
567.000	-46.482	0.100
567.100	-33.698	0.100
567.200	-54.402	0.100
567.300	-55.491	0.100
567.400	-41.960	0.100
567.500	-54.407	0.100
567.600	-52.832	0.100
567.700	-57.782	0.100
567.800	-55.486	0.100
567.900	-42.164	0.100
568.000	-55.316	0.100
568.100	-60.067	0.100
568.200	-47.336	0.100
568.300	-52.493	0.100
568.400	-56.173	0.100
568.500	-53.806	0.100
568.600	-46.354	0.100
568.700	-47.669	0.100
568.800	-57.748	0.100
568.900	-57.708	0.100
569.000	-55.047	0.100
569.100	-46.187	0.100
569.200	-61.131	0.100
569.300	-42.815	0.100
569.400	-33.920	0.100
569.500	-58.692	0.100
569.600	-50.200	0.100
569.700	-39.145	0.100
569.800	-57.532	0.100
569.900	-26.884	0.100
570.000	-57.054	0.100
570.100	-43.045	0.100
570.200	-65.766	0.100
570.300	-51.286	0.100
570.400	-54.612	0.100
570.500	-43.319	0.100
570.600	-55.839	0.100
570.700	-55.225	0.100
570.800	-40.905	0.100
570.900	-57.325	0.100
571.000	-50.584	0.100
571.100	-31.669	0.100
571.200	-59.901	0.100
571.300	-46.748	0.100
571.400	-51.463	0.100
571.500	-62.965	0.100
571.600	-54.930	0.100
571.700	-52.219	0.100
571.800	-49.534	0.100
571.900	-75.567	0.100
572.000	-37.798	0.100
572.100	-57.583	0.100
572.200	-38.382	0.100
572.300	-62.852	0.100
572.400	-34.983	0.100
572.500	-46.701	0.100
572.600	-54.749	0.100
572.700	-56.335	0.100
572.800	-47.927	0.100
572.900	-56.564	0.100
573.000	-40.438	0.100
573.100	-58.567	0.100
573.200	-58.759	0.100
573.300	-58.449	0.100
573.400	-35.732	0.100
573.500	-54.777	0.100
573.600	-66.902	0.100
573.700	-49.775	0.100
573.800	-41.803	0.100
573.900	-46.892	0.100
574.000	-63.020	0.100
574.100	-46.465	0.100
574.200	-75.712	0.100
574.300	-70.132	0.100
574.400	-52.212	0.100
574.500	-52.777	0.100
574.600	-50.384	0.100
574.700	-45.834	0.100
574.800	-45.591	0.100
574.900	-47.133	0.100
575.000	-52.755	0.100
575.100	-45.897	0.100
575.200	-47.332	0.100
575.300	-60.220	0.100
575.400	-71.506	0.100
575.500	-42.838	0.100
575.600	-35.232	0.100
575.700	-35.557	0.100
575.800	-51.221	0.100
575.900	-57.856	0.100
576.000	-41.278	0.100
576.100	-54.857	0.100
576.200	-72.187	0.100
576.300	-59.478	0.100
576.400	-57.985	0.100
576.500	-52.789	0.100
576.600	-56.107	0.100
576.700	-44.205	0.100
576.800	-45.941	0.100
576.900	-45.735	0.100
577.000	-55.020	0.100
577.100	-53.186	0.100
577.200	-56.658	0.100
577.300	-45.977	0.100
577.400	-62.637	0.100
577.500	-42.958	0.100
577.600	-56.221	0.100
577.700	-49.770	0.100
577.800	-62.519	0.100
577.900	-50.552	0.100
578.000	-51.466	0.100
578.100	-49.616	0.100
578.200	-52.015	0.100
578.300	-50.559	0.100
578.400	-50.438	0.100
578.500	-44.480	0.100
578.600	-48.266	0.100
578.700	-58.841	0.100
578.800	-36.949	0.100
578.900	-59.712	0.100
579.000	-33.822	0.100
579.100	-62.123	0.100
579.200	-57.239	0.100
579.300	-43.119	0.100
579.400	-46.970	0.100
579.500	-44.185	0.100
579.600	-63.882	0.100
579.700	-59.471	0.100
579.800	-55.478	0.100
579.900	-57.515	0.100
580.000	-43.557	0.100
580.100	-40.875	0.100
580.200	-44.693	0.100
580.300	-46.234	0.100
580.400	-40.346	0.100
580.500	-56.296	0.100
580.600	-59.932	0.100
580.700	-46.504	0.100
580.800	-60.331	0.100
580.900	-62.939	0.100
581.000	-42.517	0.100
581.100	-52.302	0.100
581.200	-69.389	0.100
581.300	-49.746	0.100
581.400	-56.896	0.100
581.500	-49.393	0.100
581.600	-29.276	0.100
581.700	-42.809	0.100
581.800	-70.103	0.100
581.900	-40.412	0.100
582.000	-58.797	0.100
582.100	-57.382	0.100
582.200	-48.755	0.100
582.300	-50.707	0.100
582.400	-45.789	0.100
582.500	-40.765	0.100
582.600	-47.615	0.100
582.700	-42.574	0.100
582.800	-41.025	0.100
582.900	-55.314	0.100
583.000	-46.937	0.100
583.100	-38.835	0.100
583.200	-55.943	0.100
583.300	-51.543	0.100
583.400	-54.056	0.100
583.500	-42.886	0.100
583.600	-28.184	0.100
583.700	-66.653	0.100
583.800	-43.027	0.100
583.900	-38.601	0.100
584.000	-44.370	0.100
584.100	-54.477	0.100
584.200	-45.063	0.100
584.300	-45.345	0.100
584.400	-45.861	0.100
584.500	-54.816	0.100
584.600	-34.152	0.100
584.700	-58.589	0.100
584.800	-46.688	0.100
584.900	-53.015	0.100
585.000	-60.454	0.100
585.100	-44.114	0.100
585.200	-48.222	0.100
585.300	-41.884	0.100
585.400	-57.446	0.100
585.500	-60.414	0.100
585.600	-48.593	0.100
585.700	-33.707	0.100
585.800	-45.077	0.100
585.900	-51.959	0.100
586.000	-43.004	0.100
586.100	-72.906	0.100
586.200	-35.977	0.100
586.300	-37.326	0.100
586.400	-47.210	0.100
586.500	-35.598	0.100
586.600	-40.389	0.100
586.700	-68.981	0.100
586.800	-44.802	0.100
586.900	-50.751	0.100
587.000	-76.536	0.100
587.100	-33.385	0.100
587.200	-37.975	0.100
587.300	-50.467	0.100
587.400	-58.519	0.100
587.500	-51.302	0.100
587.600	-58.398	0.100
587.700	-55.352	0.100
587.800	-49.886	0.100
587.900	-48.700	0.100
588.000	-48.514	0.100
588.100	-42.176	0.100
588.200	-47.618	0.100
588.300	-39.201	0.100
588.400	-59.426	0.100
588.500	-49.638	0.100
588.600	-45.494	0.100
588.700	-50.593	0.100
588.800	-47.195	0.100
588.900	-43.402	0.100
589.000	-54.143	0.100
589.100	-71.315	0.100
589.200	-29.779	0.100
589.300	-53.366	0.100
589.400	-39.254	0.100
589.500	-39.056	0.100
589.600	-35.898	0.100
589.700	-53.354	0.100
589.800	-36.217	0.100
589.900	-60.347	0.100
590.000	-48.941	0.100
590.100	-47.025	0.100
590.200	-46.624	0.100
590.300	-43.983	0.100
590.400	-44.368	0.100
590.500	-56.636	0.100
590.600	-44.194	0.100
590.700	-44.647	0.100
590.800	-51.626	0.100
590.900	-37.999	0.100
591.000	-49.540	0.100
591.100	-60.305	0.100
591.200	-40.438	0.100
591.300	-46.063	0.100
591.400	-49.747	0.100
591.500	-37.756	0.100
591.600	-55.267	0.100
591.700	-53.322	0.100
591.800	-42.796	0.100
591.900	-32.529	0.100
592.000	-58.503	0.100
592.100	-58.346	0.100
592.200	-49.589	0.100
592.300	-47.399	0.100
592.400	-28.372	0.100
592.500	-42.023	0.100
592.600	-25.123	0.100
592.700	-45.096	0.100
592.800	-45.208	0.100
592.900	-39.654	0.100
593.000	-38.514	0.100
593.100	-45.528	0.100
593.200	-65.108	0.100
593.300	-46.718	0.100
593.400	-49.330	0.100
593.500	-34.655	0.100
593.600	-37.030	0.100
593.700	-38.712	0.100
593.800	-59.474	0.100
593.900	-56.147	0.100
594.000	-35.040	0.100
594.100	-39.202	0.100
594.200	-24.742	0.100
594.300	-45.720	0.100
594.400	-44.122	0.100
594.500	-34.083	0.100
594.600	-44.736	0.100
594.700	-33.835	0.100
594.800	-43.527	0.100
594.900	-46.282	0.100
595.000	-26.753	0.100
595.100	-32.358	0.100
595.200	-58.485	0.100
595.300	-31.748	0.100
595.400	-51.782	0.100
595.500	-61.470	0.100
595.600	-37.385	0.100
595.700	-38.203	0.100
595.800	-58.165	0.100
595.900	-35.205	0.100
596.000	-59.602	0.100
596.100	-57.305	0.100
596.200	-38.708	0.100
596.300	-27.902	0.100
596.400	-33.706	0.100
596.500	-36.640	0.100
596.600	-39.722	0.100
596.700	-38.015	0.100
596.800	-30.659	0.100
596.900	-58.494	0.100
597.000	-40.218	0.100
597.100	-38.817	0.100
597.200	-48.261	0.100
597.300	-46.142	0.100
597.400	-33.485	0.100
597.500	-47.965	0.100
597.600	-46.529	0.100
597.700	-29.880	0.100
597.800	-51.304	0.100
597.900	-36.725	0.100
598.000	-43.040	0.100
598.100	-47.986	0.100
598.200	-49.649	0.100
598.300	-60.419	0.100
598.400	-58.616	0.100
598.500	-27.175	0.100
598.600	-35.003	0.100
598.700	-35.194	0.100
598.800	-44.302	0.100
598.900	-31.400	0.100
599.000	-43.194	0.100
599.100	-43.593	0.100
599.200	-36.687	0.100
599.300	-40.177	0.100
599.400	-23.679	0.100
599.500	-44.978	0.100
599.600	-40.934	0.100
599.700	-32.726	0.100
599.800	-53.246	0.100
599.900	-43.582	0.100
600.000	-42.425	0.100
600.100	-54.890	0.100
600.200	-43.940	0.100
600.300	-37.176	0.100
600.400	-46.483	0.100
600.500	-26.130	0.100
600.600	-51.619	0.100
600.700	-46.399	0.100
600.800	-45.170	0.100
600.900	-43.043	0.100
601.000	-53.116	0.100
601.100	-43.788	0.100
601.200	-16.119	0.100
601.300	-34.989	0.100
601.400	-37.316	0.100
601.500	-47.512	0.100
601.600	-46.301	0.100
601.700	-34.185	0.100
601.800	-38.672	0.100
601.900	-60.074	0.100
602.000	-21.898	0.100
602.100	-46.808	0.100
602.200	-41.778	0.100
602.300	-33.603	0.100
602.400	-37.827	0.100
602.500	-36.311	0.100
602.600	-35.883	0.100
602.700	-30.603	0.100
602.800	-35.475	0.100
602.900	-32.417	0.100
603.000	-38.952	0.100
603.100	-64.087	0.100
603.200	-33.509	0.100
603.300	-26.961	0.100
603.400	-48.158	0.100
603.500	-35.808	0.100
603.600	-39.902	0.100
603.700	-33.716	0.100
603.800	-49.251	0.100
603.900	-52.227	0.100
604.000	-30.757	0.100
604.100	-29.641	0.100
604.200	-42.125	0.100
604.300	-46.594	0.100
604.400	-39.261	0.100
604.500	-39.346	0.100
604.600	-41.764	0.100
604.700	-38.933	0.100
604.800	-39.030	0.100
604.900	-18.315	0.100
605.000	-31.362	0.100
605.100	-40.395	0.100
605.200	-31.818	0.100
605.300	-39.922	0.100
605.400	-26.517	0.100
605.500	-34.450	0.100
605.600	-43.302	0.100
605.700	-41.500	0.100
605.800	-46.670	0.100
605.900	-39.929	0.100
606.000	-27.517	0.100
606.100	-35.821	0.100
606.200	-39.463	0.100
606.300	-53.733	0.100
606.400	-32.974	0.100
606.500	-43.093	0.100
606.600	-47.812	0.100
606.700	-35.287	0.100
606.800	-52.335	0.100
606.900	-40.910	0.100
607.000	-33.979	0.100
607.100	-43.332	0.100
607.200	-36.866	0.100
607.300	-29.987	0.100
607.400	-40.366	0.100
607.500	-55.551	0.100
607.600	-19.721	0.100
607.700	-34.756	0.100
607.800	-44.675	0.100
607.900	-43.219	0.100
608.000	-38.297	0.100
608.100	-47.963	0.100
608.200	-34.387	0.100
608.300	-28.151	0.100
608.400	-13.862	0.100
608.500	-50.852	0.100
608.600	-54.481	0.100
608.700	-24.858	0.100
608.800	-36.149	0.100
608.900	-48.469	0.100
609.000	-31.863	0.100
609.100	-33.592	0.100
609.200	-57.486	0.100
609.300	-27.167	0.100
609.400	-32.814	0.100
609.500	-37.981	0.100
609.600	-39.675	0.100
609.700	-40.342	0.100
609.800	-39.515	0.100
609.900	-27.399	0.100
610.000	-55.575	0.100
610.100	-42.957	0.100
610.200	-27.195	0.100
610.300	-37.970	0.100
610.400	-27.158	0.100
610.500	-52.463	0.100
610.600	-31.952	0.100
610.700	-16.204	0.100
610.800	-18.709	0.100
610.900	-38.007	0.100
611.000	-20.901	0.100
611.100	-33.198	0.100
611.200	-25.967	0.100
611.300	-57.780	0.100
611.400	-33.124	0.100
611.500	-33.154	0.100
611.600	-27.273	0.100
611.700	-29.858	0.100
611.800	-19.515	0.100
611.900	-38.563	0.100
612.000	-35.582	0.100
612.100	-58.214	0.100
612.200	-55.745	0.100
612.300	-32.124	0.100
612.400	-34.817	0.100
612.500	-12.496	0.100
612.600	-35.005	0.100
612.700	-35.457	0.100
612.800	-58.612	0.100
612.900	-44.702	0.100
613.000	-43.512	0.100
613.100	-33.048	0.100
613.200	-51.077	0.100
613.300	-40.756	0.100
613.400	-34.956	0.100
613.500	-23.112	0.100
613.600	-40.937	0.100
613.700	-35.508	0.100
613.800	-14.574	0.100
613.900	-46.447	0.100
614.000	-25.759	0.100
614.100	-45.853	0.100
614.200	-41.288	0.100
614.300	-34.133	0.100
614.400	-34.896	0.100
614.500	-46.519	0.100
614.600	-51.838	0.100
614.700	-27.787	0.100
614.800	-22.678	0.100
614.900	-26.101	0.100
615.000	-32.882	0.100
615.100	-31.254	0.100
615.200	-24.622	0.100
615.300	-53.688	0.100
615.400	-31.322	0.100
615.500	-36.827	0.100
615.600	-52.181	0.100
615.700	-39.914	0.100
615.800	-24.292	0.100
615.900	-38.170	0.100
616.000	-45.282	0.100
616.100	-34.570	0.100
616.200	-48.059	0.100
616.300	-31.046	0.100
616.400	-23.672	0.100
616.500	-42.535	0.100
616.600	-37.483	0.100
616.700	-46.658	0.100
616.800	-41.845	0.100
616.900	-38.791	0.100
617.000	-21.247	0.100
617.100	-43.298	0.100
617.200	-29.691	0.100
617.300	-47.244	0.100
617.400	-33.843	0.100
617.500	-28.580	0.100
617.600	-34.926	0.100
617.700	-36.334	0.100
617.800	-21.555	0.100
617.900	-52.116	0.100
618.000	-34.595	0.100
618.100	-17.504	0.100
618.200	-44.269	0.100
618.300	-49.132	0.100
618.400	-13.659	0.100
618.500	-30.468	0.100
618.600	-36.064	0.100
618.700	-17.505	0.100
618.800	-46.353	0.100
618.900	-52.802	0.100
619.000	-24.854	0.100
619.100	-43.774	0.100
619.200	-21.826	0.100
619.300	-35.549	0.100
619.400	-32.845	0.100
619.500	-50.528	0.100
619.600	-46.048	0.100
619.700	-35.294	0.100
619.800	-26.135	0.100
619.900	-36.508	0.100
620.000	-22.652	0.100
620.100	-43.333	0.100
620.200	-38.241	0.100
620.300	-61.269	0.100
620.400	-31.150	0.100
620.500	-20.865	0.100
620.600	-43.552	0.100
620.700	-10.619	0.100
620.800	-42.644	0.100
620.900	-37.041	0.100
621.000	-42.131	0.100
621.100	-26.636	0.100
621.200	-35.608	0.100
621.300	-40.968	0.100
621.400	-33.546	0.100
621.500	-33.594	0.100
621.600	-23.531	0.100
621.700	-45.540	0.100
621.800	-37.038	0.100
621.900	-32.355	0.100
622.000	-38.959	0.100
622.100	-32.732	0.100
622.200	-32.057	0.100
622.300	-40.520	0.100
622.400	-13.309	0.100
622.500	-30.396	0.100
622.600	-39.839	0.100
622.700	-37.702	0.100
622.800	-23.576	0.100
622.900	-30.223	0.100
623.000	-17.386	0.100
623.100	-57.493	0.100
623.200	-43.248	0.100
623.300	-44.906	0.100
623.400	-21.862	0.100
623.500	-45.474	0.100
623.600	-31.278	0.100
623.700	-44.475	0.100
623.800	-30.305	0.100
623.900	-43.696	0.100
624.000	-26.349	0.100
624.100	-31.917	0.100
624.200	-39.692	0.100
624.300	-47.665	0.100
624.400	-35.934	0.100
624.500	-52.202	0.100
624.600	-32.488	0.100
624.700	-20.990	0.100
624.800	-19.684	0.100
624.900	-35.223	0.100
625.000	-34.224	0.100
625.100	-32.300	0.100
625.200	-54.524	0.100
625.300	-49.469	0.100
625.400	-9.507	0.100
625.500	-45.885	0.100
625.600	-31.377	0.100
625.700	-20.030	0.100
625.800	-43.823	0.100
625.900	-31.986	0.100
626.000	-30.238	0.100
626.100	-38.182	0.100
626.200	-28.498	0.100
626.300	-18.746	0.100
626.400	-32.524	0.100
626.500	-31.283	0.100
626.600	-31.820	0.100
626.700	-28.311	0.100
626.800	-21.459	0.100
626.900	-27.849	0.100
627.000	-26.025	0.100
627.100	-33.683	0.100
627.200	-37.891	0.100
627.300	-49.746	0.100
627.400	-38.255	0.100
627.500	-27.977	0.100
627.600	-36.895	0.100
627.700	-20.426	0.100
627.800	-46.238	0.100
627.900	-39.268	0.100
628.000	-40.876	0.100
628.100	-17.975	0.100
628.200	-28.825	0.100
628.300	-15.878	0.100
628.400	-34.207	0.100
628.500	-32.052	0.100
628.600	-26.716	0.100
628.700	-34.558	0.100
628.800	-34.930	0.100
628.900	-27.045	0.100
629.000	-26.026	0.100
629.100	-26.364	0.100
629.200	-29.315	0.100
629.300	-46.753	0.100
629.400	-49.653	0.100
629.500	-19.313	0.100
629.600	-32.335	0.100
629.700	-30.835	0.100
629.800	-30.741	0.100
629.900	-30.551	0.100
630.000	-47.096	0.100
630.100	-36.506	0.100
630.200	-31.761	0.100
630.300	-11.598	0.100
630.400	-14.112	0.100
630.500	-7.742	0.100
630.600	4.018	0.100
630.700	24.475	0.100
630.800	-1.931	0.100
630.900	28.738	0.100
631.000	36.004	0.100
631.100	17.202	0.100
631.200	29.080	0.100
631.300	28.100	0.100
631.400	34.177	0.100
631.500	64.640	0.100
631.600	49.811	0.100
631.700	49.312	0.100
631.800	44.127	0.100
631.900	52.282	0.100
632.000	53.298	0.100
632.100	62.346	0.100
632.200	53.398	0.100
632.300	49.345	0.100
632.400	50.367	0.100
632.500	60.380	0.100
632.600	43.926	0.100
632.700	64.533	0.100
632.800	59.013	0.100
632.900	53.037	0.100
633.000	62.304	0.100
633.100	56.320	0.100
633.200	59.638	0.100
633.300	47.010	0.100
633.400	34.617	0.100
633.500	39.323	0.100
633.600	63.567	0.100
633.700	45.316	0.100
633.800	48.597	0.100
633.900	46.479	0.100
634.000	43.596	0.100
634.100	45.685	0.100
634.200	65.074	0.100
634.300	17.798	0.100
634.400	48.664	0.100
634.500	39.186	0.100
634.600	41.769	0.100
634.700	40.129	0.100
634.800	63.449	0.100
634.900	51.989	0.100
635.000	38.324	0.100
635.100	29.534	0.100
635.200	33.371	0.100
635.300	58.733	0.100
635.400	26.626	0.100
635.500	32.827	0.100
635.600	43.874	0.100
635.700	47.022	0.100
635.800	11.737	0.100
635.900	56.240	0.100
636.000	56.730	0.100
636.100	48.397	0.100
636.200	37.491	0.100
636.300	44.359	0.100
636.400	43.370	0.100
636.500	39.952	0.100
636.600	61.143	0.100
636.700	52.844	0.100
636.800	39.250	0.100
636.900	44.748	0.100
637.000	46.536	0.100
637.100	66.754	0.100
637.200	45.721	0.100
637.300	72.970	0.100
637.400	49.998	0.100
637.500	26.932	0.100
637.600	77.097	0.100
637.700	50.787	0.100
637.800	57.024	0.100
637.900	67.054	0.100
638.000	58.014	0.100
638.100	80.764	0.100
638.200	72.008	0.100
638.300	78.743	0.100
638.400	53.454	0.100
638.500	65.566	0.100
638.600	49.775	0.100
638.700	74.804	0.100
638.800	79.670	0.100
638.900	75.576	0.100
639.000	89.197	0.100
639.100	85.701	0.100
639.200	79.793	0.100
639.300	78.300	0.100
639.400	88.660	0.100
639.500	74.235	0.100
639.600	79.172	0.100
639.700	86.291	0.100
639.800	73.110	0.100
639.900	89.239	0.100
640.000	97.481	0.100
640.100	96.919	0.100
640.200	90.740	0.100
640.300	92.520	0.100
640.400	92.463	0.100
640.500	89.208	0.100
640.600	114.460	0.100
640.700	107.599	0.100
640.800	99.289	0.100
640.900	75.736	0.100
641.000	105.978	0.100
641.100	109.897	0.100
641.200	112.209	0.100
641.300	97.795	0.100
641.400	109.538	0.100
641.500	111.771	0.100
641.600	100.404	0.100
641.700	123.527	0.100
641.800	110.735	0.100
641.900	102.266	0.100
642.000	98.492	0.100
642.100	102.541	0.100
642.200	99.472	0.100
642.300	112.700	0.100
642.400	116.912	0.100
642.500	97.995	0.100
642.600	131.536	0.100
642.700	115.391	0.100
642.800	121.265	0.100
642.900	132.146	0.100
643.000	98.539	0.100
643.100	125.919	0.100
643.200	135.530	0.100
643.300	125.062	0.100
643.400	120.909	0.100
643.500	128.515	0.100
643.600	110.289	0.100
643.700	123.198	0.100
643.800	118.262	0.100
643.900	127.307	0.100
644.000	136.762	0.100
644.100	109.880	0.100
644.200	114.669	0.100
644.300	125.208	0.100
644.400	119.480	0.100
644.500	135.844	0.100
644.600	142.303	0.100
644.700	138.879	0.100
644.800	110.944	0.100
644.900	125.264	0.100
645.000	127.872	0.100
645.100	124.626	0.100
645.200	120.444	0.100
645.300	128.881	0.100
645.400	138.401	0.100
645.500	120.003	0.100
645.600	119.388	0.100
645.700	135.668	0.100
645.800	113.078	0.100
645.900	120.506	0.100
646.000	103.302	0.100
646.100	145.491	0.100
646.200	127.067	0.100
646.300	118.296	0.100
646.400	112.877	0.100
646.500	136.466	0.100
646.600	139.361	0.100
646.700	136.895	0.100
646.800	131.670	0.100
646.900	121.285	0.100
647.000	116.989	0.100
647.100	118.706	0.100
647.200	135.387	0.100
647.300	113.861	0.100
647.400	109.377	0.100
647.500	119.530	0.100
647.600	145.057	0.100
647.700	128.248	0.100
647.800	127.726	0.100
647.900	117.554	0.100
648.000	127.472	0.100
648.100	131.391	0.100
648.200	133.281	0.100
648.300	113.590	0.100
648.400	116.488	0.100
648.500	130.114	0.100
648.600	121.151	0.100
648.700	121.801	0.100
648.800	139.351	0.100
648.900	111.821	0.100
649.000	119.523	0.100
649.100	121.029	0.100
649.200	121.737	0.100
649.300	131.087	0.100
649.400	109.756	0.100
649.500	121.938	0.100
649.600	111.083	0.100
649.700	122.389	0.100
649.800	106.855	0.100
649.900	124.332	0.100
650.000	97.922	0.100
650.100	104.613	0.100
650.200	121.746	0.100
650.300	117.886	0.100
650.400	108.710	0.100
650.500	138.843	0.100
650.600	112.897	0.100
650.700	129.181	0.100
650.800	117.553	0.100
650.900	122.449	0.100
651.000	108.509	0.100
651.100	113.571	0.100
651.200	106.177	0.100
651.300	118.361	0.100
651.400	124.520	0.100
651.500	108.121	0.100
651.600	105.947	0.100
651.700	135.141	0.100
651.800	113.579	0.100
651.900	112.820	0.100
652.000	102.180	0.100
652.100	102.686	0.100
652.200	103.384	0.100
652.300	110.855	0.100
652.400	100.966	0.100
652.500	111.095	0.100
652.600	109.669	0.100
652.700	123.221	0.100
652.800	129.793	0.100
652.900	119.902	0.100
653.000	108.098	0.100
653.100	112.529	0.100
653.200	112.022	0.100
653.300	122.398	0.100
653.400	102.046	0.100
653.500	96.153	0.100
653.600	125.195	0.100
653.700	116.910	0.100
653.800	128.489	0.100
653.900	102.306	0.100
654.000	100.953	0.100
654.100	107.714	0.100
654.200	117.434	0.100
654.300	114.990	0.100
654.400	107.055	0.100
654.500	109.663	0.100
654.600	119.585	0.100
654.700	111.580	0.100
654.800	108.854	0.100
654.900	120.127	0.100
655.000	112.873	0.100
655.100	102.902	0.100
655.200	122.569	0.100
655.300	98.937	0.100
655.400	115.188	0.100
655.500	116.741	0.100
655.600	103.107	0.100
655.700	97.338	0.100
655.800	94.304	0.100
655.900	98.888	0.100
656.000	121.186	0.100
656.100	117.906	0.100
656.200	80.318	0.100
656.300	108.366	0.100
656.400	107.232	0.100
656.500	109.030	0.100
656.600	106.655	0.100
656.700	111.023	0.100
656.800	91.043	0.100
656.900	104.024	0.100
657.000	123.999	0.100
657.100	84.536	0.100
657.200	108.245	0.100
657.300	126.840	0.100
657.400	118.183	0.100
657.500	105.487	0.100
657.600	105.444	0.100
657.700	116.278	0.100
657.800	109.315	0.100
657.900	103.585	0.100
658.000	101.952	0.100
658.100	98.067	0.100
658.200	97.266	0.100
658.300	103.904	0.100
658.400	94.222	0.100
658.500	103.056	0.100
658.600	118.480	0.100
658.700	109.238	0.100
658.800	110.437	0.100
658.900	100.281	0.100
659.000	100.788	0.100
659.100	111.223	0.100
659.200	114.741	0.100
659.300	99.613	0.100
659.400	94.922	0.100
659.500	130.248	0.100
659.600	111.018	0.100
659.700	112.864	0.100
659.800	102.634	0.100
659.900	98.974	0.100
660.000	99.361	0.100
660.100	117.032	0.100
660.200	84.033	0.100
660.300	101.907	0.100
660.400	119.102	0.100
660.500	104.900	0.100
660.600	107.012	0.100
660.700	123.683	0.100
660.800	109.235	0.100
660.900	86.325	0.100
661.000	110.134	0.100
661.100	114.730	0.100
661.200	110.287	0.100
661.300	112.336	0.100
661.400	94.864	0.100
661.500	121.156	0.100
661.600	93.821	0.100
661.700	85.476	0.100
661.800	95.778	0.100
661.900	114.340	0.100
662.000	103.403	0.100
662.100	117.341	0.100
662.200	100.622	0.100
662.300	108.942	0.100
662.400	95.940	0.100
662.500	95.827	0.100
662.600	87.707	0.100
662.700	113.602	0.100
662.800	116.695	0.100
662.900	114.837	0.100
663.000	102.220	0.100
663.100	103.982	0.100
663.200	112.909	0.100
663.300	98.978	0.100
663.400	120.918	0.100
663.500	101.994	0.100
663.600	108.941	0.100
663.700	97.789	0.100
663.800	102.836	0.100
663.900	118.911	0.100
664.000	109.200	0.100
664.100	102.377	0.100
664.200	103.464	0.100
664.300	77.055	0.100
664.400	107.848	0.100
664.500	108.593	0.100
664.600	107.681	0.100
664.700	99.967	0.100
664.800	109.532	0.100
664.900	109.105	0.100
665.000	101.344	0.100
665.100	97.844	0.100
665.200	95.707	0.100
665.300	100.147	0.100
665.400	119.582	0.100
665.500	95.411	0.100
665.600	103.037	0.100
665.700	110.085	0.100
665.800	108.581	0.100
665.900	113.585	0.100
666.000	103.611	0.100
666.100	101.594	0.100
666.200	123.700	0.100
666.300	101.309	0.100
666.400	84.252	0.100
666.500	100.954	0.100
666.600	94.966	0.100
666.700	103.537	0.100
666.800	98.926	0.100
666.900	122.512	0.100
667.000	100.113	0.100
667.100	95.814	0.100
667.200	99.655	0.100
667.300	83.767	0.100
667.400	95.941	0.100
667.500	96.486	0.100
667.600	99.337	0.100
667.700	116.894	0.100
667.800	95.633	0.100
667.900	104.679	0.100
668.000	98.795	0.100
668.100	103.875	0.100
668.200	97.012	0.100
668.300	113.808	0.100
668.400	80.380	0.100
668.500	100.955	0.100
668.600	111.476	0.100
668.700	112.307	0.100
668.800	103.147	0.100
668.900	100.699	0.100
669.000	86.352	0.100
669.100	115.614	0.100
669.200	116.266	0.100
669.300	103.883	0.100
669.400	97.052	0.100
669.500	103.931	0.100
669.600	103.135	0.100
669.700	99.251	0.100
669.800	106.367	0.100
669.900	105.298	0.100
670.000	106.185	0.100
670.100	94.294	0.100
670.200	121.165	0.100
670.300	107.458	0.100
670.400	96.498	0.100
670.500	85.934	0.100
670.600	100.043	0.100
670.700	101.533	0.100
670.800	99.508	0.100
670.900	111.601	0.100
671.000	109.780	0.100
671.100	92.478	0.100
671.200	114.141	0.100
671.300	92.765	0.100
671.400	111.706	0.100
671.500	105.762	0.100
671.600	94.623	0.100
671.700	88.635	0.100
671.800	124.448	0.100
671.900	109.175	0.100
672.000	103.455	0.100
672.100	104.121	0.100
672.200	102.185	0.100
672.300	90.401	0.100
672.400	97.543	0.100
672.500	84.277	0.100
672.600	108.230	0.100
672.700	95.546	0.100
672.800	90.097	0.100
672.900	84.656	0.100
673.000	108.868	0.100
673.100	102.608	0.100
673.200	104.636	0.100
673.300	111.072	0.100
673.400	89.304	0.100
673.500	92.320	0.100
673.600	94.983	0.100
673.700	95.326	0.100
673.800	99.117	0.100
673.900	104.108	0.100
674.000	108.623	0.100
674.100	85.965	0.100
674.200	107.231	0.100
674.300	95.398	0.100
674.400	117.948	0.100
674.500	95.741	0.100
674.600	86.973	0.100
674.700	99.538	0.100
674.800	110.869	0.100
674.900	102.217	0.100
675.000	100.964	0.100
675.100	93.372	0.100
675.200	87.512	0.100
675.300	99.163	0.100
675.400	98.964	0.100
675.500	103.457	0.100
675.600	113.001	0.100
675.700	91.252	0.100
675.800	97.220	0.100
675.900	111.406	0.100
676.000	84.312	0.100
676.100	98.702	0.100
676.200	106.662	0.100
676.300	84.422	0.100
676.400	107.832	0.100
676.500	103.609	0.100
676.600	113.265	0.100
676.700	104.839	0.100
676.800	101.151	0.100
676.900	104.761	0.100
677.000	93.339	0.100
677.100	111.132	0.100
677.200	88.887	0.100
677.300	99.757	0.100
677.400	116.929	0.100
677.500	91.932	0.100
677.600	103.220	0.100
677.700	85.995	0.100
677.800	91.122	0.100
677.900	98.885	0.100
678.000	109.043	0.100
678.100	90.836	0.100
678.200	115.937	0.100
678.300	90.398	0.100
678.400	95.581	0.100
678.500	109.570	0.100
678.600	97.114	0.100
678.700	81.989	0.100
678.800	109.373	0.100
678.900	90.903	0.100
679.000	88.081	0.100
679.100	83.679	0.100
679.200	101.877	0.100
679.300	124.750	0.100
679.400	100.136	0.100
679.500	99.797	0.100
679.600	108.714	0.100
679.700	101.721	0.100
679.800	103.339	0.100
679.900	95.708	0.100
680.000	111.996	0.100
680.100	93.838	0.100
680.200	94.349	0.100
680.300	121.778	0.100
680.400	108.196	0.100
680.500	92.993	0.100
680.600	109.805	0.100
680.700	97.434	0.100
680.800	107.323	0.100
680.900	102.784	0.100
681.000	95.100	0.100
681.100	96.603	0.100
681.200	95.947	0.100
681.300	110.021	0.100
681.400	109.360	0.100
681.500	93.255	0.100
681.600	107.832	0.100
681.700	99.181	0.100
681.800	81.477	0.100
681.900	93.288	0.100
682.000	111.865	0.100
682.100	93.919	0.100
682.200	95.409	0.100
682.300	126.186	0.100
682.400	107.242	0.100
682.500	87.353	0.100
682.600	86.826	0.100
682.700	99.428	0.100
682.800	82.701	0.100
682.900	71.182	0.100
683.000	99.714	0.100
683.100	101.068	0.100
683.200	106.727	0.100
683.300	93.110	0.100
683.400	106.573	0.100
683.500	116.269	0.100
683.600	95.492	0.100
683.700	75.612	0.100
683.800	106.338	0.100
683.900	101.016	0.100
684.000	102.017	0.100
684.100	98.643	0.100
684.200	81.902	0.100
684.300	81.208	0.100
684.400	90.955	0.100
684.500	105.012	0.100
684.600	105.906	0.100
684.700	99.109	0.100
684.800	100.945	0.100
684.900	100.261	0.100
685.000	115.833	0.100
685.100	95.665	0.100
685.200	109.659	0.100
685.300	99.484	0.100
685.400	104.093	0.100
685.500	106.616	0.100
685.600	106.958	0.100
685.700	89.982	0.100
685.800	123.029	0.100
685.900	111.285	0.100
686.000	78.314	0.100
686.100	111.805	0.100
686.200	99.385	0.100
686.300	96.058	0.100
686.400	93.521	0.100
686.500	110.890	0.100
686.600	95.461	0.100
686.700	98.682	0.100
686.800	110.087	0.100
686.900	86.074	0.100
687.000	88.256	0.100
687.100	97.288	0.100
687.200	92.373	0.100
687.300	105.359	0.100
687.400	101.396	0.100
687.500	87.622	0.100
687.600	107.981	0.100
687.700	102.167	0.100
687.800	83.093	0.100
687.900	117.003	0.100
688.000	88.217	0.100
688.100	97.708	0.100
688.200	115.296	0.100
688.300	84.503	0.100
688.400	101.627	0.100
688.500	93.431	0.100
688.600	103.565	0.100
688.700	103.356	0.100
688.800	99.618	0.100
688.900	83.541	0.100
689.000	96.051	0.100
689.100	114.406	0.100
689.200	101.251	0.100
689.300	101.773	0.100
689.400	109.930	0.100
689.500	112.616	0.100
689.600	106.195	0.100
689.700	84.925	0.100
689.800	100.425	0.100
689.900	124.804	0.100
690.000	87.710	0.100
690.100	105.550	0.100
690.200	90.945	0.100
690.300	72.171	0.100
690.400	68.609	0.100
690.500	84.584	0.100
690.600	42.668	0.100
690.700	57.875	0.100
690.800	51.236	0.100
690.900	26.315	0.100
691.000	41.874	0.100
691.100	49.734	0.100
691.200	2.517	0.100
691.300	19.409	0.100
691.400	16.698	0.100
691.500	-1.445	0.100
691.600	-9.792	0.100
691.700	6.108	0.100
691.800	-5.306	0.100
691.900	-9.835	0.100
692.000	-8.433	0.100
692.100	1.493	0.100
692.200	-8.039	0.100
692.300	-4.292	0.100
692.400	-11.803	0.100
692.500	-32.940	0.100
692.600	-3.655	0.100
692.700	-21.871	0.100
692.800	-29.419	0.100
692.900	-39.857	0.100
693.000	-23.824	0.100
693.100	-20.089	0.100
693.200	-32.515	0.100
693.300	-34.703	0.100
693.400	-35.034	0.100
693.500	-39.180	0.100
693.600	-26.641	0.100
693.700	-26.273	0.100
693.800	-26.414	0.100
693.900	-50.212	0.100
694.000	-8.081	0.100
694.100	-23.791	0.100
694.200	-29.873	0.100
694.300	-23.846	0.100
694.400	-63.946	0.100
694.500	-53.905	0.100
694.600	-35.227	0.100
694.700	-31.212	0.100
694.800	-67.209	0.100
694.900	-29.795	0.100
695.000	-44.426	0.100
695.100	-44.604	0.100
695.200	-27.481	0.100
695.300	-41.839	0.100
695.400	-38.452	0.100
695.500	-31.717	0.100
695.600	-29.418	0.100
695.700	-60.020	0.100
695.800	-39.191	0.100
695.900	-35.745	0.100
696.000	-36.377	0.100
696.100	-21.150	0.100
696.200	-47.909	0.100
696.300	-27.236	0.100
696.400	-53.563	0.100
696.500	-27.031	0.100
696.600	-24.917	0.100
696.700	-24.611	0.100
696.800	-27.882	0.100
696.900	-29.958	0.100
697.000	-41.859	0.100
697.100	-42.221	0.100
697.200	-39.157	0.100
697.300	-53.787	0.100
697.400	-30.078	0.100
697.500	-42.336	0.100
697.600	-36.235	0.100
697.700	-41.100	0.100
697.800	-32.625	0.100
697.900	-34.110	0.100
698.000	-33.618	0.100
698.100	-32.249	0.100
698.200	-49.124	0.100
698.300	-34.016	0.100
698.400	-20.995	0.100
698.500	-36.771	0.100
698.600	-38.386	0.100
698.700	-40.896	0.100
698.800	-30.568	0.100
698.900	-40.731	0.100
699.000	-35.633	0.100
699.100	-37.380	0.100
699.200	-22.401	0.100
699.300	-41.021	0.100
699.400	-31.489	0.100
699.500	-45.202	0.100
699.600	-50.824	0.100
699.700	-20.289	0.100
699.800	-26.595	0.100
699.900	-17.390	0.100
700.000	-19.250	0.100
700.100	-36.989	0.100
700.200	-22.823	0.100
700.300	-34.160	0.100
700.400	-42.335	0.100
700.500	-44.360	0.100
700.600	-20.780	0.100
700.700	-32.433	0.100
700.800	-49.300	0.100
700.900	-43.818	0.100
701.000	-26.270	0.100
701.100	-34.908	0.100
701.200	-32.767	0.100
701.300	-19.594	0.100
701.400	-62.120	0.100
701.500	-34.710	0.100
701.600	-43.669	0.100
701.700	-46.516	0.100
701.800	-38.351	0.100
701.900	-26.279	0.100
702.000	-17.449	0.100
702.100	-51.491	0.100
702.200	-23.507	0.100
702.300	-49.020	0.100
702.400	-31.974	0.100
702.500	-14.829	0.100
702.600	-32.586	0.100
702.700	-40.739	0.100
702.800	-37.943	0.100
702.900	-39.138	0.100
703.000	-35.485	0.100
703.100	-60.482	0.100
703.200	-23.536	0.100
703.300	-30.466	0.100
703.400	-36.767	0.100
703.500	-58.378	0.100
703.600	-30.606	0.100
703.700	-31.482	0.100
703.800	-36.018	0.100
703.900	-30.048	0.100
704.000	-50.206	0.100
704.100	-54.058	0.100
704.200	-36.308	0.100
704.300	-30.766	0.100
704.400	-57.410	0.100
704.500	-38.802	0.100
704.600	-26.871	0.100
704.700	-41.212	0.100
704.800	-52.986	0.100
704.900	-43.938	0.100
705.000	-36.561	0.100
705.100	-46.180	0.100
705.200	-50.718	0.100
705.300	-39.947	0.100
705.400	-6.888	0.100
705.500	-58.414	0.100
705.600	-33.099	0.100
705.700	-35.440	0.100
705.800	-51.598	0.100
705.900	-28.640	0.100
706.000	-36.607	0.100
706.100	-49.279	0.100
706.200	-37.617	0.100
706.300	-36.251	0.100
706.400	-46.567	0.100
706.500	-32.774	0.100
706.600	-46.081	0.100
706.700	-36.167	0.100
706.800	-26.725	0.100
706.900	-33.736	0.100
707.000	-64.180	0.100
707.100	-53.913	0.100
707.200	-40.739	0.100
707.300	-64.316	0.100
707.400	-35.043	0.100
707.500	-34.442	0.100
707.600	-40.617	0.100
707.700	-39.437	0.100
707.800	-49.120	0.100
707.900	-21.857	0.100
708.000	-40.621	0.100
708.100	-44.629	0.100
708.200	-53.273	0.100
708.300	-39.961	0.100
708.400	-57.838	0.100
708.500	-48.107	0.100
708.600	-15.495	0.100
708.700	-48.653	0.100
708.800	-32.456	0.100
708.900	-29.532	0.100
709.000	-50.440	0.100
709.100	-33.177	0.100
709.200	-34.048	0.100
709.300	-59.211	0.100
709.400	-37.484	0.100
709.500	-31.829	0.100
709.600	-54.386	0.100
709.700	-38.789	0.100
709.800	-54.001	0.100
709.900	-51.530	0.100
710.000	-57.359	0.100
710.100	-31.693	0.100
710.200	-41.366	0.100
710.300	-41.649	0.100
710.400	-33.101	0.100
710.500	-54.600	0.100
710.600	-29.073	0.100
710.700	-54.380	0.100
710.800	-43.318	0.100
710.900	-37.393	0.100
711.000	-51.177	0.100
711.100	-40.588	0.100
711.200	-43.869	0.100
711.300	-63.972	0.100
711.400	-51.800	0.100
711.500	-47.496	0.100
711.600	-59.148	0.100
711.700	-50.629	0.100
711.800	-42.016	0.100
711.900	-44.451	0.100
712.000	-67.230	0.100
712.100	-35.254	0.100
712.200	-49.056	0.100
712.300	-64.003	0.100
712.400	-42.240	0.100
712.500	-47.461	0.100
712.600	-56.058	0.100
712.700	-57.110	0.100
712.800	-45.062	0.100
712.900	-47.827	0.100
713.000	-48.538	0.100
713.100	-27.919	0.100
713.200	-40.334	0.100
713.300	-40.746	0.100
713.400	-43.240	0.100
713.500	-61.604	0.100
713.600	-52.566	0.100
713.700	-59.428	0.100
713.800	-52.031	0.100
713.900	-48.691	0.100
714.000	-60.649	0.100
714.100	-50.467	0.100
714.200	-57.272	0.100
714.300	-45.430	0.100
714.400	-38.183	0.100
714.500	-75.193	0.100
714.600	-37.019	0.100
714.700	-29.900	0.100
714.800	-43.034	0.100
714.900	-41.624	0.100
715.000	-43.883	0.100
715.100	-49.105	0.100
715.200	-61.447	0.100
715.300	-34.671	0.100
715.400	-45.674	0.100
715.500	-62.802	0.100
715.600	-51.542	0.100
715.700	-47.864	0.100
715.800	-52.530	0.100
715.900	-49.193	0.100
716.000	-62.917	0.100
716.100	-58.283	0.100
716.200	-43.189	0.100
716.300	-62.942	0.100
716.400	-42.394	0.100
716.500	-38.292	0.100
716.600	-51.176	0.100
716.700	-58.099	0.100
716.800	-54.615	0.100
716.900	-62.107	0.100
717.000	-58.510	0.100
717.100	-35.894	0.100
717.200	-55.827	0.100
717.300	-53.486	0.100
717.400	-36.517	0.100
717.500	-57.916	0.100
717.600	-39.656	0.100
717.700	-39.791	0.100
717.800	-69.120	0.100
717.900	-35.684	0.100
718.000	-73.381	0.100
718.100	-46.693	0.100
718.200	-59.131	0.100
718.300	-75.326	0.100
718.400	-56.089	0.100
718.500	-50.284	0.100
718.600	-78.813	0.100
718.700	-63.205	0.100
718.800	-47.417	0.100
718.900	-63.377	0.100
719.000	-42.241	0.100
719.100	-52.068	0.100
719.200	-64.245	0.100
719.300	-55.158	0.100
719.400	-41.716	0.100
719.500	-58.398	0.100
719.600	-55.321	0.100
719.700	-57.307	0.100
719.800	-36.627	0.100
719.900	-47.425	0.100
720.000	-55.101	0.100
720.100	-59.299	0.100
720.200	-54.151	0.100
720.300	-52.915	0.100
720.400	-48.575	0.100
720.500	-42.000	0.100
720.600	-53.483	0.100
720.700	-51.838	0.100
720.800	-71.753	0.100
720.900	-58.068	0.100
721.000	-64.913	0.100
721.100	-26.034	0.100
721.200	-45.753	0.100
721.300	-61.619	0.100
721.400	-62.924	0.100
721.500	-57.739	0.100
721.600	-49.856	0.100
721.700	-54.473	0.100
721.800	-68.662	0.100
721.900	-62.894	0.100
722.000	-49.501	0.100
722.100	-40.062	0.100
722.200	-67.677	0.100
722.300	-44.156	0.100
722.400	-63.561	0.100
722.500	-46.618	0.100
722.600	-55.006	0.100
722.700	-46.491	0.100
722.800	-58.932	0.100
722.900	-51.860	0.100
723.000	-55.789	0.100
723.100	-52.703	0.100
723.200	-58.882	0.100
723.300	-58.562	0.100
723.400	-53.889	0.100
723.500	-50.378	0.100
723.600	-72.122	0.100
723.700	-43.622	0.100
723.800	-57.071	0.100
723.900	-61.994	0.100
724.000	-58.595	0.100
724.100	-46.303	0.100
724.200	-46.788	0.100
724.300	-49.551	0.100
724.400	-56.102	0.100
724.500	-66.899	0.100
724.600	-44.097	0.100
724.700	-68.592	0.100
724.800	-59.752	0.100
724.900	-58.328	0.100
725.000	-35.650	0.100
725.100	-40.831	0.100
725.200	-29.950	0.100
725.300	-69.532	0.100
725.400	-48.818	0.100
725.500	-44.929	0.100
725.600	-68.698	0.100
725.700	-63.155	0.100
725.800	-45.466	0.100
725.900	-72.137	0.100
726.000	-55.366	0.100
726.100	-52.976	0.100
726.200	-67.241	0.100
726.300	-61.460	0.100
726.400	-76.878	0.100
726.500	-49.634	0.100
726.600	-59.762	0.100
726.700	-34.935	0.100
726.800	-64.031	0.100
726.900	-61.432	0.100
727.000	-39.142	0.100
727.100	-47.446	0.100
727.200	-59.987	0.100
727.300	-56.435	0.100
727.400	-57.026	0.100
727.500	-48.141	0.100
727.600	-54.286	0.100
727.700	-61.139	0.100
727.800	-44.921	0.100
727.900	-47.273	0.100
728.000	-51.102	0.100
728.100	-49.102	0.100
728.200	-64.372	0.100
728.300	-57.062	0.100
728.400	-43.538	0.100
728.500	-54.430	0.100
728.600	-70.446	0.100
728.700	-53.955	0.100
728.800	-63.217	0.100
728.900	-64.063	0.100
729.000	-56.568	0.100
729.100	-49.898	0.100
729.200	-53.247	0.100
729.300	-45.189	0.100
729.400	-79.191	0.100
729.500	-53.698	0.100
729.600	-40.198	0.100
729.700	-57.001	0.100
729.800	-43.782	0.100
729.900	-60.630	0.100
730.000	-55.126	0.100
730.100	-63.328	0.100
730.200	-51.215	0.100
730.300	-41.575	0.100
730.400	-52.169	0.100
730.500	-73.341	0.100
730.600	-61.901	0.100
730.700	-48.732	0.100
730.800	-55.444	0.100
730.900	-63.769	0.100
731.000	-43.865	0.100
731.100	-70.765	0.100
731.200	-43.057	0.100
731.300	-41.216	0.100
731.400	-55.381	0.100
731.500	-43.751	0.100
731.600	-55.548	0.100
731.700	-60.343	0.100
731.800	-58.939	0.100
731.900	-42.799	0.100
732.000	-58.916	0.100
732.100	-48.889	0.100
732.200	-50.857	0.100
732.300	-47.454	0.100
732.400	-51.366	0.100
732.500	-45.487	0.100
732.600	-64.869	0.100
732.700	-46.241	0.100
732.800	-50.622	0.100
732.900	-46.557	0.100
733.000	-52.123	0.100
733.100	-40.364	0.100
733.200	-67.144	0.100
733.300	-46.498	0.100
733.400	-35.190	0.100
733.500	-49.174	0.100
733.600	-48.827	0.100
733.700	-69.510	0.100
733.800	-62.010	0.100
733.900	-45.289	0.100
734.000	-42.252	0.100
734.100	-67.565	0.100
734.200	-48.788	0.100
734.300	-53.003	0.100
734.400	-42.027	0.100
734.500	-55.360	0.100
734.600	-59.751	0.100
734.700	-53.248	0.100
734.800	-41.940	0.100
734.900	-60.444	0.100
735.000	-56.346	0.100
735.100	-54.328	0.100
735.200	-47.325	0.100
735.300	-52.484	0.100
735.400	-60.277	0.100
735.500	-38.628	0.100
735.600	-69.080	0.100
735.700	-50.436	0.100
735.800	-40.638	0.100
735.900	-50.749	0.100
736.000	-65.191	0.100
736.100	-52.420	0.100
736.200	-68.291	0.100
736.300	-40.144	0.100
736.400	-42.713	0.100
736.500	-73.773	0.100
736.600	-30.246	0.100
736.700	-52.615	0.100
736.800	-61.564	0.100
736.900	-32.409	0.100
737.000	-58.323	0.100
737.100	-49.105	0.100
737.200	-43.981	0.100
737.300	-57.392	0.100
737.400	-48.421	0.100
737.500	-59.626	0.100
737.600	-53.213	0.100
737.700	-50.173	0.100
737.800	-56.120	0.100
737.900	-27.034	0.100
738.000	-32.678	0.100
738.100	-45.189	0.100
738.200	-65.751	0.100
738.300	-51.765	0.100
738.400	-53.624	0.100
738.500	-52.775	0.100
738.600	-52.070	0.100
738.700	-63.821	0.100
738.800	-58.210	0.100
738.900	-29.649	0.100
739.000	-70.432	0.100
739.100	-43.434	0.100
739.200	-44.444	0.100
739.300	-44.634	0.100
739.400	-65.440	0.100
739.500	-48.255	0.100
739.600	-64.863	0.100
739.700	-30.332	0.100
739.800	-15.372	0.100
739.900	-47.913	0.100
740.000	-53.266	0.100
740.100	-30.233	0.100
740.200	-60.841	0.100
740.300	-48.176	0.100
740.400	-46.447	0.100
740.500	-44.943	0.100
740.600	-49.940	0.100
740.700	-78.581	0.100
740.800	-56.570	0.100
740.900	-39.791	0.100
741.000	-42.614	0.100
741.100	-46.568	0.100
741.200	-40.308	0.100
741.300	-64.986	0.100
741.400	-55.970	0.100
741.500	-32.329	0.100
741.600	-36.885	0.100
741.700	-61.555	0.100
741.800	-43.471	0.100
741.900	-55.043	0.100
742.000	-67.219	0.100
742.100	-39.136	0.100
742.200	-44.907	0.100
742.300	-64.257	0.100
742.400	-38.160	0.100
742.500	-41.348	0.100
742.600	-55.773	0.100
742.700	-36.889	0.100
742.800	-51.510	0.100
742.900	-54.145	0.100
743.000	-41.960	0.100
743.100	-61.401	0.100
743.200	-46.811	0.100
743.300	-43.701	0.100
743.400	-60.163	0.100
743.500	-59.054	0.100
743.600	-35.232	0.100
743.700	-51.532	0.100
743.800	-51.248	0.100
743.900	-39.580	0.100
744.000	-43.648	0.100
744.100	-51.494	0.100
744.200	-36.046	0.100
744.300	-53.129	0.100
744.400	-42.476	0.100
744.500	-46.202	0.100
744.600	-50.315	0.100
744.700	-39.736	0.100
744.800	-46.758	0.100
744.900	-37.956	0.100
745.000	-34.398	0.100
745.100	-34.137	0.100
745.200	-50.657	0.100
745.300	-44.733	0.100
745.400	-49.101	0.100
745.500	-57.832	0.100
745.600	-56.578	0.100
745.700	-50.565	0.100
745.800	-64.489	0.100
745.900	-41.864	0.100
746.000	-36.544	0.100
746.100	-50.324	0.100
746.200	-42.426	0.100
746.300	-48.160	0.100
746.400	-40.089	0.100
746.500	-41.626	0.100
746.600	-50.122	0.100
746.700	-48.915	0.100
746.800	-39.782	0.100
746.900	-57.672	0.100
747.000	-48.796	0.100
747.100	-44.154	0.100
747.200	-36.779	0.100
747.300	-45.357	0.100
747.400	-56.861	0.100
747.500	-42.062	0.100
747.600	-48.322	0.100
747.700	-41.566	0.100
747.800	-64.446	0.100
747.900	-42.141	0.100
748.000	-55.161	0.100
748.100	-49.301	0.100
748.200	-38.741	0.100
748.300	-52.153	0.100
748.400	-49.324	0.100
748.500	-47.738	0.100
748.600	-27.954	0.100
748.700	-44.745	0.100
748.800	-49.427	0.100
748.900	-47.586	0.100
749.000	-58.734	0.100
749.100	-50.215	0.100
749.200	-44.497	0.100
749.300	-53.059	0.100
749.400	-42.537	0.100
749.500	-43.991	0.100
749.600	-48.936	0.100
749.700	-49.077	0.100
749.800	-50.010	0.100
749.900	-51.420	0.100
750.000	-19.404	0.100
750.100	-36.457	0.100
750.200	-41.712	0.100
750.300	-51.420	0.100
750.400	-46.908	0.100
750.500	-49.994	0.100
750.600	-46.205	0.100
750.700	-49.512	0.100
750.800	-45.975	0.100
750.900	-48.784	0.100
751.000	-38.795	0.100
751.100	-47.200	0.100
751.200	-35.889	0.100
751.300	-48.914	0.100
751.400	-28.037	0.100
751.500	-37.459	0.100
751.600	-59.494	0.100
751.700	-69.097	0.100
751.800	-26.378	0.100
751.900	-42.066	0.100
752.000	-49.067	0.100
752.100	-58.570	0.100
752.200	-36.562	0.100
752.300	-37.138	0.100
752.400	-32.085	0.100
752.500	-67.141	0.100
752.600	-39.203	0.100
752.700	-33.772	0.100
752.800	-63.560	0.100
752.900	-18.959	0.100
753.000	-44.316	0.100
753.100	-47.806	0.100
753.200	-55.006	0.100
753.300	-49.337	0.100
753.400	-62.254	0.100
753.500	-47.979	0.100
753.600	-52.228	0.100
753.700	-41.689	0.100
753.800	-40.172	0.100
753.900	-52.093	0.100
754.000	-42.591	0.100
754.100	-45.732	0.100
754.200	-35.467	0.100
754.300	-56.462	0.100
754.400	-26.900	0.100
754.500	-44.885	0.100
754.600	-42.764	0.100
754.700	-29.452	0.100
754.800	-46.230	0.100
754.900	-63.821	0.100
755.000	-31.211	0.100
755.100	-40.202	0.100
755.200	-42.416	0.100
755.300	-66.560	0.100
755.400	-52.861	0.100
755.500	-24.847	0.100
755.600	-24.688	0.100
755.700	-38.747	0.100
755.800	-42.212	0.100
755.900	-30.719	0.100
756.000	-41.670	0.100
756.100	-46.859	0.100
756.200	-44.929	0.100
756.300	-52.482	0.100
756.400	-30.846	0.100
756.500	-43.978	0.100
756.600	-47.811	0.100
756.700	-34.964	0.100
756.800	-44.713	0.100
756.900	-53.322	0.100
757.000	-25.943	0.100
757.100	-33.719	0.100
757.200	-45.698	0.100
757.300	-39.462	0.100
757.400	-37.746	0.100
757.500	-56.680	0.100
757.600	-49.837	0.100
757.700	-42.645	0.100
757.800	-34.051	0.100
757.900	-46.679	0.100
758.000	-43.355	0.100
758.100	-47.331	0.100
758.200	-28.873	0.100
758.300	-41.547	0.100
758.400	-26.831	0.100
758.500	-27.189	0.100
758.600	-41.295	0.100
758.700	-41.035	0.100
758.800	-37.953	0.100
758.900	-48.947	0.100
759.000	-45.701	0.100
759.100	-30.424	0.100
759.200	-39.017	0.100
759.300	-34.185	0.100
759.400	-38.180	0.100
759.500	-34.703	0.100
759.600	-36.916	0.100
759.700	-58.494	0.100
759.800	-51.162	0.100
759.900	-35.911	0.100
760.000	-29.932	0.100
760.100	-56.552	0.100
760.200	-42.239	0.100
760.300	-29.536	0.100
760.400	-47.670	0.100
760.500	-53.312	0.100
760.600	-34.968	0.100
760.700	-47.523	0.100
760.800	-20.308	0.100
760.900	-34.143	0.100
761.000	-28.865	0.100
761.100	-39.459	0.100
761.200	-49.966	0.100
761.300	-32.657	0.100
761.400	-29.302	0.100
761.500	-25.913	0.100
761.600	-33.892	0.100
761.700	-46.590	0.100
761.800	-58.894	0.100
761.900	-49.070	0.100
762.000	-35.198	0.100
762.100	-41.127	0.100
762.200	-38.602	0.100
762.300	-44.938	0.100
762.400	-36.078	0.100
762.500	-31.981	0.100
762.600	-35.206	0.100
762.700	-50.034	0.100
762.800	-30.060	0.100
762.900	-34.425	0.100
763.000	-39.684	0.100
763.100	-53.389	0.100
763.200	-37.956	0.100
763.300	-44.113	0.100
763.400	-31.788	0.100
763.500	-31.043	0.100
763.600	-52.665	0.100
763.700	-27.863	0.100
763.800	-55.229	0.100
763.900	-38.704	0.100
764.000	-21.066	0.100
764.100	-40.741	0.100
764.200	-55.708	0.100
764.300	-34.221	0.100
764.400	-47.563	0.100
764.500	-59.796	0.100
764.600	-24.161	0.100
764.700	-38.304	0.100
764.800	-50.192	0.100
764.900	-22.522	0.100
765.000	-52.051	0.100
765.100	-40.556	0.100
765.200	-29.566	0.100
765.300	-44.959	0.100
765.400	-37.899	0.100
765.500	-38.504	0.100
765.600	-57.112	0.100
765.700	-51.399	0.100
765.800	1.445	0.100
765.900	-36.435	0.100
766.000	-37.532	0.100
766.100	-36.909	0.100
766.200	-49.778	0.100
766.300	-31.812	0.100
766.400	-31.842	0.100
766.500	-36.701	0.100
766.600	-33.505	0.100
766.700	-18.578	0.100
766.800	-46.894	0.100
766.900	-39.312	0.100
767.000	-29.473	0.100
767.100	-46.408	0.100
767.200	-31.562	0.100
767.300	-30.015	0.100
767.400	-29.822	0.100
767.500	-35.621	0.100
767.600	-41.259	0.100
767.700	-35.006	0.100
767.800	-24.676	0.100
767.900	-33.085	0.100
768.000	-36.696	0.100
768.100	-31.616	0.100
768.200	-39.606	0.100
768.300	-35.761	0.100
768.400	-28.917	0.100
768.500	-48.874	0.100
768.600	-21.084	0.100
768.700	-31.333	0.100
768.800	-42.671	0.100
768.900	-34.748	0.100
769.000	-42.146	0.100
769.100	-43.979	0.100
769.200	-23.160	0.100
769.300	-16.754	0.100
769.400	-35.359	0.100
769.500	-26.542	0.100
769.600	-29.705	0.100
769.700	-25.909	0.100
769.800	-44.068	0.100
769.900	-27.070	0.100
770.000	-40.384	0.100
770.100	-41.074	0.100
770.200	-20.886	0.100
770.300	-41.083	0.100
770.400	-48.039	0.100
770.500	-22.685	0.100
770.600	-33.514	0.100
770.700	-28.512	0.100
770.800	-40.992	0.100
770.900	-47.052	0.100
771.000	-27.382	0.100
771.100	-48.998	0.100
771.200	-35.159	0.100
771.300	-24.700	0.100
771.400	-38.410	0.100
771.500	-25.592	0.100
771.600	-25.478	0.100
771.700	-21.150	0.100
771.800	-29.848	0.100
771.900	-39.245	0.100
772.000	-32.569	0.100
772.100	-39.347	0.100
772.200	-38.981	0.100
772.300	-41.815	0.100
772.400	-46.800	0.100
772.500	-29.309	0.100
772.600	-45.796	0.100
772.700	-38.975	0.100
772.800	-31.642	0.100
772.900	-48.306	0.100
773.000	-52.587	0.100
773.100	-15.809	0.100
773.200	-35.717	0.100
773.300	-33.168	0.100
773.400	-36.417	0.100
773.500	-37.223	0.100
773.600	-34.343	0.100
773.700	-36.996	0.100
773.800	-40.734	0.100
773.900	-37.135	0.100
774.000	-36.508	0.100
774.100	-50.779	0.100
774.200	-53.326	0.100
774.300	-32.745	0.100
774.400	-14.188	0.100
774.500	-22.371	0.100
774.600	-43.474	0.100
774.700	-32.147	0.100
774.800	-29.951	0.100
774.900	-48.137	0.100
775.000	-35.668	0.100
775.100	-27.336	0.100
775.200	-31.051	0.100
775.300	-42.951	0.100
775.400	-29.152	0.100
775.500	-37.335	0.100
775.600	-50.085	0.100
775.700	-34.844	0.100
775.800	-23.549	0.100
775.900	-42.577	0.100
776.000	-36.594	0.100
776.100	-56.968	0.100
776.200	-37.979	0.100
776.300	-16.345	0.100
776.400	-30.507	0.100
776.500	-41.110	0.100
776.600	-48.070	0.100
776.700	-60.742	0.100
776.800	-23.564	0.100
776.900	-22.516	0.100
777.000	-27.216	0.100
777.100	-40.035	0.100
777.200	-28.895	0.100
777.300	-57.617	0.100
777.400	-37.878	0.100
777.500	-25.217	0.100
777.600	-37.117	0.100
777.700	-24.911	0.100
777.800	-24.702	0.100
777.900	-39.641	0.100
778.000	-37.034	0.100
778.100	-41.796	0.100
778.200	-39.820	0.100
778.300	-28.771	0.100
778.400	-35.410	0.100
778.500	-60.314	0.100
778.600	-39.974	0.100
778.700	-25.826	0.100
778.800	-31.440	0.100
778.900	-14.153	0.100
779.000	-28.221	0.100
779.100	-24.703	0.100
779.200	-14.826	0.100
779.300	-51.180	0.100
779.400	-36.904	0.100
779.500	-18.618	0.100
779.600	-43.977	0.100
779.700	-50.697	0.100
779.800	-53.532	0.100
779.900	-51.714	0.100
780.000	-48.954	0.100
780.100	-18.529	0.100
780.200	-19.300	0.100
780.300	-11.373	0.100
780.400	-17.038	0.100
780.500	-10.192	0.100
780.600	3.183	0.100
780.700	22.886	0.100
780.800	13.612	0.100
780.900	34.191	0.100
781.000	38.941	0.100
781.100	40.004	0.100
781.200	32.731	0.100
781.300	25.490	0.100
781.400	41.453	0.100
781.500	21.379	0.100
781.600	51.569	0.100
781.700	59.626	0.100
781.800	62.418	0.100
781.900	53.547	0.100
782.000	58.473	0.100
782.100	59.078	0.100
782.200	47.007	0.100
782.300	38.888	0.100
782.400	53.873	0.100
782.500	53.980	0.100
782.600	57.540	0.100
782.700	62.208	0.100
782.800	46.327	0.100
782.900	50.640	0.100
783.000	52.310	0.100
783.100	60.628	0.100
783.200	37.938	0.100
783.300	37.382	0.100
783.400	42.625	0.100
783.500	61.161	0.100
783.600	55.597	0.100
783.700	50.002	0.100
783.800	47.319	0.100
783.900	43.581	0.100
784.000	49.496	0.100
784.100	36.921	0.100
784.200	47.241	0.100
784.300	26.316	0.100
784.400	55.518	0.100
784.500	62.283	0.100
784.600	39.139	0.100
784.700	32.921	0.100
784.800	35.578	0.100
784.900	40.748	0.100
785.000	41.205	0.100
785.100	38.904	0.100
785.200	43.656	0.100
785.300	36.654	0.100
785.400	30.533	0.100
785.500	34.814	0.100
785.600	53.461	0.100
785.700	35.522	0.100
785.800	51.138	0.100
785.900	49.260	0.100
786.000	35.651	0.100
786.100	22.595	0.100
786.200	50.053	0.100
786.300	51.791	0.100
786.400	47.247	0.100
786.500	48.244	0.100
786.600	47.309	0.100
786.700	51.455	0.100
786.800	45.317	0.100
786.900	40.540	0.100
787.000	52.779	0.100
787.100	44.790	0.100
787.200	36.731	0.100
787.300	61.126	0.100
787.400	72.831	0.100
787.500	58.342	0.100
787.600	63.369	0.100
787.700	63.947	0.100
787.800	55.043	0.100
787.900	52.988	0.100
788.000	67.610	0.100
788.100	61.684	0.100
788.200	59.169	0.100
788.300	73.552	0.100
788.400	61.333	0.100
788.500	84.624	0.100
788.600	77.238	0.100
788.700	60.213	0.100
788.800	64.435	0.100
788.900	77.730	0.100
789.000	77.999	0.100
789.100	87.573	0.100
789.200	67.444	0.100
789.300	81.340	0.100
789.400	84.681	0.100
789.500	93.281	0.100
789.600	75.675	0.100
789.700	81.103	0.100
789.800	83.609	0.100
789.900	72.055	0.100
790.000	89.475	0.100
790.100	85.748	0.100
790.200	80.606	0.100
790.300	90.635	0.100
790.400	103.891	0.100
790.500	98.055	0.100
790.600	101.056	0.100
790.700	94.982	0.100
790.800	91.307	0.100
790.900	116.602	0.100
791.000	105.072	0.100
791.100	100.740	0.100
791.200	102.461	0.100
791.300	107.245	0.100
791.400	120.909	0.100
791.500	104.040	0.100
791.600	109.397	0.100
791.700	116.503	0.100
791.800	106.031	0.100
791.900	106.258	0.100
792.000	128.886	0.100
792.100	93.519	0.100
792.200	128.067	0.100
792.300	106.559	0.100
792.400	108.786	0.100
792.500	112.340	0.100
792.600	133.867	0.100
792.700	113.619	0.100
792.800	111.079	0.100
792.900	125.280	0.100
793.000	122.803	0.100
793.100	122.219	0.100
793.200	118.410	0.100
793.300	108.686	0.100
793.400	116.200	0.100
793.500	108.762	0.100
793.600	129.217	0.100
793.700	116.259	0.100
793.800	139.458	0.100
793.900	124.771	0.100
794.000	126.012	0.100
794.100	129.819	0.100
794.200	112.866	0.100
794.300	139.219	0.100
794.400	137.054	0.100
794.500	126.007	0.100
794.600	118.932	0.100
794.700	140.880	0.100
794.800	126.230	0.100
794.900	126.882	0.100
795.000	140.219	0.100
795.100	112.629	0.100
795.200	129.225	0.100
795.300	148.327	0.100
795.400	109.184	0.100
795.500	126.078	0.100
795.600	120.010	0.100
795.700	139.631	0.100
795.800	144.700	0.100
795.900	101.157	0.100
796.000	118.090	0.100
796.100	131.635	0.100
796.200	131.723	0.100
796.300	115.749	0.100
796.400	140.796	0.100
796.500	131.551	0.100
796.600	112.434	0.100
796.700	127.225	0.100
796.800	125.997	0.100
796.900	114.618	0.100
797.000	125.347	0.100
797.100	138.305	0.100
797.200	118.591	0.100
797.300	137.671	0.100
797.400	119.977	0.100
797.500	118.949	0.100
797.600	148.120	0.100
797.700	126.112	0.100
797.800	123.959	0.100
797.900	131.837	0.100
798.000	120.246	0.100
798.100	121.303	0.100
798.200	139.873	0.100
798.300	126.436	0.100
798.400	127.930	0.100
798.500	117.368	0.100
798.600	116.578	0.100
798.700	122.276	0.100
798.800	128.107	0.100
798.900	118.535	0.100
799.000	127.225	0.100
799.100	121.895	0.100
799.200	119.870	0.100
799.300	107.983	0.100
799.400	133.987	0.100
799.500	113.240	0.100
799.600	127.300	0.100
799.700	120.126	0.100
799.800	102.392	0.100
799.900	118.604	0.100
800.000	116.489	0.100
