time /s	I /nA	E /V
0.100	-15.821	0.100
0.200	-5.986	0.099
0.300	-5.328	0.100
0.400	-12.537	0.100
0.500	-13.307	0.100
0.600	-34.255	0.100
0.700	15.818	0.100
0.800	-5.465	0.100
0.900	-4.312	0.100
1.000	-7.775	0.100
1.100	-4.838	0.100
1.200	5.575	0.100
1.300	-11.250	0.100
1.400	-1.653	0.100
1.500	-12.178	0.100
1.600	-11.250	0.100
1.700	-4.493	0.100
1.800	-19.166	0.099
1.900	-29.886	0.099
2.000	-15.942	0.100
2.100	-4.951	0.099
2.200	10.744	0.099
2.300	-8.474	0.100
2.400	-3.593	0.100
2.500	-22.853	0.099
2.600	17.963	0.100
2.700	-9.245	0.100
2.800	-16.713	0.100
2.900	-9.193	0.100
3.000	-46.641	0.100
3.100	-3.852	0.100
3.200	-7.389	0.100
3.300	11.600	0.100
3.400	20.436	0.100
3.500	-20.723	0.100
3.600	-8.005	0.100
3.700	-8.171	0.100
3.800	-45.624	0.100
3.900	-10.556	0.100
4.000	10.270	0.100
4.100	-9.133	0.100
4.200	-24.139	0.100
4.300	-3.143	0.100
4.400	-15.961	0.100
4.500	-23.446	0.100
4.600	12.057	0.100
4.700	-5.440	0.099
4.800	-10.778	0.100
4.900	-9.891	0.100
5.000	-24.358	0.100
5.100	-10.951	0.100
5.200	0.766	0.100
5.300	-15.131	0.100
5.400	-19.185	0.099
5.500	-1.578	0.100
5.600	-39.393	0.100
5.700	12.758	0.100
5.800	6.717	0.100
5.900	-35.496	0.099
6.000	6.524	0.100
6.100	-11.865	0.100
6.200	-9.413	0.100
6.300	-11.062	0.100
6.400	-29.059	0.100
6.500	-2.361	0.100
6.600	10.082	0.100
6.700	-14.362	0.100
6.800	13.216	0.100
6.900	-15.367	0.100
7.000	-17.565	0.100
7.100	-8.938	0.100
7.200	10.229	0.100
7.300	-17.155	0.100
7.400	-34.726	0.100
7.500	-4.487	0.100
7.600	-47.239	0.100
7.700	-15.591	0.100
7.800	14.128	0.100
7.900	-2.298	0.100
8.000	-15.585	0.100
8.100	10.931	0.100
8.200	-5.941	0.100
8.300	-4.254	0.100
8.400	9.481	0.100
8.500	-12.001	0.100
8.600	-20.525	0.100
8.700	-7.857	0.100
8.800	-12.419	0.100
8.900	2.029	0.100
9.000	-0.857	0.100
9.100	-13.971	0.100
9.200	14.542	0.100
9.300	-16.179	0.100
9.400	-10.516	0.100
9.500	-13.484	0.100
9.600	-11.608	0.100
9.700	-10.483	0.100
9.800	-8.812	0.100
9.900	-12.398	0.100
10.000	-8.625	0.100
10.100	2.256	0.099
10.200	12.530	0.100
10.300	0.757	0.100
10.400	-3.767	0.100
10.500	6.694	0.100
10.600	-15.570	0.100
10.700	8.921	0.100
10.800	-13.123	0.100
10.900	4.756	0.100
11.000	-20.917	0.100
11.100	-60.092	0.100
11.200	-6.585	0.100
11.300	16.518	0.100
11.400	-2.152	0.100
11.500	-27.865	0.100
11.600	-1.765	0.100
11.700	-13.486	0.100
11.800	-19.907	0.100
11.900	8.213	0.099
12.000	-17.120	0.100
12.100	1.610	0.100
12.200	4.188	0.100
12.300	-21.410	0.099
12.400	-18.431	0.100
12.500	-0.791	0.100
12.600	5.858	0.100
12.700	-4.014	0.100
12.800	-14.020	0.100
12.900	-31.449	0.100
13.000	-20.804	0.100
13.100	-6.813	0.100
13.200	-32.816	0.100
13.300	-5.074	0.100
13.400	-39.995	0.100
13.500	9.814	0.100
13.600	22.328	0.100
13.700	-4.162	0.100
13.800	-10.941	0.100
13.900	0.598	0.100
14.000	-5.697	0.100
14.100	-23.005	0.100
14.200	-0.314	0.100
14.300	-18.967	0.100
14.400	-13.952	0.100
14.500	2.325	0.100
14.600	-0.790	0.100
14.700	-35.264	0.100
14.800	-16.671	0.100
14.900	-15.109	0.100
15.000	5.588	0.100
15.100	-2.877	0.100
15.200	-49.307	0.099
15.300	0.362	0.100
15.400	-12.152	0.100
15.500	9.888	0.100
15.600	-2.797	0.100
15.700	-0.609	0.100
15.800	-23.931	0.099
15.900	-25.805	0.100
16.000	16.251	0.100
16.100	11.760	0.100
16.200	-7.813	0.100
16.300	7.282	0.100
16.400	-7.589	0.100
16.500	-10.803	0.099
16.600	-17.595	0.100
16.700	-11.638	0.100
16.800	-1.090	0.100
16.900	-21.549	0.100
17.000	-18.943	0.100
17.100	-5.778	0.100
17.200	-4.923	0.100
17.300	-0.112	0.100
17.400	-22.317	0.100
17.500	-6.098	0.100
17.600	-20.635	0.100
17.700	-15.709	0.100
17.800	-16.383	0.099
17.900	-10.410	0.099
18.000	13.152	0.100
18.100	4.760	0.100
18.200	-23.166	0.100
18.300	6.824	0.100
18.400	-14.891	0.100
18.500	-39.638	0.100
18.600	5.118	0.100
18.700	-18.077	0.100
18.800	-28.230	0.100
18.900	18.378	0.100
19.000	-16.940	0.100
19.100	-5.939	0.100
19.200	-10.682	0.100
19.300	2.729	0.099
19.400	-15.748	0.100
19.500	-30.354	0.099
19.600	1.672	0.100
19.700	2.904	0.100
19.800	-10.233	0.100
19.900	-9.145	0.100
20.000	-2.942	0.100
20.100	6.219	0.100
20.200	-34.658	0.100
20.300	-8.626	0.099
20.400	12.609	0.100
20.500	-13.791	0.100
20.600	-15.218	0.099
20.700	9.161	0.100
20.800	-18.686	0.100
20.900	-6.016	0.100
21.000	7.985	0.100
21.100	3.665	0.100
21.200	-37.607	0.100
21.300	21.569	0.100
21.400	-36.671	0.100
21.500	5.534	0.100
21.600	3.042	0.100
21.700	-41.466	0.100
21.800	-3.610	0.100
21.900	8.101	0.099
22.000	-20.890	0.100
22.100	-10.979	0.100
22.200	9.011	0.100
22.300	-16.392	0.100
22.400	9.542	0.100
22.500	-14.697	0.100
22.600	-24.339	0.100
22.700	9.576	0.100
22.800	-19.936	0.100
22.900	-16.397	0.100
23.000	-23.140	0.100
23.100	-15.448	0.099
23.200	-11.584	0.100
23.300	-6.138	0.100
23.400	-19.666	0.100
23.500	3.022	0.100
23.600	15.564	0.100
23.700	-14.858	0.100
23.800	-7.833	0.100
23.900	18.101	0.100
24.000	4.152	0.100
24.100	-27.176	0.099
24.200	-14.078	0.100
24.300	20.526	0.099
24.400	-7.985	0.100
24.500	-19.828	0.100
24.600	-13.100	0.100
24.700	10.894	0.100
24.800	-12.617	0.100
24.900	-31.632	0.100
25.000	16.842	0.099
25.100	-1.557	0.100
25.200	-12.204	0.100
25.300	-2.184	0.099
25.400	-12.686	0.099
25.500	-4.732	0.100
25.600	13.517	0.100
25.700	-12.292	0.100
25.800	-0.148	0.099
25.900	-15.129	0.099
26.000	-13.806	0.100
26.100	-11.141	0.099
26.200	-2.861	0.099
26.300	-21.657	0.100
26.400	-12.504	0.099
26.500	4.015	0.099
26.600	-15.555	0.099
26.700	-38.964	0.099
26.800	-3.421	0.099
26.900	27.690	0.100
27.000	-6.409	0.100
27.100	6.649	0.100
27.200	-12.518	0.100
27.300	-34.951	0.100
27.400	-15.504	0.099
27.500	-29.888	0.099
27.600	5.573	0.100
27.700	-20.834	0.100
27.800	4.215	0.099
27.900	8.731	0.099
28.000	2.325	0.099
28.100	-4.583	0.099
28.200	-39.034	0.100
28.300	-0.243	0.100
28.400	-11.715	0.100
28.500	-3.216	0.100
28.600	-10.771	0.100
28.700	-59.600	0.100
28.800	-11.037	0.100
28.900	-13.443	0.099
29.000	18.007	0.100
29.100	9.851	0.099
29.200	-2.362	0.099
29.300	-42.570	0.100
29.400	10.602	0.100
29.500	-3.477	0.100
29.600	-23.534	0.100
29.700	-9.053	0.099
29.800	3.575	0.100
29.900	-28.970	0.100
30.000	17.027	0.100
30.100	7.394	0.100
30.200	-25.774	0.099
30.300	7.281	0.100
30.400	-6.803	0.100
30.500	0.858	0.100
30.600	24.530	0.100
30.700	12.827	0.099
30.800	-8.414	0.099
30.900	31.321	0.100
31.000	-10.800	0.099
31.100	6.602	0.100
31.200	-1.889	0.100
31.300	12.862	0.100
31.400	-8.724	0.100
31.500	26.620	0.100
31.600	34.111	0.100
31.700	32.922	0.099
31.800	27.122	0.100
31.900	11.680	0.099
32.000	14.778	0.099
32.100	38.765	0.100
32.200	23.414	0.099
32.300	26.686	0.099
32.400	27.893	0.100
32.500	27.390	0.100
32.600	16.111	0.099
32.700	34.514	0.100
32.800	6.733	0.100
32.900	46.925	0.100
33.000	23.172	0.100
33.100	2.594	0.100
33.200	42.192	0.100
33.300	52.221	0.100
33.400	7.536	0.099
33.500	37.414	0.100
33.600	41.169	0.100
33.700	30.542	0.100
33.800	17.419	0.100
33.900	25.875	0.100
34.000	41.429	0.100
34.100	32.337	0.100
34.200	48.997	0.100
34.300	24.653	0.100
34.400	30.294	0.099
34.500	33.491	0.100
34.600	25.734	0.100
34.700	44.362	0.100
34.800	41.637	0.100
34.900	27.471	0.100
35.000	29.931	0.099
35.100	46.873	0.100
35.200	23.914	0.100
35.300	49.336	0.099
35.400	44.948	0.100
35.500	43.872	0.100
35.600	56.448	0.100
35.700	42.715	0.100
35.800	26.868	0.099
35.900	58.876	0.100
36.000	51.861	0.100
36.100	40.290	0.100
36.200	56.728	0.100
36.300	57.979	0.100
36.400	58.844	0.099
36.500	47.130	0.100
36.600	42.429	0.100
36.700	54.018	0.100
36.800	70.610	0.099
36.900	56.268	0.100
37.000	57.136	0.100
37.100	31.378	0.100
37.200	41.287	0.100
37.300	77.056	0.100
37.400	79.306	0.100
37.500	47.837	0.100
37.600	43.898	0.099
37.700	50.486	0.100
37.800	88.193	0.100
37.900	49.299	0.100
38.000	56.522	0.099
38.100	81.096	0.100
38.200	74.421	0.100
38.300	83.302	0.100
38.400	59.901	0.100
38.500	63.999	0.099
38.600	93.780	0.100
38.700	58.650	0.100
38.800	63.075	0.100
38.900	49.384	0.100
39.000	52.985	0.100
39.100	88.650	0.100
39.200	77.005	0.100
39.300	73.153	0.100
39.400	89.184	0.099
39.500	60.745	0.100
39.600	45.956	0.099
39.700	59.035	0.099
39.800	64.700	0.100
39.900	63.849	0.099
40.000	31.401	0.099
40.100	81.296	0.099
40.200	90.381	0.100
40.300	71.641	0.100
40.400	73.855	0.100
40.500	74.790	0.100
40.600	88.210	0.100
40.700	58.347	0.100
40.800	73.895	0.100
40.900	70.236	0.100
41.000	62.361	0.100
41.100	59.883	0.100
41.200	70.337	0.100
41.300	23.755	0.100
41.400	72.569	0.100
41.500	74.141	0.100
41.600	64.517	0.100
41.700	74.955	0.099
41.800	63.191	0.100
41.900	54.924	0.100
42.000	64.644	0.100
42.100	83.748	0.100
42.200	34.897	0.100
42.300	69.584	0.100
42.400	64.083	0.100
42.500	51.111	0.100
42.600	61.834	0.100
42.700	66.249	0.100
42.800	39.838	0.100
42.900	46.497	0.100
43.000	59.484	0.100
43.100	47.753	0.100
43.200	80.734	0.100
43.300	59.780	0.100
43.400	46.534	0.100
43.500	65.634	0.100
43.600	47.502	0.100
43.700	36.116	0.100
43.800	87.180	0.100
43.900	59.598	0.099
44.000	63.725	0.100
44.100	56.237	0.100
44.200	36.144	0.099
44.300	37.844	0.100
44.400	39.277	0.100
44.500	59.624	0.099
44.600	59.895	0.100
44.700	42.551	0.100
44.800	42.920	0.100
44.900	58.956	0.100
45.000	67.255	0.100
45.100	57.645	0.100
45.200	51.915	0.100
45.300	52.950	0.099
45.400	43.642	0.100
45.500	40.993	0.100
45.600	44.038	0.099
45.700	38.915	0.100
45.800	31.241	0.100
45.900	43.640	0.100
46.000	28.025	0.099
46.100	50.447	0.099
46.200	61.026	0.099
46.300	51.755	0.099
46.400	43.046	0.099
46.500	26.762	0.100
46.600	24.471	0.099
46.700	75.431	0.100
46.800	31.565	0.100
46.900	33.666	0.099
47.000	65.968	0.099
47.100	42.436	0.100
47.200	43.569	0.099
47.300	60.191	0.100
47.400	12.130	0.100
47.500	29.084	0.099
47.600	51.589	0.100
47.700	43.830	0.100
47.800	26.158	0.100
47.900	37.894	0.100
48.000	29.265	0.099
48.100	16.920	0.100
48.200	38.411	0.100
48.300	34.041	0.099
48.400	36.107	0.100
48.500	49.761	0.100
48.600	25.809	0.099
48.700	29.526	0.099
48.800	39.228	0.100
48.900	31.596	0.099
49.000	44.855	0.100
49.100	39.334	0.100
49.200	44.807	0.100
49.300	30.328	0.100
49.400	67.531	0.100
49.500	38.967	0.099
49.600	52.193	0.100
49.700	25.243	0.100
49.800	25.863	0.099
49.900	39.516	0.100
50.000	63.023	0.099
50.100	49.239	0.100
50.200	45.812	0.100
50.300	26.029	0.100
50.400	38.909	0.100
50.500	32.789	0.100
50.600	28.750	0.100
50.700	12.348	0.099
50.800	28.229	0.100
50.900	60.719	0.099
51.000	48.487	0.100
51.100	41.733	0.099
51.200	33.360	0.099
51.300	12.355	0.099
51.400	39.942	0.100
51.500	28.408	0.100
51.600	36.160	0.099
51.700	41.918	0.099
51.800	31.375	0.100
51.900	31.503	0.100
52.000	24.698	0.100
52.100	34.272	0.100
52.200	30.528	0.100
52.300	36.424	0.099
52.400	29.579	0.100
52.500	45.289	0.099
52.600	39.089	0.100
52.700	42.503	0.100
52.800	21.778	0.100
52.900	49.772	0.100
53.000	41.041	0.099
53.100	15.240	0.099
53.200	15.378	0.100
53.300	28.194	0.099
53.400	13.409	0.099
53.500	46.406	0.099
53.600	21.885	0.100
53.700	58.983	0.100
53.800	13.034	0.099
53.900	31.087	0.100
54.000	38.198	0.099
54.100	47.491	0.099
54.200	3.951	0.099
54.300	32.487	0.100
54.400	52.515	0.099
54.500	23.548	0.099
54.600	41.181	0.100
54.700	22.330	0.099
54.800	23.222	0.099
54.900	55.404	0.099
55.000	30.677	0.100
55.100	32.652	0.099
55.200	49.192	0.099
55.300	31.697	0.099
55.400	33.969	0.100
55.500	37.449	0.099
55.600	31.805	0.099
55.700	27.706	0.099
55.800	40.118	0.099
55.900	35.790	0.099
56.000	43.809	0.100
56.100	44.009	0.099
56.200	33.885	0.099
56.300	18.384	0.099
56.400	62.169	0.099
56.500	2.551	0.099
56.600	33.615	0.100
56.700	51.881	0.100
56.800	53.245	0.100
56.900	26.538	0.099
57.000	45.001	0.099
57.100	46.696	0.100
57.200	36.106	0.099
57.300	60.799	0.099
57.400	38.174	0.099
57.500	63.641	0.100
57.600	40.389	0.100
57.700	32.842	0.100
57.800	54.751	0.099
57.900	40.617	0.100
58.000	37.768	0.099
58.100	49.924	0.099
58.200	51.774	0.099
58.300	9.719	0.099
58.400	49.656	0.099
58.500	60.368	0.100
58.600	47.283	0.100
58.700	44.595	0.099
58.800	46.024	0.100
58.900	43.188	0.099
59.000	40.489	0.099
59.100	59.058	0.099
59.200	40.549	0.099
59.300	39.564	0.099
59.400	33.076	0.100
59.500	38.047	0.099
59.600	52.374	0.099
59.700	76.709	0.099
59.800	47.167	0.099
59.900	48.751	0.100
60.000	27.601	0.099
60.100	28.848	0.100
60.200	59.358	0.099
60.300	29.425	0.099
60.400	21.899	0.099
60.500	38.849	0.100
60.600	64.481	0.100
60.700	52.432	0.100
60.800	70.265	0.099
60.900	43.550	0.099
61.000	44.355	0.100
61.100	62.543	0.099
61.200	35.604	0.099
61.300	55.060	0.099
61.400	59.956	0.099
61.500	22.558	0.099
61.600	40.300	0.100
61.700	54.987	0.099
61.800	31.354	0.100
61.900	62.644	0.099
62.000	39.241	0.099
62.100	44.295	0.099
62.200	49.835	0.100
62.300	34.987	0.100
62.400	65.663	0.099
62.500	49.440	0.099
62.600	77.832	0.100
62.700	30.341	0.099
62.800	38.356	0.100
62.900	67.795	0.100
63.000	68.831	0.099
63.100	50.329	0.100
63.200	31.940	0.099
63.300	42.987	0.099
63.400	73.728	0.100
63.500	41.375	0.100
63.600	53.422	0.100
63.700	39.502	0.100
63.800	76.771	0.100
63.900	36.840	0.099
64.000	60.749	0.100
64.100	52.440	0.100
64.200	48.341	0.100
64.300	55.305	0.100
64.400	51.217	0.099
64.500	31.823	0.100
64.600	42.512	0.099
64.700	59.057	0.100
64.800	73.376	0.100
64.900	56.499	0.100
65.000	53.718	0.100
65.100	47.257	0.100
65.200	68.430	0.100
65.300	32.880	0.099
65.400	70.898	0.100
65.500	25.364	0.099
65.600	52.754	0.100
65.700	45.634	0.099
65.800	73.432	0.100
65.900	78.464	0.099
66.000	45.773	0.099
66.100	54.662	0.100
66.200	43.604	0.100
66.300	32.879	0.100
66.400	58.568	0.100
66.500	55.168	0.100
66.600	62.889	0.099
66.700	58.277	0.099
66.800	59.968	0.099
66.900	35.072	0.100
67.000	35.319	0.099
67.100	37.515	0.099
67.200	51.348	0.100
67.300	64.909	0.100
67.400	28.605	0.099
67.500	34.660	0.100
67.600	55.632	0.099
67.700	73.765	0.099
67.800	73.139	0.099
67.900	69.411	0.100
68.000	53.138	0.100
68.100	67.701	0.100
68.200	31.130	0.100
68.300	23.824	0.099
68.400	62.044	0.100
68.500	54.287	0.099
68.600	56.390	0.100
68.700	44.973	0.100
68.800	67.704	0.100
68.900	42.153	0.099
69.000	47.003	0.100
69.100	48.829	0.099
69.200	75.342	0.100
69.300	49.706	0.100
69.400	31.606	0.100
69.500	57.833	0.099
69.600	71.684	0.100
69.700	45.897	0.100
69.800	59.023	0.100
69.900	45.965	0.100
70.000	52.152	0.100
70.100	65.894	0.099
70.200	34.436	0.100
70.300	49.227	0.100
70.400	48.984	0.100
70.500	55.384	0.100
70.600	52.694	0.099
70.700	70.429	0.100
70.800	63.433	0.100
70.900	57.489	0.099
71.000	39.421	0.100
71.100	69.461	0.100
71.200	42.457	0.100
71.300	39.176	0.100
71.400	60.068	0.100
71.500	46.953	0.099
71.600	47.431	0.099
71.700	71.233	0.100
71.800	52.801	0.099
71.900	40.184	0.100
72.000	73.665	0.100
72.100	33.084	0.099
72.200	69.457	0.099
72.300	40.495	0.100
72.400	47.602	0.100
72.500	61.581	0.099
72.600	56.171	0.100
72.700	55.721	0.100
72.800	68.300	0.099
72.900	56.671	0.100
73.000	37.558	0.099
73.100	65.103	0.100
73.200	48.252	0.100
73.300	66.682	0.100
73.400	57.732	0.099
73.500	53.226	0.100
73.600	45.393	0.099
73.700	42.204	0.099
73.800	40.770	0.100
73.900	56.313	0.100
74.000	38.508	0.100
74.100	69.678	0.100
74.200	59.982	0.100
74.300	60.527	0.100
74.400	50.788	0.100
74.500	61.893	0.100
74.600	39.005	0.100
74.700	66.479	0.100
74.800	54.577	0.100
74.900	46.212	0.099
75.000	66.459	0.100
75.100	92.211	0.100
75.200	38.662	0.100
75.300	40.402	0.100
75.400	50.042	0.100
75.500	77.633	0.099
75.600	21.690	0.100
75.700	71.292	0.100
75.800	53.939	0.100
75.900	18.201	0.100
76.000	56.661	0.100
76.100	39.291	0.100
76.200	78.698	0.099
76.300	61.406	0.100
76.400	60.342	0.100
76.500	69.529	0.100
76.600	67.739	0.100
76.700	44.563	0.100
76.800	68.853	0.100
76.900	70.763	0.100
77.000	34.434	0.099
77.100	78.567	0.099
77.200	65.983	0.100
77.300	62.165	0.100
77.400	50.938	0.100
77.500	72.536	0.100
77.600	66.685	0.100
77.700	63.621	0.100
77.800	60.632	0.100
77.900	41.806	0.100
78.000	67.294	0.100
78.100	65.184	0.099
78.200	40.642	0.100
78.300	60.249	0.099
78.400	56.897	0.100
78.500	46.513	0.100
78.600	49.341	0.100
78.700	66.722	0.100
78.800	42.565	0.100
78.900	68.647	0.100
79.000	74.619	0.100
79.100	35.170	0.100
79.200	63.646	0.100
79.300	67.523	0.100
79.400	19.868	0.100
79.500	51.107	0.100
79.600	51.809	0.099
79.700	50.722	0.100
79.800	79.788	0.100
79.900	61.542	0.100
80.000	45.465	0.100
80.100	80.088	0.100
80.200	25.868	0.100
80.300	70.217	0.100
80.400	61.322	0.100
80.500	58.246	0.100
80.600	72.571	0.099
80.700	89.630	0.100
80.800	28.508	0.100
80.900	61.115	0.100
81.000	88.119	0.100
81.100	51.034	0.100
81.200	52.804	0.100
81.300	67.660	0.100
81.400	45.624	0.099
81.500	58.123	0.100
81.600	81.589	0.100
81.700	42.632	0.100
81.800	72.883	0.100
81.900	61.365	0.099
82.000	36.242	0.100
82.100	48.926	0.100
82.200	88.201	0.100
82.300	71.206	0.100
82.400	70.505	0.099
82.500	49.266	0.099
82.600	53.008	0.100
82.700	79.264	0.100
82.800	70.259	0.100
82.900	36.722	0.099
83.000	70.480	0.100
83.100	82.471	0.100
83.200	39.591	0.099
83.300	51.443	0.100
83.400	52.354	0.100
83.500	60.446	0.100
83.600	89.020	0.100
83.700	57.373	0.099
83.800	55.799	0.100
83.900	60.091	0.099
84.000	60.501	0.100
84.100	50.672	0.099
84.200	62.961	0.099
84.300	42.301	0.100
84.400	38.472	0.100
84.500	75.053	0.099
84.600	73.858	0.099
84.700	52.921	0.100
84.800	48.260	0.100
84.900	38.418	0.099
85.000	65.257	0.100
85.100	82.335	0.099
85.200	65.521	0.100
85.300	63.189	0.100
85.400	57.623	0.100
85.500	52.570	0.100
85.600	73.074	0.100
85.700	58.602	0.099
85.800	58.323	0.099
85.900	71.424	0.100
86.000	78.874	0.100
86.100	37.894	0.100
86.200	106.388	0.100
86.300	59.478	0.100
86.400	60.986	0.100
86.500	56.676	0.100
86.600	71.517	0.100
86.700	65.782	0.100
86.800	61.212	0.100
86.900	56.053	0.100
87.000	54.087	0.100
87.100	68.217	0.100
87.200	86.350	0.099
87.300	41.527	0.100
87.400	56.161	0.099
87.500	84.071	0.100
87.600	45.240	0.100
87.700	66.228	0.100
87.800	70.592	0.100
87.900	67.303	0.100
88.000	71.926	0.100
88.100	64.211	0.100
88.200	66.169	0.100
88.300	59.744	0.100
88.400	59.594	0.099
88.500	54.706	0.100
88.600	64.839	0.099
88.700	40.565	0.100
88.800	52.164	0.100
88.900	83.320	0.100
89.000	54.801	0.100
89.100	43.046	0.099
89.200	59.969	0.100
89.300	65.386	0.100
89.400	28.946	0.100
89.500	74.370	0.099
89.600	50.309	0.100
89.700	69.023	0.100
89.800	87.810	0.100
89.900	82.189	0.100
90.000	48.449	0.100
90.100	65.938	0.100
90.200	37.411	0.100
90.300	47.007	0.100
90.400	67.385	0.100
90.500	42.577	0.100
90.600	55.024	0.100
90.700	52.172	0.100
90.800	33.604	0.100
90.900	39.580	0.100
91.000	29.609	0.100
91.100	25.297	0.100
91.200	32.864	0.100
91.300	30.841	0.100
91.400	20.905	0.099
91.500	17.233	0.100
91.600	34.621	0.100
91.700	-13.561	0.099
91.800	32.169	0.100
91.900	18.259	0.100
92.000	12.957	0.100
92.100	13.923	0.100
92.200	3.199	0.100
92.300	-39.167	0.100
92.400	-4.741	0.100
92.500	30.820	0.100
92.600	-8.659	0.100
92.700	1.223	0.099
92.800	-8.622	0.100
92.900	-10.745	0.100
93.000	6.726	0.100
93.100	-0.193	0.100
93.200	-13.819	0.100
93.300	6.801	0.099
93.400	-30.216	0.100
93.500	-4.324	0.100
93.600	-14.072	0.100
93.700	-49.179	0.099
93.800	8.769	0.100
93.900	22.302	0.100
94.000	-34.748	0.100
94.100	-18.204	0.100
94.200	-19.649	0.099
94.300	-23.116	0.100
94.400	-6.925	0.100
94.500	-5.347	0.099
94.600	-13.809	0.100
94.700	-10.029	0.100
94.800	0.182	0.100
94.900	-26.714	0.100
95.000	-17.722	0.100
95.100	3.131	0.100
95.200	-14.707	0.100
95.300	-19.563	0.100
95.400	-21.952	0.100
95.500	-10.691	0.100
95.600	-10.834	0.100
95.700	-12.036	0.100
95.800	-3.175	0.099
95.900	-35.339	0.100
96.000	-6.258	0.099
96.100	-12.207	0.100
96.200	-19.909	0.100
96.300	-31.482	0.100
96.400	-4.912	0.100
96.500	-20.967	0.100
96.600	-2.051	0.100
96.700	-20.109	0.100
96.800	-10.836	0.100
96.900	0.651	0.100
97.000	-3.339	0.100
97.100	-11.360	0.100
97.200	-12.660	0.100
97.300	-20.710	0.099
97.400	-8.828	0.099
97.500	-31.715	0.100
97.600	-28.372	0.100
97.700	9.681	0.100
97.800	-26.696	0.100
97.900	-22.588	0.100
98.000	-3.877	0.100
98.100	-34.785	0.099
98.200	4.173	0.100
98.300	12.970	0.100
98.400	-31.071	0.100
98.500	-15.032	0.100
98.600	-24.831	0.100
98.700	9.550	0.100
98.800	-20.328	0.100
98.900	-10.049	0.100
99.000	-16.195	0.100
99.100	-3.931	0.100
99.200	-3.509	0.100
99.300	-28.988	0.099
99.400	-13.655	0.100
99.500	-3.846	0.100
99.600	-0.528	0.100
99.700	-5.025	0.100
99.800	-21.369	0.100
99.900	-15.038	0.100
100.000	6.422	0.100
100.100	-6.662	0.100
100.200	-12.732	0.100
100.300	0.217	0.100
100.400	-5.645	0.100
100.500	-12.952	0.100
100.600	-2.470	0.100
100.700	-22.274	0.100
100.800	-15.732	0.100
100.900	8.600	0.100
101.000	-15.327	0.100
101.100	-18.778	0.100
101.200	-31.019	0.100
101.300	2.366	0.100
101.400	-9.612	0.100
101.500	-17.952	0.100
101.600	-3.292	0.100
101.700	-1.887	0.100
101.800	1.805	0.100
101.900	-14.243	0.100
102.000	-22.456	0.100
102.100	-2.216	0.100
102.200	-38.433	0.100
102.300	4.771	0.100
102.400	0.185	0.100
102.500	3.569	0.100
102.600	-3.232	0.100
102.700	14.265	0.100
102.800	-26.509	0.100
102.900	-5.269	0.100
103.000	-25.422	0.100
103.100	-18.463	0.100
103.200	-24.370	0.100
103.300	-6.393	0.100
103.400	-30.193	0.100
103.500	17.548	0.100
103.600	-1.159	0.100
103.700	-26.276	0.100
103.800	-16.085	0.100
103.900	12.548	0.100
104.000	-6.647	0.100
104.100	-24.020	0.100
104.200	-16.737	0.100
104.300	-29.510	0.100
104.400	31.531	0.100
104.500	-11.116	0.100
104.600	-19.384	0.100
104.700	-15.975	0.100
104.800	9.012	0.100
104.900	-13.807	0.100
105.000	-6.020	0.100
105.100	-3.204	0.100
105.200	-14.706	0.100
105.300	-15.790	0.100
105.400	5.096	0.100
105.500	-21.021	0.100
105.600	-23.119	0.100
105.700	1.747	0.100
105.800	-5.356	0.100
105.900	-6.456	0.100
106.000	-3.880	0.100
106.100	-14.700	0.100
106.200	2.615	0.100
106.300	-27.393	0.099
106.400	-17.636	0.100
106.500	-1.330	0.100
106.600	-0.961	0.100
106.700	-8.499	0.100
106.800	4.274	0.100
106.900	-9.991	0.100
107.000	11.058	0.099
107.100	-1.123	0.100
107.200	-34.522	0.100
107.300	-40.438	0.100
107.400	-4.477	0.100
107.500	-7.486	0.100
107.600	-8.641	0.100
107.700	-1.319	0.100
107.800	-33.637	0.100
107.900	-31.776	0.100
108.000	-17.311	0.099
108.100	-8.861	0.100
108.200	8.736	0.100
108.300	-27.447	0.100
108.400	-23.314	0.100
108.500	-5.926	0.100
108.600	-16.059	0.100
108.700	-15.781	0.100
108.800	-25.971	0.100
108.900	1.370	0.100
109.000	-24.418	0.100
109.100	-6.482	0.100
109.200	-13.664	0.100
109.300	-10.557	0.100
109.400	-6.881	0.100
109.500	-0.384	0.100
109.600	-10.944	0.100
109.700	-18.929	0.100
109.800	-15.079	0.100
109.900	-20.007	0.100
110.000	-25.063	0.100
110.100	-9.184	0.100
110.200	-6.751	0.100
110.300	-19.987	0.100
110.400	-13.416	0.100
110.500	-34.919	0.100
110.600	-2.911	0.100
110.700	10.782	0.100
110.800	-14.768	0.100
110.900	-24.399	0.100
111.000	-20.946	0.100
111.100	-14.515	0.100
111.200	-5.525	0.100
111.300	-3.734	0.100
111.400	-16.848	0.100
111.500	-14.480	0.100
111.600	-10.575	0.100
111.700	18.949	0.100
111.800	-11.676	0.100
111.900	-7.322	0.100
112.000	-15.009	0.100
112.100	-9.577	0.100
112.200	-19.837	0.100
112.300	-29.875	0.100
112.400	-28.468	0.100
112.500	-13.257	0.100
112.600	-4.289	0.100
112.700	-12.844	0.099
112.800	-33.187	0.100
112.900	-15.773	0.100
113.000	-14.723	0.100
113.100	10.421	0.100
113.200	8.527	0.100
113.300	-22.891	0.100
113.400	-23.057	0.100
113.500	-17.720	0.100
113.600	-42.678	0.100
113.700	-25.686	0.100
113.800	-14.937	0.100
113.900	-15.083	0.100
114.000	-21.888	0.100
114.100	-9.732	0.100
114.200	-22.185	0.100
114.300	-15.711	0.100
114.400	5.484	0.100
114.500	-25.439	0.100
114.600	-0.706	0.100
114.700	-15.701	0.100
114.800	-8.659	0.100
114.900	-18.433	0.100
115.000	-12.400	0.100
115.100	-17.159	0.100
115.200	-3.865	0.100
115.300	-6.915	0.100
115.400	-51.482	0.100
115.500	-25.552	0.100
115.600	13.665	0.100
115.700	5.815	0.100
115.800	1.768	0.100
115.900	-14.004	0.100
116.000	-28.121	0.100
116.100	-17.699	0.100
116.200	-15.528	0.100
116.300	-7.896	0.100
116.400	-0.641	0.100
116.500	-15.776	0.100
116.600	-39.926	0.100
116.700	-15.206	0.100
116.800	-32.699	0.100
116.900	1.852	0.100
117.000	-30.305	0.100
117.100	9.882	0.100
117.200	-23.010	0.100
117.300	-26.587	0.100
117.400	-4.334	0.100
117.500	-28.762	0.100
117.600	-30.636	0.100
117.700	-18.906	0.100
117.800	1.246	0.100
117.900	-27.648	0.100
118.000	-33.745	0.100
118.100	-8.456	0.100
118.200	-6.563	0.100
118.300	-15.269	0.100
118.400	-21.487	0.100
118.500	-19.534	0.100
118.600	-18.517	0.100
118.700	-20.329	0.100
118.800	-12.335	0.100
118.900	-14.956	0.100
119.000	-16.755	0.100
119.100	-37.772	0.100
119.200	-22.558	0.100
119.300	-18.265	0.100
119.400	-23.080	0.100
119.500	-23.563	0.100
119.600	-19.650	0.100
119.700	-5.245	0.100
119.800	-12.824	0.100
119.900	-25.624	0.100
120.000	-32.309	0.100
120.100	-34.032	0.100
120.200	-14.999	0.100
120.300	6.906	0.100
120.400	-28.044	0.100
120.500	3.101	0.100
120.600	-36.911	0.100
120.700	-43.219	0.100
120.800	-26.502	0.100
120.900	7.129	0.100
121.000	-45.461	0.100
121.100	-4.605	0.100
121.200	-19.808	0.100
121.300	-19.250	0.100
121.400	-16.278	0.100
121.500	-31.525	0.100
121.600	-36.294	0.100
121.700	9.089	0.100
121.800	-13.910	0.100
121.900	-31.015	0.100
122.000	-51.146	0.100
122.100	-14.717	0.100
122.200	-24.630	0.100
122.300	-12.600	0.100
122.400	-20.016	0.100
122.500	-10.857	0.100
122.600	-25.321	0.100
122.700	-15.087	0.100
122.800	1.702	0.100
122.900	-39.814	0.100
123.000	-27.818	0.100
123.100	-5.768	0.100
123.200	-9.943	0.100
123.300	-25.530	0.100
123.400	-10.806	0.100
123.500	-28.309	0.100
123.600	-28.717	0.100
123.700	-0.852	0.100
123.800	-16.436	0.100
123.900	-30.839	0.100
124.000	-9.203	0.100
124.100	-13.397	0.100
124.200	-31.631	0.100
124.300	-12.792	0.100
124.400	-25.181	0.100
124.500	-29.826	0.100
124.600	-9.269	0.100
124.700	-10.079	0.100
124.800	-38.168	0.100
124.900	-32.272	0.100
125.000	-23.211	0.100
125.100	-10.044	0.100
125.200	-25.271	0.100
125.300	-9.933	0.100
125.400	-31.590	0.100
125.500	-9.598	0.100
125.600	-16.671	0.100
125.700	-52.272	0.100
125.800	-5.508	0.100
125.900	-45.779	0.100
126.000	-19.960	0.100
126.100	-14.214	0.100
126.200	-20.870	0.100
126.300	-46.548	0.100
126.400	-29.910	0.100
126.500	-21.566	0.100
126.600	2.280	0.100
126.700	-14.041	0.100
126.800	-26.487	0.100
126.900	-45.369	0.100
127.000	-8.125	0.100
127.100	-27.092	0.100
127.200	-20.586	0.100
127.300	-10.578	0.100
127.400	-26.590	0.100
127.500	-12.525	0.100
127.600	-20.813	0.100
127.700	-24.939	0.100
127.800	-21.788	0.100
127.900	-15.200	0.100
128.000	-50.422	0.100
128.100	1.688	0.100
128.200	-23.390	0.100
128.300	-20.406	0.100
128.400	-23.777	0.100
128.500	-13.524	0.100
128.600	-41.139	0.100
128.700	-7.458	0.100
128.800	-16.909	0.100
128.900	-19.420	0.100
129.000	-36.762	0.100
129.100	-44.836	0.100
129.200	-26.149	0.100
129.300	-23.994	0.100
129.400	-17.510	0.100
129.500	-28.035	0.100
129.600	-5.305	0.100
129.700	-26.601	0.100
129.800	-25.079	0.100
129.900	-16.424	0.100
130.000	-24.869	0.100
130.100	-28.608	0.100
130.200	-3.656	0.100
130.300	-32.779	0.100
130.400	-36.630	0.100
130.500	-17.448	0.100
130.600	-33.198	0.100
130.700	-11.732	0.100
130.800	-17.177	0.100
130.900	-10.106	0.100
131.000	1.436	0.100
131.100	3.785	0.100
131.200	-45.095	0.100
131.300	-49.338	0.100
131.400	-15.275	0.100
131.500	-18.116	0.100
131.600	-50.747	0.100
131.700	-3.509	0.100
131.800	-3.625	0.100
131.900	-27.736	0.100
132.000	-37.555	0.100
132.100	-34.638	0.100
132.200	-4.952	0.100
132.300	-9.190	0.100
132.400	-11.699	0.100
132.500	2.615	0.100
132.600	-3.017	0.100
132.700	-27.037	0.100
132.800	-42.649	0.100
132.900	-37.119	0.100
133.000	-28.748	0.100
133.100	2.160	0.100
133.200	8.618	0.100
133.300	-34.400	0.100
133.400	-22.413	0.100
133.500	7.415	0.100
133.600	-31.280	0.100
133.700	-32.615	0.100
133.800	-7.068	0.100
133.900	-39.910	0.100
134.000	-28.303	0.100
134.100	-29.409	0.100
134.200	-23.907	0.100
134.300	-29.208	0.100
134.400	-12.257	0.100
134.500	-21.374	0.100
134.600	7.110	0.100
134.700	-10.780	0.100
134.800	-38.202	0.100
134.900	-42.773	0.100
135.000	5.272	0.100
135.100	-9.176	0.100
135.200	-13.810	0.100
135.300	-33.827	0.100
135.400	-26.607	0.100
135.500	-14.042	0.100
135.600	-22.397	0.100
135.700	-27.157	0.100
135.800	-28.037	0.100
135.900	-25.516	0.100
136.000	-38.472	0.100
136.100	-1.503	0.100
136.200	-30.380	0.100
136.300	-15.051	0.100
136.400	-12.868	0.100
136.500	-18.060	0.100
136.600	-22.081	0.100
136.700	-17.737	0.100
136.800	-41.388	0.100
136.900	-25.544	0.100
137.000	-17.381	0.100
137.100	-16.713	0.100
137.200	2.559	0.100
137.300	-38.436	0.100
137.400	-23.109	0.100
137.500	-25.995	0.100
137.600	14.877	0.100
137.700	-11.254	0.100
137.800	-12.011	0.100
137.900	-27.996	0.100
138.000	-23.146	0.100
138.100	-3.104	0.100
138.200	-21.460	0.100
138.300	-30.031	0.100
138.400	-16.585	0.100
138.500	-15.062	0.100
138.600	-8.947	0.100
138.700	-17.515	0.100
138.800	-13.823	0.100
138.900	-4.228	0.100
139.000	-53.213	0.100
139.100	-16.506	0.100
139.200	-22.457	0.100
139.300	-34.557	0.100
139.400	-30.998	0.100
139.500	-25.289	0.100
139.600	-15.838	0.100
139.700	-35.703	0.100
139.800	-6.984	0.100
139.900	-32.648	0.100
140.000	-19.760	0.100
140.100	-33.081	0.100
140.200	10.230	0.100
140.300	-43.543	0.100
140.400	-14.600	0.100
140.500	-46.279	0.100
140.600	-33.328	0.100
140.700	-20.572	0.100
140.800	3.512	0.100
140.900	-28.372	0.100
141.000	-29.727	0.100
141.100	-26.675	0.100
141.200	-9.831	0.100
141.300	-19.081	0.100
141.400	-6.352	0.100
141.500	-37.617	0.100
141.600	-19.974	0.100
141.700	-19.994	0.100
141.800	-30.961	0.100
141.900	-7.959	0.100
142.000	-19.356	0.100
142.100	-11.976	0.100
142.200	-17.838	0.100
142.300	-16.433	0.100
142.400	-27.279	0.100
142.500	-11.529	0.100
142.600	-38.791	0.100
142.700	8.181	0.100
142.800	9.620	0.100
142.900	-27.023	0.100
143.000	-22.854	0.100
143.100	16.626	0.100
143.200	-22.131	0.100
143.300	-6.871	0.100
143.400	-26.832	0.100
143.500	-3.770	0.100
143.600	-28.791	0.100
143.700	-10.661	0.100
143.800	-61.344	0.100
143.900	-19.369	0.100
144.000	-19.639	0.100
144.100	-25.979	0.100
144.200	-8.995	0.100
144.300	-17.968	0.100
144.400	-40.594	0.100
144.500	30.243	0.100
144.600	-15.080	0.100
144.700	-47.925	0.100
144.800	-9.533	0.100
144.900	2.096	0.100
145.000	-25.054	0.100
145.100	-21.597	0.100
145.200	-24.615	0.100
145.300	-32.799	0.100
145.400	-16.954	0.100
145.500	-18.438	0.100
145.600	-33.556	0.100
145.700	-18.501	0.100
145.800	-24.200	0.100
145.900	7.943	0.100
146.000	-31.297	0.100
146.100	-6.976	0.100
146.200	-6.532	0.100
146.300	-21.880	0.100
146.400	-36.777	0.100
146.500	-23.590	0.100
146.600	-31.138	0.100
146.700	-20.042	0.100
146.800	-19.836	0.100
146.900	-8.179	0.100
147.000	-15.540	0.100
147.100	-43.324	0.100
147.200	-3.010	0.100
147.300	-17.091	0.100
147.400	-51.288	0.100
147.500	-15.357	0.100
147.600	-5.291	0.100
147.700	-34.988	0.100
147.800	-2.549	0.100
147.900	-3.305	0.100
148.000	-13.705	0.100
148.100	-17.114	0.100
148.200	-21.412	0.100
148.300	-25.716	0.100
148.400	-23.324	0.100
148.500	-21.386	0.100
148.600	-32.895	0.100
148.700	-19.195	0.100
148.800	-44.893	0.100
148.900	-6.851	0.100
149.000	-30.016	0.100
149.100	-21.672	0.100
149.200	-16.167	0.100
149.300	-9.328	0.100
149.400	-34.903	0.100
149.500	-19.266	0.100
149.600	-21.357	0.100
149.700	-17.748	0.100
149.800	2.379	0.100
149.900	-26.331	0.100
150.000	-16.858	0.100
150.100	1.717	0.100
150.200	-17.820	0.100
150.300	-39.543	0.100
150.400	-10.807	0.100
150.500	-18.803	0.100
150.600	-12.455	0.100
150.700	-9.585	0.100
150.800	-14.704	0.100
150.900	-44.709	0.100
151.000	-18.414	0.100
151.100	-28.881	0.100
151.200	-5.667	0.100
151.300	-15.492	0.100
151.400	-17.755	0.100
151.500	-36.327	0.100
151.600	-2.271	0.100
151.700	-39.160	0.100
151.800	-21.473	0.100
151.900	-16.545	0.100
152.000	-16.278	0.100
152.100	-29.903	0.100
152.200	-26.810	0.100
152.300	-16.203	0.100
152.400	-5.824	0.100
152.500	-19.898	0.100
152.600	-4.016	0.100
152.700	-39.705	0.100
152.800	-0.600	0.100
152.900	-18.916	0.100
153.000	-11.346	0.100
153.100	-16.156	0.100
153.200	-39.356	0.100
153.300	-10.295	0.100
153.400	16.186	0.100
153.500	-27.348	0.100
153.600	-9.540	0.100
153.700	-2.744	0.100
153.800	-33.547	0.100
153.900	-14.978	0.100
154.000	-6.462	0.100
154.100	-27.240	0.100
154.200	-9.161	0.100
154.300	-13.584	0.100
154.400	-22.040	0.100
154.500	-27.427	0.100
154.600	-17.748	0.100
154.700	-26.136	0.100
154.800	-35.396	0.100
154.900	-16.384	0.100
155.000	-12.171	0.100
155.100	-19.478	0.100
155.200	-25.491	0.100
155.300	-29.571	0.100
155.400	-6.155	0.100
155.500	-17.265	0.100
155.600	-40.947	0.100
155.700	1.712	0.100
155.800	-36.780	0.100
155.900	-9.779	0.100
156.000	17.824	0.100
156.100	-17.620	0.100
156.200	-26.032	0.100
156.300	-0.907	0.100
156.400	-24.714	0.100
156.500	-20.913	0.100
156.600	-3.165	0.100
156.700	3.606	0.100
156.800	-30.982	0.100
156.900	-21.722	0.100
157.000	-14.743	0.100
157.100	-27.902	0.100
157.200	-3.460	0.100
157.300	-26.568	0.100
157.400	7.284	0.100
157.500	-5.758	0.100
157.600	-44.224	0.100
157.700	-8.819	0.100
157.800	-21.288	0.100
157.900	-24.432	0.100
158.000	-34.600	0.100
158.100	-14.534	0.100
158.200	-18.437	0.100
158.300	-16.038	0.100
158.400	-1.904	0.100
158.500	-14.618	0.100
158.600	-14.309	0.100
158.700	-27.099	0.100
158.800	-22.010	0.100
158.900	19.224	0.100
159.000	-13.342	0.100
159.100	-28.674	0.100
159.200	-2.371	0.100
159.300	-19.390	0.100
159.400	-27.640	0.100
159.500	-7.585	0.100
159.600	-4.594	0.100
159.700	-26.455	0.100
159.800	-43.550	0.100
159.900	-0.682	0.100
160.000	-24.844	0.100
160.100	13.205	0.100
160.200	-10.937	0.100
160.300	-26.539	0.100
160.400	-24.470	0.100
160.500	-34.881	0.100
160.600	-18.581	0.100
160.700	12.206	0.100
160.800	-34.638	0.100
160.900	-9.893	0.100
161.000	-15.687	0.100
161.100	-37.031	0.100
161.200	-18.951	0.100
161.300	-8.816	0.100
161.400	-33.176	0.100
161.500	-12.402	0.100
161.600	-30.273	0.100
161.700	-24.394	0.100
161.800	-33.395	0.100
161.900	-9.794	0.100
162.000	-44.751	0.100
162.100	5.637	0.100
162.200	4.424	0.100
162.300	-26.582	0.100
162.400	-25.059	0.100
162.500	-19.832	0.100
162.600	-36.738	0.100
162.700	-27.675	0.100
162.800	-15.968	0.100
162.900	-23.683	0.100
163.000	6.286	0.100
163.100	-15.451	0.100
163.200	-20.813	0.100
163.300	-21.043	0.100
163.400	-13.255	0.100
163.500	-15.682	0.100
163.600	-8.100	0.100
163.700	-46.174	0.100
163.800	-3.674	0.100
163.900	-19.282	0.100
164.000	-26.088	0.100
164.100	1.126	0.100
164.200	1.709	0.100
164.300	-31.098	0.100
164.400	-20.121	0.100
164.500	-2.621	0.100
164.600	-27.750	0.100
164.700	-15.149	0.100
164.800	-17.288	0.100
164.900	-13.090	0.100
165.000	-20.980	0.100
165.100	-3.723	0.100
165.200	-23.351	0.100
165.300	-28.869	0.100
165.400	9.723	0.100
165.500	-33.844	0.100
165.600	-13.967	0.100
165.700	-19.575	0.100
165.800	-23.221	0.100
165.900	-5.513	0.100
166.000	-27.260	0.100
166.100	-23.460	0.100
166.200	-3.119	0.100
166.300	-36.341	0.100
166.400	-45.570	0.100
166.500	7.311	0.100
166.600	-3.712	0.100
166.700	-37.529	0.100
166.800	-4.157	0.100
166.900	-27.101	0.100
167.000	-56.075	0.100
167.100	-9.129	0.100
167.200	13.359	0.100
167.300	-8.732	0.100
167.400	-50.552	0.100
167.500	31.569	0.100
167.600	-10.954	0.100
167.700	-18.614	0.100
167.800	-3.142	0.100
167.900	-22.264	0.100
168.000	-6.663	0.100
168.100	-27.293	0.100
168.200	-7.116	0.100
168.300	-1.679	0.100
168.400	-34.352	0.100
168.500	-39.426	0.100
168.600	-16.797	0.100
168.700	-18.658	0.100
168.800	26.684	0.100
168.900	-31.663	0.100
169.000	-11.089	0.100
169.100	16.315	0.100
169.200	-4.365	0.100
169.300	-39.261	0.100
169.400	-1.091	0.100
169.500	-24.428	0.100
169.600	-5.648	0.100
169.700	-36.631	0.100
169.800	-8.548	0.100
169.900	0.508	0.100
170.000	-26.023	0.100
170.100	-11.662	0.100
170.200	-25.400	0.100
170.300	-20.126	0.100
170.400	-0.124	0.100
170.500	-3.636	0.100
170.600	-15.132	0.100
170.700	-22.834	0.100
170.800	-13.337	0.100
170.900	-4.795	0.100
171.000	-11.097	0.100
171.100	-34.508	0.100
171.200	-12.001	0.100
171.300	-14.205	0.100
171.400	-15.600	0.100
171.500	-2.993	0.100
171.600	-23.686	0.100
171.700	-31.471	0.100
171.800	4.659	0.100
171.900	-27.975	0.100
172.000	-12.710	0.100
172.100	-3.908	0.100
172.200	-21.409	0.100
172.300	-16.821	0.100
172.400	-28.808	0.100
172.500	-34.152	0.100
172.600	0.059	0.100
172.700	2.526	0.100
172.800	3.496	0.100
172.900	-37.762	0.100
173.000	-3.182	0.100
173.100	-26.876	0.100
173.200	-20.871	0.100
173.300	-15.364	0.100
173.400	11.109	0.100
173.500	-11.443	0.100
173.600	-21.197	0.100
173.700	-15.653	0.100
173.800	-12.754	0.100
173.900	-3.856	0.100
174.000	-34.056	0.100
174.100	-23.180	0.100
174.200	-6.949	0.100
174.300	-38.725	0.100
174.400	-7.714	0.100
174.500	-45.774	0.100
174.600	-26.282	0.100
174.700	-17.354	0.100
174.800	1.601	0.100
174.900	-32.075	0.100
175.000	-4.013	0.100
175.100	-23.037	0.100
175.200	-19.163	0.100
175.300	4.038	0.100
175.400	-18.640	0.100
175.500	-38.504	0.100
175.600	-5.884	0.100
175.700	-7.721	0.100
175.800	-7.812	0.100
175.900	-8.398	0.100
176.000	-4.228	0.100
176.100	-12.582	0.100
176.200	3.211	0.100
176.300	-8.424	0.100
176.400	-17.573	0.100
176.500	-18.957	0.100
176.600	-7.187	0.100
176.700	-20.697	0.100
176.800	-37.576	0.100
176.900	3.203	0.100
177.000	-14.803	0.100
177.100	-0.661	0.100
177.200	-9.046	0.100
177.300	-24.088	0.100
177.400	0.500	0.100
177.500	-37.308	0.100
177.600	12.453	0.100
177.700	-12.187	0.100
177.800	-9.645	0.100
177.900	-0.127	0.100
178.000	-6.919	0.100
178.100	-16.136	0.100
178.200	-10.582	0.100
178.300	-4.499	0.100
178.400	-19.109	0.100
178.500	-23.572	0.100
178.600	3.995	0.100
178.700	-22.683	0.100
178.800	-24.951	0.100
178.900	1.612	0.100
179.000	-53.793	0.100
179.100	-2.639	0.100
179.200	-22.656	0.100
179.300	-32.438	0.100
179.400	3.052	0.100
179.500	-21.427	0.100
179.600	-27.260	0.100
179.700	-25.623	0.100
179.800	-14.824	0.100
179.900	-10.035	0.100
180.000	-0.301	0.100
180.100	-3.316	0.100
180.200	-29.256	0.100
180.300	-15.800	0.100
180.400	-4.210	0.100
180.500	-3.165	0.100
180.600	-2.880	0.100
180.700	-7.219	0.100
180.800	17.821	0.100
180.900	19.210	0.100
181.000	29.670	0.100
181.100	7.853	0.100
181.200	32.818	0.100
181.300	5.437	0.100
181.400	6.047	0.100
181.500	43.026	0.100
181.600	-5.982	0.100
181.700	32.772	0.100
181.800	38.252	0.100
181.900	36.413	0.100
182.000	18.719	0.100
182.100	57.091	0.100
182.200	34.879	0.100
182.300	48.186	0.100
182.400	41.774	0.100
182.500	10.095	0.100
182.600	39.694	0.100
182.700	56.161	0.100
182.800	33.164	0.100
182.900	47.305	0.100
183.000	36.361	0.100
183.100	14.167	0.100
183.200	38.781	0.100
183.300	19.710	0.100
183.400	29.441	0.100
183.500	65.701	0.100
183.600	47.655	0.100
183.700	31.301	0.100
183.800	32.464	0.100
183.900	18.230	0.100
184.000	20.276	0.100
184.100	51.650	0.100
184.200	35.670	0.100
184.300	12.321	0.100
184.400	45.424	0.100
184.500	15.409	0.100
184.600	22.633	0.100
184.700	52.389	0.100
184.800	18.198	0.099
184.900	7.458	0.099
185.000	29.408	0.100
185.100	18.855	0.099
185.200	16.325	0.099
185.300	36.528	0.100
185.400	26.460	0.099
185.500	20.717	0.099
185.600	49.213	0.099
185.700	10.158	0.099
185.800	39.595	0.099
185.900	47.135	0.099
186.000	28.312	0.099
186.100	10.064	0.099
186.200	37.571	0.099
186.300	33.699	0.099
186.400	40.955	0.099
186.500	29.067	0.099
186.600	43.108	0.099
186.700	29.427	0.099
186.800	26.155	0.099
186.900	35.028	0.099
187.000	28.682	0.099
187.100	43.580	0.099
187.200	20.121	0.099
187.300	26.266	0.099
187.400	53.046	0.099
187.500	27.193	0.099
187.600	33.599	0.099
187.700	26.429	0.099
187.800	52.563	0.099
187.900	65.476	0.099
188.000	42.462	0.099
188.100	18.652	0.099
188.200	52.073	0.099
188.300	47.130	0.099
188.400	19.799	0.099
188.500	69.168	0.099
188.600	48.347	0.099
188.700	31.901	0.099
188.800	55.538	0.099
188.900	41.290	0.099
189.000	52.298	0.099
189.100	63.386	0.099
189.200	34.615	0.099
189.300	41.873	0.099
189.400	62.519	0.099
189.500	43.464	0.099
189.600	41.902	0.099
189.700	53.278	0.099
189.800	46.507	0.099
189.900	56.882	0.099
190.000	49.064	0.099
190.100	25.098	0.099
190.200	64.276	0.099
190.300	44.226	0.099
190.400	35.767	0.099
190.500	28.492	0.099
190.600	99.342	0.099
190.700	42.576	0.099
190.800	56.897	0.099
190.900	79.041	0.099
191.000	67.430	0.099
191.100	59.996	0.099
191.200	59.707	0.099
191.300	65.127	0.099
191.400	65.529	0.099
191.500	65.045	0.099
191.600	67.238	0.099
191.700	45.255	0.099
191.800	62.713	0.099
191.900	85.476	0.099
192.000	80.004	0.099
192.100	65.213	0.099
192.200	57.529	0.099
192.300	91.287	0.099
192.400	71.724	0.099
192.500	79.586	0.099
192.600	89.627	0.099
192.700	71.202	0.099
192.800	75.861	0.099
192.900	68.687	0.099
193.000	63.073	0.099
193.100	47.674	0.099
193.200	82.264	0.099
193.300	58.785	0.099
193.400	91.719	0.099
193.500	54.605	0.099
193.600	71.868	0.099
193.700	80.840	0.099
193.800	82.957	0.099
193.900	52.522	0.099
194.000	65.405	0.099
194.100	113.158	0.099
194.200	51.437	0.099
194.300	87.569	0.099
194.400	68.854	0.099
194.500	74.316	0.099
194.600	83.548	0.099
194.700	79.580	0.099
194.800	88.080	0.099
194.900	90.734	0.099
195.000	80.907	0.099
195.100	78.804	0.099
195.200	71.555	0.099
195.300	73.194	0.099
195.400	85.846	0.099
195.500	85.934	0.099
195.600	103.944	0.099
195.700	51.584	0.099
195.800	90.378	0.099
195.900	84.123	0.099
196.000	76.484	0.099
196.100	85.318	0.099
196.200	89.706	0.099
196.300	37.723	0.099
196.400	60.577	0.099
196.500	79.861	0.099
196.600	57.720	0.099
196.700	76.006	0.099
196.800	83.096	0.099
196.900	77.823	0.099
197.000	70.689	0.099
197.100	91.330	0.099
197.200	70.837	0.099
197.300	46.146	0.099
197.400	90.473	0.099
197.500	65.833	0.099
197.600	79.918	0.099
197.700	95.543	0.099
197.800	79.118	0.099
197.900	67.834	0.099
198.000	82.331	0.099
198.100	70.625	0.099
198.200	78.329	0.099
198.300	66.803	0.099
198.400	96.287	0.099
198.500	75.962	0.099
198.600	53.169	0.099
198.700	51.695	0.099
198.800	93.594	0.099
198.900	97.726	0.099
199.000	80.454	0.099
199.100	81.063	0.099
199.200	59.682	0.099
199.300	70.808	0.099
199.400	76.267	0.099
199.500	80.099	0.099
199.600	84.430	0.099
199.700	73.337	0.099
199.800	65.381	0.099
199.900	48.476	0.099
200.000	74.919	0.099
200.100	83.070	0.099
200.200	76.516	0.099
200.300	93.394	0.099
200.400	77.629	0.099
200.500	80.486	0.099
200.600	88.037	0.099
200.700	61.454	0.099
200.800	61.581	0.099
200.900	60.090	0.099
201.000	84.916	0.099
201.100	97.236	0.099
201.200	67.408	0.099
201.300	56.431	0.099
201.400	85.093	0.099
201.500	82.580	0.099
201.600	46.711	0.099
201.700	102.747	0.099
201.800	67.313	0.099
201.900	81.198	0.099
202.000	89.066	0.099
202.100	79.059	0.099
202.200	55.419	0.099
202.300	81.787	0.099
202.400	78.105	0.099
202.500	59.428	0.099
202.600	82.688	0.099
202.700	75.546	0.099
202.800	66.911	0.099
202.900	71.417	0.099
203.000	69.251	0.099
203.100	79.297	0.099
203.200	78.277	0.099
203.300	61.097	0.099
203.400	72.693	0.099
203.500	96.005	0.099
203.600	61.156	0.099
203.700	60.286	0.099
203.800	93.837	0.099
203.900	40.306	0.099
204.000	99.094	0.099
204.100	99.683	0.099
204.200	64.236	0.099
204.300	89.998	0.099
204.400	72.114	0.099
204.500	68.179	0.099
204.600	87.562	0.099
204.700	68.160	0.099
204.800	61.864	0.099
204.900	77.000	0.099
205.000	84.515	0.099
205.100	82.806	0.099
205.200	75.888	0.099
205.300	61.852	0.099
205.400	74.410	0.099
205.500	86.381	0.099
205.600	63.829	0.099
205.700	93.513	0.099
205.800	87.345	0.099
205.900	74.212	0.099
206.000	53.410	0.099
206.100	87.122	0.099
206.200	65.933	0.099
206.300	89.791	0.099
206.400	83.121	0.099
206.500	60.124	0.099
206.600	81.341	0.099
206.700	63.515	0.099
206.800	71.131	0.099
206.900	55.881	0.099
207.000	83.178	0.099
207.100	69.041	0.099
207.200	68.559	0.099
207.300	73.715	0.099
207.400	64.820	0.099
207.500	67.685	0.099
207.600	89.124	0.099
207.700	79.043	0.099
207.800	80.433	0.099
207.900	75.268	0.099
208.000	74.700	0.099
208.100	76.907	0.099
208.200	68.717	0.100
208.300	69.310	0.099
208.400	94.436	0.099
208.500	84.099	0.099
208.600	57.362	0.099
208.700	67.983	0.099
208.800	83.408	0.100
208.900	56.261	0.099
209.000	100.157	0.099
209.100	78.090	0.099
209.200	59.354	0.099
209.300	80.186	0.099
209.400	44.850	0.099
209.500	68.038	0.099
209.600	102.179	0.099
209.700	52.987	0.099
209.800	79.612	0.099
209.900	89.386	0.100
210.000	64.708	0.099
210.100	52.897	0.099
210.200	101.572	0.099
210.300	47.905	0.100
210.400	80.300	0.099
210.500	97.913	0.099
210.600	58.349	0.099
210.700	76.736	0.099
210.800	84.378	0.100
210.900	59.720	0.100
211.000	85.120	0.099
211.100	59.975	0.099
211.200	96.947	0.099
211.300	64.478	0.099
211.400	98.215	0.099
211.500	73.253	0.099
211.600	59.187	0.099
211.700	87.967	0.099
211.800	92.027	0.100
211.900	66.852	0.099
212.000	72.408	0.099
212.100	63.134	0.099
212.200	88.794	0.099
212.300	96.210	0.099
212.400	71.993	0.099
212.500	69.029	0.099
212.600	94.451	0.099
212.700	68.054	0.099
212.800	91.094	0.099
212.900	65.284	0.099
213.000	73.250	0.099
213.100	96.018	0.099
213.200	90.203	0.099
213.300	71.406	0.099
213.400	71.557	0.099
213.500	69.576	0.099
213.600	75.788	0.099
213.700	88.448	0.099
213.800	68.163	0.100
213.900	61.515	0.099
214.000	96.604	0.099
214.100	67.966	0.100
214.200	80.854	0.099
214.300	78.556	0.099
214.400	65.466	0.100
214.500	81.967	0.100
214.600	75.925	0.099
214.700	65.413	0.099
214.800	86.275	0.100
214.900	74.706	0.099
215.000	67.292	0.099
215.100	81.815	0.099
215.200	72.185	0.099
215.300	60.330	0.099
215.400	84.328	0.100
215.500	74.554	0.099
215.600	66.269	0.099
215.700	71.411	0.099
215.800	58.956	0.099
215.900	75.170	0.099
216.000	78.344	0.099
216.100	95.741	0.099
216.200	83.008	0.099
216.300	86.906	0.099
216.400	86.145	0.099
216.500	65.112	0.099
216.600	84.509	0.099
216.700	60.416	0.099
216.800	69.452	0.099
216.900	83.001	0.099
217.000	74.036	0.099
217.100	86.573	0.100
217.200	80.529	0.099
217.300	67.193	0.099
217.400	53.383	0.099
217.500	78.554	0.099
217.600	64.626	0.099
217.700	76.544	0.099
217.800	61.479	0.099
217.900	62.297	0.099
218.000	63.213	0.099
218.100	56.774	0.099
218.200	81.520	0.099
218.300	102.844	0.099
218.400	79.247	0.100
218.500	78.096	0.099
218.600	65.050	0.100
218.700	69.360	0.099
218.800	90.060	0.099
218.900	91.124	0.099
219.000	63.965	0.099
219.100	84.629	0.099
219.200	67.560	0.099
219.300	69.764	0.100
219.400	63.074	0.100
219.500	90.252	0.099
219.600	52.036	0.099
219.700	63.170	0.099
219.800	82.084	0.100
219.900	60.574	0.099
220.000	69.995	0.099
220.100	59.073	0.099
220.200	90.325	0.099
220.300	80.115	0.099
220.400	69.996	0.099
220.500	90.420	0.099
220.600	68.254	0.099
220.700	47.621	0.099
220.800	81.888	0.099
220.900	76.099	0.099
221.000	70.552	0.099
221.100	82.503	0.099
221.200	47.296	0.099
221.300	81.845	0.099
221.400	92.397	0.099
221.500	63.566	0.099
221.600	83.617	0.099
221.700	71.389	0.099
221.800	70.649	0.099
221.900	74.031	0.099
222.000	57.250	0.099
222.100	55.723	0.099
222.200	57.662	0.099
222.300	81.353	0.099
222.400	66.074	0.099
222.500	97.128	0.100
222.600	29.474	0.100
222.700	84.225	0.099
222.800	84.733	0.099
222.900	76.354	0.099
223.000	63.695	0.099
223.100	95.448	0.099
223.200	87.596	0.099
223.300	42.535	0.099
223.400	83.984	0.099
223.500	82.417	0.099
223.600	69.398	0.099
223.700	80.956	0.099
223.800	57.816	0.099
223.900	53.090	0.099
224.000	79.832	0.099
224.100	70.986	0.099
224.200	74.558	0.099
224.300	64.195	0.099
224.400	46.353	0.099
224.500	81.061	0.099
224.600	83.010	0.099
224.700	62.917	0.099
224.800	82.465	0.099
224.900	77.362	0.099
225.000	64.343	0.099
225.100	72.419	0.099
225.200	85.226	0.099
225.300	53.222	0.099
225.400	96.085	0.099
225.500	98.791	0.099
225.600	59.251	0.099
225.700	50.313	0.099
225.800	79.135	0.099
225.900	63.316	0.099
226.000	80.644	0.099
226.100	69.783	0.099
226.200	71.103	0.099
226.300	80.635	0.099
226.400	67.277	0.099
226.500	60.766	0.099
226.600	44.537	0.099
226.700	64.759	0.099
226.800	84.759	0.099
226.900	64.310	0.099
227.000	87.181	0.099
227.100	68.103	0.099
227.200	81.661	0.099
227.300	83.167	0.099
227.400	69.270	0.099
227.500	79.960	0.099
227.600	62.007	0.099
227.700	72.939	0.099
227.800	73.749	0.099
227.900	60.715	0.099
228.000	69.858	0.099
228.100	83.532	0.099
228.200	84.527	0.099
228.300	80.198	0.099
228.400	95.200	0.099
228.500	64.732	0.099
228.600	92.330	0.099
228.700	54.780	0.099
228.800	68.384	0.099
228.900	95.339	0.099
229.000	79.965	0.099
229.100	73.984	0.099
229.200	75.298	0.099
229.300	69.473	0.099
229.400	66.848	0.099
229.500	71.713	0.099
229.600	81.656	0.099
229.700	52.195	0.099
229.800	95.067	0.099
229.900	90.343	0.099
230.000	65.649	0.099
230.100	77.643	0.099
230.200	66.644	0.099
230.300	64.361	0.099
230.400	82.131	0.099
230.500	58.949	0.099
230.600	89.606	0.099
230.700	84.729	0.099
230.800	75.387	0.099
230.900	69.571	0.099
231.000	80.310	0.099
231.100	82.974	0.099
231.200	45.210	0.099
231.300	69.378	0.099
231.400	70.171	0.099
231.500	71.638	0.099
231.600	61.728	0.099
231.700	110.441	0.099
231.800	78.957	0.099
231.900	53.952	0.099
232.000	40.246	0.099
232.100	85.357	0.099
232.200	71.658	0.099
232.300	64.635	0.099
232.400	97.088	0.099
232.500	81.493	0.099
232.600	77.466	0.099
232.700	78.958	0.099
232.800	65.362	0.099
232.900	86.981	0.099
233.000	88.769	0.099
233.100	66.573	0.099
233.200	66.754	0.099
233.300	83.117	0.099
233.400	49.582	0.099
233.500	71.589	0.099
233.600	77.471	0.099
233.700	73.314	0.099
233.800	61.284	0.099
233.900	64.350	0.099
234.000	79.598	0.099
234.100	54.016	0.099
234.200	54.087	0.099
234.300	64.179	0.099
234.400	74.506	0.099
234.500	53.977	0.099
234.600	86.198	0.099
234.700	67.184	0.099
234.800	91.954	0.099
234.900	84.895	0.099
235.000	66.629	0.099
235.100	101.457	0.099
235.200	72.347	0.099
235.300	68.906	0.099
235.400	71.157	0.099
235.500	91.648	0.099
235.600	70.079	0.099
235.700	91.399	0.099
235.800	68.615	0.099
235.900	71.114	0.099
236.000	83.085	0.099
236.100	63.766	0.099
236.200	81.551	0.099
236.300	75.441	0.099
236.400	77.442	0.099
236.500	75.496	0.099
236.600	96.455	0.099
236.700	47.408	0.099
236.800	55.478	0.099
236.900	98.830	0.099
237.000	47.287	0.099
237.100	76.313	0.099
237.200	72.776	0.099
237.300	48.703	0.099
237.400	74.655	0.099
237.500	72.770	0.099
237.600	78.360	0.099
237.700	81.679	0.099
237.800	63.987	0.099
237.900	56.597	0.099
238.000	65.864	0.099
238.100	97.196	0.099
238.200	56.100	0.099
238.300	71.533	0.099
238.400	95.377	0.099
238.500	57.817	0.099
238.600	69.339	0.099
238.700	99.617	0.099
238.800	53.884	0.099
238.900	71.631	0.099
239.000	47.342	0.099
239.100	56.292	0.099
239.200	82.286	0.099
239.300	57.789	0.099
239.400	80.179	0.099
239.500	81.245	0.099
239.600	60.738	0.099
239.700	70.870	0.099
239.800	79.718	0.099
239.900	45.120	0.099
240.000	72.641	0.099
240.100	96.387	0.099
240.200	65.485	0.099
240.300	59.340	0.099
240.400	65.210	0.099
240.500	75.616	0.099
240.600	80.313	0.099
240.700	47.078	0.099
240.800	38.667	0.099
240.900	29.782	0.099
241.000	49.225	0.099
241.100	42.676	0.099
241.200	22.440	0.099
241.300	19.006	0.099
241.400	27.739	0.099
241.500	16.870	0.100
241.600	-9.948	0.100
241.700	18.262	0.100
241.800	16.098	0.100
241.900	-2.424	0.100
242.000	-12.260	0.100
242.100	12.993	0.100
242.200	9.217	0.100
242.300	-17.016	0.100
242.400	-9.968	0.100
242.500	-3.744	0.100
242.600	-11.377	0.100
242.700	1.951	0.100
242.800	30.637	0.100
242.900	-29.336	0.100
243.000	11.106	0.100
243.100	-23.026	0.100
243.200	-20.604	0.100
243.300	-26.170	0.100
243.400	-5.950	0.100
243.500	-16.295	0.100
243.600	-18.977	0.100
243.700	-2.767	0.100
243.800	-13.532	0.100
243.900	10.235	0.100
244.000	-19.199	0.100
244.100	-26.883	0.100
244.200	15.203	0.100
244.300	-19.869	0.100
244.400	-26.664	0.100
244.500	-28.410	0.100
244.600	-21.485	0.100
244.700	-3.947	0.100
244.800	-16.504	0.100
244.900	-23.446	0.100
245.000	-22.831	0.100
245.100	13.894	0.100
245.200	-6.654	0.100
245.300	5.743	0.100
245.400	-25.269	0.100
245.500	-15.425	0.100
245.600	0.242	0.100
245.700	-6.780	0.100
245.800	-23.267	0.100
245.900	-26.075	0.100
246.000	-14.369	0.100
246.100	-7.725	0.100
246.200	-5.193	0.100
246.300	10.317	0.100
246.400	-18.988	0.100
246.500	-14.627	0.100
246.600	-22.169	0.100
246.700	-12.094	0.100
246.800	-3.437	0.100
246.900	-13.949	0.100
247.000	-19.535	0.100
247.100	-13.949	0.099
247.200	-5.155	0.099
247.300	-11.316	0.099
247.400	-3.108	0.099
247.500	-24.689	0.099
247.600	-21.882	0.099
247.700	36.075	0.099
247.800	-22.407	0.099
247.900	-38.666	0.099
248.000	11.353	0.099
248.100	-20.425	0.099
248.200	-30.185	0.099
248.300	17.802	0.099
248.400	-12.955	0.099
248.500	1.388	0.099
248.600	-6.906	0.099
248.700	-23.533	0.099
248.800	-39.797	0.100
248.900	-11.353	0.099
249.000	-20.233	0.099
249.100	-20.786	0.099
249.200	-23.795	0.099
249.300	-28.501	0.099
249.400	1.248	0.099
249.500	-10.305	0.099
249.600	-12.691	0.099
249.700	7.427	0.099
249.800	10.418	0.099
249.900	-21.285	0.099
250.000	8.576	0.099
250.100	4.553	0.099
250.200	-26.534	0.099
250.300	-27.416	0.099
250.400	-17.586	0.099
250.500	-17.488	0.099
250.600	-15.454	0.099
250.700	-4.679	0.099
250.800	-14.941	0.099
250.900	15.013	0.099
251.000	10.023	0.099
251.100	-34.986	0.099
251.200	-7.428	0.099
251.300	-13.135	0.099
251.400	-0.968	0.099
251.500	6.227	0.099
251.600	-52.680	0.099
251.700	-20.617	0.099
251.800	-5.474	0.099
251.900	-25.221	0.099
252.000	-12.327	0.099
252.100	-2.146	0.099
252.200	-29.965	0.099
252.300	-13.810	0.099
252.400	-3.193	0.099
252.500	-48.957	0.099
252.600	-32.224	0.099
252.700	-9.368	0.099
252.800	-34.168	0.099
252.900	-13.387	0.099
253.000	4.975	0.099
253.100	-2.923	0.099
253.200	-33.664	0.099
253.300	-1.413	0.099
253.400	-27.949	0.099
253.500	-9.273	0.099
253.600	-22.077	0.099
253.700	-20.995	0.099
253.800	-28.694	0.099
253.900	-6.787	0.099
254.000	-23.214	0.099
254.100	6.380	0.099
254.200	-30.169	0.099
254.300	-33.227	0.099
254.400	10.924	0.099
254.500	2.180	0.099
254.600	-24.416	0.099
254.700	-26.034	0.099
254.800	-20.309	0.099
254.900	-16.674	0.099
255.000	-10.856	0.099
255.100	-23.685	0.099
255.200	-37.981	0.099
255.300	0.979	0.099
255.400	-24.006	0.099
255.500	-14.547	0.099
255.600	-16.528	0.099
255.700	-44.440	0.099
255.800	-36.029	0.099
255.900	-11.875	0.099
256.000	-18.028	0.099
256.100	-14.351	0.099
256.200	4.204	0.099
256.300	-12.553	0.099
256.400	-16.961	0.099
256.500	-39.929	0.099
256.600	-10.039	0.099
256.700	-18.310	0.099
256.800	-1.941	0.099
256.900	-42.203	0.099
257.000	-22.588	0.099
257.100	-3.162	0.099
257.200	-30.787	0.099
257.300	-19.044	0.099
257.400	-34.218	0.099
257.500	-30.532	0.099
257.600	-27.568	0.099
257.700	-7.361	0.099
257.800	-16.543	0.099
257.900	-2.575	0.099
258.000	-7.472	0.099
258.100	-19.815	0.099
258.200	-19.459	0.099
258.300	-28.298	0.099
258.400	-18.910	0.099
258.500	-1.128	0.099
258.600	-16.636	0.099
258.700	-39.093	0.099
258.800	-46.948	0.099
258.900	-25.960	0.099
259.000	-7.386	0.099
259.100	-11.656	0.099
259.200	-20.250	0.099
259.300	-26.230	0.099
259.400	-6.974	0.099
259.500	-15.790	0.099
259.600	-7.396	0.099
259.700	-52.240	0.099
259.800	-38.063	0.099
259.900	-30.311	0.099
260.000	-28.511	0.099
260.100	2.628	0.099
260.200	-51.591	0.099
260.300	12.514	0.099
260.400	-52.544	0.099
260.500	-18.837	0.099
260.600	-7.362	0.099
260.700	-40.121	0.099
260.800	-38.730	0.099
260.900	-26.786	0.099
261.000	-35.922	0.099
261.100	-16.507	0.099
261.200	-32.503	0.099
261.300	-24.849	0.099
261.400	-17.734	0.099
261.500	-48.021	0.099
261.600	-33.664	0.099
261.700	-13.809	0.099
261.800	-4.659	0.099
261.900	-38.653	0.099
262.000	-45.139	0.099
262.100	-17.764	0.099
262.200	-31.382	0.099
262.300	-50.511	0.099
262.400	-17.647	0.099
262.500	-6.072	0.099
262.600	-58.278	0.099
262.700	-18.734	0.099
262.800	-13.455	0.099
262.900	-14.508	0.099
263.000	-14.294	0.099
263.100	-47.218	0.099
263.200	-23.401	0.099
263.300	-40.948	0.099
263.400	-6.986	0.099
263.500	-19.390	0.099
263.600	-43.832	0.099
263.700	-24.970	0.099
263.800	-40.029	0.099
263.900	-9.160	0.099
264.000	-21.759	0.099
264.100	-9.722	0.099
264.200	-15.979	0.099
264.300	-49.901	0.099
264.400	-20.770	0.099
264.500	-23.020	0.099
264.600	-48.932	0.099
264.700	-1.385	0.099
264.800	-20.881	0.099
264.900	-48.247	0.099
265.000	-18.703	0.099
265.100	-9.507	0.099
265.200	-25.472	0.099
265.300	-34.015	0.099
265.400	-44.773	0.099
265.500	-22.237	0.099
265.600	-30.753	0.099
265.700	-20.812	0.099
265.800	-13.481	0.099
265.900	-38.870	0.099
266.000	-27.005	0.099
266.100	-31.185	0.099
266.200	-31.517	0.099
266.300	-48.435	0.099
266.400	-39.778	0.099
266.500	-26.850	0.099
266.600	-34.156	0.099
266.700	-20.825	0.099
266.800	-23.461	0.099
266.900	-41.797	0.099
267.000	-11.137	0.099
267.100	-33.991	0.099
267.200	-32.270	0.099
267.300	-33.807	0.099
267.400	-37.033	0.099
267.500	-43.649	0.099
267.600	-37.037	0.099
267.700	-9.618	0.099
267.800	-10.212	0.099
267.900	-40.333	0.099
268.000	-29.007	0.099
268.100	-36.368	0.099
268.200	-25.966	0.099
268.300	-29.713	0.099
268.400	-52.989	0.099
268.500	-45.287	0.099
268.600	0.181	0.099
268.700	-19.396	0.100
268.800	-34.781	0.099
268.900	-53.146	0.100
269.000	-33.337	0.099
269.100	-10.973	0.099
269.200	-47.189	0.099
269.300	-45.496	0.099
269.400	-25.116	0.100
269.500	-38.041	0.100
269.600	-35.290	0.100
269.700	-23.930	0.100
269.800	-33.807	0.100
269.900	-23.491	0.100
270.000	-42.125	0.100
270.100	-32.876	0.100
270.200	-46.880	0.100
270.300	-33.389	0.100
270.400	-21.718	0.100
270.500	-33.364	0.100
270.600	-14.052	0.100
270.700	-28.419	0.100
270.800	-22.704	0.100
270.900	-23.813	0.100
271.000	-46.644	0.100
271.100	-17.682	0.100
271.200	-39.801	0.100
271.300	-34.036	0.100
271.400	-24.829	0.100
271.500	-42.307	0.100
271.600	-53.935	0.100
271.700	-5.411	0.100
271.800	-11.077	0.100
271.900	-43.045	0.100
272.000	-22.041	0.100
272.100	-26.978	0.100
272.200	-27.343	0.100
272.300	-36.524	0.100
272.400	-30.663	0.100
272.500	-50.916	0.100
272.600	-10.569	0.100
272.700	-48.373	0.100
272.800	-38.264	0.100
272.900	-15.616	0.100
273.000	-28.608	0.100
273.100	-30.021	0.100
273.200	-47.188	0.100
273.300	-25.873	0.100
273.400	-23.987	0.100
273.500	-26.058	0.100
273.600	-55.166	0.100
273.700	-24.487	0.100
273.800	-33.304	0.100
273.900	-37.668	0.100
274.000	-19.456	0.100
274.100	-31.726	0.100
274.200	-39.055	0.100
274.300	-41.809	0.100
274.400	-10.414	0.100
274.500	-49.367	0.100
274.600	-24.787	0.100
274.700	-23.260	0.100
274.800	-35.732	0.100
274.900	-28.530	0.100
275.000	-31.017	0.100
275.100	-4.842	0.100
275.200	-55.605	0.100
275.300	-14.915	0.099
275.400	-49.261	0.099
275.500	0.792	0.099
275.600	-10.990	0.099
275.700	-88.804	0.099
275.800	-21.968	0.099
275.900	-31.453	0.099
276.000	-39.747	0.099
276.100	-17.051	0.099
276.200	-24.642	0.099
276.300	-52.306	0.099
276.400	-8.744	0.099
276.500	-37.079	0.099
276.600	-44.629	0.099
276.700	-6.356	0.099
276.800	-43.226	0.099
276.900	-40.695	0.099
277.000	-28.552	0.099
277.100	-39.812	0.099
277.200	-41.696	0.099
277.300	-18.486	0.099
277.400	-38.040	0.099
277.500	-21.072	0.099
277.600	-46.753	0.099
277.700	-38.929	0.099
277.800	-28.819	0.099
277.900	-25.563	0.099
278.000	-38.044	0.099
278.100	-22.788	0.099
278.200	-27.917	0.099
278.300	-37.564	0.099
278.400	-30.426	0.099
278.500	-20.067	0.099
278.600	-42.005	0.099
278.700	-44.393	0.099
278.800	-37.827	0.099
278.900	-41.103	0.099
279.000	-30.202	0.099
279.100	-17.288	0.099
279.200	-2.536	0.099
279.300	-37.767	0.099
279.400	-17.437	0.099
279.500	-33.076	0.099
279.600	-24.029	0.099
279.700	-45.004	0.099
279.800	-45.216	0.099
279.900	-16.702	0.099
280.000	-30.691	0.099
280.100	-46.399	0.099
280.200	-35.108	0.099
280.300	-20.937	0.099
280.400	-38.943	0.099
280.500	-52.043	0.099
280.600	-17.003	0.099
280.700	-37.091	0.099
280.800	-21.929	0.099
280.900	-33.910	0.099
281.000	-13.044	0.099
281.100	-52.669	0.099
281.200	-17.811	0.099
281.300	-39.688	0.099
281.400	-2.423	0.099
281.500	-36.030	0.099
281.600	-55.758	0.099
281.700	-11.451	0.099
281.800	-49.448	0.099
281.900	-23.540	0.099
282.000	-23.658	0.099
282.100	-38.128	0.099
282.200	-18.248	0.099
282.300	-16.492	0.099
282.400	-32.434	0.099
282.500	-39.979	0.099
282.600	-49.441	0.099
282.700	0.762	0.099
282.800	-31.866	0.099
282.900	7.336	0.099
283.000	-42.026	0.099
283.100	-26.599	0.099
283.200	-28.885	0.099
283.300	-42.027	0.099
283.400	-24.269	0.099
283.500	-33.754	0.099
283.600	-16.445	0.099
283.700	-40.023	0.099
283.800	-43.840	0.099
283.900	-40.056	0.099
284.000	-23.371	0.099
284.100	-44.782	0.099
284.200	-21.149	0.099
284.300	-29.114	0.099
284.400	-30.128	0.099
284.500	-53.993	0.099
284.600	-12.262	0.099
284.700	-15.489	0.099
284.800	-19.622	0.099
284.900	-25.228	0.099
285.000	-39.288	0.099
285.100	-60.380	0.099
285.200	-38.884	0.099
285.300	-35.889	0.099
285.400	-18.892	0.099
285.500	-10.106	0.099
285.600	-49.952	0.099
285.700	-14.497	0.099
285.800	-26.271	0.099
285.900	-56.775	0.099
286.000	-19.896	0.099
286.100	5.662	0.099
286.200	-46.353	0.099
286.300	-24.823	0.099
286.400	-19.381	0.099
286.500	-26.538	0.099
286.600	-32.377	0.099
286.700	-1.061	0.099
286.800	-16.331	0.099
286.900	-59.440	0.099
287.000	-44.462	0.099
287.100	-28.979	0.099
287.200	-53.094	0.099
287.300	-13.614	0.099
287.400	-33.308	0.099
287.500	-32.099	0.099
287.600	-30.828	0.099
287.700	-51.371	0.099
287.800	-20.526	0.099
287.900	-38.413	0.099
288.000	-51.489	0.099
288.100	-14.355	0.099
288.200	-22.951	0.099
288.300	-43.236	0.099
288.400	-43.466	0.099
288.500	-23.600	0.099
288.600	-33.218	0.099
288.700	-40.686	0.099
288.800	-29.635	0.099
288.900	-35.161	0.099
289.000	-35.103	0.099
289.100	-30.288	0.099
289.200	-20.904	0.099
289.300	-36.832	0.099
289.400	-38.776	0.099
289.500	-34.848	0.099
289.600	-8.751	0.099
289.700	-47.381	0.099
289.800	-30.512	0.099
289.900	-27.359	0.099
290.000	-35.480	0.099
290.100	-25.499	0.099
290.200	-8.360	0.099
290.300	-4.243	0.099
290.400	-45.012	0.099
290.500	-21.449	0.099
290.600	-28.790	0.099
290.700	-44.027	0.099
290.800	-18.671	0.099
290.900	-36.674	0.099
291.000	-16.028	0.099
291.100	-45.223	0.099
291.200	-49.055	0.099
291.300	-21.572	0.099
291.400	-20.579	0.099
291.500	-45.352	0.099
291.600	-31.926	0.099
291.700	-34.917	0.099
291.800	-56.256	0.099
291.900	13.097	0.099
292.000	-23.218	0.099
292.100	-33.961	0.099
292.200	-22.560	0.099
292.300	-30.830	0.099
292.400	-51.014	0.099
292.500	-19.061	0.099
292.600	-32.335	0.099
292.700	-43.329	0.099
292.800	-11.465	0.099
292.900	-41.575	0.099
293.000	-36.718	0.099
293.100	-9.631	0.099
293.200	-12.185	0.099
293.300	-54.239	0.099
293.400	-23.468	0.099
293.500	-33.527	0.099
293.600	-43.482	0.099
293.700	9.668	0.100
293.800	-23.554	0.099
293.900	-42.336	0.099
294.000	-18.858	0.099
294.100	-23.718	0.099
294.200	-35.493	0.099
294.300	-39.931	0.099
294.400	-37.830	0.099
294.500	-35.426	0.099
294.600	-24.980	0.099
294.700	-33.419	0.099
294.800	-29.553	0.099
294.900	-45.722	0.099
295.000	-39.191	0.099
295.100	-28.774	0.099
295.200	-26.949	0.099
295.300	-55.862	0.099
295.400	-25.243	0.099
295.500	-15.889	0.099
295.600	-29.375	0.099
295.700	-20.304	0.099
295.800	-41.555	0.099
295.900	-36.371	0.099
296.000	-7.274	0.099
296.100	-29.397	0.099
296.200	-39.575	0.099
296.300	16.619	0.100
296.400	-26.038	0.099
296.500	-26.423	0.099
296.600	-32.682	0.099
296.700	-19.867	0.099
296.800	-49.659	0.099
296.900	-30.413	0.099
297.000	-21.806	0.099
297.100	-40.271	0.099
297.200	-25.457	0.099
297.300	-9.700	0.100
297.400	-56.124	0.099
297.500	-11.550	0.099
297.600	-8.139	0.100
297.700	-45.354	0.099
297.800	-5.048	0.100
297.900	-62.928	0.099
298.000	-39.165	0.099
298.100	-20.741	0.100
298.200	-12.228	0.100
298.300	-16.051	0.100
298.400	-32.832	0.099
298.500	0.973	0.100
298.600	-40.130	0.099
298.700	-23.792	0.100
298.800	-39.745	0.099
298.900	-14.205	0.100
299.000	-19.119	0.100
299.100	-25.667	0.099
299.200	-24.707	0.100
299.300	-14.848	0.100
299.400	-28.216	0.099
299.500	-63.591	0.099
299.600	-29.329	0.099
299.700	-25.288	0.099
299.800	-24.676	0.099
299.900	-32.604	0.099
300.000	-23.146	0.099
300.100	-24.749	0.100
300.200	-48.400	0.099
300.300	-13.465	0.100
300.400	-24.427	0.099
300.500	-34.260	0.099
300.600	-72.758	0.099
300.700	-14.489	0.100
300.800	-8.140	0.100
300.900	-27.610	0.099
301.000	-45.101	0.099
301.100	-19.844	0.100
301.200	-31.504	0.099
301.300	-31.320	0.099
301.400	-32.553	0.099
301.500	-19.126	0.100
301.600	-37.006	0.099
301.700	-20.416	0.100
301.800	-31.418	0.099
301.900	-47.704	0.099
302.000	-12.935	0.099
302.100	-33.848	0.099
302.200	-19.250	0.100
302.300	4.242	0.099
302.400	-44.579	0.099
302.500	-36.928	0.099
302.600	-17.690	0.099
302.700	-18.738	0.099
302.800	-31.004	0.099
302.900	-23.021	0.099
303.000	-33.883	0.099
303.100	-42.298	0.099
303.200	-17.942	0.099
303.300	-28.773	0.099
303.400	-0.464	0.099
303.500	-27.556	0.099
303.600	-35.857	0.099
303.700	-18.495	0.099
303.800	-55.821	0.099
303.900	-43.298	0.099
304.000	-41.584	0.099
304.100	-19.824	0.099
304.200	-17.640	0.099
304.300	-7.511	0.099
304.400	-18.140	0.099
304.500	-36.374	0.099
304.600	-40.321	0.099
304.700	-30.101	0.099
304.800	-35.798	0.099
304.900	-21.201	0.099
305.000	-40.144	0.099
305.100	-17.390	0.099
305.200	-21.732	0.099
305.300	-34.931	0.099
305.400	-17.427	0.099
305.500	-39.401	0.099
305.600	-17.146	0.099
305.700	-35.274	0.099
305.800	-39.872	0.099
305.900	-33.685	0.099
306.000	-24.788	0.099
306.100	-11.709	0.099
306.200	-34.387	0.099
306.300	-7.041	0.099
306.400	-58.994	0.099
306.500	-13.156	0.099
306.600	-21.711	0.099
306.700	-13.456	0.099
306.800	-31.795	0.099
306.900	-25.162	0.099
307.000	-20.757	0.099
307.100	-35.793	0.099
307.200	-15.271	0.099
307.300	-34.128	0.099
307.400	-45.601	0.099
307.500	-23.821	0.099
307.600	-26.222	0.099
307.700	-19.000	0.099
307.800	-19.316	0.099
307.900	-47.696	0.099
308.000	-26.310	0.099
308.100	-31.285	0.099
308.200	-34.474	0.099
308.300	-27.711	0.099
308.400	-17.029	0.099
308.500	-44.651	0.099
308.600	-10.593	0.099
308.700	-35.239	0.099
308.800	-34.633	0.099
308.900	-8.991	0.099
309.000	-39.223	0.099
309.100	-15.720	0.099
309.200	-34.234	0.099
309.300	-25.912	0.099
309.400	-28.818	0.099
309.500	-21.851	0.099
309.600	-22.874	0.099
309.700	-27.872	0.099
309.800	-10.687	0.099
309.900	-43.481	0.099
310.000	-23.715	0.099
310.100	-36.617	0.099
310.200	-26.750	0.099
310.300	-26.252	0.099
310.400	-8.419	0.099
310.500	-33.480	0.099
310.600	-27.141	0.099
310.700	-3.318	0.099
310.800	-40.940	0.099
310.900	-14.237	0.099
311.000	-25.069	0.099
311.100	-13.074	0.099
311.200	-27.973	0.099
311.300	-38.783	0.099
311.400	-39.328	0.099
311.500	-25.274	0.099
311.600	-2.120	0.099
311.700	-24.676	0.099
311.800	-49.537	0.099
311.900	-22.205	0.099
312.000	-23.962	0.099
312.100	-35.735	0.099
312.200	-19.508	0.099
312.300	-24.885	0.099
312.400	-8.779	0.099
312.500	-25.147	0.099
312.600	-35.606	0.099
312.700	-17.643	0.099
312.800	-1.769	0.099
312.900	-27.527	0.099
313.000	-18.503	0.099
313.100	-30.707	0.099
313.200	-40.623	0.099
313.300	-19.061	0.099
313.400	-36.124	0.099
313.500	-41.841	0.099
313.600	-2.155	0.099
313.700	-5.979	0.099
313.800	-39.147	0.099
313.900	-4.693	0.099
314.000	-1.780	0.099
314.100	-16.157	0.099
314.200	-5.000	0.099
314.300	-25.736	0.099
314.400	-37.614	0.099
314.500	-14.447	0.099
314.600	-27.704	0.099
314.700	-41.205	0.099
314.800	-8.469	0.099
314.900	-27.249	0.099
315.000	-30.082	0.099
315.100	-13.524	0.099
315.200	-44.006	0.099
315.300	-37.880	0.099
315.400	7.242	0.099
315.500	-30.900	0.099
315.600	-29.957	0.099
315.700	-10.108	0.099
315.800	-18.278	0.099
315.900	-37.602	0.099
316.000	-15.121	0.099
316.100	-44.507	0.099
316.200	-13.154	0.099
316.300	-2.487	0.099
316.400	-32.010	0.099
316.500	-11.597	0.099
316.600	-33.732	0.099
316.700	-33.760	0.099
316.800	-25.428	0.099
316.900	-38.163	0.099
317.000	-39.529	0.099
317.100	-9.990	0.099
317.200	-41.741	0.099
317.300	-17.138	0.099
317.400	-1.565	0.099
317.500	6.572	0.099
317.600	-25.061	0.099
317.700	-47.141	0.099
317.800	-2.533	0.099
317.900	-22.997	0.099
318.000	-44.838	0.099
318.100	-25.305	0.099
318.200	-45.799	0.099
318.300	-1.784	0.099
318.400	-38.621	0.099
318.500	-13.386	0.099
318.600	3.381	0.099
318.700	-27.668	0.099
318.800	-15.035	0.099
318.900	-19.884	0.099
319.000	-22.076	0.099
319.100	-19.846	0.099
319.200	-32.180	0.099
319.300	-44.142	0.099
319.400	-9.683	0.099
319.500	-2.479	0.099
319.600	-19.972	0.099
319.700	-28.818	0.099
319.800	-37.633	0.099
319.900	-1.407	0.099
320.000	-32.232	0.099
320.100	-2.732	0.099
320.200	-31.634	0.099
320.300	-26.525	0.099
320.400	-27.002	0.100
320.500	-18.842	0.099
320.600	-7.490	0.100
320.700	-18.225	0.099
320.800	-31.259	0.100
320.900	-11.320	0.099
321.000	-14.513	0.100
321.100	-17.193	0.099
321.200	-18.756	0.100
321.300	-14.687	0.100
321.400	-30.571	0.099
321.500	-20.943	0.100
321.600	-29.135	0.100
321.700	-19.915	0.099
321.800	-7.343	0.100
321.900	-19.559	0.099
322.000	-21.535	0.100
322.100	-6.619	0.099
322.200	-15.356	0.100
322.300	-24.231	0.099
322.400	-31.972	0.099
322.500	-1.416	0.100
322.600	-30.684	0.099
322.700	-25.163	0.100
322.800	-32.768	0.100
322.900	-26.056	0.100
323.000	-16.030	0.100
323.100	-27.603	0.100
323.200	-35.728	0.100
323.300	-16.883	0.100
323.400	-24.687	0.100
323.500	-30.650	0.100
323.600	-20.000	0.100
323.700	-26.653	0.100
323.800	-18.329	0.100
323.900	-27.340	0.100
324.000	-26.222	0.100
324.100	-11.532	0.100
324.200	5.700	0.100
324.300	-19.068	0.100
324.400	-43.400	0.100
324.500	-7.148	0.100
324.600	-28.940	0.100
324.700	-27.912	0.100
324.800	-20.400	0.100
324.900	-49.954	0.100
325.000	-13.604	0.100
325.100	0.560	0.100
325.200	-14.145	0.100
325.300	-16.990	0.100
325.400	-9.938	0.100
325.500	-6.871	0.100
325.600	-25.128	0.100
325.700	-37.427	0.100
325.800	-53.645	0.100
325.900	-15.668	0.100
326.000	-43.715	0.100
326.100	-9.660	0.100
326.200	-11.668	0.100
326.300	-3.941	0.100
326.400	-24.312	0.100
326.500	-22.193	0.100
326.600	-56.159	0.100
326.700	1.444	0.100
326.800	-17.030	0.100
326.900	-10.194	0.100
327.000	-24.868	0.100
327.100	-2.910	0.100
327.200	-20.467	0.100
327.300	-36.534	0.100
327.400	-16.331	0.100
327.500	-9.687	0.100
327.600	-32.386	0.100
327.700	-27.741	0.100
327.800	-33.720	0.100
327.900	-3.646	0.100
328.000	-17.904	0.100
328.100	-34.094	0.100
328.200	-32.933	0.100
328.300	-1.962	0.100
328.400	-31.284	0.100
328.500	-37.821	0.100
328.600	-30.525	0.100
328.700	-31.213	0.100
328.800	-44.791	0.100
328.900	-6.876	0.100
329.000	-26.200	0.100
329.100	-20.368	0.100
329.200	-38.105	0.100
329.300	-9.831	0.100
329.400	-2.146	0.100
329.500	-6.990	0.100
329.600	-28.033	0.100
329.700	3.067	0.100
329.800	-30.096	0.100
329.900	-29.271	0.100
330.000	-39.301	0.100
330.100	-22.001	0.100
330.200	-18.043	0.100
330.300	-12.579	0.100
330.400	-26.037	0.100
330.500	-17.267	0.100
330.600	-13.065	0.100
330.700	-22.394	0.100
330.800	30.339	0.100
330.900	11.372	0.100
331.000	24.724	0.100
331.100	22.215	0.100
331.200	25.514	0.100
331.300	42.008	0.100
331.400	17.692	0.100
331.500	17.306	0.100
331.600	49.445	0.100
331.700	18.391	0.100
331.800	11.152	0.100
331.900	33.968	0.100
332.000	45.726	0.100
332.100	11.348	0.100
332.200	30.400	0.100
332.300	45.818	0.100
332.400	47.741	0.100
332.500	39.277	0.100
332.600	31.691	0.100
332.700	31.818	0.100
332.800	63.135	0.100
332.900	22.817	0.100
333.000	28.688	0.100
333.100	31.473	0.100
333.200	56.643	0.100
333.300	19.137	0.100
333.400	8.556	0.100
333.500	36.763	0.100
333.600	53.521	0.100
333.700	18.942	0.100
333.800	26.518	0.100
333.900	11.342	0.100
334.000	29.484	0.100
334.100	11.554	0.100
334.200	35.609	0.100
334.300	35.160	0.100
334.400	39.143	0.100
334.500	25.383	0.100
334.600	42.367	0.100
334.700	46.189	0.100
334.800	6.359	0.100
334.900	12.772	0.100
335.000	44.119	0.100
335.100	14.665	0.100
335.200	18.754	0.100
335.300	11.922	0.100
335.400	25.137	0.100
335.500	10.335	0.100
335.600	24.015	0.100
335.700	23.922	0.100
335.800	24.100	0.100
335.900	33.792	0.100
336.000	5.210	0.100
336.100	3.642	0.100
336.200	43.710	0.100
336.300	31.748	0.100
336.400	34.964	0.100
336.500	34.555	0.100
336.600	11.245	0.100
336.700	17.850	0.100
336.800	30.379	0.100
336.900	33.418	0.100
337.000	34.682	0.100
337.100	33.038	0.100
337.200	25.596	0.100
337.300	41.981	0.100
337.400	43.047	0.100
337.500	53.162	0.100
337.600	39.029	0.100
337.700	29.757	0.100
337.800	8.414	0.100
337.900	42.748	0.100
338.000	26.231	0.100
338.100	41.076	0.100
338.200	50.965	0.100
338.300	45.310	0.100
338.400	55.926	0.100
338.500	49.059	0.100
338.600	25.477	0.100
338.700	45.274	0.100
338.800	74.594	0.100
338.900	53.627	0.100
339.000	28.753	0.100
339.100	51.104	0.100
339.200	49.709	0.100
339.300	37.198	0.100
339.400	44.372	0.100
339.500	51.352	0.100
339.600	53.085	0.100
339.700	50.981	0.100
339.800	54.475	0.100
339.900	48.281	0.100
340.000	53.526	0.100
340.100	79.551	0.100
340.200	49.983	0.100
340.300	40.579	0.100
340.400	66.715	0.100
340.500	41.810	0.100
340.600	57.049	0.100
340.700	59.254	0.100
340.800	46.350	0.100
340.900	92.619	0.100
341.000	49.227	0.100
341.100	61.498	0.100
341.200	54.032	0.100
341.300	66.357	0.100
341.400	63.980	0.100
341.500	60.215	0.100
341.600	62.269	0.100
341.700	68.768	0.100
341.800	76.869	0.100
341.900	80.812	0.100
342.000	58.324	0.100
342.100	56.589	0.100
342.200	59.428	0.100
342.300	78.566	0.100
342.400	63.595	0.100
342.500	60.073	0.100
342.600	61.578	0.100
342.700	72.748	0.100
342.800	82.086	0.100
342.900	79.211	0.100
343.000	37.414	0.100
343.100	53.472	0.100
343.200	71.513	0.100
343.300	91.673	0.100
343.400	79.516	0.100
343.500	87.925	0.100
343.600	80.628	0.100
343.700	64.328	0.100
343.800	96.358	0.100
343.900	77.660	0.100
344.000	64.251	0.100
344.100	72.986	0.100
344.200	85.160	0.100
344.300	74.012	0.100
344.400	94.454	0.100
344.500	81.410	0.100
344.600	75.842	0.100
344.700	93.983	0.100
344.800	60.057	0.100
344.900	82.955	0.100
345.000	80.185	0.100
345.100	83.816	0.100
345.200	88.965	0.100
345.300	50.299	0.100
345.400	82.677	0.100
345.500	85.098	0.100
345.600	85.034	0.100
345.700	104.204	0.100
345.800	74.234	0.100
345.900	64.683	0.100
346.000	82.126	0.100
346.100	70.509	0.100
346.200	102.549	0.100
346.300	87.309	0.100
346.400	86.412	0.100
346.500	85.535	0.100
346.600	57.766	0.100
346.700	93.373	0.100
346.800	89.109	0.100
346.900	96.316	0.100
347.000	100.083	0.100
347.100	80.004	0.100
347.200	86.845	0.100
347.300	84.479	0.100
347.400	99.057	0.100
347.500	75.417	0.100
347.600	74.255	0.100
347.700	84.784	0.100
347.800	69.495	0.100
347.900	97.209	0.100
348.000	101.103	0.100
348.100	92.493	0.100
348.200	84.363	0.100
348.300	73.740	0.100
348.400	71.049	0.100
348.500	103.895	0.100
348.600	96.468	0.100
348.700	79.741	0.100
348.800	90.091	0.100
348.900	104.430	0.100
349.000	84.153	0.100
349.100	102.567	0.100
349.200	71.366	0.100
349.300	69.643	0.100
349.400	95.950	0.100
349.500	78.934	0.100
349.600	77.616	0.100
349.700	69.173	0.100
349.800	103.385	0.100
349.900	92.931	0.100
350.000	107.713	0.100
350.100	75.616	0.100
350.200	83.888	0.100
350.300	78.300	0.100
350.400	71.252	0.100
350.500	72.932	0.100
350.600	83.807	0.100
350.700	78.218	0.100
350.800	88.019	0.100
350.900	73.129	0.100
351.000	76.611	0.100
351.100	110.751	0.100
351.200	84.991	0.100
351.300	59.751	0.100
351.400	85.551	0.100
351.500	94.194	0.100
351.600	73.105	0.100
351.700	81.098	0.100
351.800	91.251	0.100
351.900	90.445	0.100
352.000	86.868	0.100
352.100	86.592	0.100
352.200	59.822	0.100
352.300	78.903	0.100
352.400	67.061	0.100
352.500	98.982	0.100
352.600	83.486	0.100
352.700	83.103	0.100
352.800	68.170	0.100
352.900	84.352	0.100
353.000	82.511	0.100
353.100	92.563	0.100
353.200	97.951	0.100
353.300	86.618	0.100
353.400	63.172	0.100
353.500	107.743	0.100
353.600	83.732	0.100
353.700	68.088	0.100
353.800	68.703	0.100
353.900	84.218	0.100
354.000	95.680	0.100
354.100	78.282	0.100
354.200	65.119	0.100
354.300	79.428	0.100
354.400	79.572	0.100
354.500	87.814	0.100
354.600	98.015	0.100
354.700	102.034	0.100
354.800	94.198	0.100
354.900	83.265	0.100
355.000	72.138	0.100
355.100	49.977	0.100
355.200	82.513	0.100
355.300	113.084	0.100
355.400	79.998	0.100
355.500	86.061	0.100
355.600	100.605	0.100
355.700	88.060	0.100
355.800	60.774	0.100
355.900	75.902	0.100
356.000	80.171	0.100
356.100	80.159	0.100
356.200	73.107	0.100
356.300	84.622	0.100
356.400	51.390	0.100
356.500	67.850	0.100
356.600	84.136	0.100
356.700	89.165	0.100
356.800	53.059	0.100
356.900	83.174	0.100
357.000	94.755	0.100
357.100	61.851	0.100
357.200	98.686	0.100
357.300	78.612	0.100
357.400	90.238	0.100
357.500	80.000	0.100
357.600	86.163	0.100
357.700	87.820	0.100
357.800	52.799	0.100
357.900	86.687	0.100
358.000	56.602	0.100
358.100	95.428	0.100
358.200	103.788	0.100
358.300	75.215	0.100
358.400	70.923	0.100
358.500	96.874	0.100
358.600	75.359	0.100
358.700	80.974	0.100
358.800	107.179	0.100
358.900	68.440	0.100
359.000	89.131	0.100
359.100	61.547	0.100
359.200	74.691	0.100
359.300	86.556	0.100
359.400	87.762	0.100
359.500	68.663	0.100
359.600	85.771	0.100
359.700	69.443	0.100
359.800	49.048	0.100
359.900	104.684	0.100
360.000	88.388	0.100
360.100	82.852	0.100
360.200	94.948	0.100
360.300	92.956	0.100
360.400	69.741	0.100
360.500	100.670	0.100
360.600	51.464	0.100
360.700	82.187	0.100
360.800	76.425	0.100
360.900	70.759	0.100
361.000	82.157	0.100
361.100	84.637	0.100
361.200	97.680	0.100
361.300	89.028	0.100
361.400	93.519	0.100
361.500	72.222	0.100
361.600	60.469	0.100
361.700	93.555	0.100
361.800	79.058	0.100
361.900	67.387	0.100
362.000	88.393	0.100
362.100	71.312	0.100
362.200	77.135	0.100
362.300	79.409	0.100
362.400	88.334	0.100
362.500	62.290	0.100
362.600	97.375	0.100
362.700	99.647	0.100
362.800	63.832	0.100
362.900	65.545	0.100
363.000	57.060	0.100
363.100	72.455	0.100
363.200	80.527	0.100
363.300	82.835	0.100
363.400	77.797	0.100
363.500	65.106	0.100
363.600	73.824	0.100
363.700	111.419	0.100
363.800	89.006	0.100
363.900	56.407	0.100
364.000	81.997	0.100
364.100	84.130	0.100
364.200	76.501	0.100
364.300	85.505	0.100
364.400	77.053	0.100
364.500	67.970	0.100
364.600	98.226	0.100
364.700	73.576	0.100
364.800	63.732	0.100
364.900	81.036	0.100
365.000	73.245	0.100
365.100	91.871	0.100
365.200	91.903	0.100
365.300	68.345	0.100
365.400	98.182	0.100
365.500	75.223	0.100
365.600	69.085	0.100
365.700	66.198	0.100
365.800	67.750	0.100
365.900	74.076	0.100
366.000	79.394	0.100
366.100	84.119	0.100
366.200	63.121	0.100
366.300	66.539	0.100
366.400	104.514	0.100
366.500	67.971	0.100
366.600	92.337	0.100
366.700	81.407	0.100
366.800	69.678	0.100
366.900	53.228	0.100
367.000	75.892	0.100
367.100	68.599	0.100
367.200	93.950	0.100
367.300	83.276	0.100
367.400	88.748	0.100
367.500	78.338	0.100
367.600	88.757	0.100
367.700	74.242	0.100
367.800	85.303	0.100
367.900	83.060	0.100
368.000	68.228	0.100
368.100	96.616	0.100
368.200	61.876	0.100
368.300	71.832	0.100
368.400	91.652	0.100
368.500	85.943	0.100
368.600	88.071	0.100
368.700	75.741	0.100
368.800	70.009	0.100
368.900	61.301	0.100
369.000	98.137	0.100
369.100	66.399	0.100
369.200	74.927	0.100
369.300	94.624	0.100
369.400	81.637	0.100
369.500	64.822	0.100
369.600	79.773	0.100
369.700	89.014	0.100
369.800	109.722	0.100
369.900	74.715	0.100
370.000	60.127	0.100
370.100	70.890	0.100
370.200	84.229	0.100
370.300	53.944	0.100
370.400	75.558	0.100
370.500	91.819	0.100
370.600	84.634	0.100
370.700	45.893	0.100
370.800	95.243	0.100
370.900	60.754	0.100
371.000	62.286	0.100
371.100	88.895	0.100
371.200	63.438	0.100
371.300	55.401	0.100
371.400	76.114	0.100
371.500	78.374	0.100
371.600	71.176	0.100
371.700	95.212	0.100
371.800	63.952	0.100
371.900	79.172	0.100
372.000	62.936	0.100
372.100	79.145	0.100
372.200	76.763	0.100
372.300	63.246	0.100
372.400	48.647	0.100
372.500	105.944	0.100
372.600	70.355	0.100
372.700	82.538	0.100
372.800	96.475	0.100
372.900	81.626	0.100
373.000	72.228	0.100
373.100	68.164	0.100
373.200	55.812	0.100
373.300	115.846	0.100
373.400	87.254	0.100
373.500	81.924	0.100
373.600	54.963	0.100
373.700	83.091	0.100
373.800	83.732	0.100
373.900	79.982	0.100
374.000	90.581	0.100
374.100	65.545	0.100
374.200	81.610	0.100
374.300	111.431	0.100
374.400	94.915	0.100
374.500	52.053	0.100
374.600	95.218	0.100
374.700	64.115	0.100
374.800	84.769	0.100
374.900	82.225	0.100
375.000	66.893	0.100
375.100	81.631	0.100
375.200	71.486	0.100
375.300	57.407	0.100
375.400	88.749	0.100
375.500	103.307	0.100
375.600	66.691	0.100
375.700	84.861	0.100
375.800	55.754	0.100
375.900	55.872	0.100
376.000	71.631	0.100
376.100	86.380	0.100
376.200	82.547	0.100
376.300	82.145	0.100
376.400	79.493	0.100
376.500	76.358	0.100
376.600	64.687	0.100
376.700	96.236	0.100
376.800	67.655	0.100
376.900	83.595	0.100
377.000	101.779	0.100
377.100	74.737	0.100
377.200	95.688	0.100
377.300	81.457	0.100
377.400	54.580	0.100
377.500	89.100	0.100
377.600	64.003	0.100
377.700	91.159	0.100
377.800	69.803	0.100
377.900	77.582	0.100
378.000	89.401	0.100
378.100	68.461	0.100
378.200	76.451	0.100
378.300	83.095	0.100
378.400	114.544	0.100
378.500	59.208	0.100
378.600	99.299	0.100
378.700	71.219	0.100
378.800	75.942	0.100
378.900	77.664	0.100
379.000	83.733	0.100
379.100	62.007	0.100
379.200	79.916	0.100
379.300	59.672	0.100
379.400	49.541	0.100
379.500	65.880	0.100
379.600	95.056	0.100
379.700	47.438	0.100
379.800	91.161	0.100
379.900	80.641	0.100
380.000	44.313	0.100
380.100	79.302	0.100
380.200	86.838	0.100
380.300	62.630	0.100
380.400	88.412	0.100
380.500	74.785	0.100
380.600	76.608	0.100
380.700	62.140	0.100
380.800	102.473	0.100
380.900	48.949	0.100
381.000	97.650	0.100
381.100	62.856	0.100
381.200	63.415	0.100
381.300	108.221	0.100
381.400	74.367	0.100
381.500	66.827	0.100
381.600	89.572	0.100
381.700	83.496	0.100
381.800	65.421	0.100
381.900	91.551	0.100
382.000	82.792	0.100
382.100	87.293	0.100
382.200	100.286	0.100
382.300	72.574	0.100
382.400	72.251	0.100
382.500	97.356	0.100
382.600	77.822	0.100
382.700	62.753	0.100
382.800	57.338	0.100
382.900	79.568	0.100
383.000	76.869	0.100
383.100	95.311	0.100
383.200	90.809	0.100
383.300	76.502	0.100
383.400	67.573	0.100
383.500	67.768	0.100
383.600	84.023	0.100
383.700	97.609	0.100
383.800	62.200	0.100
383.900	73.358	0.100
384.000	69.211	0.100
384.100	64.628	0.100
384.200	91.393	0.100
384.300	71.825	0.100
384.400	45.727	0.100
384.500	88.318	0.100
384.600	101.717	0.100
384.700	55.360	0.100
384.800	86.244	0.100
384.900	77.556	0.100
385.000	76.006	0.100
385.100	79.269	0.100
385.200	89.383	0.100
385.300	37.994	0.100
385.400	72.826	0.100
385.500	88.660	0.100
385.600	81.827	0.100
385.700	102.945	0.100
385.800	57.800	0.100
385.900	65.309	0.100
386.000	62.117	0.100
386.100	88.490	0.100
386.200	82.412	0.100
386.300	97.246	0.100
386.400	64.502	0.100
386.500	69.223	0.100
386.600	87.182	0.100
386.700	85.755	0.100
386.800	77.669	0.100
386.900	76.504	0.100
387.000	63.535	0.100
387.100	56.318	0.100
387.200	97.209	0.100
387.300	67.084	0.100
387.400	70.523	0.100
387.500	69.042	0.100
387.600	46.990	0.100
387.700	92.623	0.100
387.800	73.498	0.100
387.900	82.883	0.100
388.000	68.606	0.100
388.100	104.558	0.100
388.200	58.018	0.100
388.300	92.727	0.100
388.400	74.939	0.100
388.500	72.250	0.100
388.600	103.429	0.100
388.700	69.627	0.100
388.800	75.293	0.100
388.900	63.076	0.100
389.000	98.621	0.100
389.100	79.277	0.100
389.200	79.995	0.100
389.300	45.717	0.100
389.400	66.651	0.100
389.500	91.782	0.100
389.600	73.697	0.100
389.700	69.469	0.100
389.800	89.222	0.100
389.900	79.946	0.100
390.000	77.572	0.100
390.100	74.249	0.100
390.200	73.690	0.100
390.300	60.304	0.100
390.400	63.467	0.100
390.500	57.298	0.100
390.600	53.201	0.100
390.700	41.065	0.100
390.800	33.874	0.100
390.900	27.078	0.100
391.000	47.993	0.100
391.100	26.163	0.100
391.200	28.311	0.100
391.300	7.543	0.100
391.400	8.497	0.100
391.500	6.374	0.100
391.600	39.292	0.100
391.700	13.599	0.100
391.800	12.089	0.100
391.900	14.657	0.100
392.000	-23.144	0.100
392.100	-15.356	0.100
392.200	-1.042	0.100
392.300	-6.164	0.100
392.400	-34.256	0.100
392.500	12.297	0.100
392.600	-3.134	0.100
392.700	-14.431	0.100
392.800	-5.870	0.100
392.900	-24.909	0.100
393.000	-16.203	0.100
393.100	-5.944	0.100
393.200	-14.008	0.100
393.300	-9.604	0.100
393.400	-17.323	0.100
393.500	-31.767	0.100
393.600	-7.978	0.100
393.700	-25.455	0.100
393.800	-30.265	0.100
393.900	-17.684	0.100
394.000	-13.261	0.100
394.100	-33.048	0.100
394.200	-14.313	0.100
394.300	-14.758	0.100
394.400	-12.745	0.100
394.500	-23.599	0.100
394.600	-2.117	0.100
394.700	-22.734	0.100
394.800	-10.809	0.100
394.900	-43.879	0.100
395.000	-39.350	0.100
395.100	-21.310	0.100
395.200	-14.904	0.100
395.300	-26.489	0.100
395.400	-14.504	0.100
395.500	-20.425	0.100
395.600	-42.124	0.100
395.700	-21.047	0.100
395.800	0.563	0.100
395.900	-20.073	0.100
396.000	-9.469	0.100
396.100	-38.584	0.100
396.200	-1.911	0.100
396.300	-4.100	0.100
396.400	-24.947	0.100
396.500	-28.907	0.100
396.600	0.402	0.100
396.700	-22.969	0.100
396.800	-20.580	0.100
396.900	-14.822	0.100
397.000	-31.523	0.100
397.100	-16.835	0.100
397.200	-9.416	0.100
397.300	-16.509	0.100
397.400	-17.806	0.100
397.500	-0.291	0.100
397.600	-21.108	0.100
397.700	-41.374	0.100
397.800	-16.798	0.100
397.900	-20.659	0.100
398.000	-13.769	0.100
398.100	-22.419	0.100
398.200	-19.270	0.100
398.300	3.733	0.100
398.400	-23.758	0.100
398.500	-2.368	0.100
398.600	-17.030	0.100
398.700	-45.279	0.100
398.800	-13.976	0.100
398.900	-7.005	0.100
399.000	-19.543	0.100
399.100	-17.710	0.100
399.200	-2.449	0.100
399.300	-32.151	0.100
399.400	-17.788	0.100
399.500	-24.310	0.100
399.600	-25.607	0.100
399.700	-27.678	0.100
399.800	-3.623	0.100
399.900	-21.836	0.100
400.000	-8.812	0.100
400.100	-2.125	0.100
400.200	-19.130	0.100
400.300	-11.740	0.100
400.400	-5.575	0.100
400.500	-36.871	0.100
400.600	-5.188	0.100
400.700	-12.044	0.100
400.800	-40.312	0.100
400.900	-11.035	0.100
401.000	-16.216	0.100
401.100	-9.303	0.100
401.200	-36.473	0.100
401.300	-13.989	0.099
401.400	0.491	0.099
401.500	-37.717	0.099
401.600	-13.018	0.099
401.700	-13.239	0.099
401.800	-8.817	0.099
401.900	-42.551	0.099
402.000	-26.201	0.099
402.100	-13.407	0.099
402.200	-22.570	0.099
402.300	-27.161	0.099
402.400	-15.019	0.099
402.500	-31.263	0.099
402.600	-30.451	0.099
402.700	-27.728	0.099
402.800	-12.088	0.099
402.900	-38.069	0.099
403.000	0.278	0.099
403.100	7.832	0.099
403.200	-10.658	0.099
403.300	-19.323	0.099
403.400	-11.844	0.099
403.500	-33.419	0.099
403.600	-45.855	0.099
403.700	0.812	0.099
403.800	-34.414	0.099
403.900	-11.707	0.099
404.000	-17.059	0.099
404.100	-16.485	0.099
404.200	-33.675	0.099
404.300	-11.864	0.099
404.400	-11.812	0.099
404.500	-4.576	0.099
404.600	-17.355	0.099
404.700	-50.305	0.099
404.800	-11.048	0.099
404.900	-12.629	0.099
405.000	-19.435	0.099
405.100	-23.561	0.099
405.200	-42.665	0.099
405.300	-48.659	0.099
405.400	-10.129	0.099
405.500	-19.520	0.099
405.600	-22.651	0.099
405.700	-35.460	0.099
405.800	-46.203	0.099
405.900	-6.707	0.099
406.000	-25.844	0.099
406.100	-2.846	0.099
406.200	-30.456	0.099
406.300	-12.278	0.099
406.400	-45.783	0.099
406.500	-15.686	0.099
406.600	-28.605	0.099
406.700	-35.513	0.099
406.800	-14.797	0.099
406.900	-33.165	0.099
407.000	-10.202	0.099
407.100	-14.002	0.099
407.200	-13.343	0.099
407.300	1.563	0.099
407.400	-32.524	0.099
407.500	-36.032	0.099
407.600	-56.035	0.099
407.700	-21.521	0.099
407.800	-15.788	0.099
407.900	-25.281	0.099
408.000	-14.423	0.099
408.100	-38.072	0.099
408.200	-32.150	0.099
408.300	-16.410	0.099
408.400	-42.614	0.099
408.500	-22.894	0.099
408.600	-41.754	0.099
408.700	-24.714	0.099
408.800	-12.145	0.099
408.900	-20.209	0.099
409.000	-29.872	0.099
409.100	-30.523	0.099
409.200	-29.015	0.099
409.300	-41.527	0.099
409.400	-39.764	0.099
409.500	-39.899	0.099
409.600	-28.486	0.099
409.700	-32.744	0.099
409.800	-0.674	0.099
409.900	-35.562	0.099
410.000	-10.758	0.099
410.100	-33.153	0.099
410.200	-47.904	0.099
410.300	-38.600	0.099
410.400	-33.438	0.099
410.500	-8.656	0.099
410.600	-12.100	0.099
410.700	-26.390	0.099
410.800	-26.180	0.099
410.900	-3.994	0.099
411.000	-2.462	0.099
411.100	-55.132	0.099
411.200	-26.579	0.099
411.300	-48.302	0.099
411.400	-10.236	0.099
411.500	-21.253	0.099
411.600	-51.131	0.099
411.700	-41.369	0.099
411.800	-30.636	0.099
411.900	-31.196	0.099
412.000	-15.078	0.099
412.100	-25.073	0.099
412.200	-37.800	0.099
412.300	-17.630	0.099
412.400	-2.762	0.099
412.500	-67.047	0.099
412.600	-31.895	0.099
412.700	-9.760	0.099
412.800	-14.654	0.099
412.900	-33.042	0.099
413.000	0.208	0.099
413.100	-55.060	0.099
413.200	-6.358	0.099
413.300	-36.137	0.099
413.400	-46.391	0.099
413.500	-19.424	0.099
413.600	-20.551	0.099
413.700	-38.894	0.099
413.800	-40.364	0.099
413.900	-45.556	0.099
414.000	-16.015	0.099
414.100	-45.793	0.099
414.200	-27.639	0.099
414.300	-30.188	0.099
414.400	-24.512	0.099
414.500	-23.781	0.099
414.600	-36.416	0.099
414.700	-38.570	0.099
414.800	-25.630	0.099
414.900	-53.642	0.099
415.000	-38.244	0.099
415.100	-21.975	0.099
415.200	-26.825	0.099
415.300	-38.682	0.099
415.400	-20.933	0.099
415.500	-22.357	0.099
415.600	-32.649	0.099
415.700	-25.629	0.099
415.800	-42.582	0.099
415.900	-16.374	0.099
416.000	-20.514	0.099
416.100	-32.591	0.099
416.200	-21.972	0.099
416.300	-56.695	0.099
416.400	-35.699	0.099
416.500	-43.016	0.099
416.600	-29.744	0.099
416.700	-41.540	0.099
416.800	-21.092	0.099
416.900	-37.242	0.099
417.000	-20.720	0.099
417.100	-30.694	0.099
417.200	-62.871	0.099
417.300	-44.416	0.099
417.400	-23.805	0.099
417.500	-42.237	0.099
417.600	-29.751	0.099
417.700	-12.556	0.099
417.800	-40.688	0.100
417.900	-54.654	0.100
418.000	-49.803	0.100
418.100	-45.733	0.100
418.200	-21.103	0.100
418.300	-64.113	0.100
418.400	-12.029	0.100
418.500	-2.630	0.100
418.600	1.775	0.100
418.700	-58.929	0.100
418.800	-33.573	0.100
418.900	-22.525	0.100
419.000	-21.795	0.100
419.100	-20.969	0.100
419.200	-42.007	0.100
419.300	-47.826	0.100
419.400	-32.980	0.100
419.500	-24.563	0.100
419.600	-43.913	0.100
419.700	-21.857	0.100
419.800	-30.391	0.100
419.900	-47.185	0.100
420.000	-42.730	0.100
420.100	-38.278	0.100
420.200	-20.740	0.100
420.300	-20.580	0.100
420.400	-37.165	0.100
420.500	-35.949	0.100
420.600	-37.606	0.100
420.700	-27.465	0.100
420.800	-47.174	0.100
420.900	-15.668	0.100
421.000	-55.073	0.100
421.100	-29.759	0.100
421.200	-47.275	0.100
421.300	-27.349	0.100
421.400	-37.204	0.100
421.500	-41.878	0.100
421.600	-60.886	0.100
421.700	-36.583	0.100
421.800	-38.892	0.100
421.900	-55.693	0.100
422.000	-12.162	0.100
422.100	-36.258	0.100
422.200	-37.401	0.100
422.300	-17.967	0.100
422.400	-67.536	0.100
422.500	-39.080	0.100
422.600	-31.382	0.100
422.700	-20.826	0.100
422.800	-59.129	0.100
422.900	-59.851	0.100
423.000	-22.404	0.100
423.100	-8.345	0.100
423.200	-28.762	0.100
423.300	-45.925	0.100
423.400	-42.373	0.100
423.500	-34.339	0.100
423.600	-28.456	0.100
423.700	-22.064	0.100
423.800	-43.163	0.100
423.900	-32.942	0.100
424.000	-30.975	0.100
424.100	-25.099	0.100
424.200	-44.232	0.100
424.300	-44.261	0.100
424.400	-23.631	0.100
424.500	-48.116	0.100
424.600	-46.655	0.100
424.700	-38.653	0.100
424.800	-40.162	0.100
424.900	-35.796	0.100
425.000	-35.664	0.100
425.100	-43.786	0.100
425.200	-31.358	0.100
425.300	-50.197	0.100
425.400	-36.546	0.100
425.500	-37.203	0.100
425.600	-29.385	0.100
425.700	-52.830	0.100
425.800	-52.198	0.100
425.900	-33.483	0.100
426.000	-33.539	0.100
426.100	-45.277	0.100
426.200	-29.544	0.100
426.300	-50.049	0.100
426.400	-29.158	0.100
426.500	-13.381	0.100
426.600	-71.920	0.100
426.700	-36.627	0.100
426.800	-34.193	0.100
426.900	-26.346	0.100
427.000	-35.805	0.100
427.100	-14.302	0.100
427.200	-56.890	0.100
427.300	-32.104	0.100
427.400	-38.636	0.100
427.500	-47.375	0.100
427.600	-31.770	0.100
427.700	-41.558	0.100
427.800	-21.980	0.100
427.900	-36.837	0.100
428.000	-36.254	0.100
428.100	-57.496	0.100
428.200	-17.670	0.100
428.300	-25.825	0.100
428.400	-50.446	0.100
428.500	-29.146	0.100
428.600	-31.252	0.100
428.700	-47.967	0.100
428.800	-27.054	0.100
428.900	-32.767	0.100
429.000	-39.607	0.100
429.100	-28.897	0.100
429.200	-45.191	0.100
429.300	-54.808	0.100
429.400	-36.414	0.100
429.500	-43.688	0.100
429.600	-57.731	0.100
429.700	-31.005	0.100
429.800	-33.845	0.100
429.900	-51.440	0.100
430.000	0.143	0.100
430.100	-20.016	0.100
430.200	-29.247	0.100
430.300	-34.805	0.100
430.400	-37.837	0.100
430.500	-40.544	0.100
430.600	-51.060	0.100
430.700	-17.202	0.100
430.800	-21.635	0.100
430.900	-25.976	0.100
431.000	-58.501	0.100
431.100	-33.472	0.100
431.200	-44.578	0.100
431.300	-40.480	0.100
431.400	-48.405	0.100
431.500	-42.999	0.100
431.600	-38.953	0.100
431.700	-26.981	0.100
431.800	-48.609	0.100
431.900	-37.940	0.100
432.000	-19.703	0.100
432.100	-33.781	0.100
432.200	-22.756	0.100
432.300	-17.642	0.100
432.400	-30.207	0.100
432.500	-67.197	0.100
432.600	-44.054	0.100
432.700	-20.991	0.100
432.800	-26.315	0.100
432.900	-23.182	0.100
433.000	-37.566	0.100
433.100	-54.741	0.100
433.200	-28.449	0.100
433.300	-71.897	0.100
433.400	-41.596	0.100
433.500	-20.903	0.100
433.600	-34.699	0.100
433.700	-30.899	0.100
433.800	-32.798	0.100
433.900	-50.975	0.100
434.000	-28.451	0.100
434.100	-38.033	0.100
434.200	-26.171	0.100
434.300	-47.247	0.100
434.400	-31.090	0.100
434.500	-17.726	0.100
434.600	-52.551	0.100
434.700	-41.635	0.100
434.800	-54.871	0.100
434.900	-41.702	0.100
435.000	-35.826	0.100
435.100	-23.199	0.100
435.200	-38.486	0.100
435.300	-3.867	0.100
435.400	-25.089	0.100
435.500	-30.194	0.100
435.600	-47.209	0.100
435.700	-41.170	0.100
435.800	-22.088	0.100
435.900	-47.247	0.100
436.000	-42.852	0.100
436.100	-29.516	0.100
436.200	-54.720	0.100
436.300	-56.234	0.100
436.400	-1.151	0.100
436.500	-34.866	0.100
436.600	-46.021	0.100
436.700	-13.896	0.100
436.800	-80.030	0.100
436.900	-30.347	0.100
437.000	-37.454	0.100
437.100	-40.206	0.100
437.200	-26.126	0.100
437.300	-28.185	0.100
437.400	-43.219	0.100
437.500	-26.204	0.100
437.600	-36.143	0.100
437.700	-36.134	0.100
437.800	-20.167	0.100
437.900	-23.240	0.100
438.000	-29.263	0.100
438.100	-39.197	0.100
438.200	-25.703	0.100
438.300	-53.567	0.100
438.400	-46.050	0.100
438.500	-22.769	0.100
438.600	-37.373	0.100
438.700	-42.216	0.100
438.800	-31.174	0.100
438.900	-54.750	0.100
439.000	-36.645	0.100
439.100	-33.956	0.100
439.200	-40.034	0.100
439.300	-30.431	0.100
439.400	-31.482	0.100
439.500	-51.842	0.100
439.600	-11.372	0.100
439.700	-15.276	0.100
439.800	-55.533	0.100
439.900	-25.196	0.100
440.000	-22.486	0.100
440.100	-51.466	0.100
440.200	-13.079	0.100
440.300	-55.851	0.100
440.400	-35.164	0.100
440.500	-39.607	0.100
440.600	-53.057	0.100
440.700	-9.098	0.100
440.800	-28.641	0.100
440.900	-55.242	0.100
441.000	-55.165	0.100
441.100	-17.378	0.100
441.200	-29.196	0.100
441.300	-38.641	0.100
441.400	-31.743	0.100
441.500	-30.424	0.100
441.600	-50.820	0.100
441.700	-37.481	0.100
441.800	-52.809	0.100
441.900	-21.622	0.100
442.000	-25.640	0.100
442.100	-22.662	0.100
442.200	-54.056	0.100
442.300	-41.457	0.100
442.400	-17.499	0.100
442.500	-31.643	0.100
442.600	-60.163	0.100
442.700	-50.068	0.100
442.800	-21.419	0.100
442.900	-40.881	0.100
443.000	-50.104	0.100
443.100	-26.810	0.100
443.200	-22.089	0.100
443.300	-30.682	0.100
443.400	-44.637	0.100
443.500	-53.167	0.100
443.600	-36.387	0.100
443.700	-36.435	0.100
443.800	-26.745	0.100
443.900	-56.813	0.100
444.000	-32.321	0.100
444.100	-21.036	0.100
444.200	-17.272	0.100
444.300	-17.625	0.100
444.400	-21.137	0.100
444.500	-33.425	0.100
444.600	-31.013	0.100
444.700	-40.761	0.100
444.800	-37.592	0.100
444.900	-15.835	0.100
445.000	-15.982	0.100
445.100	-51.045	0.100
445.200	-41.170	0.100
445.300	-36.055	0.100
445.400	-15.500	0.100
445.500	-31.827	0.100
445.600	-34.640	0.100
445.700	-10.313	0.100
445.800	-10.510	0.100
445.900	-44.357	0.100
446.000	-34.311	0.100
446.100	-32.263	0.100
446.200	-48.373	0.100
446.300	-31.818	0.100
446.400	-31.697	0.100
446.500	-23.872	0.100
446.600	-47.088	0.100
446.700	-32.883	0.100
446.800	-42.315	0.100
446.900	-12.393	0.100
447.000	-16.236	0.100
447.100	-32.946	0.100
447.200	-43.142	0.100
447.300	-33.425	0.100
447.400	-40.445	0.100
447.500	-33.061	0.100
447.600	-44.046	0.100
447.700	-27.843	0.100
447.800	-30.048	0.100
447.900	-21.626	0.100
448.000	-51.299	0.100
448.100	-17.292	0.100
448.200	-21.610	0.100
448.300	-35.463	0.100
448.400	-18.805	0.100
448.500	-37.818	0.100
448.600	-18.846	0.100
448.700	-27.540	0.100
448.800	-29.348	0.100
448.900	-46.301	0.100
449.000	-26.385	0.100
449.100	-7.721	0.100
449.200	-50.029	0.100
449.300	-26.266	0.100
449.400	-46.640	0.100
449.500	-19.825	0.100
449.600	-43.009	0.100
449.700	-35.534	0.100
449.800	-46.346	0.100
449.900	-25.664	0.100
450.000	-38.028	0.100
450.100	-33.451	0.100
450.200	-15.324	0.100
450.300	-42.863	0.100
450.400	-42.890	0.100
450.500	-28.039	0.100
450.600	-29.966	0.100
450.700	-36.281	0.100
450.800	-10.221	0.100
450.900	-38.435	0.100
451.000	-26.923	0.100
451.100	-43.949	0.100
451.200	-31.400	0.100
451.300	-35.238	0.100
451.400	-38.641	0.100
451.500	-42.607	0.100
451.600	-40.740	0.100
451.700	-14.952	0.100
451.800	-41.325	0.100
451.900	-30.080	0.100
452.000	-47.089	0.100
452.100	-34.687	0.100
452.200	-12.341	0.100
452.300	-34.749	0.100
452.400	-18.491	0.100
452.500	-14.939	0.100
452.600	-42.394	0.100
452.700	-32.058	0.100
452.800	-35.838	0.100
452.900	-38.227	0.100
453.000	-5.825	0.100
453.100	-32.693	0.100
453.200	-7.136	0.100
453.300	-27.730	0.100
453.400	-39.058	0.100
453.500	-54.673	0.100
453.600	-42.750	0.100
453.700	-13.766	0.100
453.800	-31.836	0.100
453.900	-46.026	0.100
454.000	-46.344	0.100
454.100	-53.368	0.100
454.200	-4.218	0.100
454.300	-24.441	0.100
454.400	-41.037	0.100
454.500	-31.658	0.100
454.600	-33.391	0.100
454.700	-34.157	0.100
454.800	-27.598	0.100
454.900	-28.709	0.100
455.000	-26.512	0.100
455.100	-15.695	0.100
455.200	-23.757	0.100
455.300	-13.124	0.100
455.400	-55.277	0.100
455.500	-30.613	0.100
455.600	-11.196	0.100
455.700	-16.182	0.100
455.800	-57.807	0.100
455.900	-17.245	0.100
456.000	-34.919	0.100
456.100	-41.875	0.100
456.200	-33.682	0.100
456.300	-13.492	0.100
456.400	-33.738	0.100
456.500	-32.162	0.100
456.600	-31.073	0.100
456.700	-52.963	0.100
456.800	-10.190	0.100
456.900	-38.369	0.099
457.000	-29.717	0.099
457.100	-37.437	0.099
457.200	-21.510	0.099
457.300	-40.585	0.099
457.400	-6.534	0.099
457.500	-47.113	0.099
457.600	-30.331	0.099
457.700	-28.975	0.099
457.800	-29.286	0.099
457.900	-10.494	0.099
458.000	-5.191	0.099
458.100	-52.506	0.099
458.200	-55.828	0.099
458.300	-48.739	0.099
458.400	-52.789	0.099
458.500	-10.113	0.099
458.600	-30.717	0.099
458.700	-26.082	0.099
458.800	-36.165	0.099
458.900	-50.365	0.099
459.000	-23.866	0.099
459.100	-29.320	0.099
459.200	-18.400	0.099
459.300	-27.842	0.099
459.400	-38.475	0.099
459.500	-21.521	0.099
459.600	-40.240	0.099
459.700	-25.293	0.099
459.800	-17.613	0.099
459.900	-33.614	0.099
460.000	-55.446	0.099
460.100	-11.104	0.099
460.200	-8.959	0.099
460.300	-34.151	0.099
460.400	-31.747	0.099
460.500	-34.061	0.099
460.600	-25.554	0.099
460.700	-23.715	0.099
460.800	-44.776	0.099
460.900	-7.823	0.099
461.000	-43.081	0.099
461.100	-35.044	0.099
461.200	-37.700	0.099
461.300	-16.679	0.099
461.400	-41.385	0.099
461.500	-30.849	0.099
461.600	-21.505	0.099
461.700	-32.734	0.099
461.800	-21.742	0.099
461.900	-19.124	0.099
462.000	-46.530	0.099
462.100	-9.314	0.099
462.200	-32.402	0.099
462.300	-32.862	0.099
462.400	-43.103	0.099
462.500	-44.394	0.099
462.600	-14.229	0.099
462.700	-14.223	0.099
462.800	-42.995	0.099
462.900	-43.287	0.099
463.000	-41.120	0.099
463.100	-50.758	0.099
463.200	-26.488	0.099
463.300	-7.084	0.099
463.400	-28.293	0.099
463.500	-27.105	0.099
463.600	-26.587	0.099
463.700	-37.468	0.099
463.800	-34.685	0.099
463.900	-26.320	0.099
464.000	-34.784	0.099
464.100	-35.597	0.099
464.200	-20.959	0.099
464.300	-21.217	0.099
464.400	-27.858	0.099
464.500	-31.137	0.099
464.600	-30.602	0.099
464.700	-43.409	0.099
464.800	-15.504	0.099
464.900	-19.399	0.099
465.000	-37.210	0.099
465.100	-24.140	0.099
465.200	-50.769	0.099
465.300	-46.156	0.099
465.400	-11.309	0.099
465.500	-26.046	0.099
465.600	-35.143	0.099
465.700	-4.788	0.099
465.800	-19.972	0.099
465.900	-28.901	0.099
466.000	-9.799	0.099
466.100	-39.383	0.099
466.200	-27.809	0.099
466.300	-28.204	0.099
466.400	-19.544	0.099
466.500	-23.155	0.099
466.600	-3.194	0.099
466.700	-41.596	0.099
466.800	-7.681	0.099
466.900	-33.109	0.099
467.000	-41.985	0.099
467.100	-5.569	0.099
467.200	-59.189	0.099
467.300	-9.245	0.099
467.400	-13.379	0.099
467.500	-49.082	0.099
467.600	-54.170	0.099
467.700	-46.876	0.099
467.800	-6.752	0.099
467.900	-8.674	0.099
468.000	-30.422	0.099
468.100	-11.943	0.099
468.200	-46.772	0.099
468.300	-23.144	0.099
468.400	-35.416	0.099
468.500	-41.475	0.099
468.600	-41.086	0.099
468.700	-24.171	0.099
468.800	-18.526	0.099
468.900	-23.247	0.099
469.000	-51.030	0.099
469.100	-9.492	0.099
469.200	-40.049	0.099
469.300	-37.783	0.099
469.400	-12.137	0.099
469.500	-11.249	0.099
469.600	-44.797	0.099
469.700	-41.447	0.099
469.800	-16.118	0.099
469.900	-35.023	0.099
470.000	-24.503	0.099
470.100	-30.000	0.099
470.200	-23.984	0.099
470.300	-32.856	0.099
470.400	-1.584	0.099
470.500	-67.397	0.099
470.600	-35.479	0.099
470.700	-5.788	0.099
470.800	-28.660	0.099
470.900	-15.911	0.099
471.000	-39.112	0.099
471.100	-27.930	0.099
471.200	-17.567	0.099
471.300	-37.352	0.099
471.400	-11.969	0.099
471.500	-64.442	0.099
471.600	-7.952	0.099
471.700	-25.739	0.099
471.800	-24.456	0.099
471.900	-44.455	0.099
472.000	-15.411	0.099
472.100	-35.141	0.099
472.200	-22.675	0.099
472.300	-30.070	0.099
472.400	-27.400	0.099
472.500	-36.789	0.099
472.600	-51.432	0.099
472.700	-10.141	0.099
472.800	-34.525	0.099
472.900	-28.974	0.099
473.000	-26.719	0.099
473.100	3.732	0.099
473.200	-32.156	0.099
473.300	-18.220	0.099
473.400	-38.676	0.099
473.500	-34.248	0.099
473.600	17.232	0.099
473.700	-30.658	0.099
473.800	-54.311	0.099
473.900	-15.798	0.099
474.000	-40.555	0.099
474.100	-11.531	0.099
474.200	-13.143	0.099
474.300	-49.579	0.099
474.400	-24.060	0.099
474.500	-32.071	0.099
474.600	-26.885	0.099
474.700	-12.759	0.099
474.800	-32.981	0.099
474.900	-34.414	0.099
475.000	-14.111	0.099
475.100	-18.224	0.099
475.200	-36.737	0.099
475.300	-21.349	0.099
475.400	-35.135	0.099
475.500	-39.351	0.099
475.600	-22.867	0.099
475.700	-25.021	0.099
475.800	-38.681	0.099
475.900	-29.205	0.099
476.000	-17.661	0.099
476.100	-26.520	0.099
476.200	-36.713	0.099
476.300	-43.251	0.099
476.400	-15.018	0.099
476.500	-21.052	0.099
476.600	-39.540	0.100
476.700	-18.947	0.099
476.800	-25.342	0.099
476.900	-29.654	0.100
477.000	-20.732	0.100
477.100	-27.025	0.100
477.200	-14.116	0.100
477.300	-44.195	0.100
477.400	-37.644	0.100
477.500	-4.747	0.100
477.600	-37.857	0.100
477.700	-10.863	0.100
477.800	-28.249	0.100
477.900	-34.027	0.100
478.000	-29.095	0.100
478.100	-18.675	0.100
478.200	-35.348	0.100
478.300	-11.705	0.100
478.400	-38.689	0.100
478.500	-19.682	0.100
478.600	-22.652	0.100
478.700	-27.475	0.100
478.800	-20.823	0.100
478.900	-29.267	0.100
479.000	-26.307	0.100
479.100	-14.358	0.100
479.200	-32.613	0.100
479.300	-33.507	0.100
479.400	-24.171	0.100
479.500	-0.004	0.100
479.600	-26.364	0.100
479.700	-18.528	0.100
479.800	-7.181	0.100
479.900	-11.990	0.100
480.000	-24.274	0.100
480.100	-37.920	0.100
480.200	-21.388	0.100
480.300	-20.353	0.100
480.400	-15.836	0.100
480.500	-21.688	0.100
480.600	-12.888	0.100
480.700	-9.211	0.100
480.800	-13.231	0.100
480.900	6.595	0.100
481.000	-9.211	0.100
481.100	16.905	0.100
481.200	43.515	0.100
481.300	11.395	0.100
481.400	9.096	0.100
481.500	8.601	0.100
481.600	25.176	0.100
481.700	61.261	0.100
481.800	45.839	0.100
481.900	40.666	0.100
482.000	22.501	0.100
482.100	54.177	0.100
482.200	28.322	0.100
482.300	26.160	0.100
482.400	56.454	0.100
482.500	31.089	0.100
482.600	32.620	0.100
482.700	32.960	0.100
482.800	24.974	0.100
482.900	47.932	0.100
483.000	45.257	0.100
483.100	44.617	0.100
483.200	14.082	0.100
483.300	48.480	0.100
483.400	13.944	0.100
483.500	34.193	0.100
483.600	39.656	0.100
483.700	27.312	0.100
483.800	31.634	0.100
483.900	28.857	0.100
484.000	29.181	0.100
484.100	43.078	0.100
484.200	20.598	0.100
484.300	31.742	0.100
484.400	24.535	0.100
484.500	38.098	0.100
484.600	13.896	0.100
484.700	26.560	0.100
484.800	47.871	0.100
484.900	25.463	0.100
485.000	33.218	0.100
485.100	17.679	0.100
485.200	7.817	0.100
485.300	30.647	0.100
485.400	13.238	0.100
485.500	3.401	0.100
485.600	27.311	0.100
485.700	27.798	0.100
485.800	11.110	0.100
485.900	28.759	0.100
486.000	13.313	0.100
486.100	40.205	0.100
486.200	59.150	0.100
486.300	19.181	0.100
486.400	2.265	0.100
486.500	32.612	0.100
486.600	38.846	0.100
486.700	32.435	0.100
486.800	29.280	0.100
486.900	25.166	0.100
487.000	-1.861	0.100
487.100	50.034	0.100
487.200	48.331	0.100
487.300	12.087	0.100
487.400	40.161	0.100
487.500	33.563	0.100
487.600	29.952	0.100
487.700	50.316	0.100
487.800	18.460	0.100
487.900	45.901	0.100
488.000	17.160	0.100
488.100	34.284	0.100
488.200	59.519	0.100
488.300	35.782	0.100
488.400	34.753	0.100
488.500	45.440	0.100
488.600	33.392	0.100
488.700	34.914	0.100
488.800	62.768	0.100
488.900	54.731	0.100
489.000	63.451	0.100
489.100	58.521	0.100
489.200	46.678	0.100
489.300	22.243	0.100
489.400	38.228	0.100
489.500	30.065	0.100
489.600	57.972	0.100
489.700	53.696	0.100
489.800	38.098	0.100
489.900	52.723	0.100
490.000	44.011	0.100
490.100	63.011	0.100
490.200	44.275	0.100
490.300	62.435	0.100
490.400	74.410	0.100
490.500	54.742	0.100
490.600	55.723	0.100
490.700	55.286	0.100
490.800	47.962	0.100
490.900	69.412	0.100
491.000	67.059	0.100
491.100	57.768	0.100
491.200	53.070	0.100
491.300	83.698	0.100
491.400	66.329	0.100
491.500	62.236	0.100
491.600	90.436	0.100
491.700	80.632	0.100
491.800	85.929	0.100
491.900	53.140	0.100
492.000	65.606	0.100
492.100	80.847	0.100
492.200	55.256	0.100
492.300	62.747	0.100
492.400	90.877	0.100
492.500	64.922	0.100
492.600	71.878	0.100
492.700	80.138	0.100
492.800	78.366	0.100
492.900	96.175	0.100
493.000	27.709	0.100
493.100	64.732	0.100
493.200	96.298	0.100
493.300	68.592	0.100
493.400	53.739	0.100
493.500	90.134	0.100
493.600	84.219	0.100
493.700	104.349	0.100
493.800	65.749	0.100
493.900	70.147	0.100
494.000	60.228	0.100
494.100	73.159	0.100
494.200	67.492	0.100
494.300	79.489	0.100
494.400	107.967	0.100
494.500	67.607	0.100
494.600	98.693	0.100
494.700	84.656	0.100
494.800	66.805	0.100
494.900	71.635	0.100
495.000	92.618	0.100
495.100	76.311	0.100
495.200	83.411	0.100
495.300	95.642	0.100
495.400	102.667	0.100
495.500	76.266	0.100
495.600	87.221	0.100
495.700	93.596	0.100
495.800	98.222	0.100
495.900	94.193	0.100
496.000	65.318	0.100
496.100	80.977	0.100
496.200	110.700	0.100
496.300	64.329	0.100
496.400	94.758	0.100
496.500	89.331	0.100
496.600	79.999	0.100
496.700	93.454	0.100
496.800	111.210	0.100
496.900	74.254	0.100
497.000	89.688	0.100
497.100	93.050	0.100
497.200	69.139	0.100
497.300	77.081	0.100
497.400	98.375	0.100
497.500	90.103	0.100
497.600	99.131	0.100
497.700	108.306	0.100
497.800	93.700	0.100
497.900	84.719	0.100
498.000	97.889	0.100
498.100	93.188	0.100
498.200	111.591	0.100
498.300	71.630	0.100
498.400	81.996	0.100
498.500	103.280	0.100
498.600	70.293	0.100
498.700	93.587	0.100
498.800	88.648	0.100
498.900	95.783	0.100
499.000	102.917	0.100
499.100	99.324	0.100
499.200	81.827	0.100
499.300	79.937	0.100
499.400	127.910	0.100
499.500	68.979	0.100
499.600	76.757	0.100
499.700	108.129	0.100
499.800	80.191	0.100
499.900	88.437	0.100
500.000	92.351	0.100
500.100	98.869	0.100
500.200	88.794	0.100
500.300	93.380	0.100
500.400	89.019	0.100
500.500	66.818	0.100
500.600	86.623	0.100
500.700	82.895	0.100
500.800	107.665	0.100
500.900	85.500	0.100
501.000	98.940	0.100
501.100	100.324	0.100
501.200	88.123	0.100
501.300	75.167	0.100
501.400	87.971	0.100
501.500	85.720	0.100
501.600	102.177	0.100
501.700	86.872	0.100
501.800	81.041	0.100
501.900	82.478	0.100
502.000	104.026	0.100
502.100	82.895	0.100
502.200	103.908	0.100
502.300	104.591	0.100
502.400	106.713	0.100
502.500	97.002	0.100
502.600	94.202	0.100
502.700	98.903	0.100
502.800	80.815	0.100
502.900	98.481	0.100
503.000	69.452	0.100
503.100	79.474	0.100
503.200	97.562	0.100
503.300	60.381	0.100
503.400	71.655	0.100
503.500	95.377	0.100
503.600	94.782	0.100
503.700	91.527	0.100
503.800	82.068	0.100
503.900	66.088	0.100
504.000	92.690	0.100
504.100	100.128	0.100
504.200	86.690	0.100
504.300	66.807	0.100
504.400	88.617	0.100
504.500	76.563	0.100
504.600	93.574	0.100
504.700	85.449	0.100
504.800	83.416	0.100
504.900	91.403	0.100
505.000	93.694	0.100
505.100	90.668	0.100
505.200	71.363	0.100
505.300	90.583	0.100
505.400	83.470	0.100
505.500	99.830	0.100
505.600	76.154	0.100
505.700	81.119	0.100
505.800	87.417	0.100
505.900	61.654	0.100
506.000	56.367	0.100
506.100	94.168	0.100
506.200	87.759	0.100
506.300	66.767	0.100
506.400	89.722	0.100
506.500	58.060	0.100
506.600	110.859	0.100
506.700	86.485	0.100
506.800	74.982	0.100
506.900	91.368	0.100
507.000	96.594	0.100
507.100	96.773	0.100
507.200	66.204	0.100
507.300	106.335	0.100
507.400	61.843	0.100
507.500	89.957	0.100
507.600	98.136	0.100
507.700	79.581	0.100
507.800	91.281	0.100
507.900	99.784	0.100
508.000	79.420	0.100
508.100	72.502	0.100
508.200	80.786	0.100
508.300	75.641	0.100
508.400	69.804	0.100
508.500	85.397	0.100
508.600	87.074	0.100
508.700	83.054	0.100
508.800	64.793	0.100
508.900	81.505	0.100
509.000	89.794	0.100
509.100	68.008	0.100
509.200	96.039	0.100
509.300	90.801	0.100
509.400	60.273	0.100
509.500	94.229	0.100
509.600	78.877	0.100
509.700	78.594	0.100
509.800	67.304	0.100
509.900	107.960	0.100
510.000	88.281	0.100
510.100	50.859	0.100
510.200	85.794	0.100
510.300	64.386	0.100
510.400	102.710	0.100
510.500	86.958	0.100
510.600	87.242	0.100
510.700	75.027	0.100
510.800	75.709	0.100
510.900	70.189	0.100
511.000	78.383	0.100
511.100	114.570	0.100
511.200	82.764	0.100
511.300	47.098	0.100
511.400	76.091	0.100
511.500	72.559	0.100
511.600	83.056	0.100
511.700	102.421	0.100
511.800	81.627	0.100
511.900	89.373	0.100
512.000	91.007	0.100
512.100	79.177	0.100
512.200	81.163	0.100
512.300	89.565	0.100
512.400	93.232	0.100
512.500	90.428	0.100
512.600	99.358	0.100
512.700	80.070	0.100
512.800	96.146	0.100
512.900	84.887	0.100
513.000	49.770	0.100
513.100	68.756	0.100
513.200	73.940	0.100
513.300	86.893	0.100
513.400	93.338	0.100
513.500	83.966	0.100
513.600	57.533	0.100
513.700	76.873	0.100
513.800	100.123	0.100
513.900	88.608	0.100
514.000	100.008	0.100
514.100	98.505	0.100
514.200	76.550	0.100
514.300	74.620	0.100
514.400	78.059	0.100
514.500	72.285	0.100
514.600	91.718	0.100
514.700	70.330	0.100
514.800	77.500	0.100
514.900	93.244	0.100
515.000	67.717	0.100
515.100	79.328	0.100
515.200	101.109	0.100
515.300	83.491	0.100
515.400	84.302	0.100
515.500	82.064	0.100
515.600	68.755	0.100
515.700	88.627	0.100
515.800	64.738	0.100
515.900	67.440	0.100
516.000	103.835	0.100
516.100	99.288	0.100
516.200	56.845	0.100
516.300	83.900	0.100
516.400	102.577	0.100
516.500	49.192	0.100
516.600	86.849	0.100
516.700	75.210	0.100
516.800	98.919	0.100
516.900	70.482	0.100
517.000	91.789	0.100
517.100	48.510	0.100
517.200	92.415	0.100
517.300	75.072	0.100
517.400	87.955	0.100
517.500	71.737	0.100
517.600	92.324	0.100
517.700	80.972	0.100
517.800	63.274	0.100
517.900	82.068	0.100
518.000	63.442	0.100
518.100	112.079	0.100
518.200	79.621	0.100
518.300	92.888	0.100
518.400	62.749	0.099
518.500	74.847	0.100
518.600	70.574	0.100
518.700	72.353	0.099
518.800	89.440	0.100
518.900	72.596	0.100
519.000	71.855	0.100
519.100	68.882	0.100
519.200	70.067	0.100
519.300	105.069	0.100
519.400	85.463	0.100
519.500	73.198	0.100
519.600	86.710	0.100
519.700	84.056	0.100
519.800	87.534	0.100
519.900	91.554	0.100
520.000	56.734	0.100
520.100	63.564	0.100
520.200	111.067	0.100
520.300	74.885	0.100
520.400	86.816	0.100
520.500	95.728	0.100
520.600	79.126	0.100
520.700	93.270	0.100
520.800	75.029	0.100
520.900	87.657	0.100
521.000	89.986	0.100
521.100	83.053	0.100
521.200	62.503	0.100
521.300	80.039	0.100
521.400	93.543	0.100
521.500	36.182	0.100
521.600	102.858	0.100
521.700	96.352	0.100
521.800	79.132	0.100
521.900	67.822	0.100
522.000	53.367	0.100
522.100	96.228	0.100
522.200	79.837	0.100
522.300	86.918	0.100
522.400	84.188	0.100
522.500	76.143	0.100
522.600	79.560	0.100
522.700	90.883	0.100
522.800	76.165	0.100
522.900	78.897	0.100
523.000	63.239	0.100
523.100	105.852	0.100
523.200	57.162	0.100
523.300	73.676	0.100
523.400	105.173	0.100
523.500	82.150	0.100
523.600	75.632	0.100
523.700	95.100	0.100
523.800	90.176	0.100
523.900	107.070	0.099
524.000	73.374	0.100
524.100	64.657	0.100
524.200	74.034	0.100
524.300	81.837	0.100
524.400	75.763	0.100
524.500	93.471	0.100
524.600	100.789	0.100
524.700	64.557	0.100
524.800	85.320	0.100
524.900	56.148	0.100
525.000	77.146	0.100
525.100	74.347	0.100
525.200	80.657	0.100
525.300	68.457	0.100
525.400	91.942	0.100
525.500	83.858	0.100
525.600	64.781	0.100
525.700	78.037	0.100
525.800	100.782	0.100
525.900	63.223	0.100
526.000	87.779	0.100
526.100	82.266	0.099
526.200	76.195	0.100
526.300	80.814	0.100
526.400	88.781	0.100
526.500	89.534	0.100
526.600	81.388	0.100
526.700	96.427	0.100
526.800	93.549	0.100
526.900	85.182	0.100
527.000	68.691	0.099
527.100	94.116	0.100
527.200	103.701	0.100
527.300	78.854	0.100
527.400	78.820	0.100
527.500	57.776	0.100
527.600	80.500	0.100
527.700	88.457	0.100
527.800	99.995	0.100
527.900	81.214	0.100
528.000	96.303	0.100
528.100	89.112	0.100
528.200	65.040	0.100
528.300	76.944	0.100
528.400	68.663	0.100
528.500	91.508	0.100
528.600	81.670	0.099
528.700	79.694	0.100
528.800	84.474	0.100
528.900	75.280	0.100
529.000	62.462	0.100
529.100	67.543	0.100
529.200	88.923	0.100
529.300	86.491	0.100
529.400	85.179	0.100
529.500	66.760	0.100
529.600	91.634	0.100
529.700	100.775	0.100
529.800	93.103	0.100
529.900	81.686	0.100
530.000	61.805	0.100
530.100	83.352	0.100
530.200	94.517	0.100
530.300	73.192	0.100
530.400	66.804	0.099
530.500	109.516	0.100
530.600	83.247	0.100
530.700	81.750	0.100
530.800	54.599	0.100
530.900	81.248	0.100
531.000	89.991	0.100
531.100	47.308	0.100
531.200	74.601	0.100
531.300	75.369	0.100
531.400	41.637	0.100
531.500	89.388	0.100
531.600	90.171	0.100
531.700	89.054	0.100
531.800	92.045	0.100
531.900	65.720	0.100
532.000	99.309	0.100
532.100	72.671	0.100
532.200	68.007	0.100
532.300	67.310	0.100
532.400	80.365	0.100
532.500	90.577	0.100
532.600	85.619	0.100
532.700	109.289	0.100
532.800	88.304	0.100
532.900	58.916	0.100
533.000	78.664	0.100
533.100	56.595	0.100
533.200	79.562	0.100
533.300	80.767	0.100
533.400	84.111	0.100
533.500	44.346	0.100
533.600	98.479	0.100
533.700	93.133	0.100
533.800	62.090	0.100
533.900	76.576	0.100
534.000	83.307	0.100
534.100	65.432	0.100
534.200	99.306	0.100
534.300	91.020	0.100
534.400	64.180	0.100
534.500	82.536	0.100
534.600	86.951	0.100
534.700	84.022	0.100
534.800	69.679	0.100
534.900	77.508	0.100
535.000	75.059	0.100
535.100	74.837	0.100
535.200	107.332	0.100
535.300	69.971	0.100
535.400	92.893	0.100
535.500	65.960	0.100
535.600	83.538	0.100
535.700	75.523	0.100
535.800	81.182	0.100
535.900	74.680	0.100
536.000	94.816	0.100
536.100	95.486	0.100
536.200	81.689	0.100
536.300	83.819	0.100
536.400	66.302	0.099
536.500	49.427	0.100
536.600	123.067	0.100
536.700	55.173	0.100
536.800	70.404	0.100
536.900	74.643	0.100
537.000	77.995	0.100
537.100	81.319	0.100
537.200	88.222	0.100
537.300	57.951	0.100
537.400	78.840	0.100
537.500	59.953	0.100
537.600	95.035	0.099
537.700	95.462	0.099
537.800	95.703	0.100
537.900	77.042	0.100
538.000	80.939	0.100
538.100	76.786	0.100
538.200	104.034	0.100
538.300	89.957	0.100
538.400	56.352	0.100
538.500	77.933	0.100
538.600	64.599	0.100
538.700	82.015	0.100
538.800	67.027	0.099
538.900	88.754	0.100
539.000	52.943	0.100
539.100	110.260	0.100
539.200	84.698	0.099
539.300	80.285	0.100
539.400	78.978	0.100
539.500	76.578	0.100
539.600	96.906	0.100
539.700	77.110	0.100
539.800	68.330	0.100
539.900	59.144	0.100
540.000	74.417	0.100
540.100	88.040	0.100
540.200	80.148	0.099
540.300	73.470	0.100
540.400	78.822	0.099
540.500	63.575	0.100
540.600	63.093	0.100
540.700	65.473	0.100
540.800	39.162	0.100
540.900	53.248	0.100
541.000	56.644	0.100
541.100	-9.248	0.100
541.200	38.059	0.100
541.300	34.543	0.100
541.400	6.507	0.099
541.500	20.831	0.100
541.600	53.520	0.100
541.700	1.166	0.100
541.800	14.020	0.100
541.900	11.559	0.100
542.000	8.679	0.100
542.100	0.186	0.100
542.200	10.323	0.100
542.300	-1.784	0.100
542.400	-9.493	0.100
542.500	5.115	0.100
542.600	-7.856	0.100
542.700	-0.532	0.100
542.800	10.474	0.100
542.900	-32.704	0.100
543.000	-3.067	0.100
543.100	-36.205	0.099
543.200	-21.906	0.100
543.300	-11.107	0.100
543.400	-23.287	0.100
543.500	-27.608	0.100
543.600	-30.745	0.099
543.700	-11.748	0.100
543.800	-11.893	0.100
543.900	-24.728	0.100
544.000	-24.297	0.100
544.100	-21.459	0.100
544.200	-1.645	0.100
544.300	-7.116	0.100
544.400	-27.358	0.100
544.500	-24.129	0.100
544.600	-22.460	0.100
544.700	-29.421	0.100
544.800	-30.514	0.100
544.900	-49.961	0.100
545.000	-19.274	0.100
545.100	3.606	0.100
545.200	-54.148	0.100
545.300	-6.118	0.100
545.400	-26.668	0.100
545.500	-29.940	0.100
545.600	-1.326	0.100
545.700	-23.024	0.100
545.800	-17.452	0.100
545.900	-27.675	0.100
546.000	-24.900	0.100
546.100	-10.177	0.100
546.200	-39.856	0.099
546.300	-7.216	0.100
546.400	-14.105	0.100
546.500	-27.150	0.100
546.600	-34.621	0.100
546.700	-13.344	0.100
546.800	-10.885	0.099
546.900	-36.891	0.100
547.000	-24.016	0.100
547.100	-39.677	0.099
547.200	-5.957	0.100
547.300	-2.162	0.100
547.400	-6.090	0.100
547.500	-17.115	0.100
547.600	-30.198	0.100
547.700	-0.327	0.100
547.800	-11.143	0.100
547.900	-28.331	0.100
548.000	-4.132	0.100
548.100	-18.925	0.100
548.200	-35.197	0.100
548.300	-44.392	0.100
548.400	-1.710	0.100
548.500	-17.757	0.100
548.600	-1.399	0.100
548.700	-31.204	0.100
548.800	-25.582	0.100
548.900	-11.662	0.100
549.000	-46.998	0.100
549.100	-7.154	0.100
549.200	-3.073	0.100
549.300	-41.151	0.100
549.400	-15.596	0.100
549.500	-27.112	0.100
549.600	-9.831	0.100
549.700	-28.555	0.099
549.800	-2.423	0.100
549.900	-22.928	0.100
550.000	-17.899	0.100
550.100	-21.049	0.100
550.200	-23.729	0.100
550.300	-13.314	0.100
550.400	-15.522	0.100
550.500	-32.431	0.100
550.600	-26.144	0.100
550.700	-15.143	0.100
550.800	-34.430	0.100
550.900	-19.862	0.100
551.000	-19.304	0.100
551.100	-14.498	0.100
551.200	-8.101	0.100
551.300	1.134	0.100
551.400	-19.641	0.100
551.500	-5.646	0.100
551.600	-23.246	0.099
551.700	-39.231	0.100
551.800	-3.769	0.100
551.900	-29.565	0.100
552.000	-34.557	0.100
552.100	-22.003	0.100
552.200	-45.218	0.100
552.300	-30.840	0.100
552.400	-24.489	0.100
552.500	-34.073	0.100
552.600	-40.866	0.100
552.700	-6.815	0.100
552.800	-5.692	0.100
552.900	-28.524	0.100
553.000	-23.647	0.100
553.100	-14.817	0.100
553.200	-18.214	0.100
553.300	-19.952	0.100
553.400	-37.938	0.100
553.500	-16.814	0.100
553.600	-49.959	0.100
553.700	-22.237	0.100
553.800	-21.843	0.100
553.900	-25.241	0.100
554.000	-5.573	0.100
554.100	-26.191	0.100
554.200	-13.027	0.100
554.300	-70.587	0.100
554.400	-12.314	0.100
554.500	-24.366	0.099
554.600	-38.513	0.100
554.700	-8.352	0.100
554.800	-31.953	0.100
554.900	-32.680	0.100
555.000	-17.811	0.100
555.100	-40.051	0.100
555.200	-18.112	0.100
555.300	-18.176	0.100
555.400	-16.617	0.100
555.500	-12.669	0.100
555.600	-9.730	0.100
555.700	-26.287	0.100
555.800	-36.000	0.100
555.900	-47.742	0.100
556.000	-33.401	0.100
556.100	-26.472	0.100
556.200	-5.189	0.100
556.300	-52.795	0.100
556.400	-31.069	0.100
556.500	-9.904	0.100
556.600	-43.778	0.100
556.700	-20.107	0.100
556.800	-43.786	0.100
556.900	-17.798	0.100
557.000	-28.062	0.100
557.100	-10.602	0.100
557.200	-17.509	0.100
557.300	-31.366	0.100
557.400	-22.739	0.100
557.500	-47.538	0.100
557.600	-22.505	0.100
557.700	-46.093	0.099
557.800	-31.231	0.100
557.900	-30.694	0.100
558.000	-29.374	0.100
558.100	-45.693	0.100
558.200	-8.208	0.100
558.300	-10.074	0.100
558.400	-30.994	0.100
558.500	-17.921	0.100
558.600	-6.247	0.100
558.700	-7.434	0.100
558.800	-51.623	0.100
558.900	-62.618	0.100
559.000	-41.699	0.100
559.100	-11.876	0.100
559.200	-33.904	0.100
559.300	-43.833	0.100
559.400	-4.281	0.100
559.500	-20.645	0.100
559.600	-12.561	0.100
559.700	-48.611	0.100
559.800	-23.085	0.100
559.900	-66.904	0.100
560.000	-28.710	0.100
560.100	-30.240	0.100
560.200	-37.177	0.100
560.300	-35.494	0.100
560.400	-27.668	0.100
560.500	-30.263	0.100
560.600	-18.174	0.100
560.700	-21.417	0.100
560.800	-36.520	0.100
560.900	-8.930	0.100
561.000	-51.997	0.100
561.100	-57.020	0.100
561.200	-33.789	0.100
561.300	-21.397	0.100
561.400	-5.057	0.100
561.500	-31.987	0.100
561.600	-30.902	0.100
561.700	-24.831	0.100
561.800	-36.051	0.100
561.900	-26.224	0.100
562.000	-46.367	0.100
562.100	-62.941	0.100
562.200	-20.410	0.100
562.300	-37.379	0.100
562.400	-11.958	0.100
562.500	-26.033	0.100
562.600	-32.146	0.099
562.700	-31.790	0.100
562.800	-46.770	0.100
562.900	-37.996	0.099
563.000	-16.020	0.100
563.100	-39.770	0.100
563.200	-31.922	0.100
563.300	-52.513	0.100
563.400	-2.294	0.100
563.500	-32.777	0.100
563.600	-36.173	0.100
563.700	-36.662	0.100
563.800	-27.314	0.100
563.900	-17.844	0.100
564.000	-53.552	0.100
564.100	-25.775	0.100
564.200	-25.029	0.100
564.300	-48.572	0.100
564.400	-10.067	0.100
564.500	-21.355	0.100
564.600	-36.760	0.100
564.700	-40.701	0.100
564.800	-39.782	0.100
564.900	-36.976	0.100
565.000	-46.087	0.100
565.100	-36.111	0.100
565.200	-43.582	0.100
565.300	-17.711	0.100
565.400	-55.784	0.100
565.500	-57.996	0.099
565.600	-18.154	0.100
565.700	-34.540	0.100
565.800	-34.123	0.100
565.900	-29.362	0.099
566.000	-42.240	0.100
566.100	-47.536	0.100
566.200	-45.979	0.099
566.300	-49.452	0.100
566.400	-32.012	0.100
566.500	-19.505	0.100
566.600	-40.436	0.100
566.700	-35.064	0.100
566.800	-24.649	0.100
566.900	-33.009	0.100
567.000	-43.652	0.100
567.100	-22.155	0.099
567.200	-21.961	0.100
567.300	-43.219	0.100
567.400	-26.963	0.100
567.500	-46.585	0.100
567.600	-38.435	0.100
567.700	-32.412	0.099
567.800	-62.348	0.100
567.900	-37.043	0.100
568.000	-58.577	0.100
568.100	-22.784	0.100
568.200	-23.164	0.100
568.300	-19.274	0.100
568.400	-58.803	0.100
568.500	-54.113	0.100
568.600	-46.506	0.100
568.700	-9.914	0.100
568.800	-44.466	0.099
568.900	-27.557	0.100
569.000	-58.891	0.099
569.100	-10.114	0.099
569.200	-45.709	0.100
569.300	-49.607	0.100
569.400	-17.886	0.100
569.500	-70.059	0.100
569.600	-40.062	0.100
569.700	7.128	0.099
569.800	-52.284	0.100
569.900	-36.939	0.100
570.000	-37.398	0.100
570.100	-47.711	0.100
570.200	-37.564	0.100
570.300	-36.424	0.100
570.400	-42.845	0.100
570.500	-19.293	0.100
570.600	-35.457	0.100
570.700	-28.972	0.100
570.800	-61.419	0.100
570.900	-54.746	0.100
571.000	-46.989	0.100
571.100	-46.261	0.100
571.200	-23.880	0.100
571.300	-51.151	0.100
571.400	-31.803	0.100
571.500	-27.980	0.100
571.600	-50.769	0.100
571.700	-50.218	0.100
571.800	-22.475	0.100
571.900	-51.087	0.100
572.000	-30.258	0.099
572.100	-15.270	0.100
572.200	-73.911	0.100
572.300	-22.168	0.100
572.400	-49.910	0.100
572.500	-39.419	0.100
572.600	-15.296	0.100
572.700	-33.738	0.100
572.800	-53.163	0.099
572.900	-33.180	0.100
573.000	-25.317	0.100
573.100	-26.611	0.100
573.200	-39.966	0.100
573.300	-42.734	0.100
573.400	-59.369	0.100
573.500	-24.129	0.100
573.600	-31.032	0.100
573.700	-56.286	0.100
573.800	-17.242	0.100
573.900	-68.321	0.100
574.000	-29.773	0.100
574.100	-37.219	0.100
574.200	-47.457	0.100
574.300	-38.265	0.099
574.400	-38.551	0.100
574.500	-26.527	0.100
574.600	-38.703	0.100
574.700	-61.063	0.099
574.800	-53.976	0.100
574.900	-56.841	0.100
575.000	-26.078	0.100
575.100	-37.050	0.100
575.200	-33.615	0.099
575.300	-30.973	0.100
575.400	-38.898	0.100
575.500	-29.051	0.099
575.600	-19.637	0.100
575.700	-47.296	0.100
575.800	-15.808	0.100
575.900	-30.525	0.100
576.000	-41.007	0.100
576.100	-54.824	0.100
576.200	-33.890	0.100
576.300	-53.605	0.100
576.400	-30.041	0.100
576.500	-61.299	0.100
576.600	-53.926	0.100
576.700	-37.759	0.100
576.800	-39.155	0.100
576.900	-54.846	0.100
577.000	-25.314	0.100
577.100	-57.373	0.100
577.200	-34.490	0.100
577.300	-53.443	0.099
577.400	-37.135	0.100
577.500	-36.213	0.099
577.600	-18.793	0.100
577.700	-79.604	0.100
577.800	-7.090	0.100
577.900	-36.713	0.100
578.000	-42.963	0.100
578.100	-69.011	0.099
578.200	-21.394	0.099
578.300	-44.393	0.100
578.400	-38.784	0.100
578.500	-29.411	0.100
578.600	-70.701	0.100
578.700	-40.751	0.100
578.800	-15.777	0.100
578.900	-67.715	0.099
579.000	-54.922	0.100
579.100	-15.630	0.100
579.200	-20.594	0.100
579.300	-58.668	0.100
579.400	-26.064	0.100
579.500	-63.582	0.099
579.600	-23.212	0.100
579.700	-30.098	0.100
579.800	-70.313	0.100
579.900	-45.780	0.100
580.000	-51.609	0.100
580.100	-25.521	0.100
580.200	-48.181	0.100
580.300	-64.439	0.100
580.400	-38.600	0.100
580.500	-27.569	0.100
580.600	-64.922	0.100
580.700	-26.491	0.100
580.800	-34.060	0.100
580.900	-58.894	0.100
581.000	-33.715	0.100
581.100	-29.524	0.099
581.200	-45.031	0.100
581.300	-11.415	0.100
581.400	-33.441	0.100
581.500	-46.606	0.099
581.600	-57.914	0.100
581.700	-38.037	0.100
581.800	-15.917	0.100
581.900	-36.173	0.100
582.000	-22.798	0.100
582.100	-61.543	0.099
582.200	-39.326	0.100
582.300	-32.109	0.100
582.400	-59.462	0.100
582.500	-24.066	0.100
582.600	-10.339	0.100
582.700	-54.514	0.100
582.800	-40.462	0.100
582.900	-40.136	0.100
583.000	-51.646	0.100
583.100	-49.675	0.099
583.200	-44.107	0.100
583.300	-62.891	0.100
583.400	-24.340	0.099
583.500	-17.215	0.100
583.600	-42.990	0.100
583.700	-39.278	0.100
583.800	-38.925	0.100
583.900	-41.572	0.100
584.000	-34.786	0.100
584.100	-54.875	0.100
584.200	-45.412	0.100
584.300	-29.736	0.100
584.400	-44.487	0.100
584.500	-52.275	0.100
584.600	-22.637	0.100
584.700	-46.574	0.100
584.800	-35.175	0.100
584.900	-34.173	0.100
585.000	-29.513	0.100
585.100	-30.255	0.100
585.200	-38.660	0.100
585.300	-46.981	0.100
585.400	-44.989	0.100
585.500	-29.073	0.100
585.600	-41.899	0.100
585.700	-34.042	0.100
585.800	-65.411	0.100
585.900	-38.089	0.100
586.000	-24.684	0.100
586.100	-35.232	0.100
586.200	-48.400	0.100
586.300	-42.691	0.100
586.400	-1.665	0.100
586.500	-50.585	0.100
586.600	-40.342	0.100
586.700	-31.308	0.100
586.800	-24.401	0.100
586.900	-46.881	0.100
587.000	-34.765	0.100
587.100	-36.836	0.100
587.200	-54.321	0.100
587.300	-56.987	0.100
587.400	-51.173	0.100
587.500	-24.861	0.100
587.600	-34.049	0.100
587.700	-63.711	0.100
587.800	-35.953	0.100
587.900	-38.316	0.100
588.000	-36.673	0.100
588.100	-38.788	0.100
588.200	-46.303	0.100
588.300	-48.817	0.100
588.400	-34.413	0.100
588.500	-31.119	0.100
588.600	-47.006	0.100
588.700	-24.984	0.100
588.800	-47.621	0.100
588.900	-43.390	0.100
589.000	-29.999	0.100
589.100	-47.994	0.100
589.200	-75.002	0.100
589.300	-21.094	0.100
589.400	-34.875	0.100
589.500	-48.622	0.100
589.600	-33.607	0.100
589.700	-37.891	0.100
589.800	-43.081	0.100
589.900	-26.272	0.100
590.000	-25.296	0.100
590.100	-15.903	0.100
590.200	-27.960	0.100
590.300	-40.725	0.100
590.400	-47.375	0.100
590.500	-38.022	0.100
590.600	-57.558	0.100
590.700	-23.751	0.100
590.800	-33.562	0.100
590.900	-44.758	0.100
591.000	-59.552	0.100
591.100	-31.537	0.100
591.200	-41.986	0.100
591.300	-47.374	0.100
591.400	-38.230	0.100
591.500	-50.481	0.099
591.600	-32.748	0.100
591.700	-48.618	0.099
591.800	-41.710	0.100
591.900	-50.960	0.100
592.000	-14.247	0.100
592.100	-50.752	0.100
592.200	-33.522	0.100
592.300	-36.432	0.100
592.400	-46.510	0.100
592.500	-26.453	0.100
592.600	-28.871	0.100
592.700	-46.293	0.100
592.800	-44.991	0.099
592.900	-10.571	0.100
593.000	-49.762	0.100
593.100	-33.749	0.099
593.200	-56.298	0.100
593.300	-45.397	0.100
593.400	-45.795	0.099
593.500	-32.257	0.100
593.600	-8.522	0.100
593.700	-50.699	0.100
593.800	-42.204	0.099
593.900	-54.082	0.100
594.000	-16.988	0.099
594.100	-45.169	0.100
594.200	-28.205	0.100
594.300	-39.753	0.100
594.400	-32.555	0.100
594.500	-26.283	0.100
594.600	-20.009	0.100
594.700	-55.244	0.099
594.800	-71.090	0.100
594.900	-16.015	0.100
595.000	-44.380	0.099
595.100	-20.059	0.100
595.200	-46.106	0.100
595.300	-45.339	0.100
595.400	-27.406	0.100
595.500	-49.572	0.100
595.600	-24.402	0.100
595.700	-7.159	0.099
595.800	-37.195	0.100
595.900	-36.899	0.100
596.000	-61.079	0.100
596.100	-41.616	0.099
596.200	-51.077	0.100
596.300	-33.416	0.100
596.400	-18.433	0.100
596.500	-48.373	0.100
596.600	-27.119	0.100
596.700	-30.863	0.099
596.800	-43.162	0.100
596.900	-61.045	0.100
597.000	-23.873	0.100
597.100	-23.355	0.100
597.200	-44.433	0.100
597.300	-69.264	0.099
597.400	-32.739	0.100
597.500	-20.608	0.100
597.600	-34.715	0.100
597.700	-34.170	0.100
597.800	-17.860	0.100
597.900	-35.095	0.100
598.000	-41.541	0.100
598.100	-18.405	0.100
598.200	-7.799	0.100
598.300	-38.585	0.100
598.400	-37.956	0.099
598.500	-41.506	0.100
598.600	-20.461	0.100
598.700	-26.137	0.099
598.800	-45.393	0.100
598.900	-44.852	0.100
599.000	-23.328	0.100
599.100	-54.131	0.100
599.200	-24.835	0.100
599.300	-51.014	0.100
599.400	-52.729	0.100
599.500	-22.318	0.100
599.600	-46.160	0.100
599.700	-39.111	0.100
599.800	-23.965	0.100
599.900	-39.948	0.100
600.000	-74.972	0.100
600.100	-42.985	0.100
600.200	-10.765	0.100
600.300	-47.822	0.100
600.400	-21.208	0.100
600.500	-51.367	0.100
600.600	-49.450	0.100
600.700	-30.545	0.100
600.800	-47.400	0.100
600.900	-39.970	0.100
601.000	-28.248	0.100
601.100	-39.874	0.100
601.200	-31.701	0.100
601.300	-40.048	0.100
601.400	-33.236	0.100
601.500	-27.736	0.100
601.600	-8.817	0.100
601.700	-84.274	0.100
601.800	-10.700	0.100
601.900	-33.876	0.100
602.000	-54.470	0.100
602.100	-30.359	0.100
602.200	-17.633	0.100
602.300	-34.527	0.100
602.400	-57.685	0.100
602.500	-24.696	0.100
602.600	-28.318	0.100
602.700	-61.429	0.100
602.800	-7.810	0.100
602.900	-21.859	0.100
603.000	-43.752	0.100
603.100	-54.069	0.100
603.200	-46.613	0.100
603.300	-28.346	0.100
603.400	-35.545	0.100
603.500	-17.940	0.100
603.600	-30.848	0.100
603.700	-19.170	0.100
603.800	-22.271	0.100
603.900	-26.571	0.100
604.000	-48.625	0.100
604.100	-31.090	0.100
604.200	-30.587	0.100
604.300	-44.299	0.100
604.400	-5.469	0.100
604.500	-36.328	0.100
604.600	-58.620	0.100
604.700	-56.372	0.100
604.800	-29.913	0.100
604.900	-36.398	0.100
605.000	-34.641	0.100
605.100	-29.371	0.100
605.200	-7.640	0.100
605.300	-37.326	0.100
605.400	-24.888	0.100
605.500	-24.771	0.100
605.600	-54.508	0.100
605.700	-26.720	0.100
605.800	-29.428	0.100
605.900	-28.831	0.100
606.000	-37.931	0.100
606.100	-40.147	0.100
606.200	-40.891	0.100
606.300	-9.401	0.100
606.400	-34.763	0.100
606.500	-22.784	0.100
606.600	-22.270	0.100
606.700	-30.655	0.100
606.800	-40.765	0.100
606.900	-33.119	0.100
607.000	-22.550	0.100
607.100	-42.616	0.100
607.200	-27.345	0.100
607.300	-44.006	0.100
607.400	-28.617	0.100
607.500	-36.910	0.100
607.600	-48.499	0.100
607.700	-42.382	0.100
607.800	-34.690	0.100
607.900	-32.246	0.100
608.000	-23.685	0.100
608.100	-56.734	0.100
608.200	-14.156	0.100
608.300	-21.608	0.100
608.400	-33.760	0.100
608.500	-25.670	0.100
608.600	-32.506	0.100
608.700	-35.104	0.100
608.800	-41.187	0.100
608.900	-29.203	0.100
609.000	-38.600	0.100
609.100	-45.949	0.100
609.200	-24.919	0.100
609.300	-38.337	0.100
609.400	-47.615	0.100
609.500	-21.478	0.100
609.600	-41.034	0.100
609.700	-38.135	0.100
609.800	-6.097	0.100
609.900	-49.178	0.100
610.000	-34.628	0.100
610.100	-21.720	0.100
610.200	-28.775	0.100
610.300	-32.831	0.100
610.400	-42.979	0.100
610.500	-29.610	0.100
610.600	-23.510	0.100
610.700	-48.759	0.100
610.800	-38.194	0.100
610.900	-28.957	0.100
611.000	-24.359	0.100
611.100	-42.469	0.100
611.200	-32.002	0.100
611.300	-24.743	0.100
611.400	-41.570	0.100
611.500	-13.347	0.100
611.600	-41.400	0.099
611.700	-35.659	0.100
611.800	-11.067	0.100
611.900	-28.316	0.100
612.000	-39.187	0.100
612.100	-40.799	0.100
612.200	2.204	0.100
612.300	-33.923	0.100
612.400	-59.717	0.100
612.500	-8.114	0.100
612.600	-46.895	0.100
612.700	-35.131	0.100
612.800	-5.398	0.100
612.900	-3.361	0.100
613.000	-41.643	0.100
613.100	-24.941	0.100
613.200	-41.086	0.100
613.300	-12.887	0.099
613.400	-38.913	0.100
613.500	-57.743	0.100
613.600	-13.237	0.100
613.700	-12.302	0.100
613.800	-36.413	0.100
613.900	-54.514	0.100
614.000	-55.233	0.100
614.100	-36.862	0.100
614.200	1.862	0.100
614.300	-22.731	0.100
614.400	-14.895	0.100
614.500	-35.487	0.100
614.600	-31.101	0.100
614.700	-56.568	0.100
614.800	-11.729	0.100
614.900	-19.666	0.100
615.000	-39.594	0.099
615.100	-46.589	0.100
615.200	-40.303	0.100
615.300	-19.086	0.100
615.400	-13.749	0.100
615.500	-50.044	0.100
615.600	-43.423	0.100
615.700	-34.750	0.100
615.800	-44.294	0.100
615.900	-49.371	0.100
616.000	-19.401	0.100
616.100	-44.777	0.100
616.200	-20.322	0.100
616.300	-19.721	0.100
616.400	-49.146	0.100
616.500	-22.872	0.100
616.600	-33.892	0.100
616.700	-22.285	0.100
616.800	-38.225	0.100
616.900	-43.117	0.100
617.000	-8.099	0.100
617.100	-60.013	0.100
617.200	-18.872	0.100
617.300	-41.434	0.100
617.400	-27.434	0.100
617.500	-19.617	0.100
617.600	-48.160	0.100
617.700	-13.248	0.100
617.800	-27.653	0.100
617.900	-46.492	0.100
618.000	-14.242	0.100
618.100	-9.294	0.100
618.200	-22.886	0.100
618.300	-38.705	0.100
618.400	-24.632	0.100
618.500	-16.378	0.100
618.600	-26.914	0.100
618.700	-44.066	0.100
618.800	-63.392	0.099
618.900	-33.637	0.100
619.000	-32.015	0.100
619.100	-21.582	0.100
619.200	-21.904	0.100
619.300	-29.663	0.100
619.400	-33.625	0.100
619.500	-8.513	0.100
619.600	-29.659	0.099
619.700	-44.741	0.100
619.800	-36.971	0.100
619.900	-39.667	0.100
620.000	-15.447	0.100
620.100	-16.905	0.100
620.200	-61.738	0.100
620.300	-20.527	0.100
620.400	-32.540	0.100
620.500	-36.178	0.100
620.600	-33.559	0.100
620.700	-37.797	0.100
620.800	-35.712	0.100
620.900	-40.366	0.099
621.000	-14.156	0.100
621.100	-30.589	0.100
621.200	-22.179	0.100
621.300	-19.574	0.100
621.400	-20.634	0.100
621.500	-26.377	0.100
621.600	-37.242	0.099
621.700	-47.549	0.100
621.800	-2.118	0.100
621.900	-34.880	0.100
622.000	-25.119	0.100
622.100	-29.228	0.100
622.200	-27.819	0.100
622.300	-16.765	0.100
622.400	-8.582	0.100
622.500	-30.499	0.100
622.600	-29.585	0.100
622.700	-27.720	0.100
622.800	-28.525	0.100
622.900	-38.923	0.100
623.000	-10.752	0.100
623.100	-35.930	0.100
623.200	-30.744	0.100
623.300	-19.545	0.100
623.400	-9.590	0.100
623.500	-43.752	0.100
623.600	-16.549	0.100
623.700	-46.431	0.100
623.800	-41.040	0.100
623.900	-25.290	0.100
624.000	-38.386	0.100
624.100	-21.405	0.099
624.200	-32.319	0.100
624.300	-31.194	0.100
624.400	-13.436	0.100
624.500	-20.387	0.100
624.600	-41.812	0.100
624.700	-35.167	0.100
624.800	-21.030	0.100
624.900	-32.778	0.100
625.000	-22.345	0.100
625.100	-31.272	0.100
625.200	-29.451	0.100
625.300	-29.322	0.100
625.400	-25.872	0.100
625.500	-28.622	0.100
625.600	-31.400	0.100
625.700	-49.736	0.100
625.800	-17.231	0.100
625.900	-21.418	0.100
626.000	-24.694	0.100
626.100	-38.807	0.100
626.200	-20.070	0.100
626.300	-23.681	0.100
626.400	-32.655	0.100
626.500	-33.677	0.100
626.600	-19.741	0.100
626.700	-43.390	0.100
626.800	-13.074	0.100
626.900	-46.919	0.100
627.000	-42.435	0.100
627.100	-3.957	0.100
627.200	-23.405	0.099
627.300	-23.306	0.100
627.400	-7.564	0.100
627.500	-42.199	0.100
627.600	-23.938	0.100
627.700	-28.733	0.100
627.800	-43.544	0.100
627.900	-19.649	0.100
628.000	-21.266	0.100
628.100	-39.635	0.100
628.200	-13.424	0.100
628.300	-12.858	0.100
628.400	-33.304	0.100
628.500	-60.257	0.100
628.600	-31.358	0.100
628.700	-50.678	0.100
628.800	-29.969	0.100
628.900	-47.302	0.100
629.000	-13.771	0.100
629.100	-8.945	0.100
629.200	-13.114	0.100
629.300	-40.735	0.100
629.400	-24.645	0.100
629.500	-34.919	0.100
629.600	-52.503	0.100
629.700	-9.815	0.100
629.800	-26.188	0.100
629.900	-48.552	0.100
630.000	-11.053	0.100
630.100	-22.156	0.100
630.200	-29.637	0.100
630.300	-13.628	0.100
630.400	-34.103	0.100
630.500	-42.241	0.099
630.600	-37.407	0.100
630.700	-25.073	0.100
630.800	-9.407	0.100
630.900	11.338	0.100
631.000	16.131	0.100
631.100	4.911	0.100
631.200	23.480	0.100
631.300	20.939	0.100
631.400	11.556	0.099
631.500	49.793	0.100
631.600	38.838	0.100
631.700	41.313	0.100
631.800	49.791	0.099
631.900	36.954	0.100
632.000	17.580	0.100
632.100	53.054	0.100
632.200	22.780	0.100
632.300	31.632	0.100
632.400	28.916	0.100
632.500	28.701	0.099
632.600	36.585	0.100
632.700	19.503	0.100
632.800	43.338	0.099
632.900	13.464	0.100
633.000	42.687	0.100
633.100	48.271	0.100
633.200	32.595	0.100
633.300	22.042	0.100
633.400	10.886	0.100
633.500	32.137	0.100
633.600	17.081	0.100
633.700	31.420	0.100
633.800	31.922	0.100
633.900	44.002	0.100
634.000	26.753	0.100
634.100	12.041	0.100
634.200	24.970	0.100
634.300	26.700	0.100
634.400	47.162	0.100
634.500	21.155	0.099
634.600	36.265	0.100
634.700	26.262	0.100
634.800	39.589	0.100
634.900	40.269	0.100
635.000	46.889	0.100
635.100	29.868	0.100
635.200	23.269	0.100
635.300	27.970	0.099
635.400	25.096	0.100
635.500	18.276	0.100
635.600	10.568	0.099
635.700	42.443	0.100
635.800	21.361	0.100
635.900	40.836	0.100
636.000	31.697	0.100
636.100	4.111	0.100
636.200	35.388	0.100
636.300	13.935	0.099
636.400	10.801	0.100
636.500	24.818	0.100
636.600	29.404	0.100
636.700	48.831	0.100
636.800	41.557	0.100
636.900	18.349	0.100
637.000	28.037	0.099
637.100	29.160	0.100
637.200	21.769	0.100
637.300	38.812	0.100
637.400	24.047	0.100
637.500	29.500	0.100
637.600	26.972	0.100
637.700	17.780	0.100
637.800	14.353	0.099
637.900	48.239	0.100
638.000	61.578	0.100
638.100	53.573	0.100
638.200	33.905	0.100
638.300	32.118	0.100
638.400	29.530	0.100
638.500	31.683	0.100
638.600	77.525	0.100
638.700	66.889	0.100
638.800	36.378	0.100
638.900	45.014	0.100
639.000	13.581	0.100
639.100	72.631	0.099
639.200	45.658	0.100
639.300	24.177	0.100
639.400	47.444	0.100
639.500	32.264	0.100
639.600	35.078	0.100
639.700	52.846	0.100
639.800	12.823	0.100
639.900	62.969	0.100
640.000	61.450	0.100
640.100	58.088	0.100
640.200	72.644	0.100
640.300	28.884	0.100
640.400	61.777	0.100
640.500	51.483	0.100
640.600	71.080	0.099
640.700	32.488	0.100
640.800	70.473	0.100
640.900	58.880	0.100
641.000	71.627	0.099
641.100	54.292	0.100
641.200	76.452	0.100
641.300	39.953	0.100
641.400	73.627	0.100
641.500	68.316	0.100
641.600	41.095	0.100
641.700	74.035	0.100
641.800	71.979	0.100
641.900	66.334	0.100
642.000	76.895	0.100
642.100	84.626	0.100
642.200	62.317	0.100
642.300	74.821	0.099
642.400	78.380	0.100
642.500	67.124	0.100
642.600	83.631	0.100
642.700	84.560	0.099
642.800	71.594	0.100
642.900	72.220	0.100
643.000	68.751	0.100
643.100	82.174	0.100
643.200	85.514	0.100
643.300	68.871	0.100
643.400	73.579	0.099
643.500	84.402	0.099
643.600	56.411	0.100
643.700	72.971	0.100
643.800	90.535	0.099
643.900	73.293	0.100
644.000	83.115	0.100
644.100	71.133	0.100
644.200	86.660	0.100
644.300	85.942	0.100
644.400	80.864	0.100
644.500	92.091	0.100
644.600	84.373	0.100
644.700	125.489	0.100
644.800	90.823	0.100
644.900	73.896	0.100
645.000	92.768	0.100
645.100	75.041	0.100
645.200	81.371	0.100
645.300	96.250	0.100
645.400	82.024	0.100
645.500	96.310	0.099
645.600	102.553	0.100
645.700	79.712	0.100
645.800	115.699	0.100
645.900	81.664	0.100
646.000	67.601	0.100
646.100	102.845	0.100
646.200	101.434	0.099
646.300	71.085	0.100
646.400	102.953	0.100
646.500	94.938	0.100
646.600	70.466	0.099
646.700	118.928	0.100
646.800	72.779	0.100
646.900	82.193	0.100
647.000	121.972	0.099
647.100	82.050	0.099
647.200	108.109	0.100
647.300	70.019	0.100
647.400	63.276	0.099
647.500	126.820	0.100
647.600	87.173	0.100
647.700	90.582	0.100
647.800	90.379	0.099
647.900	109.693	0.100
648.000	63.841	0.100
648.100	106.872	0.099
648.200	120.014	0.100
648.300	86.513	0.100
648.400	107.730	0.099
648.500	87.781	0.099
648.600	76.984	0.100
648.700	98.454	0.100
648.800	78.378	0.099
648.900	81.476	0.100
649.000	79.470	0.100
649.100	119.898	0.100
649.200	85.042	0.100
649.300	90.047	0.100
649.400	120.153	0.100
649.500	88.891	0.100
649.600	97.934	0.100
649.700	93.885	0.100
649.800	82.883	0.099
649.900	86.885	0.100
650.000	75.745	0.100
650.100	94.526	0.100
650.200	83.998	0.099
650.300	102.945	0.100
650.400	84.617	0.100
650.500	117.752	0.099
650.600	103.210	0.099
650.700	70.599	0.099
650.800	90.160	0.100
650.900	106.215	0.099
651.000	103.103	0.099
651.100	101.001	0.100
651.200	74.675	0.100
651.300	57.227	0.099
651.400	116.055	0.100
651.500	88.638	0.100
651.600	75.063	0.099
651.700	99.368	0.100
651.800	78.022	0.100
651.900	39.668	0.100
652.000	77.762	0.100
652.100	101.883	0.100
652.200	99.907	0.100
652.300	104.771	0.100
652.400	88.202	0.100
652.500	86.833	0.100
652.600	102.319	0.100
652.700	73.488	0.099
652.800	61.240	0.100
652.900	116.148	0.100
653.000	85.304	0.100
653.100	76.986	0.099
653.200	115.750	0.100
653.300	92.062	0.100
653.400	58.404	0.100
653.500	102.627	0.100
653.600	89.053	0.100
653.700	70.464	0.100
653.800	83.519	0.099
653.900	74.854	0.100
654.000	79.975	0.100
654.100	100.458	0.100
654.200	93.541	0.099
654.300	77.374	0.100
654.400	63.560	0.100
654.500	75.360	0.099
654.600	103.547	0.100
654.700	96.053	0.100
654.800	82.477	0.100
654.900	81.138	0.100
655.000	96.163	0.100
655.100	81.614	0.100
655.200	97.342	0.100
655.300	95.860	0.100
655.400	103.358	0.100
655.500	105.696	0.100
655.600	90.110	0.100
655.700	103.874	0.100
655.800	100.338	0.100
655.900	85.761	0.100
656.000	72.861	0.100
656.100	114.130	0.100
656.200	71.592	0.100
656.300	72.761	0.100
656.400	105.380	0.100
656.500	86.672	0.100
656.600	89.019	0.100
656.700	88.509	0.100
656.800	83.869	0.100
656.900	100.446	0.100
657.000	74.241	0.100
657.100	94.669	0.099
657.200	90.329	0.100
657.300	73.551	0.100
657.400	77.472	0.099
657.500	98.418	0.100
657.600	94.995	0.100
657.700	94.226	0.100
657.800	78.366	0.100
657.900	103.348	0.100
658.000	54.054	0.100
658.100	104.863	0.100
658.200	95.754	0.099
658.300	79.454	0.100
658.400	96.227	0.100
658.500	83.083	0.100
658.600	84.334	0.099
658.700	67.745	0.100
658.800	77.895	0.100
658.900	88.770	0.100
659.000	98.988	0.100
659.100	92.919	0.100
659.200	88.710	0.100
659.300	78.157	0.100
659.400	90.362	0.100
659.500	65.424	0.100
659.600	107.699	0.100
659.700	76.210	0.100
659.800	85.947	0.100
659.900	96.915	0.100
660.000	96.233	0.100
660.100	60.777	0.100
660.200	104.559	0.099
660.300	78.934	0.100
660.400	61.584	0.100
660.500	100.530	0.100
660.600	92.586	0.100
660.700	82.725	0.100
660.800	101.745	0.100
660.900	82.921	0.100
661.000	85.646	0.100
661.100	77.643	0.100
661.200	72.592	0.100
661.300	47.293	0.100
661.400	55.914	0.100
661.500	59.457	0.100
661.600	122.955	0.100
661.700	75.958	0.100
661.800	91.283	0.100
661.900	100.571	0.100
662.000	79.995	0.100
662.100	93.253	0.100
662.200	76.169	0.100
662.300	107.078	0.100
662.400	55.139	0.100
662.500	105.619	0.100
662.600	90.198	0.100
662.700	72.398	0.100
662.800	107.614	0.100
662.900	77.370	0.100
663.000	87.050	0.100
663.100	102.941	0.100
663.200	69.820	0.100
663.300	75.339	0.100
663.400	90.652	0.100
663.500	76.433	0.100
663.600	95.942	0.100
663.700	97.946	0.100
663.800	68.486	0.100
663.900	75.266	0.100
664.000	85.333	0.100
664.100	74.028	0.100
664.200	78.426	0.100
664.300	93.780	0.100
664.400	85.117	0.100
664.500	61.545	0.100
664.600	102.783	0.100
664.700	65.840	0.100
664.800	52.580	0.100
664.900	95.409	0.100
665.000	105.509	0.100
665.100	81.287	0.100
665.200	104.174	0.100
665.300	77.287	0.100
665.400	66.153	0.100
665.500	91.884	0.100
665.600	82.603	0.100
665.700	95.223	0.100
665.800	82.070	0.100
665.900	99.432	0.100
666.000	82.987	0.100
666.100	93.580	0.100
666.200	62.593	0.100
666.300	88.629	0.100
666.400	97.791	0.100
666.500	75.973	0.100
666.600	92.955	0.100
666.700	81.322	0.099
666.800	86.248	0.099
666.900	82.765	0.100
667.000	78.559	0.100
667.100	70.751	0.099
667.200	88.568	0.100
667.300	81.806	0.100
667.400	82.550	0.100
667.500	71.365	0.100
667.600	92.355	0.100
667.700	84.672	0.100
667.800	88.160	0.100
667.900	73.932	0.100
668.000	71.018	0.100
668.100	102.033	0.100
668.200	74.342	0.100
668.300	86.541	0.100
668.400	61.779	0.100
668.500	109.657	0.100
668.600	73.448	0.099
668.700	84.631	0.100
668.800	80.203	0.100
668.900	75.473	0.100
669.000	87.622	0.099
669.100	78.430	0.100
669.200	86.728	0.099
669.300	90.849	0.100
669.400	80.341	0.100
669.500	69.833	0.100
669.600	68.708	0.100
669.700	84.749	0.100
669.800	53.860	0.100
669.900	92.450	0.100
670.000	77.762	0.100
670.100	75.713	0.100
670.200	77.003	0.099
670.300	74.035	0.100
670.400	73.869	0.100
670.500	93.691	0.100
670.600	79.239	0.100
670.700	102.317	0.100
670.800	96.374	0.100
670.900	48.747	0.100
671.000	106.727	0.100
671.100	83.356	0.100
671.200	40.668	0.099
671.300	105.675	0.099
671.400	89.394	0.100
671.500	82.591	0.100
671.600	77.625	0.100
671.700	70.148	0.100
671.800	100.822	0.100
671.900	110.582	0.099
672.000	65.205	0.100
672.100	54.949	0.100
672.200	84.519	0.099
672.300	59.097	0.100
672.400	93.563	0.100
672.500	101.515	0.100
672.600	78.622	0.100
672.700	70.180	0.100
672.800	105.299	0.100
672.900	77.628	0.100
673.000	78.889	0.099
673.100	73.688	0.100
673.200	67.145	0.100
673.300	78.259	0.100
673.400	101.143	0.099
673.500	89.916	0.099
673.600	86.392	0.100
673.700	96.870	0.099
673.800	85.052	0.100
673.900	87.742	0.100
674.000	72.448	0.100
674.100	83.983	0.099
674.200	65.549	0.099
674.300	91.635	0.100
674.400	75.260	0.100
674.500	78.667	0.099
674.600	79.536	0.099
674.700	88.962	0.100
674.800	90.473	0.099
674.900	82.112	0.100
675.000	78.138	0.100
675.100	70.789	0.100
675.200	101.307	0.100
675.300	69.958	0.100
675.400	94.049	0.100
675.500	82.913	0.100
675.600	82.288	0.100
675.700	87.146	0.099
675.800	75.278	0.100
675.900	68.024	0.100
676.000	86.101	0.099
676.100	90.649	0.099
676.200	71.182	0.100
676.300	86.148	0.099
676.400	79.356	0.100
676.500	67.300	0.100
676.600	64.401	0.100
676.700	102.902	0.100
676.800	64.165	0.100
676.900	70.708	0.100
677.000	67.345	0.100
677.100	75.475	0.100
677.200	78.927	0.099
677.300	81.871	0.100
677.400	89.987	0.100
677.500	72.309	0.099
677.600	56.616	0.100
677.700	79.276	0.100
677.800	86.215	0.100
677.900	78.616	0.100
678.000	97.284	0.100
678.100	84.756	0.100
678.200	87.552	0.100
678.300	73.486	0.100
678.400	85.722	0.100
678.500	72.426	0.100
678.600	65.125	0.100
678.700	109.038	0.100
678.800	69.575	0.100
678.900	98.016	0.100
679.000	91.074	0.100
679.100	59.072	0.100
679.200	81.836	0.100
679.300	72.174	0.100
679.400	51.605	0.100
679.500	82.108	0.100
679.600	81.782	0.100
679.700	56.895	0.100
679.800	93.764	0.100
679.900	94.912	0.100
680.000	77.098	0.100
680.100	116.624	0.100
680.200	91.071	0.100
680.300	91.893	0.100
680.400	84.565	0.100
680.500	53.610	0.100
680.600	87.478	0.100
680.700	75.011	0.100
680.800	69.030	0.100
680.900	78.387	0.100
681.000	93.270	0.100
681.100	75.704	0.100
681.200	63.481	0.100
681.300	82.709	0.100
681.400	89.181	0.100
681.500	70.719	0.100
681.600	89.367	0.100
681.700	59.340	0.100
681.800	85.103	0.100
681.900	90.624	0.100
682.000	65.947	0.100
682.100	82.150	0.100
682.200	81.714	0.099
682.300	89.944	0.100
682.400	85.264	0.100
682.500	77.114	0.099
682.600	84.746	0.100
682.700	93.934	0.100
682.800	87.666	0.100
682.900	85.307	0.100
683.000	78.593	0.100
683.100	87.533	0.100
683.200	68.852	0.099
683.300	77.846	0.100
683.400	72.019	0.100
683.500	67.116	0.100
683.600	78.339	0.100
683.700	92.426	0.100
683.800	88.982	0.100
683.900	70.662	0.100
684.000	83.185	0.100
684.100	85.127	0.100
684.200	84.298	0.100
684.300	86.250	0.100
684.400	75.566	0.099
684.500	95.958	0.100
684.600	78.689	0.100
684.700	78.258	0.099
684.800	86.785	0.100
684.900	82.414	0.100
685.000	92.307	0.100
685.100	59.147	0.100
685.200	93.584	0.100
685.300	82.318	0.100
685.400	60.884	0.099
685.500	86.528	0.100
685.600	65.879	0.100
685.700	104.434	0.100
685.800	74.587	0.099
685.900	70.554	0.100
686.000	69.550	0.100
686.100	93.296	0.100
686.200	72.452	0.100
686.300	83.288	0.100
686.400	93.235	0.100
686.500	84.168	0.100
686.600	80.002	0.100
686.700	70.660	0.100
686.800	76.447	0.099
686.900	103.572	0.100
687.000	66.851	0.100
687.100	85.704	0.100
687.200	75.061	0.100
687.300	78.086	0.100
687.400	79.125	0.100
687.500	75.872	0.100
687.600	71.866	0.100
687.700	97.597	0.099
687.800	65.758	0.100
687.900	70.401	0.100
688.000	86.369	0.100
688.100	93.710	0.100
688.200	58.250	0.100
688.300	84.413	0.100
688.400	53.353	0.100
688.500	59.816	0.100
688.600	90.118	0.100
688.700	79.604	0.100
688.800	77.225	0.100
688.900	72.329	0.100
689.000	99.909	0.100
689.100	83.970	0.100
689.200	81.214	0.100
689.300	83.148	0.100
689.400	60.784	0.100
689.500	95.780	0.100
689.600	71.039	0.100
689.700	100.163	0.100
689.800	64.508	0.100
689.900	71.091	0.100
690.000	74.522	0.100
690.100	83.148	0.100
690.200	61.108	0.100
690.300	98.552	0.100
690.400	86.840	0.099
690.500	58.379	0.100
690.600	64.986	0.100
690.700	67.802	0.100
690.800	38.872	0.100
690.900	35.562	0.100
691.000	48.405	0.100
691.100	38.073	0.100
691.200	40.081	0.100
691.300	11.102	0.100
691.400	27.614	0.100
691.500	1.801	0.100
691.600	30.376	0.100
691.700	6.833	0.100
691.800	15.738	0.100
691.900	-4.571	0.100
692.000	-13.279	0.100
692.100	3.332	0.100
692.200	8.833	0.100
692.300	-30.288	0.100
692.400	-13.123	0.099
692.500	3.481	0.100
692.600	-13.956	0.100
692.700	-4.540	0.100
692.800	-23.589	0.100
692.900	-46.460	0.100
693.000	-5.685	0.100
693.100	-13.421	0.100
693.200	-25.347	0.100
693.300	-20.622	0.100
693.400	-25.631	0.099
693.500	-40.759	0.100
693.600	-6.394	0.099
693.700	-19.212	0.100
693.800	-8.647	0.099
693.900	-18.308	0.100
694.000	-40.657	0.100
694.100	-10.224	0.100
694.200	-37.834	0.099
694.300	-6.335	0.100
694.400	-39.687	0.099
694.500	-1.637	0.100
694.600	-24.842	0.100
694.700	-1.096	0.100
694.800	-50.852	0.099
694.900	-21.366	0.100
695.000	-25.118	0.099
695.100	-21.525	0.100
695.200	-40.716	0.100
695.300	-7.617	0.100
695.400	-4.535	0.100
695.500	-30.869	0.100
695.600	-13.526	0.100
695.700	-35.526	0.100
695.800	-24.045	0.100
695.900	-30.927	0.100
696.000	-16.673	0.100
696.100	-41.290	0.100
696.200	-20.403	0.100
696.300	-18.054	0.099
696.400	-25.940	0.100
696.500	-36.769	0.100
696.600	-1.460	0.100
696.700	-17.110	0.100
696.800	-16.679	0.100
696.900	-38.905	0.100
697.000	-17.759	0.100
697.100	-24.317	0.100
697.200	-27.339	0.100
697.300	-22.886	0.100
697.400	-28.452	0.100
697.500	4.759	0.100
697.600	-50.778	0.099
697.700	-18.245	0.100
697.800	-29.635	0.100
697.900	-25.278	0.099
698.000	2.912	0.100
698.100	-37.840	0.099
698.200	-24.834	0.100
698.300	-11.547	0.099
698.400	-38.424	0.100
698.500	-18.340	0.100
698.600	-11.207	0.100
698.700	-18.352	0.100
698.800	-35.731	0.100
698.900	-24.085	0.099
699.000	-7.503	0.100
699.100	-9.472	0.100
699.200	-33.564	0.100
699.300	-34.055	0.099
699.400	-30.052	0.100
699.500	-19.583	0.100
699.600	-15.113	0.100
699.700	-9.642	0.099
699.800	-31.135	0.100
699.900	-51.054	0.099
700.000	-1.550	0.100
700.100	-4.446	0.100
700.200	-21.009	0.100
700.300	-14.746	0.100
700.400	-18.693	0.099
700.500	-7.624	0.100
700.600	-29.759	0.099
700.700	4.793	0.100
700.800	-33.221	0.100
700.900	-23.483	0.100
701.000	-28.753	0.099
701.100	-12.487	0.100
701.200	-6.182	0.100
701.300	-19.710	0.100
701.400	-37.745	0.100
701.500	-19.195	0.100
701.600	-30.167	0.099
701.700	-8.595	0.099
701.800	-20.613	0.100
701.900	-24.097	0.100
702.000	-27.132	0.099
702.100	-8.169	0.099
702.200	-23.306	0.100
702.300	-20.460	0.100
702.400	-27.523	0.099
702.500	-39.723	0.100
702.600	-19.266	0.099
702.700	-23.162	0.100
702.800	-18.774	0.099
702.900	-40.564	0.100
703.000	2.628	0.100
703.100	-29.275	0.099
703.200	-44.372	0.099
703.300	-20.905	0.099
703.400	2.583	0.099
703.500	-29.972	0.099
703.600	-20.689	0.100
703.700	-32.551	0.099
703.800	-15.847	0.100
703.900	-31.695	0.099
704.000	-36.189	0.099
704.100	-11.264	0.100
704.200	-31.677	0.100
704.300	-29.216	0.099
704.400	-17.473	0.099
704.500	-31.700	0.100
704.600	-23.870	0.100
704.700	-31.834	0.099
704.800	-17.356	0.100
704.900	-29.897	0.099
705.000	-24.603	0.100
705.100	-48.145	0.099
705.200	-14.961	0.099
705.300	-28.819	0.100
705.400	-44.491	0.099
705.500	-34.902	0.100
705.600	-17.396	0.099
705.700	-35.844	0.099
705.800	-57.343	0.099
705.900	-14.531	0.100
706.000	-33.811	0.100
706.100	-65.125	0.100
706.200	-23.481	0.100
706.300	-21.296	0.100
706.400	-55.870	0.099
706.500	4.236	0.099
706.600	-14.771	0.100
706.700	-51.207	0.099
706.800	-24.303	0.099
706.900	-44.343	0.100
707.000	-8.355	0.100
707.100	-12.950	0.100
707.200	-36.056	0.099
707.300	-38.666	0.100
707.400	-25.904	0.100
707.500	-53.891	0.099
707.600	-22.067	0.099
707.700	-28.498	0.100
707.800	-22.737	0.099
707.900	-31.290	0.099
708.000	-31.449	0.100
708.100	-66.726	0.100
708.200	-41.542	0.100
708.300	-41.006	0.100
708.400	-17.071	0.100
708.500	-45.669	0.100
708.600	-9.935	0.100
708.700	-35.329	0.100
708.800	-41.858	0.099
708.900	-13.947	0.100
709.000	-73.497	0.099
709.100	-31.154	0.099
709.200	-18.605	0.099
709.300	-8.954	0.100
709.400	-4.765	0.099
709.500	-38.527	0.100
709.600	-64.407	0.100
709.700	-26.289	0.100
709.800	-23.761	0.100
709.900	-47.170	0.100
710.000	-47.029	0.099
710.100	-20.012	0.100
710.200	-44.338	0.100
710.300	-19.762	0.100
710.400	-18.150	0.099
710.500	-63.229	0.099
710.600	-25.100	0.100
710.700	-23.098	0.100
710.800	-65.134	0.100
710.900	2.462	0.100
711.000	-34.967	0.100
711.100	-30.554	0.100
711.200	-18.897	0.100
711.300	-58.626	0.100
711.400	-20.722	0.100
711.500	-39.986	0.100
711.600	-45.917	0.100
711.700	-37.137	0.099
711.800	-19.463	0.100
711.900	-39.890	0.100
712.000	-31.819	0.100
712.100	-41.088	0.100
712.200	-48.943	0.100
712.300	-27.597	0.099
712.400	-36.279	0.100
712.500	-57.962	0.100
712.600	-29.731	0.099
712.700	-22.033	0.099
712.800	-21.033	0.100
712.900	-28.258	0.100
713.000	-21.162	0.100
713.100	-37.497	0.100
713.200	-18.183	0.100
713.300	-25.908	0.100
713.400	-39.327	0.100
713.500	-29.910	0.100
713.600	-40.147	0.100
713.700	-71.749	0.099
713.800	-27.070	0.100
713.900	-39.421	0.100
714.000	-43.639	0.100
714.100	-27.329	0.100
714.200	-15.488	0.100
714.300	-48.360	0.100
714.400	-47.109	0.100
714.500	-58.970	0.100
714.600	-51.293	0.099
714.700	-8.894	0.100
714.800	-58.723	0.100
714.900	-47.573	0.099
715.000	-39.841	0.100
715.100	-34.773	0.100
715.200	-28.845	0.100
715.300	-6.671	0.100
715.400	-40.563	0.100
715.500	-30.389	0.100
715.600	-30.600	0.100
715.700	-32.116	0.100
715.800	-43.224	0.100
715.900	-43.998	0.100
716.000	-25.072	0.100
716.100	-22.597	0.099
716.200	-68.775	0.099
716.300	-29.800	0.099
716.400	-48.561	0.100
716.500	-39.207	0.100
716.600	-23.542	0.100
716.700	-31.489	0.100
716.800	-40.980	0.100
716.900	-38.994	0.100
717.000	-46.336	0.100
717.100	-14.877	0.100
717.200	-53.935	0.100
717.300	-50.361	0.099
717.400	-42.425	0.100
717.500	-63.330	0.100
717.600	-19.302	0.100
717.700	-48.516	0.100
717.800	-27.258	0.100
717.900	-30.464	0.100
718.000	-36.093	0.100
718.100	-71.819	0.100
718.200	-22.132	0.100
718.300	-41.876	0.100
718.400	-37.072	0.100
718.500	-51.249	0.100
718.600	-33.380	0.099
718.700	-54.257	0.100
718.800	-36.140	0.100
718.900	-51.183	0.099
719.000	-47.490	0.100
719.100	-20.267	0.100
719.200	-61.205	0.100
719.300	-18.950	0.100
719.400	-36.008	0.100
719.500	-52.913	0.099
719.600	-39.161	0.100
719.700	-45.489	0.100
719.800	-53.243	0.100
719.900	-30.959	0.100
720.000	-47.370	0.100
720.100	-50.393	0.100
720.200	-44.696	0.100
720.300	-31.535	0.100
720.400	-20.338	0.100
720.500	-52.203	0.100
720.600	-51.035	0.100
720.700	-49.426	0.100
720.800	-59.081	0.099
720.900	-27.475	0.100
721.000	-58.247	0.099
721.100	-41.468	0.099
721.200	-54.185	0.100
721.300	-54.722	0.100
721.400	-61.917	0.100
721.500	-29.916	0.100
721.600	-57.419	0.100
721.700	-56.622	0.099
721.800	-17.398	0.100
721.900	-47.111	0.099
722.000	-43.732	0.100
722.100	-39.117	0.100
722.200	-35.824	0.100
722.300	-50.496	0.099
722.400	-28.530	0.100
722.500	-51.981	0.099
722.600	-38.356	0.099
722.700	-47.052	0.100
722.800	-36.315	0.100
722.900	-45.979	0.100
723.000	-35.402	0.100
723.100	-61.355	0.099
723.200	-39.723	0.100
723.300	-39.017	0.099
723.400	-38.134	0.099
723.500	-38.254	0.099
723.600	-59.398	0.100
723.700	-42.417	0.100
723.800	-32.578	0.099
723.900	-22.919	0.100
724.000	-39.351	0.100
724.100	-47.139	0.100
724.200	-39.257	0.100
724.300	-66.578	0.099
724.400	-23.774	0.100
724.500	-77.136	0.100
724.600	-30.014	0.100
724.700	-40.482	0.100
724.800	-52.067	0.100
724.900	-40.562	0.100
725.000	-42.786	0.099
725.100	-55.672	0.099
725.200	-8.945	0.100
725.300	-45.217	0.100
725.400	-69.284	0.099
725.500	-34.491	0.100
725.600	-26.275	0.100
725.700	-30.834	0.100
725.800	-52.204	0.100
725.900	-36.357	0.100
726.000	-43.608	0.100
726.100	-45.589	0.099
726.200	-35.973	0.099
726.300	-40.168	0.100
726.400	-37.605	0.100
726.500	-52.219	0.100
726.600	-51.086	0.099
726.700	-23.931	0.099
726.800	-63.751	0.100
726.900	-30.967	0.100
727.000	-35.968	0.100
727.100	-39.123	0.100
727.200	-47.752	0.100
727.300	-26.122	0.100
727.400	-56.643	0.100
727.500	-23.588	0.100
727.600	-55.417	0.100
727.700	-40.398	0.100
727.800	-31.592	0.100
727.900	-56.033	0.099
728.000	-33.208	0.100
728.100	-36.635	0.100
728.200	-32.747	0.100
728.300	-49.486	0.100
728.400	-39.505	0.100
728.500	-40.731	0.100
728.600	-59.659	0.100
728.700	-29.541	0.100
728.800	-66.906	0.100
728.900	-31.398	0.100
729.000	-20.261	0.099
729.100	-52.567	0.100
729.200	-52.934	0.100
729.300	-50.265	0.099
729.400	-34.997	0.099
729.500	-52.635	0.099
729.600	-44.635	0.100
729.700	-24.466	0.100
729.800	-52.984	0.100
729.900	-57.340	0.099
730.000	-37.194	0.100
730.100	-32.676	0.100
730.200	-54.160	0.099
730.300	-40.982	0.100
730.400	-52.516	0.100
730.500	-59.837	0.100
730.600	-43.973	0.099
730.700	-42.308	0.100
730.800	-25.059	0.100
730.900	-52.724	0.100
731.000	-52.225	0.099
731.100	-32.593	0.100
731.200	-47.000	0.099
731.300	-44.780	0.100
731.400	-53.931	0.099
731.500	-56.734	0.100
731.600	-45.075	0.100
731.700	-15.580	0.100
731.800	-63.257	0.100
731.900	-34.838	0.100
732.000	-25.609	0.100
732.100	-36.955	0.100
732.200	-36.354	0.100
732.300	-42.469	0.100
732.400	-50.374	0.100
732.500	-54.897	0.100
732.600	-28.528	0.100
732.700	-28.841	0.100
732.800	-32.431	0.100
732.900	-60.968	0.100
733.000	-34.655	0.100
733.100	-27.979	0.100
733.200	-53.919	0.100
733.300	-18.617	0.100
733.400	-16.725	0.100
733.500	-76.387	0.100
733.600	-51.133	0.100
733.700	-43.161	0.100
733.800	-31.209	0.100
733.900	-57.204	0.100
734.000	-23.386	0.100
734.100	-27.006	0.100
734.200	-47.419	0.100
734.300	-29.629	0.100
734.400	-46.486	0.100
734.500	-52.868	0.100
734.600	-61.355	0.100
734.700	-58.463	0.100
734.800	-44.642	0.100
734.900	-34.173	0.099
735.000	-48.785	0.100
735.100	-47.158	0.100
735.200	-25.450	0.100
735.300	-40.751	0.100
735.400	-31.655	0.100
735.500	-14.430	0.099
735.600	-68.661	0.100
735.700	-44.982	0.099
735.800	-34.202	0.100
735.900	-47.166	0.100
736.000	-63.368	0.100
736.100	-25.725	0.100
736.200	-48.591	0.100
736.300	-21.167	0.099
736.400	-25.491	0.100
736.500	-47.010	0.100
736.600	-68.295	0.100
736.700	-50.736	0.100
736.800	-47.778	0.099
736.900	-27.196	0.100
737.000	-40.575	0.100
737.100	-70.339	0.100
737.200	-31.992	0.100
737.300	-37.432	0.100
737.400	-62.417	0.099
737.500	-72.834	0.100
737.600	-38.262	0.100
737.700	-33.766	0.100
737.800	-37.679	0.100
737.900	-46.539	0.099
738.000	-61.010	0.100
738.100	-15.841	0.100
738.200	-44.332	0.100
738.300	-25.396	0.100
738.400	-52.133	0.100
738.500	-20.561	0.100
738.600	-44.497	0.099
738.700	-34.547	0.100
738.800	-40.770	0.100
738.900	-42.111	0.099
739.000	-53.361	0.099
739.100	-55.074	0.100
739.200	-28.854	0.100
739.300	-54.175	0.099
739.400	-42.342	0.100
739.500	-51.218	0.100
739.600	-24.062	0.100
739.700	-51.192	0.100
739.800	-41.789	0.100
739.900	-45.268	0.100
740.000	-28.102	0.100
740.100	-52.129	0.100
740.200	-41.774	0.100
740.300	-44.085	0.100
740.400	-46.631	0.100
740.500	-14.854	0.100
740.600	-67.108	0.100
740.700	-28.375	0.100
740.800	-16.429	0.100
740.900	-33.561	0.100
741.000	-46.739	0.100
741.100	-37.747	0.100
741.200	-43.438	0.100
741.300	-43.680	0.100
741.400	-36.710	0.100
741.500	-32.967	0.100
741.600	-28.249	0.100
741.700	-49.228	0.100
741.800	-61.455	0.100
741.900	-0.662	0.100
742.000	-52.628	0.100
742.100	-46.604	0.099
742.200	-22.644	0.100
742.300	-43.595	0.100
742.400	-60.748	0.100
742.500	-7.995	0.100
742.600	-42.256	0.100
742.700	-15.073	0.100
742.800	-38.328	0.100
742.900	-26.580	0.100
743.000	-50.392	0.100
743.100	-59.955	0.100
743.200	-13.278	0.100
743.300	-47.836	0.099
743.400	-58.884	0.100
743.500	-63.167	0.100
743.600	-26.462	0.100
743.700	-38.219	0.100
743.800	-64.162	0.100
743.900	-28.040	0.100
744.000	-15.461	0.100
744.100	-38.389	0.100
744.200	-50.305	0.100
744.300	-50.277	0.100
744.400	-48.189	0.100
744.500	-29.756	0.099
744.600	-22.811	0.100
744.700	-72.401	0.100
744.800	-45.186	0.100
744.900	-66.837	0.100
745.000	-49.871	0.100
745.100	-8.672	0.100
745.200	-21.844	0.100
745.300	-61.950	0.100
745.400	-42.031	0.100
745.500	-35.553	0.100
745.600	-58.107	0.100
745.700	-50.007	0.100
745.800	-19.572	0.100
745.900	-37.323	0.100
746.000	-6.902	0.100
746.100	-19.848	0.100
746.200	-47.800	0.100
746.300	-42.451	0.100
746.400	-58.259	0.100
746.500	-44.942	0.100
746.600	-35.000	0.100
746.700	-25.058	0.100
746.800	-76.354	0.099
746.900	-22.232	0.100
747.000	-52.863	0.100
747.100	-43.905	0.099
747.200	-43.788	0.100
747.300	-28.473	0.100
747.400	-35.592	0.100
747.500	-37.549	0.100
747.600	-23.697	0.100
747.700	-61.541	0.100
747.800	-29.264	0.100
747.900	-52.985	0.100
748.000	-31.432	0.100
748.100	-24.744	0.100
748.200	-52.942	0.100
748.300	-42.753	0.100
748.400	-2.420	0.100
748.500	-73.335	0.100
748.600	-40.212	0.100
748.700	-25.684	0.099
748.800	-44.499	0.099
748.900	-35.408	0.100
749.000	-43.593	0.100
749.100	-37.680	0.100
749.200	-48.432	0.099
749.300	-33.898	0.100
749.400	-49.324	0.099
749.500	-31.809	0.100
749.600	-23.894	0.100
749.700	-48.208	0.099
749.800	-40.707	0.100
749.900	-36.069	0.100
750.000	-32.337	0.100
750.100	-35.787	0.100
750.200	-31.964	0.100
750.300	-35.049	0.100
750.400	-47.802	0.100
750.500	-34.708	0.100
750.600	-44.453	0.100
750.700	-28.017	0.100
750.800	-20.667	0.100
750.900	-60.659	0.100
751.000	-35.087	0.100
751.100	-33.672	0.100
751.200	-22.583	0.100
751.300	-46.407	0.100
751.400	-47.862	0.100
751.500	-25.780	0.100
751.600	-33.275	0.100
751.700	-44.904	0.100
751.800	-39.823	0.100
751.900	-11.479	0.100
752.000	-29.902	0.100
752.100	-21.672	0.100
752.200	-36.018	0.100
752.300	-46.458	0.100
752.400	-30.260	0.100
752.500	-44.588	0.100
752.600	-49.895	0.100
752.700	-50.448	0.100
752.800	-31.089	0.100
752.900	-55.909	0.100
753.000	-14.707	0.100
753.100	-40.771	0.100
753.200	-43.681	0.100
753.300	-26.691	0.100
753.400	-26.439	0.100
753.500	-49.318	0.100
753.600	-32.568	0.100
753.700	-38.598	0.100
753.800	-38.020	0.100
753.900	-41.668	0.099
754.000	-38.579	0.100
754.100	-41.548	0.100
754.200	-27.046	0.099
754.300	-36.148	0.100
754.400	-68.825	0.100
754.500	-10.266	0.100
754.600	-51.966	0.100
754.700	-29.853	0.100
754.800	-27.632	0.100
754.900	-39.322	0.100
755.000	-50.369	0.099
755.100	-49.017	0.100
755.200	-5.570	0.100
755.300	-21.070	0.100
755.400	-23.679	0.100
755.500	-56.180	0.100
755.600	-37.731	0.100
755.700	-13.061	0.100
755.800	-25.242	0.100
755.900	-72.582	0.099
756.000	-30.763	0.100
756.100	-50.519	0.100
756.200	-50.009	0.099
756.300	-8.566	0.099
756.400	-31.287	0.099
756.500	-41.317	0.100
756.600	-28.694	0.099
756.700	-49.484	0.099
756.800	-44.386	0.099
756.900	-10.840	0.100
757.000	-29.593	0.100
757.100	-42.686	0.099
757.200	-29.867	0.099
757.300	-40.766	0.099
757.400	-27.704	0.099
757.500	-14.905	0.100
757.600	-59.903	0.099
757.700	-19.720	0.099
757.800	-12.490	0.100
757.900	-44.956	0.100
758.000	-36.404	0.099
758.100	-34.019	0.099
758.200	-30.934	0.100
758.300	-33.900	0.100
758.400	-36.614	0.099
758.500	-36.919	0.099
758.600	-34.521	0.100
758.700	-51.159	0.100
758.800	-47.969	0.100
758.900	-25.808	0.100
759.000	-7.405	0.100
759.100	-49.745	0.100
759.200	-43.736	0.100
759.300	-37.188	0.100
759.400	-45.930	0.100
759.500	-45.678	0.100
759.600	-16.342	0.100
759.700	-24.775	0.100
759.800	-23.703	0.100
759.900	-37.134	0.100
760.000	-49.871	0.100
760.100	-61.938	0.100
760.200	-22.541	0.100
760.300	-48.879	0.100
760.400	-1.254	0.100
760.500	-59.372	0.100
760.600	-30.654	0.100
760.700	-26.011	0.100
760.800	-22.595	0.100
760.900	-27.243	0.100
761.000	-19.746	0.100
761.100	-55.387	0.100
761.200	-32.295	0.100
761.300	-38.019	0.100
761.400	-71.015	0.100
761.500	-23.457	0.100
761.600	-15.758	0.100
761.700	-24.109	0.100
761.800	-32.225	0.100
761.900	-49.740	0.100
762.000	-42.035	0.100
762.100	-49.536	0.100
762.200	-13.788	0.100
762.300	-12.114	0.100
762.400	-41.227	0.100
762.500	-32.256	0.100
762.600	-51.141	0.100
762.700	-21.793	0.099
762.800	-24.626	0.100
762.900	-31.493	0.100
763.000	-24.508	0.100
763.100	-37.216	0.100
763.200	-65.975	0.100
763.300	-42.439	0.100
763.400	-33.492	0.100
763.500	-16.246	0.100
763.600	-22.167	0.100
763.700	-21.098	0.100
763.800	-51.351	0.100
763.900	-28.540	0.100
764.000	-38.350	0.100
764.100	-66.282	0.100
764.200	3.597	0.100
764.300	-33.201	0.100
764.400	-37.651	0.100
764.500	-12.614	0.100
764.600	-44.969	0.100
764.700	-57.501	0.100
764.800	-17.452	0.100
764.900	-39.201	0.100
765.000	-29.112	0.100
765.100	-18.572	0.100
765.200	-45.908	0.100
765.300	-0.506	0.100
765.400	-22.335	0.100
765.500	-46.005	0.100
765.600	-10.446	0.100
765.700	-47.274	0.100
765.800	-7.340	0.100
765.900	-60.721	0.100
766.000	4.475	0.100
766.100	-52.971	0.100
766.200	-32.527	0.100
766.300	-30.918	0.100
766.400	-61.153	0.099
766.500	1.765	0.100
766.600	-9.192	0.100
766.700	-42.118	0.100
766.800	-61.351	0.100
766.900	-28.154	0.100
767.000	-50.729	0.100
767.100	-19.300	0.100
767.200	-23.443	0.100
767.300	-48.721	0.100
767.400	-38.414	0.100
767.500	-37.989	0.100
767.600	-51.970	0.100
767.700	-45.438	0.100
767.800	-33.580	0.099
767.900	-52.672	0.100
768.000	-23.192	0.100
768.100	-35.118	0.100
768.200	-39.318	0.100
768.300	-24.955	0.100
768.400	-28.669	0.100
768.500	-38.971	0.100
768.600	-8.697	0.100
768.700	-42.283	0.100
768.800	-50.193	0.100
768.900	-6.545	0.100
769.000	-25.435	0.100
769.100	-27.994	0.100
769.200	-54.899	0.100
769.300	-28.191	0.100
769.400	-44.688	0.099
769.500	-5.246	0.100
769.600	-40.516	0.100
769.700	-46.917	0.100
769.800	-24.769	0.100
769.900	-51.198	0.100
770.000	-25.144	0.100
770.100	-24.917	0.100
770.200	-37.842	0.100
770.300	-25.388	0.100
770.400	-36.944	0.100
770.500	-46.080	0.100
770.600	-35.797	0.100
770.700	-20.174	0.100
770.800	-35.177	0.100
770.900	-39.517	0.100
771.000	-9.623	0.100
771.100	-36.875	0.100
771.200	-33.602	0.100
771.300	-2.373	0.100
771.400	-34.931	0.100
771.500	-18.071	0.100
771.600	-50.632	0.100
771.700	-57.309	0.100
771.800	-1.646	0.100
771.900	-27.572	0.100
772.000	-44.507	0.100
772.100	-24.159	0.100
772.200	-36.785	0.100
772.300	-41.698	0.100
772.400	-18.424	0.100
772.500	-30.951	0.100
772.600	-44.719	0.100
772.700	-46.906	0.100
772.800	-27.571	0.100
772.900	-13.185	0.100
773.000	-35.802	0.100
773.100	-33.812	0.100
773.200	-40.306	0.099
773.300	-21.019	0.100
773.400	-28.126	0.100
773.500	-20.242	0.099
773.600	-29.886	0.100
773.700	-44.719	0.099
773.800	-44.770	0.100
773.900	-51.941	0.100
774.000	-28.024	0.099
774.100	-2.183	0.100
774.200	-36.287	0.100
774.300	-57.074	0.100
774.400	-16.660	0.099
774.500	-48.002	0.099
774.600	-50.386	0.100
774.700	-21.799	0.100
774.800	-14.075	0.100
774.900	-33.737	0.100
775.000	-29.039	0.099
775.100	-20.470	0.100
775.200	-34.566	0.100
775.300	-20.922	0.100
775.400	-17.486	0.100
775.500	-67.518	0.100
775.600	-22.868	0.100
775.700	-28.546	0.100
775.800	-29.171	0.100
775.900	-1.890	0.100
776.000	-13.887	0.100
776.100	-58.583	0.100
776.200	-32.131	0.100
776.300	-31.038	0.100
776.400	5.541	0.100
776.500	-14.669	0.100
776.600	-36.142	0.099
776.700	-63.318	0.100
776.800	-16.288	0.100
776.900	-39.495	0.100
777.000	-43.269	0.100
777.100	-22.034	0.100
777.200	-40.262	0.100
777.300	-30.462	0.100
777.400	-25.489	0.100
777.500	-38.065	0.100
777.600	-31.533	0.100
777.700	-7.100	0.100
777.800	-28.875	0.100
777.900	-42.747	0.100
778.000	-21.455	0.100
778.100	-26.588	0.100
778.200	-38.531	0.100
778.300	-36.125	0.100
778.400	-38.216	0.100
778.500	-35.831	0.100
778.600	-17.600	0.100
778.700	-54.176	0.100
778.800	-19.776	0.100
778.900	-14.195	0.100
779.000	-30.916	0.100
779.100	-30.158	0.100
779.200	-9.366	0.100
779.300	-18.154	0.100
779.400	-28.152	0.100
779.500	-27.170	0.100
779.600	-42.230	0.100
779.700	-36.459	0.100
779.800	-9.826	0.100
779.900	-30.346	0.100
780.000	-66.118	0.100
780.100	-5.536	0.100
780.200	-41.390	0.100
780.300	-20.957	0.100
780.400	-36.021	0.100
780.500	-17.664	0.100
780.600	-17.765	0.100
780.700	-22.013	0.100
780.800	-4.438	0.099
780.900	-5.794	0.100
781.000	3.993	0.100
781.100	-3.704	0.100
781.200	19.973	0.100
781.300	39.569	0.100
781.400	14.882	0.100
781.500	21.538	0.100
781.600	22.809	0.100
781.700	38.555	0.100
781.800	42.831	0.100
781.900	16.746	0.100
782.000	37.829	0.100
782.100	43.939	0.100
782.200	24.455	0.099
782.300	30.241	0.100
782.400	30.587	0.100
782.500	4.274	0.099
782.600	27.314	0.099
782.700	52.521	0.100
782.800	31.660	0.099
782.900	20.942	0.099
783.000	47.871	0.100
783.100	36.227	0.100
783.200	43.311	0.100
783.300	47.620	0.100
783.400	14.623	0.100
783.500	20.915	0.100
783.600	31.968	0.099
783.700	9.174	0.099
783.800	34.080	0.100
783.900	32.256	0.099
784.000	18.997	0.100
784.100	38.805	0.099
784.200	35.141	0.100
784.300	28.591	0.099
784.400	20.436	0.100
784.500	30.358	0.099
784.600	24.112	0.099
784.700	58.716	0.099
784.800	20.917	0.099
784.900	17.599	0.099
785.000	9.354	0.099
785.100	32.330	0.099
785.200	8.826	0.100
785.300	28.982	0.100
785.400	23.597	0.099
785.500	17.763	0.100
785.600	21.063	0.100
785.700	11.143	0.100
785.800	29.650	0.100
785.900	9.515	0.100
786.000	25.829	0.100
786.100	13.940	0.100
786.200	38.856	0.100
786.300	29.664	0.099
786.400	1.385	0.099
786.500	19.275	0.100
786.600	23.107	0.100
786.700	30.572	0.100
786.800	12.910	0.100
786.900	20.961	0.100
787.000	27.070	0.100
787.100	17.877	0.100
787.200	18.913	0.100
787.300	5.538	0.100
787.400	44.336	0.099
787.500	44.175	0.100
787.600	50.014	0.100
787.700	36.813	0.100
787.800	20.103	0.100
787.900	47.014	0.100
788.000	43.405	0.100
788.100	44.006	0.099
788.200	66.425	0.099
788.300	41.671	0.100
788.400	22.643	0.100
788.500	42.770	0.099
788.600	32.974	0.100
788.700	35.435	0.100
788.800	51.868	0.100
788.900	46.993	0.100
789.000	34.329	0.100
789.100	42.024	0.099
789.200	37.239	0.100
789.300	63.877	0.100
789.400	51.719	0.099
789.500	57.305	0.100
789.600	31.491	0.100
789.700	48.630	0.100
789.800	59.737	0.100
789.900	31.822	0.100
790.000	49.718	0.099
790.100	61.854	0.100
790.200	50.560	0.100
790.300	58.184	0.100
790.400	44.829	0.100
790.500	53.176	0.099
790.600	58.165	0.100
790.700	47.709	0.100
790.800	41.085	0.100
790.900	81.052	0.100
791.000	61.932	0.100
791.100	76.449	0.100
791.200	64.908	0.100
791.300	60.718	0.100
791.400	63.313	0.100
791.500	70.058	0.100
791.600	78.909	0.099
791.700	63.666	0.100
791.800	77.883	0.100
791.900	76.936	0.100
792.000	89.078	0.100
792.100	37.102	0.100
792.200	67.864	0.100
792.300	72.959	0.100
792.400	87.512	0.100
792.500	75.367	0.100
792.600	65.001	0.100
792.700	92.548	0.100
792.800	73.712	0.099
792.900	85.175	0.100
793.000	61.299	0.100
793.100	74.125	0.100
793.200	103.181	0.100
793.300	82.230	0.100
793.400	65.015	0.100
793.500	80.709	0.100
793.600	48.411	0.099
793.700	70.101	0.100
793.800	115.194	0.100
793.900	74.476	0.100
794.000	73.717	0.100
794.100	99.572	0.100
794.200	77.818	0.100
794.300	86.271	0.100
794.400	82.380	0.100
794.500	97.275	0.100
794.600	91.984	0.100
794.700	102.805	0.100
794.800	84.240	0.100
794.900	92.637	0.100
795.000	69.807	0.100
795.100	91.436	0.100
795.200	79.651	0.100
795.300	59.377	0.100
795.400	103.300	0.100
795.500	92.279	0.100
795.600	104.464	0.100
795.700	85.898	0.100
795.800	96.583	0.100
795.900	95.765	0.100
796.000	67.346	0.100
796.100	81.515	0.100
796.200	98.567	0.100
796.300	90.308	0.100
796.400	113.949	0.100
796.500	78.457	0.100
796.600	99.452	0.100
796.700	105.457	0.100
796.800	81.954	0.100
796.900	62.959	0.100
797.000	94.313	0.100
797.100	107.020	0.100
797.200	77.218	0.100
797.300	82.237	0.100
797.400	104.812	0.100
797.500	55.957	0.100
797.600	95.346	0.100
797.700	101.992	0.100
797.800	89.480	0.100
797.900	108.680	0.100
798.000	86.445	0.100
798.100	106.792	0.100
798.200	90.055	0.100
798.300	80.186	0.100
798.400	95.077	0.100
798.500	104.469	0.100
798.600	55.212	0.100
798.700	72.961	0.100
798.800	87.072	0.100
798.900	96.789	0.100
799.000	95.884	0.100
799.100	101.611	0.100
799.200	92.037	0.100
799.300	104.933	0.100
799.400	89.626	0.100
799.500	91.474	0.100
799.600	91.888	0.100
799.700	94.724	0.100
799.800	103.023	0.100
799.900	90.838	0.100
800.000	102.467	0.100
