time /s	I /nA	E /V
0.100	-12.548	0.099
0.200	-10.623	0.099
0.300	-15.260	0.099
0.400	-1.162	0.099
0.500	5.083	0.099
0.600	-9.011	0.099
0.700	5.371	0.099
0.800	-5.649	0.099
0.900	-14.699	0.099
1.000	-11.965	0.099
1.100	-10.320	0.099
1.200	-7.016	0.100
1.300	-21.513	0.099
1.400	-12.494	0.100
1.500	-15.596	0.099
1.600	-16.034	0.099
1.700	3.437	0.099
1.800	-6.696	0.099
1.900	-19.047	0.099
2.000	-22.497	0.099
2.100	-16.014	0.099
2.200	-15.020	0.099
2.300	-12.683	0.099
2.400	-3.829	0.099
2.500	-27.032	0.099
2.600	-4.648	0.099
2.700	-4.196	0.099
2.800	-6.848	0.099
2.900	-16.030	0.099
3.000	-26.994	0.099
3.100	0.719	0.099
3.200	-9.862	0.100
3.300	-20.119	0.099
3.400	19.336	0.099
3.500	-7.891	0.099
3.600	-17.958	0.099
3.700	-17.695	0.099
3.800	-13.640	0.099
3.900	5.972	0.099
4.000	-10.076	0.099
4.100	-21.973	0.099
4.200	-11.165	0.099
4.300	-13.672	0.099
4.400	-12.334	0.099
4.500	-15.310	0.099
4.600	-20.426	0.099
4.700	-10.933	0.099
4.800	-21.037	0.099
4.900	-9.613	0.099
5.000	1.931	0.099
5.100	0.355	0.100
5.200	1.004	0.099
5.300	-10.139	0.100
5.400	-12.612	0.099
5.500	-13.183	0.099
5.600	-0.485	0.099
5.700	-9.783	0.099
5.800	-1.955	0.099
5.900	-13.225	0.100
6.000	-12.268	0.099
6.100	1.599	0.100
6.200	-4.748	0.099
6.300	-9.416	0.099
6.400	-8.485	0.099
6.500	-6.539	0.099
6.600	-5.810	0.099
6.700	-12.729	0.099
6.800	-25.232	0.099
6.900	-1.646	0.099
7.000	-11.978	0.099
7.100	-19.818	0.099
7.200	-12.233	0.099
7.300	-8.136	0.099
7.400	-3.555	0.100
7.500	-8.653	0.099
7.600	-3.992	0.100
7.700	-1.580	0.099
7.800	-13.343	0.099
7.900	-2.474	0.100
8.000	-32.086	0.099
8.100	-3.174	0.099
8.200	-23.185	0.099
8.300	-6.312	0.100
8.400	4.986	0.099
8.500	-5.713	0.099
8.600	-6.106	0.099
8.700	-6.148	0.100
8.800	-13.246	0.099
8.900	-13.411	0.099
9.000	-1.892	0.099
9.100	-14.049	0.099
9.200	-5.695	0.099
9.300	-6.037	0.099
9.400	-8.822	0.099
9.500	-24.651	0.099
9.600	1.583	0.099
9.700	1.929	0.099
9.800	-9.763	0.099
9.900	-9.719	0.099
10.000	-3.065	0.099
10.100	-5.590	0.099
10.200	-20.076	0.099
10.300	-26.828	0.099
10.400	-4.080	0.099
10.500	-12.920	0.099
10.600	0.653	0.100
10.700	-9.113	0.099
10.800	-1.623	0.099
10.900	-17.783	0.099
11.000	-15.511	0.099
11.100	-15.286	0.099
11.200	-5.522	0.100
11.300	-12.720	0.099
11.400	-1.471	0.100
11.500	-15.930	0.099
11.600	-16.340	0.099
11.700	-10.935	0.099
11.800	-10.105	0.099
11.900	-22.969	0.099
12.000	-2.381	0.099
12.100	-9.355	0.099
12.200	-14.769	0.099
12.300	-4.452	0.099
12.400	-9.559	0.099
12.500	-6.316	0.099
12.600	-4.838	0.099
12.700	-17.266	0.099
12.800	-2.366	0.100
12.900	-11.107	0.099
13.000	-13.856	0.099
13.100	-5.781	0.099
13.200	-23.598	0.099
13.300	-3.337	0.099
13.400	-16.335	0.099
13.500	-14.735	0.099
13.600	-9.463	0.099
13.700	-12.846	0.099
13.800	-14.738	0.099
13.900	4.603	0.099
14.000	-10.545	0.099
14.100	-16.117	0.099
14.200	-10.170	0.099
14.300	-20.278	0.099
14.400	-16.014	0.099
14.500	-17.678	0.099
14.600	5.160	0.099
14.700	5.921	0.099
14.800	-14.491	0.099
14.900	-8.940	0.099
15.000	-2.922	0.099
15.100	-5.973	0.099
15.200	-5.858	0.099
15.300	-10.743	0.099
15.400	3.071	0.099
15.500	-16.861	0.099
15.600	-21.941	0.099
15.700	5.584	0.100
15.800	-6.015	0.099
15.900	-14.117	0.099
16.000	-4.274	0.099
16.100	-17.296	0.099
16.200	-6.771	0.099
16.300	-0.684	0.099
16.400	-35.311	0.100
16.500	-2.560	0.100
16.600	-13.900	0.099
16.700	-9.736	0.099
16.800	-11.236	0.099
16.900	-14.346	0.099
17.000	-11.019	0.099
17.100	-11.760	0.099
17.200	4.730	0.099
17.300	-12.341	0.099
17.400	-3.549	0.100
17.500	7.588	0.099
17.600	-12.707	0.099
17.700	-8.451	0.100
17.800	-4.089	0.099
17.900	-14.003	0.099
18.000	-17.141	0.099
18.100	-5.934	0.099
18.200	-9.077	0.099
18.300	-12.161	0.099
18.400	-13.739	0.099
18.500	3.099	0.099
18.600	-1.094	0.100
18.700	-3.073	0.099
18.800	-8.251	0.099
18.900	-7.101	0.100
19.000	-15.001	0.100
19.100	-17.668	0.099
19.200	-9.418	0.099
19.300	-15.106	0.099
19.400	-10.111	0.100
19.500	-7.111	0.099
19.600	-9.158	0.099
19.700	-12.124	0.099
19.800	-14.832	0.099
19.900	0.200	0.099
20.000	-27.900	0.099
20.100	-20.845	0.099
20.200	-9.905	0.099
20.300	-17.956	0.099
20.400	1.132	0.099
20.500	-21.417	0.099
20.600	-7.445	0.099
20.700	-16.155	0.099
20.800	-17.209	0.099
20.900	-14.558	0.100
21.000	-14.429	0.099
21.100	-3.443	0.099
21.200	3.652	0.099
21.300	-14.045	0.099
21.400	-3.437	0.099
21.500	-4.918	0.099
21.600	-7.204	0.100
21.700	-16.110	0.099
21.800	-5.071	0.099
21.900	-4.830	0.099
22.000	-11.288	0.100
22.100	-7.801	0.100
22.200	-13.289	0.099
22.300	-7.484	0.100
22.400	-10.703	0.100
22.500	-6.419	0.099
22.600	-2.744	0.100
22.700	-14.414	0.099
22.800	-5.890	0.100
22.900	-13.076	0.099
23.000	-21.825	0.099
23.100	-10.476	0.100
23.200	-12.138	0.099
23.300	-1.354	0.099
23.400	-7.019	0.100
23.500	-12.831	0.099
23.600	-15.756	0.099
23.700	-2.442	0.099
23.800	-1.165	0.099
23.900	-18.318	0.099
24.000	-10.518	0.099
24.100	-17.825	0.099
24.200	-1.040	0.099
24.300	-5.644	0.099
24.400	-18.096	0.099
24.500	-19.383	0.099
24.600	-23.471	0.100
24.700	-18.760	0.099
24.800	4.066	0.099
24.900	-8.648	0.099
25.000	-11.159	0.099
25.100	-2.899	0.100
25.200	-1.883	0.100
25.300	-13.193	0.100
25.400	-12.134	0.099
25.500	-13.791	0.099
25.600	-12.098	0.099
25.700	-8.245	0.100
25.800	-8.416	0.099
25.900	7.066	0.099
26.000	-7.109	0.100
26.100	-40.326	0.100
26.200	-17.233	0.100
26.300	-4.194	0.099
26.400	4.424	0.100
26.500	-31.010	0.099
26.600	5.013	0.099
26.700	0.764	0.100
26.800	-12.151	0.100
26.900	0.590	0.100
27.000	-9.365	0.100
27.100	-12.624	0.099
27.200	-4.291	0.099
27.300	-4.860	0.099
27.400	-4.722	0.099
27.500	-9.999	0.100
27.600	-14.855	0.100
27.700	4.825	0.099
27.800	-7.139	0.099
27.900	-19.213	0.099
28.000	-4.524	0.100
28.100	-1.773	0.099
28.200	-14.534	0.099
28.300	-15.191	0.100
28.400	-8.257	0.099
28.500	-5.035	0.100
28.600	-7.637	0.099
28.700	-2.106	0.100
28.800	-9.663	0.099
28.900	-4.270	0.099
29.000	-1.888	0.099
29.100	-10.058	0.099
29.200	-2.027	0.099
29.300	-10.781	0.099
29.400	-16.854	0.099
29.500	-7.372	0.099
29.600	-10.493	0.099
29.700	-12.809	0.100
29.800	-1.543	0.100
29.900	-21.998	0.099
30.000	-16.428	0.099
30.100	-1.450	0.099
30.200	-4.228	0.099
30.300	11.709	0.099
30.400	-4.195	0.099
30.500	-15.597	0.099
30.600	3.146	0.100
30.700	5.115	0.100
30.800	16.124	0.100
30.900	-3.156	0.100
31.000	5.051	0.099
31.100	-0.428	0.099
31.200	8.971	0.099
31.300	10.597	0.100
31.400	-0.749	0.100
31.500	-6.983	0.100
31.600	1.970	0.099
31.700	16.417	0.100
31.800	10.330	0.099
31.900	3.822	0.099
32.000	10.844	0.099
32.100	7.448	0.100
32.200	5.460	0.099
32.300	4.363	0.100
32.400	16.587	0.100
32.500	13.345	0.099
32.600	12.017	0.099
32.700	12.233	0.099
32.800	6.074	0.100
32.900	-12.818	0.099
33.000	15.814	0.099
33.100	31.922	0.100
33.200	18.206	0.100
33.300	11.551	0.100
33.400	10.209	0.100
33.500	36.219	0.100
33.600	16.776	0.099
33.700	24.909	0.100
33.800	11.107	0.100
33.900	5.461	0.100
34.000	15.451	0.100
34.100	31.772	0.100
34.200	35.287	0.100
34.300	24.964	0.100
34.400	19.689	0.100
34.500	15.722	0.100
34.600	17.081	0.100
34.700	10.855	0.100
34.800	32.334	0.100
34.900	27.468	0.100
35.000	16.238	0.100
35.100	33.758	0.100
35.200	11.697	0.100
35.300	24.930	0.099
35.400	20.311	0.099
35.500	10.775	0.099
35.600	21.545	0.099
35.700	19.437	0.100
35.800	12.034	0.100
35.900	43.606	0.100
36.000	27.898	0.100
36.100	19.234	0.100
36.200	25.066	0.099
36.300	39.438	0.099
36.400	32.245	0.100
36.500	21.642	0.100
36.600	22.655	0.100
36.700	26.539	0.100
36.800	34.282	0.100
36.900	7.139	0.100
37.000	25.574	0.100
37.100	32.045	0.100
37.200	31.689	0.100
37.300	24.562	0.100
37.400	23.687	0.100
37.500	26.211	0.100
37.600	17.444	0.100
37.700	26.499	0.100
37.800	25.048	0.100
37.900	21.718	0.100
38.000	27.477	0.100
38.100	26.559	0.100
38.200	23.824	0.100
38.300	26.681	0.100
38.400	34.045	0.100
38.500	35.570	0.100
38.600	16.553	0.100
38.700	18.516	0.100
38.800	33.921	0.099
38.900	35.112	0.100
39.000	18.256	0.100
39.100	28.478	0.099
39.200	32.669	0.099
39.300	22.685	0.099
39.400	16.498	0.100
39.500	36.013	0.099
39.600	28.755	0.100
39.700	14.507	0.099
39.800	36.489	0.100
39.900	18.336	0.100
40.000	12.884	0.100
40.100	23.293	0.100
40.200	15.356	0.100
40.300	31.894	0.099
40.400	21.689	0.099
40.500	23.197	0.100
40.600	21.872	0.100
40.700	20.816	0.100
40.800	17.752	0.100
40.900	21.086	0.100
41.000	33.444	0.100
41.100	12.646	0.100
41.200	26.287	0.100
41.300	17.817	0.099
41.400	16.498	0.100
41.500	4.529	0.100
41.600	14.329	0.100
41.700	17.484	0.100
41.800	30.912	0.100
41.900	31.180	0.100
42.000	22.727	0.100
42.100	9.959	0.100
42.200	17.464	0.100
42.300	29.359	0.100
42.400	23.223	0.100
42.500	28.946	0.099
42.600	9.220	0.100
42.700	-4.103	0.100
42.800	23.991	0.100
42.900	12.407	0.100
43.000	6.817	0.100
43.100	-0.045	0.099
43.200	11.068	0.099
43.300	30.075	0.100
43.400	14.488	0.099
43.500	15.623	0.099
43.600	11.385	0.100
43.700	17.809	0.100
43.800	4.558	0.099
43.900	37.080	0.100
44.000	27.372	0.099
44.100	24.215	0.100
44.200	11.324	0.100
44.300	14.407	0.099
44.400	25.894	0.099
44.500	21.191	0.100
44.600	15.128	0.100
44.700	7.775	0.100
44.800	11.511	0.100
44.900	17.236	0.100
45.000	20.731	0.100
45.100	4.603	0.099
45.200	13.714	0.099
45.300	15.405	0.099
45.400	15.902	0.100
45.500	6.139	0.100
45.600	23.774	0.099
45.700	19.373	0.100
45.800	4.705	0.100
45.900	20.745	0.100
46.000	28.112	0.100
46.100	21.991	0.100
46.200	11.449	0.100
46.300	7.241	0.100
46.400	14.488	0.100
46.500	32.592	0.099
46.600	16.032	0.100
46.700	11.146	0.100
46.800	-4.369	0.100
46.900	11.636	0.099
47.000	2.046	0.100
47.100	11.125	0.100
47.200	25.405	0.100
47.300	25.049	0.099
47.400	16.498	0.099
47.500	7.075	0.099
47.600	2.818	0.099
47.700	13.721	0.100
47.800	12.963	0.100
47.900	7.441	0.100
48.000	6.358	0.100
48.100	21.579	0.100
48.200	20.572	0.100
48.300	9.319	0.100
48.400	15.308	0.099
48.500	14.303	0.100
48.600	7.540	0.099
48.700	19.084	0.099
48.800	12.522	0.099
48.900	13.163	0.100
49.000	2.000	0.099
49.100	11.897	0.099
49.200	27.650	0.100
49.300	14.791	0.100
49.400	15.607	0.100
49.500	22.176	0.100
49.600	12.782	0.100
49.700	15.926	0.100
49.800	4.933	0.100
49.900	8.160	0.100
50.000	10.960	0.100
50.100	18.350	0.099
50.200	8.893	0.100
50.300	22.189	0.100
50.400	15.166	0.100
50.500	10.147	0.100
50.600	17.883	0.100
50.700	6.973	0.100
50.800	15.188	0.099
50.900	7.941	0.100
51.000	21.007	0.100
51.100	7.354	0.100
51.200	17.754	0.100
51.300	13.066	0.100
51.400	19.699	0.100
51.500	10.732	0.100
51.600	26.416	0.099
51.700	18.490	0.100
51.800	17.971	0.100
51.900	14.408	0.100
52.000	3.825	0.100
52.100	23.656	0.100
52.200	6.512	0.100
52.300	15.967	0.100
52.400	22.078	0.100
52.500	9.294	0.100
52.600	22.327	0.100
52.700	15.872	0.100
52.800	17.865	0.099
52.900	18.463	0.100
53.000	18.258	0.100
53.100	20.734	0.100
53.200	7.666	0.100
53.300	14.656	0.100
53.400	26.132	0.100
53.500	15.123	0.100
53.600	17.726	0.100
53.700	23.382	0.099
53.800	8.497	0.100
53.900	20.745	0.100
54.000	21.206	0.100
54.100	11.324	0.100
54.200	7.873	0.100
54.300	15.252	0.100
54.400	25.708	0.100
54.500	18.727	0.100
54.600	22.095	0.100
54.700	14.061	0.100
54.800	9.439	0.100
54.900	19.070	0.100
55.000	21.250	0.100
55.100	22.521	0.100
55.200	22.621	0.100
55.300	10.123	0.100
55.400	14.720	0.100
55.500	11.557	0.100
55.600	21.356	0.100
55.700	14.007	0.100
55.800	13.327	0.099
55.900	31.287	0.099
56.000	13.785	0.100
56.100	19.777	0.100
56.200	14.758	0.100
56.300	24.880	0.099
56.400	3.823	0.100
56.500	23.526	0.100
56.600	10.481	0.100
56.700	20.122	0.099
56.800	31.354	0.100
56.900	20.652	0.100
57.000	20.750	0.100
57.100	7.938	0.100
57.200	16.569	0.100
57.300	30.620	0.100
57.400	17.208	0.100
57.500	16.226	0.100
57.600	20.340	0.100
57.700	23.710	0.100
57.800	20.511	0.100
57.900	26.255	0.100
58.000	15.526	0.100
58.100	14.051	0.100
58.200	18.856	0.099
58.300	18.115	0.100
58.400	23.319	0.100
58.500	13.636	0.100
58.600	26.222	0.100
58.700	16.785	0.100
58.800	15.016	0.100
58.900	12.680	0.100
59.000	19.450	0.100
59.100	26.928	0.100
59.200	19.213	0.100
59.300	19.626	0.100
59.400	13.889	0.100
59.500	17.794	0.100
59.600	25.299	0.100
59.700	19.491	0.100
59.800	26.708	0.100
59.900	10.613	0.100
60.000	5.307	0.100
60.100	15.091	0.099
60.200	15.316	0.100
60.300	33.326	0.100
60.400	5.322	0.100
60.500	13.200	0.100
60.600	15.613	0.099
60.700	7.321	0.099
60.800	21.829	0.100
60.900	17.991	0.100
61.000	24.034	0.099
61.100	30.647	0.100
61.200	12.818	0.100
61.300	16.818	0.100
61.400	22.123	0.100
61.500	22.742	0.099
61.600	8.294	0.099
61.700	19.135	0.100
61.800	20.819	0.100
61.900	22.367	0.100
62.000	16.704	0.100
62.100	22.331	0.100
62.200	23.268	0.100
62.300	18.876	0.100
62.400	16.292	0.099
62.500	25.885	0.099
62.600	33.286	0.099
62.700	24.908	0.100
62.800	23.603	0.100
62.900	22.577	0.100
63.000	19.311	0.100
63.100	19.536	0.100
63.200	11.706	0.100
63.300	19.450	0.100
63.400	11.898	0.100
63.500	29.058	0.100
63.600	14.618	0.100
63.700	12.711	0.099
63.800	22.613	0.100
63.900	2.591	0.100
64.000	7.985	0.100
64.100	18.317	0.100
64.200	32.769	0.100
64.300	18.811	0.100
64.400	25.582	0.100
64.500	26.172	0.099
64.600	15.834	0.100
64.700	12.523	0.100
64.800	18.360	0.099
64.900	32.176	0.100
65.000	21.868	0.100
65.100	9.767	0.100
65.200	6.708	0.099
65.300	16.650	0.100
65.400	33.756	0.099
65.500	37.038	0.100
65.600	23.109	0.099
65.700	23.138	0.099
65.800	19.414	0.100
65.900	27.893	0.100
66.000	22.719	0.100
66.100	11.778	0.100
66.200	20.135	0.100
66.300	33.367	0.100
66.400	9.663	0.100
66.500	27.134	0.099
66.600	12.839	0.100
66.700	12.142	0.100
66.800	21.137	0.099
66.900	18.385	0.100
67.000	29.830	0.100
67.100	17.403	0.100
67.200	28.792	0.100
67.300	31.538	0.099
67.400	15.746	0.100
67.500	25.622	0.100
67.600	22.036	0.100
67.700	29.468	0.100
67.800	20.814	0.100
67.900	28.125	0.100
68.000	21.741	0.099
68.100	19.141	0.100
68.200	22.488	0.099
68.300	20.284	0.100
68.400	11.536	0.099
68.500	24.732	0.100
68.600	21.326	0.100
68.700	24.193	0.100
68.800	18.655	0.100
68.900	16.714	0.099
69.000	12.926	0.100
69.100	21.864	0.100
69.200	18.791	0.100
69.300	5.236	0.099
69.400	15.429	0.100
69.500	14.644	0.099
69.600	26.544	0.099
69.700	20.995	0.099
69.800	19.682	0.099
69.900	25.005	0.100
70.000	24.734	0.099
70.100	26.268	0.099
70.200	23.536	0.100
70.300	24.838	0.100
70.400	13.642	0.100
70.500	24.856	0.099
70.600	20.861	0.099
70.700	20.391	0.100
70.800	28.710	0.100
70.900	23.106	0.100
71.000	22.674	0.100
71.100	23.107	0.100
71.200	28.855	0.100
71.300	31.913	0.099
71.400	21.809	0.100
71.500	16.630	0.100
71.600	13.271	0.100
71.700	29.094	0.099
71.800	17.180	0.100
71.900	9.627	0.100
72.000	24.042	0.099
72.100	21.483	0.100
72.200	18.203	0.100
72.300	26.337	0.100
72.400	26.957	0.099
72.500	22.845	0.100
72.600	27.942	0.100
72.700	19.556	0.099
72.800	1.410	0.100
72.900	17.917	0.100
73.000	20.107	0.100
73.100	32.852	0.099
73.200	18.593	0.100
73.300	16.874	0.100
73.400	38.840	0.100
73.500	30.223	0.100
73.600	22.227	0.099
73.700	25.891	0.100
73.800	26.228	0.100
73.900	15.450	0.100
74.000	27.781	0.100
74.100	17.230	0.100
74.200	31.024	0.100
74.300	35.112	0.100
74.400	19.896	0.100
74.500	19.759	0.099
74.600	22.882	0.100
74.700	18.831	0.099
74.800	18.457	0.099
74.900	25.922	0.100
75.000	10.759	0.100
75.100	11.849	0.100
75.200	21.984	0.100
75.300	36.434	0.100
75.400	26.536	0.100
75.500	26.531	0.100
75.600	5.108	0.099
75.700	27.842	0.099
75.800	21.720	0.100
75.900	23.270	0.100
76.000	32.690	0.099
76.100	24.010	0.100
76.200	21.587	0.100
76.300	14.980	0.100
76.400	23.703	0.099
76.500	19.765	0.099
76.600	19.164	0.100
76.700	19.354	0.100
76.800	17.832	0.100
76.900	20.081	0.100
77.000	13.543	0.099
77.100	29.294	0.100
77.200	22.820	0.100
77.300	21.162	0.100
77.400	31.262	0.100
77.500	31.668	0.100
77.600	28.703	0.100
77.700	7.233	0.100
77.800	23.508	0.100
77.900	33.282	0.099
78.000	26.969	0.100
78.100	32.111	0.100
78.200	29.523	0.100
78.300	29.049	0.100
78.400	10.220	0.099
78.500	24.569	0.100
78.600	21.748	0.100
78.700	20.446	0.100
78.800	34.253	0.100
78.900	25.485	0.100
79.000	28.505	0.100
79.100	21.103	0.100
79.200	21.999	0.100
79.300	27.280	0.100
79.400	30.068	0.100
79.500	22.874	0.100
79.600	17.935	0.100
79.700	29.329	0.100
79.800	22.824	0.100
79.900	19.466	0.100
80.000	25.050	0.100
80.100	14.392	0.100
80.200	15.874	0.100
80.300	23.606	0.100
80.400	15.194	0.099
80.500	18.308	0.100
80.600	22.581	0.099
80.700	25.838	0.100
80.800	8.503	0.099
80.900	37.006	0.100
81.000	23.550	0.100
81.100	14.010	0.100
81.200	21.512	0.100
81.300	14.780	0.100
81.400	17.757	0.100
81.500	26.278	0.100
81.600	11.402	0.099
81.700	19.318	0.100
81.800	30.913	0.100
81.900	15.221	0.100
82.000	14.509	0.100
82.100	26.789	0.100
82.200	28.054	0.099
82.300	18.774	0.100
82.400	24.163	0.099
82.500	24.925	0.100
82.600	22.414	0.100
82.700	15.477	0.100
82.800	33.255	0.100
82.900	28.904	0.100
83.000	12.990	0.099
83.100	11.716	0.100
83.200	35.417	0.100
83.300	32.084	0.100
83.400	28.389	0.100
83.500	36.183	0.100
83.600	28.997	0.100
83.700	18.432	0.099
83.800	18.388	0.100
83.900	35.525	0.100
84.000	50.083	0.100
84.100	22.543	0.100
84.200	27.314	0.100
84.300	28.115	0.099
84.400	19.680	0.100
84.500	25.964	0.100
84.600	28.755	0.099
84.700	27.805	0.100
84.800	11.779	0.099
84.900	35.793	0.100
85.000	25.399	0.100
85.100	11.915	0.100
85.200	34.591	0.100
85.300	19.570	0.100
85.400	29.276	0.100
85.500	30.342	0.100
85.600	16.634	0.099
85.700	14.543	0.100
85.800	28.358	0.099
85.900	26.626	0.099
86.000	24.528	0.100
86.100	31.310	0.100
86.200	26.417	0.100
86.300	25.133	0.100
86.400	25.716	0.100
86.500	13.671	0.099
86.600	24.387	0.100
86.700	36.779	0.100
86.800	24.604	0.100
86.900	22.171	0.099
87.000	28.846	0.100
87.100	20.355	0.099
87.200	24.418	0.100
87.300	12.268	0.099
87.400	23.732	0.099
87.500	34.616	0.100
87.600	13.083	0.100
87.700	25.970	0.100
87.800	7.392	0.099
87.900	12.166	0.099
88.000	22.665	0.099
88.100	18.078	0.099
88.200	25.294	0.100
88.300	19.105	0.100
88.400	28.959	0.099
88.500	21.832	0.100
88.600	25.534	0.100
88.700	0.315	0.099
88.800	40.560	0.099
88.900	30.710	0.100
89.000	24.482	0.100
89.100	31.069	0.099
89.200	10.507	0.099
89.300	9.001	0.100
89.400	37.944	0.099
89.500	22.888	0.099
89.600	18.572	0.099
89.700	16.438	0.099
89.800	32.059	0.099
89.900	31.748	0.099
90.000	-2.410	0.099
90.100	21.432	0.099
90.200	19.886	0.099
90.300	25.256	0.100
90.400	14.109	0.100
90.500	6.031	0.099
90.600	5.243	0.100
90.700	-1.768	0.099
90.800	6.888	0.100
90.900	10.914	0.099
91.000	-9.790	0.099
91.100	-3.125	0.100
91.200	-12.996	0.100
91.300	-7.997	0.100
91.400	5.672	0.099
91.500	-4.561	0.100
91.600	-5.252	0.100
91.700	-19.898	0.100
91.800	-4.339	0.100
91.900	-4.942	0.100
92.000	-9.571	0.100
92.100	-8.269	0.100
92.200	-21.175	0.099
92.300	-21.754	0.099
92.400	-17.177	0.099
92.500	-12.727	0.099
92.600	-0.694	0.100
92.700	-8.985	0.100
92.800	-17.054	0.100
92.900	-24.589	0.099
93.000	-24.915	0.100
93.100	-20.503	0.099
93.200	1.598	0.100
93.300	-25.878	0.100
93.400	-19.784	0.100
93.500	-19.902	0.100
93.600	-13.787	0.100
93.700	-2.395	0.100
93.800	-21.508	0.099
93.900	-18.710	0.100
94.000	-11.417	0.100
94.100	-9.353	0.100
94.200	-23.033	0.100
94.300	-16.334	0.100
94.400	-7.135	0.100
94.500	-10.631	0.100
94.600	-27.188	0.099
94.700	-23.306	0.100
94.800	-27.662	0.100
94.900	-16.304	0.099
95.000	-22.298	0.099
95.100	-10.024	0.100
95.200	-10.656	0.100
95.300	-16.409	0.100
95.400	-24.539	0.099
95.500	-12.870	0.099
95.600	-17.347	0.100
95.700	-18.218	0.099
95.800	-2.655	0.099
95.900	-20.028	0.100
96.000	-13.444	0.100
96.100	-6.525	0.100
96.200	-22.144	0.099
96.300	-23.036	0.100
96.400	-15.922	0.099
96.500	-1.049	0.099
96.600	-8.500	0.100
96.700	-12.298	0.099
96.800	-17.368	0.099
96.900	-5.099	0.100
97.000	-18.473	0.100
97.100	-16.141	0.099
97.200	-23.721	0.099
97.300	-10.875	0.100
97.400	-22.928	0.099
97.500	-16.362	0.099
97.600	-11.319	0.100
97.700	-13.944	0.100
97.800	-12.611	0.100
97.900	-13.040	0.099
98.000	-15.717	0.100
98.100	-15.182	0.100
98.200	-18.134	0.100
98.300	-10.277	0.100
98.400	-9.775	0.100
98.500	-6.448	0.100
98.600	-6.785	0.100
98.700	-17.879	0.100
98.800	-19.534	0.099
98.900	-16.444	0.100
99.000	-16.731	0.100
99.100	-9.490	0.100
99.200	-9.437	0.100
99.300	-15.927	0.100
99.400	-17.112	0.099
99.500	-10.148	0.100
99.600	-13.009	0.100
99.700	-17.711	0.100
99.800	-10.257	0.100
99.900	-2.461	0.100
100.000	-26.618	0.100
100.100	-27.928	0.100
100.200	-19.636	0.100
100.300	-10.083	0.099
100.400	-12.947	0.099
100.500	-22.999	0.099
100.600	-5.892	0.100
100.700	-10.001	0.100
100.800	-12.250	0.099
100.900	-22.910	0.100
101.000	-12.763	0.100
101.100	-20.667	0.100
101.200	-3.369	0.100
101.300	-18.897	0.100
101.400	-21.859	0.099
101.500	-18.761	0.100
101.600	-21.568	0.100
101.700	-20.719	0.100
101.800	-18.332	0.100
101.900	-21.188	0.100
102.000	-11.534	0.100
102.100	-14.869	0.100
102.200	-23.918	0.100
102.300	-9.391	0.100
102.400	-14.194	0.100
102.500	-9.775	0.100
102.600	-14.671	0.099
102.700	-18.148	0.100
102.800	-20.446	0.100
102.900	-28.285	0.100
103.000	-21.564	0.100
103.100	-25.609	0.099
103.200	-10.557	0.100
103.300	-8.182	0.100
103.400	-8.149	0.100
103.500	-15.962	0.100
103.600	-30.336	0.100
103.700	-18.759	0.100
103.800	-18.111	0.100
103.900	-6.329	0.100
104.000	-6.738	0.100
104.100	-15.290	0.100
104.200	-11.041	0.100
104.300	-12.355	0.100
104.400	-17.752	0.100
104.500	-8.443	0.100
104.600	-13.655	0.100
104.700	-14.272	0.100
104.800	-24.311	0.099
104.900	-17.828	0.100
105.000	-18.248	0.100
105.100	-7.464	0.099
105.200	-18.968	0.100
105.300	-28.379	0.100
105.400	-4.791	0.099
105.500	-15.667	0.099
105.600	-21.808	0.099
105.700	-24.895	0.100
105.800	-14.893	0.099
105.900	-12.647	0.099
106.000	-11.722	0.099
106.100	-27.454	0.099
106.200	-6.453	0.099
106.300	-5.747	0.100
106.400	-26.436	0.100
106.500	-10.425	0.099
106.600	-13.492	0.100
106.700	-15.530	0.099
106.800	-18.184	0.100
106.900	-26.592	0.100
107.000	-20.023	0.099
107.100	-10.201	0.100
107.200	-8.592	0.099
107.300	-8.999	0.099
107.400	-9.067	0.100
107.500	-10.332	0.099
107.600	-18.609	0.099
107.700	-3.820	0.099
107.800	-22.176	0.100
107.900	-6.241	0.099
108.000	-23.244	0.100
108.100	-22.153	0.100
108.200	-12.418	0.100
108.300	-20.150	0.100
108.400	-9.837	0.100
108.500	-15.361	0.099
108.600	-25.173	0.099
108.700	-30.247	0.100
108.800	-16.633	0.100
108.900	-22.823	0.099
109.000	-14.878	0.100
109.100	-14.543	0.100
109.200	-8.965	0.100
109.300	-12.506	0.100
109.400	-1.717	0.100
109.500	-17.435	0.099
109.600	-17.000	0.099
109.700	-12.381	0.100
109.800	-18.037	0.100
109.900	-23.282	0.100
110.000	-33.674	0.100
110.100	-11.879	0.100
110.200	-13.412	0.100
110.300	-13.322	0.100
110.400	-10.502	0.099
110.500	-33.281	0.099
110.600	-12.975	0.100
110.700	-11.981	0.100
110.800	-16.294	0.100
110.900	-12.986	0.099
111.000	-27.741	0.099
111.100	-22.480	0.100
111.200	-4.317	0.100
111.300	-4.292	0.100
111.400	-14.143	0.099
111.500	-17.941	0.099
111.600	-19.341	0.099
111.700	-7.427	0.099
111.800	-6.715	0.099
111.900	-29.190	0.099
112.000	-19.435	0.099
112.100	-10.006	0.100
112.200	-14.833	0.100
112.300	-16.705	0.100
112.400	-0.905	0.100
112.500	-14.025	0.099
112.600	-7.711	0.099
112.700	-7.767	0.099
112.800	-19.108	0.099
112.900	-24.780	0.100
113.000	-9.978	0.099
113.100	-27.804	0.099
113.200	-9.978	0.100
113.300	-12.112	0.099
113.400	-26.622	0.099
113.500	-16.676	0.099
113.600	-11.375	0.099
113.700	-13.613	0.100
113.800	-19.148	0.099
113.900	-12.449	0.100
114.000	-15.567	0.099
114.100	-13.770	0.100
114.200	-14.784	0.100
114.300	-17.151	0.100
114.400	-15.275	0.100
114.500	-14.139	0.099
114.600	-22.762	0.099
114.700	-12.976	0.100
114.800	-23.824	0.099
114.900	-25.649	0.100
115.000	-20.596	0.099
115.100	-14.885	0.099
115.200	-0.494	0.099
115.300	-14.655	0.100
115.400	-17.891	0.100
115.500	-8.335	0.100
115.600	-29.054	0.100
115.700	-20.009	0.100
115.800	-29.189	0.100
115.900	-9.789	0.100
116.000	-14.552	0.099
116.100	-19.160	0.100
116.200	-11.957	0.100
116.300	-29.046	0.099
116.400	-25.572	0.099
116.500	-14.674	0.100
116.600	-19.109	0.099
116.700	-23.830	0.099
116.800	-14.289	0.099
116.900	-23.634	0.100
117.000	-1.923	0.099
117.100	-5.995	0.100
117.200	-2.841	0.100
117.300	-37.288	0.100
117.400	-12.621	0.100
117.500	-19.951	0.099
117.600	-26.682	0.099
117.700	-31.761	0.099
117.800	-14.603	0.100
117.900	1.936	0.100
118.000	-12.180	0.099
118.100	-34.714	0.100
118.200	-10.866	0.100
118.300	-12.625	0.100
118.400	-25.393	0.099
118.500	-17.414	0.099
118.600	-16.893	0.100
118.700	-14.020	0.099
118.800	-26.754	0.099
118.900	-10.536	0.100
119.000	-20.781	0.099
119.100	-8.632	0.100
119.200	-8.542	0.099
119.300	-21.182	0.099
119.400	-27.266	0.099
119.500	-4.852	0.100
119.600	-31.029	0.099
119.700	-14.356	0.099
119.800	-27.053	0.099
119.900	-10.271	0.099
120.000	-18.446	0.099
120.100	-14.538	0.099
120.200	-14.073	0.099
120.300	-21.733	0.099
120.400	-8.035	0.099
120.500	-29.874	0.099
120.600	-14.674	0.100
120.700	-13.164	0.100
120.800	-8.054	0.099
120.900	-13.307	0.100
121.000	-27.639	0.099
121.100	-13.481	0.099
121.200	-13.612	0.099
121.300	-5.766	0.100
121.400	-23.246	0.100
121.500	-22.457	0.100
121.600	-19.763	0.099
121.700	-16.629	0.099
121.800	-16.497	0.100
121.900	-12.994	0.099
122.000	-18.189	0.099
122.100	-14.721	0.099
122.200	-33.527	0.099
122.300	-6.867	0.099
122.400	-9.760	0.100
122.500	-21.116	0.100
122.600	-7.510	0.100
122.700	-12.997	0.099
122.800	-21.103	0.099
122.900	-28.940	0.099
123.000	-21.874	0.100
123.100	-9.279	0.099
123.200	-20.370	0.099
123.300	-18.896	0.099
123.400	-11.017	0.099
123.500	-20.706	0.099
123.600	-21.781	0.099
123.700	-4.219	0.100
123.800	-24.502	0.100
123.900	-13.269	0.099
124.000	-38.304	0.099
124.100	-3.456	0.099
124.200	-19.983	0.100
124.300	-15.786	0.099
124.400	-24.815	0.100
124.500	-25.855	0.099
124.600	-9.412	0.099
124.700	-18.435	0.100
124.800	-10.778	0.100
124.900	-20.859	0.099
125.000	-13.015	0.100
125.100	-14.734	0.100
125.200	-23.589	0.099
125.300	-31.554	0.099
125.400	-11.405	0.099
125.500	-21.934	0.099
125.600	-14.566	0.099
125.700	-17.799	0.099
125.800	-10.993	0.099
125.900	-20.361	0.099
126.000	-31.934	0.099
126.100	-12.572	0.099
126.200	-0.423	0.099
126.300	-10.665	0.099
126.400	-18.812	0.099
126.500	-21.342	0.099
126.600	-16.934	0.100
126.700	-11.604	0.100
126.800	-29.020	0.099
126.900	-17.679	0.099
127.000	-13.400	0.100
127.100	-26.943	0.099
127.200	-7.236	0.100
127.300	-18.812	0.099
127.400	-8.752	0.099
127.500	-19.704	0.100
127.600	-17.093	0.099
127.700	-17.026	0.099
127.800	-12.020	0.100
127.900	-24.162	0.099
128.000	-20.182	0.100
128.100	-2.537	0.100
128.200	-3.433	0.099
128.300	-22.788	0.100
128.400	-18.286	0.100
128.500	-14.706	0.100
128.600	-16.944	0.100
128.700	-29.044	0.100
128.800	-6.962	0.100
128.900	-13.703	0.100
129.000	-27.662	0.100
129.100	-13.904	0.099
129.200	-4.497	0.100
129.300	-11.800	0.099
129.400	-27.302	0.099
129.500	-14.965	0.099
129.600	-26.863	0.099
129.700	-18.004	0.100
129.800	-17.822	0.100
129.900	-26.735	0.100
130.000	-7.562	0.099
130.100	-8.794	0.100
130.200	-11.414	0.100
130.300	-18.047	0.099
130.400	-12.522	0.100
130.500	-14.365	0.100
130.600	-35.229	0.100
130.700	-5.969	0.099
130.800	-10.106	0.099
130.900	-27.646	0.099
131.000	-8.234	0.100
131.100	-13.293	0.099
131.200	-19.545	0.100
131.300	-12.395	0.099
131.400	-20.514	0.099
131.500	-18.290	0.100
131.600	-19.587	0.100
131.700	-13.946	0.100
131.800	-13.334	0.100
131.900	-17.876	0.100
132.000	-28.689	0.099
132.100	-10.952	0.100
132.200	-19.027	0.100
132.300	-16.293	0.099
132.400	-24.924	0.100
132.500	-10.316	0.099
132.600	-4.794	0.100
132.700	-13.848	0.100
132.800	-15.456	0.099
132.900	-20.352	0.099
133.000	-19.616	0.100
133.100	-7.603	0.100
133.200	-16.627	0.099
133.300	-23.718	0.100
133.400	-18.631	0.100
133.500	-11.945	0.100
133.600	-21.365	0.099
133.700	-19.167	0.099
133.800	-8.447	0.100
133.900	-22.190	0.099
134.000	-25.638	0.100
134.100	-3.550	0.100
134.200	-9.647	0.100
134.300	-18.419	0.099
134.400	-16.317	0.100
134.500	-21.789	0.100
134.600	-22.095	0.100
134.700	-1.747	0.100
134.800	-19.918	0.100
134.900	-12.539	0.100
135.000	-16.048	0.100
135.100	-19.385	0.100
135.200	-22.442	0.099
135.300	-16.992	0.099
135.400	-13.109	0.100
135.500	-12.777	0.099
135.600	-19.951	0.099
135.700	-5.386	0.100
135.800	-19.085	0.099
135.900	-13.243	0.100
136.000	-16.347	0.100
136.100	-22.176	0.099
136.200	-22.808	0.099
136.300	-16.047	0.100
136.400	-9.279	0.100
136.500	-17.662	0.100
136.600	-21.186	0.099
136.700	-19.429	0.100
136.800	-18.994	0.100
136.900	-16.314	0.100
137.000	-6.471	0.099
137.100	-20.867	0.099
137.200	-9.679	0.099
137.300	-8.550	0.099
137.400	-19.646	0.099
137.500	-21.090	0.099
137.600	-2.956	0.099
137.700	-10.744	0.100
137.800	-13.097	0.100
137.900	-19.224	0.099
138.000	-20.404	0.099
138.100	-29.124	0.100
138.200	-24.822	0.100
138.300	-28.777	0.100
138.400	3.010	0.100
138.500	-23.193	0.099
138.600	-6.005	0.100
138.700	-14.131	0.100
138.800	-9.250	0.100
138.900	-18.446	0.099
139.000	-22.372	0.100
139.100	-14.593	0.099
139.200	-20.080	0.099
139.300	-22.497	0.100
139.400	-8.873	0.100
139.500	-10.309	0.099
139.600	-25.377	0.099
139.700	-21.366	0.099
139.800	-17.068	0.100
139.900	-14.871	0.099
140.000	-11.911	0.099
140.100	-11.825	0.099
140.200	-4.663	0.100
140.300	-12.359	0.099
140.400	-29.917	0.099
140.500	-19.074	0.100
140.600	-26.239	0.100
140.700	-29.508	0.100
140.800	1.541	0.100
140.900	-4.168	0.099
141.000	-26.598	0.100
141.100	-6.978	0.100
141.200	-17.107	0.100
141.300	-22.543	0.099
141.400	-18.734	0.100
141.500	-11.271	0.099
141.600	-0.601	0.100
141.700	-14.857	0.099
141.800	-15.453	0.099
141.900	-13.358	0.100
142.000	-28.404	0.099
142.100	-21.846	0.100
142.200	-9.823	0.100
142.300	-16.487	0.100
142.400	-9.903	0.100
142.500	-3.321	0.099
142.600	-9.959	0.100
142.700	-8.078	0.100
142.800	-14.842	0.100
142.900	-14.357	0.100
143.000	-17.156	0.100
143.100	-19.717	0.100
143.200	-24.870	0.100
143.300	-6.989	0.100
143.400	-9.988	0.100
143.500	-7.534	0.100
143.600	-31.599	0.100
143.700	-11.023	0.100
143.800	-4.610	0.100
143.900	-9.802	0.099
144.000	-9.333	0.100
144.100	-11.840	0.100
144.200	-19.464	0.100
144.300	-23.076	0.100
144.400	-6.131	0.099
144.500	-13.321	0.100
144.600	-8.862	0.100
144.700	-13.349	0.100
144.800	-14.241	0.100
144.900	-16.587	0.100
145.000	-18.148	0.099
145.100	-16.291	0.099
145.200	-23.182	0.099
145.300	-13.246	0.100
145.400	-14.315	0.100
145.500	-18.169	0.099
145.600	-14.562	0.099
145.700	-28.356	0.099
145.800	-5.004	0.100
145.900	-11.797	0.100
146.000	-19.345	0.100
146.100	-18.505	0.100
146.200	-7.742	0.100
146.300	-17.728	0.100
146.400	-22.641	0.100
146.500	-25.055	0.100
146.600	0.749	0.100
146.700	-26.582	0.100
146.800	-8.190	0.100
146.900	-9.493	0.100
147.000	-8.298	0.099
147.100	-10.621	0.100
147.200	-22.238	0.099
147.300	-4.038	0.100
147.400	-29.982	0.100
147.500	-26.116	0.100
147.600	-18.452	0.100
147.700	-21.344	0.099
147.800	-15.875	0.099
147.900	-18.039	0.099
148.000	-9.670	0.099
148.100	-10.146	0.100
148.200	-15.358	0.100
148.300	-25.905	0.100
148.400	-9.743	0.100
148.500	-15.660	0.100
148.600	-22.551	0.099
148.700	-13.819	0.099
148.800	-2.747	0.100
148.900	-12.333	0.099
149.000	-19.102	0.099
149.100	-7.930	0.100
149.200	-13.744	0.100
149.300	-11.879	0.100
149.400	-9.950	0.099
149.500	-3.006	0.100
149.600	-19.253	0.100
149.700	-15.383	0.099
149.800	-19.356	0.099
149.900	-10.268	0.099
150.000	3.984	0.100
150.100	-10.820	0.100
150.200	-0.558	0.100
150.300	-14.445	0.100
150.400	-18.353	0.100
150.500	-21.517	0.099
150.600	-13.389	0.099
150.700	-11.073	0.100
150.800	-16.711	0.099
150.900	-22.694	0.099
151.000	-5.993	0.100
151.100	-3.085	0.100
151.200	-18.015	0.100
151.300	-24.403	0.099
151.400	-4.580	0.099
151.500	-0.935	0.100
151.600	-17.897	0.099
151.700	-8.463	0.099
151.800	-8.358	0.099
151.900	-5.821	0.100
152.000	-21.200	0.099
152.100	-7.221	0.099
152.200	-10.928	0.100
152.300	-23.903	0.099
152.400	-9.211	0.100
152.500	-2.215	0.100
152.600	-11.333	0.100
152.700	-11.847	0.099
152.800	-10.944	0.099
152.900	-24.352	0.099
153.000	-8.690	0.100
153.100	-12.564	0.100
153.200	-18.656	0.100
153.300	-11.668	0.100
153.400	-22.645	0.100
153.500	-2.693	0.099
153.600	-5.857	0.100
153.700	-39.416	0.100
153.800	-1.218	0.099
153.900	-15.302	0.100
154.000	-12.452	0.100
154.100	-11.871	0.100
154.200	-15.050	0.100
154.300	-6.984	0.100
154.400	-29.554	0.100
154.500	-8.880	0.100
154.600	-10.077	0.100
154.700	-16.368	0.100
154.800	-17.496	0.099
154.900	-18.562	0.099
155.000	-13.595	0.099
155.100	-13.161	0.099
155.200	-12.301	0.099
155.300	-22.682	0.099
155.400	-21.594	0.099
155.500	-8.052	0.100
155.600	-8.779	0.099
155.700	-18.344	0.099
155.800	-7.652	0.099
155.900	-14.712	0.099
156.000	-14.056	0.099
156.100	-19.210	0.099
156.200	-14.430	0.099
156.300	-17.339	0.099
156.400	-9.166	0.099
156.500	-13.260	0.099
156.600	-14.514	0.099
156.700	-12.280	0.100
156.800	-28.368	0.100
156.900	-9.521	0.100
157.000	-6.596	0.100
157.100	-7.741	0.100
157.200	-18.880	0.100
157.300	-19.725	0.100
157.400	-2.666	0.100
157.500	-11.007	0.099
157.600	-15.404	0.099
157.700	-1.832	0.100
157.800	-22.715	0.100
157.900	-17.859	0.100
158.000	-2.450	0.100
158.100	-24.342	0.100
158.200	-4.694	0.100
158.300	-12.189	0.100
158.400	-13.483	0.099
158.500	-14.274	0.100
158.600	-12.638	0.100
158.700	-15.946	0.100
158.800	-18.283	0.100
158.900	-13.372	0.100
159.000	-11.799	0.100
159.100	-10.739	0.100
159.200	-26.865	0.100
159.300	-4.451	0.100
159.400	-18.544	0.100
159.500	-9.971	0.099
159.600	-13.649	0.100
159.700	-22.559	0.100
159.800	-10.694	0.100
159.900	-0.636	0.100
160.000	-15.723	0.100
160.100	-10.388	0.100
160.200	-10.852	0.099
160.300	-15.051	0.100
160.400	-16.361	0.100
160.500	-14.740	0.099
160.600	-18.611	0.100
160.700	-23.181	0.100
160.800	-14.941	0.100
160.900	-4.526	0.100
161.000	-4.161	0.100
161.100	-10.505	0.099
161.200	-4.760	0.100
161.300	-14.934	0.099
161.400	-12.674	0.100
161.500	-33.598	0.099
161.600	-15.009	0.100
161.700	-4.975	0.100
161.800	-8.890	0.100
161.900	-11.212	0.100
162.000	-9.025	0.100
162.100	-16.433	0.100
162.200	-14.223	0.100
162.300	-23.467	0.100
162.400	-8.723	0.100
162.500	-19.825	0.099
162.600	-20.967	0.099
162.700	-8.628	0.100
162.800	-15.036	0.100
162.900	-4.226	0.100
163.000	-14.867	0.100
163.100	-2.459	0.100
163.200	-9.169	0.100
163.300	-1.687	0.100
163.400	-8.955	0.100
163.500	-13.481	0.100
163.600	-10.700	0.099
163.700	-17.695	0.100
163.800	-25.619	0.100
163.900	1.359	0.099
164.000	-5.822	0.100
164.100	-12.325	0.100
164.200	-4.176	0.100
164.300	-7.965	0.100
164.400	-18.338	0.100
164.500	-28.574	0.099
164.600	-13.227	0.100
164.700	-12.973	0.099
164.800	-15.980	0.100
164.900	-4.578	0.099
165.000	-19.371	0.099
165.100	-14.284	0.099
165.200	-12.937	0.099
165.300	-9.390	0.099
165.400	-8.711	0.099
165.500	-13.068	0.099
165.600	-17.496	0.099
165.700	-5.919	0.099
165.800	-11.226	0.099
165.900	-22.277	0.100
166.000	3.696	0.099
166.100	-9.134	0.099
166.200	-17.127	0.099
166.300	-6.162	0.099
166.400	-6.710	0.100
166.500	-7.583	0.099
166.600	-12.302	0.099
166.700	-17.340	0.099
166.800	-12.222	0.100
166.900	-4.825	0.100
167.000	-5.323	0.099
167.100	-12.412	0.100
167.200	-7.003	0.100
167.300	-17.452	0.100
167.400	-14.708	0.100
167.500	-26.078	0.099
167.600	-3.579	0.100
167.700	-4.939	0.099
167.800	-20.526	0.099
167.900	-37.253	0.099
168.000	-12.101	0.099
168.100	-4.854	0.100
168.200	-1.423	0.100
168.300	-24.401	0.100
168.400	-5.052	0.100
168.500	-26.410	0.100
168.600	-10.695	0.099
168.700	-10.740	0.100
168.800	-2.082	0.100
168.900	-10.813	0.100
169.000	-11.165	0.100
169.100	-1.782	0.100
169.200	-0.664	0.100
169.300	-12.869	0.100
169.400	-3.422	0.100
169.500	-16.427	0.100
169.600	-5.781	0.100
169.700	-3.606	0.100
169.800	-14.737	0.099
169.900	-15.808	0.099
170.000	-5.174	0.099
170.100	-25.722	0.099
170.200	-16.326	0.099
170.300	-9.248	0.099
170.400	-21.373	0.099
170.500	-12.269	0.100
170.600	-8.961	0.100
170.700	-0.986	0.100
170.800	-28.171	0.099
170.900	-5.024	0.100
171.000	-14.107	0.099
171.100	-5.547	0.100
171.200	-16.435	0.100
171.300	-6.227	0.100
171.400	-11.329	0.100
171.500	-13.516	0.099
171.600	-12.598	0.100
171.700	-5.546	0.100
171.800	-12.498	0.100
171.900	-14.853	0.099
172.000	-9.507	0.099
172.100	-6.212	0.099
172.200	-12.199	0.100
172.300	-18.443	0.100
172.400	-10.581	0.100
172.500	3.153	0.099
172.600	-8.117	0.099
172.700	-16.119	0.100
172.800	-16.997	0.100
172.900	-12.702	0.099
173.000	-13.844	0.100
173.100	-13.031	0.100
173.200	-7.648	0.100
173.300	-6.434	0.099
173.400	-26.886	0.099
173.500	0.562	0.100
173.600	-29.625	0.099
173.700	-12.013	0.099
173.800	-15.967	0.100
173.900	-11.009	0.100
174.000	-6.546	0.100
174.100	-14.362	0.100
174.200	-15.356	0.100
174.300	-15.813	0.100
174.400	-4.945	0.100
174.500	-4.699	0.099
174.600	-10.337	0.100
174.700	-14.430	0.100
174.800	-28.138	0.100
174.900	-13.741	0.100
175.000	-7.478	0.100
175.100	-8.973	0.100
175.200	-16.582	0.100
175.300	-17.317	0.100
175.400	-15.711	0.099
175.500	-8.975	0.100
175.600	-5.712	0.100
175.700	-16.888	0.099
175.800	-8.806	0.099
175.900	1.801	0.100
176.000	-3.429	0.100
176.100	-15.347	0.099
176.200	-16.037	0.099
176.300	-16.736	0.099
176.400	-15.068	0.099
176.500	-14.118	0.100
176.600	-9.994	0.100
176.700	-18.712	0.099
176.800	-6.408	0.099
176.900	-14.144	0.100
177.000	-22.293	0.100
177.100	-17.265	0.100
177.200	-7.635	0.100
177.300	-14.399	0.100
177.400	-16.150	0.099
177.500	-12.360	0.100
177.600	-5.094	0.099
177.700	-11.855	0.100
177.800	-19.878	0.100
177.900	-1.023	0.099
178.000	-20.237	0.099
178.100	-17.129	0.099
178.200	-17.227	0.099
178.300	-7.705	0.100
178.400	-17.543	0.100
178.500	-7.915	0.100
178.600	-4.361	0.100
178.700	-18.283	0.100
178.800	-10.230	0.100
178.900	-15.570	0.100
179.000	-18.960	0.100
179.100	-17.277	0.099
179.200	-3.849	0.100
179.300	-6.104	0.100
179.400	-2.370	0.099
179.500	-13.623	0.099
179.600	-15.448	0.100
179.700	-22.146	0.100
179.800	-16.192	0.100
179.900	-14.010	0.100
180.000	3.197	0.100
180.100	0.172	0.100
180.200	-1.714	0.100
180.300	11.087	0.100
180.400	6.918	0.100
180.500	9.186	0.100
180.600	-3.319	0.099
180.700	7.026	0.099
180.800	28.709	0.100
180.900	12.000	0.100
181.000	19.823	0.099
181.100	13.800	0.100
181.200	17.363	0.100
181.300	23.318	0.099
181.400	21.241	0.100
181.500	11.074	0.100
181.600	19.106	0.100
181.700	24.233	0.100
181.800	32.739	0.100
181.900	16.107	0.100
182.000	17.819	0.099
182.100	20.254	0.100
182.200	20.698	0.100
182.300	18.146	0.099
182.400	22.230	0.100
182.500	18.763	0.100
182.600	17.424	0.100
182.700	11.459	0.100
182.800	35.529	0.100
182.900	17.368	0.100
183.000	20.083	0.100
183.100	14.943	0.100
183.200	15.633	0.100
183.300	15.785	0.099
183.400	10.494	0.100
183.500	10.043	0.099
183.600	11.379	0.100
183.700	20.501	0.100
183.800	20.544	0.100
183.900	-6.607	0.100
184.000	2.653	0.100
184.100	3.818	0.100
184.200	15.328	0.099
184.300	18.481	0.100
184.400	12.092	0.100
184.500	21.314	0.100
184.600	15.046	0.100
184.700	17.859	0.100
184.800	20.632	0.100
184.900	8.234	0.099
185.000	20.554	0.100
185.100	11.506	0.100
185.200	15.310	0.100
185.300	12.187	0.100
185.400	16.692	0.100
185.500	11.625	0.100
185.600	28.865	0.100
185.700	27.126	0.099
185.800	27.569	0.100
185.900	14.271	0.099
186.000	24.113	0.099
186.100	21.226	0.099
186.200	22.650	0.099
186.300	35.089	0.099
186.400	16.238	0.099
186.500	5.302	0.100
186.600	28.437	0.099
186.700	17.825	0.099
186.800	17.928	0.099
186.900	18.864	0.099
187.000	13.699	0.100
187.100	28.202	0.100
187.200	23.325	0.100
187.300	14.431	0.099
187.400	30.570	0.099
187.500	22.495	0.099
187.600	24.671	0.099
187.700	18.759	0.099
187.800	25.214	0.100
187.900	36.746	0.099
188.000	36.336	0.099
188.100	30.677	0.100
188.200	20.187	0.099
188.300	36.993	0.100
188.400	41.578	0.100
188.500	35.014	0.100
188.600	23.091	0.100
188.700	31.093	0.100
188.800	28.435	0.100
188.900	33.261	0.100
189.000	23.058	0.099
189.100	27.781	0.100
189.200	29.384	0.099
189.300	37.922	0.100
189.400	36.144	0.100
189.500	27.165	0.100
189.600	24.034	0.100
189.700	34.518	0.100
189.800	37.939	0.100
189.900	36.937	0.100
190.000	39.666	0.100
190.100	30.023	0.100
190.200	32.271	0.100
190.300	28.819	0.100
190.400	41.252	0.100
190.500	27.460	0.100
190.600	27.317	0.100
190.700	15.388	0.100
190.800	36.220	0.100
190.900	45.310	0.100
191.000	38.859	0.100
191.100	21.142	0.100
191.200	31.858	0.099
191.300	47.506	0.100
191.400	34.755	0.099
191.500	24.127	0.100
191.600	37.498	0.099
191.700	29.175	0.100
191.800	37.711	0.099
191.900	23.147	0.100
192.000	34.110	0.100
192.100	42.526	0.099
192.200	38.944	0.100
192.300	12.250	0.099
192.400	37.129	0.099
192.500	41.460	0.100
192.600	38.464	0.099
192.700	35.102	0.100
192.800	28.089	0.100
192.900	26.538	0.099
193.000	49.520	0.099
193.100	46.605	0.099
193.200	26.438	0.099
193.300	33.844	0.099
193.400	38.431	0.099
193.500	28.837	0.099
193.600	31.446	0.100
193.700	28.823	0.100
193.800	37.426	0.100
193.900	38.150	0.100
194.000	28.061	0.099
194.100	27.750	0.099
194.200	31.423	0.099
194.300	47.167	0.099
194.400	43.620	0.100
194.500	36.855	0.100
194.600	36.493	0.099
194.700	28.067	0.099
194.800	14.449	0.100
194.900	37.183	0.099
195.000	17.855	0.099
195.100	47.183	0.099
195.200	48.120	0.100
195.300	34.764	0.100
195.400	28.885	0.099
195.500	42.104	0.100
195.600	40.295	0.100
195.700	41.727	0.099
195.800	34.642	0.100
195.900	25.660	0.099
196.000	29.442	0.099
196.100	41.008	0.100
196.200	31.731	0.099
196.300	21.483	0.100
196.400	23.621	0.099
196.500	35.043	0.099
196.600	38.205	0.099
196.700	32.884	0.099
196.800	28.514	0.100
196.900	25.125	0.099
197.000	26.619	0.100
197.100	27.183	0.099
197.200	49.061	0.099
197.300	35.415	0.100
197.400	32.916	0.100
197.500	42.216	0.099
197.600	30.448	0.100
197.700	26.678	0.100
197.800	28.522	0.099
197.900	29.058	0.099
198.000	31.509	0.099
198.100	35.434	0.100
198.200	34.657	0.100
198.300	32.563	0.100
198.400	39.740	0.100
198.500	45.179	0.100
198.600	25.777	0.100
198.700	30.624	0.099
198.800	33.232	0.099
198.900	36.048	0.099
199.000	35.032	0.099
199.100	27.388	0.100
199.200	44.393	0.099
199.300	40.019	0.100
199.400	32.302	0.099
199.500	24.036	0.099
199.600	18.097	0.100
199.700	20.713	0.100
199.800	31.971	0.099
199.900	26.928	0.100
200.000	36.179	0.100
200.100	27.740	0.099
200.200	28.720	0.099
200.300	38.441	0.100
200.400	34.842	0.099
200.500	28.368	0.099
200.600	32.449	0.100
200.700	21.837	0.099
200.800	33.771	0.100
200.900	28.514	0.099
201.000	20.566	0.100
201.100	34.084	0.100
201.200	34.747	0.099
201.300	40.070	0.100
201.400	23.366	0.100
201.500	29.320	0.099
201.600	31.463	0.099
201.700	27.898	0.099
201.800	21.302	0.099
201.900	43.955	0.100
202.000	9.965	0.099
202.100	23.688	0.099
202.200	33.561	0.099
202.300	36.643	0.100
202.400	26.819	0.099
202.500	37.171	0.100
202.600	27.342	0.100
202.700	32.490	0.100
202.800	28.115	0.100
202.900	36.704	0.100
203.000	29.648	0.099
203.100	33.793	0.100
203.200	27.806	0.100
203.300	31.433	0.099
203.400	33.689	0.099
203.500	28.913	0.099
203.600	25.320	0.099
203.700	33.031	0.099
203.800	42.227	0.100
203.900	26.299	0.100
204.000	23.992	0.100
204.100	46.720	0.099
204.200	26.223	0.100
204.300	28.062	0.099
204.400	11.969	0.099
204.500	46.968	0.099
204.600	36.532	0.099
204.700	16.560	0.100
204.800	30.158	0.100
204.900	27.643	0.099
205.000	30.065	0.099
205.100	24.964	0.100
205.200	38.927	0.100
205.300	36.161	0.099
205.400	28.825	0.100
205.500	31.452	0.100
205.600	26.194	0.100
205.700	28.992	0.099
205.800	25.202	0.100
205.900	37.365	0.099
206.000	32.659	0.099
206.100	25.271	0.099
206.200	33.963	0.100
206.300	31.810	0.100
206.400	25.664	0.100
206.500	29.931	0.099
206.600	14.438	0.100
206.700	28.652	0.099
206.800	22.530	0.099
206.900	38.159	0.100
207.000	34.911	0.099
207.100	17.885	0.099
207.200	31.645	0.099
207.300	25.485	0.099
207.400	34.461	0.099
207.500	35.652	0.099
207.600	43.243	0.099
207.700	24.647	0.100
207.800	43.922	0.100
207.900	25.803	0.100
208.000	20.231	0.099
208.100	26.730	0.099
208.200	31.106	0.099
208.300	36.244	0.099
208.400	22.244	0.099
208.500	30.887	0.099
208.600	34.313	0.100
208.700	29.540	0.099
208.800	25.198	0.099
208.900	20.283	0.099
209.000	21.491	0.099
209.100	25.498	0.100
209.200	24.410	0.099
209.300	34.876	0.099
209.400	33.245	0.099
209.500	33.057	0.100
209.600	40.604	0.099
209.700	33.701	0.099
209.800	29.383	0.099
209.900	38.939	0.100
210.000	41.578	0.099
210.100	17.482	0.099
210.200	41.670	0.099
210.300	10.220	0.099
210.400	32.036	0.099
210.500	17.565	0.099
210.600	25.540	0.100
210.700	35.775	0.099
210.800	34.211	0.099
210.900	36.295	0.099
211.000	25.180	0.099
211.100	25.857	0.099
211.200	17.761	0.100
211.300	35.568	0.099
211.400	36.419	0.099
211.500	21.909	0.099
211.600	28.608	0.099
211.700	22.729	0.099
211.800	25.262	0.099
211.900	12.412	0.100
212.000	36.591	0.099
212.100	26.272	0.099
212.200	30.784	0.099
212.300	25.032	0.099
212.400	32.553	0.099
212.500	28.940	0.100
212.600	27.102	0.099
212.700	28.806	0.099
212.800	20.042	0.099
212.900	30.842	0.099
213.000	25.873	0.099
213.100	40.092	0.099
213.200	35.601	0.099
213.300	35.406	0.100
213.400	27.167	0.099
213.500	26.509	0.100
213.600	32.248	0.100
213.700	30.784	0.099
213.800	26.693	0.100
213.900	24.080	0.099
214.000	33.989	0.099
214.100	22.492	0.099
214.200	31.516	0.099
214.300	23.045	0.099
214.400	28.920	0.099
214.500	36.825	0.099
214.600	18.678	0.099
214.700	27.152	0.099
214.800	37.003	0.100
214.900	33.587	0.100
215.000	33.176	0.099
215.100	25.163	0.099
215.200	28.537	0.099
215.300	25.829	0.099
215.400	35.288	0.099
215.500	19.903	0.099
215.600	28.419	0.099
215.700	30.846	0.099
215.800	31.210	0.100
215.900	29.679	0.100
216.000	33.004	0.099
216.100	29.697	0.100
216.200	22.707	0.099
216.300	13.823	0.099
216.400	19.478	0.099
216.500	12.980	0.099
216.600	35.266	0.099
216.700	36.891	0.100
216.800	30.161	0.099
216.900	36.480	0.099
217.000	31.652	0.099
217.100	37.839	0.099
217.200	40.530	0.099
217.300	19.337	0.099
217.400	13.412	0.100
217.500	24.892	0.100
217.600	19.997	0.099
217.700	18.594	0.099
217.800	40.422	0.099
217.900	33.428	0.100
218.000	38.366	0.100
218.100	34.189	0.100
218.200	16.276	0.099
218.300	23.621	0.099
218.400	44.397	0.099
218.500	28.160	0.099
218.600	26.754	0.099
218.700	19.289	0.099
218.800	28.570	0.099
218.900	37.299	0.099
219.000	35.402	0.099
219.100	20.667	0.099
219.200	20.534	0.099
219.300	38.771	0.099
219.400	32.618	0.099
219.500	36.083	0.099
219.600	13.669	0.100
219.700	32.280	0.100
219.800	31.525	0.099
219.900	33.229	0.099
220.000	28.937	0.099
220.100	24.190	0.099
220.200	13.153	0.099
220.300	34.109	0.099
220.400	26.377	0.099
220.500	24.982	0.099
220.600	21.554	0.099
220.700	28.595	0.099
220.800	35.641	0.099
220.900	36.537	0.099
221.000	31.655	0.099
221.100	18.320	0.099
221.200	38.193	0.099
221.300	27.641	0.100
221.400	32.322	0.100
221.500	27.381	0.100
221.600	20.239	0.099
221.700	22.004	0.099
221.800	20.281	0.099
221.900	26.194	0.099
222.000	23.022	0.099
222.100	30.583	0.100
222.200	28.851	0.099
222.300	32.670	0.099
222.400	23.335	0.099
222.500	32.735	0.100
222.600	32.803	0.100
222.700	21.552	0.099
222.800	5.439	0.099
222.900	35.036	0.099
223.000	23.842	0.099
223.100	39.773	0.099
223.200	31.526	0.099
223.300	30.966	0.099
223.400	13.888	0.099
223.500	34.116	0.099
223.600	32.781	0.100
223.700	28.426	0.100
223.800	31.148	0.099
223.900	33.336	0.099
224.000	22.808	0.099
224.100	30.173	0.099
224.200	36.469	0.099
224.300	34.735	0.099
224.400	38.669	0.100
224.500	24.134	0.099
224.600	32.436	0.100
224.700	30.195	0.099
224.800	18.450	0.099
224.900	22.265	0.099
225.000	16.121	0.099
225.100	37.262	0.099
225.200	33.085	0.100
225.300	9.899	0.099
225.400	43.695	0.099
225.500	25.033	0.100
225.600	20.391	0.100
225.700	21.232	0.100
225.800	30.180	0.099
225.900	17.696	0.099
226.000	37.884	0.099
226.100	31.963	0.099
226.200	18.970	0.099
226.300	29.023	0.100
226.400	39.092	0.099
226.500	25.396	0.099
226.600	28.675	0.099
226.700	29.825	0.100
226.800	31.539	0.100
226.900	25.887	0.100
227.000	24.130	0.099
227.100	30.971	0.099
227.200	38.860	0.099
227.300	33.457	0.099
227.400	25.541	0.099
227.500	33.354	0.099
227.600	20.754	0.100
227.700	40.250	0.100
227.800	41.007	0.100
227.900	27.305	0.099
228.000	23.410	0.100
228.100	22.849	0.099
228.200	36.072	0.099
228.300	33.042	0.099
228.400	24.731	0.099
228.500	27.945	0.099
228.600	26.051	0.099
228.700	35.598	0.099
228.800	37.652	0.099
228.900	32.844	0.100
229.000	17.543	0.099
229.100	28.525	0.099
229.200	15.793	0.099
229.300	30.027	0.099
229.400	22.311	0.099
229.500	26.009	0.099
229.600	18.075	0.099
229.700	34.380	0.099
229.800	22.744	0.099
229.900	39.044	0.099
230.000	40.396	0.100
230.100	18.792	0.099
230.200	25.797	0.099
230.300	25.930	0.099
230.400	23.370	0.100
230.500	27.309	0.099
230.600	26.325	0.099
230.700	44.380	0.100
230.800	23.820	0.100
230.900	14.238	0.099
231.000	27.378	0.099
231.100	29.327	0.099
231.200	34.084	0.099
231.300	25.844	0.100
231.400	17.969	0.100
231.500	30.563	0.099
231.600	33.875	0.099
231.700	25.335	0.100
231.800	27.014	0.100
231.900	35.952	0.100
232.000	46.122	0.099
232.100	24.718	0.099
232.200	18.905	0.099
232.300	35.771	0.099
232.400	27.054	0.100
232.500	28.273	0.100
232.600	34.706	0.099
232.700	28.577	0.100
232.800	31.809	0.099
232.900	29.303	0.100
233.000	32.382	0.099
233.100	32.178	0.099
233.200	15.315	0.099
233.300	42.444	0.100
233.400	29.487	0.099
233.500	31.207	0.099
233.600	32.099	0.099
233.700	29.711	0.100
233.800	15.142	0.100
233.900	24.182	0.100
234.000	32.287	0.099
234.100	22.505	0.099
234.200	23.960	0.099
234.300	30.065	0.099
234.400	24.325	0.100
234.500	31.296	0.100
234.600	26.678	0.099
234.700	34.001	0.099
234.800	36.844	0.100
234.900	22.332	0.099
235.000	28.057	0.099
235.100	22.211	0.099
235.200	11.224	0.099
235.300	34.349	0.099
235.400	44.088	0.100
235.500	31.630	0.099
235.600	28.664	0.100
235.700	19.451	0.099
235.800	29.738	0.099
235.900	24.789	0.099
236.000	36.664	0.100
236.100	28.121	0.100
236.200	24.719	0.099
236.300	35.967	0.100
236.400	38.934	0.099
236.500	25.872	0.099
236.600	23.874	0.099
236.700	16.943	0.100
236.800	24.355	0.100
236.900	15.092	0.099
237.000	21.622	0.099
237.100	29.688	0.099
237.200	23.831	0.100
237.300	29.533	0.099
237.400	27.547	0.100
237.500	33.808	0.100
237.600	31.291	0.099
237.700	19.773	0.100
237.800	15.525	0.100
237.900	30.874	0.099
238.000	47.741	0.099
238.100	19.106	0.100
238.200	27.377	0.099
238.300	28.508	0.100
238.400	32.804	0.100
238.500	12.286	0.099
238.600	37.545	0.100
238.700	19.053	0.100
238.800	30.321	0.099
238.900	19.828	0.099
239.000	38.352	0.100
239.100	29.829	0.099
239.200	30.381	0.100
239.300	27.380	0.100
239.400	25.314	0.100
239.500	23.727	0.100
239.600	19.092	0.100
239.700	19.461	0.100
239.800	34.586	0.100
239.900	34.301	0.099
240.000	1.107	0.100
240.100	36.432	0.100
240.200	9.120	0.099
240.300	20.933	0.100
240.400	14.135	0.100
240.500	8.279	0.100
240.600	8.940	0.100
240.700	11.116	0.100
240.800	-5.374	0.099
240.900	4.076	0.100
241.000	-5.170	0.100
241.100	-16.747	0.099
241.200	-9.842	0.100
241.300	-9.890	0.100
241.400	3.372	0.099
241.500	-8.769	0.099
241.600	-1.256	0.100
241.700	-10.415	0.099
241.800	-12.065	0.100
241.900	-18.976	0.099
242.000	-14.871	0.100
242.100	-0.482	0.100
242.200	-12.915	0.099
242.300	-13.152	0.100
242.400	-5.263	0.099
242.500	-26.490	0.100
242.600	-9.538	0.099
242.700	-28.651	0.099
242.800	-26.057	0.100
242.900	-13.448	0.100
243.000	-25.309	0.100
243.100	-28.792	0.100
243.200	-6.969	0.100
243.300	-15.011	0.099
243.400	-12.089	0.100
243.500	-24.817	0.099
243.600	-18.441	0.100
243.700	-10.559	0.100
243.800	-16.707	0.100
243.900	-28.230	0.100
244.000	-3.405	0.100
244.100	-29.485	0.100
244.200	-20.544	0.100
244.300	-17.026	0.100
244.400	-16.998	0.100
244.500	10.325	0.100
244.600	-4.761	0.100
244.700	-12.537	0.100
244.800	-20.888	0.100
244.900	-30.069	0.100
245.000	-17.372	0.100
245.100	-23.965	0.100
245.200	-24.772	0.099
245.300	-24.776	0.099
245.400	-10.493	0.100
245.500	-22.632	0.099
245.600	-9.339	0.100
245.700	-3.339	0.100
245.800	-5.563	0.100
245.900	-28.488	0.100
246.000	-31.735	0.100
246.100	-23.183	0.099
246.200	-13.231	0.100
246.300	-14.296	0.100
246.400	-11.112	0.100
246.500	-8.982	0.100
246.600	-19.838	0.100
246.700	-12.882	0.100
246.800	-21.055	0.100
246.900	-17.517	0.100
247.000	-12.674	0.099
247.100	-12.301	0.099
247.200	-22.376	0.100
247.300	-12.851	0.100
247.400	-19.872	0.100
247.500	-4.223	0.100
247.600	-9.612	0.100
247.700	-20.132	0.100
247.800	-18.577	0.100
247.900	-16.464	0.099
248.000	-11.806	0.099
248.100	-27.748	0.100
248.200	-20.400	0.100
248.300	-21.996	0.100
248.400	-22.294	0.100
248.500	-9.000	0.099
248.600	-16.079	0.099
248.700	-14.334	0.100
248.800	-7.168	0.100
248.900	-16.815	0.100
249.000	-15.472	0.100
249.100	-12.615	0.100
249.200	-15.625	0.100
249.300	-11.967	0.100
249.400	-29.695	0.099
249.500	-18.821	0.099
249.600	-19.010	0.099
249.700	-24.096	0.100
249.800	-8.638	0.100
249.900	-12.077	0.100
250.000	-8.951	0.100
250.100	-14.349	0.100
250.200	-26.604	0.100
250.300	-11.708	0.100
250.400	-16.371	0.100
250.500	-22.740	0.100
250.600	-19.404	0.100
250.700	-20.773	0.099
250.800	-23.659	0.099
250.900	-16.616	0.100
251.000	-9.204	0.100
251.100	-15.181	0.100
251.200	-19.658	0.099
251.300	-23.402	0.099
251.400	-18.248	0.100
251.500	-36.448	0.099
251.600	-16.612	0.100
251.700	-19.693	0.100
251.800	-25.758	0.100
251.900	-18.176	0.100
252.000	-14.018	0.099
252.100	-12.035	0.100
252.200	-12.635	0.099
252.300	-21.638	0.100
252.400	-14.590	0.099
252.500	-18.331	0.100
252.600	-23.082	0.100
252.700	-22.776	0.099
252.800	-21.701	0.099
252.900	-6.368	0.100
253.000	-17.767	0.100
253.100	-14.042	0.099
253.200	-17.363	0.100
253.300	-32.685	0.100
253.400	-31.811	0.100
253.500	-11.960	0.100
253.600	-21.976	0.100
253.700	-11.758	0.100
253.800	-21.620	0.100
253.900	-11.594	0.100
254.000	-32.056	0.100
254.100	-21.120	0.100
254.200	-3.567	0.100
254.300	-24.909	0.100
254.400	-33.360	0.100
254.500	-14.938	0.099
254.600	-11.562	0.100
254.700	-25.517	0.100
254.800	-28.560	0.099
254.900	-17.472	0.100
255.000	-23.906	0.100
255.100	-16.161	0.100
255.200	-29.492	0.100
255.300	-17.621	0.100
255.400	-13.221	0.099
255.500	-14.499	0.099
255.600	-17.875	0.100
255.700	-34.115	0.099
255.800	-21.175	0.100
255.900	-16.637	0.100
256.000	-22.191	0.099
256.100	-23.189	0.099
256.200	-13.799	0.100
256.300	-17.450	0.100
256.400	-18.846	0.100
256.500	-25.530	0.100
256.600	-27.193	0.099
256.700	-28.120	0.099
256.800	-19.238	0.099
256.900	-24.685	0.099
257.000	-32.355	0.099
257.100	-18.135	0.100
257.200	-19.507	0.100
257.300	-31.209	0.100
257.400	-26.975	0.099
257.500	-54.462	0.099
257.600	-18.852	0.099
257.700	-3.137	0.100
257.800	-16.720	0.099
257.900	-21.535	0.099
258.000	-24.512	0.099
258.100	-30.820	0.099
258.200	-23.174	0.100
258.300	-19.918	0.100
258.400	-24.403	0.100
258.500	-22.687	0.099
258.600	-17.028	0.099
258.700	-21.202	0.099
258.800	-22.249	0.099
258.900	-32.093	0.099
259.000	-26.252	0.099
259.100	-19.370	0.099
259.200	-14.614	0.100
259.300	-24.330	0.099
259.400	-29.356	0.099
259.500	-19.381	0.099
259.600	-25.360	0.099
259.700	-15.991	0.099
259.800	-23.054	0.099
259.900	-16.994	0.099
260.000	-16.266	0.099
260.100	-18.783	0.100
260.200	-19.070	0.099
260.300	-19.920	0.099
260.400	-17.661	0.099
260.500	-19.138	0.099
260.600	-28.011	0.099
260.700	-28.572	0.100
260.800	-37.590	0.100
260.900	-27.886	0.099
261.000	-20.341	0.100
261.100	-20.590	0.099
261.200	-19.333	0.099
261.300	-29.046	0.100
261.400	-21.543	0.100
261.500	-20.947	0.099
261.600	-22.442	0.100
261.700	-27.848	0.099
261.800	-19.619	0.099
261.900	-14.664	0.099
262.000	-14.356	0.099
262.100	-27.228	0.100
262.200	-16.772	0.099
262.300	-23.347	0.100
262.400	-27.693	0.099
262.500	-35.396	0.099
262.600	-34.395	0.099
262.700	-17.104	0.099
262.800	-14.758	0.099
262.900	-31.719	0.099
263.000	-33.641	0.099
263.100	-21.205	0.099
263.200	-16.431	0.100
263.300	-24.092	0.100
263.400	-26.465	0.100
263.500	-22.197	0.099
263.600	-24.770	0.100
263.700	-20.650	0.099
263.800	-26.875	0.099
263.900	-21.372	0.100
264.000	-17.250	0.100
264.100	-30.503	0.099
264.200	-25.919	0.099
264.300	-18.084	0.099
264.400	-24.838	0.099
264.500	-32.871	0.099
264.600	-26.232	0.099
264.700	3.175	0.100
264.800	-11.696	0.100
264.900	-23.724	0.100
265.000	-31.631	0.099
265.100	-30.293	0.099
265.200	-21.853	0.099
265.300	-32.486	0.099
265.400	-19.444	0.099
265.500	-19.405	0.100
265.600	-35.682	0.100
265.700	-28.149	0.100
265.800	-15.603	0.100
265.900	-17.980	0.100
266.000	-2.113	0.099
266.100	-23.273	0.099
266.200	-26.397	0.099
266.300	-30.842	0.099
266.400	-35.967	0.099
266.500	-15.935	0.100
266.600	-9.541	0.099
266.700	-9.840	0.100
266.800	-18.751	0.099
266.900	-13.477	0.100
267.000	-12.243	0.100
267.100	-32.601	0.100
267.200	-26.310	0.100
267.300	-3.528	0.100
267.400	-11.872	0.099
267.500	-13.615	0.100
267.600	-35.226	0.100
267.700	-38.381	0.099
267.800	-21.046	0.100
267.900	-22.076	0.100
268.000	-27.486	0.099
268.100	-8.558	0.100
268.200	-21.294	0.099
268.300	-18.680	0.099
268.400	-18.329	0.099
268.500	-24.140	0.100
268.600	-25.653	0.100
268.700	-23.370	0.100
268.800	-8.340	0.100
268.900	-24.953	0.100
269.000	-6.565	0.100
269.100	-23.455	0.099
269.200	-22.748	0.100
269.300	-28.088	0.100
269.400	-17.425	0.100
269.500	-24.550	0.099
269.600	-25.854	0.100
269.700	-21.891	0.100
269.800	-16.881	0.100
269.900	-25.658	0.099
270.000	-13.874	0.099
270.100	-12.635	0.099
270.200	-20.342	0.100
270.300	-13.613	0.099
270.400	-26.132	0.100
270.500	-25.718	0.100
270.600	-34.644	0.100
270.700	-25.294	0.099
270.800	-28.553	0.099
270.900	-17.203	0.099
271.000	-18.922	0.099
271.100	-42.159	0.099
271.200	-19.521	0.099
271.300	-19.626	0.099
271.400	-29.349	0.099
271.500	-17.603	0.099
271.600	-30.921	0.099
271.700	-19.205	0.099
271.800	-14.558	0.099
271.900	-12.827	0.099
272.000	-29.400	0.100
272.100	-24.945	0.099
272.200	-18.788	0.099
272.300	-24.718	0.099
272.400	-32.513	0.099
272.500	-14.922	0.099
272.600	-17.753	0.100
272.700	-22.271	0.099
272.800	-18.749	0.099
272.900	-26.063	0.099
273.000	-22.256	0.099
273.100	-27.275	0.099
273.200	-23.116	0.099
273.300	-17.824	0.100
273.400	-20.904	0.099
273.500	-17.711	0.099
273.600	-26.913	0.099
273.700	-14.530	0.099
273.800	-18.508	0.099
273.900	-33.329	0.099
274.000	-17.804	0.099
274.100	-29.933	0.099
274.200	-20.421	0.099
274.300	-21.153	0.099
274.400	-16.503	0.100
274.500	-20.217	0.099
274.600	-24.744	0.099
274.700	-23.688	0.100
274.800	-37.138	0.099
274.900	-21.928	0.099
275.000	-23.105	0.099
275.100	-18.247	0.099
275.200	-24.285	0.099
275.300	-22.251	0.099
275.400	-10.708	0.099
275.500	-29.594	0.100
275.600	-25.011	0.100
275.700	-10.968	0.100
275.800	-27.020	0.099
275.900	-22.903	0.099
276.000	-27.644	0.099
276.100	-17.000	0.099
276.200	-25.324	0.099
276.300	-23.988	0.100
276.400	-29.503	0.100
276.500	-31.596	0.099
276.600	-15.291	0.099
276.700	-19.534	0.100
276.800	-11.011	0.100
276.900	-18.308	0.100
277.000	-21.240	0.100
277.100	-41.252	0.099
277.200	-22.692	0.100
277.300	-18.982	0.099
277.400	-20.261	0.100
277.500	-23.095	0.100
277.600	-14.110	0.099
277.700	-25.090	0.099
277.800	-25.992	0.099
277.900	-26.795	0.100
278.000	-12.675	0.100
278.100	-27.468	0.099
278.200	-32.659	0.100
278.300	-27.218	0.099
278.400	-14.271	0.099
278.500	-11.833	0.100
278.600	-25.310	0.099
278.700	-15.610	0.099
278.800	-9.784	0.099
278.900	-21.303	0.099
279.000	-34.913	0.099
279.100	-26.696	0.099
279.200	-29.076	0.099
279.300	-24.736	0.100
279.400	-16.379	0.100
279.500	-16.683	0.100
279.600	-20.979	0.100
279.700	-23.074	0.099
279.800	-22.439	0.100
279.900	-7.385	0.100
280.000	-16.725	0.100
280.100	-6.594	0.099
280.200	-17.150	0.099
280.300	-31.906	0.099
280.400	-33.311	0.099
280.500	-19.373	0.100
280.600	-16.363	0.099
280.700	-17.656	0.100
280.800	-13.440	0.100
280.900	-18.693	0.100
281.000	-12.588	0.100
281.100	-25.930	0.099
281.200	-15.627	0.100
281.300	-28.789	0.099
281.400	-35.313	0.099
281.500	-20.317	0.099
281.600	-19.110	0.100
281.700	-5.056	0.099
281.800	-12.578	0.100
281.900	-36.336	0.099
282.000	-13.293	0.100
282.100	-25.043	0.099
282.200	-28.486	0.099
282.300	-23.869	0.100
282.400	-24.018	0.100
282.500	-16.339	0.100
282.600	-18.387	0.100
282.700	-14.292	0.099
282.800	-20.152	0.099
282.900	-33.347	0.100
283.000	-18.525	0.100
283.100	-24.174	0.100
283.200	-23.068	0.100
283.300	-20.716	0.099
283.400	-26.028	0.100
283.500	-15.656	0.100
283.600	-29.935	0.100
283.700	-10.824	0.100
283.800	-14.141	0.100
283.900	-24.545	0.100
284.000	-20.127	0.100
284.100	-7.081	0.100
284.200	-14.577	0.100
284.300	-23.509	0.100
284.400	-20.285	0.100
284.500	-23.011	0.100
284.600	-36.138	0.100
284.700	-16.261	0.100
284.800	-26.245	0.100
284.900	-28.605	0.099
285.000	-27.021	0.100
285.100	-33.189	0.100
285.200	-27.486	0.100
285.300	-11.169	0.100
285.400	-5.318	0.100
285.500	-2.763	0.100
285.600	-26.802	0.100
285.700	-16.440	0.100
285.800	-4.925	0.100
285.900	-22.904	0.100
286.000	-11.199	0.100
286.100	-20.974	0.099
286.200	-31.357	0.100
286.300	-11.566	0.100
286.400	-19.556	0.100
286.500	-24.868	0.100
286.600	-20.243	0.100
286.700	-22.838	0.100
286.800	-18.659	0.099
286.900	-17.818	0.100
287.000	-32.368	0.100
287.100	-39.376	0.100
287.200	-20.548	0.100
287.300	-29.402	0.099
287.400	-18.203	0.100
287.500	-11.569	0.100
287.600	-20.131	0.100
287.700	-13.699	0.099
287.800	-24.906	0.100
287.900	-16.596	0.099
288.000	-16.739	0.100
288.100	-13.691	0.100
288.200	-25.009	0.099
288.300	-23.027	0.100
288.400	-25.774	0.100
288.500	-19.482	0.099
288.600	-16.422	0.100
288.700	-20.994	0.100
288.800	-15.508	0.100
288.900	-14.072	0.100
289.000	-13.892	0.100
289.100	-17.050	0.100
289.200	-29.468	0.099
289.300	-7.709	0.100
289.400	-10.151	0.100
289.500	-12.539	0.100
289.600	-24.950	0.100
289.700	-23.220	0.100
289.800	-10.500	0.100
289.900	-20.138	0.100
290.000	-18.343	0.100
290.100	-21.925	0.100
290.200	-32.754	0.100
290.300	-13.596	0.100
290.400	-9.833	0.100
290.500	-5.233	0.099
290.600	-25.914	0.100
290.700	-24.109	0.099
290.800	-27.780	0.099
290.900	-18.809	0.100
291.000	-19.167	0.099
291.100	-17.097	0.100
291.200	-8.588	0.100
291.300	-28.257	0.100
291.400	-11.465	0.100
291.500	-23.776	0.100
291.600	-15.688	0.100
291.700	-19.892	0.100
291.800	-26.776	0.100
291.900	-21.955	0.100
292.000	-9.227	0.100
292.100	-20.055	0.099
292.200	-28.765	0.100
292.300	-19.503	0.100
292.400	-10.770	0.099
292.500	-27.303	0.099
292.600	-15.657	0.100
292.700	-19.957	0.100
292.800	-24.437	0.100
292.900	-22.364	0.100
293.000	-13.342	0.100
293.100	-10.474	0.100
293.200	-18.219	0.099
293.300	-26.693	0.100
293.400	-21.798	0.100
293.500	-16.121	0.100
293.600	-11.749	0.099
293.700	-17.780	0.100
293.800	-14.577	0.100
293.900	-27.885	0.100
294.000	-16.523	0.100
294.100	-14.468	0.100
294.200	-14.546	0.100
294.300	-26.512	0.100
294.400	-16.231	0.100
294.500	-19.643	0.100
294.600	-8.374	0.100
294.700	-16.285	0.099
294.800	-31.955	0.100
294.900	-17.178	0.100
295.000	-18.769	0.100
295.100	-15.399	0.100
295.200	-13.414	0.099
295.300	-11.670	0.100
295.400	-18.508	0.100
295.500	-11.485	0.100
295.600	-16.641	0.099
295.700	-8.815	0.100
295.800	-26.040	0.100
295.900	-7.373	0.100
296.000	-9.165	0.100
296.100	-24.041	0.099
296.200	-30.101	0.100
296.300	-23.746	0.100
296.400	-5.902	0.100
296.500	-25.878	0.100
296.600	-9.393	0.099
296.700	-20.193	0.099
296.800	-6.960	0.099
296.900	-16.341	0.100
297.000	-19.848	0.100
297.100	-21.359	0.100
297.200	-19.561	0.100
297.300	-13.895	0.100
297.400	-12.576	0.100
297.500	-12.200	0.100
297.600	-33.984	0.100
297.700	-18.188	0.100
297.800	-11.873	0.100
297.900	-21.207	0.099
298.000	-18.091	0.099
298.100	1.526	0.100
298.200	-17.709	0.100
298.300	-7.930	0.100
298.400	-24.312	0.100
298.500	-24.076	0.100
298.600	-34.352	0.100
298.700	-14.750	0.099
298.800	-17.743	0.100
298.900	-15.424	0.100
299.000	-6.565	0.100
299.100	-24.496	0.100
299.200	-16.331	0.100
299.300	-14.339	0.100
299.400	-19.900	0.100
299.500	-16.502	0.100
299.600	-14.049	0.100
299.700	-22.228	0.100
299.800	-17.108	0.100
299.900	-12.597	0.100
300.000	-18.773	0.100
300.100	-5.476	0.100
300.200	-13.640	0.100
300.300	-26.495	0.100
300.400	-16.499	0.100
300.500	-19.427	0.100
300.600	-22.345	0.100
300.700	-15.223	0.099
300.800	-14.214	0.100
300.900	-17.303	0.100
301.000	-32.716	0.099
301.100	-14.185	0.100
301.200	-13.299	0.100
301.300	-7.118	0.100
301.400	-0.057	0.099
301.500	-16.206	0.100
301.600	-32.953	0.100
301.700	-17.786	0.100
301.800	-23.490	0.099
301.900	-9.693	0.100
302.000	-6.501	0.099
302.100	-15.305	0.100
302.200	-12.296	0.099
302.300	-10.021	0.100
302.400	-25.088	0.100
302.500	-17.484	0.100
302.600	-21.812	0.100
302.700	-15.176	0.100
302.800	-12.386	0.100
302.900	-14.325	0.100
303.000	-11.341	0.100
303.100	-16.089	0.100
303.200	-22.165	0.099
303.300	-4.483	0.100
303.400	-19.607	0.100
303.500	-14.779	0.100
303.600	-24.207	0.099
303.700	-24.600	0.100
303.800	-13.814	0.100
303.900	-7.204	0.100
304.000	-9.535	0.100
304.100	-15.850	0.100
304.200	-21.319	0.099
304.300	-22.945	0.099
304.400	-14.133	0.100
304.500	-20.082	0.100
304.600	-9.152	0.100
304.700	-14.904	0.099
304.800	-28.871	0.099
304.900	-9.639	0.100
305.000	-18.758	0.100
305.100	-18.684	0.100
305.200	-10.977	0.100
305.300	-29.376	0.100
305.400	-14.773	0.100
305.500	-13.358	0.099
305.600	-19.032	0.100
305.700	-21.041	0.100
305.800	-15.438	0.100
305.900	-13.321	0.100
306.000	-29.244	0.100
306.100	-16.822	0.099
306.200	-14.033	0.100
306.300	-12.246	0.100
306.400	-18.150	0.100
306.500	-15.442	0.100
306.600	-6.852	0.100
306.700	-19.117	0.100
306.800	-19.125	0.100
306.900	-22.038	0.100
307.000	-6.655	0.100
307.100	-12.318	0.100
307.200	-3.509	0.100
307.300	-18.386	0.099
307.400	-14.586	0.100
307.500	-19.131	0.100
307.600	-20.880	0.100
307.700	-28.657	0.099
307.800	0.600	0.100
307.900	-19.242	0.099
308.000	-17.932	0.100
308.100	-18.303	0.100
308.200	-16.417	0.100
308.300	-21.964	0.100
308.400	-2.135	0.100
308.500	-12.988	0.100
308.600	-7.991	0.100
308.700	-18.523	0.099
308.800	-13.984	0.099
308.900	-16.199	0.100
309.000	-13.818	0.100
309.100	-22.272	0.099
309.200	-25.652	0.100
309.300	-16.157	0.100
309.400	-15.728	0.100
309.500	-6.686	0.100
309.600	-15.852	0.100
309.700	-8.097	0.100
309.800	-13.381	0.100
309.900	-24.402	0.100
310.000	-30.273	0.099
310.100	1.983	0.100
310.200	-31.352	0.100
310.300	-14.191	0.099
310.400	-2.913	0.100
310.500	-18.009	0.100
310.600	-2.251	0.100
310.700	-16.680	0.099
310.800	-17.521	0.100
310.900	-14.479	0.100
311.000	-15.152	0.100
311.100	-17.809	0.100
311.200	-18.621	0.100
311.300	-11.447	0.099
311.400	-12.277	0.100
311.500	-13.995	0.100
311.600	-34.163	0.100
311.700	-6.494	0.099
311.800	-16.492	0.100
311.900	-0.193	0.100
312.000	-23.834	0.099
312.100	-16.918	0.099
312.200	-17.181	0.099
312.300	-16.181	0.100
312.400	-19.503	0.100
312.500	-14.459	0.100
312.600	-13.924	0.100
312.700	-23.631	0.100
312.800	-22.397	0.100
312.900	-10.531	0.100
313.000	-30.479	0.100
313.100	-11.068	0.099
313.200	-15.018	0.099
313.300	-9.138	0.100
313.400	-17.534	0.100
313.500	-21.955	0.100
313.600	-10.318	0.100
313.700	-13.960	0.100
313.800	-10.085	0.100
313.900	-26.426	0.100
314.000	-8.779	0.100
314.100	-11.882	0.100
314.200	-14.949	0.100
314.300	-11.473	0.100
314.400	-13.222	0.100
314.500	-11.654	0.100
314.600	-3.468	0.100
314.700	-25.588	0.100
314.800	-23.518	0.100
314.900	-12.930	0.100
315.000	-13.089	0.100
315.100	-11.377	0.100
315.200	-8.108	0.100
315.300	-23.627	0.100
315.400	-23.698	0.100
315.500	-27.756	0.100
315.600	-8.121	0.100
315.700	-9.821	0.100
315.800	-29.830	0.100
315.900	-18.686	0.100
316.000	-14.030	0.100
316.100	-13.328	0.099
316.200	-11.900	0.100
316.300	-15.274	0.100
316.400	-18.478	0.099
316.500	-3.631	0.100
316.600	-13.153	0.100
316.700	-18.771	0.100
316.800	-22.965	0.100
316.900	-18.696	0.100
317.000	-6.742	0.100
317.100	-6.693	0.100
317.200	-14.301	0.100
317.300	-18.158	0.100
317.400	-11.228	0.100
317.500	-20.287	0.100
317.600	-13.510	0.100
317.700	-17.322	0.100
317.800	-24.696	0.100
317.900	-11.967	0.100
318.000	-20.625	0.100
318.100	-22.419	0.100
318.200	-3.998	0.100
318.300	-18.327	0.100
318.400	-21.836	0.099
318.500	-16.811	0.099
318.600	-7.407	0.100
318.700	-7.987	0.099
318.800	-14.384	0.100
318.900	-17.694	0.099
319.000	-16.412	0.100
319.100	-15.848	0.100
319.200	-21.734	0.100
319.300	-20.729	0.100
319.400	-27.448	0.099
319.500	-10.918	0.100
319.600	-4.836	0.100
319.700	-38.820	0.099
319.800	-13.969	0.100
319.900	-20.051	0.099
320.000	-3.535	0.099
320.100	-10.726	0.099
320.200	-17.085	0.099
320.300	-8.599	0.100
320.400	-13.063	0.100
320.500	-6.771	0.099
320.600	-24.040	0.099
320.700	-1.194	0.099
320.800	-21.494	0.099
320.900	-17.486	0.099
321.000	-16.978	0.099
321.100	-14.507	0.099
321.200	-6.545	0.099
321.300	-14.759	0.100
321.400	-3.250	0.100
321.500	-16.746	0.100
321.600	-15.520	0.100
321.700	-24.104	0.099
321.800	-13.670	0.100
321.900	-25.946	0.099
322.000	-22.051	0.099
322.100	-17.822	0.100
322.200	-3.768	0.099
322.300	-28.810	0.099
322.400	-7.986	0.100
322.500	-14.740	0.100
322.600	1.306	0.099
322.700	-15.359	0.100
322.800	-9.245	0.100
322.900	-15.245	0.100
323.000	-20.494	0.099
323.100	-17.802	0.100
323.200	-14.741	0.099
323.300	-19.377	0.099
323.400	-21.550	0.099
323.500	-9.588	0.099
323.600	-17.445	0.100
323.700	-5.345	0.100
323.800	-19.711	0.099
323.900	-0.495	0.100
324.000	-17.495	0.100
324.100	-15.535	0.099
324.200	-15.592	0.100
324.300	-1.049	0.100
324.400	-22.516	0.099
324.500	-16.563	0.100
324.600	-10.566	0.100
324.700	-26.740	0.100
324.800	-23.025	0.099
324.900	-13.128	0.099
325.000	-6.156	0.099
325.100	-5.679	0.100
325.200	-14.129	0.099
325.300	-10.508	0.100
325.400	-19.271	0.099
325.500	-22.128	0.100
325.600	-18.728	0.099
325.700	-7.254	0.100
325.800	-16.556	0.100
325.900	-13.851	0.099
326.000	-21.438	0.099
326.100	-28.972	0.099
326.200	-2.669	0.100
326.300	-10.828	0.100
326.400	-0.635	0.100
326.500	-9.804	0.099
326.600	-19.551	0.099
326.700	-14.836	0.100
326.800	-7.378	0.099
326.900	-14.426	0.099
327.000	-3.650	0.100
327.100	-12.628	0.099
327.200	-8.684	0.099
327.300	-15.940	0.100
327.400	-24.320	0.099
327.500	-18.497	0.100
327.600	-11.233	0.100
327.700	-4.186	0.099
327.800	-1.746	0.100
327.900	-16.459	0.100
328.000	-28.523	0.099
328.100	-7.573	0.100
328.200	-6.726	0.099
328.300	-38.926	0.099
328.400	-11.919	0.099
328.500	-16.512	0.099
328.600	-17.386	0.099
328.700	-16.525	0.100
328.800	-14.016	0.100
328.900	-8.535	0.100
329.000	-15.564	0.100
329.100	-27.765	0.099
329.200	-20.838	0.099
329.300	-10.322	0.099
329.400	-17.700	0.099
329.500	-2.562	0.099
329.600	-12.896	0.099
329.700	-3.698	0.099
329.800	-12.603	0.100
329.900	-15.113	0.100
330.000	-3.070	0.100
330.100	-1.194	0.100
330.200	-11.733	0.099
330.300	7.557	0.099
330.400	18.388	0.099
330.500	13.415	0.100
330.600	19.781	0.099
330.700	12.566	0.100
330.800	8.714	0.100
330.900	23.623	0.099
331.000	12.848	0.100
331.100	25.132	0.100
331.200	18.734	0.100
331.300	25.845	0.099
331.400	16.398	0.099
331.500	32.806	0.100
331.600	26.659	0.099
331.700	29.792	0.100
331.800	28.411	0.099
331.900	28.381	0.099
332.000	13.015	0.099
332.100	15.062	0.100
332.200	21.191	0.099
332.300	17.809	0.099
332.400	16.531	0.099
332.500	28.484	0.099
332.600	21.669	0.100
332.700	31.869	0.099
332.800	32.555	0.099
332.900	18.733	0.099
333.000	12.944	0.099
333.100	5.969	0.099
333.200	17.238	0.099
333.300	18.933	0.099
333.400	27.314	0.100
333.500	9.364	0.100
333.600	0.311	0.100
333.700	6.744	0.099
333.800	16.905	0.100
333.900	2.250	0.099
334.000	4.811	0.099
334.100	22.952	0.099
334.200	20.004	0.099
334.300	2.607	0.099
334.400	22.459	0.099
334.500	2.357	0.099
334.600	9.810	0.099
334.700	21.363	0.099
334.800	10.678	0.099
334.900	10.584	0.099
335.000	12.410	0.099
335.100	18.914	0.099
335.200	11.943	0.099
335.300	22.888	0.099
335.400	16.302	0.099
335.500	23.546	0.099
335.600	10.984	0.099
335.700	22.373	0.099
335.800	21.004	0.099
335.900	21.270	0.099
336.000	34.364	0.099
336.100	13.464	0.099
336.200	11.620	0.099
336.300	12.717	0.099
336.400	18.499	0.099
336.500	18.722	0.099
336.600	15.175	0.099
336.700	28.743	0.099
336.800	18.707	0.099
336.900	39.985	0.099
337.000	25.821	0.100
337.100	21.137	0.099
337.200	13.120	0.099
337.300	31.008	0.099
337.400	34.062	0.099
337.500	24.947	0.099
337.600	22.290	0.099
337.700	36.383	0.099
337.800	20.643	0.099
337.900	24.315	0.099
338.000	27.003	0.099
338.100	24.573	0.099
338.200	29.833	0.099
338.300	37.278	0.099
338.400	35.719	0.099
338.500	37.179	0.099
338.600	34.253	0.099
338.700	22.460	0.099
338.800	26.342	0.099
338.900	36.300	0.099
339.000	39.944	0.099
339.100	25.760	0.099
339.200	31.545	0.099
339.300	47.904	0.099
339.400	42.634	0.099
339.500	26.182	0.099
339.600	30.406	0.099
339.700	32.590	0.099
339.800	34.391	0.099
339.900	41.968	0.099
340.000	34.515	0.099
340.100	18.144	0.099
340.200	38.389	0.099
340.300	46.089	0.099
340.400	29.563	0.099
340.500	31.160	0.099
340.600	30.924	0.099
340.700	44.164	0.099
340.800	33.695	0.099
340.900	38.573	0.099
341.000	32.142	0.099
341.100	48.510	0.099
341.200	39.985	0.099
341.300	25.479	0.099
341.400	35.755	0.099
341.500	30.537	0.099
341.600	38.235	0.099
341.700	44.562	0.099
341.800	35.195	0.099
341.900	33.757	0.099
342.000	38.664	0.099
342.100	47.447	0.099
342.200	33.928	0.099
342.300	30.267	0.099
342.400	27.823	0.099
342.500	43.286	0.099
342.600	35.905	0.099
342.700	33.350	0.099
342.800	55.603	0.099
342.900	34.638	0.099
343.000	44.119	0.099
343.100	42.848	0.099
343.200	38.036	0.099
343.300	35.099	0.099
343.400	26.359	0.099
343.500	39.194	0.099
343.600	14.740	0.099
343.700	31.206	0.099
343.800	53.899	0.099
343.900	37.653	0.099
344.000	34.588	0.099
344.100	27.174	0.099
344.200	44.436	0.099
344.300	42.708	0.099
344.400	44.714	0.099
344.500	39.696	0.099
344.600	44.490	0.099
344.700	33.055	0.099
344.800	26.873	0.099
344.900	34.188	0.099
345.000	39.481	0.099
345.100	36.754	0.099
345.200	52.964	0.099
345.300	30.082	0.099
345.400	42.313	0.099
345.500	25.850	0.099
345.600	32.546	0.099
345.700	42.890	0.099
345.800	47.256	0.099
345.900	44.384	0.099
346.000	38.196	0.099
346.100	42.323	0.099
346.200	36.903	0.099
346.300	52.448	0.099
346.400	39.997	0.099
346.500	27.383	0.099
346.600	42.684	0.099
346.700	39.334	0.099
346.800	36.939	0.099
346.900	42.949	0.099
347.000	27.162	0.099
347.100	36.204	0.099
347.200	39.585	0.099
347.300	35.940	0.099
347.400	35.541	0.099
347.500	36.943	0.099
347.600	28.677	0.099
347.700	32.821	0.099
347.800	39.978	0.099
347.900	36.231	0.099
348.000	38.896	0.099
348.100	38.917	0.099
348.200	16.335	0.099
348.300	40.340	0.099
348.400	44.956	0.099
348.500	33.921	0.099
348.600	36.252	0.099
348.700	45.626	0.099
348.800	30.611	0.099
348.900	35.573	0.099
349.000	36.279	0.099
349.100	26.708	0.099
349.200	42.213	0.099
349.300	30.025	0.099
349.400	35.679	0.099
349.500	33.432	0.099
349.600	34.281	0.099
349.700	22.863	0.099
349.800	35.480	0.099
349.900	36.003	0.099
350.000	24.931	0.099
350.100	39.586	0.099
350.200	21.847	0.099
350.300	31.507	0.099
350.400	28.250	0.099
350.500	39.029	0.099
350.600	37.298	0.099
350.700	28.097	0.099
350.800	27.336	0.099
350.900	34.480	0.099
351.000	29.709	0.099
351.100	23.475	0.099
351.200	44.503	0.099
351.300	30.581	0.099
351.400	34.076	0.099
351.500	31.425	0.099
351.600	28.746	0.099
351.700	25.475	0.099
351.800	50.957	0.099
351.900	19.653	0.099
352.000	29.988	0.099
352.100	30.737	0.099
352.200	36.738	0.099
352.300	29.074	0.099
352.400	31.131	0.099
352.500	32.735	0.099
352.600	26.163	0.099
352.700	47.094	0.099
352.800	35.241	0.099
352.900	36.159	0.099
353.000	21.249	0.099
353.100	32.333	0.099
353.200	38.162	0.099
353.300	21.657	0.099
353.400	23.039	0.099
353.500	26.872	0.099
353.600	38.855	0.099
353.700	34.093	0.099
353.800	36.549	0.099
353.900	38.750	0.099
354.000	52.901	0.099
354.100	36.516	0.099
354.200	26.779	0.099
354.300	36.792	0.099
354.400	32.307	0.099
354.500	20.180	0.099
354.600	35.209	0.099
354.700	37.009	0.099
354.800	32.675	0.099
354.900	34.351	0.099
355.000	27.554	0.099
355.100	29.423	0.099
355.200	36.531	0.099
355.300	40.376	0.099
355.400	27.583	0.099
355.500	43.433	0.099
355.600	26.730	0.099
355.700	42.928	0.099
355.800	36.143	0.099
355.900	21.250	0.099
356.000	20.292	0.099
356.100	29.298	0.099
356.200	27.157	0.099
356.300	28.007	0.099
356.400	34.354	0.099
356.500	29.726	0.099
356.600	27.234	0.099
356.700	45.546	0.099
356.800	40.912	0.099
356.900	33.243	0.099
357.000	34.665	0.099
357.100	40.414	0.099
357.200	29.001	0.099
357.300	21.401	0.099
357.400	38.641	0.099
357.500	39.197	0.099
357.600	29.219	0.099
357.700	30.230	0.099
357.800	30.830	0.099
357.900	23.893	0.099
358.000	21.955	0.099
358.100	43.221	0.099
358.200	38.735	0.099
358.300	36.345	0.099
358.400	32.368	0.099
358.500	36.446	0.099
358.600	25.098	0.099
358.700	35.568	0.099
358.800	14.219	0.099
358.900	32.651	0.099
359.000	40.814	0.099
359.100	32.131	0.099
359.200	31.345	0.099
359.300	29.401	0.099
359.400	24.324	0.099
359.500	10.302	0.099
359.600	25.329	0.099
359.700	35.445	0.099
359.800	36.410	0.099
359.900	16.586	0.099
360.000	24.041	0.099
360.100	49.268	0.099
360.200	33.260	0.099
360.300	28.797	0.099
360.400	26.839	0.099
360.500	37.785	0.099
360.600	30.596	0.099
360.700	30.048	0.099
360.800	35.737	0.099
360.900	28.774	0.099
361.000	25.836	0.099
361.100	50.303	0.099
361.200	29.125	0.099
361.300	30.575	0.099
361.400	17.961	0.099
361.500	31.909	0.099
361.600	34.952	0.099
361.700	40.095	0.099
361.800	33.076	0.099
361.900	24.379	0.099
362.000	31.803	0.099
362.100	18.067	0.099
362.200	33.123	0.099
362.300	38.262	0.099
362.400	26.543	0.099
362.500	9.425	0.099
362.600	39.641	0.099
362.700	35.183	0.099
362.800	34.317	0.099
362.900	33.738	0.099
363.000	35.753	0.099
363.100	26.488	0.099
363.200	21.108	0.099
363.300	28.128	0.099
363.400	36.315	0.099
363.500	39.576	0.099
363.600	30.564	0.099
363.700	30.734	0.099
363.800	17.906	0.099
363.900	36.919	0.099
364.000	16.955	0.099
364.100	23.337	0.099
364.200	36.739	0.099
364.300	36.044	0.099
364.400	22.738	0.099
364.500	29.507	0.099
364.600	28.015	0.099
364.700	30.217	0.099
364.800	14.673	0.099
364.900	37.893	0.099
365.000	34.357	0.099
365.100	34.758	0.099
365.200	30.469	0.099
365.300	25.470	0.099
365.400	33.346	0.099
365.500	25.071	0.099
365.600	30.743	0.099
365.700	35.852	0.099
365.800	26.089	0.099
365.900	38.424	0.099
366.000	30.791	0.099
366.100	32.487	0.099
366.200	32.740	0.099
366.300	25.634	0.099
366.400	43.885	0.099
366.500	23.575	0.099
366.600	33.067	0.099
366.700	22.863	0.099
366.800	32.377	0.099
366.900	39.345	0.099
367.000	25.372	0.099
367.100	20.915	0.099
367.200	31.431	0.099
367.300	29.968	0.099
367.400	31.064	0.099
367.500	29.465	0.099
367.600	24.914	0.099
367.700	20.398	0.099
367.800	32.659	0.099
367.900	28.425	0.099
368.000	32.794	0.099
368.100	26.262	0.099
368.200	17.857	0.099
368.300	24.862	0.099
368.400	39.247	0.099
368.500	30.189	0.099
368.600	32.077	0.099
368.700	39.723	0.099
368.800	31.688	0.099
368.900	20.340	0.099
369.000	22.006	0.099
369.100	38.455	0.099
369.200	20.487	0.099
369.300	34.353	0.099
369.400	41.679	0.099
369.500	25.216	0.099
369.600	25.362	0.099
369.700	39.644	0.099
369.800	30.605	0.099
369.900	31.193	0.099
370.000	32.947	0.099
370.100	28.058	0.099
370.200	27.786	0.099
370.300	20.506	0.099
370.400	29.264	0.099
370.500	35.089	0.099
370.600	27.946	0.099
370.700	28.267	0.099
370.800	24.940	0.099
370.900	36.135	0.099
371.000	38.514	0.099
371.100	22.340	0.099
371.200	21.048	0.099
371.300	28.668	0.099
371.400	39.080	0.099
371.500	24.432	0.099
371.600	33.504	0.099
371.700	23.679	0.099
371.800	30.158	0.099
371.900	18.800	0.099
372.000	37.715	0.099
372.100	29.772	0.099
372.200	30.338	0.099
372.300	27.868	0.099
372.400	25.967	0.099
372.500	39.369	0.099
372.600	38.268	0.099
372.700	22.521	0.099
372.800	22.347	0.099
372.900	35.116	0.099
373.000	24.090	0.099
373.100	24.583	0.099
373.200	32.243	0.099
373.300	35.073	0.099
373.400	20.995	0.099
373.500	29.682	0.099
373.600	33.115	0.099
373.700	35.659	0.099
373.800	25.901	0.099
373.900	26.333	0.099
374.000	45.756	0.099
374.100	38.172	0.099
374.200	34.014	0.099
374.300	25.525	0.099
374.400	18.014	0.099
374.500	20.018	0.099
374.600	35.024	0.099
374.700	23.380	0.099
374.800	22.561	0.099
374.900	22.986	0.099
375.000	44.291	0.099
375.100	33.301	0.099
375.200	35.862	0.099
375.300	24.551	0.099
375.400	22.116	0.099
375.500	35.334	0.099
375.600	29.536	0.099
375.700	38.587	0.099
375.800	19.982	0.099
375.900	35.750	0.099
376.000	33.335	0.099
376.100	23.859	0.099
376.200	39.705	0.099
376.300	12.853	0.099
376.400	27.532	0.099
376.500	26.721	0.099
376.600	30.286	0.099
376.700	24.208	0.099
376.800	28.490	0.099
376.900	13.286	0.099
377.000	17.493	0.099
377.100	45.628	0.099
377.200	51.033	0.099
377.300	28.623	0.099
377.400	19.523	0.099
377.500	38.018	0.099
377.600	18.396	0.099
377.700	25.123	0.099
377.800	31.984	0.099
377.900	30.580	0.099
378.000	29.280	0.099
378.100	33.867	0.099
378.200	22.802	0.099
378.300	29.680	0.099
378.400	25.812	0.099
378.500	41.942	0.099
378.600	31.127	0.099
378.700	24.988	0.099
378.800	36.199	0.099
378.900	24.897	0.099
379.000	27.433	0.099
379.100	19.048	0.099
379.200	26.377	0.099
379.300	24.329	0.099
379.400	24.236	0.099
379.500	25.528	0.099
379.600	21.337	0.099
379.700	24.144	0.099
379.800	30.687	0.099
379.900	20.422	0.099
380.000	36.344	0.099
380.100	24.050	0.099
380.200	16.996	0.099
380.300	36.344	0.099
380.400	31.560	0.099
380.500	32.027	0.099
380.600	39.217	0.099
380.700	30.989	0.099
380.800	33.458	0.099
380.900	32.290	0.099
381.000	29.018	0.099
381.100	20.816	0.099
381.200	32.772	0.099
381.300	18.626	0.099
381.400	39.898	0.099
381.500	24.120	0.099
381.600	16.857	0.099
381.700	32.114	0.099
381.800	38.671	0.099
381.900	28.379	0.099
382.000	36.821	0.099
382.100	25.088	0.099
382.200	19.903	0.099
382.300	39.564	0.099
382.400	39.160	0.099
382.500	14.896	0.099
382.600	18.761	0.099
382.700	31.416	0.099
382.800	26.741	0.099
382.900	15.459	0.099
383.000	31.892	0.099
383.100	21.296	0.099
383.200	37.238	0.099
383.300	34.309	0.099
383.400	30.680	0.099
383.500	31.054	0.099
383.600	27.226	0.099
383.700	35.051	0.099
383.800	29.113	0.099
383.900	28.367	0.099
384.000	31.209	0.099
384.100	17.194	0.099
384.200	29.895	0.099
384.300	25.835	0.099
384.400	29.844	0.099
384.500	31.035	0.099
384.600	32.588	0.099
384.700	35.504	0.099
384.800	25.362	0.099
384.900	26.430	0.099
385.000	30.313	0.099
385.100	31.534	0.099
385.200	24.815	0.099
385.300	27.239	0.099
385.400	30.235	0.099
385.500	40.986	0.099
385.600	16.016	0.099
385.700	39.071	0.099
385.800	17.241	0.099
385.900	36.962	0.099
386.000	37.284	0.099
386.100	31.915	0.099
386.200	24.744	0.099
386.300	25.801	0.099
386.400	29.680	0.099
386.500	29.814	0.099
386.600	32.415	0.099
386.700	28.074	0.099
386.800	39.708	0.099
386.900	23.709	0.099
387.000	38.342	0.099
387.100	27.455	0.099
387.200	25.087	0.099
387.300	30.512	0.099
387.400	22.278	0.099
387.500	23.430	0.099
387.600	28.692	0.099
387.700	33.020	0.099
387.800	31.373	0.099
387.900	26.950	0.099
388.000	26.992	0.099
388.100	18.939	0.099
388.200	34.684	0.099
388.300	27.579	0.099
388.400	25.004	0.099
388.500	27.461	0.099
388.600	38.824	0.099
388.700	32.523	0.099
388.800	37.374	0.099
388.900	22.106	0.099
389.000	24.931	0.099
389.100	29.356	0.099
389.200	15.870	0.099
389.300	8.273	0.099
389.400	43.806	0.099
389.500	26.872	0.099
389.600	21.840	0.099
389.700	38.391	0.099
389.800	25.641	0.099
389.900	22.486	0.099
390.000	25.488	0.099
390.100	2.074	0.099
390.200	18.049	0.099
390.300	7.128	0.099
390.400	9.337	0.099
390.500	1.348	0.099
390.600	1.918	0.099
390.700	13.153	0.099
390.800	4.368	0.099
390.900	-2.073	0.099
391.000	-10.127	0.099
391.100	-12.465	0.099
391.200	-23.659	0.099
391.300	-3.695	0.099
391.400	-11.181	0.099
391.500	-15.604	0.099
391.600	-20.592	0.099
391.700	-25.668	0.099
391.800	-19.620	0.099
391.900	-27.001	0.099
392.000	-19.581	0.099
392.100	-15.368	0.099
392.200	-20.951	0.099
392.300	-26.676	0.099
392.400	-22.456	0.099
392.500	-20.370	0.099
392.600	-35.111	0.099
392.700	-14.280	0.099
392.800	-17.349	0.099
392.900	-19.194	0.099
393.000	-11.636	0.099
393.100	-31.691	0.099
393.200	-20.396	0.099
393.300	-20.641	0.099
393.400	-24.556	0.099
393.500	-21.527	0.099
393.600	-31.593	0.099
393.700	-19.637	0.099
393.800	-23.460	0.099
393.900	-33.845	0.099
394.000	-21.904	0.099
394.100	-28.670	0.099
394.200	-17.790	0.099
394.300	-13.559	0.099
394.400	-27.429	0.099
394.500	-9.064	0.099
394.600	-12.648	0.099
394.700	-11.154	0.099
394.800	-19.565	0.099
394.900	-19.610	0.099
395.000	-11.642	0.099
395.100	-25.804	0.099
395.200	-16.908	0.099
395.300	-17.672	0.099
395.400	-26.161	0.099
395.500	-17.343	0.099
395.600	-20.327	0.099
395.700	-15.365	0.099
395.800	-14.937	0.099
395.900	-19.447	0.099
396.000	-17.481	0.099
396.100	-30.212	0.099
396.200	-19.508	0.099
396.300	-18.338	0.099
396.400	-24.561	0.099
396.500	-21.770	0.099
396.600	-0.278	0.099
396.700	-28.468	0.099
396.800	-31.348	0.099
396.900	-13.631	0.099
397.000	-17.337	0.099
397.100	-19.305	0.099
397.200	-27.535	0.099
397.300	-18.758	0.099
397.400	-33.099	0.099
397.500	-1.705	0.099
397.600	-12.483	0.099
397.700	1.337	0.099
397.800	-14.893	0.099
397.900	-10.693	0.099
398.000	-24.038	0.099
398.100	-15.486	0.099
398.200	-25.589	0.099
398.300	-20.416	0.099
398.400	-31.118	0.099
398.500	-15.669	0.099
398.600	-19.683	0.099
398.700	-32.851	0.099
398.800	-23.852	0.099
398.900	-18.278	0.099
399.000	-20.554	0.099
399.100	-22.825	0.099
399.200	-26.029	0.099
399.300	-15.761	0.099
399.400	-29.312	0.099
399.500	-27.481	0.099
399.600	-19.943	0.099
399.700	-16.394	0.099
399.800	-30.448	0.099
399.900	-4.483	0.099
400.000	-17.950	0.099
400.100	-39.538	0.099
400.200	-30.610	0.099
400.300	-37.892	0.099
400.400	-12.944	0.099
400.500	-14.794	0.099
400.600	-19.084	0.099
400.700	-36.042	0.099
400.800	-23.952	0.099
400.900	-9.500	0.099
401.000	-15.296	0.099
401.100	-31.922	0.099
401.200	-22.424	0.099
401.300	-17.866	0.099
401.400	-18.133	0.099
401.500	-25.372	0.099
401.600	-19.548	0.099
401.700	-21.419	0.099
401.800	-20.467	0.099
401.900	-24.811	0.099
402.000	-30.497	0.099
402.100	-23.349	0.099
402.200	-26.674	0.099
402.300	-25.610	0.099
402.400	-25.537	0.099
402.500	-17.686	0.099
402.600	-21.171	0.099
402.700	-30.730	0.099
402.800	-13.183	0.099
402.900	-18.937	0.099
403.000	-16.615	0.099
403.100	-25.015	0.099
403.200	-23.807	0.099
403.300	-22.656	0.099
403.400	-24.563	0.099
403.500	-24.148	0.099
403.600	-23.350	0.099
403.700	-24.784	0.099
403.800	-22.071	0.099
403.900	-25.217	0.099
404.000	-17.785	0.099
404.100	-22.743	0.099
404.200	-26.281	0.099
404.300	-16.585	0.099
404.400	-25.239	0.099
404.500	-30.601	0.099
404.600	-24.412	0.099
404.700	-35.256	0.099
404.800	-28.977	0.099
404.900	-20.475	0.099
405.000	-19.567	0.099
405.100	-21.380	0.099
405.200	-12.254	0.099
405.300	-19.249	0.099
405.400	-16.567	0.099
405.500	-21.772	0.099
405.600	-19.901	0.099
405.700	-20.964	0.099
405.800	-24.232	0.099
405.900	-35.748	0.099
406.000	-33.049	0.099
406.100	-26.676	0.099
406.200	-28.133	0.099
406.300	-27.408	0.099
406.400	-27.036	0.099
406.500	-23.784	0.099
406.600	-33.619	0.099
406.700	-23.645	0.099
406.800	-23.019	0.099
406.900	-31.905	0.099
407.000	-14.333	0.099
407.100	-28.095	0.099
407.200	-19.247	0.099
407.300	-19.935	0.099
407.400	-33.717	0.099
407.500	-26.001	0.099
407.600	-18.770	0.099
407.700	-20.574	0.099
407.800	-22.086	0.099
407.900	-19.665	0.099
408.000	-27.096	0.099
408.100	-19.084	0.099
408.200	-33.511	0.099
408.300	-6.422	0.099
408.400	-32.904	0.099
408.500	-34.308	0.099
408.600	-31.855	0.099
408.700	-26.090	0.099
408.800	-14.444	0.099
408.900	-24.864	0.099
409.000	-30.271	0.099
409.100	-24.019	0.099
409.200	-19.183	0.099
409.300	-23.721	0.099
409.400	-13.710	0.099
409.500	-27.487	0.099
409.600	-19.910	0.099
409.700	-25.121	0.099
409.800	-25.830	0.099
409.900	-24.824	0.099
410.000	-22.323	0.099
410.100	-22.093	0.099
410.200	-24.556	0.099
410.300	-13.612	0.099
410.400	-17.860	0.099
410.500	-33.946	0.099
410.600	-30.603	0.099
410.700	-37.380	0.099
410.800	-34.221	0.099
410.900	-21.023	0.099
411.000	-23.252	0.099
411.100	-29.085	0.099
411.200	-25.528	0.099
411.300	-19.785	0.099
411.400	-24.404	0.099
411.500	-19.032	0.099
411.600	-25.213	0.099
411.700	-37.683	0.099
411.800	-26.761	0.099
411.900	-14.807	0.099
412.000	-23.593	0.099
412.100	-19.184	0.099
412.200	-28.475	0.099
412.300	-27.679	0.100
412.400	-35.526	0.099
412.500	-30.624	0.100
412.600	-27.181	0.099
412.700	-22.383	0.099
412.800	-20.373	0.099
412.900	-25.332	0.100
413.000	-20.563	0.100
413.100	-24.253	0.099
413.200	-31.842	0.100
413.300	-27.022	0.100
413.400	-22.986	0.100
413.500	-4.446	0.100
413.600	-20.038	0.100
413.700	-25.554	0.100
413.800	-21.149	0.100
413.900	-19.319	0.100
414.000	-18.555	0.100
414.100	-30.332	0.100
414.200	-11.547	0.100
414.300	-31.196	0.100
414.400	-35.012	0.100
414.500	-21.867	0.100
414.600	-28.039	0.100
414.700	-21.736	0.100
414.800	-23.658	0.100
414.900	-18.920	0.100
415.000	-34.820	0.100
415.100	-27.541	0.100
415.200	-27.610	0.100
415.300	-17.818	0.100
415.400	-13.088	0.100
415.500	-22.625	0.100
415.600	-25.403	0.100
415.700	-20.880	0.100
415.800	-22.781	0.100
415.900	-26.715	0.100
416.000	-25.880	0.100
416.100	-21.691	0.100
416.200	-30.059	0.100
416.300	-34.761	0.100
416.400	-22.195	0.100
416.500	-10.115	0.100
416.600	-34.641	0.100
416.700	-32.673	0.100
416.800	-29.048	0.100
416.900	-31.267	0.100
417.000	-21.664	0.100
417.100	-28.455	0.100
417.200	-21.488	0.100
417.300	-23.056	0.100
417.400	-16.441	0.100
417.500	-18.889	0.100
417.600	-21.558	0.100
417.700	-30.028	0.100
417.800	-22.169	0.100
417.900	-21.251	0.100
418.000	-19.374	0.100
418.100	-42.183	0.100
418.200	-38.204	0.100
418.300	-31.224	0.100
418.400	-19.544	0.100
418.500	-21.434	0.100
418.600	-23.352	0.100
418.700	-25.954	0.100
418.800	-21.854	0.100
418.900	-24.889	0.100
419.000	-34.301	0.100
419.100	-26.911	0.100
419.200	-28.351	0.100
419.300	-14.416	0.100
419.400	-1.719	0.100
419.500	-26.124	0.100
419.600	-11.915	0.100
419.700	-23.981	0.100
419.800	-28.906	0.100
419.900	-25.297	0.100
420.000	-33.633	0.100
420.100	-21.479	0.100
420.200	-26.919	0.100
420.300	-20.873	0.100
420.400	-29.365	0.100
420.500	-21.021	0.100
420.600	-21.075	0.100
420.700	-19.370	0.100
420.800	-31.449	0.100
420.900	-16.888	0.100
421.000	-26.053	0.100
421.100	-12.428	0.100
421.200	-23.608	0.100
421.300	-38.443	0.100
421.400	-20.110	0.100
421.500	-24.504	0.100
421.600	-22.909	0.100
421.700	-28.794	0.100
421.800	-35.855	0.100
421.900	-14.207	0.100
422.000	-25.733	0.100
422.100	-28.693	0.100
422.200	-20.452	0.100
422.300	-25.676	0.100
422.400	-33.417	0.100
422.500	-13.163	0.100
422.600	-23.929	0.100
422.700	-8.131	0.100
422.800	-15.118	0.100
422.900	-25.442	0.100
423.000	-27.914	0.100
423.100	-26.762	0.100
423.200	-21.539	0.100
423.300	-12.419	0.100
423.400	-19.619	0.100
423.500	-20.975	0.100
423.600	-16.224	0.100
423.700	-39.793	0.100
423.800	-36.364	0.100
423.900	-17.437	0.100
424.000	-24.072	0.100
424.100	-20.110	0.100
424.200	-11.660	0.100
424.300	-15.678	0.100
424.400	-12.326	0.100
424.500	-17.360	0.100
424.600	-13.596	0.100
424.700	-31.085	0.100
424.800	-17.703	0.100
424.900	-34.736	0.100
425.000	-25.535	0.100
425.100	-22.639	0.100
425.200	-25.702	0.100
425.300	-22.748	0.100
425.400	-19.665	0.100
425.500	-26.871	0.100
425.600	-27.020	0.100
425.700	-25.113	0.100
425.800	-23.732	0.100
425.900	-24.360	0.100
426.000	-28.007	0.100
426.100	-11.957	0.100
426.200	-21.029	0.100
426.300	-25.473	0.100
426.400	-29.255	0.100
426.500	-26.144	0.100
426.600	-24.639	0.100
426.700	-29.865	0.100
426.800	-14.526	0.100
426.900	-21.774	0.100
427.000	-26.602	0.100
427.100	-12.551	0.100
427.200	-18.405	0.100
427.300	-20.729	0.100
427.400	-26.604	0.100
427.500	-25.287	0.100
427.600	-26.746	0.100
427.700	-33.458	0.100
427.800	-25.973	0.100
427.900	-18.255	0.100
428.000	-19.456	0.100
428.100	-20.941	0.100
428.200	-30.786	0.100
428.300	-30.701	0.100
428.400	-22.475	0.100
428.500	-15.884	0.100
428.600	-25.888	0.100
428.700	-20.228	0.100
428.800	-17.818	0.100
428.900	-30.798	0.100
429.000	-28.396	0.100
429.100	-23.811	0.100
429.200	-11.258	0.100
429.300	-26.122	0.100
429.400	-20.806	0.100
429.500	-15.206	0.100
429.600	-22.517	0.100
429.700	-23.661	0.100
429.800	-15.264	0.100
429.900	-17.533	0.100
430.000	-26.904	0.100
430.100	-10.259	0.100
430.200	-23.084	0.100
430.300	-27.247	0.100
430.400	-14.154	0.100
430.500	-44.903	0.100
430.600	-34.527	0.100
430.700	-17.210	0.100
430.800	-26.487	0.100
430.900	-23.445	0.100
431.000	-30.747	0.100
431.100	-12.304	0.100
431.200	-24.026	0.100
431.300	-32.407	0.100
431.400	-26.655	0.100
431.500	-12.818	0.100
431.600	-19.551	0.100
431.700	-17.087	0.100
431.800	-26.080	0.100
431.900	-26.220	0.100
432.000	-12.249	0.100
432.100	-20.075	0.100
432.200	-27.724	0.100
432.300	-32.221	0.100
432.400	-29.473	0.100
432.500	-20.856	0.100
432.600	-27.769	0.100
432.700	-9.182	0.100
432.800	-27.823	0.100
432.900	-14.507	0.100
433.000	-21.412	0.100
433.100	-18.384	0.100
433.200	-19.439	0.100
433.300	-32.150	0.100
433.400	-36.000	0.100
433.500	-21.458	0.100
433.600	-26.755	0.100
433.700	-13.777	0.100
433.800	-21.705	0.100
433.900	-24.165	0.100
434.000	-33.542	0.100
434.100	-23.210	0.100
434.200	-28.050	0.100
434.300	-26.537	0.099
434.400	-30.691	0.099
434.500	-13.987	0.099
434.600	-14.318	0.099
434.700	-18.417	0.100
434.800	-26.989	0.099
434.900	-19.767	0.099
435.000	-25.355	0.099
435.100	-15.545	0.100
435.200	-14.503	0.100
435.300	-19.041	0.100
435.400	-24.438	0.099
435.500	-26.569	0.099
435.600	-21.661	0.099
435.700	-23.450	0.099
435.800	-21.839	0.099
435.900	-23.274	0.099
436.000	-23.744	0.099
436.100	-11.837	0.099
436.200	-30.103	0.099
436.300	-12.098	0.099
436.400	-16.722	0.099
436.500	-26.752	0.099
436.600	-24.028	0.099
436.700	-5.126	0.099
436.800	-30.491	0.099
436.900	-27.101	0.099
437.000	-20.835	0.099
437.100	-1.128	0.099
437.200	-10.321	0.099
437.300	-25.279	0.099
437.400	-23.187	0.099
437.500	-17.049	0.099
437.600	-14.209	0.099
437.700	-28.591	0.099
437.800	-31.220	0.099
437.900	-13.304	0.099
438.000	-13.634	0.099
438.100	-36.218	0.099
438.200	-15.732	0.099
438.300	-17.754	0.099
438.400	-22.741	0.099
438.500	-22.758	0.099
438.600	-16.691	0.099
438.700	-17.498	0.100
438.800	-35.526	0.099
438.900	-21.530	0.099
439.000	-23.263	0.099
439.100	-20.282	0.099
439.200	-13.942	0.099
439.300	-16.086	0.100
439.400	-28.324	0.099
439.500	-25.712	0.099
439.600	-21.451	0.099
439.700	-26.089	0.100
439.800	-19.020	0.099
439.900	-23.875	0.099
440.000	-24.387	0.099
440.100	-14.299	0.100
440.200	-10.472	0.100
440.300	-34.889	0.099
440.400	-22.669	0.099
440.500	-24.876	0.099
440.600	-15.093	0.099
440.700	-19.331	0.100
440.800	-28.447	0.099
440.900	-16.916	0.099
441.000	-13.881	0.099
441.100	-7.552	0.099
441.200	-24.081	0.099
441.300	-8.307	0.099
441.400	-1.758	0.099
441.500	-15.276	0.099
441.600	-17.339	0.099
441.700	-36.042	0.099
441.800	-15.302	0.099
441.900	-26.103	0.099
442.000	-21.424	0.099
442.100	-13.637	0.099
442.200	-17.701	0.100
442.300	-26.448	0.099
442.400	-20.270	0.099
442.500	-14.138	0.099
442.600	-11.675	0.099
442.700	-11.458	0.100
442.800	-25.283	0.099
442.900	-19.915	0.099
443.000	-20.156	0.100
443.100	-12.687	0.099
443.200	-12.394	0.100
443.300	-29.955	0.099
443.400	-17.364	0.099
443.500	-38.235	0.099
443.600	-24.105	0.099
443.700	-9.115	0.099
443.800	-4.391	0.099
443.900	-20.403	0.099
444.000	-28.170	0.099
444.100	-18.433	0.099
444.200	-31.235	0.099
444.300	-18.737	0.099
444.400	-24.575	0.099
444.500	-20.343	0.099
444.600	-15.238	0.099
444.700	-19.465	0.100
444.800	-24.944	0.099
444.900	-29.745	0.099
445.000	-9.732	0.099
445.100	-12.059	0.099
445.200	-19.086	0.099
445.300	-19.725	0.099
445.400	-21.155	0.099
445.500	-21.509	0.099
445.600	-21.392	0.099
445.700	-10.473	0.099
445.800	-19.446	0.099
445.900	-25.437	0.099
446.000	-24.264	0.099
446.100	-7.495	0.100
446.200	-4.595	0.099
446.300	-18.206	0.099
446.400	-6.798	0.100
446.500	-10.077	0.099
446.600	-18.114	0.099
446.700	-23.014	0.099
446.800	-29.367	0.099
446.900	-20.350	0.099
447.000	-23.441	0.099
447.100	-22.258	0.099
447.200	-28.124	0.099
447.300	-22.529	0.099
447.400	-16.044	0.099
447.500	-17.286	0.099
447.600	-23.962	0.099
447.700	-17.081	0.099
447.800	-14.045	0.099
447.900	-20.779	0.099
448.000	-19.029	0.099
448.100	-22.276	0.099
448.200	-33.262	0.099
448.300	-19.508	0.099
448.400	-17.266	0.099
448.500	-26.583	0.099
448.600	-7.809	0.099
448.700	-14.300	0.099
448.800	-37.311	0.099
448.900	-25.829	0.099
449.000	-11.996	0.099
449.100	-12.449	0.099
449.200	-4.215	0.099
449.300	-20.658	0.099
449.400	-19.660	0.099
449.500	-18.436	0.099
449.600	-20.361	0.099
449.700	-16.084	0.099
449.800	-14.698	0.099
449.900	-22.206	0.099
450.000	-19.521	0.099
450.100	-19.582	0.099
450.200	-17.826	0.099
450.300	-19.605	0.099
450.400	-17.488	0.099
450.500	-24.913	0.099
450.600	-22.479	0.099
450.700	-21.513	0.099
450.800	-17.629	0.099
450.900	-17.021	0.100
451.000	-20.538	0.099
451.100	-17.400	0.099
451.200	-13.200	0.099
451.300	-30.416	0.099
451.400	-11.533	0.099
451.500	-15.289	0.099
451.600	-8.394	0.099
451.700	-28.889	0.099
451.800	-28.355	0.099
451.900	-20.821	0.099
452.000	-25.152	0.099
452.100	-11.016	0.100
452.200	-26.944	0.099
452.300	-21.443	0.099
452.400	-7.196	0.099
452.500	-21.338	0.099
452.600	-13.063	0.099
452.700	-30.271	0.099
452.800	-17.113	0.099
452.900	-18.944	0.099
453.000	-13.150	0.099
453.100	-9.633	0.099
453.200	-27.645	0.099
453.300	-16.444	0.099
453.400	-12.415	0.099
453.500	-17.173	0.099
453.600	-25.879	0.099
453.700	-1.000	0.099
453.800	-21.554	0.099
453.900	-14.312	0.099
454.000	-21.274	0.099
454.100	-16.755	0.099
454.200	-19.300	0.099
454.300	-18.648	0.099
454.400	-14.094	0.099
454.500	-22.608	0.099
454.600	-19.745	0.099
454.700	-18.433	0.099
454.800	-21.942	0.099
454.900	-22.576	0.099
455.000	-20.149	0.099
455.100	-23.276	0.099
455.200	-12.930	0.099
455.300	-8.937	0.099
455.400	-21.668	0.099
455.500	-19.183	0.099
455.600	-30.182	0.100
455.700	-22.221	0.099
455.800	-9.035	0.099
455.900	-27.488	0.099
456.000	-13.587	0.099
456.100	-2.401	0.099
456.200	-25.558	0.099
456.300	-27.866	0.100
456.400	-17.832	0.099
456.500	-9.666	0.099
456.600	-11.829	0.099
456.700	-24.406	0.099
456.800	-27.507	0.099
456.900	-23.950	0.099
457.000	-15.665	0.099
457.100	-16.391	0.099
457.200	-16.226	0.099
457.300	-15.330	0.099
457.400	-11.563	0.099
457.500	-20.130	0.099
457.600	-12.426	0.099
457.700	-14.112	0.100
457.800	-12.322	0.099
457.900	-20.315	0.099
458.000	-16.292	0.099
458.100	-34.469	0.100
458.200	-19.520	0.100
458.300	-39.636	0.099
458.400	-11.862	0.099
458.500	-25.254	0.099
458.600	-25.747	0.099
458.700	-14.607	0.099
458.800	-4.012	0.099
458.900	-15.345	0.099
459.000	-14.710	0.099
459.100	-7.725	0.099
459.200	-35.154	0.099
459.300	-20.460	0.099
459.400	-3.960	0.099
459.500	-15.169	0.099
459.600	-18.310	0.099
459.700	-13.810	0.099
459.800	-15.491	0.099
459.900	-15.039	0.099
460.000	-25.878	0.099
460.100	-19.108	0.099
460.200	-25.168	0.099
460.300	-8.350	0.099
460.400	-18.754	0.099
460.500	-17.051	0.099
460.600	-12.557	0.099
460.700	-7.742	0.099
460.800	-15.903	0.099
460.900	-18.506	0.099
461.000	-26.392	0.099
461.100	-18.039	0.099
461.200	-23.143	0.099
461.300	-31.226	0.099
461.400	-16.463	0.099
461.500	-15.832	0.099
461.600	-12.105	0.099
461.700	-9.801	0.099
461.800	-16.182	0.099
461.900	-30.374	0.099
462.000	-12.405	0.099
462.100	-15.837	0.099
462.200	-2.668	0.099
462.300	-19.578	0.099
462.400	-19.152	0.099
462.500	-20.181	0.099
462.600	-16.833	0.099
462.700	-26.754	0.099
462.800	-21.373	0.099
462.900	-19.786	0.099
463.000	-16.361	0.099
463.100	-17.414	0.099
463.200	-29.422	0.099
463.300	-8.178	0.099
463.400	-8.341	0.099
463.500	-21.016	0.099
463.600	-12.941	0.099
463.700	-8.439	0.099
463.800	-15.763	0.099
463.900	-7.689	0.100
464.000	-12.013	0.099
464.100	-20.894	0.099
464.200	-21.327	0.099
464.300	-27.731	0.099
464.400	-23.762	0.099
464.500	-8.448	0.099
464.600	-19.841	0.099
464.700	-12.297	0.099
464.800	-12.286	0.099
464.900	-13.955	0.099
465.000	-8.684	0.099
465.100	-5.244	0.099
465.200	-10.229	0.099
465.300	-21.031	0.099
465.400	-8.366	0.099
465.500	-20.972	0.099
465.600	-20.320	0.099
465.700	-12.995	0.099
465.800	-10.247	0.099
465.900	-15.353	0.099
466.000	-25.164	0.099
466.100	-19.003	0.099
466.200	-24.569	0.099
466.300	-14.744	0.099
466.400	-30.593	0.099
466.500	-13.082	0.099
466.600	-14.574	0.099
466.700	-10.344	0.099
466.800	-7.440	0.099
466.900	-5.126	0.099
467.000	-8.635	0.099
467.100	-10.878	0.099
467.200	-16.586	0.099
467.300	-28.260	0.099
467.400	-20.963	0.099
467.500	-11.081	0.100
467.600	-6.424	0.099
467.700	-20.993	0.100
467.800	-20.678	0.099
467.900	-8.120	0.099
468.000	-13.189	0.099
468.100	-23.620	0.099
468.200	-10.814	0.099
468.300	-13.302	0.099
468.400	-18.210	0.099
468.500	-1.082	0.099
468.600	-15.756	0.099
468.700	-19.336	0.099
468.800	-22.521	0.099
468.900	-24.072	0.100
469.000	-18.766	0.099
469.100	-23.600	0.099
469.200	-13.399	0.099
469.300	-14.590	0.099
469.400	-12.283	0.099
469.500	-22.115	0.099
469.600	-16.974	0.099
469.700	-31.985	0.099
469.800	-22.348	0.099
469.900	-9.995	0.099
470.000	-25.113	0.099
470.100	-29.099	0.099
470.200	-13.071	0.099
470.300	-8.273	0.099
470.400	-25.278	0.099
470.500	-6.939	0.099
470.600	-15.256	0.099
470.700	-14.829	0.099
470.800	-16.093	0.099
470.900	-23.282	0.099
471.000	-21.288	0.099
471.100	-8.707	0.099
471.200	-20.407	0.099
471.300	-13.766	0.099
471.400	-15.013	0.099
471.500	-24.130	0.099
471.600	-16.951	0.099
471.700	-15.078	0.099
471.800	-18.989	0.099
471.900	-21.440	0.099
472.000	-27.248	0.099
472.100	-7.818	0.099
472.200	-16.244	0.099
472.300	-1.348	0.099
472.400	-3.095	0.099
472.500	-6.834	0.099
472.600	-13.794	0.099
472.700	-28.393	0.099
472.800	-16.222	0.099
472.900	-12.231	0.099
473.000	-21.021	0.099
473.100	-18.440	0.099
473.200	-17.368	0.099
473.300	-9.520	0.099
473.400	-24.081	0.099
473.500	-8.917	0.099
473.600	-14.218	0.099
473.700	-25.916	0.099
473.800	-21.246	0.099
473.900	-13.129	0.099
474.000	-17.060	0.100
474.100	-22.269	0.099
474.200	-3.500	0.099
474.300	-23.202	0.099
474.400	-22.169	0.099
474.500	-18.183	0.099
474.600	-9.571	0.099
474.700	-14.788	0.099
474.800	-11.697	0.099
474.900	-16.584	0.099
475.000	-16.426	0.099
475.100	-11.326	0.099
475.200	-23.733	0.099
475.300	-13.023	0.099
475.400	-8.470	0.100
475.500	-23.111	0.099
475.600	-21.464	0.099
475.700	-17.788	0.099
475.800	-26.682	0.099
475.900	-15.506	0.099
476.000	-10.994	0.099
476.100	-6.900	0.099
476.200	-11.726	0.099
476.300	-22.269	0.099
476.400	1.400	0.099
476.500	-18.098	0.099
476.600	-10.881	0.099
476.700	0.815	0.100
476.800	-1.593	0.100
476.900	-14.513	0.099
477.000	-16.735	0.099
477.100	-20.146	0.099
477.200	-7.847	0.099
477.300	-20.176	0.099
477.400	-19.892	0.099
477.500	-23.184	0.099
477.600	-11.334	0.099
477.700	-16.272	0.099
477.800	-15.186	0.100
477.900	-16.877	0.099
478.000	-1.052	0.099
478.100	-14.780	0.099
478.200	-20.533	0.099
478.300	-14.920	0.099
478.400	-8.012	0.099
478.500	-4.237	0.099
478.600	-21.658	0.099
478.700	-20.202	0.099
478.800	-19.339	0.099
478.900	-12.577	0.099
479.000	-20.181	0.100
479.100	-17.752	0.099
479.200	-13.735	0.099
479.300	-22.216	0.099
479.400	-0.654	0.099
479.500	-11.686	0.099
479.600	-10.168	0.099
479.700	-24.390	0.099
479.800	-20.759	0.099
479.900	-19.294	0.099
480.000	-5.039	0.099
480.100	-21.156	0.099
480.200	-10.449	0.099
480.300	6.571	0.100
480.400	-3.352	0.100
480.500	1.526	0.099
480.600	8.767	0.099
480.700	23.013	0.099
480.800	9.256	0.099
480.900	15.743	0.099
481.000	9.193	0.099
481.100	20.542	0.099
481.200	22.708	0.099
481.300	17.537	0.099
481.400	18.433	0.099
481.500	29.870	0.099
481.600	22.360	0.099
481.700	26.614	0.100
481.800	16.529	0.099
481.900	11.961	0.099
482.000	22.086	0.099
482.100	18.188	0.099
482.200	17.887	0.099
482.300	27.010	0.099
482.400	35.340	0.099
482.500	21.078	0.099
482.600	20.554	0.099
482.700	25.989	0.099
482.800	32.834	0.099
482.900	18.740	0.099
483.000	24.541	0.099
483.100	17.529	0.099
483.200	7.093	0.099
483.300	9.178	0.099
483.400	4.252	0.099
483.500	8.524	0.099
483.600	8.012	0.099
483.700	26.801	0.099
483.800	4.354	0.099
483.900	16.870	0.099
484.000	18.425	0.099
484.100	7.821	0.099
484.200	8.307	0.099
484.300	9.744	0.099
484.400	17.196	0.099
484.500	16.748	0.099
484.600	8.825	0.099
484.700	19.183	0.099
484.800	26.973	0.100
484.900	7.260	0.099
485.000	16.751	0.099
485.100	21.984	0.099
485.200	17.333	0.100
485.300	6.448	0.099
485.400	20.863	0.099
485.500	5.834	0.099
485.600	22.692	0.099
485.700	18.931	0.099
485.800	24.745	0.099
485.900	9.535	0.099
486.000	5.265	0.099
486.100	23.196	0.099
486.200	21.032	0.099
486.300	29.635	0.099
486.400	16.392	0.099
486.500	26.347	0.099
486.600	19.697	0.099
486.700	-5.948	0.099
486.800	31.490	0.099
486.900	19.151	0.099
487.000	30.112	0.099
487.100	18.014	0.099
487.200	20.624	0.099
487.300	17.923	0.099
487.400	30.891	0.099
487.500	15.816	0.099
487.600	32.652	0.099
487.700	27.193	0.099
487.800	24.341	0.099
487.900	34.674	0.099
488.000	28.195	0.099
488.100	34.036	0.099
488.200	26.226	0.099
488.300	19.628	0.099
488.400	34.548	0.099
488.500	27.172	0.099
488.600	28.499	0.099
488.700	32.016	0.099
488.800	25.234	0.099
488.900	22.882	0.099
489.000	33.313	0.099
489.100	32.834	0.099
489.200	36.766	0.099
489.300	27.698	0.099
489.400	37.043	0.099
489.500	41.582	0.099
489.600	39.645	0.099
489.700	30.507	0.099
489.800	27.041	0.099
489.900	34.032	0.099
490.000	36.166	0.099
490.100	39.822	0.099
490.200	28.383	0.099
490.300	28.308	0.099
490.400	41.384	0.099
490.500	27.472	0.099
490.600	32.551	0.099
490.700	33.377	0.099
490.800	41.141	0.099
490.900	33.252	0.099
491.000	39.672	0.100
491.100	26.394	0.099
491.200	40.879	0.099
491.300	36.031	0.099
491.400	39.537	0.099
491.500	39.420	0.099
491.600	30.371	0.099
491.700	17.550	0.099
491.800	37.504	0.099
491.900	44.146	0.099
492.000	51.518	0.099
492.100	51.429	0.099
492.200	39.607	0.099
492.300	32.944	0.099
492.400	41.119	0.099
492.500	48.781	0.099
492.600	36.005	0.099
492.700	33.721	0.099
492.800	37.585	0.099
492.900	45.495	0.099
493.000	39.380	0.099
493.100	42.799	0.099
493.200	29.672	0.099
493.300	36.032	0.099
493.400	45.421	0.099
493.500	31.032	0.099
493.600	32.922	0.099
493.700	17.588	0.099
493.800	39.157	0.099
493.900	48.977	0.099
494.000	41.595	0.099
494.100	53.663	0.099
494.200	21.158	0.100
494.300	37.510	0.099
494.400	35.309	0.099
494.500	32.939	0.099
494.600	42.273	0.099
494.700	29.794	0.100
494.800	44.076	0.099
494.900	48.202	0.099
495.000	33.588	0.099
495.100	43.825	0.099
495.200	49.723	0.099
495.300	25.749	0.099
495.400	40.789	0.099
495.500	42.363	0.099
495.600	32.605	0.099
495.700	35.134	0.099
495.800	38.242	0.099
495.900	37.826	0.099
496.000	48.167	0.099
496.100	33.683	0.099
496.200	44.358	0.099
496.300	35.674	0.099
496.400	29.907	0.099
496.500	33.468	0.099
496.600	36.799	0.099
496.700	35.118	0.099
496.800	35.971	0.099
496.900	32.264	0.099
497.000	28.126	0.099
497.100	45.614	0.099
497.200	43.247	0.099
497.300	42.978	0.099
497.400	38.116	0.099
497.500	38.633	0.100
497.600	34.072	0.100
497.700	32.985	0.099
497.800	19.630	0.099
497.900	22.648	0.099
498.000	45.140	0.100
498.100	43.501	0.099
498.200	39.249	0.100
498.300	26.713	0.099
498.400	41.538	0.099
498.500	39.009	0.099
498.600	39.233	0.099
498.700	48.278	0.099
498.800	33.639	0.099
498.900	30.258	0.099
499.000	37.410	0.099
499.100	35.819	0.099
499.200	51.330	0.099
499.300	27.267	0.099
499.400	30.562	0.099
499.500	41.484	0.099
499.600	26.410	0.099
499.700	28.680	0.099
499.800	33.930	0.099
499.900	45.332	0.099
500.000	22.663	0.100
500.100	33.541	0.100
500.200	43.628	0.099
500.300	29.082	0.099
500.400	34.104	0.099
500.500	43.885	0.099
500.600	37.559	0.099
500.700	44.025	0.099
500.800	43.365	0.099
500.900	40.206	0.100
501.000	29.533	0.099
501.100	40.341	0.099
501.200	35.673	0.099
501.300	36.328	0.099
501.400	23.898	0.099
501.500	31.553	0.099
501.600	34.929	0.099
501.700	41.755	0.099
501.800	36.492	0.099
501.900	29.749	0.099
502.000	43.613	0.100
502.100	33.527	0.099
502.200	33.182	0.100
502.300	31.036	0.099
502.400	26.423	0.099
502.500	38.040	0.099
502.600	36.241	0.100
502.700	39.786	0.099
502.800	28.653	0.099
502.900	32.513	0.099
503.000	21.651	0.099
503.100	40.390	0.099
503.200	21.528	0.099
503.300	28.493	0.099
503.400	28.712	0.099
503.500	37.283	0.099
503.600	25.469	0.099
503.700	37.817	0.099
503.800	35.300	0.099
503.900	49.446	0.099
504.000	33.708	0.100
504.100	13.153	0.099
504.200	41.741	0.099
504.300	36.931	0.099
504.400	38.303	0.099
504.500	33.507	0.099
504.600	34.821	0.099
504.700	34.099	0.099
504.800	34.230	0.099
504.900	23.395	0.099
505.000	36.159	0.099
505.100	37.409	0.099
505.200	30.103	0.099
505.300	34.390	0.099
505.400	33.903	0.099
505.500	14.711	0.099
505.600	39.916	0.099
505.700	26.040	0.099
505.800	47.995	0.099
505.900	33.251	0.099
506.000	30.203	0.099
506.100	36.534	0.099
506.200	20.360	0.099
506.300	36.952	0.099
506.400	43.068	0.099
506.500	38.581	0.099
506.600	34.794	0.099
506.700	21.997	0.099
506.800	40.155	0.099
506.900	24.156	0.099
507.000	22.182	0.099
507.100	42.306	0.099
507.200	35.919	0.099
507.300	35.401	0.099
507.400	18.304	0.099
507.500	34.017	0.099
507.600	32.392	0.099
507.700	30.788	0.099
507.800	38.937	0.099
507.900	24.953	0.099
508.000	28.718	0.099
508.100	29.630	0.099
508.200	39.856	0.099
508.300	40.451	0.099
508.400	36.992	0.099
508.500	18.052	0.099
508.600	32.652	0.099
508.700	27.811	0.099
508.800	26.735	0.099
508.900	43.282	0.099
509.000	19.096	0.099
509.100	42.128	0.099
509.200	22.168	0.099
509.300	26.518	0.099
509.400	38.248	0.099
509.500	30.873	0.099
509.600	22.723	0.099
509.700	24.304	0.099
509.800	37.988	0.099
509.900	21.060	0.099
510.000	32.141	0.099
510.100	32.774	0.100
510.200	29.196	0.099
510.300	36.805	0.099
510.400	37.877	0.100
510.500	20.057	0.099
510.600	34.456	0.099
510.700	42.399	0.099
510.800	35.472	0.099
510.900	28.903	0.099
511.000	34.284	0.099
511.100	30.872	0.100
511.200	25.387	0.100
511.300	34.995	0.099
511.400	24.581	0.100
511.500	40.163	0.100
511.600	31.051	0.099
511.700	35.570	0.099
511.800	29.310	0.099
511.900	23.374	0.099
512.000	25.966	0.100
512.100	40.032	0.099
512.200	23.428	0.099
512.300	39.218	0.099
512.400	40.259	0.099
512.500	36.368	0.100
512.600	25.752	0.099
512.700	28.903	0.099
512.800	23.759	0.100
512.900	42.514	0.099
513.000	16.480	0.099
513.100	27.355	0.099
513.200	35.941	0.099
513.300	17.045	0.099
513.400	36.522	0.099
513.500	21.450	0.099
513.600	36.134	0.099
513.700	37.435	0.099
513.800	38.650	0.099
513.900	33.324	0.099
514.000	47.379	0.099
514.100	38.891	0.099
514.200	28.905	0.099
514.300	36.626	0.099
514.400	28.140	0.100
514.500	27.356	0.099
514.600	32.755	0.100
514.700	34.013	0.099
514.800	32.665	0.099
514.900	35.243	0.099
515.000	34.674	0.100
515.100	25.470	0.099
515.200	10.859	0.099
515.300	47.365	0.100
515.400	22.151	0.099
515.500	24.548	0.099
515.600	31.672	0.099
515.700	22.588	0.099
515.800	34.052	0.099
515.900	30.759	0.099
516.000	32.613	0.099
516.100	35.332	0.099
516.200	27.920	0.099
516.300	22.192	0.099
516.400	20.084	0.100
516.500	25.848	0.099
516.600	33.355	0.099
516.700	26.419	0.099
516.800	34.588	0.099
516.900	44.914	0.099
517.000	27.404	0.099
517.100	29.937	0.099
517.200	35.839	0.099
517.300	36.290	0.099
517.400	38.967	0.099
517.500	21.087	0.100
517.600	22.993	0.099
517.700	25.812	0.099
517.800	24.056	0.099
517.900	42.849	0.099
518.000	27.898	0.099
518.100	47.353	0.099
518.200	29.347	0.099
518.300	34.368	0.099
518.400	28.486	0.099
518.500	29.663	0.099
518.600	35.177	0.099
518.700	22.368	0.099
518.800	15.135	0.099
518.900	34.782	0.099
519.000	23.266	0.099
519.100	29.234	0.099
519.200	41.236	0.100
519.300	28.377	0.099
519.400	44.698	0.099
519.500	32.355	0.099
519.600	26.520	0.099
519.700	27.272	0.099
519.800	19.708	0.099
519.900	21.270	0.099
520.000	27.922	0.099
520.100	47.489	0.099
520.200	34.955	0.099
520.300	27.965	0.099
520.400	31.373	0.099
520.500	28.901	0.099
520.600	19.158	0.099
520.700	32.933	0.099
520.800	30.669	0.099
520.900	31.362	0.099
521.000	27.804	0.099
521.100	26.879	0.099
521.200	10.121	0.099
521.300	20.755	0.099
521.400	37.114	0.099
521.500	42.650	0.099
521.600	21.317	0.099
521.700	7.164	0.099
521.800	26.064	0.099
521.900	36.859	0.099
522.000	29.927	0.099
522.100	40.045	0.099
522.200	34.598	0.099
522.300	30.675	0.099
522.400	22.248	0.099
522.500	29.733	0.099
522.600	26.579	0.099
522.700	33.224	0.099
522.800	36.019	0.099
522.900	30.406	0.099
523.000	13.886	0.099
523.100	44.462	0.099
523.200	36.738	0.100
523.300	34.022	0.099
523.400	28.869	0.099
523.500	42.488	0.099
523.600	28.598	0.099
523.700	22.270	0.099
523.800	31.582	0.099
523.900	29.172	0.099
524.000	34.535	0.099
524.100	28.311	0.099
524.200	26.877	0.099
524.300	9.235	0.099
524.400	26.070	0.099
524.500	32.685	0.099
524.600	33.700	0.099
524.700	27.921	0.099
524.800	38.699	0.099
524.900	30.704	0.099
525.000	30.190	0.099
525.100	15.587	0.099
525.200	31.955	0.099
525.300	31.187	0.099
525.400	29.985	0.099
525.500	26.105	0.099
525.600	34.193	0.099
525.700	36.377	0.100
525.800	29.778	0.099
525.900	25.777	0.099
526.000	16.667	0.099
526.100	28.678	0.099
526.200	22.793	0.099
526.300	22.578	0.099
526.400	36.869	0.099
526.500	40.136	0.099
526.600	32.149	0.099
526.700	25.972	0.099
526.800	18.202	0.099
526.900	29.175	0.099
527.000	30.835	0.099
527.100	30.492	0.099
527.200	38.910	0.099
527.300	26.281	0.099
527.400	31.723	0.099
527.500	24.578	0.099
527.600	26.042	0.099
527.700	11.114	0.099
527.800	36.416	0.099
527.900	27.125	0.099
528.000	31.670	0.100
528.100	36.947	0.099
528.200	30.011	0.099
528.300	10.304	0.099
528.400	35.032	0.099
528.500	36.169	0.099
528.600	31.973	0.099
528.700	31.258	0.099
528.800	41.431	0.099
528.900	20.608	0.099
529.000	26.615	0.099
529.100	32.977	0.099
529.200	26.481	0.099
529.300	20.904	0.099
529.400	33.309	0.099
529.500	37.541	0.099
529.600	28.232	0.099
529.700	39.393	0.099
529.800	33.863	0.099
529.900	28.153	0.099
530.000	26.781	0.099
530.100	32.349	0.099
530.200	21.670	0.099
530.300	11.432	0.099
530.400	25.427	0.099
530.500	36.227	0.100
530.600	44.299	0.099
530.700	34.259	0.099
530.800	37.614	0.099
530.900	30.956	0.099
531.000	29.176	0.099
531.100	25.761	0.099
531.200	29.094	0.099
531.300	26.478	0.099
531.400	19.759	0.099
531.500	23.268	0.099
531.600	31.672	0.099
531.700	34.921	0.099
531.800	28.166	0.099
531.900	18.945	0.099
532.000	29.438	0.099
532.100	35.097	0.099
532.200	29.180	0.099
532.300	24.507	0.099
532.400	20.073	0.099
532.500	26.342	0.099
532.600	30.738	0.099
532.700	34.710	0.099
532.800	41.849	0.099
532.900	42.056	0.099
533.000	31.573	0.099
533.100	22.240	0.099
533.200	25.744	0.099
533.300	19.200	0.099
533.400	23.981	0.099
533.500	30.734	0.099
533.600	23.572	0.099
533.700	10.408	0.099
533.800	31.827	0.099
533.900	14.182	0.099
534.000	30.380	0.099
534.100	35.392	0.099
534.200	38.444	0.099
534.300	34.991	0.099
534.400	24.098	0.099
534.500	14.338	0.099
534.600	26.307	0.099
534.700	23.565	0.099
534.800	33.723	0.099
534.900	28.222	0.099
535.000	41.100	0.099
535.100	40.313	0.099
535.200	27.245	0.099
535.300	40.737	0.099
535.400	40.932	0.099
535.500	19.067	0.099
535.600	16.962	0.099
535.700	22.930	0.099
535.800	36.828	0.099
535.900	37.007	0.099
536.000	31.290	0.099
536.100	36.543	0.099
536.200	42.014	0.099
536.300	43.451	0.099
536.400	26.521	0.099
536.500	35.995	0.099
536.600	28.241	0.099
536.700	24.003	0.099
536.800	27.718	0.099
536.900	24.686	0.099
537.000	28.258	0.099
537.100	25.478	0.100
537.200	25.791	0.099
537.300	33.121	0.099
537.400	25.909	0.099
537.500	30.209	0.099
537.600	27.897	0.099
537.700	28.556	0.099
537.800	41.966	0.099
537.900	25.109	0.099
538.000	31.846	0.099
538.100	25.820	0.099
538.200	47.617	0.099
538.300	29.825	0.099
538.400	21.315	0.099
538.500	23.877	0.099
538.600	38.174	0.099
538.700	32.283	0.099
538.800	31.809	0.099
538.900	20.193	0.099
539.000	17.943	0.099
539.100	22.448	0.099
539.200	20.473	0.099
539.300	32.518	0.099
539.400	34.596	0.099
539.500	28.900	0.099
539.600	25.636	0.099
539.700	29.824	0.099
539.800	27.677	0.099
539.900	42.921	0.099
540.000	30.332	0.099
540.100	5.343	0.099
540.200	12.980	0.099
540.300	19.566	0.099
540.400	9.168	0.099
540.500	-5.247	0.099
540.600	15.012	0.099
540.700	19.220	0.099
540.800	11.736	0.099
540.900	1.208	0.099
541.000	8.370	0.099
541.100	-3.087	0.099
541.200	-1.773	0.099
541.300	-15.937	0.099
541.400	-22.409	0.099
541.500	-10.738	0.099
541.600	-26.934	0.099
541.700	-18.769	0.099
541.800	-17.517	0.099
541.900	-15.560	0.099
542.000	-14.180	0.099
542.100	-23.920	0.099
542.200	-29.805	0.099
542.300	-15.049	0.099
542.400	-34.379	0.099
542.500	-23.915	0.099
542.600	-14.814	0.099
542.700	-23.240	0.099
542.800	-31.408	0.099
542.900	-29.272	0.099
543.000	-16.785	0.099
543.100	-28.380	0.099
543.200	-20.263	0.099
543.300	-11.733	0.099
543.400	-26.322	0.099
543.500	-24.787	0.099
543.600	-14.810	0.099
543.700	-21.814	0.099
543.800	-9.506	0.099
543.900	-23.265	0.099
544.000	-19.565	0.099
544.100	-12.500	0.099
544.200	-21.431	0.099
544.300	-24.297	0.099
544.400	-19.567	0.099
544.500	-16.089	0.099
544.600	-20.957	0.099
544.700	-40.729	0.099
544.800	-15.002	0.099
544.900	-27.717	0.099
545.000	-36.072	0.099
545.100	-30.933	0.099
545.200	-16.703	0.099
545.300	-10.772	0.099
545.400	-5.623	0.099
545.500	-14.170	0.099
545.600	-10.071	0.100
545.700	-18.347	0.099
545.800	-18.568	0.099
545.900	-12.256	0.099
546.000	-23.645	0.099
546.100	-24.139	0.099
546.200	-25.088	0.099
546.300	-15.772	0.099
546.400	-33.167	0.099
546.500	-19.338	0.099
546.600	-7.662	0.099
546.700	-30.682	0.099
546.800	-17.101	0.099
546.900	-12.652	0.099
547.000	-27.291	0.099
547.100	-25.088	0.099
547.200	-24.848	0.099
547.300	-25.428	0.099
547.400	-18.685	0.099
547.500	-17.127	0.099
547.600	-7.738	0.099
547.700	-23.755	0.099
547.800	-19.724	0.099
547.900	-15.925	0.099
548.000	-22.607	0.099
548.100	-19.068	0.099
548.200	-19.930	0.099
548.300	-15.711	0.099
548.400	-26.548	0.099
548.500	-10.768	0.099
548.600	-16.045	0.099
548.700	-31.962	0.099
548.800	-17.356	0.099
548.900	-25.131	0.099
549.000	-22.189	0.099
549.100	-14.919	0.099
549.200	-38.177	0.099
549.300	-20.417	0.099
549.400	-14.874	0.099
549.500	-19.668	0.099
549.600	-15.714	0.099
549.700	-14.614	0.099
549.800	-4.789	0.099
549.900	-5.317	0.099
550.000	-45.969	0.099
550.100	-16.087	0.099
550.200	-25.379	0.099
550.300	-34.815	0.099
550.400	-34.939	0.099
550.500	-10.489	0.099
550.600	-23.862	0.099
550.700	-19.939	0.099
550.800	-25.595	0.099
550.900	-17.621	0.099
551.000	-24.884	0.099
551.100	-19.233	0.099
551.200	-20.262	0.099
551.300	-40.065	0.099
551.400	-24.328	0.099
551.500	-24.324	0.099
551.600	-12.523	0.099
551.700	-25.818	0.099
551.800	-34.547	0.099
551.900	-21.269	0.099
552.000	-30.852	0.099
552.100	-31.050	0.099
552.200	-25.708	0.099
552.300	-20.154	0.099
552.400	-28.870	0.099
552.500	-37.077	0.099
552.600	-31.589	0.099
552.700	-36.445	0.099
552.800	-27.999	0.099
552.900	-22.020	0.099
553.000	-17.468	0.099
553.100	-18.528	0.099
553.200	-28.599	0.099
553.300	-27.751	0.099
553.400	-18.921	0.099
553.500	-26.157	0.099
553.600	-32.212	0.099
553.700	-34.459	0.099
553.800	-21.419	0.099
553.900	-20.728	0.099
554.000	-29.748	0.099
554.100	-13.606	0.099
554.200	-23.004	0.099
554.300	-26.000	0.099
554.400	-11.688	0.099
554.500	-25.405	0.099
554.600	-30.290	0.099
554.700	-26.892	0.099
554.800	-32.233	0.099
554.900	-31.329	0.099
555.000	-22.460	0.099
555.100	-15.839	0.099
555.200	-22.925	0.099
555.300	-38.757	0.099
555.400	-28.832	0.099
555.500	-26.869	0.099
555.600	-29.964	0.099
555.700	-24.742	0.099
555.800	-41.293	0.099
555.900	-12.420	0.099
556.000	-28.086	0.099
556.100	-25.579	0.099
556.200	-23.765	0.099
556.300	-30.504	0.099
556.400	-18.536	0.099
556.500	-24.312	0.099
556.600	-27.130	0.099
556.700	-25.347	0.099
556.800	-25.006	0.099
556.900	-32.313	0.099
557.000	-34.717	0.099
557.100	-24.328	0.099
557.200	-13.101	0.099
557.300	-28.065	0.099
557.400	-34.306	0.099
557.500	-26.478	0.099
557.600	-32.472	0.099
557.700	-28.474	0.099
557.800	-27.304	0.099
557.900	-22.786	0.099
558.000	-17.717	0.099
558.100	-24.322	0.099
558.200	-15.828	0.099
558.300	-29.883	0.099
558.400	-22.576	0.099
558.500	-42.543	0.099
558.600	-19.705	0.099
558.700	-34.325	0.099
558.800	-27.622	0.099
558.900	-24.357	0.099
559.000	-35.352	0.099
559.100	-31.497	0.099
559.200	-8.210	0.099
559.300	-23.711	0.099
559.400	-27.607	0.099
559.500	-28.156	0.099
559.600	-32.012	0.099
559.700	-23.636	0.099
559.800	-31.687	0.099
559.900	-22.193	0.099
560.000	-43.561	0.099
560.100	-34.764	0.099
560.200	-20.340	0.099
560.300	-14.903	0.099
560.400	-24.445	0.099
560.500	-22.483	0.099
560.600	-29.345	0.099
560.700	-23.620	0.099
560.800	-28.901	0.099
560.900	-21.927	0.099
561.000	-28.521	0.099
561.100	-14.473	0.099
561.200	-14.285	0.099
561.300	-29.225	0.099
561.400	-33.193	0.099
561.500	-49.914	0.099
561.600	-14.904	0.099
561.700	-23.845	0.099
561.800	-24.494	0.099
561.900	-31.135	0.099
562.000	-16.743	0.099
562.100	-18.127	0.099
562.200	-30.723	0.099
562.300	-22.327	0.099
562.400	-17.757	0.099
562.500	-22.211	0.099
562.600	-23.352	0.099
562.700	-24.427	0.099
562.800	-36.627	0.099
562.900	-33.997	0.099
563.000	-20.093	0.099
563.100	-29.791	0.099
563.200	-27.708	0.099
563.300	-30.688	0.099
563.400	-25.287	0.099
563.500	-27.578	0.099
563.600	-18.615	0.099
563.700	-33.394	0.099
563.800	-28.645	0.099
563.900	-21.239	0.099
564.000	-17.015	0.099
564.100	-28.351	0.099
564.200	-19.243	0.099
564.300	-18.714	0.099
564.400	-21.654	0.099
564.500	-23.603	0.099
564.600	-24.773	0.099
564.700	-35.259	0.099
564.800	-30.782	0.099
564.900	-23.855	0.099
565.000	-30.621	0.099
565.100	-26.409	0.099
565.200	-26.112	0.099
565.300	-35.057	0.099
565.400	-38.340	0.099
565.500	-23.460	0.099
565.600	-15.556	0.099
565.700	-24.410	0.100
565.800	-28.991	0.099
565.900	-31.921	0.099
566.000	-25.383	0.099
566.100	-23.541	0.099
566.200	-24.757	0.099
566.300	-26.057	0.099
566.400	-29.794	0.099
566.500	-30.799	0.099
566.600	-30.286	0.099
566.700	-25.683	0.099
566.800	-23.361	0.099
566.900	-14.947	0.099
567.000	-27.077	0.099
567.100	-34.669	0.099
567.200	-30.997	0.099
567.300	-27.357	0.099
567.400	-24.641	0.099
567.500	-28.447	0.099
567.600	-29.702	0.099
567.700	-26.892	0.099
567.800	-30.814	0.099
567.900	-24.549	0.099
568.000	-13.938	0.099
568.100	-18.002	0.099
568.200	-28.328	0.099
568.300	-39.463	0.099
568.400	-39.952	0.099
568.500	-25.818	0.099
568.600	-30.816	0.099
568.700	-27.079	0.099
568.800	-20.355	0.099
568.900	-36.010	0.099
569.000	-29.177	0.099
569.100	-23.511	0.099
569.200	-22.618	0.099
569.300	-16.494	0.099
569.400	-19.343	0.099
569.500	-32.299	0.099
569.600	-36.721	0.099
569.700	-39.526	0.099
569.800	-23.997	0.099
569.900	-28.489	0.099
570.000	-18.722	0.099
570.100	-22.961	0.099
570.200	-23.572	0.099
570.300	-23.133	0.099
570.400	-30.365	0.099
570.500	-28.970	0.099
570.600	-26.276	0.099
570.700	-30.860	0.099
570.800	-20.390	0.099
570.900	-19.305	0.099
571.000	-22.460	0.099
571.100	-35.649	0.099
571.200	-32.467	0.099
571.300	-17.235	0.099
571.400	-14.879	0.099
571.500	-28.560	0.099
571.600	-29.859	0.099
571.700	-13.496	0.099
571.800	-9.001	0.099
571.900	-32.735	0.099
572.000	-32.953	0.099
572.100	-26.946	0.099
572.200	-42.347	0.099
572.300	-20.860	0.099
572.400	-15.583	0.099
572.500	-22.610	0.099
572.600	-30.483	0.099
572.700	-18.488	0.099
572.800	-29.731	0.099
572.900	-23.202	0.099
573.000	-23.953	0.099
573.100	-25.071	0.099
573.200	-24.363	0.099
573.300	-35.712	0.099
573.400	-27.576	0.099
573.500	-14.097	0.099
573.600	-10.268	0.099
573.700	-24.795	0.099
573.800	-54.938	0.099
573.900	-15.830	0.099
574.000	-13.112	0.099
574.100	-22.441	0.099
574.200	-18.954	0.099
574.300	-26.594	0.099
574.400	-20.447	0.099
574.500	-16.512	0.099
574.600	-35.872	0.099
574.700	-35.195	0.099
574.800	-20.741	0.099
574.900	-29.407	0.099
575.000	-17.912	0.099
575.100	-19.521	0.099
575.200	-17.225	0.099
575.300	-35.651	0.099
575.400	-20.435	0.099
575.500	-25.451	0.099
575.600	-39.079	0.099
575.700	-20.652	0.099
575.800	-29.735	0.099
575.900	-24.001	0.099
576.000	-25.238	0.099
576.100	-37.785	0.099
576.200	-19.483	0.099
576.300	-20.119	0.099
576.400	-32.894	0.099
576.500	-14.834	0.099
576.600	-19.905	0.099
576.700	-15.732	0.099
576.800	-23.547	0.099
576.900	-30.937	0.099
577.000	-19.719	0.099
577.100	-15.938	0.099
577.200	-19.645	0.099
577.300	-25.954	0.099
577.400	-22.618	0.099
577.500	-31.991	0.099
577.600	-29.793	0.099
577.700	-27.273	0.099
577.800	-23.265	0.099
577.900	-14.777	0.099
578.000	-23.554	0.099
578.100	-28.915	0.099
578.200	-28.935	0.099
578.300	-47.695	0.099
578.400	-11.612	0.099
578.500	-30.669	0.099
578.600	-28.112	0.099
578.700	-13.340	0.099
578.800	-20.536	0.099
578.900	-25.259	0.099
579.000	-26.868	0.099
579.100	-29.216	0.099
579.200	-15.327	0.099
579.300	-18.506	0.099
579.400	-19.596	0.099
579.500	-19.788	0.099
579.600	-28.703	0.099
579.700	-32.868	0.099
579.800	-22.714	0.099
579.900	-22.527	0.099
580.000	-18.938	0.099
580.100	-32.580	0.099
580.200	-19.138	0.099
580.300	-22.627	0.099
580.400	-30.711	0.099
580.500	-14.716	0.099
580.600	-24.014	0.099
580.700	-13.458	0.099
580.800	-26.370	0.099
580.900	-30.860	0.099
581.000	-24.180	0.099
581.100	-31.347	0.099
581.200	-17.134	0.099
581.300	-18.008	0.099
581.400	-33.080	0.099
581.500	-15.528	0.099
581.600	-21.188	0.099
581.700	-39.532	0.099
581.800	-17.964	0.099
581.900	-27.079	0.099
582.000	-20.202	0.099
582.100	-22.707	0.099
582.200	-0.305	0.099
582.300	-16.690	0.099
582.400	-23.321	0.099
582.500	-17.564	0.099
582.600	-28.511	0.099
582.700	-34.652	0.099
582.800	-24.513	0.099
582.900	-20.422	0.099
583.000	-11.974	0.099
583.100	-13.028	0.099
583.200	-26.205	0.099
583.300	-25.590	0.099
583.400	-15.478	0.099
583.500	-28.133	0.099
583.600	-33.268	0.099
583.700	-14.170	0.099
583.800	-37.779	0.099
583.900	-18.108	0.099
584.000	-22.385	0.099
584.100	-26.973	0.099
584.200	-27.015	0.099
584.300	-13.607	0.099
584.400	-22.176	0.099
584.500	-15.139	0.099
584.600	-24.672	0.099
584.700	-18.524	0.099
584.800	-26.058	0.099
584.900	-21.528	0.099
585.000	-24.269	0.099
585.100	-22.885	0.099
585.200	-22.479	0.099
585.300	-23.521	0.099
585.400	-13.432	0.099
585.500	-19.723	0.099
585.600	-21.770	0.099
585.700	-27.979	0.099
585.800	-16.455	0.099
585.900	-26.930	0.099
586.000	-34.230	0.099
586.100	-24.738	0.099
586.200	-33.695	0.099
586.300	-30.467	0.099
586.400	-15.650	0.099
586.500	-16.480	0.099
586.600	-24.899	0.099
586.700	-28.343	0.099
586.800	-22.797	0.099
586.900	-30.438	0.099
587.000	-20.511	0.099
587.100	-28.200	0.099
587.200	-17.961	0.099
587.300	-4.882	0.099
587.400	-12.708	0.099
587.500	-18.327	0.099
587.600	-3.824	0.099
587.700	-10.412	0.099
587.800	-24.294	0.099
587.900	-22.823	0.099
588.000	-31.927	0.099
588.100	-21.567	0.099
588.200	-20.643	0.099
588.300	-29.334	0.099
588.400	-25.579	0.099
588.500	-25.109	0.099
588.600	-20.642	0.099
588.700	-21.326	0.099
588.800	-25.557	0.099
588.900	-19.285	0.099
589.000	-20.207	0.099
589.100	-24.346	0.099
589.200	-28.680	0.099
589.300	-19.746	0.099
589.400	-21.354	0.099
589.500	-24.164	0.099
589.600	-34.452	0.099
589.700	-15.288	0.099
589.800	-33.466	0.099
589.900	-22.596	0.099
590.000	-13.298	0.099
590.100	-19.268	0.099
590.200	-26.163	0.099
590.300	-16.992	0.099
590.400	-13.658	0.099
590.500	-15.227	0.099
590.600	-25.553	0.099
590.700	-12.297	0.099
590.800	-23.430	0.099
590.900	-17.940	0.099
591.000	-8.138	0.099
591.100	-24.682	0.099
591.200	-20.931	0.100
591.300	-18.322	0.099
591.400	-26.081	0.099
591.500	-31.073	0.099
591.600	-28.175	0.099
591.700	-30.515	0.099
591.800	-26.622	0.099
591.900	-19.320	0.099
592.000	-21.483	0.099
592.100	-18.068	0.099
592.200	-23.130	0.099
592.300	-15.239	0.099
592.400	-16.195	0.099
592.500	-19.383	0.099
592.600	-18.595	0.099
592.700	-17.566	0.099
592.800	-18.323	0.099
592.900	-28.339	0.099
593.000	-14.839	0.099
593.100	-16.484	0.099
593.200	-21.967	0.099
593.300	-28.990	0.099
593.400	-24.968	0.099
593.500	-9.757	0.099
593.600	-17.738	0.099
593.700	-21.029	0.099
593.800	-17.748	0.099
593.900	-24.599	0.099
594.000	-16.967	0.099
594.100	-16.671	0.099
594.200	-22.877	0.099
594.300	-13.899	0.099
594.400	-18.444	0.099
594.500	-18.584	0.099
594.600	-24.524	0.099
594.700	-28.124	0.099
594.800	-21.387	0.099
594.900	-13.395	0.099
595.000	-20.579	0.099
595.100	-13.716	0.099
595.200	-26.939	0.099
595.300	-10.282	0.099
595.400	-24.287	0.099
595.500	-22.303	0.099
595.600	-18.218	0.099
595.700	-13.876	0.099
595.800	-16.807	0.099
595.900	-26.055	0.099
596.000	-22.547	0.099
596.100	-25.504	0.099
596.200	-21.464	0.099
596.300	-14.748	0.099
596.400	-30.558	0.099
596.500	-21.566	0.099
596.600	-11.052	0.099
596.700	-12.425	0.099
596.800	-14.678	0.099
596.900	-16.677	0.099
597.000	-18.950	0.099
597.100	-32.461	0.099
597.200	-21.756	0.099
597.300	-21.933	0.099
597.400	-11.908	0.099
597.500	-15.552	0.099
597.600	-11.962	0.099
597.700	-15.340	0.099
597.800	-25.760	0.099
597.900	-20.120	0.099
598.000	-21.773	0.099
598.100	-25.104	0.099
598.200	-23.811	0.099
598.300	-32.259	0.099
598.400	-17.325	0.099
598.500	-17.786	0.099
598.600	-8.997	0.099
598.700	-15.873	0.099
598.800	-20.454	0.099
598.900	-22.043	0.099
599.000	-24.416	0.099
599.100	-23.027	0.099
599.200	-17.665	0.099
599.300	-17.503	0.099
599.400	-20.391	0.099
599.500	-17.284	0.099
599.600	-18.217	0.099
599.700	-18.965	0.099
599.800	-16.132	0.099
599.900	-20.684	0.099
600.000	-24.221	0.099
600.100	-12.197	0.099
600.200	-20.744	0.099
600.300	-31.388	0.099
600.400	-16.440	0.099
600.500	-19.077	0.099
600.600	-23.227	0.099
600.700	-11.894	0.099
600.800	-35.990	0.099
600.900	-27.234	0.099
601.000	-14.255	0.099
601.100	-11.306	0.099
601.200	-15.243	0.099
601.300	-19.998	0.099
601.400	-23.558	0.099
601.500	-22.330	0.099
601.600	-25.721	0.099
601.700	-31.691	0.099
601.800	-14.300	0.099
601.900	-19.691	0.099
602.000	-23.071	0.099
602.100	-7.529	0.099
602.200	-15.733	0.099
602.300	-19.991	0.099
602.400	-22.111	0.099
602.500	-26.076	0.099
602.600	-12.670	0.099
602.700	1.208	0.099
602.800	-5.427	0.099
602.900	-23.918	0.099
603.000	-12.263	0.099
603.100	-19.815	0.099
603.200	-27.695	0.099
603.300	-25.019	0.099
603.400	-14.849	0.099
603.500	-22.453	0.099
603.600	-6.560	0.099
603.700	-16.797	0.099
603.800	-24.385	0.099
603.900	-21.638	0.099
604.000	-22.300	0.099
604.100	-19.041	0.099
604.200	-22.259	0.099
604.300	-10.316	0.099
604.400	-28.442	0.099
604.500	-21.655	0.099
604.600	-22.881	0.099
604.700	-9.267	0.099
604.800	-16.069	0.099
604.900	-18.817	0.099
605.000	-24.615	0.099
605.100	-23.035	0.099
605.200	-32.972	0.099
605.300	-26.228	0.099
605.400	-19.705	0.099
605.500	-16.188	0.099
605.600	-19.471	0.099
605.700	-18.030	0.099
605.800	-22.477	0.099
605.900	-24.198	0.099
606.000	-6.916	0.099
606.100	-22.780	0.099
606.200	-8.552	0.099
606.300	-21.430	0.099
606.400	-14.333	0.099
606.500	-14.214	0.099
606.600	-15.006	0.099
606.700	-16.384	0.099
606.800	-24.836	0.099
606.900	-13.906	0.099
607.000	-13.347	0.099
607.100	-24.708	0.099
607.200	-7.350	0.099
607.300	-11.399	0.099
607.400	-18.350	0.099
607.500	-17.824	0.099
607.600	-14.849	0.099
607.700	-18.488	0.099
607.800	-17.481	0.099
607.900	-30.571	0.099
608.000	-10.973	0.099
608.100	-18.087	0.099
608.200	-10.631	0.099
608.300	-17.892	0.099
608.400	-17.115	0.099
608.500	-11.576	0.099
608.600	-29.758	0.099
608.700	-21.837	0.099
608.800	-17.176	0.099
608.900	-13.630	0.099
609.000	-20.527	0.099
609.100	-16.569	0.099
609.200	-14.176	0.099
609.300	-29.251	0.099
609.400	-6.929	0.099
609.500	-23.833	0.099
609.600	-23.751	0.099
609.700	-8.967	0.099
609.800	-15.994	0.099
609.900	-17.926	0.099
610.000	-13.731	0.099
610.100	-19.421	0.099
610.200	-14.491	0.099
610.300	-6.555	0.099
610.400	-33.335	0.099
610.500	-15.793	0.099
610.600	-15.203	0.099
610.700	-22.653	0.099
610.800	-31.851	0.099
610.900	-11.275	0.099
611.000	-12.317	0.099
611.100	-14.048	0.099
611.200	-11.428	0.099
611.300	-16.763	0.099
611.400	-18.949	0.099
611.500	-22.457	0.099
611.600	-25.480	0.099
611.700	-27.759	0.099
611.800	-14.603	0.099
611.900	-5.812	0.099
612.000	-17.193	0.099
612.100	-11.617	0.099
612.200	-8.439	0.099
612.300	-15.535	0.099
612.400	-22.906	0.099
612.500	-27.260	0.099
612.600	-28.621	0.099
612.700	-19.530	0.099
612.800	-27.213	0.099
612.900	-17.832	0.099
613.000	-4.486	0.099
613.100	-19.534	0.099
613.200	-13.034	0.099
613.300	-20.898	0.099
613.400	-24.892	0.099
613.500	-17.678	0.099
613.600	-13.862	0.099
613.700	-15.141	0.099
613.800	-22.281	0.099
613.900	-21.196	0.099
614.000	-15.834	0.099
614.100	-19.784	0.099
614.200	-20.755	0.099
614.300	-26.359	0.099
614.400	-14.010	0.099
614.500	-21.580	0.099
614.600	-11.199	0.099
614.700	-15.679	0.099
614.800	-20.793	0.099
614.900	-34.825	0.099
615.000	-20.014	0.099
615.100	-20.061	0.099
615.200	-18.536	0.099
615.300	-13.357	0.099
615.400	-13.924	0.099
615.500	-8.440	0.099
615.600	-13.726	0.099
615.700	-32.133	0.099
615.800	-3.121	0.099
615.900	-19.136	0.099
616.000	-10.163	0.099
616.100	-28.315	0.099
616.200	-22.038	0.099
616.300	-18.751	0.099
616.400	-0.201	0.099
616.500	-10.502	0.099
616.600	-16.552	0.099
616.700	-12.412	0.099
616.800	-21.882	0.099
616.900	-22.285	0.099
617.000	-25.005	0.099
617.100	-5.185	0.099
617.200	-9.535	0.099
617.300	-24.361	0.099
617.400	-12.979	0.099
617.500	-26.168	0.099
617.600	-19.261	0.099
617.700	-15.726	0.099
617.800	-11.090	0.099
617.900	-15.601	0.099
618.000	-15.359	0.099
618.100	-9.640	0.099
618.200	-15.435	0.099
618.300	-16.399	0.099
618.400	-27.901	0.099
618.500	-6.716	0.099
618.600	-21.134	0.099
618.700	-17.604	0.099
618.800	-6.980	0.099
618.900	-13.335	0.099
619.000	-14.699	0.099
619.100	-27.108	0.099
619.200	-11.649	0.099
619.300	-9.938	0.099
619.400	-12.923	0.099
619.500	-23.287	0.099
619.600	-10.759	0.099
619.700	-21.151	0.099
619.800	-22.501	0.099
619.900	-23.410	0.099
620.000	-28.151	0.099
620.100	-7.920	0.099
620.200	-5.059	0.099
620.300	-24.691	0.099
620.400	-22.131	0.099
620.500	-30.719	0.099
620.600	-6.088	0.099
620.700	-16.307	0.099
620.800	-30.182	0.099
620.900	-11.694	0.099
621.000	-13.390	0.099
621.100	-18.494	0.099
621.200	-6.932	0.099
621.300	-16.412	0.099
621.400	-6.617	0.099
621.500	-19.529	0.099
621.600	-19.745	0.099
621.700	-14.025	0.099
621.800	-30.706	0.099
621.900	-14.387	0.099
622.000	-16.590	0.099
622.100	-22.472	0.099
622.200	-4.741	0.099
622.300	-5.299	0.099
622.400	-22.233	0.099
622.500	-18.042	0.099
622.600	-22.792	0.099
622.700	-18.748	0.099
622.800	-11.418	0.099
622.900	-13.941	0.099
623.000	-17.391	0.099
623.100	-15.666	0.099
623.200	-15.127	0.099
623.300	-21.114	0.099
623.400	-9.525	0.099
623.500	-16.542	0.099
623.600	-8.026	0.099
623.700	-41.000	0.099
623.800	-16.349	0.099
623.900	-7.320	0.099
624.000	-6.963	0.099
624.100	-8.516	0.099
624.200	-22.967	0.099
624.300	-33.593	0.099
624.400	-11.112	0.099
624.500	-15.585	0.099
624.600	-20.827	0.099
624.700	-11.747	0.099
624.800	-9.659	0.099
624.900	-12.939	0.099
625.000	-13.518	0.099
625.100	-17.783	0.099
625.200	-23.674	0.099
625.300	-30.650	0.099
625.400	-24.300	0.099
625.500	-8.266	0.099
625.600	-15.110	0.099
625.700	-20.232	0.099
625.800	-12.500	0.099
625.900	-5.861	0.099
626.000	-11.935	0.099
626.100	-23.441	0.099
626.200	-18.998	0.099
626.300	-8.119	0.099
626.400	-18.702	0.099
626.500	-14.673	0.099
626.600	-15.721	0.099
626.700	-17.409	0.099
626.800	-12.907	0.099
626.900	-15.911	0.099
627.000	-22.858	0.099
627.100	-16.891	0.099
627.200	-22.733	0.099
627.300	-3.595	0.099
627.400	-18.164	0.099
627.500	-16.667	0.099
627.600	-15.874	0.099
627.700	-20.949	0.099
627.800	-11.029	0.099
627.900	-12.048	0.099
628.000	-9.144	0.099
628.100	-12.239	0.099
628.200	-17.213	0.099
628.300	-10.650	0.099
628.400	-15.763	0.099
628.500	-14.170	0.099
628.600	-30.126	0.099
628.700	-14.375	0.099
628.800	-23.278	0.099
628.900	-9.533	0.099
629.000	-20.404	0.099
629.100	-18.762	0.099
629.200	-26.235	0.099
629.300	-18.625	0.099
629.400	-13.725	0.099
629.500	-19.984	0.099
629.600	-22.794	0.099
629.700	-10.111	0.099
629.800	-7.699	0.099
629.900	-10.553	0.099
630.000	-19.157	0.099
630.100	-3.973	0.099
630.200	9.443	0.099
630.300	-4.188	0.099
630.400	-7.530	0.099
630.500	1.219	0.099
630.600	5.319	0.099
630.700	9.180	0.099
630.800	2.584	0.099
630.900	15.377	0.099
631.000	26.198	0.099
631.100	21.991	0.099
631.200	19.586	0.099
631.300	17.831	0.099
631.400	26.426	0.099
631.500	28.777	0.099
631.600	12.808	0.099
631.700	29.133	0.099
631.800	9.276	0.099
631.900	9.913	0.099
632.000	35.942	0.099
632.100	26.282	0.099
632.200	30.344	0.099
632.300	29.493	0.099
632.400	32.599	0.099
632.500	18.929	0.099
632.600	16.183	0.099
632.700	11.663	0.099
632.800	17.703	0.099
632.900	30.549	0.099
633.000	19.989	0.099
633.100	13.495	0.099
633.200	23.336	0.099
633.300	17.319	0.099
633.400	19.967	0.099
633.500	10.098	0.099
633.600	14.709	0.099
633.700	4.534	0.099
633.800	28.315	0.099
633.900	18.267	0.099
634.000	23.550	0.099
634.100	18.675	0.099
634.200	4.082	0.099
634.300	11.329	0.099
634.400	16.781	0.099
634.500	26.959	0.099
634.600	21.853	0.099
634.700	19.140	0.099
634.800	19.089	0.099
634.900	16.043	0.099
635.000	20.239	0.099
635.100	17.415	0.099
635.200	14.975	0.099
635.300	24.250	0.099
635.400	23.927	0.099
635.500	10.594	0.099
635.600	6.386	0.099
635.700	12.477	0.099
635.800	14.088	0.099
635.900	35.593	0.099
636.000	17.656	0.099
636.100	27.522	0.099
636.200	18.955	0.099
636.300	15.293	0.099
636.400	27.915	0.099
636.500	11.760	0.099
636.600	32.917	0.099
636.700	29.406	0.099
636.800	25.335	0.099
636.900	12.858	0.099
637.000	12.465	0.099
637.100	24.322	0.099
637.200	20.758	0.099
637.300	13.447	0.099
637.400	17.580	0.099
637.500	22.001	0.099
637.600	20.853	0.099
637.700	22.653	0.099
637.800	35.637	0.099
637.900	20.249	0.099
638.000	24.013	0.099
638.100	32.992	0.099
638.200	36.265	0.099
638.300	11.839	0.099
638.400	14.231	0.099
638.500	26.464	0.099
638.600	15.722	0.099
638.700	28.711	0.099
638.800	22.615	0.099
638.900	28.914	0.099
639.000	40.339	0.099
639.100	30.768	0.099
639.200	29.032	0.099
639.300	22.171	0.099
639.400	40.001	0.099
639.500	19.877	0.099
639.600	21.630	0.099
639.700	29.646	0.099
639.800	24.470	0.099
639.900	30.325	0.099
640.000	30.734	0.099
640.100	38.036	0.099
640.200	26.604	0.099
640.300	38.890	0.099
640.400	23.424	0.099
640.500	42.776	0.099
640.600	28.566	0.099
640.700	36.020	0.099
640.800	39.258	0.099
640.900	22.306	0.099
641.000	35.297	0.099
641.100	47.729	0.099
641.200	37.762	0.099
641.300	47.772	0.099
641.400	42.013	0.099
641.500	36.904	0.099
641.600	33.789	0.099
641.700	33.686	0.099
641.800	37.550	0.099
641.900	15.783	0.099
642.000	42.897	0.099
642.100	36.434	0.099
642.200	41.030	0.099
642.300	39.131	0.099
642.400	41.597	0.099
642.500	45.757	0.099
642.600	47.105	0.099
642.700	24.570	0.099
642.800	38.781	0.099
642.900	33.916	0.099
643.000	45.564	0.099
643.100	47.260	0.099
643.200	42.526	0.099
643.300	29.579	0.099
643.400	31.931	0.100
643.500	35.982	0.099
643.600	39.751	0.100
643.700	32.794	0.099
643.800	31.152	0.099
643.900	31.892	0.099
644.000	31.834	0.099
644.100	46.566	0.099
644.200	50.399	0.099
644.300	44.038	0.099
644.400	42.754	0.099
644.500	48.167	0.099
644.600	37.224	0.099
644.700	28.211	0.099
644.800	44.048	0.099
644.900	47.686	0.099
645.000	49.447	0.099
645.100	36.451	0.099
645.200	36.127	0.099
645.300	30.024	0.099
645.400	38.554	0.099
645.500	34.643	0.099
645.600	39.025	0.099
645.700	44.879	0.100
645.800	35.973	0.099
645.900	21.192	0.099
646.000	39.800	0.099
646.100	40.853	0.099
646.200	28.792	0.099
646.300	29.672	0.099
646.400	31.146	0.099
646.500	41.217	0.099
646.600	39.221	0.099
646.700	32.677	0.099
646.800	25.873	0.099
646.900	47.175	0.099
647.000	49.579	0.099
647.100	43.280	0.099
647.200	35.988	0.099
647.300	31.488	0.099
647.400	34.187	0.099
647.500	37.595	0.099
647.600	26.372	0.099
647.700	39.138	0.099
647.800	29.403	0.099
647.900	46.783	0.099
648.000	36.671	0.099
648.100	37.274	0.099
648.200	22.125	0.099
648.300	39.686	0.099
648.400	52.332	0.099
648.500	39.172	0.099
648.600	45.984	0.099
648.700	34.390	0.099
648.800	37.967	0.099
648.900	47.022	0.099
649.000	48.072	0.099
649.100	36.709	0.099
649.200	34.537	0.099
649.300	32.838	0.099
649.400	36.818	0.099
649.500	25.232	0.099
649.600	28.061	0.099
649.700	35.035	0.099
649.800	45.833	0.099
649.900	26.670	0.099
650.000	34.631	0.099
650.100	43.956	0.099
650.200	43.791	0.099
650.300	37.674	0.099
650.400	34.523	0.099
650.500	39.582	0.099
650.600	35.872	0.100
650.700	20.835	0.099
650.800	32.354	0.099
650.900	25.101	0.099
651.000	29.052	0.099
651.100	32.403	0.099
651.200	38.594	0.099
651.300	21.745	0.099
651.400	34.168	0.099
651.500	36.345	0.099
651.600	32.661	0.099
651.700	35.305	0.099
651.800	39.267	0.099
651.900	39.477	0.099
652.000	31.962	0.099
652.100	30.861	0.099
652.200	37.095	0.099
652.300	32.492	0.099
652.400	27.807	0.099
652.500	22.326	0.099
652.600	29.698	0.099
652.700	19.519	0.099
652.800	29.506	0.099
652.900	34.940	0.099
653.000	27.269	0.099
653.100	37.269	0.099
653.200	23.674	0.099
653.300	41.685	0.099
653.400	31.197	0.099
653.500	35.350	0.099
653.600	30.765	0.099
653.700	19.583	0.099
653.800	46.796	0.099
653.900	37.227	0.099
654.000	28.715	0.099
654.100	34.383	0.099
654.200	34.035	0.099
654.300	21.989	0.099
654.400	37.655	0.099
654.500	26.937	0.099
654.600	32.474	0.099
654.700	34.181	0.099
654.800	44.224	0.099
654.900	35.024	0.099
655.000	30.768	0.099
655.100	23.125	0.099
655.200	36.148	0.099
655.300	35.595	0.099
655.400	35.054	0.099
655.500	33.259	0.099
655.600	40.260	0.099
655.700	23.415	0.099
655.800	42.299	0.099
655.900	16.887	0.099
656.000	43.504	0.099
656.100	39.417	0.099
656.200	36.756	0.099
656.300	29.159	0.099
656.400	28.980	0.099
656.500	24.982	0.099
656.600	26.408	0.099
656.700	21.496	0.099
656.800	30.891	0.099
656.900	33.480	0.099
657.000	46.494	0.099
657.100	37.035	0.099
657.200	37.552	0.099
657.300	33.568	0.099
657.400	26.427	0.099
657.500	29.761	0.099
657.600	29.835	0.099
657.700	37.184	0.099
657.800	30.393	0.099
657.900	25.198	0.099
658.000	27.812	0.099
658.100	34.962	0.099
658.200	22.229	0.099
658.300	31.914	0.099
658.400	40.172	0.099
658.500	37.288	0.099
658.600	17.433	0.099
658.700	45.278	0.099
658.800	31.793	0.099
658.900	25.503	0.099
659.000	41.146	0.099
659.100	29.482	0.099
659.200	23.613	0.099
659.300	13.765	0.099
659.400	32.332	0.099
659.500	47.444	0.099
659.600	36.126	0.099
659.700	34.512	0.099
659.800	40.610	0.099
659.900	27.511	0.099
660.000	40.151	0.099
660.100	30.284	0.099
660.200	25.366	0.099
660.300	43.773	0.099
660.400	33.379	0.099
660.500	23.899	0.099
660.600	40.874	0.099
660.700	28.183	0.099
660.800	34.420	0.099
660.900	38.901	0.099
661.000	25.124	0.099
661.100	30.390	0.099
661.200	39.878	0.099
661.300	31.460	0.099
661.400	7.461	0.099
661.500	21.142	0.099
661.600	38.912	0.099
661.700	39.934	0.099
661.800	36.295	0.099
661.900	26.828	0.099
662.000	33.201	0.099
662.100	25.278	0.099
662.200	18.209	0.099
662.300	33.512	0.099
662.400	30.032	0.099
662.500	24.197	0.099
662.600	24.528	0.099
662.700	50.115	0.099
662.800	36.417	0.099
662.900	27.933	0.099
663.000	38.567	0.099
663.100	35.838	0.099
663.200	23.921	0.099
663.300	29.120	0.099
663.400	25.649	0.099
663.500	24.160	0.099
663.600	31.083	0.099
663.700	17.149	0.099
663.800	38.615	0.099
663.900	41.294	0.099
664.000	35.719	0.099
664.100	33.347	0.099
664.200	22.690	0.099
664.300	30.014	0.099
664.400	23.138	0.099
664.500	29.711	0.099
664.600	34.526	0.099
664.700	31.872	0.099
664.800	30.934	0.099
664.900	40.615	0.099
665.000	21.357	0.099
665.100	36.040	0.099
665.200	27.793	0.099
665.300	23.189	0.099
665.400	36.796	0.099
665.500	20.582	0.099
665.600	36.796	0.099
665.700	41.172	0.099
665.800	18.256	0.099
665.900	29.812	0.099
666.000	26.288	0.099
666.100	44.356	0.099
666.200	36.620	0.099
666.300	31.825	0.099
666.400	31.190	0.099
666.500	28.276	0.099
666.600	22.310	0.099
666.700	30.784	0.099
666.800	23.258	0.099
666.900	35.964	0.099
667.000	25.758	0.099
667.100	46.671	0.099
667.200	17.445	0.099
667.300	33.315	0.099
667.400	32.952	0.099
667.500	26.975	0.099
667.600	30.296	0.099
667.700	25.976	0.099
667.800	22.527	0.099
667.900	23.579	0.099
668.000	38.289	0.099
668.100	14.389	0.099
668.200	28.690	0.099
668.300	36.650	0.099
668.400	27.486	0.099
668.500	22.235	0.099
668.600	36.626	0.099
668.700	27.225	0.099
668.800	32.860	0.099
668.900	36.704	0.099
669.000	40.726	0.099
669.100	23.018	0.099
669.200	34.136	0.099
669.300	35.192	0.099
669.400	24.564	0.099
669.500	39.753	0.099
669.600	34.803	0.099
669.700	36.486	0.099
669.800	21.579	0.099
669.900	27.701	0.099
670.000	24.034	0.099
670.100	23.043	0.099
670.200	33.731	0.099
670.300	35.281	0.099
670.400	21.495	0.099
670.500	22.237	0.099
670.600	41.811	0.099
670.700	21.265	0.099
670.800	34.041	0.099
670.900	35.188	0.099
671.000	31.448	0.099
671.100	26.386	0.099
671.200	40.693	0.099
671.300	31.277	0.099
671.400	21.248	0.099
671.500	27.233	0.099
671.600	15.696	0.099
671.700	34.951	0.099
671.800	23.348	0.099
671.900	30.107	0.099
672.000	30.976	0.099
672.100	33.716	0.099
672.200	43.595	0.099
672.300	37.031	0.099
672.400	28.242	0.099
672.500	21.013	0.099
672.600	23.355	0.099
672.700	21.799	0.099
672.800	22.212	0.099
672.900	24.607	0.099
673.000	36.459	0.099
673.100	36.277	0.099
673.200	27.879	0.099
673.300	21.249	0.099
673.400	20.354	0.099
673.500	31.455	0.099
673.600	35.483	0.099
673.700	38.520	0.099
673.800	29.589	0.099
673.900	29.596	0.099
674.000	30.184	0.099
674.100	31.319	0.099
674.200	34.666	0.099
674.300	24.875	0.099
674.400	33.662	0.099
674.500	40.451	0.099
674.600	29.949	0.099
674.700	34.955	0.099
674.800	32.353	0.099
674.900	28.883	0.099
675.000	33.191	0.099
675.100	24.078	0.099
675.200	30.448	0.099
675.300	21.130	0.099
675.400	31.051	0.099
675.500	29.758	0.099
675.600	31.756	0.099
675.700	19.853	0.099
675.800	31.212	0.099
675.900	18.348	0.099
676.000	31.097	0.099
676.100	39.279	0.099
676.200	16.225	0.099
676.300	29.825	0.099
676.400	30.507	0.099
676.500	31.888	0.099
676.600	34.376	0.099
676.700	33.203	0.099
676.800	42.388	0.099
676.900	24.202	0.099
677.000	31.927	0.099
677.100	35.777	0.099
677.200	38.142	0.099
677.300	30.462	0.099
677.400	35.598	0.099
677.500	37.181	0.099
677.600	30.193	0.099
677.700	33.544	0.099
677.800	24.977	0.100
677.900	3.803	0.099
678.000	24.838	0.099
678.100	43.216	0.099
678.200	31.116	0.100
678.300	20.693	0.099
678.400	29.970	0.099
678.500	27.313	0.099
678.600	24.909	0.099
678.700	45.663	0.099
678.800	28.500	0.099
678.900	25.588	0.099
679.000	16.668	0.099
679.100	27.360	0.099
679.200	30.052	0.099
679.300	32.716	0.099
679.400	32.420	0.099
679.500	18.099	0.099
679.600	29.217	0.099
679.700	28.909	0.099
679.800	34.040	0.099
679.900	30.186	0.099
680.000	36.342	0.099
680.100	16.270	0.099
680.200	20.522	0.099
680.300	30.305	0.099
680.400	20.353	0.099
680.500	49.130	0.099
680.600	30.868	0.099
680.700	35.060	0.099
680.800	40.371	0.099
680.900	27.582	0.099
681.000	26.059	0.099
681.100	30.157	0.099
681.200	34.555	0.099
681.300	26.653	0.099
681.400	31.679	0.099
681.500	29.418	0.099
681.600	31.184	0.099
681.700	23.075	0.099
681.800	27.129	0.099
681.900	30.208	0.099
682.000	27.888	0.099
682.100	33.114	0.099
682.200	30.194	0.099
682.300	32.195	0.099
682.400	32.489	0.099
682.500	22.674	0.099
682.600	31.362	0.099
682.700	30.538	0.099
682.800	42.973	0.099
682.900	33.679	0.099
683.000	30.074	0.099
683.100	26.306	0.099
683.200	16.134	0.099
683.300	18.941	0.099
683.400	39.610	0.099
683.500	21.185	0.099
683.600	35.596	0.099
683.700	36.883	0.099
683.800	35.646	0.099
683.900	29.308	0.099
684.000	36.650	0.099
684.100	25.187	0.099
684.200	28.438	0.099
684.300	31.858	0.099
684.400	33.091	0.099
684.500	37.398	0.099
684.600	26.031	0.099
684.700	23.818	0.099
684.800	29.815	0.099
684.900	25.325	0.099
685.000	25.252	0.099
685.100	29.048	0.099
685.200	33.783	0.099
685.300	28.960	0.099
685.400	31.471	0.099
685.500	31.768	0.099
685.600	26.955	0.099
685.700	36.685	0.099
685.800	32.751	0.099
685.900	21.462	0.099
686.000	24.697	0.099
686.100	9.367	0.099
686.200	28.741	0.099
686.300	36.945	0.099
686.400	29.947	0.099
686.500	17.773	0.099
686.600	27.479	0.099
686.700	31.829	0.099
686.800	20.221	0.099
686.900	34.072	0.099
687.000	31.925	0.099
687.100	20.298	0.099
687.200	43.941	0.099
687.300	31.107	0.099
687.400	30.144	0.099
687.500	27.867	0.099
687.600	29.543	0.099
687.700	28.653	0.099
687.800	22.593	0.099
687.900	28.800	0.099
688.000	40.246	0.099
688.100	30.018	0.099
688.200	26.678	0.099
688.300	28.297	0.099
688.400	24.679	0.099
688.500	21.692	0.099
688.600	26.424	0.099
688.700	30.420	0.099
688.800	24.763	0.099
688.900	31.853	0.099
689.000	32.323	0.099
689.100	29.384	0.099
689.200	26.798	0.099
689.300	27.247	0.099
689.400	34.941	0.099
689.500	32.235	0.099
689.600	19.122	0.099
689.700	5.962	0.099
689.800	36.849	0.099
689.900	34.421	0.099
690.000	23.816	0.099
690.100	24.402	0.099
690.200	11.999	0.099
690.300	10.579	0.099
690.400	15.883	0.099
690.500	20.423	0.099
690.600	6.464	0.099
690.700	2.311	0.099
690.800	6.485	0.099
690.900	3.827	0.099
691.000	3.073	0.099
691.100	5.486	0.099
691.200	-0.077	0.099
691.300	-11.442	0.099
691.400	-1.912	0.099
691.500	-1.103	0.099
691.600	-22.723	0.099
691.700	-2.311	0.099
691.800	-21.601	0.099
691.900	-12.128	0.099
692.000	-20.953	0.099
692.100	-20.791	0.099
692.200	-16.897	0.099
692.300	-23.518	0.099
692.400	-36.513	0.099
692.500	-24.765	0.099
692.600	-9.653	0.099
692.700	-11.736	0.099
692.800	-34.847	0.099
692.900	-21.265	0.099
693.000	-23.976	0.099
693.100	-23.484	0.099
693.200	-32.055	0.099
693.300	-21.366	0.099
693.400	-16.348	0.099
693.500	-24.133	0.099
693.600	-21.281	0.099
693.700	-18.555	0.099
693.800	-25.918	0.099
693.900	-18.463	0.099
694.000	-30.456	0.099
694.100	-8.916	0.099
694.200	-26.153	0.099
694.300	-18.211	0.099
694.400	-20.412	0.099
694.500	-16.878	0.099
694.600	-24.065	0.099
694.700	-33.812	0.099
694.800	-15.330	0.099
694.900	-8.425	0.099
695.000	-20.076	0.099
695.100	-22.122	0.099
695.200	-16.370	0.099
695.300	-32.084	0.099
695.400	-14.429	0.099
695.500	-17.238	0.099
695.600	-16.416	0.099
695.700	-24.436	0.099
695.800	-19.602	0.099
695.900	-25.290	0.099
696.000	-24.612	0.099
696.100	-2.645	0.099
696.200	-8.706	0.099
696.300	-15.615	0.099
696.400	-26.576	0.099
696.500	-11.760	0.099
696.600	-23.640	0.099
696.700	-18.934	0.099
696.800	-14.662	0.099
696.900	-22.473	0.099
697.000	-17.338	0.099
697.100	-21.213	0.099
697.200	-26.956	0.099
697.300	-24.884	0.099
697.400	-6.701	0.099
697.500	-12.629	0.099
697.600	-26.615	0.099
697.700	-22.897	0.099
697.800	-20.527	0.099
697.900	-40.627	0.099
698.000	-15.687	0.099
698.100	-11.994	0.099
698.200	-16.352	0.099
698.300	-23.524	0.099
698.400	-23.659	0.099
698.500	-18.467	0.099
698.600	-32.366	0.099
698.700	-27.758	0.099
698.800	-16.189	0.099
698.900	-26.993	0.099
699.000	-32.466	0.099
699.100	-21.059	0.099
699.200	-44.870	0.099
699.300	-29.056	0.099
699.400	-24.635	0.099
699.500	-12.787	0.099
699.600	-10.485	0.099
699.700	-26.493	0.099
699.800	-28.958	0.099
699.900	-13.333	0.099
700.000	-24.592	0.099
700.100	-30.674	0.099
700.200	-18.655	0.099
700.300	-21.532	0.099
700.400	-33.051	0.099
700.500	-28.133	0.099
700.600	-26.306	0.099
700.700	-24.460	0.099
700.800	-21.102	0.099
700.900	-23.437	0.099
701.000	-22.426	0.099
701.100	-23.498	0.099
701.200	-21.445	0.099
701.300	-24.410	0.099
701.400	-22.131	0.099
701.500	-25.308	0.099
701.600	-20.605	0.099
701.700	-23.862	0.099
701.800	-17.508	0.099
701.900	-30.481	0.099
702.000	-23.649	0.099
702.100	-31.296	0.099
702.200	-35.101	0.099
702.300	-13.993	0.099
702.400	-26.050	0.099
702.500	-37.257	0.099
702.600	-29.667	0.099
702.700	-9.708	0.099
702.800	-18.793	0.099
702.900	-24.731	0.099
703.000	-34.449	0.099
703.100	-17.500	0.099
703.200	-24.969	0.099
703.300	-19.310	0.099
703.400	-29.165	0.099
703.500	-32.845	0.099
703.600	-14.205	0.099
703.700	-28.745	0.099
703.800	-27.108	0.099
703.900	-13.886	0.099
704.000	-20.521	0.099
704.100	-27.665	0.099
704.200	-29.357	0.099
704.300	-30.765	0.099
704.400	-19.696	0.099
704.500	-21.534	0.099
704.600	-19.033	0.099
704.700	-30.989	0.099
704.800	-19.164	0.100
704.900	-26.740	0.099
705.000	-26.306	0.099
705.100	-27.263	0.099
705.200	-22.937	0.099
705.300	-16.230	0.099
705.400	-30.543	0.099
705.500	-36.064	0.099
705.600	-37.486	0.099
705.700	-33.413	0.099
705.800	-13.859	0.099
705.900	-29.345	0.099
706.000	-34.075	0.099
706.100	-23.101	0.099
706.200	-30.101	0.099
706.300	-8.951	0.099
706.400	-27.883	0.099
706.500	-33.065	0.099
706.600	-32.153	0.099
706.700	-22.544	0.099
706.800	-29.060	0.099
706.900	-21.352	0.099
707.000	-25.413	0.099
707.100	-28.066	0.099
707.200	-15.310	0.099
707.300	-24.295	0.099
707.400	-37.692	0.099
707.500	-27.191	0.099
707.600	-44.304	0.099
707.700	-21.240	0.099
707.800	-39.500	0.099
707.900	-24.764	0.099
708.000	-21.013	0.099
708.100	-25.817	0.099
708.200	-32.303	0.099
708.300	-20.913	0.099
708.400	-40.168	0.099
708.500	-25.433	0.099
708.600	-18.919	0.099
708.700	-25.953	0.099
708.800	-18.537	0.099
708.900	-26.694	0.099
709.000	-30.880	0.099
709.100	-26.604	0.099
709.200	-27.587	0.099
709.300	-18.266	0.099
709.400	-35.140	0.099
709.500	-30.886	0.099
709.600	-4.458	0.099
709.700	-16.623	0.099
709.800	-22.263	0.099
709.900	-21.765	0.099
710.000	-28.736	0.099
710.100	-23.019	0.099
710.200	-31.304	0.099
710.300	-24.563	0.099
710.400	-33.374	0.099
710.500	-23.757	0.099
710.600	-13.839	0.099
710.700	-25.108	0.099
710.800	-12.936	0.099
710.900	-18.229	0.099
711.000	-25.989	0.099
711.100	-30.685	0.099
711.200	-40.597	0.099
711.300	-33.062	0.099
711.400	-29.517	0.099
711.500	-21.089	0.099
711.600	-11.191	0.099
711.700	-24.882	0.099
711.800	-30.002	0.099
711.900	-36.655	0.099
712.000	-28.676	0.099
712.100	-22.795	0.099
712.200	-30.619	0.099
712.300	-28.530	0.099
712.400	-31.742	0.099
712.500	-24.896	0.099
712.600	-23.695	0.099
712.700	-31.222	0.099
712.800	-24.280	0.099
712.900	-27.809	0.099
713.000	-35.571	0.099
713.100	-33.812	0.099
713.200	-40.255	0.099
713.300	-14.130	0.099
713.400	-14.369	0.099
713.500	-28.916	0.099
713.600	-20.529	0.099
713.700	-38.857	0.099
713.800	-25.058	0.099
713.900	-29.618	0.099
714.000	-30.491	0.099
714.100	-22.157	0.099
714.200	-30.761	0.099
714.300	-26.845	0.099
714.400	-28.820	0.099
714.500	-43.273	0.099
714.600	-11.826	0.099
714.700	-18.471	0.099
714.800	-24.842	0.099
714.900	-23.539	0.099
715.000	-27.361	0.099
715.100	-32.025	0.099
715.200	-47.228	0.099
715.300	-33.203	0.099
715.400	-20.212	0.099
715.500	-19.490	0.099
715.600	-26.374	0.099
715.700	-20.596	0.099
715.800	-27.705	0.099
715.900	-24.131	0.099
716.000	-26.042	0.099
716.100	-24.234	0.099
716.200	-20.182	0.099
716.300	-19.494	0.099
716.400	-24.274	0.099
716.500	-22.455	0.099
716.600	-40.117	0.099
716.700	-28.263	0.099
716.800	-17.361	0.099
716.900	-34.813	0.099
717.000	-36.768	0.099
717.100	-38.714	0.099
717.200	-20.707	0.099
717.300	-5.169	0.099
717.400	-23.370	0.099
717.500	-20.944	0.099
717.600	-16.967	0.099
717.700	-23.264	0.099
717.800	-41.026	0.099
717.900	-30.656	0.099
718.000	-45.175	0.099
718.100	-23.599	0.099
718.200	-31.115	0.099
718.300	-30.055	0.099
718.400	-16.403	0.099
718.500	-32.987	0.099
718.600	-23.250	0.099
718.700	-7.191	0.099
718.800	-15.491	0.099
718.900	-36.109	0.099
719.000	-37.896	0.099
719.100	-10.532	0.099
719.200	-29.827	0.099
719.300	-31.602	0.099
719.400	-19.403	0.099
719.500	-44.590	0.099
719.600	-39.314	0.099
719.700	-31.567	0.099
719.800	-14.910	0.099
719.900	-19.729	0.099
720.000	-11.210	0.099
720.100	-29.261	0.099
720.200	-29.914	0.099
720.300	-19.404	0.099
720.400	-25.423	0.099
720.500	-23.273	0.099
720.600	-27.379	0.099
720.700	-44.954	0.099
720.800	-16.588	0.099
720.900	-27.875	0.099
721.000	-22.192	0.099
721.100	-19.827	0.099
721.200	-33.281	0.099
721.300	-25.611	0.099
721.400	-39.543	0.099
721.500	-13.714	0.099
721.600	-14.630	0.099
721.700	-25.702	0.099
721.800	-18.473	0.099
721.900	-17.620	0.099
722.000	-33.383	0.099
722.100	-29.475	0.099
722.200	-26.413	0.099
722.300	-31.769	0.099
722.400	-22.607	0.099
722.500	-27.822	0.099
722.600	-20.916	0.099
722.700	-27.601	0.099
722.800	-26.601	0.099
722.900	-18.409	0.099
723.000	-41.076	0.099
723.100	-37.111	0.099
723.200	-17.619	0.099
723.300	-21.162	0.099
723.400	-33.084	0.099
723.500	-13.260	0.099
723.600	-37.598	0.099
723.700	-31.360	0.099
723.800	-35.932	0.099
723.900	-24.990	0.099
724.000	-24.574	0.099
724.100	-35.330	0.099
724.200	-17.675	0.099
724.300	-16.303	0.099
724.400	-27.314	0.099
724.500	-23.553	0.099
724.600	-23.265	0.099
724.700	-16.238	0.099
724.800	-18.286	0.099
724.900	-29.323	0.099
725.000	-27.442	0.099
725.100	-24.813	0.099
725.200	-31.816	0.099
725.300	-27.057	0.099
725.400	-23.117	0.099
725.500	-29.077	0.099
725.600	-19.696	0.099
725.700	-18.000	0.099
725.800	-23.612	0.099
725.900	-27.675	0.099
726.000	-25.351	0.099
726.100	-19.824	0.099
726.200	-27.163	0.099
726.300	-29.076	0.099
726.400	-30.919	0.099
726.500	-25.241	0.099
726.600	-36.078	0.099
726.700	-15.253	0.099
726.800	-37.866	0.099
726.900	-14.254	0.099
727.000	-24.971	0.099
727.100	-16.772	0.099
727.200	-22.687	0.099
727.300	-22.780	0.099
727.400	-25.377	0.099
727.500	-23.211	0.099
727.600	-21.036	0.099
727.700	-32.643	0.099
727.800	-27.977	0.099
727.900	-15.337	0.099
728.000	-21.572	0.099
728.100	-14.476	0.099
728.200	-27.118	0.099
728.300	-31.452	0.099
728.400	-22.346	0.099
728.500	-29.236	0.099
728.600	-21.926	0.099
728.700	-33.093	0.099
728.800	-22.803	0.099
728.900	-32.459	0.099
729.000	-25.369	0.099
729.100	-15.698	0.099
729.200	-20.132	0.099
729.300	-18.345	0.099
729.400	-30.598	0.099
729.500	-19.427	0.099
729.600	-31.370	0.099
729.700	-20.923	0.099
729.800	-14.040	0.099
729.900	-37.585	0.099
730.000	-20.603	0.099
730.100	-29.284	0.099
730.200	-28.894	0.099
730.300	-15.613	0.099
730.400	-19.876	0.099
730.500	-22.271	0.099
730.600	-15.163	0.099
730.700	-22.739	0.099
730.800	-20.944	0.099
730.900	-37.098	0.099
731.000	-24.729	0.099
731.100	-23.835	0.099
731.200	-22.833	0.099
731.300	-30.209	0.099
731.400	-2.179	0.099
731.500	-34.239	0.099
731.600	-28.896	0.099
731.700	-26.189	0.099
731.800	-23.538	0.099
731.900	-33.695	0.099
732.000	-15.665	0.099
732.100	-26.631	0.099
732.200	-26.933	0.099
732.300	-26.030	0.099
732.400	-14.941	0.099
732.500	-18.381	0.099
732.600	-27.057	0.099
732.700	-35.085	0.099
732.800	-32.180	0.099
732.900	-21.580	0.099
733.000	-14.041	0.099
733.100	-23.560	0.099
733.200	-19.139	0.099
733.300	-25.025	0.099
733.400	-27.679	0.099
733.500	-20.696	0.099
733.600	-14.747	0.099
733.700	-0.949	0.099
733.800	-20.593	0.099
733.900	-32.463	0.099
734.000	-18.833	0.099
734.100	-21.484	0.099
734.200	-22.905	0.099
734.300	-14.065	0.099
734.400	-12.001	0.099
734.500	-23.216	0.099
734.600	-35.369	0.099
734.700	-19.057	0.099
734.800	-18.588	0.099
734.900	-36.462	0.099
735.000	-16.114	0.099
735.100	-18.398	0.099
735.200	-13.066	0.099
735.300	-20.088	0.099
735.400	-18.894	0.099
735.500	-20.549	0.099
735.600	-25.868	0.099
735.700	-21.307	0.099
735.800	-27.700	0.099
735.900	-31.237	0.099
736.000	-16.842	0.099
736.100	-19.749	0.099
736.200	-28.253	0.099
736.300	-22.698	0.099
736.400	-32.851	0.099
736.500	-15.702	0.099
736.600	-19.902	0.099
736.700	-27.949	0.099
736.800	-20.736	0.099
736.900	-28.219	0.099
737.000	-16.621	0.099
737.100	-24.162	0.099
737.200	-25.513	0.099
737.300	-24.092	0.099
737.400	-23.482	0.099
737.500	-28.888	0.099
737.600	-30.560	0.099
737.700	-22.811	0.099
737.800	-35.062	0.099
737.900	-13.344	0.099
738.000	-26.221	0.099
738.100	-35.397	0.100
738.200	-13.841	0.099
738.300	-13.881	0.099
738.400	-15.352	0.099
738.500	-20.968	0.099
738.600	-14.147	0.099
738.700	-33.787	0.099
738.800	-16.257	0.099
738.900	-21.740	0.099
739.000	-29.127	0.099
739.100	-11.826	0.099
739.200	-11.470	0.099
739.300	-21.811	0.099
739.400	-20.769	0.099
739.500	-11.123	0.099
739.600	-16.107	0.099
739.700	-23.408	0.099
739.800	-18.125	0.099
739.900	-22.384	0.099
740.000	-22.842	0.099
740.100	-15.837	0.099
740.200	-20.314	0.099
740.300	-17.440	0.099
740.400	-24.153	0.099
740.500	-23.083	0.099
740.600	-26.286	0.099
740.700	-17.700	0.099
740.800	-24.319	0.099
740.900	-29.245	0.099
741.000	-19.848	0.099
741.100	-16.220	0.100
741.200	-20.948	0.099
741.300	-17.384	0.099
741.400	-23.288	0.099
741.500	-14.911	0.099
741.600	-22.907	0.099
741.700	-26.639	0.099
741.800	-20.298	0.099
741.900	-20.451	0.099
742.000	-10.864	0.099
742.100	-37.260	0.099
742.200	-28.510	0.099
742.300	-24.670	0.099
742.400	-28.586	0.099
742.500	-16.803	0.099
742.600	-12.028	0.099
742.700	-5.257	0.099
742.800	-22.309	0.099
742.900	-14.063	0.099
743.000	-28.839	0.099
743.100	-22.352	0.099
743.200	-10.677	0.099
743.300	-32.194	0.099
743.400	-14.442	0.099
743.500	-15.802	0.099
743.600	-18.405	0.099
743.700	-16.710	0.099
743.800	-18.397	0.099
743.900	-19.483	0.099
744.000	-24.196	0.099
744.100	-17.693	0.099
744.200	-14.482	0.099
744.300	-10.130	0.099
744.400	-24.160	0.099
744.500	-18.574	0.099
744.600	-8.873	0.099
744.700	-16.547	0.099
744.800	-14.819	0.099
744.900	-33.927	0.099
745.000	-26.201	0.099
745.100	-24.252	0.099
745.200	-22.602	0.099
745.300	-9.439	0.100
745.400	-32.186	0.099
745.500	-35.081	0.099
745.600	-19.506	0.099
745.700	-18.831	0.099
745.800	-21.102	0.099
745.900	-10.899	0.099
746.000	-10.836	0.099
746.100	-30.659	0.099
746.200	-18.757	0.099
746.300	-8.929	0.099
746.400	-25.504	0.099
746.500	-21.989	0.099
746.600	-17.952	0.099
746.700	-18.426	0.099
746.800	-27.757	0.099
746.900	-18.775	0.099
747.000	-13.770	0.099
747.100	-27.062	0.099
747.200	-7.637	0.099
747.300	-6.137	0.099
747.400	-36.500	0.099
747.500	-37.446	0.099
747.600	-35.992	0.099
747.700	-19.910	0.099
747.800	-22.297	0.099
747.900	-16.660	0.099
748.000	-32.443	0.099
748.100	-17.561	0.099
748.200	-11.049	0.099
748.300	-16.769	0.099
748.400	-11.519	0.099
748.500	-27.686	0.099
748.600	-18.292	0.099
748.700	-13.530	0.099
748.800	-31.692	0.099
748.900	-28.018	0.099
749.000	-31.592	0.099
749.100	-17.858	0.100
749.200	-27.202	0.099
749.300	-21.238	0.099
749.400	-23.964	0.099
749.500	-31.784	0.099
749.600	-6.522	0.099
749.700	-12.300	0.099
749.800	-12.757	0.099
749.900	-9.894	0.099
750.000	-24.454	0.099
750.100	-8.605	0.099
750.200	-13.295	0.099
750.300	-22.335	0.099
750.400	-17.875	0.099
750.500	-20.842	0.099
750.600	-25.604	0.099
750.700	-19.994	0.099
750.800	-21.359	0.099
750.900	-40.357	0.099
751.000	-10.960	0.099
751.100	-16.869	0.099
751.200	-21.102	0.099
751.300	-7.704	0.099
751.400	-13.762	0.099
751.500	-26.746	0.099
751.600	-15.507	0.099
751.700	-27.297	0.099
751.800	-7.978	0.099
751.900	-27.528	0.099
752.000	-36.985	0.099
752.100	-15.540	0.099
752.200	-15.956	0.099
752.300	-37.094	0.099
752.400	-19.663	0.099
752.500	-19.767	0.099
752.600	-11.161	0.099
752.700	-24.215	0.099
752.800	-25.182	0.099
752.900	-16.516	0.099
753.000	-15.629	0.099
753.100	-7.465	0.099
753.200	-12.450	0.099
753.300	-21.643	0.099
753.400	-18.732	0.099
753.500	-11.114	0.099
753.600	-8.442	0.099
753.700	-22.692	0.099
753.800	-22.651	0.099
753.900	-33.049	0.099
754.000	-24.085	0.099
754.100	-14.986	0.099
754.200	-10.537	0.099
754.300	-18.586	0.099
754.400	-11.224	0.099
754.500	-20.606	0.099
754.600	-11.434	0.099
754.700	-21.211	0.099
754.800	-32.899	0.099
754.900	-17.783	0.099
755.000	-26.326	0.099
755.100	-21.665	0.099
755.200	-2.461	0.099
755.300	-21.944	0.099
755.400	-19.307	0.099
755.500	-29.101	0.099
755.600	-36.613	0.099
755.700	-17.627	0.099
755.800	-22.924	0.099
755.900	-25.751	0.099
756.000	-22.842	0.099
756.100	-12.574	0.099
756.200	-20.020	0.099
756.300	-17.419	0.099
756.400	-16.629	0.099
756.500	-22.590	0.099
756.600	-18.242	0.099
756.700	-21.706	0.099
756.800	-17.954	0.099
756.900	-15.138	0.099
757.000	-9.076	0.099
757.100	-12.297	0.099
757.200	-19.349	0.099
757.300	-28.904	0.099
757.400	-27.863	0.099
757.500	-18.771	0.099
757.600	-17.070	0.099
757.700	-13.021	0.100
757.800	-31.303	0.099
757.900	-17.896	0.099
758.000	-17.408	0.099
758.100	-20.101	0.099
758.200	-15.519	0.099
758.300	-15.523	0.099
758.400	-17.267	0.099
758.500	-24.177	0.099
758.600	-15.697	0.099
758.700	-4.015	0.099
758.800	-23.288	0.099
758.900	-29.901	0.099
759.000	-19.132	0.099
759.100	-19.232	0.099
759.200	-6.894	0.099
759.300	-16.467	0.099
759.400	-15.840	0.099
759.500	-28.914	0.099
759.600	-16.300	0.099
759.700	-20.045	0.099
759.800	-18.861	0.099
759.900	-13.558	0.099
760.000	-17.910	0.099
760.100	-16.263	0.099
760.200	-27.708	0.099
760.300	-27.709	0.099
760.400	-29.165	0.099
760.500	-4.152	0.099
760.600	-12.750	0.099
760.700	-16.697	0.099
760.800	-16.432	0.099
760.900	-12.086	0.099
761.000	-19.255	0.099
761.100	-18.161	0.099
761.200	-31.829	0.099
761.300	-19.861	0.099
761.400	-18.750	0.099
761.500	-16.872	0.099
761.600	-15.756	0.099
761.700	-9.569	0.099
761.800	-19.353	0.099
761.900	0.190	0.099
762.000	-14.082	0.099
762.100	-21.257	0.099
762.200	-20.166	0.099
762.300	-4.707	0.099
762.400	-27.497	0.099
762.500	4.705	0.099
762.600	-10.343	0.099
762.700	-27.852	0.099
762.800	-35.180	0.099
762.900	-11.237	0.099
763.000	-16.861	0.099
763.100	-16.271	0.099
763.200	-21.369	0.099
763.300	-22.131	0.099
763.400	-9.665	0.099
763.500	-6.251	0.099
763.600	-15.010	0.099
763.700	-19.798	0.099
763.800	-9.334	0.099
763.900	-12.371	0.099
764.000	-16.328	0.099
764.100	-14.410	0.099
764.200	-16.259	0.099
764.300	-14.754	0.099
764.400	-12.541	0.099
764.500	-24.445	0.099
764.600	-19.787	0.099
764.700	-19.221	0.099
764.800	-21.406	0.099
764.900	-17.110	0.099
765.000	-8.976	0.099
765.100	-7.570	0.099
765.200	-23.999	0.099
765.300	-17.734	0.099
765.400	-28.913	0.099
765.500	-20.726	0.099
765.600	-27.570	0.099
765.700	-22.108	0.099
765.800	8.101	0.099
765.900	-14.396	0.099
766.000	-20.326	0.099
766.100	-23.033	0.099
766.200	-8.409	0.099
766.300	-11.856	0.099
766.400	-16.335	0.099
766.500	-2.054	0.099
766.600	-16.881	0.099
766.700	-12.768	0.099
766.800	-8.763	0.099
766.900	-11.011	0.099
767.000	-17.852	0.099
767.100	-23.011	0.099
767.200	-15.290	0.099
767.300	-30.307	0.099
767.400	-32.051	0.099
767.500	-9.328	0.099
767.600	-13.924	0.099
767.700	-11.452	0.099
767.800	-30.053	0.099
767.900	-11.285	0.099
768.000	-20.409	0.099
768.100	-12.648	0.099
768.200	-4.970	0.099
768.300	-18.626	0.099
768.400	-23.771	0.099
768.500	-19.471	0.099
768.600	-11.377	0.099
768.700	-31.674	0.099
768.800	-21.687	0.099
768.900	-16.614	0.099
769.000	-8.781	0.099
769.100	-14.352	0.099
769.200	-15.882	0.099
769.300	-15.092	0.099
769.400	-14.761	0.099
769.500	-23.211	0.099
769.600	-2.084	0.099
769.700	-15.763	0.099
769.800	-20.852	0.099
769.900	-21.256	0.099
770.000	-22.880	0.099
770.100	-18.291	0.099
770.200	-16.111	0.099
770.300	-25.378	0.099
770.400	-14.620	0.099
770.500	-37.339	0.099
770.600	-14.555	0.099
770.700	-22.671	0.099
770.800	-18.649	0.099
770.900	-29.970	0.099
771.000	-7.328	0.099
771.100	-22.891	0.099
771.200	-29.775	0.099
771.300	-9.547	0.099
771.400	-8.949	0.099
771.500	-5.461	0.099
771.600	-14.654	0.099
771.700	-8.374	0.099
771.800	-43.361	0.099
771.900	-0.535	0.099
772.000	-16.059	0.099
772.100	-21.255	0.099
772.200	-14.350	0.099
772.300	-19.597	0.099
772.400	-17.270	0.099
772.500	-12.713	0.099
772.600	-16.568	0.099
772.700	-19.927	0.099
772.800	-10.396	0.099
772.900	-14.122	0.099
773.000	-23.364	0.099
773.100	-25.268	0.099
773.200	-27.967	0.099
773.300	-12.736	0.099
773.400	-19.586	0.099
773.500	-8.636	0.099
773.600	-15.098	0.099
773.700	-19.792	0.099
773.800	-6.491	0.099
773.900	-22.090	0.099
774.000	-15.846	0.099
774.100	-16.712	0.099
774.200	-18.574	0.099
774.300	-20.778	0.099
774.400	-9.853	0.099
774.500	-12.191	0.099
774.600	-23.137	0.099
774.700	-28.093	0.099
774.800	-23.903	0.099
774.900	-8.870	0.099
775.000	-15.412	0.099
775.100	-25.917	0.099
775.200	-17.304	0.099
775.300	-18.996	0.099
775.400	-16.366	0.099
775.500	-13.616	0.099
775.600	-11.002	0.099
775.700	-7.457	0.099
775.800	-22.006	0.099
775.900	-18.704	0.099
776.000	-15.214	0.099
776.100	-4.693	0.099
776.200	-19.107	0.099
776.300	-25.046	0.099
776.400	-11.396	0.099
776.500	-12.784	0.099
776.600	-16.673	0.099
776.700	-18.665	0.099
776.800	-14.967	0.099
776.900	-15.433	0.099
777.000	-30.823	0.099
777.100	-13.413	0.099
777.200	-3.691	0.099
777.300	-7.158	0.099
777.400	-8.124	0.099
777.500	-32.985	0.099
777.600	-14.919	0.099
777.700	-10.440	0.099
777.800	-19.331	0.099
777.900	-25.612	0.099
778.000	-22.429	0.099
778.100	-3.423	0.099
778.200	-15.660	0.099
778.300	-15.864	0.099
778.400	-14.597	0.099
778.500	-9.478	0.099
778.600	-13.885	0.099
778.700	-21.668	0.099
778.800	-21.067	0.099
778.900	-22.388	0.099
779.000	-19.712	0.099
779.100	-12.915	0.099
779.200	-13.597	0.099
779.300	-9.279	0.099
779.400	-17.257	0.099
779.500	-7.323	0.099
779.600	-14.366	0.099
779.700	-19.435	0.099
779.800	0.413	0.099
779.900	-15.863	0.099
780.000	-2.126	0.099
780.100	-19.012	0.099
780.200	-2.409	0.099
780.300	-4.773	0.099
780.400	4.825	0.099
780.500	-3.889	0.099
780.600	2.784	0.099
780.700	5.039	0.099
780.800	11.341	0.099
780.900	5.682	0.099
781.000	5.001	0.099
781.100	23.906	0.099
781.200	22.165	0.099
781.300	19.463	0.099
781.400	21.326	0.099
781.500	18.129	0.099
781.600	30.282	0.099
781.700	24.203	0.099
781.800	14.455	0.099
781.900	30.913	0.099
782.000	25.079	0.099
782.100	16.884	0.099
782.200	14.367	0.099
782.300	37.611	0.099
782.400	32.186	0.099
782.500	21.012	0.099
782.600	24.883	0.099
782.700	19.296	0.099
782.800	10.597	0.099
782.900	29.163	0.099
783.000	31.955	0.099
783.100	22.622	0.099
783.200	22.418	0.099
783.300	21.737	0.099
783.400	7.994	0.099
783.500	24.120	0.099
783.600	31.653	0.099
783.700	5.407	0.099
783.800	6.834	0.099
783.900	15.038	0.099
784.000	24.889	0.099
784.100	20.053	0.099
784.200	3.053	0.099
784.300	26.680	0.099
784.400	17.246	0.099
784.500	-0.769	0.099
784.600	16.809	0.099
784.700	15.210	0.099
784.800	12.816	0.099
784.900	13.215	0.099
785.000	16.944	0.099
785.100	14.119	0.099
785.200	9.953	0.099
785.300	14.754	0.099
785.400	30.788	0.099
785.500	15.416	0.099
785.600	31.051	0.099
785.700	-5.423	0.099
785.800	13.975	0.099
785.900	24.031	0.099
786.000	26.149	0.099
786.100	16.755	0.099
786.200	4.331	0.099
786.300	27.565	0.099
786.400	13.607	0.099
786.500	22.792	0.099
786.600	16.594	0.099
786.700	28.459	0.099
786.800	27.111	0.099
786.900	25.779	0.099
787.000	16.284	0.099
787.100	37.695	0.099
787.200	25.914	0.099
787.300	12.934	0.099
787.400	25.214	0.099
787.500	22.538	0.099
787.600	22.523	0.099
787.700	10.531	0.099
787.800	33.263	0.099
787.900	25.088	0.099
788.000	22.182	0.099
788.100	24.464	0.099
788.200	33.328	0.099
788.300	17.615	0.099
788.400	30.013	0.099
788.500	24.130	0.099
788.600	25.635	0.099
788.700	16.971	0.099
788.800	29.327	0.099
788.900	35.399	0.099
789.000	33.283	0.099
789.100	23.951	0.099
789.200	21.660	0.099
789.300	23.557	0.099
789.400	30.305	0.099
789.500	35.055	0.099
789.600	34.334	0.099
789.700	37.073	0.099
789.800	40.578	0.099
789.900	33.017	0.099
790.000	31.530	0.099
790.100	32.607	0.099
790.200	36.111	0.099
790.300	29.395	0.099
790.400	36.318	0.099
790.500	46.642	0.099
790.600	33.763	0.099
790.700	31.719	0.099
790.800	29.019	0.099
790.900	24.583	0.099
791.000	21.681	0.099
791.100	37.286	0.099
791.200	39.923	0.099
791.300	36.641	0.099
791.400	41.461	0.099
791.500	38.444	0.099
791.600	37.132	0.099
791.700	47.076	0.099
791.800	39.070	0.099
791.900	27.943	0.099
792.000	38.174	0.099
792.100	30.084	0.099
792.200	46.615	0.099
792.300	36.746	0.099
792.400	25.033	0.099
792.500	33.825	0.099
792.600	51.563	0.099
792.700	36.525	0.099
792.800	39.231	0.099
792.900	37.287	0.099
793.000	34.437	0.099
793.100	20.928	0.099
793.200	41.987	0.099
793.300	41.509	0.099
793.400	40.612	0.099
793.500	37.422	0.099
793.600	46.015	0.099
793.700	38.385	0.099
793.800	35.335	0.099
793.900	45.294	0.099
794.000	34.584	0.099
794.100	41.889	0.099
794.200	15.010	0.099
794.300	44.768	0.099
794.400	39.348	0.099
794.500	40.913	0.099
794.600	44.289	0.099
794.700	30.835	0.099
794.800	44.030	0.099
794.900	33.234	0.099
795.000	39.829	0.099
795.100	42.034	0.099
795.200	18.663	0.099
795.300	31.075	0.099
795.400	47.920	0.099
795.500	35.475	0.099
795.600	34.661	0.099
795.700	45.812	0.099
795.800	40.030	0.099
795.900	38.115	0.099
796.000	25.740	0.099
796.100	38.079	0.099
796.200	44.883	0.099
796.300	32.051	0.099
796.400	40.513	0.099
796.500	40.637	0.099
796.600	27.171	0.099
796.700	35.379	0.099
796.800	41.152	0.099
796.900	34.592	0.099
797.000	40.704	0.099
797.100	44.264	0.099
797.200	47.280	0.099
797.300	53.574	0.099
797.400	31.086	0.099
797.500	39.482	0.099
797.600	46.782	0.099
797.700	49.262	0.099
797.800	30.475	0.099
797.900	33.782	0.099
798.000	22.365	0.099
798.100	40.052	0.099
798.200	34.773	0.099
798.300	47.882	0.099
798.400	32.699	0.099
798.500	33.949	0.099
798.600	46.405	0.099
798.700	33.876	0.099
798.800	31.380	0.099
798.900	20.292	0.099
799.000	39.161	0.099
799.100	41.661	0.099
799.200	34.457	0.099
799.300	39.586	0.099
799.400	40.224	0.099
799.500	39.332	0.099
799.600	32.440	0.099
799.700	31.336	0.099
799.800	20.892	0.099
799.900	33.284	0.099
800.000	37.939	0.099
