time /s	I /nA	E /V
0.100	-20.921	0.100
0.200	-13.095	0.100
0.300	-18.075	0.100
0.400	-15.028	0.100
0.500	-21.912	0.100
0.600	-13.419	0.100
0.700	-19.534	0.100
0.800	-22.849	0.100
0.900	-10.507	0.100
1.000	-22.926	0.100
1.100	-24.434	0.099
1.200	7.581	0.100
1.300	-4.467	0.100
1.400	-18.029	0.100
1.500	-15.064	0.100
1.600	-9.323	0.100
1.700	-3.379	0.100
1.800	-11.949	0.100
1.900	-10.766	0.100
2.000	-27.830	0.100
2.100	-4.865	0.100
2.200	-18.882	0.100
2.300	-13.136	0.100
2.400	-15.985	0.100
2.500	-12.849	0.100
2.600	-18.577	0.100
2.700	-3.810	0.100
2.800	-18.970	0.100
2.900	-28.712	0.100
3.000	-21.007	0.100
3.100	-24.241	0.100
3.200	-12.744	0.100
3.300	0.006	0.100
3.400	-19.711	0.100
3.500	-12.331	0.100
3.600	-17.417	0.100
3.700	3.634	0.100
3.800	-19.407	0.100
3.900	-11.088	0.100
4.000	-19.852	0.100
4.100	-9.469	0.100
4.200	-14.729	0.100
4.300	-19.509	0.100
4.400	-20.407	0.100
4.500	-3.755	0.100
4.600	-1.589	0.100
4.700	-6.809	0.100
4.800	-13.191	0.100
4.900	-15.387	0.100
5.000	-17.182	0.100
5.100	-13.920	0.100
5.200	-12.671	0.100
5.300	-22.495	0.100
5.400	-8.494	0.100
5.500	-17.050	0.100
5.600	-14.819	0.100
5.700	-17.333	0.100
5.800	-9.236	0.100
5.900	-11.777	0.100
6.000	-19.275	0.100
6.100	-22.900	0.100
6.200	-18.240	0.100
6.300	-10.817	0.100
6.400	-6.056	0.100
6.500	-15.967	0.100
6.600	-21.706	0.100
6.700	-20.110	0.100
6.800	-22.497	0.100
6.900	-18.784	0.100
7.000	-7.048	0.100
7.100	-14.726	0.100
7.200	-12.503	0.100
7.300	-6.741	0.100
7.400	-23.652	0.100
7.500	-19.480	0.100
7.600	-22.730	0.100
7.700	-9.335	0.100
7.800	2.531	0.100
7.900	-21.799	0.100
8.000	-21.684	0.100
8.100	-9.997	0.100
8.200	-8.182	0.100
8.300	-7.451	0.100
8.400	-17.685	0.100
8.500	-21.085	0.100
8.600	-14.893	0.100
8.700	-13.691	0.100
8.800	-6.560	0.100
8.900	-11.424	0.100
9.000	-29.554	0.100
9.100	-14.952	0.100
9.200	-11.393	0.100
9.300	-6.996	0.100
9.400	-12.514	0.100
9.500	-20.972	0.100
9.600	4.473	0.100
9.700	-25.098	0.100
9.800	-16.435	0.100
9.900	-20.616	0.100
10.000	-16.919	0.100
10.100	-10.588	0.100
10.200	-19.675	0.100
10.300	-25.894	0.100
10.400	-1.330	0.100
10.500	-9.058	0.100
10.600	-20.744	0.100
10.700	-8.187	0.100
10.800	-6.209	0.100
10.900	-17.605	0.100
11.000	-13.341	0.100
11.100	-8.165	0.100
11.200	-10.326	0.100
11.300	-12.300	0.100
11.400	-9.888	0.100
11.500	-8.661	0.100
11.600	-14.508	0.100
11.700	-8.443	0.100
11.800	-26.919	0.100
11.900	-24.095	0.100
12.000	-10.756	0.100
12.100	-2.741	0.100
12.200	-5.065	0.100
12.300	-13.069	0.100
12.400	-20.411	0.100
12.500	-0.942	0.100
12.600	-1.809	0.100
12.700	-14.584	0.100
12.800	-13.579	0.100
12.900	-10.565	0.099
13.000	-3.708	0.100
13.100	-12.450	0.100
13.200	-15.153	0.100
13.300	0.187	0.100
13.400	-15.330	0.100
13.500	-16.437	0.100
13.600	-18.733	0.100
13.700	-28.704	0.100
13.800	-3.257	0.100
13.900	-4.487	0.100
14.000	-10.879	0.100
14.100	-16.338	0.100
14.200	-8.211	0.100
14.300	-5.084	0.100
14.400	-7.765	0.100
14.500	-18.306	0.100
14.600	-14.542	0.100
14.700	-17.414	0.100
14.800	-26.161	0.100
14.900	1.751	0.100
15.000	-6.243	0.100
15.100	-27.501	0.100
15.200	-5.892	0.100
15.300	-26.558	0.100
15.400	-8.136	0.100
15.500	-15.037	0.100
15.600	-23.227	0.100
15.700	-10.148	0.100
15.800	-11.113	0.100
15.900	-9.039	0.100
16.000	-26.026	0.100
16.100	-1.135	0.100
16.200	-6.387	0.100
16.300	-24.249	0.100
16.400	-12.450	0.100
16.500	-1.569	0.100
16.600	-16.703	0.100
16.700	5.891	0.100
16.800	-15.292	0.100
16.900	1.134	0.100
17.000	-2.976	0.100
17.100	-4.235	0.100
17.200	-12.019	0.100
17.300	-11.446	0.100
17.400	-19.841	0.100
17.500	-25.594	0.100
17.600	-20.806	0.100
17.700	-18.504	0.100
17.800	-10.815	0.100
17.900	-2.232	0.100
18.000	-3.572	0.100
18.100	-11.690	0.100
18.200	-18.270	0.100
18.300	-12.591	0.100
18.400	-8.878	0.100
18.500	-12.483	0.100
18.600	-10.677	0.100
18.700	-12.593	0.100
18.800	-3.705	0.100
18.900	-22.077	0.100
19.000	-23.997	0.100
19.100	-15.253	0.100
19.200	-5.461	0.100
19.300	-22.006	0.100
19.400	-14.193	0.100
19.500	-18.944	0.100
19.600	-9.416	0.100
19.700	-2.759	0.100
19.800	-2.923	0.100
19.900	-13.386	0.100
20.000	-14.404	0.100
20.100	-9.145	0.100
20.200	-2.877	0.100
20.300	-13.818	0.100
20.400	-1.976	0.100
20.500	-17.805	0.100
20.600	-13.780	0.100
20.700	-4.423	0.100
20.800	-15.312	0.100
20.900	-12.077	0.100
21.000	-15.252	0.100
21.100	1.356	0.100
21.200	-22.248	0.100
21.300	-11.832	0.100
21.400	-13.511	0.100
21.500	3.440	0.100
21.600	-22.978	0.100
21.700	-10.410	0.100
21.800	0.780	0.100
21.900	3.874	0.100
22.000	-10.853	0.100
22.100	-14.021	0.100
22.200	-23.185	0.100
22.300	-11.934	0.100
22.400	-7.471	0.100
22.500	-3.324	0.100
22.600	-18.460	0.100
22.700	-26.115	0.100
22.800	-21.153	0.100
22.900	3.444	0.100
23.000	-12.097	0.100
23.100	-0.233	0.100
23.200	-16.487	0.100
23.300	-10.554	0.100
23.400	-7.356	0.100
23.500	-29.850	0.100
23.600	-8.694	0.100
23.700	-10.977	0.100
23.800	-10.177	0.100
23.900	-23.126	0.100
24.000	-3.408	0.100
24.100	-8.929	0.100
24.200	-5.682	0.100
24.300	-8.114	0.100
24.400	-9.950	0.100
24.500	-12.054	0.100
24.600	-27.747	0.099
24.700	-14.519	0.099
24.800	-19.444	0.100
24.900	-6.270	0.100
25.000	-5.221	0.100
25.100	-8.914	0.100
25.200	-32.875	0.100
25.300	-21.716	0.100
25.400	-6.643	0.100
25.500	-18.445	0.100
25.600	-12.559	0.100
25.700	-8.822	0.100
25.800	-26.422	0.100
25.900	-11.684	0.100
26.000	-10.976	0.100
26.100	2.368	0.100
26.200	-6.330	0.100
26.300	-7.796	0.100
26.400	-3.409	0.100
26.500	-26.210	0.100
26.600	-6.529	0.100
26.700	-6.931	0.100
26.800	-1.764	0.100
26.900	-21.768	0.100
27.000	-20.109	0.100
27.100	-14.996	0.100
27.200	-7.196	0.100
27.300	-15.716	0.099
27.400	-14.384	0.100
27.500	-15.094	0.100
27.600	-24.415	0.099
27.700	-6.056	0.100
27.800	-10.501	0.100
27.900	-2.160	0.100
28.000	1.684	0.100
28.100	-12.028	0.100
28.200	-25.627	0.099
28.300	-10.067	0.099
28.400	-7.421	0.100
28.500	-19.335	0.100
28.600	-5.235	0.100
28.700	-0.032	0.100
28.800	-22.095	0.100
28.900	-0.740	0.100
29.000	-21.248	0.100
29.100	-18.343	0.100
29.200	-3.553	0.100
29.300	-15.484	0.100
29.400	-6.478	0.100
29.500	-9.985	0.100
29.600	-6.457	0.100
29.700	-5.859	0.100
29.800	-9.206	0.100
29.900	-9.337	0.100
30.000	-2.197	0.100
30.100	-8.524	0.100
30.200	-12.201	0.100
30.300	3.661	0.100
30.400	-11.360	0.100
30.500	-6.481	0.100
30.600	-7.594	0.100
30.700	-11.180	0.100
30.800	-7.055	0.100
30.900	-6.838	0.100
31.000	0.536	0.100
31.100	-2.098	0.100
31.200	-3.974	0.100
31.300	-14.183	0.100
31.400	-0.315	0.100
31.500	3.441	0.100
31.600	-9.880	0.100
31.700	0.030	0.100
31.800	10.899	0.100
31.900	9.679	0.100
32.000	12.298	0.100
32.100	-0.740	0.100
32.200	-9.081	0.100
32.300	-0.043	0.100
32.400	-1.202	0.100
32.500	2.475	0.100
32.600	11.871	0.100
32.700	0.330	0.100
32.800	-2.521	0.100
32.900	14.980	0.100
33.000	10.120	0.100
33.100	5.547	0.100
33.200	10.480	0.100
33.300	13.496	0.100
33.400	2.956	0.100
33.500	20.957	0.100
33.600	14.794	0.100
33.700	11.317	0.100
33.800	16.308	0.100
33.900	12.460	0.100
34.000	9.534	0.100
34.100	18.828	0.100
34.200	11.482	0.100
34.300	22.244	0.100
34.400	8.739	0.100
34.500	16.400	0.100
34.600	23.898	0.100
34.700	16.744	0.100
34.800	14.787	0.100
34.900	20.984	0.100
35.000	10.609	0.100
35.100	28.044	0.100
35.200	16.881	0.100
35.300	19.773	0.100
35.400	12.400	0.100
35.500	27.126	0.100
35.600	20.303	0.100
35.700	6.144	0.100
35.800	21.981	0.100
35.900	21.106	0.100
36.000	13.925	0.100
36.100	19.829	0.100
36.200	15.446	0.100
36.300	27.072	0.100
36.400	9.789	0.100
36.500	18.417	0.100
36.600	20.679	0.100
36.700	23.468	0.100
36.800	24.950	0.100
36.900	23.542	0.100
37.000	25.589	0.100
37.100	31.766	0.100
37.200	6.390	0.100
37.300	18.187	0.100
37.400	25.352	0.100
37.500	24.152	0.100
37.600	25.483	0.100
37.700	12.113	0.100
37.800	26.554	0.100
37.900	25.847	0.100
38.000	22.463	0.100
38.100	4.979	0.100
38.200	22.130	0.100
38.300	14.428	0.100
38.400	11.627	0.100
38.500	21.997	0.100
38.600	7.573	0.100
38.700	15.531	0.100
38.800	17.464	0.100
38.900	15.680	0.100
39.000	16.522	0.100
39.100	29.654	0.100
39.200	11.106	0.100
39.300	27.889	0.100
39.400	16.294	0.100
39.500	9.542	0.100
39.600	28.734	0.100
39.700	30.470	0.100
39.800	18.900	0.100
39.900	13.853	0.100
40.000	10.994	0.100
40.100	20.650	0.100
40.200	12.365	0.100
40.300	22.522	0.100
40.400	14.267	0.100
40.500	22.095	0.100
40.600	14.113	0.100
40.700	-2.429	0.100
40.800	22.161	0.100
40.900	16.822	0.100
41.000	15.856	0.100
41.100	16.333	0.100
41.200	19.941	0.100
41.300	21.792	0.100
41.400	16.868	0.100
41.500	34.903	0.100
41.600	10.465	0.100
41.700	19.354	0.100
41.800	11.567	0.100
41.900	11.931	0.100
42.000	1.126	0.100
42.100	19.670	0.100
42.200	8.570	0.100
42.300	0.354	0.100
42.400	19.240	0.100
42.500	29.994	0.100
42.600	12.241	0.100
42.700	18.983	0.100
42.800	12.896	0.100
42.900	16.016	0.100
43.000	14.949	0.100
43.100	14.208	0.100
43.200	23.625	0.100
43.300	13.110	0.100
43.400	6.609	0.100
43.500	10.378	0.100
43.600	10.309	0.100
43.700	20.553	0.100
43.800	19.252	0.100
43.900	13.545	0.100
44.000	24.927	0.100
44.100	9.461	0.100
44.200	0.872	0.100
44.300	-1.604	0.100
44.400	14.011	0.100
44.500	22.413	0.100
44.600	17.821	0.100
44.700	15.409	0.100
44.800	8.497	0.100
44.900	26.158	0.100
45.000	5.674	0.100
45.100	26.008	0.100
45.200	19.830	0.100
45.300	11.521	0.100
45.400	9.127	0.100
45.500	4.378	0.100
45.600	27.631	0.100
45.700	20.659	0.100
45.800	15.992	0.100
45.900	22.604	0.100
46.000	17.657	0.100
46.100	19.656	0.100
46.200	2.864	0.100
46.300	6.538	0.100
46.400	20.719	0.100
46.500	18.228	0.100
46.600	23.294	0.100
46.700	23.807	0.100
46.800	11.082	0.100
46.900	15.621	0.100
47.000	14.502	0.100
47.100	21.222	0.100
47.200	12.411	0.100
47.300	14.560	0.100
47.400	23.992	0.100
47.500	-5.470	0.100
47.600	3.123	0.100
47.700	11.529	0.100
47.800	10.764	0.100
47.900	26.777	0.100
48.000	8.608	0.100
48.100	26.964	0.100
48.200	32.144	0.100
48.300	15.642	0.100
48.400	12.316	0.100
48.500	10.628	0.100
48.600	12.032	0.100
48.700	2.339	0.100
48.800	16.341	0.100
48.900	21.862	0.100
49.000	3.585	0.100
49.100	17.528	0.100
49.200	15.790	0.100
49.300	19.156	0.100
49.400	14.952	0.100
49.500	13.606	0.100
49.600	10.093	0.100
49.700	18.663	0.100
49.800	-2.921	0.100
49.900	24.014	0.100
50.000	3.014	0.100
50.100	33.764	0.100
50.200	21.186	0.100
50.300	23.844	0.100
50.400	3.910	0.100
50.500	6.086	0.100
50.600	11.993	0.100
50.700	14.765	0.100
50.800	8.066	0.100
50.900	11.091	0.100
51.000	3.928	0.100
51.100	12.545	0.100
51.200	11.785	0.100
51.300	29.948	0.100
51.400	12.678	0.100
51.500	9.128	0.100
51.600	14.200	0.100
51.700	23.153	0.100
51.800	25.068	0.100
51.900	-3.559	0.100
52.000	12.654	0.100
52.100	12.794	0.100
52.200	8.248	0.100
52.300	13.211	0.100
52.400	18.032	0.100
52.500	18.224	0.100
52.600	22.127	0.100
52.700	13.462	0.100
52.800	16.058	0.100
52.900	9.228	0.100
53.000	14.465	0.100
53.100	11.004	0.100
53.200	16.799	0.100
53.300	27.020	0.100
53.400	12.973	0.100
53.500	18.452	0.100
53.600	21.393	0.100
53.700	29.081	0.100
53.800	19.135	0.100
53.900	19.724	0.100
54.000	20.343	0.100
54.100	28.388	0.100
54.200	11.105	0.100
54.300	19.021	0.100
54.400	11.309	0.100
54.500	25.763	0.100
54.600	16.531	0.100
54.700	13.627	0.100
54.800	26.926	0.100
54.900	26.280	0.100
55.000	16.587	0.100
55.100	10.493	0.100
55.200	-3.984	0.100
55.300	21.754	0.100
55.400	31.682	0.100
55.500	19.579	0.100
55.600	12.654	0.100
55.700	21.270	0.100
55.800	12.676	0.100
55.900	22.167	0.100
56.000	11.885	0.100
56.100	19.723	0.100
56.200	8.466	0.100
56.300	23.142	0.100
56.400	22.430	0.100
56.500	20.189	0.100
56.600	6.774	0.100
56.700	21.251	0.100
56.800	19.305	0.100
56.900	15.375	0.100
57.000	24.477	0.100
57.100	6.972	0.100
57.200	11.490	0.100
57.300	29.103	0.099
57.400	16.718	0.100
57.500	33.959	0.100
57.600	11.315	0.100
57.700	-3.415	0.100
57.800	17.735	0.100
57.900	28.813	0.100
58.000	16.386	0.100
58.100	31.613	0.100
58.200	25.937	0.100
58.300	18.686	0.100
58.400	32.338	0.100
58.500	30.031	0.100
58.600	4.790	0.100
58.700	14.071	0.100
58.800	12.230	0.099
58.900	23.409	0.100
59.000	11.930	0.100
59.100	18.429	0.100
59.200	20.054	0.100
59.300	15.838	0.100
59.400	19.420	0.100
59.500	20.664	0.100
59.600	24.134	0.100
59.700	16.730	0.100
59.800	21.844	0.100
59.900	22.458	0.100
60.000	14.166	0.100
60.100	11.951	0.100
60.200	9.311	0.100
60.300	11.221	0.100
60.400	13.734	0.100
60.500	27.004	0.100
60.600	21.321	0.100
60.700	9.918	0.100
60.800	14.659	0.100
60.900	22.999	0.100
61.000	18.014	0.100
61.100	10.526	0.100
61.200	14.079	0.100
61.300	32.971	0.100
61.400	15.794	0.100
61.500	16.391	0.100
61.600	11.513	0.100
61.700	24.142	0.100
61.800	17.049	0.100
61.900	28.262	0.100
62.000	12.782	0.100
62.100	26.646	0.100
62.200	7.731	0.100
62.300	14.558	0.100
62.400	24.548	0.100
62.500	33.720	0.100
62.600	35.409	0.100
62.700	16.666	0.100
62.800	31.513	0.100
62.900	26.945	0.100
63.000	17.853	0.100
63.100	17.780	0.100
63.200	22.832	0.100
63.300	17.179	0.100
63.400	1.039	0.100
63.500	31.101	0.100
63.600	25.942	0.100
63.700	11.378	0.100
63.800	35.824	0.100
63.900	33.065	0.100
64.000	13.642	0.100
64.100	32.830	0.100
64.200	12.319	0.100
64.300	25.840	0.100
64.400	16.454	0.100
64.500	18.235	0.100
64.600	14.521	0.100
64.700	30.072	0.100
64.800	19.933	0.100
64.900	17.332	0.100
65.000	26.703	0.100
65.100	27.995	0.100
65.200	19.738	0.100
65.300	24.842	0.100
65.400	14.548	0.100
65.500	6.834	0.100
65.600	24.330	0.100
65.700	18.618	0.100
65.800	22.191	0.100
65.900	18.059	0.100
66.000	33.159	0.100
66.100	29.671	0.100
66.200	28.339	0.100
66.300	10.957	0.100
66.400	17.574	0.100
66.500	19.275	0.100
66.600	18.402	0.100
66.700	22.864	0.100
66.800	29.249	0.100
66.900	17.569	0.100
67.000	30.510	0.100
67.100	22.945	0.100
67.200	15.215	0.100
67.300	21.986	0.100
67.400	23.242	0.100
67.500	23.008	0.100
67.600	9.009	0.100
67.700	25.699	0.100
67.800	26.726	0.100
67.900	27.835	0.100
68.000	25.798	0.099
68.100	29.709	0.100
68.200	7.726	0.100
68.300	23.344	0.100
68.400	20.836	0.100
68.500	15.424	0.100
68.600	13.753	0.100
68.700	42.595	0.100
68.800	27.219	0.100
68.900	10.382	0.100
69.000	23.221	0.100
69.100	25.424	0.100
69.200	18.078	0.100
69.300	18.901	0.100
69.400	22.890	0.100
69.500	14.621	0.100
69.600	16.075	0.100
69.700	17.872	0.100
69.800	16.822	0.100
69.900	16.569	0.100
70.000	22.078	0.100
70.100	29.958	0.100
70.200	26.748	0.100
70.300	13.641	0.100
70.400	8.924	0.100
70.500	13.512	0.100
70.600	30.259	0.100
70.700	7.216	0.099
70.800	26.669	0.100
70.900	25.339	0.100
71.000	24.163	0.100
71.100	19.083	0.100
71.200	16.040	0.100
71.300	20.912	0.100
71.400	17.899	0.100
71.500	26.671	0.100
71.600	17.335	0.100
71.700	18.641	0.100
71.800	22.397	0.100
71.900	20.560	0.100
72.000	19.582	0.100
72.100	17.169	0.100
72.200	33.687	0.100
72.300	22.393	0.100
72.400	13.807	0.100
72.500	16.851	0.100
72.600	7.509	0.100
72.700	17.313	0.100
72.800	33.922	0.100
72.900	19.846	0.100
73.000	9.456	0.100
73.100	20.859	0.100
73.200	25.479	0.100
73.300	27.002	0.100
73.400	16.686	0.100
73.500	16.098	0.100
73.600	32.884	0.099
73.700	20.031	0.100
73.800	29.999	0.100
73.900	30.269	0.100
74.000	20.557	0.100
74.100	23.231	0.100
74.200	19.046	0.100
74.300	18.897	0.100
74.400	16.091	0.100
74.500	16.123	0.100
74.600	10.898	0.100
74.700	14.240	0.099
74.800	38.717	0.099
74.900	19.669	0.100
75.000	21.387	0.100
75.100	15.909	0.100
75.200	16.894	0.100
75.300	19.519	0.100
75.400	19.437	0.100
75.500	25.263	0.100
75.600	20.540	0.100
75.700	19.068	0.100
75.800	29.705	0.100
75.900	21.098	0.100
76.000	19.248	0.099
76.100	11.387	0.100
76.200	29.598	0.100
76.300	25.294	0.100
76.400	27.757	0.100
76.500	15.982	0.100
76.600	18.189	0.100
76.700	23.506	0.100
76.800	27.619	0.100
76.900	23.509	0.100
77.000	14.794	0.100
77.100	27.798	0.100
77.200	19.758	0.100
77.300	19.581	0.100
77.400	17.896	0.100
77.500	9.721	0.100
77.600	32.086	0.100
77.700	17.604	0.100
77.800	21.230	0.100
77.900	23.619	0.100
78.000	19.769	0.100
78.100	20.321	0.100
78.200	35.595	0.100
78.300	15.599	0.100
78.400	17.948	0.100
78.500	29.668	0.100
78.600	31.028	0.100
78.700	28.868	0.099
78.800	27.637	0.100
78.900	25.110	0.100
79.000	29.064	0.100
79.100	20.418	0.100
79.200	23.797	0.100
79.300	21.081	0.099
79.400	13.834	0.100
79.500	36.352	0.100
79.600	26.709	0.099
79.700	6.958	0.100
79.800	9.410	0.100
79.900	27.783	0.100
80.000	24.411	0.099
80.100	25.971	0.099
80.200	21.282	0.099
80.300	30.074	0.099
80.400	21.792	0.099
80.500	43.629	0.100
80.600	28.740	0.099
80.700	14.278	0.100
80.800	23.643	0.100
80.900	23.724	0.100
81.000	44.081	0.100
81.100	14.743	0.100
81.200	14.121	0.099
81.300	18.737	0.100
81.400	31.598	0.100
81.500	39.479	0.100
81.600	24.424	0.100
81.700	24.323	0.100
81.800	29.005	0.100
81.900	25.478	0.100
82.000	20.965	0.100
82.100	24.179	0.100
82.200	23.996	0.100
82.300	8.988	0.100
82.400	20.745	0.100
82.500	15.535	0.100
82.600	12.954	0.100
82.700	24.625	0.100
82.800	25.632	0.100
82.900	34.302	0.100
83.000	28.786	0.100
83.100	19.908	0.100
83.200	17.561	0.100
83.300	23.138	0.100
83.400	27.060	0.100
83.500	27.186	0.100
83.600	20.729	0.100
83.700	9.256	0.100
83.800	37.802	0.099
83.900	30.186	0.100
84.000	20.821	0.100
84.100	20.863	0.100
84.200	23.174	0.100
84.300	25.283	0.100
84.400	18.593	0.100
84.500	21.816	0.099
84.600	16.007	0.100
84.700	29.731	0.100
84.800	31.903	0.100
84.900	32.875	0.100
85.000	21.755	0.100
85.100	16.417	0.100
85.200	29.246	0.100
85.300	19.221	0.100
85.400	22.059	0.100
85.500	28.129	0.100
85.600	24.468	0.100
85.700	7.993	0.099
85.800	22.811	0.100
85.900	30.607	0.100
86.000	27.181	0.099
86.100	13.320	0.100
86.200	30.072	0.100
86.300	23.581	0.100
86.400	28.405	0.100
86.500	19.404	0.100
86.600	33.496	0.100
86.700	32.758	0.100
86.800	20.253	0.100
86.900	23.714	0.100
87.000	32.615	0.099
87.100	20.140	0.100
87.200	13.379	0.100
87.300	16.044	0.100
87.400	29.895	0.100
87.500	27.910	0.100
87.600	23.896	0.100
87.700	23.308	0.100
87.800	31.091	0.100
87.900	33.935	0.100
88.000	25.507	0.100
88.100	25.334	0.100
88.200	20.342	0.100
88.300	26.206	0.100
88.400	21.578	0.100
88.500	20.635	0.100
88.600	25.477	0.100
88.700	26.739	0.100
88.800	31.501	0.100
88.900	18.985	0.100
89.000	11.768	0.100
89.100	42.389	0.100
89.200	35.587	0.099
89.300	26.450	0.100
89.400	28.165	0.100
89.500	32.044	0.100
89.600	21.431	0.100
89.700	17.466	0.100
89.800	32.060	0.099
89.900	32.485	0.100
90.000	26.204	0.100
90.100	11.858	0.100
90.200	40.926	0.100
90.300	21.376	0.100
90.400	14.733	0.099
90.500	4.989	0.100
90.600	15.796	0.100
90.700	7.856	0.100
90.800	18.068	0.100
90.900	23.670	0.100
91.000	4.957	0.099
91.100	10.897	0.100
91.200	7.696	0.100
91.300	5.957	0.099
91.400	12.302	0.100
91.500	2.538	0.100
91.600	7.301	0.099
91.700	5.460	0.100
91.800	7.427	0.100
91.900	1.208	0.100
92.000	-2.983	0.100
92.100	-9.371	0.100
92.200	-3.998	0.100
92.300	-5.081	0.100
92.400	1.123	0.100
92.500	-6.878	0.100
92.600	-13.935	0.100
92.700	-14.866	0.100
92.800	-5.048	0.099
92.900	-5.317	0.100
93.000	-4.950	0.100
93.100	-7.225	0.099
93.200	-26.474	0.100
93.300	-26.211	0.100
93.400	-16.050	0.099
93.500	-4.633	0.100
93.600	6.966	0.100
93.700	-12.767	0.100
93.800	-20.052	0.099
93.900	-11.911	0.099
94.000	-5.585	0.100
94.100	-9.245	0.099
94.200	-1.342	0.100
94.300	-10.200	0.100
94.400	-8.865	0.100
94.500	3.938	0.100
94.600	-31.805	0.099
94.700	-18.689	0.100
94.800	-14.433	0.100
94.900	-8.743	0.099
95.000	-24.844	0.100
95.100	-7.692	0.100
95.200	5.626	0.100
95.300	-14.691	0.100
95.400	-20.053	0.100
95.500	-16.841	0.100
95.600	-11.253	0.100
95.700	-19.703	0.100
95.800	-9.794	0.100
95.900	-19.469	0.099
96.000	-7.832	0.099
96.100	-10.883	0.099
96.200	-15.076	0.100
96.300	-3.794	0.100
96.400	-17.651	0.099
96.500	-20.581	0.099
96.600	-14.168	0.099
96.700	-18.151	0.099
96.800	-8.283	0.099
96.900	-18.697	0.099
97.000	-4.632	0.099
97.100	-14.896	0.099
97.200	-12.958	0.099
97.300	-15.114	0.100
97.400	-21.968	0.099
97.500	-19.192	0.100
97.600	-19.766	0.099
97.700	-16.351	0.099
97.800	-6.270	0.099
97.900	-3.785	0.100
98.000	-9.403	0.100
98.100	-14.893	0.099
98.200	-14.373	0.100
98.300	-10.177	0.099
98.400	-21.897	0.099
98.500	-13.658	0.099
98.600	-11.425	0.099
98.700	-22.146	0.099
98.800	-20.787	0.099
98.900	-8.187	0.099
99.000	-3.399	0.099
99.100	-15.566	0.099
99.200	-12.435	0.100
99.300	-22.532	0.099
99.400	-12.581	0.100
99.500	-7.112	0.099
99.600	-30.627	0.099
99.700	-20.783	0.100
99.800	-18.842	0.100
99.900	-4.434	0.100
100.000	-16.301	0.100
100.100	-14.930	0.099
100.200	-12.172	0.100
100.300	-30.504	0.099
100.400	-15.046	0.099
100.500	-5.351	0.099
100.600	-8.449	0.099
100.700	-15.365	0.099
100.800	-14.310	0.099
100.900	-16.584	0.100
101.000	-15.308	0.099
101.100	-3.366	0.100
101.200	-15.244	0.100
101.300	-11.645	0.099
101.400	-28.919	0.099
101.500	-13.413	0.099
101.600	-6.955	0.100
101.700	-9.726	0.100
101.800	-12.641	0.099
101.900	-10.132	0.100
102.000	-18.245	0.100
102.100	-17.098	0.099
102.200	-14.857	0.100
102.300	-14.640	0.099
102.400	-20.752	0.099
102.500	-17.032	0.099
102.600	-21.582	0.099
102.700	-5.468	0.100
102.800	-6.986	0.100
102.900	-20.346	0.099
103.000	-9.352	0.099
103.100	-12.013	0.100
103.200	-15.438	0.100
103.300	-21.769	0.100
103.400	-9.630	0.100
103.500	-33.942	0.099
103.600	-25.831	0.099
103.700	-12.207	0.100
103.800	-0.439	0.099
103.900	-10.291	0.100
104.000	-4.721	0.099
104.100	-7.368	0.100
104.200	-15.746	0.099
104.300	-16.622	0.099
104.400	-29.070	0.100
104.500	-10.707	0.100
104.600	-6.483	0.100
104.700	-20.825	0.099
104.800	-30.265	0.099
104.900	-8.397	0.099
105.000	-17.857	0.100
105.100	-11.488	0.100
105.200	-17.800	0.099
105.300	-20.222	0.100
105.400	-10.132	0.099
105.500	-7.044	0.100
105.600	0.512	0.100
105.700	-14.574	0.100
105.800	-24.087	0.099
105.900	-11.889	0.100
106.000	-18.592	0.099
106.100	-10.121	0.100
106.200	-21.429	0.099
106.300	-10.002	0.099
106.400	-17.546	0.099
106.500	-6.068	0.100
106.600	2.620	0.099
106.700	-21.697	0.100
106.800	-20.013	0.099
106.900	-13.669	0.100
107.000	-14.425	0.099
107.100	-33.258	0.099
107.200	-21.164	0.099
107.300	-20.752	0.099
107.400	-0.401	0.100
107.500	-9.948	0.099
107.600	-21.705	0.100
107.700	-16.307	0.100
107.800	-17.811	0.099
107.900	-3.970	0.099
108.000	-13.933	0.100
108.100	-17.050	0.099
108.200	-20.516	0.100
108.300	-16.337	0.100
108.400	-32.262	0.100
108.500	-20.859	0.100
108.600	0.736	0.099
108.700	-19.444	0.099
108.800	-24.935	0.100
108.900	-26.227	0.099
109.000	-11.814	0.099
109.100	-7.811	0.099
109.200	-15.641	0.099
109.300	-30.252	0.099
109.400	-4.136	0.100
109.500	-14.609	0.099
109.600	-13.905	0.099
109.700	-19.164	0.099
109.800	-15.008	0.099
109.900	-30.354	0.099
110.000	-20.638	0.099
110.100	-6.230	0.099
110.200	-20.180	0.100
110.300	-15.113	0.099
110.400	-16.116	0.099
110.500	-18.521	0.100
110.600	-1.660	0.100
110.700	-11.630	0.100
110.800	-28.585	0.099
110.900	-12.274	0.099
111.000	-19.183	0.100
111.100	-11.558	0.099
111.200	-28.254	0.099
111.300	-7.748	0.100
111.400	-16.651	0.099
111.500	-22.304	0.100
111.600	-10.258	0.100
111.700	-15.607	0.099
111.800	-12.851	0.100
111.900	-17.990	0.099
112.000	-14.224	0.100
112.100	-25.447	0.099
112.200	-18.697	0.099
112.300	-21.227	0.099
112.400	-4.738	0.100
112.500	-18.916	0.099
112.600	-13.300	0.099
112.700	-15.242	0.099
112.800	-5.419	0.100
112.900	-13.131	0.100
113.000	-12.559	0.099
113.100	-6.762	0.100
113.200	-23.015	0.100
113.300	-17.344	0.100
113.400	-11.972	0.100
113.500	-14.949	0.100
113.600	-22.219	0.100
113.700	-27.397	0.100
113.800	-3.964	0.099
113.900	-10.836	0.100
114.000	-19.518	0.099
114.100	-21.473	0.099
114.200	-16.383	0.100
114.300	-6.484	0.099
114.400	-21.745	0.100
114.500	-7.474	0.100
114.600	-15.485	0.100
114.700	-23.095	0.100
114.800	-12.963	0.099
114.900	-4.256	0.100
115.000	-19.008	0.100
115.100	-17.263	0.100
115.200	-21.065	0.099
115.300	-16.231	0.100
115.400	-26.560	0.099
115.500	-2.970	0.099
115.600	-23.488	0.099
115.700	-22.795	0.100
115.800	-10.955	0.100
115.900	-17.975	0.099
116.000	-26.618	0.099
116.100	-23.515	0.099
116.200	-20.437	0.099
116.300	-8.601	0.100
116.400	-14.136	0.099
116.500	-12.059	0.099
116.600	-17.456	0.100
116.700	-31.276	0.099
116.800	-14.361	0.100
116.900	-18.143	0.100
117.000	-15.425	0.100
117.100	-17.685	0.100
117.200	-19.389	0.100
117.300	-16.959	0.100
117.400	-22.770	0.099
117.500	-11.022	0.099
117.600	-35.164	0.100
117.700	-17.187	0.099
117.800	-13.279	0.099
117.900	-15.506	0.099
118.000	-11.092	0.100
118.100	-29.452	0.099
118.200	-22.227	0.100
118.300	-6.622	0.100
118.400	-9.762	0.099
118.500	-2.142	0.099
118.600	-17.781	0.100
118.700	-22.897	0.099
118.800	-18.399	0.100
118.900	-11.473	0.099
119.000	-14.879	0.099
119.100	-15.617	0.100
119.200	-14.443	0.099
119.300	-20.442	0.099
119.400	-8.975	0.099
119.500	-19.731	0.099
119.600	-14.206	0.100
119.700	-19.575	0.099
119.800	-3.557	0.099
119.900	-6.899	0.100
120.000	-24.450	0.099
120.100	-13.988	0.100
120.200	-10.669	0.099
120.300	-26.218	0.100
120.400	-26.841	0.099
120.500	-23.446	0.099
120.600	-10.443	0.099
120.700	-1.408	0.099
120.800	-13.952	0.100
120.900	-18.526	0.099
121.000	-19.416	0.100
121.100	-29.450	0.099
121.200	-18.543	0.099
121.300	-14.481	0.099
121.400	-9.163	0.099
121.500	-17.126	0.099
121.600	-24.542	0.099
121.700	-25.621	0.099
121.800	-10.134	0.100
121.900	-28.702	0.099
122.000	-10.782	0.099
122.100	-25.425	0.099
122.200	-8.419	0.099
122.300	-14.348	0.099
122.400	-9.856	0.099
122.500	-27.639	0.099
122.600	-27.213	0.099
122.700	-21.505	0.099
122.800	-0.815	0.099
122.900	-32.271	0.099
123.000	-29.285	0.099
123.100	-12.887	0.100
123.200	-19.339	0.099
123.300	-22.135	0.099
123.400	-19.279	0.099
123.500	-14.436	0.099
123.600	-21.088	0.099
123.700	-17.242	0.099
123.800	-7.049	0.100
123.900	-16.315	0.099
124.000	-9.710	0.099
124.100	-15.616	0.099
124.200	-23.644	0.099
124.300	-7.972	0.099
124.400	-15.187	0.100
124.500	-22.973	0.099
124.600	-26.516	0.100
124.700	-29.692	0.099
124.800	-23.882	0.099
124.900	4.113	0.100
125.000	-22.948	0.099
125.100	-17.185	0.100
125.200	-21.999	0.099
125.300	-23.051	0.100
125.400	-7.544	0.099
125.500	-12.885	0.100
125.600	-31.179	0.099
125.700	-1.268	0.100
125.800	-13.203	0.100
125.900	-23.787	0.099
126.000	-21.129	0.099
126.100	-12.540	0.099
126.200	-28.423	0.100
126.300	-22.801	0.099
126.400	-15.445	0.099
126.500	-24.257	0.100
126.600	-13.143	0.100
126.700	-18.948	0.099
126.800	-9.042	0.099
126.900	-16.634	0.099
127.000	-22.663	0.100
127.100	-21.132	0.099
127.200	-14.277	0.100
127.300	-20.968	0.100
127.400	-15.022	0.100
127.500	-16.871	0.100
127.600	-7.295	0.099
127.700	-26.846	0.100
127.800	-19.972	0.100
127.900	-29.050	0.100
128.000	-27.609	0.100
128.100	-13.939	0.099
128.200	-23.139	0.100
128.300	-12.564	0.099
128.400	-25.672	0.099
128.500	-7.935	0.100
128.600	-16.105	0.100
128.700	-26.671	0.100
128.800	-20.329	0.100
128.900	-20.648	0.100
129.000	-21.472	0.099
129.100	-24.133	0.100
129.200	-19.960	0.100
129.300	-22.469	0.099
129.400	-5.687	0.099
129.500	-20.789	0.099
129.600	-19.168	0.100
129.700	-22.982	0.100
129.800	-12.696	0.100
129.900	-8.637	0.100
130.000	-14.170	0.099
130.100	-14.313	0.100
130.200	-12.690	0.100
130.300	-20.442	0.100
130.400	-19.813	0.100
130.500	-25.838	0.099
130.600	-22.668	0.099
130.700	-13.359	0.100
130.800	-14.416	0.099
130.900	-13.113	0.100
131.000	-25.092	0.099
131.100	-12.540	0.100
131.200	-7.248	0.100
131.300	-10.507	0.100
131.400	-26.449	0.099
131.500	-40.236	0.100
131.600	-23.908	0.099
131.700	-15.624	0.099
131.800	-18.537	0.100
131.900	-10.670	0.099
132.000	-10.410	0.100
132.100	-10.820	0.100
132.200	-26.187	0.099
132.300	-15.558	0.099
132.400	-13.022	0.099
132.500	-22.907	0.100
132.600	-10.022	0.100
132.700	-15.322	0.100
132.800	-34.452	0.100
132.900	-30.667	0.099
133.000	-22.148	0.099
133.100	-10.983	0.099
133.200	-17.852	0.099
133.300	-15.397	0.100
133.400	-10.085	0.100
133.500	-20.348	0.099
133.600	-17.817	0.100
133.700	-16.449	0.100
133.800	-23.801	0.099
133.900	-32.026	0.099
134.000	-23.526	0.099
134.100	-10.452	0.100
134.200	-10.520	0.099
134.300	-19.089	0.100
134.400	-18.374	0.100
134.500	-13.966	0.099
134.600	-23.328	0.099
134.700	-23.148	0.099
134.800	-10.093	0.100
134.900	-21.758	0.100
135.000	-9.994	0.099
135.100	-24.589	0.099
135.200	-9.068	0.099
135.300	-22.958	0.100
135.400	-15.365	0.100
135.500	-9.020	0.099
135.600	-22.424	0.099
135.700	-10.137	0.100
135.800	-13.377	0.100
135.900	-19.131	0.099
136.000	-22.741	0.099
136.100	-23.497	0.099
136.200	-13.337	0.099
136.300	-14.888	0.100
136.400	-23.119	0.100
136.500	-24.316	0.099
136.600	-17.503	0.100
136.700	-10.817	0.100
136.800	-2.937	0.099
136.900	-15.149	0.100
137.000	-28.202	0.099
137.100	-11.616	0.100
137.200	-26.005	0.099
137.300	-24.655	0.099
137.400	-17.756	0.099
137.500	-25.258	0.099
137.600	-26.542	0.100
137.700	-14.607	0.100
137.800	-23.309	0.100
137.900	-11.862	0.100
138.000	-17.956	0.100
138.100	-17.803	0.099
138.200	-6.079	0.100
138.300	-11.523	0.100
138.400	-23.326	0.100
138.500	-30.004	0.099
138.600	-8.944	0.099
138.700	-21.633	0.100
138.800	-9.232	0.100
138.900	-22.448	0.100
139.000	-24.100	0.099
139.100	-9.237	0.099
139.200	-15.206	0.099
139.300	-7.106	0.099
139.400	-12.475	0.100
139.500	-23.958	0.099
139.600	-15.075	0.099
139.700	-18.754	0.099
139.800	-21.579	0.100
139.900	-34.601	0.100
140.000	-17.606	0.099
140.100	-10.513	0.100
140.200	-17.660	0.099
140.300	-14.981	0.100
140.400	-11.394	0.100
140.500	-17.699	0.099
140.600	-11.477	0.100
140.700	-29.097	0.099
140.800	-19.039	0.100
140.900	-19.467	0.099
141.000	-17.220	0.100
141.100	-16.692	0.100
141.200	-18.617	0.099
141.300	-17.094	0.099
141.400	-18.648	0.099
141.500	-16.044	0.100
141.600	-13.939	0.099
141.700	-14.005	0.100
141.800	-30.618	0.099
141.900	-22.493	0.099
142.000	-20.332	0.099
142.100	-12.377	0.100
142.200	-21.487	0.100
142.300	-22.118	0.099
142.400	8.629	0.100
142.500	-10.236	0.100
142.600	-28.087	0.099
142.700	-5.061	0.099
142.800	-19.666	0.099
142.900	-33.126	0.100
143.000	-11.371	0.100
143.100	-11.713	0.100
143.200	-21.712	0.099
143.300	-22.357	0.099
143.400	-15.885	0.099
143.500	-19.658	0.100
143.600	-18.167	0.099
143.700	-21.256	0.100
143.800	-14.689	0.099
143.900	-12.359	0.099
144.000	-6.416	0.100
144.100	-23.978	0.099
144.200	-27.704	0.099
144.300	-11.440	0.099
144.400	-21.319	0.100
144.500	-10.326	0.100
144.600	-20.992	0.100
144.700	-19.463	0.099
144.800	-22.304	0.100
144.900	-24.353	0.099
145.000	-16.956	0.099
145.100	-20.414	0.099
145.200	-7.428	0.100
145.300	-16.057	0.100
145.400	-18.957	0.099
145.500	-9.578	0.099
145.600	-13.297	0.099
145.700	-13.990	0.100
145.800	-15.746	0.100
145.900	-33.654	0.100
146.000	-2.448	0.100
146.100	-24.945	0.099
146.200	-19.500	0.099
146.300	-17.207	0.099
146.400	-12.798	0.100
146.500	-11.670	0.099
146.600	-10.185	0.100
146.700	-9.926	0.099
146.800	-29.809	0.100
146.900	-17.459	0.100
147.000	-25.655	0.100
147.100	-7.608	0.100
147.200	-16.439	0.100
147.300	-16.696	0.099
147.400	-20.964	0.099
147.500	-19.243	0.100
147.600	-15.104	0.099
147.700	-17.215	0.100
147.800	-9.911	0.100
147.900	-7.530	0.099
148.000	-21.232	0.099
148.100	-10.840	0.099
148.200	-24.560	0.100
148.300	-21.649	0.099
148.400	-14.065	0.099
148.500	-15.500	0.099
148.600	-21.074	0.099
148.700	-14.040	0.099
148.800	-15.237	0.100
148.900	-5.198	0.100
149.000	-27.110	0.100
149.100	-11.272	0.100
149.200	-9.673	0.099
149.300	-26.480	0.099
149.400	-19.477	0.099
149.500	-19.145	0.100
149.600	-25.259	0.099
149.700	-20.440	0.099
149.800	5.911	0.099
149.900	-17.261	0.099
150.000	-15.666	0.100
150.100	-8.664	0.099
150.200	-26.166	0.099
150.300	-15.491	0.100
150.400	-8.499	0.100
150.500	-10.552	0.100
150.600	-11.410	0.099
150.700	-20.395	0.099
150.800	-21.463	0.099
150.900	-24.678	0.099
151.000	-22.741	0.099
151.100	-18.641	0.099
151.200	-7.391	0.100
151.300	-21.911	0.099
151.400	-9.581	0.099
151.500	-19.065	0.100
151.600	-18.166	0.099
151.700	-22.208	0.099
151.800	-7.248	0.099
151.900	-15.744	0.099
152.000	-3.015	0.099
152.100	-14.566	0.100
152.200	-25.461	0.099
152.300	-15.917	0.100
152.400	-22.015	0.099
152.500	-15.462	0.099
152.600	-17.633	0.099
152.700	-9.616	0.099
152.800	-9.466	0.100
152.900	-16.767	0.100
153.000	-14.064	0.100
153.100	-14.436	0.099
153.200	-26.331	0.099
153.300	-6.605	0.100
153.400	-15.016	0.099
153.500	-22.090	0.100
153.600	-18.284	0.100
153.700	-7.648	0.099
153.800	-22.782	0.099
153.900	-6.651	0.100
154.000	-9.033	0.100
154.100	-17.878	0.099
154.200	-2.346	0.100
154.300	-9.600	0.100
154.400	-0.787	0.100
154.500	-14.606	0.100
154.600	-8.946	0.100
154.700	-14.147	0.099
154.800	-7.550	0.100
154.900	-16.268	0.100
155.000	-32.899	0.100
155.100	-10.786	0.100
155.200	-18.821	0.099
155.300	-23.751	0.100
155.400	-10.020	0.100
155.500	-27.330	0.100
155.600	-11.392	0.099
155.700	-11.914	0.099
155.800	-22.707	0.100
155.900	-29.440	0.099
156.000	-3.133	0.100
156.100	-7.342	0.100
156.200	-36.524	0.099
156.300	-33.134	0.099
156.400	-2.070	0.100
156.500	-11.240	0.099
156.600	-23.522	0.100
156.700	-19.142	0.100
156.800	-7.973	0.100
156.900	-15.236	0.099
157.000	-10.745	0.099
157.100	-15.415	0.099
157.200	-18.851	0.100
157.300	-29.187	0.099
157.400	-12.514	0.099
157.500	-1.657	0.099
157.600	-10.942	0.099
157.700	-7.947	0.100
157.800	-25.519	0.099
157.900	-12.550	0.099
158.000	-13.783	0.099
158.100	-18.151	0.100
158.200	-15.185	0.099
158.300	-20.786	0.100
158.400	-13.362	0.099
158.500	-11.772	0.100
158.600	-7.285	0.099
158.700	-13.024	0.100
158.800	-24.050	0.099
158.900	-9.644	0.100
159.000	-17.269	0.099
159.100	-26.993	0.100
159.200	-24.519	0.099
159.300	-13.656	0.099
159.400	-15.211	0.099
159.500	-11.948	0.100
159.600	-21.937	0.100
159.700	-25.544	0.099
159.800	-15.022	0.099
159.900	-22.630	0.100
160.000	-9.893	0.099
160.100	-3.468	0.100
160.200	-8.271	0.099
160.300	-21.681	0.100
160.400	-6.859	0.100
160.500	-21.270	0.099
160.600	-15.330	0.100
160.700	-31.261	0.100
160.800	-25.941	0.100
160.900	-14.897	0.100
161.000	-9.383	0.099
161.100	-12.112	0.099
161.200	-14.861	0.100
161.300	-11.310	0.100
161.400	-10.543	0.100
161.500	-15.665	0.100
161.600	-17.357	0.099
161.700	-9.730	0.099
161.800	-15.600	0.099
161.900	-8.391	0.099
162.000	-12.856	0.099
162.100	-16.045	0.100
162.200	-20.027	0.100
162.300	-1.762	0.099
162.400	-20.267	0.099
162.500	-24.189	0.100
162.600	-20.713	0.099
162.700	-22.112	0.099
162.800	-22.804	0.100
162.900	-27.122	0.100
163.000	-21.099	0.100
163.100	-20.933	0.099
163.200	2.674	0.100
163.300	-21.329	0.100
163.400	-4.633	0.099
163.500	-7.105	0.100
163.600	-6.715	0.099
163.700	-9.035	0.100
163.800	-17.507	0.100
163.900	-20.606	0.100
164.000	-21.478	0.100
164.100	-24.848	0.100
164.200	-16.649	0.099
164.300	-7.202	0.099
164.400	-14.432	0.100
164.500	-19.685	0.100
164.600	-17.422	0.099
164.700	-3.031	0.100
164.800	-19.581	0.099
164.900	-19.116	0.100
165.000	-13.299	0.100
165.100	-16.072	0.100
165.200	-15.751	0.100
165.300	-9.433	0.100
165.400	-16.524	0.100
165.500	-13.572	0.100
165.600	-15.174	0.099
165.700	-24.574	0.100
165.800	-7.085	0.100
165.900	-14.391	0.100
166.000	-31.850	0.099
166.100	-7.687	0.100
166.200	-5.851	0.099
166.300	-10.534	0.099
166.400	-23.913	0.100
166.500	-11.178	0.100
166.600	-6.184	0.099
166.700	-20.032	0.100
166.800	-22.615	0.099
166.900	-17.042	0.100
167.000	-22.289	0.099
167.100	-32.652	0.100
167.200	-7.527	0.100
167.300	-28.274	0.099
167.400	-13.487	0.100
167.500	-18.766	0.099
167.600	-2.942	0.100
167.700	-22.307	0.100
167.800	-17.527	0.099
167.900	-14.444	0.099
168.000	-13.674	0.099
168.100	-14.542	0.099
168.200	-19.777	0.099
168.300	-16.494	0.099
168.400	-6.906	0.099
168.500	-28.863	0.099
168.600	-13.407	0.099
168.700	-10.816	0.099
168.800	3.124	0.099
168.900	-12.342	0.099
169.000	-16.001	0.100
169.100	-27.839	0.099
169.200	-34.375	0.099
169.300	-11.514	0.099
169.400	-8.603	0.100
169.500	-12.805	0.099
169.600	-15.380	0.099
169.700	-25.833	0.099
169.800	-12.595	0.099
169.900	-26.530	0.099
170.000	-13.414	0.099
170.100	-10.410	0.099
170.200	-17.925	0.099
170.300	-16.145	0.099
170.400	-5.702	0.099
170.500	-17.511	0.099
170.600	-19.902	0.099
170.700	-8.797	0.100
170.800	-5.295	0.099
170.900	-7.332	0.099
171.000	-19.985	0.099
171.100	-31.324	0.099
171.200	-9.964	0.099
171.300	-11.981	0.099
171.400	-12.589	0.100
171.500	-18.182	0.099
171.600	-12.168	0.099
171.700	-17.482	0.099
171.800	-24.246	0.099
171.900	-0.139	0.100
172.000	-14.347	0.100
172.100	-21.867	0.099
172.200	-26.352	0.099
172.300	-12.761	0.099
172.400	-8.463	0.099
172.500	-20.128	0.099
172.600	-19.027	0.099
172.700	-18.089	0.099
172.800	-7.203	0.099
172.900	-3.676	0.099
173.000	-26.428	0.099
173.100	-4.934	0.099
173.200	-7.165	0.099
173.300	-17.333	0.100
173.400	-11.295	0.099
173.500	-15.904	0.099
173.600	-23.119	0.099
173.700	-14.352	0.099
173.800	-14.496	0.100
173.900	2.934	0.100
174.000	0.697	0.100
174.100	-14.958	0.099
174.200	-19.084	0.099
174.300	-20.717	0.099
174.400	-6.365	0.099
174.500	-22.240	0.099
174.600	-8.935	0.100
174.700	-13.052	0.099
174.800	-1.693	0.099
174.900	-8.522	0.099
175.000	-11.431	0.100
175.100	-15.655	0.100
175.200	-17.496	0.099
175.300	-14.170	0.099
175.400	-7.867	0.099
175.500	-22.017	0.099
175.600	-27.940	0.100
175.700	-18.628	0.100
175.800	-18.882	0.099
175.900	-17.546	0.099
176.000	-6.934	0.099
176.100	-12.074	0.099
176.200	-19.427	0.099
176.300	-31.575	0.099
176.400	-5.185	0.099
176.500	-8.831	0.099
176.600	-25.274	0.099
176.700	-14.061	0.099
176.800	-5.844	0.099
176.900	-15.901	0.099
177.000	-18.312	0.099
177.100	-25.286	0.099
177.200	-10.844	0.100
177.300	-27.989	0.099
177.400	-13.202	0.099
177.500	-12.717	0.099
177.600	-17.001	0.099
177.700	-17.309	0.100
177.800	-4.098	0.099
177.900	-8.878	0.099
178.000	-5.773	0.099
178.100	-23.943	0.099
178.200	-8.962	0.099
178.300	-17.787	0.100
178.400	-7.021	0.099
178.500	-10.699	0.099
178.600	-12.069	0.099
178.700	-23.708	0.099
178.800	-21.925	0.099
178.900	-11.074	0.099
179.000	-14.000	0.100
179.100	-3.231	0.100
179.200	-11.896	0.099
179.300	-13.928	0.099
179.400	-7.110	0.099
179.500	-29.582	0.099
179.600	-30.849	0.099
179.700	-14.666	0.099
179.800	-18.342	0.099
179.900	-28.261	0.099
180.000	-0.569	0.099
180.100	1.113	0.100
180.200	4.043	0.100
180.300	-6.633	0.099
180.400	3.430	0.099
180.500	-13.492	0.100
180.600	-8.954	0.099
180.700	-8.110	0.099
180.800	0.207	0.099
180.900	8.481	0.099
181.000	-3.369	0.100
181.100	1.183	0.100
181.200	5.230	0.099
181.300	4.868	0.100
181.400	-2.300	0.099
181.500	-0.854	0.099
181.600	14.145	0.100
181.700	3.910	0.099
181.800	-1.225	0.100
181.900	2.821	0.099
182.000	8.472	0.099
182.100	18.352	0.100
182.200	22.980	0.099
182.300	20.529	0.099
182.400	8.776	0.100
182.500	6.789	0.099
182.600	5.044	0.099
182.700	13.979	0.100
182.800	21.867	0.100
182.900	23.437	0.099
183.000	7.618	0.099
183.100	19.008	0.099
183.200	1.549	0.099
183.300	-5.599	0.100
183.400	6.339	0.099
183.500	8.445	0.100
183.600	16.616	0.100
183.700	18.202	0.100
183.800	10.980	0.100
183.900	10.058	0.099
184.000	6.915	0.099
184.100	14.762	0.099
184.200	18.130	0.099
184.300	-8.042	0.099
184.400	6.409	0.099
184.500	5.908	0.099
184.600	21.698	0.099
184.700	11.307	0.100
184.800	5.256	0.099
184.900	18.467	0.099
185.000	11.576	0.099
185.100	6.615	0.100
185.200	14.801	0.100
185.300	-0.745	0.100
185.400	7.987	0.099
185.500	33.990	0.100
185.600	19.566	0.099
185.700	4.294	0.099
185.800	12.586	0.099
185.900	12.656	0.099
186.000	25.685	0.099
186.100	0.552	0.099
186.200	23.916	0.099
186.300	17.641	0.099
186.400	14.586	0.100
186.500	16.018	0.099
186.600	7.357	0.099
186.700	25.518	0.099
186.800	18.064	0.100
186.900	13.314	0.100
187.000	18.144	0.099
187.100	11.907	0.099
187.200	22.557	0.100
187.300	15.846	0.099
187.400	11.750	0.099
187.500	8.480	0.100
187.600	14.600	0.099
187.700	16.697	0.099
187.800	31.299	0.099
187.900	22.318	0.100
188.000	11.657	0.099
188.100	11.461	0.099
188.200	7.171	0.099
188.300	33.821	0.099
188.400	6.984	0.099
188.500	34.204	0.100
188.600	17.186	0.099
188.700	4.095	0.099
188.800	26.618	0.099
188.900	24.597	0.099
189.000	18.269	0.100
189.100	17.830	0.099
189.200	16.175	0.099
189.300	17.828	0.099
189.400	27.207	0.099
189.500	21.435	0.099
189.600	23.436	0.099
189.700	18.371	0.099
189.800	23.880	0.099
189.900	24.350	0.099
190.000	20.700	0.099
190.100	22.330	0.099
190.200	27.332	0.099
190.300	42.055	0.099
190.400	26.517	0.099
190.500	36.898	0.100
190.600	43.200	0.099
190.700	11.729	0.099
190.800	27.671	0.099
190.900	31.117	0.099
191.000	38.816	0.099
191.100	39.851	0.099
191.200	32.201	0.100
191.300	21.333	0.099
191.400	35.211	0.099
191.500	31.374	0.099
191.600	24.783	0.099
191.700	31.581	0.100
191.800	32.334	0.100
191.900	30.611	0.099
192.000	26.322	0.099
192.100	19.850	0.099
192.200	42.105	0.099
192.300	34.378	0.099
192.400	12.357	0.099
192.500	47.251	0.099
192.600	27.571	0.099
192.700	21.874	0.099
192.800	35.352	0.099
192.900	26.525	0.099
193.000	34.871	0.099
193.100	24.927	0.099
193.200	10.877	0.099
193.300	15.394	0.099
193.400	48.662	0.099
193.500	53.529	0.099
193.600	31.922	0.099
193.700	34.570	0.099
193.800	34.703	0.099
193.900	29.914	0.099
194.000	18.356	0.099
194.100	31.285	0.099
194.200	44.045	0.099
194.300	39.563	0.099
194.400	22.287	0.099
194.500	16.355	0.099
194.600	46.847	0.099
194.700	23.967	0.099
194.800	30.223	0.099
194.900	43.306	0.099
195.000	41.563	0.099
195.100	27.621	0.099
195.200	30.245	0.099
195.300	24.463	0.099
195.400	50.031	0.099
195.500	26.413	0.099
195.600	28.026	0.099
195.700	32.774	0.099
195.800	30.909	0.099
195.900	32.954	0.099
196.000	48.641	0.099
196.100	39.378	0.099
196.200	24.334	0.099
196.300	29.745	0.099
196.400	37.377	0.099
196.500	30.217	0.099
196.600	24.999	0.099
196.700	29.787	0.099
196.800	45.132	0.099
196.900	42.564	0.099
197.000	38.854	0.099
197.100	22.204	0.099
197.200	27.720	0.099
197.300	33.049	0.099
197.400	22.851	0.099
197.500	37.242	0.099
197.600	41.458	0.099
197.700	33.903	0.099
197.800	29.249	0.099
197.900	38.283	0.099
198.000	42.107	0.099
198.100	34.944	0.099
198.200	40.618	0.099
198.300	49.294	0.099
198.400	26.511	0.099
198.500	26.200	0.099
198.600	29.448	0.099
198.700	31.981	0.099
198.800	22.511	0.099
198.900	34.581	0.099
199.000	32.723	0.099
199.100	46.124	0.099
199.200	38.423	0.099
199.300	41.272	0.100
199.400	35.157	0.100
199.500	21.242	0.100
199.600	30.060	0.099
199.700	47.703	0.099
199.800	41.970	0.099
199.900	18.557	0.099
200.000	20.852	0.099
200.100	40.203	0.099
200.200	30.939	0.099
200.300	31.785	0.099
200.400	31.414	0.099
200.500	34.606	0.100
200.600	34.666	0.099
200.700	36.807	0.099
200.800	29.925	0.099
200.900	43.803	0.099
201.000	46.956	0.099
201.100	41.228	0.099
201.200	42.647	0.099
201.300	36.189	0.099
201.400	38.779	0.099
201.500	20.241	0.099
201.600	36.262	0.099
201.700	31.437	0.099
201.800	35.686	0.099
201.900	42.824	0.099
202.000	37.222	0.099
202.100	33.226	0.099
202.200	33.356	0.100
202.300	39.206	0.099
202.400	28.339	0.099
202.500	37.283	0.099
202.600	33.365	0.099
202.700	34.434	0.099
202.800	28.394	0.099
202.900	29.176	0.099
203.000	30.984	0.100
203.100	30.136	0.099
203.200	41.860	0.099
203.300	30.279	0.099
203.400	24.996	0.099
203.500	36.114	0.099
203.600	31.334	0.099
203.700	41.137	0.099
203.800	49.054	0.099
203.900	20.152	0.099
204.000	37.687	0.099
204.100	41.710	0.099
204.200	37.465	0.099
204.300	32.399	0.099
204.400	21.503	0.099
204.500	26.255	0.099
204.600	35.742	0.099
204.700	38.474	0.099
204.800	26.692	0.099
204.900	44.100	0.099
205.000	37.902	0.099
205.100	40.268	0.099
205.200	26.556	0.099
205.300	30.888	0.099
205.400	24.212	0.099
205.500	31.428	0.099
205.600	36.054	0.099
205.700	54.284	0.099
205.800	28.741	0.099
205.900	34.317	0.099
206.000	52.976	0.099
206.100	36.062	0.099
206.200	35.203	0.099
206.300	19.407	0.099
206.400	17.862	0.099
206.500	27.722	0.099
206.600	35.167	0.099
206.700	28.877	0.099
206.800	40.560	0.099
206.900	15.389	0.099
207.000	31.893	0.099
207.100	28.729	0.099
207.200	28.148	0.099
207.300	38.857	0.099
207.400	20.173	0.099
207.500	36.567	0.099
207.600	46.391	0.099
207.700	40.065	0.099
207.800	22.362	0.099
207.900	43.826	0.099
208.000	36.736	0.099
208.100	41.660	0.099
208.200	30.288	0.099
208.300	41.328	0.099
208.400	31.438	0.099
208.500	20.525	0.099
208.600	30.163	0.099
208.700	28.415	0.099
208.800	38.857	0.099
208.900	31.569	0.099
209.000	38.767	0.099
209.100	36.654	0.099
209.200	32.662	0.099
209.300	30.298	0.099
209.400	48.634	0.099
209.500	22.610	0.099
209.600	37.870	0.099
209.700	34.023	0.099
209.800	34.097	0.099
209.900	32.797	0.100
210.000	35.180	0.099
210.100	23.646	0.099
210.200	34.751	0.099
210.300	25.223	0.099
210.400	19.530	0.099
210.500	26.569	0.099
210.600	46.651	0.099
210.700	37.314	0.099
210.800	31.218	0.099
210.900	38.175	0.099
211.000	34.873	0.099
211.100	29.969	0.099
211.200	34.458	0.100
211.300	47.938	0.099
211.400	34.072	0.099
211.500	28.989	0.099
211.600	39.729	0.099
211.700	36.430	0.099
211.800	26.531	0.099
211.900	29.344	0.099
212.000	43.417	0.099
212.100	28.853	0.099
212.200	34.651	0.099
212.300	35.754	0.099
212.400	28.957	0.099
212.500	34.506	0.099
212.600	29.482	0.100
212.700	40.228	0.099
212.800	23.843	0.099
212.900	35.030	0.099
213.000	43.091	0.099
213.100	38.272	0.099
213.200	34.480	0.099
213.300	26.697	0.099
213.400	23.718	0.099
213.500	29.927	0.099
213.600	39.760	0.099
213.700	23.010	0.099
213.800	30.843	0.099
213.900	31.765	0.099
214.000	31.352	0.099
214.100	24.005	0.099
214.200	41.648	0.099
214.300	24.081	0.099
214.400	32.064	0.099
214.500	44.856	0.099
214.600	33.401	0.099
214.700	23.169	0.099
214.800	36.124	0.099
214.900	32.222	0.099
215.000	29.917	0.099
215.100	35.385	0.099
215.200	27.999	0.099
215.300	17.919	0.099
215.400	24.847	0.099
215.500	40.710	0.099
215.600	32.240	0.099
215.700	33.714	0.099
215.800	31.661	0.099
215.900	42.541	0.099
216.000	33.818	0.099
216.100	32.494	0.099
216.200	33.340	0.099
216.300	40.075	0.099
216.400	30.494	0.099
216.500	40.168	0.099
216.600	33.710	0.099
216.700	43.594	0.099
216.800	14.515	0.099
216.900	33.276	0.099
217.000	35.701	0.099
217.100	34.370	0.099
217.200	41.958	0.099
217.300	36.531	0.099
217.400	19.573	0.099
217.500	47.891	0.099
217.600	38.709	0.099
217.700	22.748	0.099
217.800	39.471	0.099
217.900	37.658	0.099
218.000	32.774	0.099
218.100	33.940	0.099
218.200	45.535	0.099
218.300	7.049	0.099
218.400	44.132	0.099
218.500	33.118	0.099
218.600	32.164	0.099
218.700	41.310	0.099
218.800	33.620	0.099
218.900	39.536	0.099
219.000	25.798	0.099
219.100	46.477	0.099
219.200	24.314	0.099
219.300	25.940	0.099
219.400	43.832	0.099
219.500	29.705	0.099
219.600	36.449	0.099
219.700	36.517	0.099
219.800	36.574	0.099
219.900	28.155	0.099
220.000	23.029	0.099
220.100	38.353	0.099
220.200	28.768	0.099
220.300	30.048	0.099
220.400	35.313	0.099
220.500	39.611	0.099
220.600	27.816	0.099
220.700	30.917	0.099
220.800	38.096	0.099
220.900	29.938	0.099
221.000	31.370	0.099
221.100	29.141	0.099
221.200	43.696	0.099
221.300	43.667	0.099
221.400	28.336	0.099
221.500	26.920	0.099
221.600	24.196	0.099
221.700	33.213	0.099
221.800	37.167	0.099
221.900	38.337	0.099
222.000	32.994	0.099
222.100	31.981	0.099
222.200	31.005	0.099
222.300	34.325	0.099
222.400	28.779	0.099
222.500	40.581	0.099
222.600	40.927	0.099
222.700	25.925	0.099
222.800	30.927	0.099
222.900	23.517	0.100
223.000	29.142	0.099
223.100	42.287	0.099
223.200	21.524	0.099
223.300	29.815	0.099
223.400	39.713	0.099
223.500	26.058	0.099
223.600	29.125	0.099
223.700	34.717	0.099
223.800	38.736	0.099
223.900	33.886	0.099
224.000	29.272	0.099
224.100	25.377	0.099
224.200	30.264	0.099
224.300	38.423	0.099
224.400	41.745	0.099
224.500	31.016	0.099
224.600	29.603	0.099
224.700	36.801	0.099
224.800	20.399	0.099
224.900	23.697	0.099
225.000	35.518	0.099
225.100	36.816	0.099
225.200	28.731	0.099
225.300	38.455	0.099
225.400	25.661	0.099
225.500	34.115	0.099
225.600	18.698	0.099
225.700	21.998	0.099
225.800	52.845	0.099
225.900	29.225	0.099
226.000	20.627	0.099
226.100	22.378	0.099
226.200	27.718	0.099
226.300	46.224	0.099
226.400	36.250	0.099
226.500	22.879	0.099
226.600	23.178	0.099
226.700	27.202	0.099
226.800	42.540	0.099
226.900	26.726	0.099
227.000	34.724	0.099
227.100	41.129	0.099
227.200	41.571	0.099
227.300	25.357	0.099
227.400	28.463	0.099
227.500	32.831	0.099
227.600	29.105	0.099
227.700	30.638	0.099
227.800	30.385	0.099
227.900	36.268	0.099
228.000	45.835	0.099
228.100	37.790	0.099
228.200	37.211	0.099
228.300	31.928	0.099
228.400	21.838	0.099
228.500	28.366	0.099
228.600	29.192	0.099
228.700	26.384	0.099
228.800	40.200	0.099
228.900	27.041	0.099
229.000	41.634	0.099
229.100	44.203	0.099
229.200	28.546	0.099
229.300	38.079	0.099
229.400	43.845	0.100
229.500	13.693	0.099
229.600	30.859	0.099
229.700	34.639	0.099
229.800	29.511	0.099
229.900	29.361	0.100
230.000	9.477	0.099
230.100	33.604	0.099
230.200	40.573	0.099
230.300	41.226	0.099
230.400	41.346	0.099
230.500	38.253	0.099
230.600	29.643	0.099
230.700	33.329	0.099
230.800	40.290	0.099
230.900	26.050	0.099
231.000	27.425	0.100
231.100	30.424	0.099
231.200	31.463	0.099
231.300	27.775	0.099
231.400	37.084	0.099
231.500	30.887	0.099
231.600	22.348	0.099
231.700	27.658	0.099
231.800	32.512	0.099
231.900	36.824	0.099
232.000	34.972	0.100
232.100	29.577	0.099
232.200	24.430	0.099
232.300	27.593	0.099
232.400	33.044	0.099
232.500	33.100	0.099
232.600	27.007	0.099
232.700	21.005	0.099
232.800	41.532	0.099
232.900	39.375	0.099
233.000	41.768	0.099
233.100	28.096	0.099
233.200	27.467	0.099
233.300	32.494	0.099
233.400	35.581	0.100
233.500	29.264	0.099
233.600	39.141	0.099
233.700	34.801	0.099
233.800	30.439	0.099
233.900	31.747	0.099
234.000	29.978	0.099
234.100	27.695	0.099
234.200	45.112	0.099
234.300	25.440	0.099
234.400	26.892	0.099
234.500	29.810	0.099
234.600	31.327	0.099
234.700	30.769	0.099
234.800	39.786	0.099
234.900	15.956	0.099
235.000	26.741	0.099
235.100	28.246	0.099
235.200	43.986	0.099
235.300	41.776	0.099
235.400	25.058	0.099
235.500	37.394	0.099
235.600	13.616	0.099
235.700	39.028	0.099
235.800	38.293	0.099
235.900	30.711	0.099
236.000	25.963	0.099
236.100	33.001	0.099
236.200	36.708	0.099
236.300	26.704	0.100
236.400	21.848	0.099
236.500	37.844	0.099
236.600	31.692	0.099
236.700	26.886	0.099
236.800	32.769	0.099
236.900	32.783	0.099
237.000	24.073	0.099
237.100	30.098	0.099
237.200	32.594	0.099
237.300	40.845	0.099
237.400	16.743	0.100
237.500	16.072	0.099
237.600	22.976	0.099
237.700	31.111	0.099
237.800	29.490	0.099
237.900	23.816	0.099
238.000	29.716	0.099
238.100	16.106	0.099
238.200	27.251	0.099
238.300	45.117	0.099
238.400	26.008	0.099
238.500	39.559	0.099
238.600	28.533	0.100
238.700	30.560	0.099
238.800	21.487	0.099
238.900	17.336	0.099
239.000	34.078	0.100
239.100	27.682	0.100
239.200	35.692	0.099
239.300	32.796	0.099
239.400	28.935	0.099
239.500	23.536	0.099
239.600	32.082	0.099
239.700	24.142	0.099
239.800	21.591	0.099
239.900	31.727	0.099
240.000	28.049	0.099
240.100	25.278	0.099
240.200	27.144	0.099
240.300	29.012	0.099
240.400	27.493	0.099
240.500	28.553	0.099
240.600	20.832	0.099
240.700	21.955	0.099
240.800	22.163	0.100
240.900	17.746	0.099
241.000	20.014	0.099
241.100	12.369	0.100
241.200	-1.108	0.099
241.300	15.202	0.099
241.400	19.681	0.099
241.500	-0.172	0.100
241.600	11.933	0.099
241.700	-0.225	0.100
241.800	3.578	0.099
241.900	11.737	0.099
242.000	-1.904	0.099
242.100	10.329	0.100
242.200	-6.688	0.099
242.300	1.527	0.099
242.400	3.283	0.099
242.500	16.158	0.099
242.600	-2.994	0.099
242.700	1.724	0.099
242.800	-2.612	0.100
242.900	-0.933	0.099
243.000	10.582	0.100
243.100	1.590	0.099
243.200	-4.033	0.099
243.300	4.818	0.099
243.400	-11.136	0.099
243.500	-2.475	0.099
243.600	3.824	0.099
243.700	-11.336	0.099
243.800	-5.076	0.099
243.900	0.812	0.099
244.000	-3.860	0.099
244.100	-5.194	0.099
244.200	-9.865	0.099
244.300	-3.278	0.099
244.400	-2.032	0.099
244.500	-5.469	0.099
244.600	-17.355	0.099
244.700	-0.461	0.099
244.800	-9.717	0.099
244.900	-9.844	0.099
245.000	-11.220	0.099
245.100	-1.382	0.099
245.200	-0.807	0.099
245.300	-5.427	0.099
245.400	-2.287	0.099
245.500	-0.843	0.099
245.600	-6.040	0.099
245.700	3.675	0.099
245.800	-11.751	0.100
245.900	-8.575	0.099
246.000	-13.340	0.099
246.100	-11.757	0.099
246.200	-0.406	0.099
246.300	-14.634	0.099
246.400	-7.426	0.099
246.500	-2.216	0.099
246.600	-11.629	0.099
246.700	-25.336	0.099
246.800	-21.325	0.099
246.900	-12.465	0.099
247.000	-8.316	0.099
247.100	-1.355	0.099
247.200	-8.072	0.099
247.300	-15.987	0.099
247.400	-5.816	0.099
247.500	-11.300	0.099
247.600	-0.469	0.099
247.700	-13.132	0.099
247.800	1.343	0.099
247.900	-15.383	0.099
248.000	0.926	0.099
248.100	-21.153	0.099
248.200	-3.254	0.099
248.300	-26.111	0.099
248.400	-14.799	0.099
248.500	-12.498	0.099
248.600	-28.003	0.099
248.700	-7.398	0.099
248.800	-8.596	0.099
248.900	-9.993	0.099
249.000	-14.959	0.099
249.100	-19.016	0.099
249.200	-7.438	0.100
249.300	-13.589	0.099
249.400	-8.666	0.099
249.500	-17.937	0.099
249.600	-15.491	0.099
249.700	-21.327	0.099
249.800	-10.860	0.099
249.900	-3.933	0.099
250.000	-12.848	0.099
250.100	3.430	0.099
250.200	-5.956	0.099
250.300	-26.676	0.099
250.400	-7.672	0.099
250.500	-17.606	0.099
250.600	-13.668	0.099
250.700	-18.297	0.099
250.800	-30.671	0.099
250.900	-13.276	0.099
251.000	-25.616	0.099
251.100	-16.420	0.099
251.200	-1.763	0.099
251.300	-11.683	0.099
251.400	-15.919	0.099
251.500	-11.773	0.099
251.600	-7.559	0.099
251.700	-18.766	0.099
251.800	-23.639	0.099
251.900	-8.675	0.099
252.000	-12.909	0.099
252.100	-14.497	0.099
252.200	-23.306	0.099
252.300	-30.912	0.099
252.400	-7.397	0.099
252.500	-14.459	0.099
252.600	-18.438	0.099
252.700	-13.384	0.099
252.800	-23.363	0.099
252.900	-19.355	0.099
253.000	-13.346	0.099
253.100	-14.494	0.099
253.200	-39.745	0.099
253.300	-10.230	0.099
253.400	-10.522	0.099
253.500	-20.697	0.099
253.600	-18.156	0.099
253.700	-24.603	0.099
253.800	-19.058	0.099
253.900	-13.499	0.099
254.000	-19.746	0.099
254.100	-22.347	0.099
254.200	-17.131	0.099
254.300	-24.653	0.099
254.400	-28.594	0.099
254.500	-18.629	0.099
254.600	-14.503	0.099
254.700	-17.491	0.099
254.800	-18.859	0.099
254.900	-15.685	0.099
255.000	-24.615	0.099
255.100	-8.441	0.099
255.200	-11.904	0.099
255.300	-18.203	0.099
255.400	-15.997	0.099
255.500	-18.919	0.099
255.600	-9.903	0.099
255.700	-21.763	0.099
255.800	-29.158	0.099
255.900	-20.632	0.099
256.000	-16.278	0.099
256.100	-18.652	0.099
256.200	-17.663	0.099
256.300	-18.929	0.099
256.400	-19.256	0.099
256.500	-14.538	0.099
256.600	-27.696	0.099
256.700	-15.464	0.099
256.800	-18.296	0.099
256.900	-20.165	0.099
257.000	-28.344	0.099
257.100	-17.888	0.099
257.200	-14.785	0.099
257.300	-12.763	0.099
257.400	-22.981	0.099
257.500	-20.128	0.099
257.600	-12.411	0.099
257.700	-29.413	0.099
257.800	-38.568	0.099
257.900	-27.804	0.099
258.000	-16.661	0.099
258.100	-21.501	0.099
258.200	-8.262	0.099
258.300	-16.608	0.099
258.400	-18.697	0.099
258.500	-19.855	0.099
258.600	-32.124	0.099
258.700	-17.592	0.099
258.800	-10.220	0.099
258.900	-19.358	0.099
259.000	-34.034	0.099
259.100	-7.689	0.099
259.200	-12.547	0.099
259.300	-19.104	0.099
259.400	-20.308	0.099
259.500	-28.540	0.099
259.600	-27.404	0.099
259.700	-13.720	0.099
259.800	-30.118	0.099
259.900	-15.043	0.099
260.000	-27.437	0.099
260.100	-15.301	0.099
260.200	-21.578	0.099
260.300	-11.160	0.099
260.400	-26.734	0.099
260.500	-34.088	0.099
260.600	-20.637	0.099
260.700	-16.580	0.099
260.800	-12.113	0.099
260.900	-25.774	0.099
261.000	-21.396	0.099
261.100	-16.007	0.099
261.200	-17.574	0.100
261.300	-24.406	0.099
261.400	-35.509	0.099
261.500	-33.801	0.100
261.600	-15.337	0.099
261.700	-16.016	0.099
261.800	-20.518	0.099
261.900	-20.922	0.099
262.000	-19.763	0.099
262.100	-22.943	0.099
262.200	-24.075	0.099
262.300	-19.934	0.099
262.400	-14.414	0.099
262.500	-24.454	0.099
262.600	-19.634	0.099
262.700	-32.405	0.099
262.800	-28.610	0.099
262.900	-15.588	0.099
263.000	-11.635	0.099
263.100	-16.119	0.099
263.200	-19.498	0.099
263.300	-24.332	0.099
263.400	-11.552	0.099
263.500	-25.473	0.099
263.600	-30.117	0.099
263.700	-33.023	0.099
263.800	-11.530	0.099
263.900	-13.840	0.099
264.000	-16.818	0.099
264.100	-12.693	0.099
264.200	-23.200	0.099
264.300	-16.773	0.099
264.400	-13.093	0.099
264.500	-29.589	0.099
264.600	-46.754	0.099
264.700	-30.453	0.099
264.800	-7.265	0.099
264.900	-7.616	0.099
265.000	-17.590	0.099
265.100	-23.632	0.099
265.200	-28.971	0.099
265.300	-24.148	0.099
265.400	-28.668	0.099
265.500	-18.189	0.099
265.600	-17.612	0.099
265.700	-24.217	0.099
265.800	-14.545	0.099
265.900	-27.178	0.099
266.000	-25.172	0.099
266.100	-20.108	0.099
266.200	-34.013	0.099
266.300	-18.111	0.099
266.400	-20.180	0.099
266.500	-4.393	0.100
266.600	-25.051	0.099
266.700	-25.327	0.099
266.800	-33.297	0.099
266.900	-28.446	0.099
267.000	-23.960	0.099
267.100	-19.537	0.099
267.200	-21.165	0.099
267.300	-27.277	0.099
267.400	-17.639	0.099
267.500	-11.605	0.099
267.600	-21.591	0.099
267.700	-21.430	0.099
267.800	-13.945	0.099
267.900	-28.637	0.099
268.000	-21.123	0.099
268.100	-27.523	0.099
268.200	-16.876	0.099
268.300	-35.417	0.099
268.400	-14.899	0.099
268.500	-9.056	0.100
268.600	-31.852	0.099
268.700	-27.176	0.099
268.800	-27.721	0.099
268.900	-38.282	0.099
269.000	-18.223	0.099
269.100	-32.580	0.099
269.200	-34.101	0.099
269.300	-23.590	0.099
269.400	-24.836	0.099
269.500	-19.857	0.099
269.600	-22.021	0.099
269.700	-17.816	0.099
269.800	-14.726	0.099
269.900	-32.043	0.099
270.000	-25.298	0.099
270.100	-5.425	0.099
270.200	-14.626	0.099
270.300	-24.738	0.099
270.400	-26.319	0.099
270.500	-30.371	0.099
270.600	-17.699	0.099
270.700	-22.639	0.099
270.800	-31.304	0.099
270.900	-24.307	0.099
271.000	-26.557	0.099
271.100	-12.324	0.099
271.200	-17.506	0.099
271.300	-24.387	0.099
271.400	-36.542	0.099
271.500	-28.670	0.099
271.600	-21.169	0.099
271.700	-22.289	0.099
271.800	-22.959	0.099
271.900	-28.678	0.099
272.000	-22.399	0.099
272.100	-17.950	0.099
272.200	-23.304	0.099
272.300	-29.483	0.099
272.400	-27.947	0.099
272.500	-20.934	0.099
272.600	-10.875	0.099
272.700	-30.151	0.099
272.800	-27.586	0.099
272.900	-12.662	0.099
273.000	-22.112	0.099
273.100	-11.618	0.099
273.200	-27.870	0.099
273.300	-30.539	0.099
273.400	-33.447	0.099
273.500	-20.597	0.099
273.600	-22.207	0.099
273.700	-30.857	0.099
273.800	-28.684	0.099
273.900	-16.510	0.099
274.000	-29.812	0.099
274.100	-15.489	0.099
274.200	-25.292	0.099
274.300	-19.890	0.099
274.400	-13.644	0.099
274.500	-28.802	0.099
274.600	-24.766	0.099
274.700	-22.728	0.099
274.800	-18.276	0.099
274.900	-38.510	0.099
275.000	-34.120	0.099
275.100	-20.606	0.099
275.200	-30.376	0.099
275.300	-20.326	0.099
275.400	-28.797	0.099
275.500	-17.522	0.099
275.600	-13.847	0.099
275.700	-16.018	0.099
275.800	-31.509	0.099
275.900	-11.861	0.099
276.000	-17.373	0.099
276.100	-27.440	0.099
276.200	-21.529	0.099
276.300	-42.481	0.099
276.400	-28.246	0.099
276.500	-20.799	0.099
276.600	-23.759	0.099
276.700	-32.641	0.099
276.800	-18.307	0.099
276.900	-23.097	0.099
277.000	-26.977	0.099
277.100	-24.885	0.099
277.200	-13.343	0.099
277.300	-24.160	0.099
277.400	-21.778	0.099
277.500	-14.466	0.099
277.600	-21.422	0.099
277.700	-23.265	0.099
277.800	-29.553	0.099
277.900	-21.985	0.099
278.000	-17.002	0.099
278.100	-24.442	0.099
278.200	-29.266	0.099
278.300	-37.319	0.099
278.400	-14.379	0.099
278.500	-21.713	0.099
278.600	-25.352	0.099
278.700	-23.757	0.099
278.800	-26.972	0.099
278.900	-28.631	0.099
279.000	-33.383	0.099
279.100	-25.234	0.099
279.200	-13.637	0.099
279.300	-21.610	0.099
279.400	-21.434	0.099
279.500	-19.114	0.099
279.600	-14.276	0.099
279.700	-26.931	0.099
279.800	-22.193	0.099
279.900	-25.558	0.099
280.000	-32.061	0.099
280.100	-29.433	0.099
280.200	-41.669	0.099
280.300	-30.320	0.099
280.400	-22.325	0.099
280.500	-26.137	0.099
280.600	-20.819	0.099
280.700	-17.947	0.099
280.800	-18.739	0.099
280.900	-18.647	0.099
281.000	-18.458	0.099
281.100	-36.030	0.099
281.200	-14.681	0.099
281.300	-29.857	0.099
281.400	-16.119	0.099
281.500	-32.775	0.099
281.600	-11.580	0.099
281.700	-28.093	0.099
281.800	-13.327	0.099
281.900	-18.132	0.099
282.000	-27.581	0.099
282.100	-24.058	0.099
282.200	-14.197	0.099
282.300	-14.255	0.099
282.400	-8.878	0.099
282.500	-34.118	0.099
282.600	-19.181	0.099
282.700	-23.270	0.099
282.800	-21.925	0.099
282.900	-15.097	0.099
283.000	-21.294	0.099
283.100	-27.676	0.099
283.200	-27.061	0.099
283.300	-30.888	0.099
283.400	-7.042	0.099
283.500	-22.648	0.099
283.600	-15.409	0.099
283.700	-14.946	0.099
283.800	-30.181	0.099
283.900	-24.633	0.099
284.000	-28.475	0.099
284.100	-19.793	0.099
284.200	-27.978	0.099
284.300	-6.549	0.099
284.400	-14.152	0.099
284.500	-26.586	0.099
284.600	-27.114	0.099
284.700	-20.932	0.099
284.800	-15.619	0.099
284.900	-31.412	0.099
285.000	-19.055	0.099
285.100	-22.446	0.099
285.200	-27.837	0.099
285.300	-34.371	0.099
285.400	-18.285	0.099
285.500	-28.878	0.099
285.600	-11.749	0.099
285.700	-18.067	0.099
285.800	-18.976	0.099
285.900	-28.082	0.099
286.000	-25.255	0.099
286.100	-9.387	0.099
286.200	-13.133	0.099
286.300	-27.755	0.099
286.400	-24.338	0.099
286.500	-18.040	0.099
286.600	-20.298	0.099
286.700	-27.879	0.099
286.800	-23.080	0.099
286.900	-23.815	0.099
287.000	-29.625	0.099
287.100	-31.282	0.099
287.200	-15.561	0.099
287.300	-17.041	0.099
287.400	-24.824	0.099
287.500	-27.283	0.099
287.600	-0.729	0.099
287.700	-20.685	0.099
287.800	-19.119	0.099
287.900	-28.355	0.099
288.000	-10.913	0.099
288.100	-23.499	0.099
288.200	-24.629	0.099
288.300	-21.267	0.099
288.400	-21.783	0.099
288.500	-15.841	0.099
288.600	-23.452	0.099
288.700	-20.398	0.099
288.800	-26.901	0.099
288.900	-31.184	0.099
289.000	-21.276	0.099
289.100	-21.436	0.099
289.200	-20.461	0.099
289.300	-19.418	0.099
289.400	-29.898	0.099
289.500	-28.014	0.099
289.600	-8.409	0.099
289.700	-18.022	0.099
289.800	-24.566	0.099
289.900	-22.692	0.099
290.000	-20.880	0.099
290.100	-15.741	0.099
290.200	-11.997	0.099
290.300	-23.699	0.099
290.400	-19.267	0.099
290.500	-14.566	0.099
290.600	-39.367	0.099
290.700	-26.768	0.099
290.800	-11.466	0.099
290.900	-19.340	0.099
291.000	-10.309	0.099
291.100	-22.450	0.099
291.200	-28.152	0.099
291.300	-15.755	0.099
291.400	-27.859	0.099
291.500	-17.894	0.099
291.600	-19.603	0.099
291.700	-27.959	0.099
291.800	-20.364	0.099
291.900	-26.110	0.099
292.000	-14.095	0.099
292.100	-16.639	0.099
292.200	-35.863	0.099
292.300	-14.989	0.099
292.400	-18.632	0.099
292.500	-28.408	0.099
292.600	-23.306	0.099
292.700	-24.401	0.099
292.800	-15.268	0.099
292.900	-20.660	0.099
293.000	-16.142	0.099
293.100	-20.781	0.099
293.200	-28.965	0.099
293.300	-15.849	0.099
293.400	-20.233	0.099
293.500	-28.531	0.099
293.600	-34.209	0.099
293.700	-13.231	0.099
293.800	-14.782	0.099
293.900	-12.093	0.099
294.000	-13.251	0.099
294.100	-26.193	0.099
294.200	-34.359	0.099
294.300	-19.532	0.099
294.400	-21.798	0.099
294.500	-14.620	0.099
294.600	-34.950	0.099
294.700	-26.985	0.099
294.800	-19.956	0.099
294.900	-18.343	0.099
295.000	-16.941	0.099
295.100	-23.666	0.099
295.200	-15.851	0.099
295.300	-23.018	0.099
295.400	-18.523	0.099
295.500	-33.180	0.099
295.600	-18.366	0.099
295.700	-18.304	0.099
295.800	5.258	0.099
295.900	-15.170	0.099
296.000	-10.138	0.099
296.100	-8.592	0.099
296.200	-28.111	0.099
296.300	-26.302	0.099
296.400	-35.524	0.099
296.500	-19.486	0.099
296.600	-14.723	0.099
296.700	-14.913	0.099
296.800	-21.880	0.099
296.900	-24.700	0.099
297.000	-23.056	0.099
297.100	-19.042	0.099
297.200	-21.407	0.099
297.300	-19.672	0.099
297.400	-17.729	0.099
297.500	-19.975	0.099
297.600	-15.883	0.099
297.700	-13.082	0.099
297.800	-26.949	0.099
297.900	-18.103	0.099
298.000	-30.504	0.099
298.100	-18.956	0.099
298.200	-33.535	0.099
298.300	-26.804	0.099
298.400	-10.470	0.099
298.500	-25.371	0.099
298.600	-15.086	0.099
298.700	-18.826	0.099
298.800	-25.082	0.099
298.900	-23.611	0.099
299.000	-18.771	0.099
299.100	-16.365	0.099
299.200	-20.598	0.099
299.300	-26.744	0.099
299.400	-21.603	0.099
299.500	-24.701	0.099
299.600	-17.275	0.099
299.700	-12.823	0.099
299.800	-17.540	0.099
299.900	-21.695	0.099
300.000	-34.253	0.099
300.100	-23.390	0.099
300.200	-19.212	0.099
300.300	-18.473	0.099
300.400	-18.106	0.099
300.500	-20.891	0.099
300.600	-25.105	0.099
300.700	-26.294	0.099
300.800	-30.648	0.099
300.900	-12.451	0.099
301.000	-16.412	0.099
301.100	-21.669	0.099
301.200	-24.642	0.099
301.300	-31.420	0.099
301.400	-17.891	0.099
301.500	-19.175	0.099
301.600	-14.050	0.099
301.700	-19.763	0.099
301.800	-23.466	0.099
301.900	-17.426	0.099
302.000	-14.476	0.099
302.100	-20.355	0.099
302.200	-20.996	0.099
302.300	-12.932	0.099
302.400	-14.191	0.099
302.500	-25.127	0.099
302.600	-23.167	0.099
302.700	-21.051	0.099
302.800	-36.127	0.099
302.900	-25.933	0.099
303.000	-14.432	0.099
303.100	-18.270	0.099
303.200	-15.775	0.099
303.300	-33.547	0.099
303.400	-36.214	0.099
303.500	-11.402	0.099
303.600	-12.377	0.099
303.700	-30.337	0.099
303.800	-22.152	0.099
303.900	-21.425	0.099
304.000	-22.695	0.099
304.100	-23.561	0.099
304.200	-26.985	0.099
304.300	-5.441	0.099
304.400	-16.983	0.099
304.500	-9.506	0.099
304.600	-33.774	0.099
304.700	-19.013	0.099
304.800	-15.362	0.099
304.900	-19.461	0.099
305.000	-28.524	0.099
305.100	-24.807	0.099
305.200	-17.086	0.099
305.300	-21.296	0.099
305.400	-20.383	0.099
305.500	-20.487	0.099
305.600	-12.154	0.099
305.700	-22.132	0.099
305.800	-30.629	0.099
305.900	-26.940	0.099
306.000	-22.480	0.099
306.100	-15.926	0.099
306.200	-35.221	0.099
306.300	-20.349	0.099
306.400	-14.915	0.099
306.500	-19.025	0.099
306.600	-16.861	0.099
306.700	-35.808	0.099
306.800	-16.969	0.099
306.900	-0.895	0.099
307.000	-3.620	0.099
307.100	-19.322	0.099
307.200	-17.499	0.099
307.300	-25.955	0.099
307.400	-15.502	0.099
307.500	-26.583	0.099
307.600	-11.584	0.099
307.700	-17.144	0.099
307.800	-21.431	0.099
307.900	-9.160	0.099
308.000	-22.432	0.099
308.100	-24.865	0.099
308.200	-12.877	0.099
308.300	-10.832	0.099
308.400	-34.542	0.099
308.500	-29.886	0.099
308.600	-17.226	0.099
308.700	-21.884	0.099
308.800	-16.775	0.099
308.900	-18.070	0.099
309.000	-26.120	0.099
309.100	-15.545	0.099
309.200	-21.332	0.099
309.300	-10.968	0.099
309.400	-21.004	0.099
309.500	-20.809	0.099
309.600	-24.413	0.099
309.700	-13.028	0.099
309.800	-15.856	0.099
309.900	-12.848	0.099
310.000	-12.570	0.099
310.100	-13.800	0.099
310.200	-39.665	0.099
310.300	-20.998	0.099
310.400	-18.177	0.099
310.500	-21.255	0.099
310.600	-17.760	0.099
310.700	-22.358	0.099
310.800	-18.107	0.099
310.900	-21.827	0.099
311.000	-3.446	0.099
311.100	-16.001	0.099
311.200	-11.546	0.099
311.300	-17.381	0.099
311.400	-24.986	0.099
311.500	-11.838	0.099
311.600	-24.840	0.099
311.700	-21.381	0.099
311.800	-22.078	0.099
311.900	-17.678	0.099
312.000	-16.207	0.099
312.100	-19.203	0.099
312.200	-36.044	0.099
312.300	-9.084	0.099
312.400	-8.762	0.099
312.500	-17.225	0.099
312.600	-27.926	0.099
312.700	-14.501	0.099
312.800	-27.624	0.099
312.900	-20.016	0.099
313.000	-20.082	0.099
313.100	-23.535	0.099
313.200	-21.363	0.099
313.300	-11.237	0.099
313.400	-8.677	0.099
313.500	-23.365	0.099
313.600	-12.864	0.099
313.700	-15.970	0.099
313.800	-12.577	0.099
313.900	-18.607	0.099
314.000	-14.691	0.099
314.100	-21.877	0.099
314.200	-22.208	0.099
314.300	-12.428	0.099
314.400	-19.521	0.099
314.500	-15.420	0.099
314.600	-27.493	0.099
314.700	-28.388	0.099
314.800	-11.484	0.099
314.900	-13.862	0.099
315.000	-25.236	0.099
315.100	-16.775	0.099
315.200	-18.450	0.099
315.300	-18.096	0.099
315.400	-24.925	0.099
315.500	-22.743	0.099
315.600	-17.066	0.099
315.700	-31.429	0.099
315.800	-28.543	0.099
315.900	-7.907	0.099
316.000	-15.713	0.099
316.100	-8.633	0.099
316.200	-15.666	0.099
316.300	-9.280	0.099
316.400	-11.031	0.099
316.500	-16.418	0.099
316.600	-21.762	0.099
316.700	-21.596	0.099
316.800	-16.225	0.099
316.900	-13.000	0.099
317.000	-25.417	0.099
317.100	-8.182	0.099
317.200	-6.245	0.099
317.300	-24.973	0.099
317.400	-20.698	0.099
317.500	-19.913	0.099
317.600	-20.766	0.099
317.700	-22.493	0.099
317.800	-10.618	0.099
317.900	-11.914	0.099
318.000	-28.997	0.099
318.100	-32.439	0.099
318.200	-23.235	0.099
318.300	-31.770	0.099
318.400	-25.484	0.099
318.500	-20.536	0.099
318.600	-8.212	0.099
318.700	-13.321	0.099
318.800	-28.520	0.099
318.900	-19.599	0.099
319.000	-12.615	0.099
319.100	-12.355	0.099
319.200	-2.932	0.099
319.300	-12.419	0.099
319.400	-6.767	0.099
319.500	-17.808	0.099
319.600	-27.941	0.099
319.700	-28.570	0.099
319.800	-16.464	0.099
319.900	-11.346	0.099
320.000	-9.928	0.099
320.100	-17.631	0.099
320.200	-22.997	0.099
320.300	-7.075	0.099
320.400	-19.625	0.099
320.500	-23.542	0.099
320.600	-25.242	0.099
320.700	-8.574	0.099
320.800	-15.010	0.099
320.900	-16.874	0.099
321.000	-10.205	0.099
321.100	-22.626	0.099
321.200	-27.842	0.099
321.300	-23.244	0.099
321.400	-18.751	0.099
321.500	-30.383	0.099
321.600	-11.472	0.099
321.700	-22.529	0.099
321.800	-13.199	0.099
321.900	-14.844	0.099
322.000	-20.933	0.099
322.100	-8.336	0.099
322.200	-26.379	0.099
322.300	-12.079	0.099
322.400	-15.957	0.099
322.500	-22.377	0.099
322.600	-20.259	0.099
322.700	-13.067	0.099
322.800	-14.084	0.099
322.900	-10.654	0.099
323.000	-21.073	0.099
323.100	-13.870	0.099
323.200	-11.835	0.099
323.300	-17.473	0.099
323.400	-30.407	0.099
323.500	-14.204	0.099
323.600	-12.999	0.099
323.700	-25.085	0.099
323.800	-9.909	0.099
323.900	-17.231	0.099
324.000	-11.577	0.099
324.100	-25.810	0.099
324.200	-22.804	0.099
324.300	-33.125	0.099
324.400	-24.861	0.099
324.500	-18.631	0.099
324.600	-16.775	0.099
324.700	-10.825	0.099
324.800	-12.425	0.099
324.900	-3.614	0.099
325.000	-20.639	0.099
325.100	-16.167	0.099
325.200	-19.930	0.099
325.300	-13.736	0.099
325.400	-8.245	0.099
325.500	-11.579	0.099
325.600	-4.572	0.099
325.700	-14.520	0.099
325.800	-24.772	0.099
325.900	-18.586	0.099
326.000	-33.923	0.099
326.100	-3.475	0.099
326.200	-30.230	0.099
326.300	-22.472	0.099
326.400	-12.770	0.100
326.500	-10.652	0.099
326.600	-6.619	0.099
326.700	-15.661	0.099
326.800	-9.855	0.099
326.900	-18.046	0.099
327.000	-16.176	0.099
327.100	-18.699	0.099
327.200	-11.068	0.099
327.300	-7.159	0.099
327.400	-20.999	0.099
327.500	-19.708	0.099
327.600	-22.592	0.099
327.700	-9.070	0.099
327.800	-21.234	0.099
327.900	-17.011	0.099
328.000	-4.566	0.100
328.100	-16.663	0.099
328.200	-18.575	0.099
328.300	-20.639	0.099
328.400	-23.057	0.099
328.500	-39.088	0.099
328.600	-22.098	0.099
328.700	-15.738	0.099
328.800	-17.804	0.099
328.900	-25.387	0.099
329.000	-12.902	0.099
329.100	-22.468	0.099
329.200	-23.333	0.099
329.300	-19.255	0.099
329.400	-19.434	0.099
329.500	-10.399	0.099
329.600	-18.018	0.099
329.700	-19.784	0.099
329.800	-20.463	0.099
329.900	0.454	0.099
330.000	-21.086	0.099
330.100	-11.976	0.099
330.200	-4.626	0.099
330.300	-8.641	0.099
330.400	-16.644	0.099
330.500	-13.641	0.099
330.600	-3.951	0.099
330.700	-3.058	0.099
330.800	2.101	0.099
330.900	-1.909	0.099
331.000	20.565	0.099
331.100	-0.185	0.099
331.200	1.457	0.099
331.300	10.226	0.099
331.400	0.561	0.099
331.500	12.746	0.099
331.600	-2.750	0.099
331.700	0.378	0.099
331.800	2.009	0.099
331.900	17.981	0.099
332.000	25.063	0.099
332.100	12.932	0.099
332.200	11.683	0.099
332.300	12.196	0.100
332.400	12.892	0.099
332.500	18.485	0.099
332.600	18.404	0.100
332.700	1.006	0.099
332.800	16.754	0.100
332.900	-4.106	0.099
333.000	4.144	0.099
333.100	13.463	0.100
333.200	19.329	0.099
333.300	21.496	0.099
333.400	20.709	0.099
333.500	4.752	0.099
333.600	-1.607	0.100
333.700	5.419	0.099
333.800	12.893	0.099
333.900	17.042	0.099
334.000	22.394	0.099
334.100	-8.407	0.099
334.200	5.691	0.099
334.300	9.350	0.100
334.400	11.205	0.099
334.500	-0.821	0.099
334.600	17.755	0.100
334.700	5.714	0.100
334.800	17.436	0.100
334.900	-0.825	0.099
335.000	22.341	0.099
335.100	20.311	0.099
335.200	9.520	0.099
335.300	5.957	0.099
335.400	-0.276	0.099
335.500	13.975	0.099
335.600	14.512	0.099
335.700	16.680	0.099
335.800	13.262	0.099
335.900	6.272	0.099
336.000	3.993	0.100
336.100	8.038	0.099
336.200	19.821	0.099
336.300	0.844	0.100
336.400	11.805	0.099
336.500	5.429	0.100
336.600	-2.212	0.099
336.700	15.358	0.099
336.800	17.208	0.100
336.900	6.817	0.100
337.000	19.662	0.100
337.100	10.983	0.100
337.200	15.083	0.100
337.300	14.786	0.100
337.400	7.015	0.100
337.500	15.621	0.100
337.600	13.588	0.100
337.700	17.108	0.100
337.800	13.659	0.100
337.900	10.010	0.099
338.000	22.530	0.099
338.100	21.809	0.100
338.200	14.479	0.099
338.300	25.669	0.099
338.400	-0.892	0.099
338.500	15.027	0.099
338.600	28.657	0.100
338.700	9.921	0.100
338.800	17.964	0.100
338.900	31.793	0.100
339.000	33.602	0.100
339.100	18.638	0.099
339.200	15.327	0.100
339.300	43.642	0.100
339.400	5.791	0.099
339.500	22.956	0.100
339.600	23.226	0.099
339.700	29.603	0.099
339.800	25.252	0.099
339.900	27.044	0.100
340.000	13.440	0.100
340.100	31.491	0.100
340.200	27.442	0.099
340.300	38.232	0.100
340.400	21.453	0.099
340.500	25.639	0.100
340.600	27.541	0.099
340.700	21.326	0.100
340.800	18.335	0.099
340.900	39.850	0.099
341.000	33.697	0.100
341.100	34.884	0.100
341.200	22.739	0.100
341.300	11.129	0.100
341.400	29.399	0.100
341.500	21.384	0.100
341.600	38.691	0.100
341.700	39.292	0.100
341.800	26.873	0.099
341.900	37.055	0.100
342.000	25.472	0.100
342.100	20.216	0.100
342.200	44.662	0.100
342.300	31.445	0.099
342.400	33.631	0.100
342.500	30.049	0.100
342.600	39.908	0.100
342.700	31.505	0.100
342.800	25.439	0.100
342.900	27.168	0.099
343.000	28.475	0.100
343.100	24.518	0.100
343.200	39.230	0.100
343.300	32.474	0.100
343.400	25.911	0.100
343.500	37.699	0.099
343.600	33.221	0.099
343.700	44.006	0.099
343.800	33.159	0.100
343.900	31.649	0.100
344.000	36.043	0.099
344.100	39.946	0.100
344.200	34.340	0.100
344.300	40.072	0.099
344.400	41.244	0.100
344.500	37.548	0.100
344.600	35.919	0.100
344.700	44.738	0.100
344.800	33.095	0.100
344.900	28.029	0.099
345.000	37.833	0.100
345.100	43.577	0.100
345.200	49.228	0.100
345.300	39.695	0.100
345.400	38.410	0.100
345.500	38.234	0.100
345.600	34.178	0.100
345.700	36.484	0.100
345.800	47.540	0.099
345.900	31.929	0.099
346.000	24.072	0.100
346.100	35.376	0.100
346.200	34.464	0.100
346.300	33.640	0.100
346.400	35.456	0.100
346.500	35.143	0.100
346.600	33.917	0.099
346.700	44.863	0.100
346.800	53.482	0.100
346.900	30.549	0.100
347.000	38.256	0.100
347.100	38.544	0.100
347.200	47.875	0.100
347.300	20.359	0.100
347.400	34.473	0.100
347.500	39.707	0.100
347.600	44.500	0.100
347.700	39.843	0.100
347.800	36.350	0.100
347.900	42.645	0.100
348.000	38.496	0.100
348.100	33.971	0.100
348.200	41.769	0.100
348.300	39.779	0.100
348.400	26.508	0.100
348.500	35.899	0.100
348.600	25.784	0.100
348.700	41.471	0.100
348.800	39.270	0.100
348.900	36.139	0.100
349.000	36.868	0.100
349.100	48.997	0.100
349.200	46.190	0.100
349.300	32.459	0.100
349.400	49.069	0.100
349.500	40.054	0.100
349.600	38.559	0.100
349.700	18.195	0.100
349.800	40.614	0.100
349.900	42.271	0.100
350.000	40.930	0.100
350.100	29.553	0.100
350.200	42.333	0.100
350.300	38.872	0.100
350.400	42.494	0.100
350.500	47.568	0.100
350.600	35.749	0.100
350.700	45.409	0.100
350.800	32.430	0.100
350.900	35.223	0.100
351.000	32.441	0.100
351.100	46.420	0.100
351.200	42.690	0.100
351.300	30.058	0.100
351.400	43.868	0.100
351.500	37.166	0.100
351.600	38.201	0.100
351.700	42.370	0.100
351.800	31.852	0.100
351.900	40.205	0.100
352.000	39.812	0.100
352.100	32.429	0.100
352.200	43.820	0.100
352.300	34.478	0.100
352.400	26.034	0.100
352.500	35.285	0.100
352.600	42.535	0.100
352.700	41.281	0.100
352.800	43.691	0.100
352.900	30.305	0.100
353.000	46.908	0.100
353.100	32.078	0.100
353.200	39.243	0.100
353.300	47.613	0.100
353.400	27.698	0.100
353.500	40.680	0.100
353.600	36.782	0.100
353.700	45.767	0.100
353.800	40.809	0.100
353.900	20.595	0.100
354.000	49.988	0.100
354.100	27.581	0.100
354.200	32.355	0.100
354.300	21.285	0.100
354.400	41.879	0.100
354.500	32.516	0.100
354.600	35.560	0.100
354.700	50.174	0.100
354.800	37.561	0.100
354.900	32.986	0.100
355.000	39.738	0.100
355.100	18.421	0.100
355.200	19.789	0.100
355.300	45.639	0.100
355.400	48.452	0.100
355.500	44.520	0.100
355.600	33.801	0.100
355.700	32.270	0.100
355.800	29.255	0.100
355.900	26.533	0.100
356.000	37.964	0.100
356.100	39.878	0.100
356.200	46.281	0.100
356.300	38.525	0.100
356.400	38.061	0.100
356.500	36.269	0.100
356.600	30.101	0.100
356.700	20.789	0.100
356.800	37.994	0.100
356.900	35.226	0.100
357.000	36.750	0.100
357.100	29.604	0.100
357.200	28.100	0.100
357.300	36.036	0.100
357.400	32.732	0.100
357.500	46.766	0.100
357.600	33.299	0.100
357.700	45.731	0.100
357.800	38.422	0.100
357.900	40.121	0.100
358.000	42.470	0.100
358.100	43.389	0.100
358.200	33.014	0.100
358.300	39.816	0.100
358.400	26.657	0.100
358.500	41.812	0.100
358.600	37.954	0.100
358.700	46.174	0.100
358.800	31.539	0.100
358.900	37.037	0.100
359.000	43.083	0.100
359.100	25.559	0.100
359.200	27.443	0.100
359.300	33.795	0.100
359.400	28.789	0.100
359.500	37.714	0.100
359.600	36.154	0.100
359.700	31.334	0.100
359.800	41.826	0.100
359.900	56.481	0.100
360.000	41.892	0.100
360.100	34.978	0.100
360.200	39.056	0.100
360.300	17.879	0.100
360.400	31.562	0.100
360.500	42.118	0.100
360.600	53.810	0.100
360.700	28.125	0.100
360.800	30.262	0.100
360.900	38.294	0.100
361.000	31.211	0.100
361.100	35.121	0.100
361.200	38.672	0.100
361.300	46.376	0.100
361.400	39.748	0.100
361.500	28.622	0.100
361.600	28.431	0.100
361.700	34.917	0.100
361.800	28.196	0.100
361.900	40.326	0.100
362.000	27.235	0.100
362.100	35.347	0.100
362.200	25.990	0.100
362.300	42.338	0.100
362.400	39.172	0.100
362.500	35.887	0.100
362.600	29.603	0.100
362.700	31.731	0.100
362.800	36.222	0.100
362.900	51.447	0.100
363.000	35.741	0.100
363.100	35.833	0.100
363.200	30.466	0.100
363.300	58.218	0.100
363.400	51.324	0.100
363.500	30.227	0.100
363.600	34.530	0.100
363.700	23.416	0.100
363.800	29.607	0.100
363.900	45.277	0.100
364.000	34.381	0.100
364.100	28.064	0.100
364.200	37.112	0.100
364.300	43.769	0.100
364.400	29.513	0.100
364.500	30.506	0.100
364.600	54.370	0.100
364.700	43.848	0.100
364.800	32.392	0.100
364.900	30.235	0.100
365.000	35.385	0.100
365.100	18.087	0.100
365.200	48.091	0.100
365.300	30.038	0.100
365.400	28.257	0.100
365.500	52.121	0.100
365.600	20.800	0.100
365.700	40.372	0.100
365.800	37.934	0.100
365.900	49.916	0.100
366.000	50.996	0.100
366.100	32.623	0.100
366.200	33.084	0.100
366.300	34.528	0.100
366.400	26.568	0.100
366.500	37.812	0.100
366.600	40.894	0.100
366.700	32.357	0.100
366.800	37.065	0.100
366.900	56.687	0.100
367.000	38.978	0.100
367.100	36.038	0.100
367.200	36.027	0.100
367.300	36.543	0.100
367.400	30.090	0.100
367.500	29.973	0.100
367.600	22.648	0.100
367.700	46.138	0.100
367.800	28.866	0.100
367.900	33.924	0.100
368.000	29.710	0.100
368.100	49.211	0.100
368.200	25.555	0.100
368.300	23.488	0.100
368.400	21.429	0.100
368.500	42.390	0.100
368.600	35.986	0.100
368.700	38.877	0.100
368.800	33.639	0.100
368.900	35.607	0.100
369.000	36.054	0.100
369.100	33.946	0.100
369.200	31.752	0.100
369.300	38.011	0.100
369.400	39.455	0.100
369.500	31.657	0.100
369.600	24.461	0.100
369.700	38.147	0.100
369.800	35.511	0.100
369.900	38.616	0.100
370.000	35.299	0.100
370.100	37.525	0.100
370.200	46.200	0.100
370.300	27.919	0.100
370.400	35.387	0.100
370.500	45.851	0.100
370.600	38.862	0.100
370.700	22.487	0.100
370.800	32.588	0.100
370.900	26.988	0.100
371.000	39.161	0.100
371.100	28.121	0.100
371.200	28.643	0.100
371.300	31.617	0.100
371.400	47.386	0.100
371.500	27.735	0.100
371.600	38.569	0.100
371.700	32.030	0.100
371.800	31.949	0.100
371.900	39.347	0.100
372.000	19.851	0.100
372.100	43.442	0.100
372.200	33.224	0.100
372.300	22.010	0.100
372.400	39.294	0.100
372.500	48.105	0.100
372.600	39.117	0.100
372.700	24.724	0.100
372.800	34.962	0.100
372.900	32.540	0.100
373.000	37.418	0.100
373.100	36.962	0.100
373.200	26.749	0.100
373.300	26.454	0.100
373.400	25.529	0.100
373.500	34.572	0.100
373.600	43.893	0.100
373.700	45.529	0.100
373.800	37.634	0.100
373.900	43.813	0.100
374.000	34.355	0.100
374.100	34.543	0.100
374.200	27.010	0.100
374.300	29.543	0.100
374.400	28.004	0.100
374.500	43.386	0.100
374.600	30.959	0.100
374.700	27.368	0.100
374.800	44.037	0.100
374.900	36.853	0.100
375.000	28.541	0.100
375.100	30.343	0.100
375.200	40.781	0.100
375.300	22.158	0.100
375.400	39.958	0.100
375.500	24.409	0.100
375.600	43.854	0.100
375.700	26.682	0.100
375.800	36.962	0.100
375.900	26.047	0.100
376.000	49.462	0.100
376.100	45.426	0.100
376.200	30.448	0.100
376.300	27.947	0.100
376.400	31.682	0.100
376.500	23.292	0.100
376.600	46.887	0.100
376.700	29.497	0.100
376.800	23.125	0.100
376.900	34.345	0.100
377.000	39.850	0.100
377.100	29.430	0.100
377.200	34.950	0.100
377.300	37.938	0.100
377.400	26.934	0.100
377.500	31.986	0.100
377.600	31.317	0.100
377.700	30.375	0.100
377.800	19.598	0.100
377.900	33.668	0.100
378.000	36.099	0.100
378.100	32.735	0.100
378.200	33.117	0.100
378.300	41.274	0.100
378.400	33.769	0.100
378.500	23.630	0.100
378.600	28.455	0.100
378.700	34.938	0.100
378.800	30.437	0.100
378.900	33.301	0.100
379.000	29.297	0.100
379.100	41.708	0.100
379.200	25.086	0.100
379.300	24.719	0.100
379.400	35.427	0.100
379.500	25.686	0.100
379.600	31.938	0.100
379.700	32.310	0.100
379.800	23.810	0.100
379.900	30.165	0.100
380.000	37.748	0.100
380.100	27.150	0.100
380.200	44.215	0.100
380.300	31.529	0.100
380.400	41.255	0.100
380.500	27.944	0.100
380.600	38.908	0.100
380.700	29.342	0.100
380.800	33.777	0.100
380.900	34.071	0.100
381.000	37.291	0.100
381.100	23.048	0.100
381.200	44.613	0.100
381.300	31.945	0.100
381.400	32.270	0.100
381.500	34.228	0.100
381.600	32.547	0.100
381.700	38.473	0.100
381.800	28.213	0.100
381.900	26.599	0.100
382.000	30.075	0.100
382.100	23.018	0.100
382.200	34.302	0.100
382.300	31.577	0.100
382.400	32.453	0.100
382.500	27.932	0.100
382.600	32.633	0.100
382.700	39.421	0.100
382.800	19.056	0.100
382.900	16.414	0.100
383.000	47.032	0.100
383.100	17.405	0.100
383.200	34.816	0.100
383.300	46.489	0.100
383.400	39.638	0.100
383.500	24.656	0.100
383.600	35.295	0.100
383.700	31.256	0.100
383.800	34.393	0.100
383.900	24.896	0.100
384.000	28.949	0.100
384.100	38.662	0.100
384.200	21.768	0.100
384.300	33.338	0.100
384.400	31.782	0.100
384.500	21.917	0.100
384.600	34.796	0.100
384.700	37.758	0.100
384.800	32.448	0.100
384.900	20.918	0.100
385.000	21.004	0.100
385.100	33.932	0.100
385.200	31.453	0.100
385.300	28.823	0.100
385.400	51.540	0.100
385.500	27.413	0.100
385.600	33.069	0.100
385.700	23.889	0.100
385.800	28.465	0.100
385.900	17.764	0.100
386.000	43.616	0.100
386.100	35.838	0.100
386.200	29.054	0.100
386.300	39.164	0.100
386.400	31.231	0.100
386.500	35.880	0.100
386.600	27.798	0.100
386.700	27.393	0.100
386.800	26.637	0.100
386.900	32.274	0.100
387.000	35.606	0.100
387.100	34.678	0.100
387.200	28.960	0.100
387.300	47.903	0.100
387.400	38.611	0.100
387.500	25.554	0.100
387.600	28.758	0.100
387.700	25.093	0.100
387.800	34.719	0.100
387.900	40.966	0.100
388.000	38.327	0.100
388.100	30.107	0.100
388.200	25.422	0.100
388.300	31.367	0.100
388.400	27.981	0.100
388.500	29.220	0.100
388.600	22.746	0.100
388.700	30.787	0.100
388.800	32.442	0.100
388.900	20.237	0.100
389.000	16.460	0.100
389.100	23.811	0.100
389.200	32.565	0.100
389.300	40.566	0.100
389.400	24.557	0.100
389.500	31.865	0.100
389.600	19.193	0.100
389.700	22.167	0.100
389.800	26.729	0.100
389.900	38.248	0.100
390.000	20.791	0.100
390.100	18.573	0.100
390.200	35.167	0.100
390.300	30.993	0.100
390.400	36.372	0.100
390.500	21.439	0.100
390.600	18.181	0.100
390.700	12.176	0.100
390.800	12.641	0.100
390.900	8.572	0.100
391.000	7.776	0.100
391.100	11.076	0.100
391.200	0.068	0.100
391.300	7.688	0.100
391.400	16.859	0.100
391.500	16.816	0.100
391.600	7.134	0.100
391.700	6.587	0.100
391.800	11.102	0.100
391.900	11.237	0.100
392.000	0.635	0.100
392.100	7.083	0.100
392.200	-2.127	0.100
392.300	-3.552	0.100
392.400	1.054	0.100
392.500	5.959	0.100
392.600	-8.724	0.100
392.700	4.435	0.100
392.800	-12.426	0.100
392.900	-9.508	0.100
393.000	-3.414	0.100
393.100	4.682	0.100
393.200	-19.090	0.100
393.300	-0.317	0.099
393.400	0.371	0.100
393.500	-6.068	0.100
393.600	5.017	0.100
393.700	2.939	0.100
393.800	-23.884	0.100
393.900	-11.480	0.100
394.000	-16.466	0.099
394.100	-1.269	0.100
394.200	-3.933	0.100
394.300	-3.553	0.100
394.400	-13.295	0.100
394.500	-16.540	0.100
394.600	-6.300	0.100
394.700	-7.558	0.100
394.800	-4.228	0.100
394.900	-11.909	0.100
395.000	5.833	0.100
395.100	-9.191	0.100
395.200	-22.090	0.100
395.300	-4.993	0.100
395.400	5.610	0.100
395.500	-8.367	0.100
395.600	-5.667	0.100
395.700	-2.547	0.099
395.800	-24.822	0.100
395.900	-3.811	0.100
396.000	-12.075	0.100
396.100	-5.337	0.100
396.200	3.052	0.100
396.300	-8.978	0.100
396.400	-12.925	0.100
396.500	-24.131	0.099
396.600	-14.735	0.100
396.700	-24.140	0.099
396.800	-7.051	0.100
396.900	-2.923	0.099
397.000	-22.084	0.099
397.100	-11.201	0.099
397.200	-13.318	0.099
397.300	-13.601	0.099
397.400	-19.657	0.099
397.500	-7.225	0.099
397.600	-8.782	0.099
397.700	-24.824	0.099
397.800	-13.700	0.099
397.900	-5.021	0.099
398.000	-22.562	0.099
398.100	-10.369	0.099
398.200	-24.606	0.099
398.300	1.676	0.099
398.400	-17.008	0.099
398.500	-11.801	0.099
398.600	-14.618	0.099
398.700	-1.270	0.099
398.800	-5.544	0.099
398.900	-18.560	0.099
399.000	-20.215	0.099
399.100	-21.579	0.099
399.200	-22.564	0.099
399.300	-23.060	0.099
399.400	-0.841	0.099
399.500	-14.007	0.099
399.600	-29.947	0.099
399.700	-11.074	0.099
399.800	-6.371	0.099
399.900	-24.950	0.099
400.000	-9.597	0.099
400.100	-22.409	0.099
400.200	-15.957	0.099
400.300	-9.742	0.099
400.400	-8.597	0.099
400.500	-17.522	0.099
400.600	-15.896	0.099
400.700	-3.665	0.099
400.800	-13.593	0.099
400.900	-32.630	0.099
401.000	-18.580	0.099
401.100	-24.802	0.099
401.200	-32.637	0.099
401.300	-29.937	0.099
401.400	-21.626	0.099
401.500	-22.118	0.099
401.600	-20.883	0.099
401.700	-11.227	0.099
401.800	-21.184	0.099
401.900	-11.101	0.099
402.000	-21.217	0.099
402.100	-35.991	0.099
402.200	-16.300	0.099
402.300	-18.623	0.099
402.400	-22.660	0.099
402.500	-16.643	0.099
402.600	-27.242	0.099
402.700	-5.137	0.099
402.800	-18.116	0.099
402.900	-19.351	0.099
403.000	-17.647	0.099
403.100	-12.596	0.099
403.200	-24.315	0.099
403.300	-14.243	0.099
403.400	-25.074	0.099
403.500	-24.626	0.099
403.600	-29.782	0.099
403.700	-25.847	0.099
403.800	-11.979	0.099
403.900	-16.328	0.099
404.000	-16.993	0.099
404.100	-24.059	0.099
404.200	-23.388	0.099
404.300	-27.425	0.099
404.400	-30.747	0.099
404.500	-12.192	0.099
404.600	-22.316	0.099
404.700	-18.858	0.099
404.800	-18.988	0.099
404.900	-29.587	0.099
405.000	-18.054	0.099
405.100	-27.895	0.099
405.200	-19.126	0.099
405.300	-26.434	0.099
405.400	-31.499	0.099
405.500	-16.059	0.099
405.600	-25.457	0.099
405.700	-14.809	0.099
405.800	-16.480	0.099
405.900	-16.129	0.099
406.000	-14.626	0.099
406.100	-21.127	0.099
406.200	-24.009	0.099
406.300	-17.295	0.099
406.400	-18.408	0.099
406.500	-22.824	0.099
406.600	-19.034	0.099
406.700	-12.787	0.099
406.800	-21.897	0.099
406.900	-29.829	0.099
407.000	-16.813	0.099
407.100	-22.097	0.099
407.200	-20.217	0.099
407.300	-17.538	0.099
407.400	-22.915	0.099
407.500	-25.048	0.099
407.600	-31.757	0.099
407.700	-25.092	0.099
407.800	-8.180	0.099
407.900	-21.424	0.099
408.000	-26.315	0.099
408.100	-18.417	0.099
408.200	-30.093	0.099
408.300	-37.099	0.099
408.400	-22.091	0.099
408.500	-25.328	0.099
408.600	-32.067	0.099
408.700	-30.126	0.099
408.800	-24.290	0.099
408.900	-30.043	0.099
409.000	-28.113	0.099
409.100	-25.379	0.099
409.200	-16.465	0.099
409.300	-15.914	0.099
409.400	-15.139	0.099
409.500	-15.786	0.099
409.600	-33.076	0.099
409.700	-39.594	0.099
409.800	-31.683	0.099
409.900	-19.936	0.099
410.000	-33.359	0.099
410.100	-12.548	0.099
410.200	-21.062	0.099
410.300	-15.748	0.099
410.400	-26.280	0.099
410.500	-31.373	0.099
410.600	-16.283	0.099
410.700	-16.872	0.099
410.800	-13.309	0.099
410.900	-12.602	0.099
411.000	-24.814	0.099
411.100	-28.236	0.099
411.200	-6.546	0.099
411.300	-21.162	0.099
411.400	-19.435	0.099
411.500	-26.281	0.099
411.600	-16.746	0.099
411.700	-26.433	0.099
411.800	-20.657	0.099
411.900	-32.936	0.099
412.000	-27.092	0.099
412.100	-20.054	0.099
412.200	-30.225	0.099
412.300	-27.263	0.099
412.400	-23.550	0.099
412.500	-24.332	0.099
412.600	-21.216	0.099
412.700	-23.731	0.099
412.800	-15.777	0.099
412.900	-32.786	0.099
413.000	-18.885	0.099
413.100	-28.878	0.099
413.200	-27.042	0.099
413.300	-16.599	0.099
413.400	-27.098	0.099
413.500	-16.787	0.099
413.600	-23.335	0.099
413.700	-37.562	0.099
413.800	-23.470	0.099
413.900	-20.912	0.099
414.000	-16.136	0.099
414.100	-28.791	0.099
414.200	-22.737	0.099
414.300	-26.683	0.099
414.400	-29.754	0.099
414.500	-41.556	0.099
414.600	-28.506	0.099
414.700	-28.382	0.099
414.800	-32.728	0.099
414.900	-14.997	0.099
415.000	-20.714	0.099
415.100	-25.008	0.099
415.200	-26.044	0.099
415.300	-26.624	0.099
415.400	-20.762	0.099
415.500	-16.906	0.099
415.600	-32.078	0.099
415.700	-16.949	0.099
415.800	-11.307	0.099
415.900	-13.284	0.099
416.000	-26.983	0.099
416.100	-20.203	0.099
416.200	-24.350	0.099
416.300	-26.228	0.099
416.400	-9.543	0.099
416.500	-32.263	0.099
416.600	-40.204	0.099
416.700	-39.129	0.099
416.800	-33.603	0.099
416.900	-30.391	0.099
417.000	-21.712	0.099
417.100	-24.161	0.099
417.200	-18.996	0.099
417.300	-24.870	0.099
417.400	-34.996	0.099
417.500	-24.239	0.099
417.600	-22.990	0.099
417.700	-24.499	0.099
417.800	-30.334	0.099
417.900	-15.060	0.099
418.000	-14.958	0.099
418.100	-39.819	0.099
418.200	-18.753	0.099
418.300	-25.219	0.099
418.400	-28.863	0.099
418.500	-28.970	0.099
418.600	-35.227	0.099
418.700	-26.167	0.099
418.800	-25.396	0.099
418.900	-45.569	0.099
419.000	-30.087	0.099
419.100	-19.713	0.099
419.200	-32.754	0.099
419.300	-19.412	0.099
419.400	-15.209	0.099
419.500	-12.967	0.099
419.600	-26.573	0.099
419.700	-19.533	0.099
419.800	-31.848	0.099
419.900	-31.202	0.099
420.000	-19.415	0.099
420.100	-31.010	0.099
420.200	-32.650	0.099
420.300	-25.917	0.099
420.400	-32.035	0.099
420.500	-21.563	0.099
420.600	-25.939	0.099
420.700	-28.846	0.099
420.800	-16.582	0.099
420.900	-17.200	0.099
421.000	-15.247	0.099
421.100	-23.839	0.099
421.200	-29.643	0.099
421.300	-34.729	0.099
421.400	-35.619	0.099
421.500	-22.437	0.099
421.600	-30.775	0.099
421.700	-33.937	0.099
421.800	-9.394	0.099
421.900	-26.494	0.099
422.000	-15.024	0.099
422.100	-26.766	0.099
422.200	-36.954	0.099
422.300	-21.505	0.099
422.400	-16.684	0.099
422.500	-28.829	0.099
422.600	-34.484	0.099
422.700	-19.116	0.099
422.800	-22.346	0.099
422.900	-13.969	0.099
423.000	-24.151	0.099
423.100	-19.022	0.099
423.200	-26.892	0.099
423.300	-33.898	0.099
423.400	-35.993	0.099
423.500	-27.446	0.099
423.600	-20.131	0.099
423.700	-31.304	0.099
423.800	-33.241	0.099
423.900	-32.906	0.099
424.000	-9.910	0.099
424.100	-15.937	0.099
424.200	-31.833	0.099
424.300	-34.856	0.099
424.400	-18.644	0.099
424.500	-11.579	0.099
424.600	-14.425	0.099
424.700	-21.784	0.099
424.800	-22.258	0.099
424.900	-41.123	0.099
425.000	-26.369	0.099
425.100	-27.158	0.099
425.200	-25.272	0.099
425.300	-22.531	0.099
425.400	-28.685	0.099
425.500	-21.552	0.099
425.600	-25.039	0.099
425.700	-29.978	0.099
425.800	-25.986	0.099
425.900	-17.821	0.099
426.000	-28.903	0.099
426.100	-22.959	0.099
426.200	-30.391	0.099
426.300	-36.348	0.099
426.400	-23.493	0.099
426.500	-14.589	0.099
426.600	-28.926	0.099
426.700	-25.841	0.099
426.800	-12.780	0.099
426.900	-27.795	0.099
427.000	-32.756	0.099
427.100	-31.033	0.099
427.200	-27.681	0.099
427.300	-25.916	0.099
427.400	-16.950	0.099
427.500	-23.870	0.100
427.600	-22.441	0.099
427.700	-22.475	0.099
427.800	-27.628	0.099
427.900	-24.062	0.099
428.000	-32.364	0.099
428.100	-28.944	0.100
428.200	-25.693	0.099
428.300	-16.685	0.099
428.400	-21.752	0.099
428.500	-25.660	0.099
428.600	-23.312	0.099
428.700	-24.661	0.099
428.800	-18.982	0.099
428.900	-25.336	0.099
429.000	-40.420	0.099
429.100	-12.574	0.099
429.200	-21.499	0.099
429.300	-35.359	0.099
429.400	-32.584	0.099
429.500	-32.843	0.099
429.600	-16.743	0.099
429.700	-20.446	0.099
429.800	-15.786	0.099
429.900	-8.184	0.099
430.000	-25.985	0.099
430.100	-17.974	0.099
430.200	-25.322	0.099
430.300	-27.743	0.099
430.400	-24.560	0.099
430.500	-32.992	0.099
430.600	-25.222	0.099
430.700	-28.518	0.099
430.800	-16.108	0.099
430.900	-24.477	0.099
431.000	-27.925	0.099
431.100	-24.222	0.099
431.200	-25.657	0.099
431.300	-22.345	0.099
431.400	-32.104	0.099
431.500	-20.476	0.100
431.600	-22.497	0.099
431.700	-14.772	0.099
431.800	-18.343	0.099
431.900	-16.673	0.100
432.000	-39.957	0.099
432.100	-29.708	0.099
432.200	-31.724	0.099
432.300	-7.131	0.099
432.400	-28.554	0.099
432.500	-18.862	0.099
432.600	-20.616	0.099
432.700	-20.542	0.099
432.800	-33.880	0.099
432.900	-19.244	0.099
433.000	-25.866	0.099
433.100	-33.700	0.100
433.200	-29.865	0.099
433.300	-14.987	0.099
433.400	-21.963	0.099
433.500	-27.266	0.099
433.600	-33.877	0.099
433.700	-20.920	0.099
433.800	-26.879	0.099
433.900	-23.681	0.099
434.000	-21.361	0.099
434.100	-22.873	0.099
434.200	-18.921	0.099
434.300	-11.665	0.099
434.400	-20.971	0.099
434.500	-18.198	0.099
434.600	-24.637	0.099
434.700	-24.359	0.099
434.800	-21.520	0.099
434.900	-26.362	0.099
435.000	-24.124	0.099
435.100	-27.355	0.099
435.200	-20.821	0.099
435.300	-19.379	0.099
435.400	-25.733	0.099
435.500	-21.357	0.099
435.600	-22.530	0.099
435.700	-15.569	0.099
435.800	-29.643	0.099
435.900	-28.330	0.099
436.000	-29.064	0.100
436.100	-13.681	0.099
436.200	-32.098	0.099
436.300	-54.024	0.099
436.400	-30.722	0.099
436.500	-12.142	0.099
436.600	-20.064	0.099
436.700	-14.990	0.099
436.800	-14.948	0.099
436.900	-23.774	0.099
437.000	-39.882	0.099
437.100	-16.914	0.099
437.200	-23.693	0.099
437.300	-14.158	0.099
437.400	-18.323	0.099
437.500	-20.557	0.099
437.600	-18.002	0.099
437.700	-28.300	0.099
437.800	-26.575	0.099
437.900	-9.129	0.099
438.000	-13.525	0.099
438.100	-27.358	0.099
438.200	-15.437	0.099
438.300	-15.854	0.099
438.400	-34.541	0.099
438.500	-31.796	0.099
438.600	-25.284	0.099
438.700	-15.854	0.099
438.800	-17.741	0.099
438.900	-36.366	0.099
439.000	-34.729	0.099
439.100	-27.010	0.099
439.200	-27.141	0.099
439.300	-13.507	0.099
439.400	-21.369	0.099
439.500	-24.110	0.099
439.600	-32.370	0.099
439.700	-26.209	0.099
439.800	-28.400	0.099
439.900	-17.037	0.099
440.000	-20.090	0.099
440.100	-14.480	0.099
440.200	-14.620	0.099
440.300	-26.015	0.099
440.400	-23.735	0.099
440.500	-9.951	0.099
440.600	-31.966	0.099
440.700	-31.725	0.099
440.800	-19.918	0.099
440.900	-25.520	0.099
441.000	-18.879	0.099
441.100	-25.341	0.099
441.200	-18.062	0.100
441.300	-13.836	0.099
441.400	-19.462	0.099
441.500	-27.884	0.099
441.600	-20.887	0.099
441.700	-20.404	0.099
441.800	-20.982	0.099
441.900	-19.449	0.100
442.000	-36.688	0.099
442.100	-21.346	0.100
442.200	-18.630	0.099
442.300	-20.187	0.099
442.400	-14.246	0.099
442.500	-26.359	0.099
442.600	-27.931	0.099
442.700	-29.511	0.099
442.800	-24.592	0.099
442.900	-34.867	0.099
443.000	-28.034	0.099
443.100	-25.245	0.099
443.200	-16.280	0.099
443.300	-18.511	0.099
443.400	-20.811	0.099
443.500	-23.708	0.099
443.600	-19.526	0.099
443.700	-24.152	0.099
443.800	-20.346	0.099
443.900	-21.488	0.099
444.000	-42.327	0.099
444.100	-24.512	0.099
444.200	-24.990	0.099
444.300	-13.946	0.099
444.400	-11.163	0.099
444.500	-6.791	0.099
444.600	-25.939	0.100
444.700	-27.408	0.100
444.800	-19.408	0.099
444.900	-19.529	0.099
445.000	-25.861	0.099
445.100	-12.782	0.099
445.200	-24.318	0.099
445.300	-23.276	0.099
445.400	-26.002	0.099
445.500	-25.425	0.099
445.600	-18.685	0.099
445.700	-23.795	0.100
445.800	-30.874	0.099
445.900	-29.653	0.099
446.000	-26.579	0.099
446.100	-17.352	0.099
446.200	-24.191	0.099
446.300	-22.119	0.099
446.400	-31.055	0.099
446.500	-18.898	0.100
446.600	-12.181	0.099
446.700	-18.989	0.099
446.800	-35.969	0.099
446.900	-27.850	0.099
447.000	-25.049	0.099
447.100	-16.265	0.099
447.200	-18.569	0.099
447.300	-15.190	0.099
447.400	-36.592	0.100
447.500	-20.546	0.100
447.600	-8.343	0.100
447.700	-23.971	0.100
447.800	-10.080	0.100
447.900	-25.924	0.100
448.000	-12.671	0.100
448.100	-31.697	0.100
448.200	-19.281	0.100
448.300	-18.714	0.100
448.400	-17.120	0.100
448.500	-14.135	0.100
448.600	-28.437	0.100
448.700	-22.658	0.100
448.800	-32.530	0.100
448.900	-15.685	0.100
449.000	-11.275	0.100
449.100	-19.498	0.100
449.200	-20.687	0.100
449.300	-21.184	0.100
449.400	-17.746	0.100
449.500	-18.348	0.100
449.600	-12.472	0.100
449.700	-10.617	0.100
449.800	-9.596	0.100
449.900	-15.818	0.100
450.000	-19.703	0.100
450.100	-31.102	0.100
450.200	-21.538	0.100
450.300	-21.857	0.100
450.400	-27.305	0.100
450.500	-30.265	0.100
450.600	-15.559	0.100
450.700	-23.175	0.100
450.800	-9.919	0.100
450.900	-14.706	0.100
451.000	-32.862	0.100
451.100	-30.206	0.100
451.200	-15.883	0.100
451.300	-24.440	0.100
451.400	-23.016	0.100
451.500	-30.792	0.100
451.600	-26.371	0.100
451.700	-30.192	0.100
451.800	-18.457	0.100
451.900	-16.274	0.100
452.000	-22.097	0.100
452.100	-28.358	0.100
452.200	-16.200	0.100
452.300	-22.066	0.100
452.400	-18.927	0.100
452.500	-12.632	0.100
452.600	-38.536	0.100
452.700	-39.057	0.100
452.800	-22.671	0.100
452.900	-20.428	0.100
453.000	-6.049	0.100
453.100	-14.173	0.100
453.200	-29.556	0.100
453.300	-17.650	0.100
453.400	-28.020	0.100
453.500	-27.899	0.100
453.600	-21.203	0.100
453.700	-30.004	0.100
453.800	-3.428	0.100
453.900	-23.041	0.100
454.000	-18.088	0.100
454.100	-25.735	0.100
454.200	-22.393	0.100
454.300	-9.995	0.100
454.400	-21.023	0.100
454.500	-11.914	0.100
454.600	-15.283	0.100
454.700	-23.677	0.100
454.800	-29.944	0.100
454.900	-19.887	0.100
455.000	-21.806	0.100
455.100	-13.308	0.100
455.200	-16.641	0.100
455.300	-20.381	0.100
455.400	-17.832	0.100
455.500	-28.968	0.100
455.600	-10.701	0.100
455.700	-12.911	0.100
455.800	-20.444	0.100
455.900	-14.426	0.100
456.000	-34.040	0.100
456.100	-26.937	0.100
456.200	-18.092	0.100
456.300	-10.974	0.100
456.400	-23.177	0.100
456.500	-9.677	0.100
456.600	-0.400	0.100
456.700	-26.387	0.100
456.800	-28.891	0.100
456.900	-17.603	0.100
457.000	-19.248	0.100
457.100	-26.303	0.100
457.200	-18.932	0.100
457.300	-24.112	0.100
457.400	-18.247	0.100
457.500	-13.950	0.100
457.600	-27.051	0.100
457.700	-18.835	0.100
457.800	-23.489	0.100
457.900	-17.954	0.100
458.000	-20.809	0.100
458.100	-22.657	0.100
458.200	-22.680	0.100
458.300	-21.902	0.100
458.400	-25.503	0.100
458.500	-20.702	0.100
458.600	-20.788	0.099
458.700	-14.032	0.099
458.800	-21.539	0.099
458.900	-27.075	0.099
459.000	-17.907	0.099
459.100	-8.735	0.099
459.200	-9.820	0.099
459.300	-19.573	0.099
459.400	-16.296	0.099
459.500	-11.228	0.099
459.600	-10.699	0.099
459.700	-21.271	0.099
459.800	-21.055	0.099
459.900	-37.340	0.099
460.000	-19.270	0.099
460.100	0.898	0.099
460.200	-13.928	0.099
460.300	-14.908	0.099
460.400	-22.665	0.099
460.500	-21.127	0.099
460.600	-14.269	0.099
460.700	-22.943	0.099
460.800	-21.019	0.099
460.900	-17.469	0.099
461.000	-3.146	0.099
461.100	-10.048	0.099
461.200	-19.209	0.099
461.300	-30.560	0.099
461.400	-23.901	0.099
461.500	-17.687	0.099
461.600	-31.032	0.099
461.700	-12.608	0.099
461.800	-31.569	0.099
461.900	-24.117	0.099
462.000	-14.601	0.099
462.100	-21.799	0.099
462.200	-39.382	0.099
462.300	-32.733	0.099
462.400	-29.501	0.099
462.500	-18.416	0.099
462.600	-22.371	0.099
462.700	-11.984	0.099
462.800	-17.586	0.099
462.900	-24.861	0.099
463.000	-14.474	0.099
463.100	-18.487	0.099
463.200	-3.021	0.099
463.300	-15.260	0.099
463.400	-14.733	0.099
463.500	-17.466	0.099
463.600	-20.913	0.099
463.700	-5.412	0.099
463.800	-22.521	0.099
463.900	-17.271	0.099
464.000	-29.931	0.099
464.100	-8.213	0.099
464.200	-10.305	0.099
464.300	-19.382	0.099
464.400	-15.603	0.099
464.500	-9.077	0.099
464.600	-29.698	0.099
464.700	-19.435	0.099
464.800	-23.332	0.099
464.900	-27.748	0.099
465.000	-14.259	0.099
465.100	-26.946	0.099
465.200	-22.638	0.099
465.300	-31.219	0.099
465.400	-22.547	0.099
465.500	-19.031	0.099
465.600	-7.747	0.099
465.700	-27.347	0.099
465.800	-22.275	0.099
465.900	-39.994	0.099
466.000	-6.914	0.099
466.100	-7.254	0.099
466.200	-17.759	0.099
466.300	-21.329	0.099
466.400	-18.780	0.099
466.500	-13.873	0.099
466.600	-18.093	0.099
466.700	-19.359	0.099
466.800	-11.699	0.099
466.900	-20.717	0.099
467.000	-29.945	0.099
467.100	-4.531	0.099
467.200	-24.880	0.099
467.300	-19.175	0.099
467.400	-14.355	0.099
467.500	-39.247	0.099
467.600	-29.922	0.099
467.700	-21.530	0.099
467.800	-17.867	0.099
467.900	-15.430	0.099
468.000	-16.296	0.099
468.100	-20.523	0.099
468.200	-16.403	0.099
468.300	-28.392	0.099
468.400	-23.604	0.099
468.500	-20.076	0.099
468.600	-13.221	0.099
468.700	-21.326	0.099
468.800	-16.771	0.099
468.900	-7.862	0.099
469.000	-18.535	0.099
469.100	-21.132	0.099
469.200	-25.555	0.099
469.300	-23.932	0.099
469.400	-21.929	0.099
469.500	-28.824	0.099
469.600	-21.125	0.099
469.700	-16.289	0.099
469.800	-15.242	0.099
469.900	-19.219	0.099
470.000	-26.958	0.099
470.100	-0.924	0.099
470.200	-21.365	0.099
470.300	-14.731	0.099
470.400	-20.582	0.099
470.500	-15.071	0.099
470.600	-13.422	0.099
470.700	-12.785	0.099
470.800	-20.873	0.099
470.900	-28.664	0.099
471.000	-16.756	0.099
471.100	-14.165	0.099
471.200	-11.908	0.099
471.300	-37.409	0.099
471.400	-20.994	0.099
471.500	-21.463	0.099
471.600	-15.923	0.099
471.700	-19.754	0.099
471.800	-15.478	0.099
471.900	-14.013	0.099
472.000	-24.701	0.099
472.100	-26.774	0.099
472.200	-7.213	0.099
472.300	-20.085	0.099
472.400	-20.188	0.099
472.500	-13.006	0.099
472.600	-12.200	0.099
472.700	-21.148	0.099
472.800	-26.454	0.099
472.900	-23.011	0.099
473.000	-15.204	0.099
473.100	-7.211	0.099
473.200	-20.787	0.099
473.300	-17.525	0.099
473.400	-22.901	0.099
473.500	-23.061	0.099
473.600	-10.826	0.099
473.700	-26.471	0.099
473.800	-11.192	0.099
473.900	-16.446	0.099
474.000	-17.441	0.099
474.100	-27.923	0.099
474.200	-8.986	0.099
474.300	-14.409	0.099
474.400	-16.800	0.099
474.500	-26.145	0.099
474.600	-27.277	0.099
474.700	-36.237	0.099
474.800	-13.120	0.099
474.900	-21.235	0.099
475.000	-21.436	0.099
475.100	-7.292	0.099
475.200	-17.512	0.099
475.300	-15.198	0.100
475.400	-16.079	0.100
475.500	-17.044	0.100
475.600	-19.595	0.099
475.700	-21.263	0.099
475.800	-28.883	0.100
475.900	-21.431	0.100
476.000	-22.827	0.099
476.100	-32.714	0.099
476.200	-15.242	0.099
476.300	-14.851	0.100
476.400	-22.491	0.099
476.500	-15.204	0.100
476.600	-17.664	0.099
476.700	-10.961	0.100
476.800	-28.611	0.100
476.900	-20.251	0.099
477.000	-20.007	0.099
477.100	-18.974	0.099
477.200	-13.026	0.100
477.300	-16.244	0.100
477.400	-12.950	0.100
477.500	-25.207	0.100
477.600	-26.388	0.100
477.700	-5.400	0.099
477.800	-7.833	0.099
477.900	-16.053	0.099
478.000	-24.591	0.099
478.100	-16.872	0.100
478.200	-17.211	0.099
478.300	-20.261	0.099
478.400	-20.270	0.099
478.500	-6.481	0.099
478.600	-14.305	0.099
478.700	-17.637	0.099
478.800	-25.098	0.099
478.900	-13.083	0.099
479.000	-22.759	0.099
479.100	-19.443	0.099
479.200	-23.947	0.099
479.300	-17.062	0.099
479.400	-25.069	0.099
479.500	-13.059	0.099
479.600	-9.281	0.099
479.700	-22.730	0.099
479.800	-17.416	0.099
479.900	-20.947	0.100
480.000	-19.595	0.099
480.100	-16.034	0.100
480.200	-12.383	0.099
480.300	-22.314	0.099
480.400	-16.210	0.099
480.500	-22.027	0.099
480.600	-7.890	0.099
480.700	4.920	0.099
480.800	0.111	0.099
480.900	0.982	0.100
481.000	7.582	0.100
481.100	5.985	0.100
481.200	2.469	0.100
481.300	5.853	0.100
481.400	8.604	0.100
481.500	7.721	0.100
481.600	-2.571	0.100
481.700	16.085	0.100
481.800	2.517	0.100
481.900	14.877	0.100
482.000	8.719	0.100
482.100	13.598	0.100
482.200	13.994	0.100
482.300	29.146	0.100
482.400	16.487	0.100
482.500	1.515	0.100
482.600	7.521	0.100
482.700	6.006	0.100
482.800	21.375	0.100
482.900	19.829	0.100
483.000	16.810	0.100
483.100	26.794	0.100
483.200	16.935	0.100
483.300	-3.955	0.100
483.400	27.250	0.100
483.500	13.936	0.100
483.600	5.731	0.100
483.700	15.787	0.100
483.800	6.326	0.100
483.900	13.271	0.100
484.000	21.517	0.100
484.100	15.015	0.100
484.200	12.504	0.100
484.300	10.530	0.100
484.400	15.223	0.100
484.500	11.479	0.100
484.600	7.638	0.100
484.700	-1.182	0.100
484.800	14.333	0.100
484.900	18.357	0.100
485.000	-2.062	0.100
485.100	2.819	0.100
485.200	15.861	0.100
485.300	17.219	0.100
485.400	18.768	0.100
485.500	21.660	0.100
485.600	12.800	0.100
485.700	-6.093	0.100
485.800	17.044	0.100
485.900	14.287	0.100
486.000	5.062	0.100
486.100	10.157	0.100
486.200	16.778	0.100
486.300	12.751	0.100
486.400	18.494	0.100
486.500	1.711	0.099
486.600	12.452	0.099
486.700	11.374	0.099
486.800	7.721	0.099
486.900	7.024	0.099
487.000	25.066	0.099
487.100	9.243	0.099
487.200	7.656	0.099
487.300	12.178	0.099
487.400	15.811	0.099
487.500	10.361	0.099
487.600	7.232	0.099
487.700	15.025	0.099
487.800	26.854	0.099
487.900	28.080	0.099
488.000	15.839	0.099
488.100	19.037	0.099
488.200	1.085	0.099
488.300	14.907	0.099
488.400	18.236	0.099
488.500	17.359	0.099
488.600	14.253	0.099
488.700	12.631	0.099
488.800	7.466	0.099
488.900	15.210	0.099
489.000	15.423	0.099
489.100	22.031	0.099
489.200	19.483	0.099
489.300	26.419	0.099
489.400	9.438	0.099
489.500	25.432	0.099
489.600	7.558	0.099
489.700	22.827	0.099
489.800	33.628	0.099
489.900	25.058	0.099
490.000	20.480	0.099
490.100	23.511	0.099
490.200	16.360	0.099
490.300	29.169	0.099
490.400	29.221	0.099
490.500	26.894	0.099
490.600	17.802	0.099
490.700	38.996	0.099
490.800	34.549	0.099
490.900	19.742	0.099
491.000	21.139	0.099
491.100	28.592	0.099
491.200	26.565	0.099
491.300	26.939	0.099
491.400	26.224	0.099
491.500	30.514	0.099
491.600	33.190	0.099
491.700	24.065	0.099
491.800	30.064	0.099
491.900	32.337	0.099
492.000	28.096	0.099
492.100	30.230	0.099
492.200	40.699	0.099
492.300	26.566	0.099
492.400	22.240	0.099
492.500	31.294	0.099
492.600	38.370	0.099
492.700	30.259	0.099
492.800	32.552	0.099
492.900	37.793	0.099
493.000	29.401	0.099
493.100	21.901	0.099
493.200	23.553	0.099
493.300	28.632	0.099
493.400	43.493	0.099
493.500	44.160	0.099
493.600	36.616	0.099
493.700	25.928	0.099
493.800	22.700	0.099
493.900	30.037	0.099
494.000	37.783	0.099
494.100	50.455	0.099
494.200	47.431	0.099
494.300	38.752	0.099
494.400	31.710	0.099
494.500	33.635	0.099
494.600	38.644	0.099
494.700	30.539	0.099
494.800	25.420	0.099
494.900	36.870	0.099
495.000	30.818	0.099
495.100	42.002	0.099
495.200	37.851	0.099
495.300	35.978	0.099
495.400	38.561	0.099
495.500	43.939	0.099
495.600	48.306	0.099
495.700	30.823	0.099
495.800	18.504	0.099
495.900	34.533	0.099
496.000	38.665	0.099
496.100	43.858	0.099
496.200	22.435	0.099
496.300	37.754	0.099
496.400	37.483	0.099
496.500	42.460	0.099
496.600	42.667	0.099
496.700	43.104	0.099
496.800	46.783	0.099
496.900	47.195	0.099
497.000	34.897	0.099
497.100	34.930	0.099
497.200	41.343	0.099
497.300	37.712	0.099
497.400	37.157	0.099
497.500	36.933	0.099
497.600	47.894	0.099
497.700	35.485	0.099
497.800	31.866	0.099
497.900	42.003	0.099
498.000	40.012	0.099
498.100	34.535	0.099
498.200	26.529	0.099
498.300	31.678	0.099
498.400	33.717	0.099
498.500	38.964	0.099
498.600	45.452	0.099
498.700	35.023	0.099
498.800	49.628	0.099
498.900	46.534	0.099
499.000	37.665	0.099
499.100	48.965	0.099
499.200	36.433	0.099
499.300	40.974	0.099
499.400	31.130	0.099
499.500	48.452	0.099
499.600	56.502	0.099
499.700	60.308	0.099
499.800	43.142	0.099
499.900	22.947	0.099
500.000	37.071	0.099
500.100	40.688	0.099
500.200	27.310	0.099
500.300	43.030	0.099
500.400	33.203	0.099
500.500	24.360	0.099
500.600	36.882	0.099
500.700	35.961	0.099
500.800	30.609	0.099
500.900	37.633	0.099
501.000	30.728	0.099
501.100	30.731	0.099
501.200	32.809	0.099
501.300	40.455	0.099
501.400	23.490	0.099
501.500	46.761	0.099
501.600	32.129	0.099
501.700	43.631	0.099
501.800	36.026	0.099
501.900	36.083	0.099
502.000	38.682	0.099
502.100	39.461	0.099
502.200	44.766	0.099
502.300	29.676	0.099
502.400	45.807	0.099
502.500	46.835	0.099
502.600	38.481	0.099
502.700	39.726	0.099
502.800	36.565	0.099
502.900	34.188	0.099
503.000	39.550	0.099
503.100	26.347	0.099
503.200	41.434	0.099
503.300	42.195	0.100
503.400	41.790	0.100
503.500	36.622	0.100
503.600	46.188	0.100
503.700	37.830	0.100
503.800	41.296	0.100
503.900	42.221	0.100
504.000	28.974	0.100
504.100	36.878	0.100
504.200	34.792	0.100
504.300	42.730	0.100
504.400	44.253	0.100
504.500	44.307	0.100
504.600	42.089	0.100
504.700	32.391	0.100
504.800	37.504	0.100
504.900	37.260	0.100
505.000	37.882	0.100
505.100	43.005	0.100
505.200	34.204	0.100
505.300	46.330	0.100
505.400	32.158	0.100
505.500	43.267	0.100
505.600	39.918	0.100
505.700	34.590	0.100
505.800	35.212	0.100
505.900	37.982	0.100
506.000	41.788	0.100
506.100	26.056	0.100
506.200	36.877	0.100
506.300	36.688	0.100
506.400	34.264	0.100
506.500	25.444	0.100
506.600	30.540	0.100
506.700	45.225	0.100
506.800	41.022	0.100
506.900	40.377	0.100
507.000	35.604	0.100
507.100	35.676	0.100
507.200	44.066	0.100
507.300	47.863	0.100
507.400	18.549	0.100
507.500	40.221	0.100
507.600	33.869	0.100
507.700	28.317	0.100
507.800	39.021	0.100
507.900	54.312	0.100
508.000	40.697	0.100
508.100	28.441	0.100
508.200	32.728	0.100
508.300	22.922	0.100
508.400	44.723	0.100
508.500	31.684	0.100
508.600	48.218	0.100
508.700	44.526	0.100
508.800	24.708	0.100
508.900	41.733	0.100
509.000	27.479	0.100
509.100	45.088	0.100
509.200	42.367	0.100
509.300	33.831	0.100
509.400	23.952	0.100
509.500	33.178	0.100
509.600	37.849	0.100
509.700	42.003	0.100
509.800	35.902	0.100
509.900	43.065	0.100
510.000	38.096	0.100
510.100	39.737	0.100
510.200	43.840	0.100
510.300	46.383	0.100
510.400	21.790	0.100
510.500	27.157	0.100
510.600	22.840	0.100
510.700	23.483	0.100
510.800	26.112	0.100
510.900	44.201	0.100
511.000	42.239	0.100
511.100	30.231	0.100
511.200	31.961	0.100
511.300	36.067	0.100
511.400	36.679	0.100
511.500	37.425	0.100
511.600	40.860	0.100
511.700	36.003	0.100
511.800	34.190	0.100
511.900	37.852	0.100
512.000	37.406	0.100
512.100	37.212	0.100
512.200	38.338	0.100
512.300	35.999	0.100
512.400	32.467	0.100
512.500	46.394	0.100
512.600	35.053	0.100
512.700	33.445	0.100
512.800	21.032	0.100
512.900	38.970	0.100
513.000	36.676	0.100
513.100	38.762	0.100
513.200	24.649	0.100
513.300	29.065	0.100
513.400	31.228	0.100
513.500	47.934	0.100
513.600	37.883	0.100
513.700	33.488	0.100
513.800	37.727	0.100
513.900	39.931	0.100
514.000	34.826	0.100
514.100	34.637	0.100
514.200	28.323	0.100
514.300	29.176	0.100
514.400	38.876	0.100
514.500	37.329	0.099
514.600	41.242	0.099
514.700	37.392	0.099
514.800	40.614	0.099
514.900	42.080	0.099
515.000	38.887	0.099
515.100	32.445	0.099
515.200	38.595	0.099
515.300	39.161	0.099
515.400	37.902	0.099
515.500	38.635	0.099
515.600	33.009	0.099
515.700	28.965	0.099
515.800	35.072	0.099
515.900	42.922	0.099
516.000	31.578	0.099
516.100	34.074	0.099
516.200	29.156	0.099
516.300	27.818	0.099
516.400	34.986	0.099
516.500	44.060	0.099
516.600	41.092	0.099
516.700	26.664	0.099
516.800	18.832	0.099
516.900	39.383	0.099
517.000	21.465	0.099
517.100	37.028	0.099
517.200	35.304	0.099
517.300	32.232	0.099
517.400	26.058	0.099
517.500	38.932	0.099
517.600	35.653	0.099
517.700	40.594	0.099
517.800	39.190	0.099
517.900	39.481	0.099
518.000	24.875	0.099
518.100	17.882	0.099
518.200	39.010	0.099
518.300	48.312	0.099
518.400	29.719	0.099
518.500	38.806	0.099
518.600	32.758	0.099
518.700	52.619	0.099
518.800	31.332	0.099
518.900	43.569	0.099
519.000	47.220	0.099
519.100	36.550	0.099
519.200	32.824	0.099
519.300	30.546	0.099
519.400	32.287	0.099
519.500	28.549	0.099
519.600	37.151	0.099
519.700	21.994	0.099
519.800	41.570	0.099
519.900	48.254	0.099
520.000	26.512	0.099
520.100	25.645	0.099
520.200	32.671	0.099
520.300	32.547	0.099
520.400	22.301	0.099
520.500	32.208	0.099
520.600	32.498	0.099
520.700	31.891	0.099
520.800	26.491	0.099
520.900	32.379	0.099
521.000	28.070	0.099
521.100	37.329	0.099
521.200	29.405	0.099
521.300	34.400	0.099
521.400	36.185	0.099
521.500	43.047	0.099
521.600	41.281	0.099
521.700	25.172	0.099
521.800	42.645	0.099
521.900	43.221	0.099
522.000	36.397	0.099
522.100	32.178	0.099
522.200	34.658	0.099
522.300	31.397	0.099
522.400	49.472	0.099
522.500	38.090	0.099
522.600	36.242	0.099
522.700	24.784	0.099
522.800	39.495	0.099
522.900	35.127	0.099
523.000	24.416	0.099
523.100	31.257	0.099
523.200	35.780	0.099
523.300	37.042	0.099
523.400	35.095	0.099
523.500	42.587	0.099
523.600	25.961	0.099
523.700	37.314	0.099
523.800	33.497	0.099
523.900	35.431	0.099
524.000	29.501	0.099
524.100	33.145	0.099
524.200	31.968	0.099
524.300	35.763	0.099
524.400	26.586	0.099
524.500	30.770	0.099
524.600	37.324	0.099
524.700	38.080	0.099
524.800	26.307	0.099
524.900	32.515	0.099
525.000	32.847	0.099
525.100	24.404	0.099
525.200	41.679	0.099
525.300	33.564	0.099
525.400	32.044	0.099
525.500	27.198	0.099
525.600	29.148	0.099
525.700	26.962	0.099
525.800	26.044	0.099
525.900	35.594	0.099
526.000	23.380	0.099
526.100	17.345	0.099
526.200	32.821	0.099
526.300	33.264	0.099
526.400	39.132	0.099
526.500	37.957	0.099
526.600	29.162	0.099
526.700	18.086	0.099
526.800	38.253	0.099
526.900	36.557	0.099
527.000	31.767	0.099
527.100	27.248	0.099
527.200	26.272	0.099
527.300	36.193	0.099
527.400	23.557	0.099
527.500	30.281	0.099
527.600	54.768	0.099
527.700	28.758	0.099
527.800	38.286	0.099
527.900	36.352	0.099
528.000	37.376	0.099
528.100	18.545	0.099
528.200	30.046	0.099
528.300	34.729	0.099
528.400	27.156	0.099
528.500	14.586	0.099
528.600	40.600	0.099
528.700	40.077	0.099
528.800	31.419	0.099
528.900	41.206	0.099
529.000	36.458	0.099
529.100	32.630	0.099
529.200	27.745	0.099
529.300	44.195	0.099
529.400	36.194	0.099
529.500	38.317	0.099
529.600	29.167	0.099
529.700	35.546	0.099
529.800	38.469	0.099
529.900	22.418	0.099
530.000	34.400	0.099
530.100	26.720	0.099
530.200	29.266	0.099
530.300	27.877	0.099
530.400	42.826	0.099
530.500	33.535	0.099
530.600	27.971	0.099
530.700	33.559	0.099
530.800	40.314	0.099
530.900	31.633	0.099
531.000	20.795	0.099
531.100	23.465	0.099
531.200	30.710	0.099
531.300	37.010	0.099
531.400	39.958	0.099
531.500	44.793	0.099
531.600	38.136	0.099
531.700	35.719	0.099
531.800	38.760	0.099
531.900	42.425	0.099
532.000	43.033	0.099
532.100	29.517	0.099
532.200	32.059	0.099
532.300	29.204	0.100
532.400	36.232	0.099
532.500	36.158	0.100
532.600	34.932	0.099
532.700	45.503	0.100
532.800	30.202	0.100
532.900	57.373	0.100
533.000	30.576	0.100
533.100	28.785	0.100
533.200	35.109	0.100
533.300	36.286	0.100
533.400	36.453	0.099
533.500	27.215	0.100
533.600	23.962	0.100
533.700	39.532	0.100
533.800	33.785	0.099
533.900	36.295	0.100
534.000	27.268	0.100
534.100	24.204	0.100
534.200	38.542	0.100
534.300	25.511	0.100
534.400	16.114	0.100
534.500	29.928	0.100
534.600	28.163	0.100
534.700	28.494	0.100
534.800	23.327	0.100
534.900	30.208	0.100
535.000	39.006	0.100
535.100	38.608	0.100
535.200	25.062	0.100
535.300	50.165	0.100
535.400	48.935	0.100
535.500	19.126	0.100
535.600	33.478	0.100
535.700	38.388	0.100
535.800	37.900	0.100
535.900	36.128	0.100
536.000	25.358	0.100
536.100	37.012	0.100
536.200	30.122	0.100
536.300	22.416	0.100
536.400	31.297	0.100
536.500	42.682	0.100
536.600	32.922	0.100
536.700	34.538	0.100
536.800	23.456	0.100
536.900	34.960	0.100
537.000	32.406	0.100
537.100	35.522	0.100
537.200	31.271	0.100
537.300	31.495	0.100
537.400	36.327	0.100
537.500	23.982	0.100
537.600	27.377	0.100
537.700	40.030	0.100
537.800	19.495	0.100
537.900	35.430	0.100
538.000	37.908	0.100
538.100	30.845	0.100
538.200	29.150	0.100
538.300	28.574	0.100
538.400	32.615	0.100
538.500	33.225	0.100
538.600	37.125	0.100
538.700	25.403	0.100
538.800	41.132	0.100
538.900	30.666	0.100
539.000	20.891	0.100
539.100	24.957	0.100
539.200	42.505	0.100
539.300	35.090	0.100
539.400	38.419	0.100
539.500	27.818	0.100
539.600	25.484	0.100
539.700	30.307	0.100
539.800	32.441	0.100
539.900	28.739	0.100
540.000	34.569	0.100
540.100	28.666	0.100
540.200	26.128	0.100
540.300	34.655	0.100
540.400	40.803	0.100
540.500	22.520	0.100
540.600	16.533	0.100
540.700	9.886	0.100
540.800	19.569	0.100
540.900	28.553	0.100
541.000	15.559	0.100
541.100	16.421	0.100
541.200	8.137	0.100
541.300	23.851	0.100
541.400	6.307	0.100
541.500	6.053	0.100
541.600	1.782	0.100
541.700	14.231	0.100
541.800	3.439	0.100
541.900	3.653	0.100
542.000	7.168	0.100
542.100	8.059	0.100
542.200	5.616	0.100
542.300	1.266	0.100
542.400	-9.478	0.100
542.500	-12.035	0.100
542.600	3.485	0.100
542.700	-2.622	0.100
542.800	-5.876	0.100
542.900	-7.377	0.100
543.000	-2.894	0.100
543.100	-5.863	0.100
543.200	-1.748	0.100
543.300	1.010	0.100
543.400	2.940	0.100
543.500	-11.854	0.100
543.600	4.404	0.100
543.700	5.360	0.100
543.800	-7.534	0.100
543.900	-9.752	0.100
544.000	-4.500	0.100
544.100	-12.885	0.100
544.200	-7.655	0.100
544.300	-1.924	0.100
544.400	-15.108	0.100
544.500	7.045	0.100
544.600	-13.497	0.100
544.700	-5.183	0.100
544.800	-3.240	0.100
544.900	-7.613	0.100
545.000	5.880	0.100
545.100	-22.846	0.100
545.200	-2.954	0.100
545.300	-9.411	0.100
545.400	-4.443	0.100
545.500	-3.700	0.100
545.600	-18.764	0.100
545.700	-13.128	0.100
545.800	5.888	0.100
545.900	-0.233	0.100
546.000	0.227	0.100
546.100	-16.470	0.100
546.200	-21.753	0.100
546.300	3.005	0.100
546.400	-7.235	0.100
546.500	-8.518	0.100
546.600	-20.067	0.100
546.700	-6.294	0.100
546.800	-16.151	0.100
546.900	-18.620	0.100
547.000	-1.086	0.100
547.100	-3.095	0.100
547.200	-1.720	0.100
547.300	-17.548	0.100
547.400	-25.013	0.100
547.500	-18.407	0.100
547.600	-10.143	0.100
547.700	3.104	0.100
547.800	-16.766	0.100
547.900	-10.027	0.100
548.000	-8.157	0.100
548.100	-6.189	0.100
548.200	-33.113	0.100
548.300	-23.239	0.100
548.400	-22.076	0.100
548.500	-10.400	0.100
548.600	-9.553	0.100
548.700	-23.494	0.100
548.800	-25.940	0.100
548.900	-25.257	0.100
549.000	-12.004	0.100
549.100	-17.415	0.100
549.200	-7.231	0.100
549.300	-9.870	0.100
549.400	-18.789	0.100
549.500	-22.904	0.100
549.600	-16.294	0.100
549.700	-18.624	0.100
549.800	-22.269	0.100
549.900	-12.312	0.100
550.000	-22.798	0.100
550.100	-9.569	0.100
550.200	-7.747	0.100
550.300	-28.161	0.100
550.400	-17.289	0.100
550.500	-17.772	0.100
550.600	-11.468	0.100
550.700	-18.195	0.100
550.800	-18.205	0.100
550.900	-10.791	0.100
551.000	-28.710	0.100
551.100	-15.771	0.100
551.200	-24.436	0.100
551.300	-22.482	0.100
551.400	-26.265	0.100
551.500	-5.686	0.100
551.600	-5.705	0.100
551.700	-21.228	0.100
551.800	-21.933	0.100
551.900	-17.435	0.100
552.000	-16.586	0.100
552.100	-20.160	0.100
552.200	-26.109	0.100
552.300	-22.469	0.100
552.400	-17.510	0.100
552.500	-20.006	0.100
552.600	-26.317	0.100
552.700	-13.678	0.100
552.800	-13.981	0.100
552.900	-17.825	0.100
553.000	-26.890	0.100
553.100	-18.741	0.100
553.200	-11.820	0.100
553.300	-23.359	0.100
553.400	-12.798	0.100
553.500	-15.757	0.100
553.600	-13.580	0.100
553.700	-21.600	0.100
553.800	-15.183	0.100
553.900	-24.110	0.100
554.000	-19.964	0.100
554.100	-33.289	0.100
554.200	-32.193	0.100
554.300	-31.901	0.100
554.400	2.859	0.100
554.500	-23.095	0.100
554.600	-22.667	0.100
554.700	-35.109	0.100
554.800	-30.517	0.100
554.900	-19.917	0.100
555.000	-20.511	0.100
555.100	-11.141	0.100
555.200	-11.670	0.100
555.300	-32.009	0.100
555.400	-20.695	0.100
555.500	-19.522	0.100
555.600	-24.615	0.100
555.700	-17.000	0.100
555.800	-21.792	0.100
555.900	-32.466	0.100
556.000	-33.731	0.100
556.100	-23.253	0.100
556.200	-26.634	0.100
556.300	-31.169	0.100
556.400	-18.091	0.100
556.500	-17.232	0.100
556.600	-21.512	0.100
556.700	-39.548	0.100
556.800	-11.907	0.100
556.900	-24.959	0.100
557.000	-28.543	0.100
557.100	-20.955	0.100
557.200	-9.892	0.100
557.300	-29.760	0.100
557.400	-27.631	0.100
557.500	-22.658	0.100
557.600	-17.804	0.100
557.700	-20.668	0.099
557.800	-9.479	0.100
557.900	-17.219	0.100
558.000	-27.421	0.099
558.100	-20.552	0.099
558.200	-27.202	0.100
558.300	-24.065	0.099
558.400	-18.953	0.099
558.500	-16.512	0.099
558.600	-8.207	0.100
558.700	-7.003	0.100
558.800	-25.850	0.100
558.900	-30.551	0.099
559.000	-21.490	0.099
559.100	-30.397	0.099
559.200	-20.564	0.100
559.300	-25.585	0.100
559.400	-26.738	0.100
559.500	-22.614	0.100
559.600	-29.009	0.100
559.700	-17.448	0.100
559.800	-19.489	0.100
559.900	-12.635	0.100
560.000	-28.612	0.100
560.100	-20.267	0.100
560.200	-34.299	0.100
560.300	-28.944	0.100
560.400	-29.786	0.100
560.500	-10.456	0.100
560.600	-16.029	0.100
560.700	-17.749	0.100
560.800	-26.024	0.100
560.900	-38.691	0.100
561.000	-30.910	0.100
561.100	-25.135	0.100
561.200	-12.217	0.100
561.300	-31.157	0.100
561.400	-41.578	0.100
561.500	-18.216	0.100
561.600	-21.313	0.100
561.700	-15.152	0.100
561.800	-23.321	0.100
561.900	-28.889	0.100
562.000	-39.854	0.100
562.100	-28.963	0.100
562.200	-30.623	0.100
562.300	-32.696	0.100
562.400	-19.551	0.100
562.500	-7.453	0.100
562.600	-18.634	0.100
562.700	-17.625	0.100
562.800	-13.987	0.100
562.900	-23.061	0.100
563.000	-37.147	0.100
563.100	-26.002	0.100
563.200	-29.700	0.100
563.300	-24.695	0.100
563.400	-31.098	0.100
563.500	-30.079	0.100
563.600	-35.298	0.100
563.700	-17.437	0.100
563.800	-16.161	0.100
563.900	-16.974	0.100
564.000	-24.365	0.100
564.100	-29.110	0.100
564.200	-30.621	0.100
564.300	-22.225	0.100
564.400	-8.930	0.100
564.500	-21.774	0.100
564.600	-18.459	0.100
564.700	-37.075	0.100
564.800	-39.000	0.100
564.900	-29.667	0.100
565.000	-28.135	0.100
565.100	-26.657	0.100
565.200	-1.644	0.100
565.300	-23.275	0.100
565.400	-33.371	0.100
565.500	-24.833	0.100
565.600	-19.482	0.100
565.700	-22.503	0.100
565.800	-31.050	0.100
565.900	-17.468	0.100
566.000	-28.608	0.100
566.100	-22.325	0.100
566.200	-20.183	0.100
566.300	-27.777	0.100
566.400	-27.090	0.100
566.500	-23.479	0.100
566.600	-24.350	0.100
566.700	-23.041	0.100
566.800	-30.411	0.100
566.900	-27.201	0.100
567.000	-38.684	0.100
567.100	-17.756	0.100
567.200	-25.167	0.100
567.300	-15.612	0.100
567.400	-22.305	0.100
567.500	-32.932	0.100
567.600	-38.760	0.100
567.700	-13.028	0.100
567.800	-20.461	0.100
567.900	-17.123	0.100
568.000	-24.909	0.100
568.100	-26.867	0.100
568.200	-33.048	0.100
568.300	-25.424	0.100
568.400	-25.613	0.100
568.500	-25.086	0.100
568.600	-14.265	0.100
568.700	-18.338	0.100
568.800	-22.916	0.100
568.900	-32.820	0.100
569.000	-36.169	0.100
569.100	-16.972	0.100
569.200	-29.531	0.100
569.300	-22.476	0.100
569.400	-23.648	0.100
569.500	-28.461	0.100
569.600	-28.409	0.100
569.700	-21.409	0.100
569.800	-12.747	0.100
569.900	-33.805	0.100
570.000	-13.348	0.100
570.100	-40.289	0.100
570.200	-22.296	0.100
570.300	-22.547	0.100
570.400	-28.942	0.100
570.500	-26.369	0.100
570.600	-22.123	0.100
570.700	-19.369	0.100
570.800	-33.828	0.100
570.900	-26.930	0.100
571.000	-25.517	0.100
571.100	-16.701	0.100
571.200	-29.410	0.100
571.300	-34.321	0.100
571.400	-22.424	0.100
571.500	-24.722	0.100
571.600	-33.611	0.100
571.700	-26.643	0.100
571.800	-15.112	0.100
571.900	-22.552	0.100
572.000	-28.704	0.100
572.100	-44.482	0.100
572.200	-17.154	0.100
572.300	-15.079	0.100
572.400	-24.977	0.100
572.500	-33.757	0.100
572.600	-31.433	0.100
572.700	-25.213	0.100
572.800	-25.851	0.100
572.900	-24.567	0.100
573.000	-30.184	0.100
573.100	-9.778	0.100
573.200	-29.811	0.100
573.300	-19.396	0.100
573.400	-28.742	0.100
573.500	-24.967	0.100
573.600	-40.367	0.100
573.700	-20.503	0.100
573.800	-30.891	0.100
573.900	-29.020	0.100
574.000	-30.571	0.100
574.100	-7.841	0.100
574.200	-17.621	0.100
574.300	-21.704	0.100
574.400	-17.743	0.100
574.500	-23.633	0.100
574.600	-32.663	0.100
574.700	-29.621	0.100
574.800	-36.029	0.100
574.900	-11.326	0.100
575.000	-15.253	0.100
575.100	-23.946	0.100
575.200	-28.586	0.100
575.300	-34.292	0.100
575.400	-19.964	0.100
575.500	-23.449	0.100
575.600	-26.370	0.100
575.700	-22.751	0.100
575.800	-36.381	0.100
575.900	-18.384	0.100
576.000	-22.514	0.100
576.100	-25.398	0.100
576.200	-29.607	0.100
576.300	-35.602	0.100
576.400	-25.548	0.100
576.500	-14.839	0.100
576.600	-29.599	0.100
576.700	-25.533	0.100
576.800	-24.550	0.100
576.900	-11.837	0.100
577.000	-33.030	0.100
577.100	-28.306	0.100
577.200	-18.567	0.100
577.300	-28.294	0.100
577.400	-27.478	0.100
577.500	-15.114	0.100
577.600	-27.034	0.100
577.700	-29.171	0.100
577.800	-22.820	0.100
577.900	-9.805	0.100
578.000	-21.949	0.100
578.100	-24.033	0.100
578.200	-17.735	0.100
578.300	-12.444	0.100
578.400	-28.790	0.100
578.500	-24.478	0.100
578.600	-30.518	0.100
578.700	-16.891	0.100
578.800	-21.127	0.100
578.900	-35.455	0.100
579.000	-18.298	0.100
579.100	-30.164	0.100
579.200	-22.246	0.100
579.300	-23.081	0.100
579.400	-13.389	0.100
579.500	-28.295	0.100
579.600	-35.067	0.100
579.700	-21.981	0.100
579.800	-29.788	0.100
579.900	-29.505	0.100
580.000	-22.808	0.100
580.100	-14.930	0.100
580.200	-29.855	0.100
580.300	-31.520	0.100
580.400	-16.871	0.100
580.500	-23.369	0.100
580.600	-16.624	0.100
580.700	-28.670	0.100
580.800	-10.454	0.100
580.900	-29.181	0.100
581.000	-43.183	0.100
581.100	-25.816	0.100
581.200	-14.735	0.100
581.300	-18.978	0.100
581.400	-25.862	0.100
581.500	-23.900	0.100
581.600	-15.033	0.100
581.700	-23.142	0.100
581.800	-35.777	0.100
581.900	-30.794	0.100
582.000	-24.875	0.100
582.100	-37.545	0.100
582.200	-15.731	0.100
582.300	-19.957	0.100
582.400	-32.475	0.100
582.500	-21.417	0.100
582.600	-19.727	0.100
582.700	-17.868	0.100
582.800	-31.337	0.100
582.900	-26.916	0.100
583.000	-28.714	0.100
583.100	-13.513	0.100
583.200	-11.664	0.100
583.300	-29.478	0.100
583.400	-14.895	0.100
583.500	-31.161	0.100
583.600	-23.271	0.100
583.700	-24.466	0.100
583.800	-39.840	0.100
583.900	-19.231	0.100
584.000	-23.562	0.100
584.100	-22.336	0.100
584.200	-29.739	0.100
584.300	-12.451	0.100
584.400	-25.933	0.100
584.500	-17.157	0.100
584.600	-24.923	0.100
584.700	-33.216	0.100
584.800	-22.607	0.100
584.900	-18.604	0.100
585.000	-33.970	0.100
585.100	-24.758	0.100
585.200	-17.571	0.100
585.300	-24.672	0.100
585.400	-28.377	0.100
585.500	-25.589	0.100
585.600	-25.669	0.100
585.700	-22.217	0.100
585.800	-10.057	0.100
585.900	-26.749	0.100
586.000	-25.714	0.100
586.100	-14.432	0.100
586.200	-20.599	0.100
586.300	-20.193	0.100
586.400	-29.106	0.100
586.500	-25.564	0.100
586.600	-23.121	0.100
586.700	-18.928	0.100
586.800	-27.240	0.100
586.900	-21.144	0.100
587.000	-25.612	0.100
587.100	-11.222	0.100
587.200	-20.366	0.100
587.300	-6.805	0.100
587.400	-12.785	0.100
587.500	-29.105	0.100
587.600	-21.964	0.100
587.700	-32.616	0.100
587.800	-40.118	0.100
587.900	-19.796	0.100
588.000	-20.819	0.100
588.100	-20.434	0.100
588.200	-12.762	0.100
588.300	-22.060	0.100
588.400	-17.491	0.100
588.500	-30.583	0.100
588.600	-15.072	0.100
588.700	-29.795	0.100
588.800	-31.557	0.100
588.900	-25.911	0.100
589.000	-28.459	0.100
589.100	-24.168	0.100
589.200	-12.172	0.100
589.300	-33.657	0.100
589.400	-19.630	0.100
589.500	-17.541	0.100
589.600	-16.022	0.100
589.700	-24.238	0.100
589.800	-31.755	0.100
589.900	-23.116	0.100
590.000	-28.312	0.100
590.100	-39.808	0.100
590.200	-35.852	0.100
590.300	-29.376	0.100
590.400	-14.143	0.100
590.500	-14.644	0.100
590.600	-13.050	0.100
590.700	-15.621	0.100
590.800	-31.469	0.100
590.900	-29.461	0.100
591.000	-24.213	0.100
591.100	-25.140	0.100
591.200	-25.429	0.100
591.300	-15.409	0.100
591.400	-29.087	0.100
591.500	-25.802	0.100
591.600	-17.915	0.100
591.700	-17.957	0.100
591.800	-11.016	0.100
591.900	-12.090	0.100
592.000	-28.888	0.100
592.100	-23.084	0.100
592.200	-16.045	0.100
592.300	-25.299	0.100
592.400	-19.781	0.100
592.500	-21.303	0.100
592.600	-26.225	0.100
592.700	-16.760	0.100
592.800	-17.483	0.100
592.900	-15.381	0.100
593.000	-30.262	0.100
593.100	-20.391	0.100
593.200	-25.122	0.100
593.300	-14.437	0.100
593.400	-24.995	0.100
593.500	-25.730	0.100
593.600	-13.521	0.100
593.700	-26.803	0.100
593.800	-10.678	0.100
593.900	-22.391	0.100
594.000	-17.211	0.100
594.100	-24.170	0.100
594.200	-20.751	0.100
594.300	-18.118	0.100
594.400	-29.832	0.100
594.500	-25.126	0.100
594.600	-39.164	0.100
594.700	-12.575	0.100
594.800	-22.594	0.100
594.900	-17.584	0.100
595.000	-28.179	0.100
595.100	-22.284	0.100
595.200	-6.927	0.100
595.300	-18.650	0.100
595.400	-24.080	0.100
595.500	-25.441	0.100
595.600	-34.867	0.100
595.700	-21.648	0.100
595.800	-23.159	0.100
595.900	-14.150	0.100
596.000	-21.868	0.100
596.100	-24.814	0.100
596.200	-6.314	0.100
596.300	-18.616	0.100
596.400	-10.772	0.100
596.500	-13.142	0.100
596.600	-15.823	0.100
596.700	-29.776	0.100
596.800	-14.564	0.100
596.900	-21.864	0.100
597.000	-18.149	0.100
597.100	-26.630	0.100
597.200	-18.622	0.100
597.300	-17.811	0.100
597.400	-23.710	0.100
597.500	-19.158	0.100
597.600	-20.630	0.100
597.700	-25.623	0.100
597.800	-34.690	0.100
597.900	-9.169	0.100
598.000	-14.305	0.100
598.100	-18.832	0.100
598.200	-26.944	0.100
598.300	-11.591	0.100
598.400	-27.498	0.100
598.500	-24.322	0.100
598.600	-23.605	0.100
598.700	-21.167	0.100
598.800	-22.785	0.100
598.900	-27.328	0.100
599.000	-21.204	0.100
599.100	-26.038	0.100
599.200	-37.742	0.100
599.300	-14.828	0.100
599.400	-21.095	0.100
599.500	-1.880	0.100
599.600	-15.714	0.100
599.700	-16.178	0.100
599.800	-17.488	0.100
599.900	-18.920	0.100
600.000	-26.458	0.100
600.100	-25.341	0.100
600.200	-26.665	0.100
600.300	-30.047	0.100
600.400	-11.515	0.100
600.500	-34.387	0.100
600.600	-19.376	0.100
600.700	-17.017	0.100
600.800	-11.248	0.100
600.900	-17.863	0.100
601.000	-22.804	0.100
601.100	-13.505	0.100
601.200	-21.946	0.100
601.300	-23.705	0.100
601.400	-8.933	0.100
601.500	-26.985	0.100
601.600	-6.089	0.100
601.700	-21.550	0.100
601.800	-24.926	0.100
601.900	-24.883	0.100
602.000	-10.322	0.100
602.100	-20.734	0.100
602.200	-7.042	0.100
602.300	-15.466	0.100
602.400	-22.728	0.100
602.500	-14.109	0.100
602.600	-14.615	0.100
602.700	-16.730	0.100
602.800	-41.419	0.100
602.900	-12.531	0.100
603.000	-25.986	0.100
603.100	-13.433	0.100
603.200	-13.939	0.100
603.300	-25.491	0.100
603.400	-21.100	0.100
603.500	-5.583	0.100
603.600	-26.957	0.100
603.700	-31.087	0.100
603.800	-32.157	0.100
603.900	-26.219	0.100
604.000	-24.751	0.100
604.100	-13.271	0.100
604.200	-10.950	0.100
604.300	-29.502	0.100
604.400	-22.084	0.100
604.500	-17.033	0.100
604.600	-22.241	0.100
604.700	-9.619	0.100
604.800	-22.941	0.100
604.900	-16.860	0.100
605.000	-20.187	0.100
605.100	-11.949	0.100
605.200	-29.722	0.100
605.300	-9.171	0.100
605.400	-25.552	0.100
605.500	-15.506	0.100
605.600	-22.614	0.100
605.700	-16.463	0.100
605.800	-27.227	0.100
605.900	-11.994	0.100
606.000	-9.103	0.100
606.100	-11.728	0.100
606.200	-20.075	0.100
606.300	-11.136	0.100
606.400	-4.802	0.100
606.500	-18.093	0.100
606.600	-25.543	0.100
606.700	-17.243	0.100
606.800	-14.117	0.100
606.900	-19.467	0.100
607.000	-32.139	0.100
607.100	-17.766	0.100
607.200	-18.427	0.100
607.300	-23.364	0.100
607.400	-17.749	0.100
607.500	-22.935	0.100
607.600	-9.299	0.100
607.700	-9.364	0.100
607.800	-12.015	0.100
607.900	-17.480	0.100
608.000	-8.280	0.100
608.100	-13.809	0.100
608.200	-30.065	0.100
608.300	-17.155	0.100
608.400	-10.602	0.100
608.500	-27.038	0.100
608.600	-26.716	0.100
608.700	-21.970	0.100
608.800	-28.991	0.100
608.900	-19.362	0.100
609.000	-26.709	0.100
609.100	-13.852	0.100
609.200	-16.910	0.100
609.300	-10.721	0.100
609.400	-29.896	0.100
609.500	-16.597	0.100
609.600	-11.988	0.100
609.700	-13.670	0.100
609.800	-35.564	0.100
609.900	-24.134	0.100
610.000	-8.326	0.100
610.100	-10.643	0.100
610.200	-24.858	0.100
610.300	-10.944	0.100
610.400	-18.231	0.100
610.500	-35.636	0.100
610.600	-16.408	0.100
610.700	-8.057	0.100
610.800	-13.616	0.100
610.900	-19.802	0.100
611.000	-29.863	0.100
611.100	-12.854	0.100
611.200	-16.741	0.100
611.300	-23.047	0.100
611.400	-16.404	0.100
611.500	-27.309	0.100
611.600	-12.119	0.099
611.700	-22.281	0.100
611.800	-22.459	0.100
611.900	-16.325	0.100
612.000	-27.118	0.100
612.100	-20.003	0.100
612.200	-13.296	0.099
612.300	-16.024	0.099
612.400	-14.757	0.099
612.500	-9.264	0.099
612.600	-17.627	0.099
612.700	-28.712	0.099
612.800	-19.177	0.099
612.900	-24.052	0.099
613.000	-16.326	0.099
613.100	-3.290	0.099
613.200	-15.429	0.099
613.300	-23.153	0.099
613.400	-24.257	0.099
613.500	-26.197	0.099
613.600	-23.731	0.099
613.700	-30.022	0.099
613.800	-19.843	0.099
613.900	-15.544	0.099
614.000	-20.531	0.099
614.100	-14.383	0.099
614.200	-3.059	0.099
614.300	-28.956	0.099
614.400	-37.126	0.099
614.500	-14.744	0.099
614.600	-15.849	0.099
614.700	-9.116	0.099
614.800	-26.923	0.099
614.900	-12.390	0.099
615.000	-18.258	0.099
615.100	-6.875	0.099
615.200	-32.295	0.099
615.300	-15.137	0.099
615.400	-9.511	0.099
615.500	-22.738	0.099
615.600	-21.435	0.099
615.700	-11.975	0.099
615.800	-4.961	0.099
615.900	-26.075	0.099
616.000	-25.963	0.099
616.100	-19.243	0.099
616.200	-14.610	0.099
616.300	-29.708	0.099
616.400	-12.603	0.099
616.500	0.201	0.099
616.600	-18.241	0.099
616.700	-10.397	0.099
616.800	-27.561	0.099
616.900	-30.558	0.099
617.000	-27.811	0.099
617.100	-19.378	0.099
617.200	-30.309	0.099
617.300	-28.336	0.099
617.400	-12.907	0.099
617.500	-19.605	0.099
617.600	-14.102	0.099
617.700	-27.827	0.099
617.800	-10.007	0.099
617.900	-19.394	0.099
618.000	-24.808	0.099
618.100	-15.916	0.099
618.200	-21.296	0.099
618.300	-28.894	0.099
618.400	-25.236	0.099
618.500	-15.609	0.099
618.600	-16.047	0.099
618.700	-14.224	0.099
618.800	-29.137	0.099
618.900	-22.160	0.099
619.000	11.536	0.099
619.100	-4.439	0.099
619.200	-4.864	0.099
619.300	-20.727	0.099
619.400	-19.107	0.099
619.500	-15.554	0.099
619.600	-15.560	0.099
619.700	-16.947	0.099
619.800	-4.409	0.099
619.900	-13.628	0.099
620.000	-23.764	0.099
620.100	-32.523	0.099
620.200	-16.811	0.099
620.300	-22.514	0.099
620.400	-22.917	0.099
620.500	-29.309	0.099
620.600	-11.762	0.099
620.700	-17.245	0.099
620.800	-14.225	0.099
620.900	-28.959	0.099
621.000	-12.362	0.099
621.100	-10.265	0.099
621.200	-16.896	0.099
621.300	-21.315	0.099
621.400	-16.184	0.099
621.500	-25.241	0.099
621.600	-21.310	0.099
621.700	-13.469	0.099
621.800	-14.637	0.099
621.900	-30.540	0.099
622.000	-24.766	0.099
622.100	-11.606	0.099
622.200	-22.278	0.099
622.300	-9.206	0.099
622.400	-11.625	0.099
622.500	-12.840	0.099
622.600	-17.682	0.099
622.700	-27.611	0.099
622.800	-18.378	0.099
622.900	-13.144	0.099
623.000	-25.573	0.099
623.100	-23.132	0.099
623.200	-21.740	0.099
623.300	-19.274	0.099
623.400	-17.532	0.099
623.500	-15.173	0.099
623.600	-10.338	0.099
623.700	-24.692	0.099
623.800	-24.243	0.099
623.900	-13.412	0.099
624.000	-8.787	0.099
624.100	-26.016	0.099
624.200	-18.331	0.099
624.300	-9.822	0.099
624.400	-14.687	0.099
624.500	-21.797	0.099
624.600	-18.819	0.099
624.700	-12.302	0.099
624.800	-18.934	0.099
624.900	-13.517	0.099
625.000	-15.292	0.099
625.100	-26.192	0.099
625.200	-15.062	0.099
625.300	-26.591	0.099
625.400	-25.983	0.099
625.500	-15.427	0.099
625.600	-17.795	0.099
625.700	-26.830	0.099
625.800	-15.323	0.099
625.900	-14.184	0.099
626.000	-13.700	0.099
626.100	-24.484	0.099
626.200	-6.245	0.099
626.300	-7.465	0.099
626.400	-24.081	0.099
626.500	-22.525	0.099
626.600	-29.284	0.099
626.700	-10.051	0.099
626.800	-21.640	0.099
626.900	-9.683	0.099
627.000	-9.537	0.099
627.100	-9.111	0.099
627.200	-0.350	0.099
627.300	-14.046	0.099
627.400	-19.498	0.099
627.500	-25.439	0.099
627.600	-26.693	0.099
627.700	-22.652	0.099
627.800	-21.400	0.099
627.900	-25.014	0.099
628.000	-17.129	0.099
628.100	-4.867	0.099
628.200	-19.309	0.099
628.300	-24.839	0.099
628.400	-25.848	0.099
628.500	-22.950	0.099
628.600	-21.036	0.099
628.700	-8.706	0.099
628.800	-27.309	0.099
628.900	-9.037	0.099
629.000	-17.425	0.099
629.100	-16.576	0.099
629.200	-19.810	0.099
629.300	-19.506	0.100
629.400	-14.668	0.100
629.500	-16.084	0.100
629.600	-14.082	0.100
629.700	-17.793	0.100
629.800	-17.472	0.100
629.900	-21.649	0.100
630.000	-18.303	0.100
630.100	-8.365	0.100
630.200	-23.387	0.100
630.300	-9.346	0.100
630.400	-5.303	0.100
630.500	-11.291	0.100
630.600	-5.037	0.100
630.700	-11.814	0.100
630.800	2.995	0.100
630.900	-9.152	0.100
631.000	4.735	0.100
631.100	6.057	0.100
631.200	0.039	0.100
631.300	-0.879	0.100
631.400	-1.362	0.100
631.500	27.564	0.100
631.600	4.743	0.100
631.700	11.498	0.100
631.800	12.633	0.100
631.900	6.005	0.100
632.000	5.246	0.100
632.100	10.824	0.100
632.200	17.232	0.100
632.300	10.021	0.100
632.400	16.088	0.100
632.500	16.831	0.100
632.600	7.971	0.100
632.700	21.811	0.100
632.800	12.637	0.100
632.900	10.640	0.100
633.000	7.308	0.100
633.100	15.761	0.100
633.200	20.114	0.100
633.300	-3.916	0.100
633.400	6.158	0.100
633.500	15.541	0.100
633.600	13.915	0.100
633.700	5.212	0.100
633.800	7.624	0.100
633.900	13.677	0.100
634.000	8.060	0.100
634.100	0.960	0.100
634.200	13.037	0.100
634.300	19.060	0.100
634.400	4.555	0.100
634.500	-1.353	0.100
634.600	17.680	0.100
634.700	-1.422	0.100
634.800	19.531	0.100
634.900	9.935	0.100
635.000	1.800	0.100
635.100	41.309	0.100
635.200	6.176	0.100
635.300	19.278	0.100
635.400	15.584	0.100
635.500	22.832	0.100
635.600	12.372	0.100
635.700	16.365	0.100
635.800	20.605	0.100
635.900	-0.836	0.100
636.000	0.692	0.100
636.100	0.981	0.100
636.200	0.967	0.100
636.300	7.658	0.100
636.400	24.169	0.100
636.500	17.039	0.100
636.600	18.035	0.100
636.700	16.860	0.100
636.800	12.094	0.100
636.900	18.352	0.100
637.000	1.563	0.100
637.100	16.418	0.100
637.200	12.644	0.100
637.300	14.706	0.100
637.400	7.891	0.100
637.500	11.114	0.100
637.600	22.699	0.100
637.700	13.321	0.100
637.800	10.289	0.100
637.900	16.347	0.100
638.000	7.899	0.100
638.100	1.185	0.100
638.200	13.702	0.100
638.300	9.194	0.100
638.400	21.791	0.100
638.500	22.602	0.100
638.600	28.798	0.100
638.700	22.248	0.100
638.800	0.401	0.100
638.900	18.514	0.100
639.000	2.678	0.100
639.100	35.108	0.100
639.200	24.201	0.100
639.300	25.138	0.100
639.400	20.686	0.100
639.500	27.746	0.100
639.600	25.852	0.100
639.700	23.142	0.100
639.800	9.307	0.100
639.900	34.117	0.100
640.000	30.934	0.100
640.100	28.685	0.100
640.200	13.599	0.100
640.300	9.745	0.100
640.400	30.083	0.100
640.500	25.332	0.100
640.600	29.536	0.100
640.700	25.532	0.100
640.800	23.253	0.100
640.900	18.520	0.100
641.000	35.103	0.100
641.100	20.529	0.100
641.200	8.985	0.100
641.300	27.752	0.100
641.400	18.607	0.100
641.500	32.412	0.100
641.600	35.585	0.100
641.700	31.018	0.100
641.800	15.812	0.100
641.900	29.622	0.100
642.000	27.019	0.100
642.100	29.791	0.100
642.200	31.937	0.100
642.300	23.679	0.100
642.400	24.243	0.100
642.500	24.563	0.100
642.600	19.481	0.100
642.700	36.693	0.100
642.800	29.325	0.100
642.900	31.051	0.100
643.000	33.914	0.100
643.100	45.222	0.100
643.200	26.495	0.100
643.300	41.386	0.100
643.400	51.301	0.100
643.500	25.269	0.100
643.600	35.293	0.100
643.700	39.524	0.100
643.800	23.805	0.100
643.900	26.689	0.100
644.000	40.462	0.100
644.100	40.579	0.100
644.200	32.121	0.100
644.300	32.840	0.100
644.400	23.669	0.100
644.500	34.465	0.100
644.600	32.191	0.100
644.700	38.939	0.100
644.800	28.504	0.100
644.900	33.719	0.100
645.000	41.568	0.100
645.100	37.112	0.100
645.200	41.732	0.100
645.300	32.899	0.100
645.400	31.296	0.100
645.500	43.151	0.100
645.600	41.168	0.100
645.700	42.611	0.100
645.800	37.638	0.100
645.900	31.863	0.100
646.000	45.212	0.100
646.100	28.243	0.100
646.200	26.184	0.100
646.300	50.514	0.100
646.400	38.036	0.100
646.500	43.659	0.100
646.600	30.913	0.100
646.700	28.202	0.100
646.800	44.366	0.100
646.900	35.319	0.100
647.000	33.046	0.100
647.100	35.250	0.100
647.200	39.955	0.100
647.300	38.141	0.100
647.400	36.969	0.100
647.500	34.938	0.100
647.600	41.719	0.100
647.700	46.358	0.100
647.800	32.317	0.100
647.900	44.979	0.100
648.000	32.655	0.100
648.100	29.338	0.100
648.200	36.366	0.100
648.300	41.862	0.100
648.400	48.608	0.100
648.500	29.298	0.100
648.600	49.339	0.100
648.700	35.759	0.100
648.800	35.415	0.100
648.900	45.090	0.100
649.000	39.097	0.100
649.100	40.606	0.100
649.200	36.415	0.100
649.300	42.068	0.100
649.400	42.325	0.100
649.500	39.253	0.100
649.600	42.719	0.100
649.700	44.952	0.100
649.800	39.862	0.100
649.900	34.784	0.100
650.000	33.632	0.100
650.100	39.895	0.100
650.200	42.565	0.100
650.300	43.431	0.100
650.400	40.507	0.100
650.500	37.460	0.100
650.600	41.777	0.100
650.700	47.553	0.100
650.800	47.750	0.100
650.900	29.129	0.100
651.000	24.013	0.100
651.100	65.992	0.100
651.200	42.447	0.100
651.300	49.361	0.100
651.400	29.792	0.100
651.500	19.402	0.100
651.600	33.938	0.100
651.700	53.748	0.100
651.800	39.801	0.100
651.900	43.163	0.100
652.000	40.764	0.100
652.100	36.810	0.100
652.200	34.584	0.100
652.300	41.334	0.100
652.400	41.437	0.100
652.500	41.077	0.100
652.600	24.419	0.100
652.700	29.760	0.100
652.800	45.006	0.100
652.900	40.561	0.100
653.000	36.616	0.100
653.100	39.335	0.100
653.200	32.730	0.100
653.300	42.377	0.100
653.400	38.230	0.100
653.500	44.068	0.100
653.600	46.796	0.100
653.700	46.011	0.100
653.800	35.758	0.100
653.900	29.836	0.100
654.000	51.226	0.100
654.100	44.216	0.100
654.200	28.118	0.100
654.300	31.638	0.100
654.400	44.539	0.100
654.500	50.818	0.100
654.600	40.863	0.100
654.700	33.001	0.100
654.800	33.004	0.100
654.900	43.531	0.100
655.000	16.392	0.100
655.100	34.150	0.100
655.200	41.151	0.100
655.300	56.720	0.100
655.400	36.574	0.100
655.500	47.373	0.100
655.600	32.272	0.100
655.700	39.739	0.100
655.800	45.118	0.100
655.900	48.885	0.100
656.000	34.395	0.100
656.100	33.352	0.100
656.200	31.041	0.100
656.300	43.731	0.100
656.400	39.364	0.100
656.500	35.269	0.100
656.600	26.757	0.100
656.700	36.172	0.100
656.800	44.271	0.100
656.900	33.148	0.100
657.000	32.218	0.100
657.100	38.089	0.100
657.200	37.341	0.100
657.300	44.340	0.100
657.400	41.303	0.100
657.500	34.317	0.100
657.600	34.007	0.100
657.700	40.139	0.100
657.800	17.201	0.100
657.900	50.738	0.100
658.000	40.234	0.100
658.100	38.531	0.100
658.200	46.574	0.100
658.300	20.532	0.100
658.400	23.662	0.100
658.500	43.045	0.100
658.600	47.253	0.100
658.700	41.572	0.100
658.800	28.908	0.100
658.900	35.081	0.100
659.000	45.027	0.100
659.100	31.431	0.100
659.200	36.656	0.100
659.300	33.814	0.100
659.400	26.844	0.100
659.500	50.767	0.100
659.600	31.811	0.100
659.700	39.621	0.100
659.800	43.399	0.100
659.900	41.398	0.100
660.000	26.390	0.100
660.100	37.949	0.100
660.200	33.371	0.100
660.300	36.075	0.100
660.400	42.580	0.100
660.500	46.154	0.100
660.600	36.371	0.100
660.700	31.561	0.100
660.800	20.460	0.100
660.900	38.440	0.100
661.000	33.591	0.100
661.100	34.906	0.100
661.200	39.956	0.100
661.300	40.488	0.100
661.400	43.789	0.100
661.500	43.023	0.100
661.600	30.305	0.100
661.700	37.760	0.100
661.800	34.666	0.100
661.900	41.829	0.100
662.000	35.334	0.100
662.100	23.528	0.100
662.200	39.341	0.100
662.300	27.938	0.100
662.400	41.973	0.100
662.500	31.512	0.100
662.600	50.774	0.100
662.700	40.452	0.100
662.800	39.762	0.100
662.900	34.371	0.100
663.000	36.012	0.100
663.100	42.397	0.100
663.200	37.078	0.100
663.300	39.983	0.100
663.400	30.741	0.100
663.500	42.644	0.100
663.600	34.434	0.100
663.700	37.041	0.100
663.800	31.362	0.100
663.900	31.701	0.100
664.000	31.428	0.100
664.100	30.233	0.100
664.200	28.651	0.100
664.300	33.208	0.100
664.400	40.881	0.100
664.500	42.857	0.100
664.600	33.228	0.100
664.700	37.000	0.100
664.800	31.924	0.100
664.900	33.872	0.100
665.000	28.589	0.100
665.100	46.603	0.100
665.200	29.550	0.100
665.300	39.352	0.100
665.400	41.633	0.100
665.500	40.300	0.100
665.600	44.457	0.100
665.700	40.849	0.100
665.800	33.177	0.100
665.900	35.320	0.100
666.000	31.563	0.100
666.100	38.723	0.100
666.200	39.208	0.100
666.300	40.803	0.100
666.400	34.095	0.100
666.500	41.904	0.099
666.600	25.266	0.100
666.700	29.500	0.099
666.800	24.040	0.100
666.900	32.712	0.100
667.000	39.172	0.100
667.100	33.281	0.100
667.200	37.451	0.099
667.300	31.460	0.099
667.400	29.524	0.099
667.500	30.365	0.099
667.600	40.626	0.100
667.700	31.317	0.099
667.800	35.503	0.100
667.900	39.849	0.100
668.000	38.138	0.100
668.100	34.811	0.099
668.200	34.498	0.099
668.300	21.166	0.099
668.400	47.353	0.099
668.500	33.061	0.099
668.600	46.814	0.099
668.700	31.646	0.099
668.800	33.590	0.099
668.900	40.823	0.099
669.000	38.012	0.099
669.100	23.774	0.099
669.200	34.457	0.099
669.300	29.996	0.099
669.400	26.045	0.099
669.500	34.461	0.099
669.600	33.840	0.099
669.700	43.004	0.099
669.800	26.978	0.099
669.900	29.432	0.099
670.000	34.621	0.099
670.100	26.385	0.099
670.200	31.280	0.099
670.300	37.954	0.099
670.400	39.088	0.099
670.500	32.983	0.099
670.600	38.970	0.099
670.700	31.392	0.099
670.800	30.449	0.099
670.900	34.721	0.099
671.000	42.951	0.099
671.100	42.095	0.099
671.200	29.107	0.099
671.300	24.880	0.099
671.400	22.092	0.099
671.500	35.181	0.099
671.600	28.650	0.099
671.700	35.259	0.099
671.800	35.068	0.099
671.900	22.433	0.099
672.000	48.404	0.099
672.100	34.900	0.099
672.200	36.819	0.099
672.300	42.320	0.099
672.400	42.235	0.099
672.500	33.959	0.099
672.600	30.068	0.099
672.700	29.636	0.099
672.800	12.561	0.099
672.900	36.004	0.099
673.000	36.919	0.099
673.100	39.486	0.099
673.200	39.681	0.099
673.300	36.046	0.099
673.400	35.814	0.099
673.500	31.432	0.099
673.600	36.942	0.099
673.700	31.491	0.099
673.800	35.026	0.099
673.900	40.228	0.099
674.000	37.754	0.099
674.100	22.606	0.099
674.200	45.597	0.099
674.300	30.070	0.099
674.400	35.775	0.099
674.500	33.253	0.099
674.600	35.739	0.099
674.700	33.407	0.099
674.800	32.689	0.099
674.900	21.790	0.099
675.000	33.601	0.099
675.100	34.952	0.099
675.200	33.587	0.099
675.300	21.450	0.099
675.400	28.262	0.099
675.500	34.887	0.099
675.600	26.838	0.099
675.700	36.465	0.099
675.800	37.892	0.099
675.900	23.181	0.099
676.000	32.883	0.099
676.100	28.712	0.099
676.200	27.528	0.099
676.300	21.198	0.099
676.400	33.971	0.099
676.500	33.025	0.099
676.600	42.422	0.099
676.700	22.751	0.099
676.800	37.176	0.099
676.900	31.379	0.099
677.000	35.036	0.099
677.100	22.417	0.099
677.200	43.641	0.099
677.300	38.445	0.099
677.400	31.693	0.099
677.500	30.312	0.099
677.600	42.607	0.099
677.700	41.651	0.099
677.800	30.116	0.099
677.900	36.905	0.099
678.000	26.948	0.099
678.100	32.733	0.099
678.200	25.776	0.099
678.300	37.933	0.099
678.400	31.644	0.099
678.500	31.884	0.099
678.600	32.773	0.099
678.700	34.178	0.099
678.800	36.898	0.099
678.900	35.660	0.099
679.000	30.110	0.099
679.100	34.825	0.099
679.200	33.636	0.099
679.300	31.198	0.099
679.400	41.646	0.099
679.500	40.176	0.099
679.600	21.735	0.099
679.700	43.964	0.099
679.800	21.935	0.099
679.900	40.051	0.099
680.000	20.195	0.099
680.100	37.610	0.099
680.200	30.649	0.099
680.300	48.813	0.099
680.400	26.242	0.099
680.500	37.471	0.099
680.600	33.253	0.099
680.700	24.638	0.099
680.800	35.773	0.099
680.900	37.164	0.099
681.000	23.680	0.099
681.100	45.814	0.099
681.200	31.804	0.099
681.300	33.046	0.099
681.400	29.557	0.099
681.500	24.613	0.099
681.600	32.856	0.099
681.700	42.760	0.099
681.800	26.925	0.099
681.900	17.052	0.099
682.000	47.805	0.099
682.100	38.436	0.099
682.200	34.707	0.099
682.300	32.504	0.099
682.400	26.135	0.099
682.500	39.163	0.099
682.600	34.140	0.099
682.700	23.539	0.099
682.800	29.498	0.099
682.900	27.475	0.099
683.000	38.389	0.099
683.100	36.379	0.099
683.200	38.156	0.099
683.300	32.979	0.099
683.400	37.019	0.099
683.500	35.000	0.099
683.600	35.689	0.099
683.700	34.448	0.099
683.800	38.421	0.099
683.900	24.662	0.099
684.000	24.418	0.099
684.100	40.016	0.099
684.200	28.411	0.099
684.300	32.709	0.099
684.400	30.242	0.099
684.500	30.982	0.099
684.600	32.297	0.099
684.700	25.566	0.099
684.800	36.063	0.099
684.900	36.322	0.099
685.000	20.240	0.099
685.100	30.830	0.099
685.200	31.887	0.099
685.300	36.623	0.099
685.400	32.702	0.099
685.500	37.954	0.099
685.600	40.960	0.099
685.700	26.803	0.099
685.800	29.752	0.099
685.900	29.663	0.099
686.000	29.309	0.099
686.100	40.813	0.099
686.200	42.952	0.099
686.300	40.608	0.099
686.400	24.121	0.099
686.500	28.838	0.099
686.600	25.229	0.099
686.700	46.135	0.099
686.800	41.126	0.099
686.900	27.341	0.099
687.000	42.755	0.099
687.100	31.992	0.099
687.200	28.025	0.099
687.300	25.891	0.099
687.400	42.933	0.099
687.500	17.687	0.099
687.600	27.559	0.099
687.700	38.725	0.099
687.800	44.375	0.099
687.900	28.212	0.099
688.000	30.708	0.099
688.100	38.038	0.099
688.200	33.972	0.099
688.300	17.903	0.100
688.400	43.966	0.099
688.500	21.436	0.100
688.600	31.339	0.100
688.700	38.804	0.100
688.800	34.107	0.100
688.900	24.322	0.100
689.000	31.028	0.100
689.100	21.635	0.100
689.200	43.056	0.100
689.300	29.169	0.100
689.400	22.554	0.100
689.500	28.608	0.099
689.600	23.259	0.099
689.700	36.196	0.099
689.800	25.497	0.099
689.900	39.660	0.099
690.000	32.276	0.099
690.100	32.304	0.099
690.200	26.517	0.099
690.300	36.072	0.099
690.400	22.205	0.099
690.500	26.163	0.099
690.600	28.227	0.099
690.700	-3.018	0.099
690.800	16.064	0.099
690.900	19.942	0.099
691.000	13.938	0.099
691.100	21.990	0.099
691.200	11.217	0.099
691.300	23.285	0.099
691.400	-6.221	0.099
691.500	13.030	0.099
691.600	1.665	0.099
691.700	6.683	0.099
691.800	3.038	0.099
691.900	7.363	0.099
692.000	15.420	0.099
692.100	1.279	0.099
692.200	-3.552	0.099
692.300	0.649	0.099
692.400	-8.336	0.099
692.500	3.838	0.099
692.600	-1.985	0.099
692.700	10.698	0.099
692.800	-6.189	0.099
692.900	-6.355	0.099
693.000	-5.468	0.099
693.100	-15.226	0.099
693.200	-5.620	0.099
693.300	-9.156	0.099
693.400	-4.663	0.099
693.500	-13.689	0.099
693.600	-15.379	0.099
693.700	-12.000	0.099
693.800	6.202	0.099
693.900	-9.382	0.099
694.000	-5.490	0.099
694.100	-2.882	0.099
694.200	-15.748	0.099
694.300	-3.730	0.099
694.400	-10.358	0.099
694.500	-2.125	0.099
694.600	-8.441	0.099
694.700	-18.167	0.099
694.800	-18.503	0.099
694.900	-17.822	0.099
695.000	-5.435	0.099
695.100	-6.761	0.099
695.200	-6.645	0.099
695.300	-15.094	0.099
695.400	-8.480	0.099
695.500	-6.479	0.099
695.600	-5.773	0.099
695.700	-9.950	0.099
695.800	-9.518	0.099
695.900	-9.741	0.099
696.000	-5.261	0.099
696.100	-14.706	0.099
696.200	-32.082	0.099
696.300	-14.554	0.099
696.400	-15.418	0.099
696.500	-11.360	0.099
696.600	-15.467	0.099
696.700	-5.824	0.099
696.800	-16.870	0.099
696.900	-10.537	0.099
697.000	-8.458	0.099
697.100	-18.282	0.099
697.200	-20.914	0.099
697.300	-18.277	0.099
697.400	-19.445	0.099
697.500	-14.238	0.099
697.600	-26.686	0.099
697.700	-5.647	0.099
697.800	-17.151	0.099
697.900	-18.628	0.099
698.000	-11.655	0.099
698.100	-24.146	0.099
698.200	-20.713	0.099
698.300	-7.553	0.099
698.400	-24.298	0.099
698.500	-13.873	0.099
698.600	-16.261	0.099
698.700	-2.827	0.099
698.800	-25.867	0.099
698.900	-14.260	0.099
699.000	-17.600	0.099
699.100	-4.125	0.099
699.200	-15.114	0.099
699.300	-18.975	0.099
699.400	-23.190	0.099
699.500	-14.406	0.099
699.600	-13.076	0.099
699.700	-13.882	0.099
699.800	-14.734	0.099
699.900	-17.409	0.099
700.000	-18.703	0.099
700.100	-20.273	0.099
700.200	-8.547	0.099
700.300	-15.975	0.099
700.400	-23.752	0.099
700.500	-20.391	0.099
700.600	-23.504	0.099
700.700	-19.154	0.099
700.800	-19.926	0.099
700.900	-19.093	0.099
701.000	-14.038	0.099
701.100	-23.350	0.099
701.200	-12.224	0.099
701.300	-18.462	0.099
701.400	-24.323	0.099
701.500	-22.923	0.099
701.600	-14.457	0.099
701.700	-13.680	0.099
701.800	-12.735	0.099
701.900	-15.181	0.099
702.000	-31.723	0.099
702.100	-27.149	0.099
702.200	-18.166	0.099
702.300	-16.327	0.099
702.400	-9.151	0.099
702.500	-27.540	0.099
702.600	-31.167	0.099
702.700	-14.054	0.099
702.800	-19.688	0.099
702.900	-30.808	0.099
703.000	-20.430	0.099
703.100	-17.615	0.099
703.200	-28.761	0.099
703.300	-24.887	0.099
703.400	-16.254	0.099
703.500	-26.122	0.099
703.600	-20.764	0.099
703.700	-20.409	0.099
703.800	-14.451	0.099
703.900	-28.486	0.099
704.000	-26.826	0.099
704.100	-15.387	0.099
704.200	-15.228	0.099
704.300	-19.354	0.099
704.400	-22.639	0.099
704.500	-13.867	0.099
704.600	-44.563	0.099
704.700	-30.322	0.099
704.800	-16.234	0.099
704.900	-29.216	0.099
705.000	-21.752	0.099
705.100	-34.770	0.099
705.200	-22.145	0.099
705.300	-28.338	0.099
705.400	-13.291	0.099
705.500	-25.925	0.099
705.600	-35.245	0.099
705.700	-16.736	0.099
705.800	-15.298	0.099
705.900	-15.046	0.099
706.000	-22.250	0.099
706.100	-34.436	0.099
706.200	-23.208	0.099
706.300	-22.905	0.099
706.400	-25.578	0.099
706.500	-28.973	0.099
706.600	-27.999	0.099
706.700	-21.002	0.099
706.800	-25.901	0.099
706.900	-33.018	0.099
707.000	-25.140	0.099
707.100	-23.253	0.099
707.200	-21.273	0.099
707.300	-31.417	0.099
707.400	-10.769	0.099
707.500	-21.726	0.099
707.600	-28.101	0.099
707.700	-23.212	0.099
707.800	-19.137	0.099
707.900	-24.006	0.099
708.000	-26.724	0.099
708.100	-22.630	0.099
708.200	-37.612	0.099
708.300	-38.085	0.099
708.400	-17.225	0.099
708.500	-18.531	0.099
708.600	-26.818	0.099
708.700	-21.923	0.099
708.800	-23.838	0.099
708.900	-38.029	0.099
709.000	-30.473	0.099
709.100	-30.980	0.099
709.200	-11.303	0.099
709.300	-9.400	0.099
709.400	-19.041	0.099
709.500	-19.155	0.099
709.600	-15.187	0.099
709.700	-31.262	0.099
709.800	-22.368	0.099
709.900	-21.941	0.099
710.000	-29.623	0.099
710.100	-27.333	0.099
710.200	-39.402	0.099
710.300	-18.172	0.099
710.400	-13.766	0.099
710.500	-20.040	0.099
710.600	-20.324	0.099
710.700	-34.489	0.099
710.800	-27.501	0.099
710.900	-32.169	0.099
711.000	-28.670	0.099
711.100	-26.066	0.099
711.200	-11.975	0.099
711.300	-16.263	0.099
711.400	-20.584	0.099
711.500	-30.352	0.099
711.600	-33.148	0.099
711.700	-18.578	0.099
711.800	-20.370	0.099
711.900	-23.909	0.099
712.000	-24.591	0.099
712.100	-30.730	0.099
712.200	-24.472	0.099
712.300	-20.797	0.099
712.400	-32.556	0.099
712.500	-22.371	0.099
712.600	-21.153	0.099
712.700	-32.254	0.099
712.800	-11.650	0.099
712.900	-27.199	0.099
713.000	-24.986	0.099
713.100	-30.121	0.099
713.200	-33.924	0.099
713.300	-30.556	0.099
713.400	-18.180	0.099
713.500	-37.780	0.099
713.600	-5.730	0.099
713.700	-22.070	0.099
713.800	-34.260	0.099
713.900	-18.944	0.099
714.000	-22.934	0.099
714.100	-24.685	0.099
714.200	-25.949	0.099
714.300	-27.137	0.099
714.400	-29.786	0.099
714.500	-37.317	0.099
714.600	-24.270	0.099
714.700	-27.036	0.099
714.800	-27.184	0.099
714.900	-37.793	0.099
715.000	-22.658	0.099
715.100	-23.716	0.099
715.200	-32.766	0.099
715.300	-20.481	0.099
715.400	-34.928	0.099
715.500	-33.475	0.099
715.600	-13.411	0.099
715.700	-30.877	0.099
715.800	-25.124	0.099
715.900	-20.510	0.099
716.000	-27.183	0.099
716.100	-26.336	0.099
716.200	-23.448	0.099
716.300	-15.381	0.099
716.400	-29.424	0.099
716.500	-23.648	0.099
716.600	-27.706	0.099
716.700	-32.500	0.099
716.800	-17.039	0.099
716.900	-18.664	0.099
717.000	-34.227	0.099
717.100	-22.414	0.099
717.200	-35.982	0.099
717.300	-30.557	0.099
717.400	-29.901	0.099
717.500	-24.751	0.099
717.600	-24.755	0.099
717.700	-21.283	0.099
717.800	-20.561	0.099
717.900	-12.742	0.099
718.000	-29.841	0.099
718.100	-29.289	0.099
718.200	-26.337	0.099
718.300	-23.738	0.099
718.400	-34.171	0.099
718.500	-19.454	0.099
718.600	-28.194	0.099
718.700	-30.933	0.099
718.800	-8.278	0.099
718.900	-24.554	0.099
719.000	-31.347	0.099
719.100	-33.322	0.099
719.200	-20.345	0.099
719.300	-24.816	0.099
719.400	-28.458	0.099
719.500	-23.493	0.099
719.600	-21.788	0.099
719.700	-25.824	0.099
719.800	-27.243	0.099
719.900	-38.382	0.099
720.000	-20.252	0.099
720.100	-27.206	0.099
720.200	-29.654	0.099
720.300	-22.973	0.099
720.400	-27.789	0.099
720.500	-25.151	0.099
720.600	-12.074	0.099
720.700	-28.156	0.099
720.800	-27.149	0.099
720.900	-25.378	0.099
721.000	-16.194	0.099
721.100	-23.351	0.099
721.200	-17.845	0.099
721.300	-26.112	0.099
721.400	-31.039	0.099
721.500	-30.822	0.099
721.600	-36.394	0.099
721.700	-16.225	0.099
721.800	-22.316	0.099
721.900	-17.397	0.099
722.000	-30.026	0.099
722.100	-23.332	0.099
722.200	-25.892	0.099
722.300	-23.920	0.099
722.400	-16.388	0.099
722.500	-21.390	0.099
722.600	-29.602	0.099
722.700	-29.917	0.099
722.800	-23.531	0.099
722.900	-30.492	0.099
723.000	-36.706	0.099
723.100	-18.420	0.099
723.200	-24.028	0.099
723.300	-31.597	0.099
723.400	-33.503	0.099
723.500	-18.302	0.099
723.600	-25.302	0.099
723.700	-13.813	0.099
723.800	-34.647	0.099
723.900	-15.476	0.099
724.000	-21.647	0.099
724.100	-24.933	0.099
724.200	-26.177	0.099
724.300	-30.590	0.099
724.400	-26.943	0.099
724.500	-21.480	0.099
724.600	-17.835	0.099
724.700	-17.256	0.099
724.800	-30.721	0.099
724.900	-33.542	0.099
725.000	-30.398	0.099
725.100	-14.523	0.099
725.200	-33.795	0.099
725.300	-29.281	0.099
725.400	-16.192	0.099
725.500	-19.387	0.099
725.600	-28.556	0.099
725.700	-30.892	0.099
725.800	-36.134	0.099
725.900	-32.596	0.099
726.000	-24.657	0.099
726.100	-28.326	0.099
726.200	-21.005	0.099
726.300	-27.249	0.099
726.400	-19.389	0.099
726.500	-29.152	0.099
726.600	-20.443	0.099
726.700	-14.159	0.099
726.800	-18.006	0.099
726.900	-16.692	0.099
727.000	-25.196	0.099
727.100	-27.354	0.099
727.200	-32.850	0.099
727.300	-30.639	0.099
727.400	-6.061	0.099
727.500	-36.756	0.099
727.600	-26.298	0.099
727.700	-24.239	0.099
727.800	-2.058	0.099
727.900	-18.798	0.099
728.000	-23.467	0.099
728.100	-14.810	0.099
728.200	-26.591	0.099
728.300	-20.825	0.099
728.400	-29.292	0.099
728.500	-32.919	0.099
728.600	-32.090	0.099
728.700	-35.085	0.099
728.800	-36.694	0.099
728.900	-12.819	0.099
729.000	-11.466	0.099
729.100	-19.363	0.099
729.200	-17.679	0.099
729.300	-16.660	0.099
729.400	-38.648	0.099
729.500	-18.352	0.099
729.600	-19.611	0.099
729.700	-31.460	0.099
729.800	-37.407	0.099
729.900	-24.971	0.099
730.000	-15.499	0.099
730.100	-26.486	0.099
730.200	-24.704	0.099
730.300	-27.121	0.099
730.400	-18.260	0.099
730.500	-19.878	0.099
730.600	-30.132	0.099
730.700	-20.315	0.099
730.800	-21.639	0.099
730.900	-18.897	0.099
731.000	-31.531	0.099
731.100	-22.528	0.099
731.200	-21.445	0.099
731.300	-12.081	0.099
731.400	-25.262	0.099
731.500	-26.982	0.099
731.600	-33.985	0.099
731.700	-26.556	0.099
731.800	-24.807	0.099
731.900	-18.989	0.099
732.000	-40.012	0.099
732.100	-21.310	0.099
732.200	-19.386	0.099
732.300	-27.239	0.099
732.400	-18.465	0.099
732.500	-30.085	0.099
732.600	-30.616	0.099
732.700	-23.409	0.099
732.800	-26.620	0.099
732.900	-13.415	0.099
733.000	-22.531	0.099
733.100	-23.241	0.099
733.200	-22.010	0.099
733.300	-19.879	0.099
733.400	-24.322	0.099
733.500	-31.655	0.099
733.600	-23.099	0.099
733.700	-26.763	0.099
733.800	-25.545	0.099
733.900	-19.631	0.099
734.000	-27.191	0.099
734.100	-16.849	0.099
734.200	-34.727	0.099
734.300	-15.830	0.099
734.400	-26.987	0.099
734.500	-40.125	0.099
734.600	-5.892	0.099
734.700	-18.268	0.099
734.800	-22.048	0.099
734.900	-24.935	0.099
735.000	-17.800	0.099
735.100	-24.837	0.099
735.200	-24.704	0.099
735.300	-19.676	0.099
735.400	-28.600	0.099
735.500	-35.902	0.099
735.600	-25.686	0.099
735.700	-34.209	0.099
735.800	-25.845	0.099
735.900	-16.476	0.099
736.000	-9.592	0.099
736.100	-13.838	0.099
736.200	-20.679	0.099
736.300	-28.037	0.099
736.400	-9.455	0.099
736.500	-23.974	0.099
736.600	-37.216	0.099
736.700	-19.995	0.099
736.800	-3.310	0.099
736.900	-16.176	0.099
737.000	-17.940	0.099
737.100	-17.205	0.099
737.200	-24.538	0.099
737.300	-28.768	0.099
737.400	-31.259	0.099
737.500	-31.900	0.099
737.600	-16.357	0.099
737.700	-32.492	0.099
737.800	-33.480	0.099
737.900	-11.538	0.099
738.000	-16.435	0.099
738.100	-29.014	0.099
738.200	-17.742	0.099
738.300	-17.706	0.099
738.400	-20.750	0.099
738.500	-19.537	0.099
738.600	-22.983	0.099
738.700	-31.928	0.099
738.800	-23.960	0.099
738.900	-31.676	0.099
739.000	-15.384	0.099
739.100	-18.397	0.099
739.200	-24.086	0.099
739.300	-14.446	0.099
739.400	-37.323	0.099
739.500	-19.171	0.099
739.600	-27.074	0.099
739.700	-22.243	0.099
739.800	-27.068	0.099
739.900	-21.741	0.099
740.000	-26.404	0.099
740.100	-29.789	0.099
740.200	-17.113	0.099
740.300	-20.517	0.099
740.400	-34.196	0.099
740.500	-24.459	0.099
740.600	-22.624	0.099
740.700	-19.801	0.099
740.800	-5.315	0.099
740.900	-27.973	0.099
741.000	-28.357	0.099
741.100	-31.378	0.099
741.200	-22.890	0.099
741.300	-24.669	0.099
741.400	-22.130	0.099
741.500	-18.995	0.099
741.600	-22.601	0.099
741.700	-16.156	0.099
741.800	-18.247	0.099
741.900	-1.948	0.099
742.000	-20.949	0.099
742.100	-32.393	0.099
742.200	-27.334	0.099
742.300	-33.406	0.099
742.400	-25.390	0.099
742.500	-14.414	0.099
742.600	-18.018	0.099
742.700	-16.765	0.099
742.800	-23.521	0.099
742.900	-29.251	0.099
743.000	-22.129	0.099
743.100	-32.062	0.099
743.200	-16.884	0.099
743.300	-23.292	0.099
743.400	-27.898	0.099
743.500	-9.043	0.099
743.600	-17.333	0.099
743.700	-30.029	0.099
743.800	-20.800	0.099
743.900	-30.010	0.099
744.000	-18.193	0.099
744.100	-29.028	0.099
744.200	-11.935	0.099
744.300	-23.932	0.099
744.400	-24.643	0.099
744.500	-31.724	0.099
744.600	-20.689	0.099
744.700	-20.511	0.099
744.800	-11.037	0.099
744.900	-22.765	0.099
745.000	-20.088	0.099
745.100	-31.208	0.099
745.200	-26.573	0.099
745.300	-18.270	0.099
745.400	-21.159	0.099
745.500	-22.736	0.099
745.600	-32.869	0.099
745.700	-26.718	0.099
745.800	-25.643	0.099
745.900	-10.729	0.099
746.000	-10.678	0.099
746.100	-12.259	0.099
746.200	-6.622	0.099
746.300	-27.724	0.099
746.400	-20.857	0.099
746.500	-17.843	0.099
746.600	-34.681	0.099
746.700	-29.288	0.099
746.800	-18.504	0.099
746.900	-22.150	0.099
747.000	-10.875	0.099
747.100	-17.625	0.099
747.200	-27.441	0.099
747.300	-27.666	0.099
747.400	-18.625	0.099
747.500	-33.400	0.099
747.600	-9.373	0.099
747.700	-33.200	0.099
747.800	-10.016	0.099
747.900	-14.403	0.099
748.000	-8.115	0.099
748.100	-10.928	0.099
748.200	-11.997	0.099
748.300	-32.057	0.099
748.400	-13.381	0.099
748.500	-29.741	0.099
748.600	-22.437	0.099
748.700	-32.185	0.099
748.800	-22.725	0.099
748.900	-18.357	0.099
749.000	-34.785	0.099
749.100	-24.945	0.099
749.200	-22.090	0.099
749.300	-11.040	0.099
749.400	-20.172	0.099
749.500	-28.729	0.099
749.600	-22.160	0.099
749.700	-20.752	0.099
749.800	-24.260	0.099
749.900	-18.073	0.099
750.000	-36.920	0.099
750.100	-15.258	0.099
750.200	-27.605	0.099
750.300	-17.544	0.099
750.400	-7.547	0.100
750.500	-25.839	0.099
750.600	-28.829	0.099
750.700	-16.254	0.099
750.800	-15.884	0.099
750.900	-25.267	0.099
751.000	-7.476	0.099
751.100	-17.746	0.099
751.200	-32.605	0.099
751.300	-33.220	0.099
751.400	-16.821	0.099
751.500	-24.889	0.099
751.600	-20.162	0.099
751.700	-16.825	0.099
751.800	-13.428	0.099
751.900	-25.338	0.099
752.000	-10.030	0.099
752.100	-14.681	0.099
752.200	-17.569	0.099
752.300	-19.385	0.099
752.400	-14.983	0.099
752.500	-24.454	0.099
752.600	-24.989	0.099
752.700	-24.013	0.099
752.800	-25.797	0.099
752.900	-34.799	0.099
753.000	-14.222	0.099
753.100	-18.992	0.099
753.200	-16.529	0.099
753.300	-30.702	0.099
753.400	-22.374	0.099
753.500	-19.632	0.099
753.600	-18.856	0.099
753.700	-29.027	0.099
753.800	-11.341	0.099
753.900	-19.405	0.099
754.000	-5.249	0.099
754.100	-27.141	0.099
754.200	-30.757	0.099
754.300	-33.384	0.099
754.400	-29.880	0.099
754.500	-18.363	0.099
754.600	-5.415	0.099
754.700	-12.145	0.099
754.800	-27.788	0.099
754.900	-29.866	0.099
755.000	-20.513	0.099
755.100	-21.916	0.099
755.200	-16.275	0.099
755.300	-23.813	0.099
755.400	-9.847	0.099
755.500	-17.618	0.099
755.600	-8.940	0.099
755.700	-19.033	0.099
755.800	-24.772	0.099
755.900	-12.869	0.099
756.000	-15.661	0.099
756.100	-25.569	0.099
756.200	-12.305	0.099
756.300	-15.384	0.099
756.400	-18.128	0.099
756.500	-28.311	0.099
756.600	-21.810	0.099
756.700	-17.425	0.099
756.800	-26.224	0.099
756.900	-8.205	0.099
757.000	-27.840	0.099
757.100	-26.702	0.099
757.200	-27.854	0.099
757.300	-7.240	0.099
757.400	-29.406	0.099
757.500	-24.995	0.099
757.600	-10.083	0.099
757.700	-15.155	0.099
757.800	-30.682	0.099
757.900	-30.018	0.099
758.000	-23.672	0.099
758.100	-12.325	0.099
758.200	-29.119	0.099
758.300	-4.019	0.099
758.400	-22.804	0.099
758.500	-11.833	0.099
758.600	-13.938	0.099
758.700	-18.558	0.099
758.800	-19.152	0.099
758.900	-25.320	0.099
759.000	-25.563	0.099
759.100	-14.215	0.099
759.200	-15.820	0.099
759.300	-20.449	0.099
759.400	-17.412	0.099
759.500	-17.711	0.099
759.600	-16.239	0.099
759.700	-18.853	0.099
759.800	-18.054	0.099
759.900	-12.459	0.099
760.000	-20.141	0.099
760.100	-14.298	0.099
760.200	-32.509	0.099
760.300	-24.604	0.099
760.400	-12.835	0.099
760.500	-20.806	0.099
760.600	-9.931	0.099
760.700	-19.210	0.099
760.800	-29.236	0.099
760.900	-1.252	0.099
761.000	-19.109	0.099
761.100	-20.274	0.099
761.200	-26.382	0.099
761.300	-4.020	0.099
761.400	-17.923	0.099
761.500	-20.613	0.099
761.600	-7.817	0.099
761.700	-12.449	0.099
761.800	-21.404	0.099
761.900	-24.577	0.099
762.000	-24.339	0.099
762.100	-18.280	0.099
762.200	-15.730	0.099
762.300	-16.267	0.099
762.400	-23.284	0.099
762.500	-18.243	0.099
762.600	-19.929	0.099
762.700	-32.792	0.099
762.800	-14.192	0.099
762.900	-25.531	0.099
763.000	-10.639	0.099
763.100	-15.476	0.099
763.200	-22.191	0.099
763.300	-20.156	0.099
763.400	-19.651	0.099
763.500	-25.068	0.099
763.600	-12.540	0.099
763.700	-32.044	0.099
763.800	-20.496	0.099
763.900	-21.819	0.099
764.000	-20.914	0.099
764.100	-21.532	0.099
764.200	-19.560	0.099
764.300	-16.643	0.099
764.400	-19.262	0.099
764.500	-12.000	0.099
764.600	-18.645	0.099
764.700	-17.505	0.099
764.800	-28.104	0.099
764.900	-19.260	0.099
765.000	-15.823	0.099
765.100	-18.214	0.099
765.200	-31.620	0.099
765.300	-20.460	0.099
765.400	-12.893	0.099
765.500	-15.747	0.099
765.600	-29.606	0.099
765.700	-8.658	0.099
765.800	-12.458	0.099
765.900	-3.164	0.099
766.000	-22.965	0.099
766.100	-22.315	0.099
766.200	-24.938	0.099
766.300	-13.715	0.099
766.400	-15.522	0.099
766.500	-10.199	0.099
766.600	-25.499	0.099
766.700	-11.863	0.099
766.800	-18.080	0.099
766.900	-15.335	0.099
767.000	-22.064	0.099
767.100	-24.204	0.099
767.200	-18.288	0.099
767.300	-5.611	0.099
767.400	-21.500	0.099
767.500	-16.514	0.099
767.600	-11.961	0.099
767.700	-12.955	0.099
767.800	-16.349	0.099
767.900	-18.742	0.099
768.000	-14.858	0.099
768.100	-22.572	0.099
768.200	-15.814	0.099
768.300	-14.428	0.099
768.400	-26.121	0.099
768.500	-14.472	0.099
768.600	0.154	0.099
768.700	-21.359	0.099
768.800	-24.442	0.099
768.900	-9.572	0.099
769.000	-22.662	0.099
769.100	-28.208	0.099
769.200	-15.008	0.099
769.300	-14.423	0.099
769.400	-24.386	0.099
769.500	-28.147	0.099
769.600	-9.680	0.099
769.700	-28.131	0.099
769.800	-14.791	0.099
769.900	-10.249	0.099
770.000	-10.589	0.099
770.100	-14.146	0.099
770.200	-24.316	0.099
770.300	-22.346	0.099
770.400	-15.109	0.099
770.500	-28.336	0.099
770.600	-20.843	0.099
770.700	-11.741	0.099
770.800	-12.830	0.099
770.900	-21.937	0.099
771.000	-20.898	0.099
771.100	-23.972	0.099
771.200	-15.419	0.099
771.300	-20.491	0.099
771.400	-27.331	0.099
771.500	-25.111	0.099
771.600	-20.173	0.099
771.700	-11.568	0.099
771.800	-9.056	0.099
771.900	-15.079	0.099
772.000	-11.981	0.099
772.100	-17.048	0.099
772.200	-15.875	0.099
772.300	-21.673	0.099
772.400	-0.545	0.099
772.500	-19.322	0.099
772.600	-10.405	0.099
772.700	-10.766	0.099
772.800	-10.073	0.099
772.900	-15.451	0.099
773.000	-7.625	0.099
773.100	-28.472	0.099
773.200	-25.944	0.099
773.300	-20.165	0.099
773.400	-19.490	0.099
773.500	-19.847	0.099
773.600	-23.021	0.099
773.700	-15.170	0.099
773.800	-20.158	0.099
773.900	-21.898	0.099
774.000	-9.145	0.099
774.100	-3.595	0.099
774.200	-23.805	0.099
774.300	-7.617	0.099
774.400	-8.822	0.099
774.500	-17.657	0.099
774.600	-39.250	0.099
774.700	-20.225	0.099
774.800	-8.325	0.099
774.900	-13.880	0.099
775.000	-15.563	0.099
775.100	-27.553	0.099
775.200	-9.114	0.099
775.300	-25.682	0.099
775.400	-12.017	0.099
775.500	-12.220	0.099
775.600	-26.940	0.099
775.700	-9.769	0.099
775.800	-7.915	0.099
775.900	-20.456	0.099
776.000	-14.779	0.099
776.100	-21.893	0.099
776.200	-22.998	0.099
776.300	-11.991	0.099
776.400	-9.774	0.099
776.500	-18.642	0.099
776.600	-25.136	0.099
776.700	-15.961	0.099
776.800	-10.490	0.099
776.900	-18.049	0.099
777.000	-12.540	0.099
777.100	-15.529	0.099
777.200	-15.756	0.099
777.300	-12.490	0.099
777.400	-11.165	0.099
777.500	-8.231	0.099
777.600	-22.252	0.099
777.700	-7.778	0.099
777.800	-15.167	0.099
777.900	-26.856	0.099
778.000	-17.278	0.099
778.100	-16.206	0.099
778.200	-35.448	0.099
778.300	-6.573	0.099
778.400	-11.069	0.099
778.500	-27.754	0.099
778.600	-25.415	0.099
778.700	-11.838	0.099
778.800	-24.427	0.099
778.900	-17.782	0.099
779.000	-16.895	0.099
779.100	-27.986	0.099
779.200	-10.666	0.099
779.300	-15.116	0.099
779.400	-16.524	0.099
779.500	-17.798	0.099
779.600	-21.415	0.099
779.700	-15.870	0.099
779.800	-11.795	0.099
779.900	-6.110	0.099
780.000	-12.749	0.099
780.100	-25.748	0.099
780.200	-10.894	0.099
780.300	-36.018	0.099
780.400	-7.612	0.099
780.500	-5.303	0.099
780.600	7.696	0.099
780.700	-5.624	0.099
780.800	0.194	0.099
780.900	6.893	0.099
781.000	0.624	0.099
781.100	-2.792	0.099
781.200	8.284	0.099
781.300	-2.783	0.099
781.400	2.637	0.099
781.500	2.681	0.099
781.600	14.322	0.099
781.700	5.490	0.099
781.800	5.488	0.099
781.900	10.097	0.099
782.000	14.684	0.099
782.100	19.672	0.099
782.200	15.474	0.099
782.300	8.305	0.099
782.400	22.443	0.099
782.500	5.856	0.099
782.600	9.383	0.099
782.700	25.533	0.099
782.800	12.803	0.099
782.900	11.022	0.099
783.000	19.384	0.099
783.100	22.492	0.099
783.200	0.783	0.099
783.300	6.599	0.099
783.400	16.151	0.099
783.500	8.392	0.099
783.600	21.607	0.099
783.700	27.150	0.099
783.800	11.479	0.099
783.900	4.078	0.099
784.000	13.669	0.099
784.100	19.067	0.099
784.200	12.766	0.099
784.300	12.789	0.099
784.400	15.340	0.099
784.500	14.156	0.099
784.600	-0.972	0.099
784.700	10.256	0.099
784.800	15.533	0.099
784.900	11.915	0.099
785.000	12.068	0.099
785.100	2.294	0.099
785.200	16.553	0.099
785.300	8.645	0.099
785.400	9.421	0.099
785.500	9.730	0.099
785.600	20.523	0.099
785.700	10.189	0.099
785.800	17.520	0.099
785.900	8.600	0.099
786.000	8.313	0.099
786.100	20.490	0.099
786.200	7.406	0.099
786.300	14.121	0.099
786.400	12.201	0.099
786.500	13.858	0.099
786.600	7.475	0.099
786.700	6.286	0.099
786.800	9.336	0.099
786.900	19.373	0.099
787.000	7.867	0.099
787.100	22.764	0.099
787.200	14.375	0.099
787.300	13.600	0.099
787.400	9.393	0.099
787.500	27.288	0.099
787.600	-2.052	0.099
787.700	10.051	0.099
787.800	17.539	0.099
787.900	15.175	0.099
788.000	17.484	0.099
788.100	10.712	0.099
788.200	16.672	0.099
788.300	12.882	0.099
788.400	13.554	0.099
788.500	7.592	0.099
788.600	6.678	0.099
788.700	22.662	0.099
788.800	11.246	0.099
788.900	13.581	0.099
789.000	23.762	0.099
789.100	22.586	0.099
789.200	24.172	0.099
789.300	15.764	0.099
789.400	27.487	0.099
789.500	21.917	0.099
789.600	12.928	0.099
789.700	23.315	0.099
789.800	14.855	0.099
789.900	20.060	0.099
790.000	17.757	0.099
790.100	10.518	0.099
790.200	37.403	0.099
790.300	27.237	0.099
790.400	35.728	0.099
790.500	21.769	0.099
790.600	14.961	0.099
790.700	4.585	0.099
790.800	16.468	0.099
790.900	22.740	0.099
791.000	27.581	0.099
791.100	17.635	0.099
791.200	34.827	0.099
791.300	24.001	0.099
791.400	5.181	0.099
791.500	17.091	0.099
791.600	28.611	0.099
791.700	30.975	0.099
791.800	28.773	0.099
791.900	29.649	0.099
792.000	37.988	0.099
792.100	28.694	0.099
792.200	24.780	0.099
792.300	28.234	0.099
792.400	29.517	0.099
792.500	31.463	0.099
792.600	36.170	0.099
792.700	23.155	0.099
792.800	30.956	0.099
792.900	27.670	0.099
793.000	36.419	0.099
793.100	27.186	0.099
793.200	28.672	0.099
793.300	28.950	0.099
793.400	29.011	0.099
793.500	24.096	0.099
793.600	29.134	0.099
793.700	27.238	0.099
793.800	29.804	0.099
793.900	40.696	0.099
794.000	33.451	0.099
794.100	31.859	0.099
794.200	34.761	0.099
794.300	28.243	0.099
794.400	38.212	0.099
794.500	24.811	0.099
794.600	23.425	0.099
794.700	40.489	0.099
794.800	21.788	0.099
794.900	37.289	0.099
795.000	34.061	0.099
795.100	37.672	0.099
795.200	48.131	0.099
795.300	46.215	0.099
795.400	33.248	0.099
795.500	35.850	0.099
795.600	25.964	0.099
795.700	40.745	0.099
795.800	34.524	0.099
795.900	40.711	0.099
796.000	26.751	0.099
796.100	35.249	0.099
796.200	30.636	0.099
796.300	26.735	0.099
796.400	36.330	0.099
796.500	46.202	0.099
796.600	44.658	0.099
796.700	40.852	0.099
796.800	42.985	0.099
796.900	33.810	0.099
797.000	22.442	0.099
797.100	34.247	0.099
797.200	32.536	0.099
797.300	39.388	0.099
797.400	40.412	0.099
797.500	50.774	0.099
797.600	33.743	0.099
797.700	44.258	0.099
797.800	36.996	0.099
797.900	33.697	0.099
798.000	17.062	0.099
798.100	49.340	0.099
798.200	31.930	0.099
798.300	40.228	0.099
798.400	36.842	0.099
798.500	43.296	0.099
798.600	22.644	0.099
798.700	42.186	0.099
798.800	48.123	0.099
798.900	39.667	0.099
799.000	28.528	0.099
799.100	44.520	0.099
799.200	44.899	0.099
799.300	40.248	0.099
799.400	40.792	0.099
799.500	43.612	0.099
799.600	32.297	0.099
799.700	31.307	0.099
799.800	38.680	0.099
799.900	42.259	0.099
800.000	39.199	0.099
