time /s	I /nA	E /V
0.100	-11.274	0.100
0.200	-8.876	0.100
0.300	-20.635	0.100
0.400	-4.636	0.100
0.500	11.951	0.100
0.600	-14.976	0.100
0.700	-4.140	0.100
0.800	-11.553	0.100
0.900	-6.908	0.100
1.000	-6.264	0.100
1.100	-3.745	0.100
1.200	4.390	0.100
1.300	2.001	0.100
1.400	-25.411	0.100
1.500	-6.276	0.100
1.600	-11.092	0.100
1.700	3.637	0.100
1.800	3.686	0.100
1.900	-8.022	0.100
2.000	-3.176	0.100
2.100	-6.781	0.100
2.200	-8.917	0.100
2.300	-21.078	0.100
2.400	-8.625	0.100
2.500	-6.361	0.100
2.600	-7.931	0.100
2.700	-19.810	0.100
2.800	-4.372	0.100
2.900	9.497	0.100
3.000	4.724	0.100
3.100	-12.852	0.100
3.200	8.031	0.100
3.300	-5.367	0.100
3.400	-26.620	0.100
3.500	-6.431	0.100
3.600	3.712	0.100
3.700	0.628	0.100
3.800	-13.409	0.100
3.900	-3.554	0.100
4.000	-0.246	0.100
4.100	-18.231	0.100
4.200	3.685	0.100
4.300	1.658	0.100
4.400	-9.572	0.100
4.500	-0.606	0.100
4.600	0.235	0.100
4.700	-2.960	0.100
4.800	-4.507	0.100
4.900	-7.170	0.100
5.000	-5.442	0.100
5.100	-6.610	0.100
5.200	-4.533	0.100
5.300	-5.118	0.100
5.400	-2.864	0.100
5.500	-4.478	0.100
5.600	0.275	0.100
5.700	-11.874	0.100
5.800	-6.454	0.100
5.900	-9.318	0.100
6.000	0.781	0.100
6.100	5.187	0.100
6.200	-14.271	0.100
6.300	-6.920	0.100
6.400	-2.589	0.100
6.500	0.964	0.100
6.600	-7.234	0.100
6.700	-18.154	0.100
6.800	1.017	0.100
6.900	9.062	0.100
7.000	-4.483	0.100
7.100	-11.095	0.100
7.200	-7.449	0.100
7.300	-4.131	0.100
7.400	-0.101	0.100
7.500	-2.544	0.100
7.600	-14.485	0.100
7.700	-8.336	0.100
7.800	-15.512	0.100
7.900	-3.808	0.100
8.000	-7.493	0.100
8.100	-8.155	0.100
8.200	-6.695	0.100
8.300	-6.877	0.100
8.400	-12.314	0.100
8.500	-9.196	0.100
8.600	-4.604	0.100
8.700	-17.660	0.100
8.800	-0.278	0.100
8.900	-3.853	0.100
9.000	-16.287	0.100
9.100	-3.675	0.100
9.200	-7.480	0.100
9.300	-0.923	0.100
9.400	-4.114	0.100
9.500	2.717	0.100
9.600	-2.663	0.100
9.700	-0.803	0.100
9.800	0.031	0.100
9.900	-13.741	0.100
10.000	-20.837	0.100
10.100	-1.989	0.100
10.200	3.522	0.100
10.300	-10.972	0.100
10.400	-13.902	0.100
10.500	-13.785	0.100
10.600	3.354	0.100
10.700	11.305	0.100
10.800	-3.198	0.100
10.900	-8.078	0.100
11.000	-5.880	0.100
11.100	2.451	0.100
11.200	-9.360	0.100
11.300	9.541	0.100
11.400	-11.387	0.100
11.500	-10.815	0.100
11.600	1.084	0.100
11.700	-0.378	0.100
11.800	7.250	0.100
11.900	-7.179	0.100
12.000	-3.701	0.100
12.100	-8.039	0.100
12.200	-5.843	0.100
12.300	-8.111	0.100
12.400	-16.903	0.100
12.500	-8.363	0.100
12.600	-9.610	0.100
12.700	-4.491	0.100
12.800	-3.162	0.100
12.900	-6.825	0.100
13.000	-10.869	0.100
13.100	4.352	0.100
13.200	6.930	0.100
13.300	-2.504	0.100
13.400	-13.365	0.100
13.500	-4.604	0.100
13.600	-19.391	0.100
13.700	-3.408	0.100
13.800	3.605	0.100
13.900	-20.013	0.100
14.000	-7.217	0.100
14.100	-13.595	0.100
14.200	0.920	0.100
14.300	-2.562	0.100
14.400	-1.280	0.100
14.500	4.603	0.100
14.600	-6.872	0.100
14.700	-8.621	0.100
14.800	-19.681	0.100
14.900	-2.727	0.100
15.000	-2.795	0.100
15.100	1.684	0.100
15.200	-11.385	0.100
15.300	-4.754	0.100
15.400	-5.352	0.100
15.500	5.199	0.100
15.600	-2.234	0.100
15.700	-7.286	0.100
15.800	-9.012	0.100
15.900	-12.805	0.100
16.000	-3.092	0.100
16.100	0.495	0.100
16.200	-8.441	0.100
16.300	-5.194	0.100
16.400	-12.901	0.100
16.500	-18.630	0.100
16.600	-3.704	0.100
16.700	-3.169	0.100
16.800	-24.601	0.100
16.900	-11.710	0.100
17.000	-12.929	0.100
17.100	-5.553	0.100
17.200	8.373	0.100
17.300	3.374	0.100
17.400	-5.310	0.100
17.500	-18.718	0.100
17.600	0.181	0.100
17.700	-4.319	0.100
17.800	6.093	0.100
17.900	-6.558	0.100
18.000	-18.997	0.100
18.100	-6.548	0.100
18.200	-8.011	0.100
18.300	4.321	0.100
18.400	0.868	0.100
18.500	-2.987	0.100
18.600	-1.760	0.100
18.700	-6.553	0.100
18.800	-10.860	0.100
18.900	-5.471	0.100
19.000	-7.012	0.100
19.100	-7.754	0.100
19.200	-14.722	0.100
19.300	-1.435	0.100
19.400	-0.455	0.100
19.500	-1.903	0.100
19.600	-5.477	0.100
19.700	-5.481	0.100
19.800	-7.877	0.100
19.900	-0.839	0.100
20.000	3.324	0.100
20.100	5.900	0.100
20.200	-11.510	0.100
20.300	-10.533	0.100
20.400	-1.005	0.100
20.500	3.113	0.100
20.600	-2.673	0.100
20.700	-13.377	0.100
20.800	1.396	0.100
20.900	-8.821	0.100
21.000	5.849	0.100
21.100	-9.787	0.100
21.200	-9.378	0.100
21.300	-3.052	0.100
21.400	-16.886	0.100
21.500	-12.105	0.100
21.600	-8.294	0.100
21.700	-1.464	0.100
21.800	-3.314	0.100
21.900	6.982	0.100
22.000	-0.630	0.100
22.100	0.148	0.100
22.200	-5.617	0.100
22.300	-20.789	0.100
22.400	-9.408	0.100
22.500	0.637	0.100
22.600	-0.817	0.100
22.700	-6.268	0.100
22.800	0.604	0.100
22.900	0.450	0.100
23.000	-4.881	0.100
23.100	-12.669	0.100
23.200	-15.006	0.100
23.300	-12.047	0.100
23.400	-0.588	0.100
23.500	-4.514	0.100
23.600	-12.967	0.100
23.700	-4.554	0.100
23.800	-17.227	0.100
23.900	-11.374	0.100
24.000	0.424	0.100
24.100	4.574	0.100
24.200	-5.040	0.100
24.300	0.669	0.100
24.400	-2.025	0.100
24.500	-3.259	0.100
24.600	-5.817	0.100
24.700	-9.858	0.100
24.800	-11.862	0.100
24.900	-0.937	0.100
25.000	-0.135	0.100
25.100	-2.977	0.100
25.200	-12.179	0.100
25.300	8.909	0.100
25.400	-6.646	0.100
25.500	-8.452	0.100
25.600	-5.258	0.100
25.700	0.440	0.100
25.800	-0.276	0.100
25.900	-7.106	0.100
26.000	-2.914	0.100
26.100	-1.545	0.100
26.200	-8.147	0.100
26.300	-8.270	0.100
26.400	-9.477	0.100
26.500	-5.146	0.100
26.600	0.309	0.100
26.700	-12.816	0.100
26.800	0.485	0.100
26.900	-17.328	0.100
27.000	4.632	0.100
27.100	-6.827	0.100
27.200	-12.686	0.100
27.300	0.320	0.100
27.400	-15.551	0.100
27.500	-1.053	0.100
27.600	13.846	0.100
27.700	-12.995	0.100
27.800	-17.868	0.100
27.900	-21.940	0.100
28.000	-4.177	0.100
28.100	1.999	0.100
28.200	-2.897	0.100
28.300	-5.041	0.100
28.400	-1.936	0.100
28.500	-2.050	0.100
28.600	7.319	0.100
28.700	-4.422	0.100
28.800	-16.760	0.100
28.900	-9.487	0.100
29.000	-6.562	0.100
29.100	2.517	0.100
29.200	-10.675	0.100
29.300	-10.171	0.100
29.400	-16.275	0.100
29.500	2.593	0.100
29.600	-10.257	0.100
29.700	5.735	0.100
29.800	-0.968	0.100
29.900	-3.846	0.100
30.000	11.951	0.100
30.100	-2.326	0.100
30.200	4.397	0.100
30.300	-3.390	0.100
30.400	-5.125	0.100
30.500	6.902	0.100
30.600	3.805	0.100
30.700	-15.542	0.100
30.800	0.587	0.100
30.900	-9.117	0.100
31.000	6.709	0.100
31.100	0.798	0.100
31.200	0.581	0.100
31.300	12.397	0.100
31.400	-1.490	0.100
31.500	10.010	0.100
31.600	-0.014	0.100
31.700	13.855	0.100
31.800	-0.275	0.100
31.900	-18.673	0.100
32.000	-17.158	0.100
32.100	-0.629	0.100
32.200	16.293	0.100
32.300	13.943	0.100
32.400	17.193	0.100
32.500	7.697	0.100
32.600	-3.710	0.100
32.700	5.576	0.100
32.800	-0.530	0.100
32.900	10.872	0.100
33.000	16.858	0.100
33.100	19.904	0.100
33.200	16.343	0.100
33.300	5.841	0.100
33.400	11.981	0.100
33.500	6.618	0.100
33.600	10.677	0.100
33.700	14.500	0.100
33.800	8.377	0.100
33.900	21.925	0.100
34.000	20.479	0.100
34.100	19.422	0.100
34.200	22.244	0.100
34.300	13.709	0.100
34.400	22.065	0.100
34.500	14.879	0.100
34.600	24.597	0.100
34.700	22.451	0.099
34.800	17.538	0.099
34.900	11.725	0.099
35.000	-4.031	0.099
35.100	24.216	0.099
35.200	18.061	0.099
35.300	13.348	0.099
35.400	31.557	0.099
35.500	15.102	0.099
35.600	16.778	0.099
35.700	14.349	0.099
35.800	12.606	0.099
35.900	13.176	0.099
36.000	31.403	0.099
36.100	25.831	0.099
36.200	19.154	0.099
36.300	25.420	0.099
36.400	15.932	0.099
36.500	14.193	0.099
36.600	17.179	0.099
36.700	10.467	0.099
36.800	19.915	0.099
36.900	21.370	0.099
37.000	18.189	0.099
37.100	25.185	0.099
37.200	22.847	0.099
37.300	23.284	0.099
37.400	14.858	0.099
37.500	23.262	0.099
37.600	18.967	0.099
37.700	32.391	0.099
37.800	18.944	0.099
37.900	14.052	0.099
38.000	17.515	0.099
38.100	19.390	0.099
38.200	24.727	0.099
38.300	13.937	0.099
38.400	26.032	0.099
38.500	26.593	0.099
38.600	28.301	0.099
38.700	17.815	0.099
38.800	35.551	0.099
38.900	21.610	0.099
39.000	39.852	0.099
39.100	12.486	0.099
39.200	10.519	0.099
39.300	24.512	0.099
39.400	31.059	0.099
39.500	34.665	0.099
39.600	23.814	0.099
39.700	24.427	0.099
39.800	24.289	0.099
39.900	15.933	0.099
40.000	21.564	0.099
40.100	24.394	0.099
40.200	31.124	0.099
40.300	20.510	0.099
40.400	14.689	0.099
40.500	17.515	0.099
40.600	10.179	0.099
40.700	23.159	0.099
40.800	17.839	0.099
40.900	33.805	0.099
41.000	23.424	0.099
41.100	14.366	0.099
41.200	19.807	0.099
41.300	21.594	0.099
41.400	21.300	0.099
41.500	26.657	0.099
41.600	22.602	0.099
41.700	19.295	0.099
41.800	17.843	0.099
41.900	29.111	0.099
42.000	18.997	0.099
42.100	24.964	0.099
42.200	17.464	0.099
42.300	17.452	0.099
42.400	18.643	0.099
42.500	18.028	0.099
42.600	24.724	0.099
42.700	20.566	0.099
42.800	21.838	0.099
42.900	16.046	0.099
43.000	25.984	0.099
43.100	27.154	0.099
43.200	20.448	0.099
43.300	24.889	0.099
43.400	9.035	0.099
43.500	16.200	0.099
43.600	22.542	0.099
43.700	16.195	0.099
43.800	26.972	0.099
43.900	19.326	0.099
44.000	22.602	0.099
44.100	25.722	0.099
44.200	16.834	0.099
44.300	13.308	0.099
44.400	35.138	0.099
44.500	22.535	0.099
44.600	28.233	0.099
44.700	10.920	0.099
44.800	7.712	0.099
44.900	22.000	0.099
45.000	35.923	0.099
45.100	5.820	0.099
45.200	25.064	0.099
45.300	29.354	0.099
45.400	23.044	0.099
45.500	22.672	0.099
45.600	30.714	0.099
45.700	22.005	0.099
45.800	25.363	0.099
45.900	28.166	0.099
46.000	19.457	0.099
46.100	26.540	0.099
46.200	20.523	0.099
46.300	29.688	0.099
46.400	15.525	0.099
46.500	19.570	0.099
46.600	28.839	0.099
46.700	27.579	0.099
46.800	27.894	0.099
46.900	33.574	0.099
47.000	33.591	0.099
47.100	13.879	0.099
47.200	16.037	0.099
47.300	16.964	0.099
47.400	22.408	0.099
47.500	34.325	0.099
47.600	22.346	0.099
47.700	29.996	0.099
47.800	28.720	0.099
47.900	16.626	0.099
48.000	14.297	0.099
48.100	14.013	0.099
48.200	19.503	0.099
48.300	22.673	0.099
48.400	15.781	0.099
48.500	23.515	0.099
48.600	22.067	0.099
48.700	24.706	0.099
48.800	29.217	0.099
48.900	33.737	0.099
49.000	27.620	0.099
49.100	19.366	0.099
49.200	14.113	0.099
49.300	23.748	0.099
49.400	24.486	0.099
49.500	22.303	0.099
49.600	24.048	0.099
49.700	25.942	0.099
49.800	27.444	0.099
49.900	14.637	0.099
50.000	25.112	0.099
50.100	20.954	0.099
50.200	15.768	0.099
50.300	21.535	0.099
50.400	34.509	0.099
50.500	26.565	0.099
50.600	26.496	0.099
50.700	24.206	0.099
50.800	22.598	0.099
50.900	10.830	0.099
51.000	10.574	0.099
51.100	21.987	0.099
51.200	24.349	0.099
51.300	28.482	0.099
51.400	23.249	0.099
51.500	24.216	0.099
51.600	20.953	0.099
51.700	17.825	0.099
51.800	26.883	0.099
51.900	24.611	0.099
52.000	24.660	0.099
52.100	28.474	0.099
52.200	20.606	0.099
52.300	24.507	0.099
52.400	3.028	0.099
52.500	10.344	0.099
52.600	27.295	0.099
52.700	29.335	0.099
52.800	18.973	0.099
52.900	18.580	0.099
53.000	9.908	0.099
53.100	22.925	0.099
53.200	27.040	0.099
53.300	30.846	0.099
53.400	29.560	0.099
53.500	15.021	0.099
53.600	14.169	0.099
53.700	22.883	0.099
53.800	15.114	0.099
53.900	18.241	0.099
54.000	22.483	0.099
54.100	16.531	0.099
54.200	10.874	0.099
54.300	24.332	0.099
54.400	27.457	0.099
54.500	20.910	0.099
54.600	34.256	0.099
54.700	19.085	0.099
54.800	27.085	0.100
54.900	24.859	0.100
55.000	13.184	0.100
55.100	15.808	0.100
55.200	25.475	0.100
55.300	31.773	0.100
55.400	26.415	0.100
55.500	28.564	0.099
55.600	34.517	0.100
55.700	26.715	0.100
55.800	25.153	0.100
55.900	27.815	0.100
56.000	17.145	0.100
56.100	28.672	0.099
56.200	16.731	0.099
56.300	23.494	0.099
56.400	29.941	0.100
56.500	29.228	0.100
56.600	16.239	0.100
56.700	7.936	0.100
56.800	27.891	0.100
56.900	27.119	0.100
57.000	26.985	0.099
57.100	15.705	0.099
57.200	20.290	0.099
57.300	14.972	0.099
57.400	24.762	0.099
57.500	29.357	0.099
57.600	16.324	0.099
57.700	27.894	0.099
57.800	26.218	0.099
57.900	35.074	0.099
58.000	21.782	0.099
58.100	25.087	0.099
58.200	20.669	0.099
58.300	32.131	0.100
58.400	9.713	0.099
58.500	24.221	0.099
58.600	34.530	0.099
58.700	26.806	0.099
58.800	29.704	0.099
58.900	14.294	0.099
59.000	27.119	0.099
59.100	34.510	0.099
59.200	24.393	0.099
59.300	27.980	0.099
59.400	26.608	0.099
59.500	24.989	0.099
59.600	31.059	0.099
59.700	29.267	0.099
59.800	20.191	0.099
59.900	27.276	0.099
60.000	23.756	0.099
60.100	28.472	0.099
60.200	25.180	0.099
60.300	19.246	0.099
60.400	38.931	0.099
60.500	32.825	0.100
60.600	29.255	0.099
60.700	19.488	0.099
60.800	13.964	0.099
60.900	36.549	0.099
61.000	28.426	0.100
61.100	25.384	0.100
61.200	19.286	0.099
61.300	32.871	0.100
61.400	24.962	0.099
61.500	17.614	0.099
61.600	15.536	0.100
61.700	30.083	0.099
61.800	23.729	0.100
61.900	13.100	0.099
62.000	31.860	0.100
62.100	28.965	0.099
62.200	21.463	0.099
62.300	26.751	0.099
62.400	34.509	0.099
62.500	34.821	0.099
62.600	24.768	0.099
62.700	32.968	0.099
62.800	28.456	0.099
62.900	22.568	0.100
63.000	35.100	0.099
63.100	32.019	0.099
63.200	27.088	0.099
63.300	22.458	0.099
63.400	34.617	0.099
63.500	32.355	0.099
63.600	25.176	0.099
63.700	34.622	0.099
63.800	26.291	0.100
63.900	34.095	0.099
64.000	19.020	0.099
64.100	18.208	0.099
64.200	27.000	0.100
64.300	37.627	0.099
64.400	30.334	0.099
64.500	29.373	0.100
64.600	31.075	0.100
64.700	6.964	0.099
64.800	14.895	0.099
64.900	26.005	0.100
65.000	21.858	0.099
65.100	31.800	0.099
65.200	42.209	0.099
65.300	17.469	0.099
65.400	32.475	0.099
65.500	17.745	0.099
65.600	33.945	0.099
65.700	40.321	0.099
65.800	34.624	0.100
65.900	17.516	0.099
66.000	32.648	0.099
66.100	11.401	0.100
66.200	20.734	0.099
66.300	36.330	0.099
66.400	27.005	0.099
66.500	40.804	0.099
66.600	29.942	0.099
66.700	19.476	0.100
66.800	19.835	0.099
66.900	23.627	0.100
67.000	20.648	0.099
67.100	32.107	0.099
67.200	43.518	0.099
67.300	38.235	0.099
67.400	20.348	0.100
67.500	24.381	0.099
67.600	26.815	0.099
67.700	26.304	0.099
67.800	23.311	0.100
67.900	11.618	0.099
68.000	18.548	0.099
68.100	21.721	0.099
68.200	49.147	0.099
68.300	26.319	0.100
68.400	24.232	0.099
68.500	20.716	0.099
68.600	23.673	0.099
68.700	22.008	0.099
68.800	27.390	0.099
68.900	31.254	0.099
69.000	32.056	0.099
69.100	14.274	0.099
69.200	37.113	0.099
69.300	27.643	0.099
69.400	29.035	0.099
69.500	13.151	0.099
69.600	28.424	0.099
69.700	37.161	0.099
69.800	29.310	0.099
69.900	32.662	0.099
70.000	32.933	0.099
70.100	25.498	0.099
70.200	39.597	0.099
70.300	25.509	0.099
70.400	28.083	0.099
70.500	13.990	0.099
70.600	25.924	0.099
70.700	23.510	0.099
70.800	39.390	0.099
70.900	32.259	0.099
71.000	36.311	0.099
71.100	31.883	0.099
71.200	31.171	0.099
71.300	33.339	0.099
71.400	25.595	0.099
71.500	33.018	0.099
71.600	35.812	0.099
71.700	27.709	0.099
71.800	36.990	0.099
71.900	26.497	0.099
72.000	16.008	0.100
72.100	22.577	0.099
72.200	35.279	0.099
72.300	25.890	0.099
72.400	34.202	0.099
72.500	32.567	0.099
72.600	31.151	0.100
72.700	25.196	0.100
72.800	17.996	0.099
72.900	26.906	0.099
73.000	28.552	0.099
73.100	17.658	0.099
73.200	34.277	0.099
73.300	24.979	0.099
73.400	30.686	0.099
73.500	30.003	0.099
73.600	31.291	0.099
73.700	24.698	0.099
73.800	35.684	0.099
73.900	38.622	0.099
74.000	33.835	0.099
74.100	31.413	0.099
74.200	34.987	0.099
74.300	11.017	0.100
74.400	25.675	0.099
74.500	30.998	0.099
74.600	27.286	0.099
74.700	24.612	0.099
74.800	15.611	0.099
74.900	31.154	0.099
75.000	29.955	0.099
75.100	35.727	0.099
75.200	23.445	0.099
75.300	32.879	0.099
75.400	19.913	0.100
75.500	8.314	0.099
75.600	26.282	0.099
75.700	35.886	0.099
75.800	35.602	0.099
75.900	8.279	0.099
76.000	25.543	0.099
76.100	35.054	0.099
76.200	41.952	0.099
76.300	34.790	0.099
76.400	22.702	0.099
76.500	19.813	0.099
76.600	31.043	0.099
76.700	42.707	0.099
76.800	33.100	0.099
76.900	33.737	0.099
77.000	25.635	0.100
77.100	29.710	0.100
77.200	28.449	0.100
77.300	37.746	0.099
77.400	28.704	0.099
77.500	22.498	0.099
77.600	36.178	0.099
77.700	30.031	0.099
77.800	27.855	0.099
77.900	27.882	0.100
78.000	34.535	0.099
78.100	29.125	0.099
78.200	20.582	0.099
78.300	34.467	0.099
78.400	27.282	0.099
78.500	18.933	0.100
78.600	30.837	0.099
78.700	19.469	0.099
78.800	33.899	0.099
78.900	29.111	0.100
79.000	25.572	0.099
79.100	27.386	0.099
79.200	32.606	0.099
79.300	27.874	0.099
79.400	34.958	0.099
79.500	17.934	0.099
79.600	24.755	0.099
79.700	23.406	0.099
79.800	29.535	0.099
79.900	21.292	0.099
80.000	44.697	0.099
80.100	27.161	0.099
80.200	26.463	0.099
80.300	28.006	0.099
80.400	33.726	0.099
80.500	23.361	0.099
80.600	28.447	0.099
80.700	45.011	0.099
80.800	44.959	0.099
80.900	31.324	0.099
81.000	31.510	0.099
81.100	37.650	0.100
81.200	34.460	0.099
81.300	32.514	0.099
81.400	30.307	0.099
81.500	31.346	0.099
81.600	28.017	0.100
81.700	24.118	0.099
81.800	32.458	0.099
81.900	31.161	0.099
82.000	24.875	0.100
82.100	35.062	0.099
82.200	28.647	0.099
82.300	26.392	0.099
82.400	27.926	0.099
82.500	33.920	0.099
82.600	34.169	0.099
82.700	17.692	0.100
82.800	24.889	0.099
82.900	28.022	0.099
83.000	24.178	0.099
83.100	30.821	0.099
83.200	33.134	0.099
83.300	34.559	0.099
83.400	43.060	0.099
83.500	22.830	0.099
83.600	34.621	0.099
83.700	32.699	0.099
83.800	29.813	0.100
83.900	19.155	0.099
84.000	24.507	0.099
84.100	27.774	0.100
84.200	37.850	0.100
84.300	45.192	0.099
84.400	43.100	0.099
84.500	40.797	0.100
84.600	33.032	0.099
84.700	26.604	0.099
84.800	23.077	0.099
84.900	19.356	0.099
85.000	31.508	0.099
85.100	29.411	0.099
85.200	25.862	0.099
85.300	26.891	0.099
85.400	36.149	0.099
85.500	40.020	0.099
85.600	33.908	0.099
85.700	42.149	0.099
85.800	34.950	0.099
85.900	32.791	0.099
86.000	31.533	0.099
86.100	33.324	0.099
86.200	24.297	0.099
86.300	33.409	0.099
86.400	34.977	0.099
86.500	36.157	0.099
86.600	22.627	0.099
86.700	21.426	0.099
86.800	24.508	0.099
86.900	26.814	0.099
87.000	30.383	0.099
87.100	30.043	0.099
87.200	33.141	0.099
87.300	34.119	0.099
87.400	30.340	0.099
87.500	34.576	0.099
87.600	39.939	0.099
87.700	26.138	0.099
87.800	36.419	0.100
87.900	31.597	0.099
88.000	39.394	0.099
88.100	24.640	0.099
88.200	44.061	0.099
88.300	19.904	0.099
88.400	28.543	0.099
88.500	32.047	0.099
88.600	30.905	0.100
88.700	32.626	0.099
88.800	35.686	0.099
88.900	36.716	0.099
89.000	28.647	0.099
89.100	39.535	0.099
89.200	24.107	0.099
89.300	36.317	0.099
89.400	29.126	0.099
89.500	27.700	0.099
89.600	32.206	0.099
89.700	29.090	0.099
89.800	20.509	0.099
89.900	35.954	0.099
90.000	34.024	0.099
90.100	23.457	0.099
90.200	16.215	0.099
90.300	29.692	0.099
90.400	12.143	0.099
90.500	17.081	0.099
90.600	22.732	0.099
90.700	20.398	0.099
90.800	23.250	0.099
90.900	17.774	0.099
91.000	7.018	0.099
91.100	10.127	0.099
91.200	22.083	0.099
91.300	3.053	0.099
91.400	4.197	0.099
91.500	-0.279	0.099
91.600	16.856	0.099
91.700	13.857	0.099
91.800	8.912	0.099
91.900	3.352	0.099
92.000	9.840	0.099
92.100	6.055	0.099
92.200	0.239	0.099
92.300	-3.291	0.099
92.400	-0.409	0.099
92.500	-17.272	0.099
92.600	-5.479	0.099
92.700	4.877	0.099
92.800	3.569	0.099
92.900	-0.399	0.099
93.000	6.791	0.099
93.100	-2.054	0.099
93.200	3.155	0.099
93.300	5.728	0.099
93.400	-2.756	0.099
93.500	6.800	0.099
93.600	-9.824	0.099
93.700	9.262	0.099
93.800	4.130	0.099
93.900	4.504	0.099
94.000	-14.085	0.099
94.100	1.314	0.099
94.200	-6.016	0.099
94.300	-4.290	0.100
94.400	2.635	0.100
94.500	8.506	0.100
94.600	-2.301	0.099
94.700	-3.388	0.099
94.800	-1.446	0.099
94.900	-12.111	0.099
95.000	1.893	0.099
95.100	-2.335	0.099
95.200	-7.914	0.099
95.300	-8.882	0.099
95.400	-15.104	0.099
95.500	2.636	0.099
95.600	-7.406	0.099
95.700	-11.075	0.099
95.800	1.264	0.099
95.900	-6.353	0.099
96.000	4.126	0.099
96.100	-0.818	0.099
96.200	-4.991	0.099
96.300	4.043	0.099
96.400	-6.518	0.099
96.500	-3.986	0.099
96.600	-6.553	0.099
96.700	-1.344	0.099
96.800	-13.965	0.099
96.900	0.615	0.099
97.000	-11.377	0.099
97.100	-5.514	0.099
97.200	-8.564	0.099
97.300	-1.240	0.099
97.400	2.003	0.099
97.500	2.782	0.099
97.600	-8.200	0.099
97.700	-9.841	0.099
97.800	-6.116	0.099
97.900	1.172	0.099
98.000	-17.260	0.099
98.100	-13.067	0.099
98.200	-0.017	0.099
98.300	-1.332	0.099
98.400	-4.731	0.099
98.500	-13.624	0.099
98.600	-2.813	0.099
98.700	-2.512	0.099
98.800	-9.659	0.099
98.900	-3.231	0.099
99.000	-17.866	0.099
99.100	-5.076	0.099
99.200	-8.881	0.099
99.300	0.893	0.099
99.400	-16.744	0.099
99.500	-4.224	0.099
99.600	-5.633	0.099
99.700	1.241	0.099
99.800	0.021	0.099
99.900	-10.761	0.099
100.000	-31.101	0.099
100.100	-8.020	0.099
100.200	-1.107	0.099
100.300	-14.625	0.099
100.400	0.329	0.099
100.500	-7.090	0.099
100.600	-1.617	0.099
100.700	-15.267	0.099
100.800	-7.305	0.099
100.900	-3.112	0.099
101.000	4.770	0.099
101.100	-1.229	0.099
101.200	-5.802	0.099
101.300	-1.816	0.099
101.400	3.170	0.099
101.500	-15.864	0.099
101.600	-12.676	0.099
101.700	-10.849	0.099
101.800	-14.763	0.099
101.900	-4.411	0.099
102.000	0.908	0.099
102.100	-9.491	0.099
102.200	20.474	0.100
102.300	0.375	0.099
102.400	-14.304	0.099
102.500	-7.111	0.099
102.600	-9.623	0.099
102.700	-11.964	0.100
102.800	-1.997	0.099
102.900	-19.596	0.099
103.000	-1.918	0.099
103.100	-6.559	0.100
103.200	-5.970	0.099
103.300	-14.414	0.099
103.400	-14.237	0.099
103.500	-11.030	0.099
103.600	-0.472	0.099
103.700	-13.737	0.099
103.800	-0.488	0.099
103.900	-14.212	0.099
104.000	-13.284	0.099
104.100	-0.840	0.099
104.200	-7.090	0.099
104.300	-3.272	0.099
104.400	-8.601	0.099
104.500	-6.891	0.099
104.600	-11.139	0.099
104.700	-8.772	0.099
104.800	-3.451	0.099
104.900	-6.671	0.099
105.000	-3.172	0.099
105.100	-12.529	0.099
105.200	2.589	0.099
105.300	-8.291	0.099
105.400	-6.718	0.099
105.500	-9.398	0.099
105.600	-9.850	0.099
105.700	-5.858	0.099
105.800	-11.890	0.099
105.900	-0.948	0.099
106.000	-6.983	0.099
106.100	-13.314	0.099
106.200	-1.328	0.100
106.300	-20.538	0.099
106.400	1.014	0.099
106.500	-3.351	0.099
106.600	-11.531	0.099
106.700	-7.836	0.099
106.800	-15.581	0.099
106.900	-14.816	0.099
107.000	-9.133	0.099
107.100	-18.974	0.099
107.200	-17.626	0.099
107.300	2.378	0.099
107.400	-4.816	0.099
107.500	-17.266	0.099
107.600	-9.756	0.099
107.700	-14.354	0.099
107.800	-14.608	0.099
107.900	-24.314	0.099
108.000	-12.944	0.099
108.100	-5.957	0.099
108.200	-22.383	0.099
108.300	-8.796	0.099
108.400	1.250	0.099
108.500	-4.265	0.100
108.600	-7.760	0.099
108.700	0.872	0.099
108.800	-3.640	0.099
108.900	-10.356	0.099
109.000	-17.572	0.099
109.100	-8.707	0.099
109.200	-14.832	0.099
109.300	-14.446	0.099
109.400	-6.671	0.100
109.500	-12.633	0.099
109.600	-5.967	0.099
109.700	-19.319	0.099
109.800	-17.294	0.099
109.900	1.703	0.099
110.000	-0.667	0.099
110.100	-6.275	0.099
110.200	-9.538	0.099
110.300	-7.670	0.099
110.400	-13.137	0.099
110.500	-16.907	0.099
110.600	-20.504	0.099
110.700	-8.275	0.099
110.800	-7.480	0.099
110.900	-2.971	0.099
111.000	-18.471	0.099
111.100	-13.968	0.099
111.200	-14.372	0.099
111.300	-11.091	0.099
111.400	-2.392	0.099
111.500	2.323	0.099
111.600	-20.214	0.099
111.700	-6.336	0.099
111.800	-10.065	0.099
111.900	-16.200	0.099
112.000	-10.300	0.099
112.100	-8.259	0.099
112.200	-9.572	0.099
112.300	-7.705	0.099
112.400	-20.439	0.099
112.500	-17.162	0.099
112.600	-13.201	0.099
112.700	-7.794	0.099
112.800	-14.652	0.099
112.900	-15.683	0.099
113.000	-5.716	0.099
113.100	-10.102	0.099
113.200	-13.312	0.099
113.300	-5.927	0.099
113.400	-18.019	0.099
113.500	-12.577	0.099
113.600	-0.264	0.099
113.700	-2.210	0.099
113.800	-5.367	0.099
113.900	-16.039	0.099
114.000	-15.990	0.099
114.100	-9.535	0.099
114.200	-7.512	0.099
114.300	-12.231	0.099
114.400	-14.477	0.099
114.500	-7.912	0.099
114.600	-16.355	0.099
114.700	-11.969	0.099
114.800	-12.699	0.099
114.900	-8.750	0.099
115.000	-12.930	0.099
115.100	-9.936	0.099
115.200	-21.892	0.099
115.300	-11.671	0.099
115.400	-13.964	0.099
115.500	-9.395	0.099
115.600	-4.507	0.099
115.700	-13.098	0.099
115.800	-6.719	0.099
115.900	-23.783	0.099
116.000	-28.152	0.099
116.100	-10.694	0.099
116.200	-4.900	0.099
116.300	-0.382	0.099
116.400	-16.729	0.099
116.500	-17.227	0.099
116.600	-17.953	0.099
116.700	-26.245	0.099
116.800	-23.458	0.099
116.900	-16.098	0.099
117.000	-6.240	0.099
117.100	-8.224	0.099
117.200	-14.925	0.099
117.300	-14.867	0.099
117.400	-6.008	0.099
117.500	6.022	0.099
117.600	-0.534	0.099
117.700	-24.329	0.099
117.800	-8.310	0.099
117.900	-12.889	0.099
118.000	-18.553	0.099
118.100	-6.781	0.099
118.200	-8.654	0.099
118.300	-4.932	0.099
118.400	4.289	0.099
118.500	-16.290	0.099
118.600	-17.938	0.099
118.700	-12.433	0.099
118.800	-13.889	0.099
118.900	-14.659	0.099
119.000	-10.062	0.099
119.100	-17.732	0.099
119.200	-2.190	0.099
119.300	-20.974	0.099
119.400	-19.212	0.099
119.500	-11.137	0.099
119.600	-18.677	0.099
119.700	-12.655	0.099
119.800	-8.558	0.099
119.900	-4.958	0.099
120.000	-26.281	0.099
120.100	-26.424	0.099
120.200	-21.600	0.099
120.300	-2.101	0.099
120.400	-2.952	0.099
120.500	-8.182	0.099
120.600	-12.065	0.099
120.700	-14.728	0.099
120.800	-16.960	0.099
120.900	-8.314	0.099
121.000	-11.043	0.099
121.100	-8.428	0.099
121.200	-11.628	0.099
121.300	-13.020	0.099
121.400	-10.598	0.099
121.500	-9.602	0.099
121.600	-11.568	0.099
121.700	-12.111	0.099
121.800	-12.051	0.099
121.900	-20.615	0.099
122.000	-6.620	0.099
122.100	-12.692	0.099
122.200	-14.101	0.099
122.300	-16.220	0.099
122.400	-6.117	0.099
122.500	-6.094	0.099
122.600	-18.826	0.099
122.700	-22.123	0.099
122.800	-27.438	0.099
122.900	-18.489	0.099
123.000	-6.077	0.099
123.100	-1.247	0.099
123.200	-22.633	0.099
123.300	-13.201	0.099
123.400	-18.138	0.099
123.500	-4.884	0.099
123.600	-20.337	0.099
123.700	-14.303	0.099
123.800	-16.095	0.099
123.900	-11.634	0.099
124.000	-13.890	0.099
124.100	-7.917	0.099
124.200	-8.589	0.099
124.300	-21.779	0.099
124.400	-17.535	0.099
124.500	-9.797	0.099
124.600	-14.813	0.099
124.700	-12.092	0.099
124.800	-26.340	0.099
124.900	-6.134	0.099
125.000	-3.721	0.099
125.100	-4.263	0.099
125.200	-24.485	0.099
125.300	-8.201	0.099
125.400	-16.219	0.099
125.500	-12.367	0.099
125.600	-15.376	0.099
125.700	-26.463	0.099
125.800	-16.765	0.099
125.900	-18.615	0.099
126.000	-19.352	0.099
126.100	-7.476	0.099
126.200	-16.397	0.099
126.300	-10.707	0.099
126.400	-6.330	0.099
126.500	-18.025	0.099
126.600	-13.755	0.099
126.700	-10.622	0.099
126.800	-9.848	0.099
126.900	-19.471	0.099
127.000	-11.682	0.099
127.100	-13.104	0.099
127.200	1.258	0.100
127.300	-20.241	0.099
127.400	-8.663	0.099
127.500	-13.062	0.099
127.600	-13.248	0.099
127.700	-10.154	0.099
127.800	-8.278	0.099
127.900	-12.286	0.099
128.000	-11.503	0.099
128.100	-11.642	0.099
128.200	-15.279	0.099
128.300	-6.012	0.099
128.400	-9.344	0.099
128.500	-25.329	0.099
128.600	-21.026	0.099
128.700	-20.533	0.099
128.800	-8.122	0.099
128.900	-22.060	0.099
129.000	-11.822	0.099
129.100	-15.433	0.099
129.200	-9.716	0.099
129.300	-12.105	0.099
129.400	-16.062	0.099
129.500	-15.426	0.099
129.600	-6.206	0.099
129.700	-7.739	0.099
129.800	-4.289	0.099
129.900	-14.643	0.099
130.000	-11.977	0.099
130.100	-30.774	0.099
130.200	-25.167	0.099
130.300	-16.776	0.099
130.400	-7.978	0.099
130.500	-7.180	0.099
130.600	-17.474	0.099
130.700	-16.594	0.099
130.800	1.153	0.099
130.900	-8.428	0.099
131.000	-12.140	0.099
131.100	-29.713	0.099
131.200	-2.664	0.099
131.300	-18.565	0.099
131.400	-6.058	0.099
131.500	3.040	0.099
131.600	-13.721	0.099
131.700	-5.844	0.099
131.800	-14.225	0.099
131.900	-11.835	0.099
132.000	-20.509	0.099
132.100	-16.159	0.099
132.200	-11.463	0.099
132.300	-12.754	0.099
132.400	-3.424	0.099
132.500	-20.242	0.099
132.600	-16.439	0.099
132.700	-19.707	0.099
132.800	-10.082	0.099
132.900	-20.219	0.099
133.000	-1.286	0.099
133.100	-19.877	0.099
133.200	-20.475	0.099
133.300	-12.090	0.099
133.400	-18.434	0.099
133.500	-16.599	0.099
133.600	-13.955	0.099
133.700	-14.024	0.099
133.800	-10.720	0.099
133.900	-13.905	0.099
134.000	-13.048	0.099
134.100	-12.678	0.099
134.200	-20.295	0.099
134.300	-28.267	0.099
134.400	-21.077	0.099
134.500	-24.781	0.099
134.600	-12.638	0.099
134.700	-1.423	0.099
134.800	-21.288	0.099
134.900	-21.441	0.099
135.000	-19.461	0.099
135.100	-12.240	0.099
135.200	-17.630	0.099
135.300	-6.632	0.099
135.400	-4.599	0.099
135.500	-24.925	0.099
135.600	-11.198	0.099
135.700	-16.282	0.099
135.800	-9.217	0.099
135.900	-4.189	0.099
136.000	-4.159	0.099
136.100	-30.084	0.099
136.200	-29.839	0.099
136.300	-14.725	0.099
136.400	-9.715	0.099
136.500	-7.834	0.099
136.600	-16.745	0.100
136.700	-19.854	0.099
136.800	-18.977	0.099
136.900	-16.827	0.099
137.000	-9.414	0.099
137.100	1.840	0.099
137.200	-17.542	0.099
137.300	-17.332	0.099
137.400	-11.434	0.099
137.500	-17.440	0.099
137.600	-15.120	0.099
137.700	-13.947	0.099
137.800	-18.279	0.099
137.900	-13.876	0.099
138.000	-19.819	0.099
138.100	-27.093	0.099
138.200	-8.601	0.099
138.300	-19.067	0.099
138.400	-23.804	0.099
138.500	2.258	0.099
138.600	-12.215	0.099
138.700	3.782	0.099
138.800	-21.927	0.099
138.900	-8.770	0.099
139.000	-9.876	0.099
139.100	-10.017	0.099
139.200	0.593	0.099
139.300	-1.680	0.099
139.400	-12.061	0.099
139.500	-21.110	0.099
139.600	-18.017	0.099
139.700	-8.903	0.099
139.800	-22.527	0.099
139.900	-11.637	0.099
140.000	-10.084	0.099
140.100	-24.380	0.099
140.200	-19.718	0.099
140.300	-14.807	0.099
140.400	-14.237	0.099
140.500	-2.446	0.099
140.600	-2.272	0.099
140.700	-11.369	0.099
140.800	-12.480	0.099
140.900	-19.491	0.099
141.000	-7.633	0.099
141.100	-12.970	0.099
141.200	3.697	0.099
141.300	-12.542	0.099
141.400	-4.901	0.099
141.500	-21.903	0.099
141.600	-19.834	0.099
141.700	-8.289	0.099
141.800	-13.974	0.099
141.900	-4.066	0.099
142.000	-13.147	0.099
142.100	-14.093	0.099
142.200	-13.599	0.099
142.300	-5.446	0.099
142.400	-16.450	0.099
142.500	-21.944	0.099
142.600	-16.911	0.099
142.700	-11.997	0.099
142.800	-9.642	0.099
142.900	-21.286	0.099
143.000	-23.770	0.100
143.100	-15.740	0.099
143.200	-0.711	0.099
143.300	-7.900	0.100
143.400	-6.904	0.099
143.500	-10.298	0.099
143.600	-5.723	0.099
143.700	-11.836	0.099
143.800	-13.220	0.099
143.900	-23.987	0.099
144.000	1.141	0.099
144.100	-7.113	0.099
144.200	-10.615	0.100
144.300	-10.346	0.099
144.400	-14.663	0.099
144.500	-8.520	0.100
144.600	-14.270	0.099
144.700	-12.306	0.100
144.800	-14.400	0.100
144.900	-14.710	0.099
145.000	-23.760	0.099
145.100	-20.363	0.099
145.200	-21.267	0.099
145.300	-14.540	0.099
145.400	-15.906	0.099
145.500	-9.278	0.100
145.600	-16.896	0.099
145.700	-15.802	0.099
145.800	-5.816	0.099
145.900	-2.949	0.099
146.000	-16.776	0.099
146.100	-5.831	0.099
146.200	-11.487	0.100
146.300	-15.875	0.099
146.400	-18.213	0.099
146.500	-24.829	0.099
146.600	-14.080	0.099
146.700	-16.291	0.099
146.800	-16.224	0.099
146.900	-8.220	0.099
147.000	-1.022	0.099
147.100	-14.264	0.099
147.200	-30.651	0.099
147.300	-1.238	0.099
147.400	-15.886	0.099
147.500	-12.028	0.100
147.600	-17.964	0.100
147.700	-15.176	0.099
147.800	-3.761	0.100
147.900	-12.517	0.099
148.000	-9.664	0.099
148.100	-5.975	0.099
148.200	-11.510	0.099
148.300	-11.006	0.099
148.400	-14.271	0.099
148.500	-11.386	0.099
148.600	-11.236	0.099
148.700	-15.273	0.099
148.800	-17.129	0.099
148.900	-20.138	0.099
149.000	-7.800	0.100
149.100	-7.314	0.100
149.200	-7.585	0.099
149.300	-14.661	0.099
149.400	-17.761	0.099
149.500	-0.049	0.099
149.600	-7.479	0.099
149.700	-7.265	0.099
149.800	-11.695	0.099
149.900	-14.142	0.099
150.000	-0.717	0.099
150.100	-7.993	0.099
150.200	-15.890	0.099
150.300	-15.044	0.099
150.400	-24.705	0.099
150.500	-2.975	0.099
150.600	-8.935	0.099
150.700	1.915	0.099
150.800	-19.864	0.099
150.900	-14.278	0.099
151.000	-10.553	0.099
151.100	-16.335	0.099
151.200	-5.913	0.099
151.300	-1.962	0.099
151.400	-7.462	0.099
151.500	-0.013	0.099
151.600	-9.614	0.100
151.700	-18.008	0.099
151.800	-6.448	0.100
151.900	-21.295	0.099
152.000	-6.963	0.099
152.100	-21.452	0.099
152.200	-12.828	0.099
152.300	-12.434	0.099
152.400	-15.349	0.099
152.500	-16.020	0.099
152.600	-7.339	0.099
152.700	-9.085	0.099
152.800	-8.229	0.099
152.900	-18.850	0.099
153.000	-15.023	0.099
153.100	-8.600	0.099
153.200	-7.432	0.099
153.300	-10.165	0.099
153.400	-3.721	0.099
153.500	-12.543	0.099
153.600	-12.600	0.099
153.700	-14.880	0.099
153.800	-6.136	0.099
153.900	-4.482	0.099
154.000	-11.745	0.099
154.100	-7.019	0.099
154.200	-8.666	0.099
154.300	-3.303	0.099
154.400	-7.494	0.099
154.500	-11.157	0.099
154.600	-1.731	0.099
154.700	-14.487	0.100
154.800	-10.722	0.099
154.900	-12.454	0.099
155.000	-6.063	0.099
155.100	-13.532	0.099
155.200	-9.550	0.099
155.300	2.366	0.099
155.400	-5.104	0.099
155.500	-24.657	0.099
155.600	-9.634	0.099
155.700	-20.457	0.099
155.800	-8.928	0.099
155.900	-8.816	0.099
156.000	-16.738	0.099
156.100	0.250	0.099
156.200	-11.558	0.100
156.300	-11.080	0.099
156.400	-13.451	0.099
156.500	-8.120	0.099
156.600	-19.039	0.099
156.700	-21.918	0.099
156.800	-5.232	0.099
156.900	-7.365	0.099
157.000	-10.063	0.099
157.100	-6.465	0.099
157.200	-11.978	0.099
157.300	-4.980	0.099
157.400	-7.698	0.099
157.500	-10.642	0.099
157.600	-21.782	0.099
157.700	-8.335	0.100
157.800	-8.595	0.099
157.900	-12.449	0.099
158.000	-23.365	0.099
158.100	-14.133	0.099
158.200	-11.007	0.099
158.300	-7.616	0.099
158.400	-5.148	0.099
158.500	-12.738	0.099
158.600	-17.007	0.099
158.700	-9.573	0.099
158.800	-11.285	0.099
158.900	-20.461	0.099
159.000	-5.914	0.099
159.100	-18.852	0.099
159.200	-2.450	0.099
159.300	-6.045	0.099
159.400	-15.268	0.099
159.500	-9.564	0.099
159.600	-6.857	0.099
159.700	-3.872	0.099
159.800	-17.564	0.099
159.900	-8.180	0.099
160.000	-22.131	0.099
160.100	-25.452	0.099
160.200	-7.740	0.099
160.300	0.857	0.099
160.400	-14.812	0.099
160.500	-10.967	0.099
160.600	-5.106	0.099
160.700	-12.295	0.099
160.800	-0.312	0.099
160.900	-10.164	0.099
161.000	-0.244	0.099
161.100	-2.966	0.099
161.200	-7.351	0.099
161.300	-0.741	0.099
161.400	-6.857	0.099
161.500	-11.942	0.099
161.600	-22.904	0.099
161.700	1.582	0.099
161.800	-0.404	0.099
161.900	-15.190	0.099
162.000	-9.772	0.099
162.100	-12.809	0.099
162.200	-5.165	0.100
162.300	-6.727	0.100
162.400	-16.454	0.099
162.500	-11.239	0.099
162.600	-1.196	0.099
162.700	-16.156	0.100
162.800	-10.768	0.099
162.900	-16.656	0.099
163.000	-8.746	0.099
163.100	-3.555	0.099
163.200	-13.344	0.100
163.300	-4.676	0.099
163.400	-7.198	0.100
163.500	-15.260	0.099
163.600	-24.378	0.099
163.700	-11.073	0.099
163.800	-7.616	0.099
163.900	-14.071	0.099
164.000	-16.185	0.100
164.100	1.405	0.100
164.200	-13.433	0.099
164.300	-10.365	0.099
164.400	-5.137	0.099
164.500	-11.432	0.100
164.600	-2.055	0.099
164.700	-16.144	0.099
164.800	-27.436	0.100
164.900	-10.906	0.100
165.000	-16.395	0.099
165.100	3.009	0.100
165.200	-0.782	0.100
165.300	-13.094	0.099
165.400	-2.863	0.100
165.500	-2.930	0.099
165.600	-14.381	0.099
165.700	-26.465	0.099
165.800	-10.685	0.099
165.900	-7.713	0.099
166.000	2.869	0.099
166.100	-10.805	0.099
166.200	-14.955	0.100
166.300	-10.491	0.099
166.400	-9.108	0.099
166.500	-17.149	0.099
166.600	-2.898	0.099
166.700	-15.619	0.099
166.800	-5.278	0.099
166.900	-10.729	0.099
167.000	-6.798	0.099
167.100	-17.465	0.099
167.200	-15.235	0.099
167.300	-1.052	0.099
167.400	-12.801	0.099
167.500	-12.128	0.099
167.600	-16.426	0.099
167.700	-0.109	0.099
167.800	-9.608	0.099
167.900	-5.419	0.099
168.000	-11.838	0.099
168.100	-6.706	0.099
168.200	-6.714	0.099
168.300	-6.894	0.099
168.400	-16.739	0.099
168.500	-8.920	0.099
168.600	-11.315	0.099
168.700	-5.602	0.099
168.800	-22.116	0.099
168.900	-12.056	0.099
169.000	-2.359	0.099
169.100	-17.064	0.100
169.200	-1.789	0.100
169.300	-14.596	0.100
169.400	-8.913	0.099
169.500	-9.770	0.099
169.600	-8.070	0.099
169.700	-6.679	0.099
169.800	-8.205	0.099
169.900	-16.227	0.099
170.000	-9.586	0.100
170.100	-8.947	0.100
170.200	-16.897	0.099
170.300	-2.769	0.099
170.400	-7.146	0.099
170.500	-10.681	0.099
170.600	-3.099	0.099
170.700	-12.272	0.100
170.800	-14.556	0.099
170.900	-9.156	0.099
171.000	-11.660	0.100
171.100	-9.742	0.099
171.200	-8.727	0.099
171.300	-11.667	0.099
171.400	-6.706	0.099
171.500	-22.396	0.099
171.600	-21.327	0.100
171.700	-3.648	0.099
171.800	-1.073	0.100
171.900	-12.225	0.099
172.000	-14.743	0.099
172.100	-13.470	0.099
172.200	-8.668	0.099
172.300	-2.154	0.099
172.400	-2.393	0.099
172.500	-20.892	0.099
172.600	-7.081	0.099
172.700	-11.765	0.099
172.800	-0.243	0.099
172.900	-6.335	0.099
173.000	-2.477	0.099
173.100	-3.910	0.099
173.200	3.872	0.099
173.300	-9.658	0.100
173.400	-20.486	0.099
173.500	-16.858	0.099
173.600	-15.226	0.100
173.700	-2.134	0.099
173.800	-10.417	0.099
173.900	-3.084	0.099
174.000	-10.931	0.099
174.100	-15.839	0.099
174.200	-12.549	0.099
174.300	-12.399	0.099
174.400	-2.117	0.099
174.500	-7.890	0.099
174.600	-24.589	0.099
174.700	-9.826	0.099
174.800	-7.494	0.099
174.900	-4.372	0.099
175.000	-12.303	0.099
175.100	-0.837	0.099
175.200	-3.222	0.099
175.300	-11.864	0.099
175.400	-12.476	0.099
175.500	-10.009	0.100
175.600	-5.505	0.100
175.700	-17.491	0.099
175.800	-10.351	0.099
175.900	6.446	0.099
176.000	-8.860	0.099
176.100	-10.419	0.099
176.200	-20.129	0.099
176.300	0.572	0.099
176.400	-4.728	0.099
176.500	-0.705	0.099
176.600	-15.167	0.099
176.700	-3.944	0.099
176.800	-11.418	0.099
176.900	-11.180	0.099
177.000	-18.011	0.099
177.100	-6.779	0.099
177.200	7.198	0.100
177.300	-14.600	0.099
177.400	-23.603	0.099
177.500	-6.977	0.100
177.600	4.253	0.100
177.700	-17.832	0.099
177.800	-11.747	0.099
177.900	-6.251	0.099
178.000	-2.150	0.099
178.100	-10.771	0.099
178.200	-12.637	0.099
178.300	-0.319	0.100
178.400	-2.800	0.099
178.500	0.271	0.100
178.600	-19.053	0.099
178.700	-3.875	0.099
178.800	-2.899	0.100
178.900	-17.397	0.099
179.000	-13.850	0.099
179.100	7.060	0.099
179.200	-11.784	0.099
179.300	-3.868	0.099
179.400	-11.861	0.099
179.500	-14.494	0.099
179.600	-12.392	0.099
179.700	-13.036	0.099
179.800	6.411	0.100
179.900	-5.646	0.099
180.000	-1.298	0.099
180.100	4.513	0.099
180.200	-17.730	0.099
180.300	-15.604	0.099
180.400	3.970	0.099
180.500	1.065	0.099
180.600	9.415	0.099
180.700	10.373	0.099
180.800	7.020	0.099
180.900	-1.094	0.099
181.000	14.720	0.099
181.100	-3.786	0.099
181.200	6.172	0.099
181.300	6.907	0.099
181.400	24.797	0.100
181.500	11.440	0.099
181.600	13.715	0.099
181.700	-1.391	0.099
181.800	17.506	0.099
181.900	27.417	0.100
182.000	25.157	0.099
182.100	20.033	0.099
182.200	11.471	0.099
182.300	5.884	0.099
182.400	15.100	0.099
182.500	5.355	0.099
182.600	20.836	0.099
182.700	17.001	0.099
182.800	19.426	0.099
182.900	16.639	0.099
183.000	13.073	0.099
183.100	27.689	0.099
183.200	18.144	0.099
183.300	7.093	0.099
183.400	11.871	0.099
183.500	19.430	0.100
183.600	6.992	0.099
183.700	16.829	0.099
183.800	22.000	0.099
183.900	22.168	0.099
184.000	21.207	0.099
184.100	10.633	0.099
184.200	7.678	0.099
184.300	12.371	0.099
184.400	16.878	0.099
184.500	4.073	0.099
184.600	-5.328	0.099
184.700	17.653	0.099
184.800	10.465	0.099
184.900	9.489	0.099
185.000	18.895	0.100
185.100	13.962	0.099
185.200	19.372	0.099
185.300	7.811	0.099
185.400	10.254	0.099
185.500	13.764	0.099
185.600	5.675	0.100
185.700	12.947	0.099
185.800	10.321	0.099
185.900	15.086	0.099
186.000	14.691	0.099
186.100	16.321	0.099
186.200	9.254	0.099
186.300	28.925	0.099
186.400	11.534	0.099
186.500	34.845	0.100
186.600	19.914	0.099
186.700	16.473	0.099
186.800	23.657	0.099
186.900	16.971	0.100
187.000	17.598	0.100
187.100	24.061	0.099
187.200	24.273	0.099
187.300	13.692	0.099
187.400	24.130	0.099
187.500	23.953	0.099
187.600	12.458	0.099
187.700	30.011	0.100
187.800	21.627	0.099
187.900	22.529	0.099
188.000	19.654	0.100
188.100	20.685	0.099
188.200	21.425	0.099
188.300	30.608	0.099
188.400	23.301	0.099
188.500	23.278	0.099
188.600	20.236	0.099
188.700	22.428	0.099
188.800	28.346	0.100
188.900	36.646	0.099
189.000	25.096	0.099
189.100	12.169	0.099
189.200	21.335	0.099
189.300	33.574	0.099
189.400	35.734	0.099
189.500	23.892	0.099
189.600	23.703	0.099
189.700	14.828	0.099
189.800	27.669	0.100
189.900	19.981	0.099
190.000	33.553	0.099
190.100	36.758	0.100
190.200	26.486	0.099
190.300	30.483	0.100
190.400	27.524	0.100
190.500	21.038	0.099
190.600	30.694	0.099
190.700	22.462	0.100
190.800	22.704	0.099
190.900	28.279	0.099
191.000	28.044	0.100
191.100	36.374	0.099
191.200	29.980	0.099
191.300	36.549	0.099
191.400	41.179	0.099
191.500	33.985	0.100
191.600	31.914	0.100
191.700	28.982	0.100
191.800	33.483	0.099
191.900	39.046	0.099
192.000	39.814	0.100
192.100	23.984	0.099
192.200	41.753	0.099
192.300	15.936	0.099
192.400	34.897	0.100
192.500	27.995	0.099
192.600	35.761	0.099
192.700	36.270	0.100
192.800	29.419	0.099
192.900	37.693	0.099
193.000	35.428	0.099
193.100	34.536	0.099
193.200	30.369	0.099
193.300	24.149	0.099
193.400	41.877	0.099
193.500	30.242	0.099
193.600	18.651	0.099
193.700	23.542	0.099
193.800	21.536	0.099
193.900	39.512	0.099
194.000	43.863	0.099
194.100	42.056	0.100
194.200	38.012	0.099
194.300	33.337	0.099
194.400	31.306	0.100
194.500	38.641	0.099
194.600	26.823	0.099
194.700	28.283	0.099
194.800	44.959	0.099
194.900	32.435	0.099
195.000	42.045	0.099
195.100	41.441	0.099
195.200	40.006	0.099
195.300	32.251	0.099
195.400	33.997	0.099
195.500	28.255	0.100
195.600	44.612	0.100
195.700	38.206	0.099
195.800	37.436	0.099
195.900	36.701	0.099
196.000	41.995	0.099
196.100	31.457	0.099
196.200	33.381	0.099
196.300	43.069	0.099
196.400	28.959	0.099
196.500	23.284	0.099
196.600	35.953	0.099
196.700	43.016	0.100
196.800	37.426	0.100
196.900	35.907	0.099
197.000	33.041	0.099
197.100	37.852	0.099
197.200	39.594	0.099
197.300	44.447	0.099
197.400	37.596	0.099
197.500	43.890	0.099
197.600	39.027	0.099
197.700	30.413	0.100
197.800	32.844	0.099
197.900	32.518	0.099
198.000	44.106	0.099
198.100	47.200	0.099
198.200	41.167	0.099
198.300	27.512	0.099
198.400	29.582	0.099
198.500	37.059	0.099
198.600	37.092	0.099
198.700	41.999	0.099
198.800	16.264	0.099
198.900	50.471	0.099
199.000	41.210	0.099
199.100	40.957	0.099
199.200	40.174	0.100
199.300	37.076	0.099
199.400	31.452	0.099
199.500	43.867	0.099
199.600	45.216	0.099
199.700	38.435	0.099
199.800	34.041	0.099
199.900	32.032	0.099
200.000	39.603	0.099
200.100	45.052	0.099
200.200	33.441	0.099
200.300	40.345	0.099
200.400	41.608	0.099
200.500	39.305	0.099
200.600	21.111	0.099
200.700	37.955	0.099
200.800	42.108	0.100
200.900	36.995	0.099
201.000	27.513	0.099
201.100	28.110	0.099
201.200	35.735	0.099
201.300	37.417	0.099
201.400	30.927	0.099
201.500	31.850	0.099
201.600	27.955	0.099
201.700	38.854	0.099
201.800	41.595	0.100
201.900	44.392	0.099
202.000	40.221	0.099
202.100	28.832	0.099
202.200	38.836	0.099
202.300	28.588	0.100
202.400	34.594	0.099
202.500	25.917	0.099
202.600	54.260	0.099
202.700	40.842	0.099
202.800	41.486	0.100
202.900	33.926	0.099
203.000	35.355	0.099
203.100	49.155	0.099
203.200	41.616	0.099
203.300	35.570	0.099
203.400	37.366	0.099
203.500	37.073	0.099
203.600	34.887	0.099
203.700	30.427	0.099
203.800	50.393	0.099
203.900	50.154	0.099
204.000	38.144	0.099
204.100	33.219	0.099
204.200	34.162	0.099
204.300	36.920	0.099
204.400	37.586	0.099
204.500	41.301	0.099
204.600	40.696	0.099
204.700	37.086	0.099
204.800	32.770	0.099
204.900	41.819	0.099
205.000	49.424	0.099
205.100	29.920	0.099
205.200	30.770	0.099
205.300	35.176	0.099
205.400	35.459	0.099
205.500	32.526	0.099
205.600	36.276	0.099
205.700	30.290	0.099
205.800	41.054	0.099
205.900	43.179	0.099
206.000	35.327	0.099
206.100	41.375	0.099
206.200	31.846	0.099
206.300	41.836	0.100
206.400	43.900	0.099
206.500	24.904	0.099
206.600	35.305	0.099
206.700	35.474	0.099
206.800	33.155	0.099
206.900	33.995	0.099
207.000	37.333	0.099
207.100	42.847	0.099
207.200	36.998	0.099
207.300	37.511	0.099
207.400	46.130	0.099
207.500	44.367	0.099
207.600	23.075	0.099
207.700	33.992	0.099
207.800	39.558	0.099
207.900	41.387	0.099
208.000	34.639	0.099
208.100	44.167	0.099
208.200	38.534	0.099
208.300	30.628	0.099
208.400	41.258	0.099
208.500	44.004	0.099
208.600	35.736	0.099
208.700	41.126	0.099
208.800	38.996	0.099
208.900	37.592	0.099
209.000	38.452	0.099
209.100	38.958	0.099
209.200	38.076	0.100
209.300	29.837	0.099
209.400	44.949	0.099
209.500	36.015	0.099
209.600	25.987	0.099
209.700	31.962	0.099
209.800	35.075	0.099
209.900	36.754	0.100
210.000	39.105	0.100
210.100	41.656	0.099
210.200	36.816	0.099
210.300	20.811	0.099
210.400	34.926	0.099
210.500	45.468	0.099
210.600	36.852	0.099
210.700	38.218	0.100
210.800	28.588	0.099
210.900	32.603	0.099
211.000	26.538	0.099
211.100	41.257	0.099
211.200	40.263	0.099
211.300	43.720	0.099
211.400	37.802	0.099
211.500	33.895	0.099
211.600	34.394	0.099
211.700	37.909	0.099
211.800	45.364	0.099
211.900	40.919	0.099
212.000	35.175	0.100
212.100	27.219	0.099
212.200	37.855	0.099
212.300	37.520	0.099
212.400	41.891	0.099
212.500	26.767	0.099
212.600	28.484	0.099
212.700	23.358	0.099
212.800	38.164	0.099
212.900	38.459	0.099
213.000	49.759	0.099
213.100	39.203	0.099
213.200	37.765	0.099
213.300	39.532	0.099
213.400	45.178	0.099
213.500	43.720	0.099
213.600	34.407	0.099
213.700	21.468	0.099
213.800	31.453	0.099
213.900	39.498	0.099
214.000	41.595	0.099
214.100	43.463	0.099
214.200	39.987	0.099
214.300	33.835	0.099
214.400	35.689	0.099
214.500	39.706	0.099
214.600	30.875	0.099
214.700	41.481	0.099
214.800	33.311	0.099
214.900	27.348	0.099
215.000	47.760	0.099
215.100	39.811	0.099
215.200	17.303	0.099
215.300	33.854	0.099
215.400	37.660	0.099
215.500	38.353	0.099
215.600	46.932	0.099
215.700	30.692	0.099
215.800	42.194	0.100
215.900	32.923	0.099
216.000	40.920	0.099
216.100	47.781	0.099
216.200	27.214	0.099
216.300	30.638	0.099
216.400	39.008	0.099
216.500	41.603	0.099
216.600	32.643	0.099
216.700	43.052	0.099
216.800	40.455	0.099
216.900	42.259	0.099
217.000	32.853	0.099
217.100	33.822	0.099
217.200	32.527	0.099
217.300	41.683	0.099
217.400	32.697	0.099
217.500	36.252	0.099
217.600	18.036	0.100
217.700	37.024	0.099
217.800	40.181	0.099
217.900	37.310	0.099
218.000	34.723	0.099
218.100	33.938	0.099
218.200	32.866	0.099
218.300	40.957	0.099
218.400	32.854	0.099
218.500	30.737	0.099
218.600	46.632	0.099
218.700	32.485	0.099
218.800	32.362	0.099
218.900	40.230	0.099
219.000	39.743	0.099
219.100	33.941	0.099
219.200	39.582	0.099
219.300	35.302	0.099
219.400	34.825	0.100
219.500	25.552	0.099
219.600	47.217	0.099
219.700	35.213	0.099
219.800	38.225	0.099
219.900	40.401	0.099
220.000	43.212	0.099
220.100	43.806	0.099
220.200	30.947	0.099
220.300	36.649	0.099
220.400	43.502	0.099
220.500	39.377	0.099
220.600	36.468	0.099
220.700	35.676	0.099
220.800	38.250	0.099
220.900	32.742	0.099
221.000	36.045	0.099
221.100	38.057	0.099
221.200	32.478	0.099
221.300	49.255	0.099
221.400	33.637	0.099
221.500	41.189	0.099
221.600	44.197	0.099
221.700	20.905	0.099
221.800	38.869	0.099
221.900	41.164	0.099
222.000	39.257	0.099
222.100	33.581	0.099
222.200	26.542	0.099
222.300	34.389	0.099
222.400	43.782	0.099
222.500	42.948	0.099
222.600	29.214	0.099
222.700	33.258	0.099
222.800	42.079	0.099
222.900	43.516	0.099
223.000	43.255	0.099
223.100	31.273	0.100
223.200	39.792	0.099
223.300	35.616	0.099
223.400	41.579	0.099
223.500	23.928	0.099
223.600	34.306	0.099
223.700	26.203	0.099
223.800	47.677	0.099
223.900	34.302	0.100
224.000	27.122	0.099
224.100	32.512	0.099
224.200	47.514	0.099
224.300	38.683	0.099
224.400	34.037	0.099
224.500	36.017	0.099
224.600	33.905	0.099
224.700	36.020	0.100
224.800	38.465	0.100
224.900	36.163	0.099
225.000	23.132	0.100
225.100	34.070	0.100
225.200	41.988	0.099
225.300	33.521	0.099
225.400	50.313	0.099
225.500	38.447	0.099
225.600	36.441	0.099
225.700	38.150	0.099
225.800	36.809	0.100
225.900	34.682	0.099
226.000	28.994	0.099
226.100	43.231	0.099
226.200	43.459	0.099
226.300	43.556	0.099
226.400	23.194	0.099
226.500	25.994	0.099
226.600	31.698	0.099
226.700	40.242	0.099
226.800	36.175	0.099
226.900	16.594	0.099
227.000	38.762	0.099
227.100	42.425	0.099
227.200	50.423	0.099
227.300	37.847	0.099
227.400	48.806	0.099
227.500	27.554	0.099
227.600	32.925	0.099
227.700	28.682	0.099
227.800	36.942	0.099
227.900	43.322	0.099
228.000	29.884	0.099
228.100	46.382	0.100
228.200	35.794	0.099
228.300	42.611	0.099
228.400	39.097	0.100
228.500	44.109	0.099
228.600	27.172	0.100
228.700	27.763	0.099
228.800	34.869	0.099
228.900	41.136	0.099
229.000	29.806	0.099
229.100	42.597	0.099
229.200	35.920	0.099
229.300	40.785	0.099
229.400	30.930	0.099
229.500	36.812	0.099
229.600	22.293	0.099
229.700	35.799	0.099
229.800	51.208	0.099
229.900	33.851	0.100
230.000	29.106	0.099
230.100	36.884	0.099
230.200	39.051	0.099
230.300	32.272	0.099
230.400	23.750	0.099
230.500	41.989	0.100
230.600	28.982	0.099
230.700	27.538	0.099
230.800	32.611	0.099
230.900	46.921	0.099
231.000	31.926	0.099
231.100	44.752	0.099
231.200	33.026	0.099
231.300	30.112	0.099
231.400	30.529	0.099
231.500	37.715	0.099
231.600	29.205	0.099
231.700	40.006	0.099
231.800	33.896	0.099
231.900	40.671	0.099
232.000	29.694	0.099
232.100	33.181	0.099
232.200	42.566	0.099
232.300	28.035	0.099
232.400	45.356	0.100
232.500	32.677	0.099
232.600	27.132	0.099
232.700	33.361	0.100
232.800	29.696	0.099
232.900	32.085	0.099
233.000	29.615	0.099
233.100	35.716	0.099
233.200	37.255	0.099
233.300	38.675	0.099
233.400	34.423	0.099
233.500	32.984	0.099
233.600	30.042	0.099
233.700	34.620	0.099
233.800	34.743	0.099
233.900	43.669	0.099
234.000	30.963	0.099
234.100	21.473	0.099
234.200	39.870	0.099
234.300	31.228	0.100
234.400	44.845	0.099
234.500	44.622	0.099
234.600	44.460	0.099
234.700	29.591	0.099
234.800	37.370	0.099
234.900	31.137	0.099
235.000	26.894	0.099
235.100	21.769	0.099
235.200	37.810	0.099
235.300	40.997	0.099
235.400	44.377	0.099
235.500	28.110	0.099
235.600	40.921	0.099
235.700	40.467	0.099
235.800	39.216	0.099
235.900	42.177	0.099
236.000	37.676	0.099
236.100	30.530	0.099
236.200	32.838	0.099
236.300	30.050	0.099
236.400	34.735	0.099
236.500	32.741	0.099
236.600	38.320	0.100
236.700	27.396	0.099
236.800	28.560	0.099
236.900	25.754	0.099
237.000	36.232	0.099
237.100	38.205	0.099
237.200	28.034	0.099
237.300	34.998	0.099
237.400	28.125	0.099
237.500	32.503	0.099
237.600	40.989	0.099
237.700	35.538	0.099
237.800	46.019	0.099
237.900	35.160	0.099
238.000	34.834	0.099
238.100	32.483	0.099
238.200	47.010	0.100
238.300	39.603	0.099
238.400	21.439	0.099
238.500	34.665	0.099
238.600	31.898	0.099
238.700	30.154	0.099
238.800	29.282	0.099
238.900	40.875	0.099
239.000	36.454	0.099
239.100	32.020	0.099
239.200	22.986	0.099
239.300	35.789	0.099
239.400	21.983	0.099
239.500	22.735	0.099
239.600	39.511	0.099
239.700	32.354	0.099
239.800	31.049	0.099
239.900	35.328	0.099
240.000	33.095	0.099
240.100	27.001	0.099
240.200	27.658	0.099
240.300	27.125	0.099
240.400	24.034	0.099
240.500	13.909	0.099
240.600	19.422	0.100
240.700	8.638	0.099
240.800	28.160	0.099
240.900	24.289	0.099
241.000	26.625	0.099
241.100	12.806	0.099
241.200	10.916	0.099
241.300	6.031	0.099
241.400	6.975	0.099
241.500	7.104	0.099
241.600	1.740	0.099
241.700	5.645	0.099
241.800	9.041	0.099
241.900	-1.045	0.099
242.000	1.348	0.099
242.100	13.978	0.099
242.200	-6.154	0.099
242.300	2.782	0.099
242.400	4.721	0.099
242.500	-7.686	0.099
242.600	7.582	0.099
242.700	-0.161	0.099
242.800	8.453	0.099
242.900	0.185	0.099
243.000	9.129	0.099
243.100	9.751	0.099
243.200	-7.433	0.099
243.300	-5.042	0.099
243.400	2.643	0.099
243.500	1.282	0.099
243.600	-5.197	0.099
243.700	-7.810	0.099
243.800	-3.570	0.099
243.900	-7.177	0.099
244.000	-6.221	0.099
244.100	-2.523	0.099
244.200	-2.998	0.099
244.300	1.576	0.099
244.400	-13.365	0.099
244.500	1.129	0.099
244.600	1.431	0.099
244.700	-1.197	0.099
244.800	-6.105	0.099
244.900	-10.412	0.099
245.000	6.156	0.099
245.100	-11.530	0.099
245.200	0.023	0.099
245.300	0.865	0.099
245.400	-10.159	0.099
245.500	-16.594	0.099
245.600	-13.666	0.099
245.700	2.683	0.099
245.800	-1.366	0.099
245.900	-10.916	0.099
246.000	-4.829	0.099
246.100	9.382	0.099
246.200	-10.239	0.099
246.300	-3.153	0.099
246.400	-1.234	0.099
246.500	0.252	0.099
246.600	-8.717	0.099
246.700	-8.071	0.099
246.800	-8.839	0.099
246.900	-14.817	0.099
247.000	-6.611	0.099
247.100	0.504	0.099
247.200	-9.684	0.099
247.300	-10.341	0.099
247.400	-3.473	0.099
247.500	-2.840	0.099
247.600	-27.537	0.099
247.700	-4.007	0.099
247.800	-10.508	0.099
247.900	-10.380	0.099
248.000	-18.938	0.099
248.100	1.893	0.099
248.200	-6.621	0.099
248.300	-1.155	0.099
248.400	-15.056	0.099
248.500	-4.009	0.099
248.600	-7.067	0.099
248.700	-6.980	0.099
248.800	-13.164	0.099
248.900	-3.801	0.099
249.000	-5.129	0.099
249.100	-16.030	0.099
249.200	-6.805	0.099
249.300	-23.639	0.099
249.400	-11.445	0.099
249.500	-5.083	0.099
249.600	-0.488	0.099
249.700	-2.956	0.099
249.800	-7.442	0.099
249.900	-10.528	0.099
250.000	-15.529	0.099
250.100	-6.794	0.099
250.200	-3.839	0.099
250.300	-13.296	0.099
250.400	-7.921	0.099
250.500	-16.877	0.099
250.600	-7.478	0.099
250.700	-4.518	0.099
250.800	-5.622	0.100
250.900	-14.592	0.099
251.000	-31.032	0.099
251.100	-20.238	0.099
251.200	-6.233	0.099
251.300	-9.175	0.099
251.400	-17.375	0.099
251.500	-6.659	0.099
251.600	-21.892	0.099
251.700	-20.956	0.099
251.800	-8.597	0.099
251.900	-5.047	0.099
252.000	-14.098	0.099
252.100	0.763	0.099
252.200	-13.367	0.099
252.300	-9.545	0.100
252.400	-6.205	0.099
252.500	-12.758	0.099
252.600	-12.297	0.099
252.700	-8.518	0.100
252.800	-4.064	0.099
252.900	-0.778	0.099
253.000	-23.198	0.099
253.100	-24.749	0.099
253.200	-20.761	0.099
253.300	-4.111	0.099
253.400	-11.439	0.099
253.500	-20.167	0.099
253.600	-19.533	0.100
253.700	-8.023	0.099
253.800	-21.405	0.099
253.900	-4.829	0.099
254.000	-15.302	0.099
254.100	-17.410	0.099
254.200	-8.364	0.100
254.300	-8.849	0.099
254.400	-21.291	0.099
254.500	-4.953	0.099
254.600	-23.766	0.099
254.700	-21.252	0.099
254.800	-20.440	0.099
254.900	-12.017	0.099
255.000	-5.235	0.099
255.100	-8.180	0.099
255.200	-16.448	0.099
255.300	-18.036	0.099
255.400	-16.085	0.099
255.500	-4.228	0.099
255.600	-14.701	0.099
255.700	-10.328	0.099
255.800	-16.140	0.099
255.900	-12.662	0.099
256.000	-21.923	0.099
256.100	-20.857	0.099
256.200	-14.638	0.099
256.300	-18.942	0.099
256.400	-9.298	0.100
256.500	-13.363	0.099
256.600	-8.218	0.099
256.700	-20.558	0.099
256.800	-9.884	0.100
256.900	-23.173	0.099
257.000	-25.524	0.099
257.100	-25.156	0.099
257.200	-14.175	0.099
257.300	-2.149	0.099
257.400	-23.108	0.099
257.500	-8.584	0.099
257.600	-26.511	0.099
257.700	-11.538	0.099
257.800	-5.758	0.099
257.900	-10.355	0.099
258.000	-9.454	0.099
258.100	-14.452	0.099
258.200	-16.730	0.099
258.300	-24.138	0.099
258.400	-12.500	0.099
258.500	-21.963	0.099
258.600	-19.606	0.099
258.700	-20.955	0.099
258.800	-25.974	0.099
258.900	-16.491	0.099
259.000	-18.525	0.099
259.100	-16.619	0.099
259.200	-21.226	0.099
259.300	-23.801	0.099
259.400	-16.726	0.099
259.500	-16.122	0.099
259.600	-26.204	0.099
259.700	-7.078	0.099
259.800	-17.635	0.099
259.900	-24.521	0.099
260.000	-23.464	0.099
260.100	-23.481	0.099
260.200	-7.388	0.099
260.300	-17.643	0.099
260.400	-16.134	0.099
260.500	-19.099	0.099
260.600	-19.883	0.099
260.700	-30.180	0.099
260.800	-21.033	0.099
260.900	-12.131	0.099
261.000	-7.958	0.099
261.100	-16.427	0.099
261.200	-19.667	0.099
261.300	-19.569	0.099
261.400	-12.634	0.099
261.500	-14.093	0.099
261.600	-24.619	0.099
261.700	-14.270	0.099
261.800	-19.652	0.099
261.900	-20.862	0.099
262.000	-32.929	0.099
262.100	-9.924	0.099
262.200	-6.259	0.099
262.300	-28.377	0.099
262.400	-23.999	0.099
262.500	-22.255	0.099
262.600	-11.681	0.099
262.700	-33.248	0.099
262.800	-12.844	0.099
262.900	-29.420	0.099
263.000	-9.769	0.099
263.100	-20.248	0.099
263.200	-10.886	0.099
263.300	-10.452	0.099
263.400	-18.725	0.099
263.500	-28.670	0.099
263.600	-30.521	0.099
263.700	-35.991	0.099
263.800	-18.191	0.099
263.900	-8.198	0.099
264.000	-8.151	0.099
264.100	-24.434	0.099
264.200	-13.837	0.099
264.300	-18.633	0.099
264.400	-33.648	0.099
264.500	-21.868	0.099
264.600	-13.457	0.099
264.700	-9.467	0.099
264.800	-19.830	0.099
264.900	-27.918	0.099
265.000	-26.129	0.099
265.100	-19.439	0.099
265.200	-21.458	0.099
265.300	-11.603	0.099
265.400	-19.588	0.099
265.500	-18.637	0.099
265.600	-19.799	0.099
265.700	-21.102	0.099
265.800	-20.457	0.099
265.900	-16.306	0.099
266.000	-20.632	0.099
266.100	-19.267	0.099
266.200	-25.275	0.099
266.300	-17.429	0.099
266.400	-29.257	0.099
266.500	-8.513	0.099
266.600	-21.078	0.099
266.700	-20.163	0.099
266.800	-18.465	0.099
266.900	-17.556	0.099
267.000	-13.771	0.099
267.100	-12.859	0.099
267.200	-28.253	0.099
267.300	-17.038	0.099
267.400	-26.723	0.099
267.500	-23.142	0.099
267.600	-20.227	0.099
267.700	-23.921	0.099
267.800	0.925	0.099
267.900	-6.781	0.099
268.000	-15.313	0.099
268.100	-19.976	0.099
268.200	-21.038	0.099
268.300	-18.821	0.099
268.400	-17.090	0.099
268.500	-28.880	0.099
268.600	-18.808	0.099
268.700	-13.559	0.099
268.800	-15.625	0.099
268.900	-15.672	0.099
269.000	-37.610	0.099
269.100	-16.644	0.099
269.200	-27.348	0.099
269.300	-18.345	0.099
269.400	-27.290	0.099
269.500	-16.647	0.099
269.600	-10.946	0.099
269.700	-9.494	0.099
269.800	-13.921	0.099
269.900	-35.043	0.099
270.000	-9.567	0.099
270.100	-25.212	0.099
270.200	-22.426	0.099
270.300	-22.053	0.099
270.400	-22.638	0.099
270.500	-18.265	0.099
270.600	-17.192	0.099
270.700	-26.791	0.099
270.800	-21.916	0.099
270.900	-22.092	0.099
271.000	-14.716	0.099
271.100	-22.650	0.099
271.200	-22.569	0.099
271.300	-28.211	0.100
271.400	-11.906	0.099
271.500	-18.019	0.099
271.600	-17.990	0.100
271.700	-28.439	0.099
271.800	-21.094	0.100
271.900	-28.015	0.100
272.000	-14.185	0.099
272.100	-15.637	0.099
272.200	-10.726	0.099
272.300	-36.431	0.099
272.400	-18.078	0.100
272.500	-19.002	0.100
272.600	-14.791	0.099
272.700	-26.030	0.099
272.800	-23.131	0.099
272.900	-26.801	0.099
273.000	-10.211	0.100
273.100	-18.081	0.100
273.200	-32.193	0.099
273.300	-4.235	0.100
273.400	-11.980	0.100
273.500	-17.995	0.100
273.600	-15.609	0.100
273.700	-25.442	0.100
273.800	-23.805	0.099
273.900	-22.479	0.100
274.000	-17.468	0.099
274.100	-25.064	0.099
274.200	-21.428	0.100
274.300	-17.191	0.100
274.400	-18.680	0.099
274.500	-11.419	0.099
274.600	-18.435	0.099
274.700	-32.887	0.099
274.800	-27.893	0.099
274.900	-27.897	0.100
275.000	-12.827	0.100
275.100	-26.000	0.100
275.200	-26.294	0.099
275.300	-31.630	0.100
275.400	-19.026	0.099
275.500	-10.015	0.099
275.600	-24.332	0.099
275.700	-37.387	0.099
275.800	-6.921	0.099
275.900	-26.942	0.099
276.000	-19.293	0.100
276.100	-14.826	0.099
276.200	-22.518	0.099
276.300	-20.829	0.099
276.400	-15.404	0.099
276.500	-14.608	0.099
276.600	-25.682	0.099
276.700	-19.941	0.099
276.800	-16.812	0.100
276.900	-18.042	0.100
277.000	-19.340	0.099
277.100	-25.919	0.099
277.200	-22.249	0.099
277.300	-18.173	0.099
277.400	-22.316	0.099
277.500	-29.656	0.099
277.600	-18.216	0.099
277.700	-36.124	0.099
277.800	-14.112	0.099
277.900	-26.987	0.099
278.000	-28.618	0.099
278.100	-25.017	0.099
278.200	-9.844	0.099
278.300	-23.705	0.099
278.400	-28.721	0.099
278.500	-30.525	0.099
278.600	-25.401	0.099
278.700	-29.457	0.099
278.800	-12.668	0.099
278.900	-24.320	0.099
279.000	-8.147	0.099
279.100	-19.269	0.099
279.200	-23.495	0.099
279.300	-15.256	0.099
279.400	-16.327	0.099
279.500	-19.260	0.099
279.600	-20.620	0.099
279.700	-23.317	0.099
279.800	-29.379	0.099
279.900	-22.830	0.099
280.000	-19.861	0.099
280.100	-9.066	0.099
280.200	-18.575	0.099
280.300	-24.434	0.099
280.400	-24.592	0.099
280.500	-18.392	0.099
280.600	-23.715	0.099
280.700	-13.636	0.099
280.800	-24.545	0.099
280.900	-19.144	0.099
281.000	-26.719	0.099
281.100	-17.476	0.099
281.200	-18.774	0.099
281.300	-21.074	0.099
281.400	-18.823	0.099
281.500	-19.701	0.099
281.600	-21.160	0.099
281.700	-20.540	0.099
281.800	-19.794	0.099
281.900	-18.897	0.099
282.000	-11.018	0.099
282.100	-16.040	0.099
282.200	-25.949	0.099
282.300	-25.708	0.099
282.400	-25.470	0.099
282.500	-21.828	0.099
282.600	-20.443	0.099
282.700	-14.451	0.099
282.800	-14.575	0.099
282.900	-17.233	0.099
283.000	-27.800	0.099
283.100	-30.156	0.099
283.200	-14.719	0.099
283.300	0.454	0.099
283.400	-23.164	0.099
283.500	-23.867	0.099
283.600	-17.093	0.099
283.700	-23.839	0.099
283.800	-14.712	0.099
283.900	-12.554	0.099
284.000	-28.407	0.099
284.100	-16.020	0.099
284.200	-19.911	0.099
284.300	-14.810	0.099
284.400	-20.855	0.099
284.500	-20.049	0.099
284.600	-24.749	0.099
284.700	-16.771	0.100
284.800	-23.443	0.099
284.900	-19.612	0.099
285.000	-27.161	0.099
285.100	-31.297	0.099
285.200	-14.064	0.099
285.300	-8.938	0.099
285.400	-20.851	0.099
285.500	-28.639	0.099
285.600	-24.118	0.099
285.700	-6.483	0.099
285.800	-17.152	0.099
285.900	-23.592	0.099
286.000	-17.672	0.099
286.100	-20.463	0.099
286.200	-9.111	0.099
286.300	-26.815	0.099
286.400	-21.081	0.099
286.500	-26.891	0.099
286.600	-23.531	0.099
286.700	-15.109	0.099
286.800	-16.735	0.099
286.900	-11.814	0.099
287.000	-24.601	0.099
287.100	-18.554	0.099
287.200	-24.031	0.099
287.300	-22.073	0.099
287.400	-21.482	0.099
287.500	-27.256	0.099
287.600	-28.851	0.099
287.700	-23.075	0.099
287.800	-26.226	0.099
287.900	-15.195	0.099
288.000	-32.562	0.099
288.100	-9.233	0.100
288.200	-23.761	0.099
288.300	-15.659	0.099
288.400	-22.928	0.099
288.500	-19.653	0.099
288.600	-21.637	0.099
288.700	-11.311	0.099
288.800	-20.658	0.099
288.900	-23.713	0.099
289.000	-16.995	0.099
289.100	-21.122	0.099
289.200	-18.817	0.099
289.300	-15.382	0.099
289.400	-22.907	0.099
289.500	-11.943	0.099
289.600	-24.053	0.099
289.700	-22.048	0.099
289.800	-25.232	0.099
289.900	-18.725	0.099
290.000	-14.653	0.099
290.100	-16.433	0.099
290.200	-16.890	0.099
290.300	-21.760	0.099
290.400	-15.420	0.099
290.500	-16.903	0.100
290.600	-11.179	0.099
290.700	-15.601	0.099
290.800	-26.346	0.099
290.900	-16.053	0.099
291.000	-17.598	0.099
291.100	-22.786	0.099
291.200	-11.575	0.099
291.300	-19.512	0.099
291.400	-26.763	0.099
291.500	-18.821	0.099
291.600	-27.417	0.099
291.700	-24.417	0.099
291.800	-14.632	0.100
291.900	-17.638	0.099
292.000	-26.385	0.099
292.100	-26.452	0.099
292.200	-26.978	0.099
292.300	-27.214	0.099
292.400	-15.955	0.099
292.500	-19.891	0.099
292.600	-16.618	0.099
292.700	-15.034	0.099
292.800	-16.743	0.099
292.900	-14.888	0.099
293.000	-15.893	0.099
293.100	-23.501	0.099
293.200	-3.728	0.099
293.300	-16.616	0.099
293.400	-16.503	0.099
293.500	-24.445	0.099
293.600	-13.356	0.099
293.700	-21.939	0.100
293.800	-21.571	0.099
293.900	-17.938	0.099
294.000	-15.905	0.099
294.100	-25.659	0.099
294.200	-27.582	0.099
294.300	-16.466	0.099
294.400	-29.150	0.099
294.500	-19.654	0.099
294.600	-12.212	0.100
294.700	-13.556	0.099
294.800	-22.115	0.099
294.900	-19.227	0.099
295.000	-11.880	0.099
295.100	-15.018	0.099
295.200	-12.436	0.099
295.300	-14.165	0.100
295.400	-29.399	0.099
295.500	-27.649	0.099
295.600	-18.679	0.099
295.700	-24.809	0.099
295.800	-20.875	0.099
295.900	-7.639	0.100
296.000	-15.969	0.099
296.100	-25.503	0.099
296.200	-27.693	0.099
296.300	-11.264	0.099
296.400	-18.214	0.099
296.500	-18.963	0.099
296.600	-20.061	0.099
296.700	-15.864	0.099
296.800	-31.203	0.099
296.900	-9.368	0.099
297.000	-21.518	0.099
297.100	-9.020	0.099
297.200	-5.154	0.099
297.300	-15.764	0.099
297.400	-20.983	0.099
297.500	-9.998	0.099
297.600	-11.635	0.099
297.700	-9.935	0.099
297.800	-24.697	0.099
297.900	-21.486	0.099
298.000	-23.480	0.099
298.100	-16.273	0.099
298.200	-13.099	0.099
298.300	-10.787	0.099
298.400	-14.952	0.099
298.500	-11.773	0.099
298.600	-9.508	0.099
298.700	-13.980	0.099
298.800	-14.079	0.099
298.900	-15.391	0.099
299.000	-25.486	0.099
299.100	-24.500	0.100
299.200	-29.145	0.100
299.300	-18.385	0.099
299.400	-30.354	0.099
299.500	-14.965	0.099
299.600	-10.297	0.099
299.700	-11.554	0.099
299.800	-10.978	0.099
299.900	-9.602	0.099
300.000	-26.947	0.099
300.100	-31.817	0.099
300.200	1.008	0.099
300.300	-15.607	0.099
300.400	-11.769	0.099
300.500	-5.481	0.099
300.600	-22.033	0.099
300.700	-20.350	0.099
300.800	-9.557	0.099
300.900	-14.895	0.099
301.000	-18.414	0.099
301.100	-22.098	0.099
301.200	-18.789	0.099
301.300	-13.184	0.099
301.400	-16.493	0.099
301.500	-17.379	0.099
301.600	-16.952	0.099
301.700	-17.920	0.099
301.800	-18.939	0.099
301.900	-18.745	0.099
302.000	-16.154	0.100
302.100	-22.487	0.099
302.200	-17.152	0.099
302.300	-17.961	0.099
302.400	-7.925	0.099
302.500	-7.224	0.099
302.600	-21.727	0.099
302.700	-19.307	0.099
302.800	-22.766	0.099
302.900	-15.130	0.099
303.000	-15.342	0.099
303.100	-15.500	0.099
303.200	-19.803	0.099
303.300	-18.398	0.099
303.400	-3.460	0.099
303.500	-25.058	0.099
303.600	-14.196	0.099
303.700	-13.511	0.099
303.800	-20.668	0.099
303.900	-15.692	0.099
304.000	-20.750	0.099
304.100	-15.306	0.099
304.200	-14.465	0.099
304.300	-17.337	0.099
304.400	-30.429	0.099
304.500	-4.318	0.099
304.600	-19.831	0.099
304.700	-12.984	0.099
304.800	-18.683	0.099
304.900	-13.619	0.099
305.000	-16.157	0.099
305.100	-7.334	0.099
305.200	-13.838	0.099
305.300	-28.026	0.099
305.400	-18.753	0.099
305.500	-24.283	0.099
305.600	-18.995	0.099
305.700	-23.175	0.099
305.800	-15.402	0.099
305.900	-25.340	0.099
306.000	-19.849	0.099
306.100	-1.801	0.100
306.200	-16.484	0.099
306.300	-22.026	0.099
306.400	-22.553	0.099
306.500	-9.835	0.100
306.600	-20.165	0.099
306.700	-10.738	0.099
306.800	-19.331	0.099
306.900	-14.191	0.099
307.000	-16.416	0.099
307.100	-25.876	0.099
307.200	-19.189	0.099
307.300	-2.673	0.099
307.400	-16.238	0.099
307.500	-6.101	0.100
307.600	-17.472	0.099
307.700	-8.618	0.099
307.800	-24.554	0.099
307.900	-11.629	0.099
308.000	-17.583	0.099
308.100	-8.318	0.099
308.200	-10.399	0.099
308.300	-7.226	0.099
308.400	-20.987	0.099
308.500	-18.147	0.099
308.600	-16.754	0.099
308.700	-6.197	0.099
308.800	-25.052	0.099
308.900	-16.719	0.099
309.000	-21.294	0.099
309.100	-8.590	0.099
309.200	-10.209	0.099
309.300	-14.182	0.099
309.400	-17.269	0.099
309.500	-12.407	0.099
309.600	-29.411	0.099
309.700	-17.502	0.099
309.800	-18.189	0.099
309.900	-18.782	0.099
310.000	-9.324	0.099
310.100	-12.834	0.099
310.200	-20.200	0.099
310.300	-11.895	0.099
310.400	-18.601	0.099
310.500	-18.915	0.099
310.600	-14.648	0.099
310.700	-15.293	0.099
310.800	-8.821	0.099
310.900	-30.151	0.099
311.000	-9.381	0.099
311.100	-8.332	0.099
311.200	-12.021	0.099
311.300	-17.728	0.099
311.400	-5.456	0.099
311.500	-25.594	0.099
311.600	-9.382	0.099
311.700	-12.044	0.099
311.800	-12.063	0.099
311.900	-23.384	0.099
312.000	-4.759	0.099
312.100	-16.348	0.099
312.200	-22.698	0.099
312.300	-16.496	0.099
312.400	-15.208	0.099
312.500	-17.144	0.099
312.600	-20.875	0.099
312.700	-1.385	0.099
312.800	-11.533	0.099
312.900	-16.470	0.099
313.000	-13.446	0.099
313.100	-27.283	0.099
313.200	-13.370	0.099
313.300	-21.755	0.099
313.400	-14.884	0.100
313.500	-11.553	0.099
313.600	-12.133	0.099
313.700	-10.094	0.099
313.800	-9.331	0.099
313.900	-16.397	0.099
314.000	-19.208	0.099
314.100	-8.759	0.099
314.200	-23.384	0.099
314.300	-17.999	0.099
314.400	-17.292	0.099
314.500	-22.533	0.099
314.600	-13.708	0.099
314.700	-22.295	0.099
314.800	-11.870	0.099
314.900	1.497	0.099
315.000	-8.584	0.099
315.100	-11.366	0.099
315.200	-9.000	0.099
315.300	-12.960	0.099
315.400	-18.924	0.100
315.500	-18.719	0.099
315.600	-14.942	0.099
315.700	-17.253	0.099
315.800	-10.393	0.099
315.900	-13.715	0.099
316.000	-8.199	0.099
316.100	-14.565	0.099
316.200	-17.694	0.099
316.300	-18.179	0.099
316.400	-10.658	0.099
316.500	-11.816	0.099
316.600	-17.389	0.099
316.700	-24.799	0.099
316.800	-23.799	0.099
316.900	-25.456	0.099
317.000	-2.445	0.099
317.100	-5.885	0.099
317.200	-14.553	0.099
317.300	-9.319	0.099
317.400	-13.807	0.099
317.500	-14.535	0.099
317.600	-11.509	0.099
317.700	-22.103	0.099
317.800	-20.168	0.099
317.900	-16.856	0.099
318.000	-12.879	0.099
318.100	-14.925	0.099
318.200	-25.452	0.099
318.300	-15.907	0.099
318.400	-7.440	0.099
318.500	-11.571	0.099
318.600	-22.088	0.099
318.700	-29.506	0.099
318.800	-14.661	0.099
318.900	-20.557	0.099
319.000	-6.028	0.099
319.100	-9.216	0.099
319.200	-16.191	0.099
319.300	0.474	0.099
319.400	-16.301	0.099
319.500	-16.527	0.099
319.600	-15.898	0.099
319.700	-14.107	0.099
319.800	-16.692	0.099
319.900	-16.812	0.099
320.000	-16.701	0.099
320.100	-20.129	0.099
320.200	-15.834	0.099
320.300	2.677	0.099
320.400	-16.207	0.099
320.500	-9.971	0.099
320.600	-9.868	0.099
320.700	-16.078	0.099
320.800	-11.845	0.099
320.900	-14.466	0.099
321.000	-19.434	0.099
321.100	-27.450	0.099
321.200	-15.677	0.099
321.300	-11.666	0.099
321.400	-7.038	0.100
321.500	-11.881	0.099
321.600	-13.116	0.099
321.700	-4.310	0.099
321.800	-14.483	0.099
321.900	-7.789	0.099
322.000	-16.194	0.100
322.100	-11.162	0.099
322.200	-25.563	0.099
322.300	-10.218	0.100
322.400	-14.804	0.099
322.500	-26.572	0.099
322.600	-10.533	0.099
322.700	-14.328	0.099
322.800	-14.013	0.099
322.900	-13.234	0.099
323.000	-25.808	0.099
323.100	-17.705	0.099
323.200	-19.762	0.099
323.300	-20.450	0.099
323.400	-24.003	0.099
323.500	-15.268	0.099
323.600	0.578	0.099
323.700	1.529	0.099
323.800	-14.148	0.099
323.900	-21.528	0.099
324.000	-9.638	0.099
324.100	-8.390	0.100
324.200	-4.735	0.099
324.300	-19.096	0.099
324.400	-6.522	0.099
324.500	-14.047	0.100
324.600	-11.255	0.099
324.700	-20.119	0.100
324.800	-11.764	0.099
324.900	-9.872	0.099
325.000	-18.663	0.099
325.100	-9.203	0.099
325.200	-18.552	0.099
325.300	-25.180	0.099
325.400	-11.049	0.100
325.500	-11.865	0.100
325.600	-5.888	0.100
325.700	-20.056	0.099
325.800	-16.452	0.099
325.900	-17.041	0.099
326.000	-17.589	0.099
326.100	-13.533	0.099
326.200	-8.974	0.099
326.300	-21.830	0.099
326.400	-18.222	0.099
326.500	-20.957	0.099
326.600	-5.631	0.100
326.700	-9.441	0.099
326.800	-9.979	0.099
326.900	-28.288	0.099
327.000	-14.876	0.099
327.100	-12.963	0.099
327.200	-7.764	0.099
327.300	-13.442	0.099
327.400	-21.955	0.099
327.500	-20.180	0.099
327.600	-31.810	0.099
327.700	-0.473	0.099
327.800	-13.930	0.099
327.900	-13.260	0.099
328.000	-18.945	0.099
328.100	-12.368	0.099
328.200	-10.922	0.099
328.300	-8.976	0.100
328.400	-8.865	0.099
328.500	-10.882	0.100
328.600	-10.634	0.100
328.700	-22.716	0.099
328.800	-19.603	0.099
328.900	-9.918	0.100
329.000	-8.523	0.099
329.100	-20.721	0.099
329.200	-13.303	0.100
329.300	-12.168	0.100
329.400	-12.422	0.099
329.500	-15.829	0.099
329.600	-15.391	0.100
329.700	-12.950	0.099
329.800	-13.569	0.100
329.900	-4.859	0.100
330.000	-19.598	0.099
330.100	-11.150	0.099
330.200	-0.872	0.099
330.300	-9.614	0.100
330.400	4.789	0.100
330.500	-5.561	0.099
330.600	1.845	0.099
330.700	-3.757	0.099
330.800	-2.615	0.099
330.900	6.545	0.099
331.000	11.897	0.099
331.100	-0.555	0.099
331.200	0.018	0.099
331.300	5.632	0.100
331.400	10.990	0.099
331.500	15.384	0.100
331.600	18.800	0.099
331.700	16.330	0.099
331.800	11.687	0.100
331.900	11.607	0.100
332.000	-2.555	0.099
332.100	10.046	0.099
332.200	22.171	0.099
332.300	16.391	0.099
332.400	10.443	0.100
332.500	27.558	0.099
332.600	7.188	0.099
332.700	5.801	0.099
332.800	17.699	0.099
332.900	14.935	0.099
333.000	19.290	0.099
333.100	9.448	0.099
333.200	12.609	0.099
333.300	21.855	0.099
333.400	12.561	0.099
333.500	3.731	0.099
333.600	17.218	0.099
333.700	7.139	0.099
333.800	8.664	0.100
333.900	9.036	0.099
334.000	5.214	0.099
334.100	-0.955	0.099
334.200	22.850	0.099
334.300	15.482	0.099
334.400	15.501	0.099
334.500	2.739	0.099
334.600	1.932	0.099
334.700	2.911	0.099
334.800	18.308	0.099
334.900	2.132	0.099
335.000	8.689	0.099
335.100	17.331	0.099
335.200	8.584	0.099
335.300	21.190	0.099
335.400	26.272	0.099
335.500	16.178	0.099
335.600	15.321	0.100
335.700	14.945	0.100
335.800	2.338	0.099
335.900	9.049	0.099
336.000	3.056	0.099
336.100	16.063	0.099
336.200	15.248	0.100
336.300	11.631	0.099
336.400	12.381	0.099
336.500	18.867	0.100
336.600	16.903	0.099
336.700	15.386	0.099
336.800	14.186	0.099
336.900	18.072	0.099
337.000	9.489	0.099
337.100	21.602	0.100
337.200	17.518	0.100
337.300	20.178	0.100
337.400	21.237	0.100
337.500	17.263	0.099
337.600	22.385	0.100
337.700	27.699	0.099
337.800	20.441	0.100
337.900	7.624	0.099
338.000	15.820	0.100
338.100	29.072	0.100
338.200	27.940	0.100
338.300	24.751	0.099
338.400	27.792	0.099
338.500	19.346	0.100
338.600	22.009	0.099
338.700	32.398	0.099
338.800	23.259	0.099
338.900	18.344	0.099
339.000	27.946	0.100
339.100	25.238	0.099
339.200	22.212	0.099
339.300	25.419	0.099
339.400	39.099	0.099
339.500	23.757	0.099
339.600	20.505	0.099
339.700	27.894	0.099
339.800	36.790	0.099
339.900	23.798	0.100
340.000	22.023	0.099
340.100	34.808	0.099
340.200	27.051	0.099
340.300	31.796	0.099
340.400	22.163	0.099
340.500	31.699	0.099
340.600	22.114	0.099
340.700	31.569	0.099
340.800	34.594	0.099
340.900	25.192	0.099
341.000	34.613	0.099
341.100	31.432	0.099
341.200	31.688	0.099
341.300	23.787	0.099
341.400	32.883	0.099
341.500	39.298	0.099
341.600	37.570	0.100
341.700	34.454	0.099
341.800	31.794	0.099
341.900	35.366	0.099
342.000	38.579	0.099
342.100	39.293	0.099
342.200	41.533	0.099
342.300	32.789	0.099
342.400	31.534	0.099
342.500	31.581	0.099
342.600	41.183	0.099
342.700	47.154	0.099
342.800	39.296	0.099
342.900	44.537	0.099
343.000	41.391	0.099
343.100	36.835	0.100
343.200	28.910	0.099
343.300	42.259	0.099
343.400	39.514	0.099
343.500	46.146	0.099
343.600	43.080	0.099
343.700	42.111	0.099
343.800	52.425	0.099
343.900	44.329	0.100
344.000	41.839	0.099
344.100	34.283	0.099
344.200	39.895	0.099
344.300	35.395	0.100
344.400	32.955	0.099
344.500	42.947	0.099
344.600	36.438	0.099
344.700	39.722	0.099
344.800	48.365	0.099
344.900	46.837	0.099
345.000	37.117	0.100
345.100	56.113	0.099
345.200	45.131	0.099
345.300	41.075	0.099
345.400	34.320	0.099
345.500	51.454	0.099
345.600	46.118	0.099
345.700	53.564	0.099
345.800	43.699	0.099
345.900	29.509	0.099
346.000	36.832	0.099
346.100	31.593	0.099
346.200	53.364	0.099
346.300	55.807	0.099
346.400	38.387	0.099
346.500	33.034	0.099
346.600	35.497	0.099
346.700	29.355	0.100
346.800	52.036	0.099
346.900	52.161	0.099
347.000	44.515	0.100
347.100	24.493	0.099
347.200	50.457	0.099
347.300	44.779	0.099
347.400	48.764	0.099
347.500	28.308	0.100
347.600	42.596	0.099
347.700	39.261	0.100
347.800	42.435	0.099
347.900	33.498	0.100
348.000	38.515	0.100
348.100	45.732	0.099
348.200	31.160	0.099
348.300	37.296	0.100
348.400	50.180	0.099
348.500	44.005	0.099
348.600	45.996	0.099
348.700	39.380	0.099
348.800	41.714	0.099
348.900	34.269	0.099
349.000	40.275	0.100
349.100	39.145	0.100
349.200	47.600	0.099
349.300	50.106	0.100
349.400	35.844	0.100
349.500	32.538	0.100
349.600	40.460	0.100
349.700	37.681	0.100
349.800	39.118	0.099
349.900	43.239	0.099
350.000	40.301	0.100
350.100	52.750	0.099
350.200	39.303	0.099
350.300	42.824	0.100
350.400	35.703	0.100
350.500	42.018	0.099
350.600	30.088	0.100
350.700	38.611	0.100
350.800	40.478	0.099
350.900	41.906	0.099
351.000	36.747	0.100
351.100	47.338	0.099
351.200	35.226	0.099
351.300	38.700	0.099
351.400	50.059	0.099
351.500	40.124	0.099
351.600	35.111	0.099
351.700	29.602	0.100
351.800	36.025	0.099
351.900	47.224	0.099
352.000	44.113	0.100
352.100	45.398	0.099
352.200	49.915	0.099
352.300	52.250	0.099
352.400	31.619	0.099
352.500	39.485	0.099
352.600	32.115	0.099
352.700	40.777	0.099
352.800	39.154	0.099
352.900	49.858	0.099
353.000	32.134	0.100
353.100	40.465	0.100
353.200	44.323	0.100
353.300	38.404	0.099
353.400	53.922	0.099
353.500	39.003	0.100
353.600	39.216	0.100
353.700	39.775	0.100
353.800	41.161	0.100
353.900	48.082	0.099
354.000	29.115	0.100
354.100	56.238	0.099
354.200	41.867	0.100
354.300	34.875	0.100
354.400	50.622	0.100
354.500	47.562	0.099
354.600	34.380	0.100
354.700	41.572	0.100
354.800	40.456	0.099
354.900	39.488	0.100
355.000	41.189	0.099
355.100	48.992	0.100
355.200	39.500	0.099
355.300	44.409	0.100
355.400	39.950	0.100
355.500	41.055	0.100
355.600	41.477	0.100
355.700	35.205	0.099
355.800	46.405	0.099
355.900	46.882	0.100
356.000	49.708	0.100
356.100	35.699	0.100
356.200	33.913	0.100
356.300	35.042	0.100
356.400	40.536	0.100
356.500	38.004	0.099
356.600	31.322	0.100
356.700	48.719	0.100
356.800	37.598	0.100
356.900	35.598	0.099
357.000	34.791	0.100
357.100	39.624	0.100
357.200	38.463	0.099
357.300	37.390	0.100
357.400	49.526	0.100
357.500	38.284	0.099
357.600	52.675	0.100
357.700	40.781	0.100
357.800	25.156	0.100
357.900	40.727	0.100
358.000	40.207	0.100
358.100	38.545	0.100
358.200	37.010	0.100
358.300	39.849	0.100
358.400	35.009	0.100
358.500	31.602	0.100
358.600	41.784	0.100
358.700	29.431	0.100
358.800	33.480	0.100
358.900	42.212	0.099
359.000	50.473	0.100
359.100	54.392	0.100
359.200	39.243	0.099
359.300	28.699	0.100
359.400	36.326	0.100
359.500	23.402	0.100
359.600	46.028	0.100
359.700	31.565	0.100
359.800	45.003	0.099
359.900	47.197	0.099
360.000	49.471	0.100
360.100	29.753	0.100
360.200	40.958	0.100
360.300	37.273	0.100
360.400	35.329	0.099
360.500	43.833	0.099
360.600	39.929	0.099
360.700	43.695	0.100
360.800	48.366	0.099
360.900	39.791	0.099
361.000	34.851	0.099
361.100	46.141	0.100
361.200	42.848	0.099
361.300	30.323	0.099
361.400	38.309	0.099
361.500	50.795	0.099
361.600	32.313	0.099
361.700	28.103	0.099
361.800	37.044	0.100
361.900	40.664	0.099
362.000	38.757	0.099
362.100	36.122	0.100
362.200	36.022	0.100
362.300	34.816	0.099
362.400	40.110	0.099
362.500	39.639	0.099
362.600	26.226	0.100
362.700	34.294	0.099
362.800	49.375	0.099
362.900	36.515	0.099
363.000	50.249	0.100
363.100	47.572	0.099
363.200	29.386	0.100
363.300	42.000	0.100
363.400	45.375	0.100
363.500	40.669	0.100
363.600	37.366	0.100
363.700	27.406	0.100
363.800	33.386	0.100
363.900	47.862	0.100
364.000	38.018	0.100
364.100	37.996	0.100
364.200	35.610	0.100
364.300	28.635	0.100
364.400	36.161	0.100
364.500	27.619	0.100
364.600	46.303	0.099
364.700	46.755	0.100
364.800	37.331	0.099
364.900	38.437	0.099
365.000	36.972	0.099
365.100	38.842	0.099
365.200	41.266	0.099
365.300	38.260	0.099
365.400	43.547	0.100
365.500	41.443	0.099
365.600	37.936	0.099
365.700	44.962	0.100
365.800	40.983	0.099
365.900	28.223	0.100
366.000	44.810	0.100
366.100	27.010	0.099
366.200	38.434	0.100
366.300	46.456	0.100
366.400	33.299	0.100
366.500	23.182	0.099
366.600	49.420	0.100
366.700	48.601	0.100
366.800	45.955	0.100
366.900	30.982	0.100
367.000	34.594	0.100
367.100	43.690	0.100
367.200	37.313	0.100
367.300	38.430	0.100
367.400	37.601	0.100
367.500	40.485	0.099
367.600	40.161	0.099
367.700	43.482	0.099
367.800	35.806	0.099
367.900	37.906	0.099
368.000	39.144	0.100
368.100	39.532	0.099
368.200	33.580	0.099
368.300	44.744	0.099
368.400	41.905	0.099
368.500	49.517	0.100
368.600	29.954	0.100
368.700	42.459	0.100
368.800	25.688	0.100
368.900	36.494	0.100
369.000	37.702	0.100
369.100	46.205	0.100
369.200	26.934	0.100
369.300	44.137	0.100
369.400	36.875	0.099
369.500	46.991	0.100
369.600	32.743	0.100
369.700	34.455	0.100
369.800	35.923	0.100
369.900	34.954	0.100
370.000	39.268	0.100
370.100	38.915	0.100
370.200	51.185	0.100
370.300	41.580	0.099
370.400	40.854	0.100
370.500	23.173	0.100
370.600	41.346	0.100
370.700	44.657	0.099
370.800	46.834	0.099
370.900	34.594	0.100
371.000	42.130	0.100
371.100	33.476	0.099
371.200	28.076	0.100
371.300	34.890	0.099
371.400	47.319	0.100
371.500	45.972	0.100
371.600	36.179	0.100
371.700	32.821	0.099
371.800	46.285	0.099
371.900	37.491	0.100
372.000	44.137	0.099
372.100	47.292	0.099
372.200	37.908	0.100
372.300	32.696	0.100
372.400	25.882	0.100
372.500	42.062	0.099
372.600	46.746	0.100
372.700	35.076	0.100
372.800	26.549	0.099
372.900	44.448	0.099
373.000	37.731	0.099
373.100	37.665	0.100
373.200	42.040	0.100
373.300	46.831	0.100
373.400	41.658	0.099
373.500	32.149	0.100
373.600	36.182	0.100
373.700	27.764	0.100
373.800	24.636	0.099
373.900	32.438	0.099
374.000	31.694	0.099
374.100	45.498	0.100
374.200	52.860	0.100
374.300	39.908	0.100
374.400	39.251	0.100
374.500	43.836	0.100
374.600	40.193	0.100
374.700	31.531	0.099
374.800	35.613	0.100
374.900	39.278	0.100
375.000	30.184	0.100
375.100	40.507	0.099
375.200	34.245	0.100
375.300	41.961	0.100
375.400	35.955	0.099
375.500	27.673	0.100
375.600	32.359	0.100
375.700	40.550	0.100
375.800	49.481	0.100
375.900	21.590	0.100
376.000	45.903	0.100
376.100	38.512	0.100
376.200	30.606	0.100
376.300	26.630	0.100
376.400	42.658	0.099
376.500	43.055	0.100
376.600	38.034	0.100
376.700	36.549	0.099
376.800	40.811	0.100
376.900	36.929	0.100
377.000	33.420	0.100
377.100	30.320	0.100
377.200	35.874	0.100
377.300	35.626	0.099
377.400	41.751	0.099
377.500	41.088	0.100
377.600	40.204	0.100
377.700	29.517	0.099
377.800	26.122	0.099
377.900	42.500	0.100
378.000	45.099	0.099
378.100	28.849	0.100
378.200	52.290	0.100
378.300	44.466	0.100
378.400	40.088	0.100
378.500	30.635	0.099
378.600	14.588	0.100
378.700	41.003	0.100
378.800	39.488	0.100
378.900	48.534	0.099
379.000	42.550	0.099
379.100	43.634	0.100
379.200	39.043	0.100
379.300	35.145	0.100
379.400	31.721	0.099
379.500	36.168	0.100
379.600	28.797	0.100
379.700	35.197	0.100
379.800	45.554	0.099
379.900	27.498	0.099
380.000	40.851	0.099
380.100	31.208	0.100
380.200	42.399	0.100
380.300	44.993	0.099
380.400	39.837	0.100
380.500	38.130	0.100
380.600	33.662	0.099
380.700	36.001	0.099
380.800	43.016	0.099
380.900	38.468	0.100
381.000	28.700	0.100
381.100	27.239	0.100
381.200	23.721	0.100
381.300	41.390	0.100
381.400	29.185	0.100
381.500	42.432	0.099
381.600	28.175	0.099
381.700	35.888	0.100
381.800	22.945	0.100
381.900	29.823	0.099
382.000	31.277	0.100
382.100	41.445	0.099
382.200	32.880	0.100
382.300	33.551	0.099
382.400	40.964	0.100
382.500	33.837	0.100
382.600	38.274	0.100
382.700	38.390	0.099
382.800	45.676	0.100
382.900	36.623	0.100
383.000	32.328	0.100
383.100	25.760	0.100
383.200	34.414	0.099
383.300	37.087	0.099
383.400	38.364	0.099
383.500	49.537	0.100
383.600	41.170	0.100
383.700	35.652	0.099
383.800	30.586	0.099
383.900	30.347	0.099
384.000	38.030	0.100
384.100	32.814	0.100
384.200	38.343	0.100
384.300	42.905	0.100
384.400	35.919	0.100
384.500	38.087	0.100
384.600	26.379	0.100
384.700	31.111	0.099
384.800	37.181	0.100
384.900	41.357	0.100
385.000	45.559	0.100
385.100	28.884	0.100
385.200	36.790	0.099
385.300	39.749	0.099
385.400	35.857	0.099
385.500	32.576	0.100
385.600	34.500	0.099
385.700	41.881	0.099
385.800	44.790	0.100
385.900	37.452	0.099
386.000	34.040	0.100
386.100	42.613	0.100
386.200	31.481	0.100
386.300	38.768	0.100
386.400	32.443	0.100
386.500	35.368	0.100
386.600	31.678	0.100
386.700	33.855	0.100
386.800	34.931	0.100
386.900	34.223	0.100
387.000	42.133	0.100
387.100	41.270	0.100
387.200	27.658	0.099
387.300	38.029	0.100
387.400	28.690	0.099
387.500	30.721	0.100
387.600	29.628	0.099
387.700	42.585	0.100
387.800	38.590	0.100
387.900	30.857	0.099
388.000	38.056	0.100
388.100	41.179	0.100
388.200	43.780	0.100
388.300	28.694	0.099
388.400	35.810	0.100
388.500	38.372	0.100
388.600	38.150	0.099
388.700	23.887	0.100
388.800	31.727	0.099
388.900	37.172	0.100
389.000	43.954	0.099
389.100	49.210	0.099
389.200	26.721	0.099
389.300	36.713	0.100
389.400	35.597	0.100
389.500	30.885	0.100
389.600	28.666	0.100
389.700	36.122	0.100
389.800	42.497	0.099
389.900	22.993	0.100
390.000	23.113	0.100
390.100	30.109	0.099
390.200	32.406	0.100
390.300	29.147	0.100
390.400	39.215	0.099
390.500	25.315	0.100
390.600	34.366	0.100
390.700	13.427	0.100
390.800	16.468	0.100
390.900	13.543	0.099
391.000	19.917	0.100
391.100	17.820	0.100
391.200	2.969	0.099
391.300	5.011	0.100
391.400	4.182	0.100
391.500	10.558	0.099
391.600	2.342	0.100
391.700	-10.400	0.100
391.800	16.166	0.099
391.900	10.219	0.100
392.000	7.844	0.100
392.100	0.770	0.100
392.200	1.003	0.100
392.300	4.786	0.099
392.400	5.371	0.099
392.500	1.564	0.100
392.600	5.962	0.099
392.700	-7.160	0.100
392.800	-2.835	0.100
392.900	-4.186	0.099
393.000	0.543	0.099
393.100	4.044	0.100
393.200	-7.191	0.099
393.300	-20.914	0.100
393.400	-2.562	0.099
393.500	-8.229	0.099
393.600	-10.393	0.099
393.700	-6.905	0.099
393.800	-10.491	0.099
393.900	8.170	0.099
394.000	-8.355	0.100
394.100	-17.350	0.099
394.200	-12.418	0.100
394.300	-7.456	0.099
394.400	-15.291	0.099
394.500	-20.489	0.100
394.600	1.893	0.100
394.700	-15.337	0.099
394.800	-1.748	0.099
394.900	-10.595	0.099
395.000	-11.080	0.100
395.100	-13.234	0.099
395.200	-0.908	0.099
395.300	-4.868	0.100
395.400	-7.877	0.099
395.500	-5.652	0.100
395.600	-12.112	0.099
395.700	-18.314	0.100
395.800	-10.363	0.099
395.900	-2.422	0.099
396.000	-14.130	0.100
396.100	-1.621	0.099
396.200	-10.058	0.099
396.300	-11.211	0.099
396.400	-8.669	0.099
396.500	-12.700	0.100
396.600	-4.078	0.100
396.700	-10.891	0.099
396.800	0.849	0.100
396.900	5.371	0.100
397.000	-13.804	0.100
397.100	-15.064	0.099
397.200	-13.497	0.100
397.300	-15.055	0.100
397.400	-4.041	0.100
397.500	-4.717	0.099
397.600	-10.580	0.100
397.700	0.672	0.099
397.800	-15.364	0.099
397.900	-14.590	0.100
398.000	-9.224	0.099
398.100	-11.929	0.099
398.200	-17.424	0.100
398.300	-15.503	0.099
398.400	-12.176	0.100
398.500	-21.430	0.099
398.600	-22.068	0.100
398.700	-14.582	0.100
398.800	-7.673	0.100
398.900	-9.637	0.099
399.000	-13.624	0.099
399.100	-9.538	0.099
399.200	-4.031	0.100
399.300	-7.157	0.100
399.400	-7.015	0.099
399.500	-18.317	0.100
399.600	-19.466	0.099
399.700	-30.002	0.099
399.800	-23.428	0.100
399.900	-20.786	0.100
400.000	-3.551	0.099
400.100	-25.464	0.099
400.200	0.630	0.100
400.300	-16.372	0.099
400.400	-13.472	0.100
400.500	-23.336	0.100
400.600	-6.066	0.099
400.700	-14.139	0.099
400.800	-4.972	0.099
400.900	3.084	0.100
401.000	-20.128	0.099
401.100	-26.074	0.099
401.200	-1.672	0.099
401.300	-9.594	0.099
401.400	-15.756	0.100
401.500	-10.845	0.099
401.600	-19.703	0.100
401.700	-23.365	0.099
401.800	-19.895	0.099
401.900	-10.251	0.100
402.000	-13.755	0.099
402.100	-4.818	0.100
402.200	-23.846	0.099
402.300	-8.298	0.099
402.400	-10.485	0.100
402.500	-27.557	0.100
402.600	-14.282	0.100
402.700	-16.054	0.099
402.800	-19.567	0.100
402.900	-9.606	0.100
403.000	-10.856	0.099
403.100	-9.089	0.099
403.200	-24.195	0.100
403.300	-14.017	0.099
403.400	-17.942	0.099
403.500	-19.445	0.099
403.600	-14.644	0.099
403.700	-20.465	0.099
403.800	-14.887	0.100
403.900	-8.397	0.099
404.000	-13.235	0.100
404.100	-11.352	0.100
404.200	-16.623	0.100
404.300	-25.987	0.100
404.400	-10.534	0.100
404.500	-11.956	0.100
404.600	-23.670	0.099
404.700	-28.537	0.099
404.800	-10.633	0.100
404.900	-27.184	0.100
405.000	-13.694	0.100
405.100	-14.340	0.100
405.200	-15.594	0.099
405.300	-20.992	0.100
405.400	-36.753	0.100
405.500	-13.320	0.100
405.600	-23.917	0.100
405.700	-4.756	0.100
405.800	-13.976	0.100
405.900	-24.186	0.100
406.000	-19.759	0.099
406.100	-14.827	0.100
406.200	-13.638	0.099
406.300	-10.721	0.100
406.400	-37.920	0.100
406.500	-38.061	0.099
406.600	-16.657	0.099
406.700	-23.852	0.100
406.800	-31.026	0.100
406.900	-19.042	0.099
407.000	-21.321	0.099
407.100	-18.651	0.100
407.200	-21.693	0.099
407.300	-13.499	0.099
407.400	-17.980	0.099
407.500	-22.339	0.099
407.600	-16.459	0.099
407.700	-18.356	0.099
407.800	-14.988	0.100
407.900	-14.373	0.099
408.000	-20.241	0.099
408.100	-17.102	0.100
408.200	-15.765	0.100
408.300	-34.764	0.100
408.400	-26.735	0.099
408.500	-25.501	0.099
408.600	-10.641	0.099
408.700	-16.175	0.099
408.800	-24.223	0.099
408.900	-26.607	0.099
409.000	-11.773	0.100
409.100	-30.898	0.099
409.200	-20.891	0.099
409.300	-22.006	0.099
409.400	-33.330	0.099
409.500	-14.747	0.100
409.600	-21.430	0.099
409.700	-22.285	0.100
409.800	-15.434	0.099
409.900	-16.028	0.100
410.000	-26.974	0.099
410.100	-22.491	0.100
410.200	-18.137	0.100
410.300	-27.074	0.099
410.400	-27.501	0.099
410.500	-13.604	0.100
410.600	-9.860	0.100
410.700	-23.321	0.100
410.800	-16.969	0.099
410.900	-16.296	0.100
411.000	-40.630	0.100
411.100	-35.424	0.099
411.200	-17.097	0.099
411.300	-11.740	0.100
411.400	-30.116	0.099
411.500	-10.609	0.099
411.600	-11.873	0.100
411.700	-8.989	0.099
411.800	-11.679	0.099
411.900	-19.944	0.099
412.000	-20.600	0.100
412.100	-29.649	0.099
412.200	-26.738	0.099
412.300	-17.632	0.100
412.400	-23.172	0.100
412.500	-19.766	0.099
412.600	-15.656	0.100
412.700	-22.694	0.099
412.800	-33.043	0.099
412.900	-19.933	0.099
413.000	-27.196	0.099
413.100	-19.862	0.100
413.200	-19.136	0.100
413.300	-24.574	0.100
413.400	-13.958	0.099
413.500	-16.285	0.099
413.600	-13.603	0.100
413.700	-26.622	0.099
413.800	-19.314	0.100
413.900	-14.475	0.099
414.000	-32.304	0.100
414.100	-24.671	0.100
414.200	-27.404	0.099
414.300	-20.057	0.099
414.400	-27.715	0.100
414.500	-24.296	0.100
414.600	-19.181	0.100
414.700	-13.861	0.099
414.800	-13.686	0.100
414.900	-23.774	0.100
415.000	-29.719	0.099
415.100	-34.538	0.100
415.200	-19.870	0.100
415.300	-16.231	0.099
415.400	-15.200	0.099
415.500	-10.754	0.100
415.600	-20.939	0.099
415.700	-26.012	0.100
415.800	-20.801	0.100
415.900	-24.694	0.099
416.000	-13.981	0.100
416.100	-16.593	0.100
416.200	-28.881	0.100
416.300	-17.160	0.099
416.400	-22.405	0.099
416.500	-24.022	0.100
416.600	-15.868	0.100
416.700	-31.685	0.099
416.800	-23.926	0.100
416.900	-18.359	0.100
417.000	-27.176	0.100
417.100	-22.999	0.100
417.200	-25.690	0.100
417.300	-16.390	0.100
417.400	-23.736	0.100
417.500	-29.980	0.100
417.600	-31.136	0.099
417.700	-21.727	0.099
417.800	-21.043	0.100
417.900	-9.544	0.099
418.000	-22.627	0.100
418.100	-24.615	0.100
418.200	-24.361	0.100
418.300	-13.941	0.099
418.400	-22.220	0.099
418.500	-19.567	0.099
418.600	-29.298	0.099
418.700	-34.372	0.100
418.800	-19.989	0.100
418.900	-23.565	0.100
419.000	-21.821	0.100
419.100	-21.647	0.099
419.200	-25.364	0.099
419.300	-21.592	0.099
419.400	-22.298	0.100
419.500	-26.547	0.100
419.600	-21.339	0.100
419.700	-21.311	0.100
419.800	-28.571	0.100
419.900	-22.192	0.099
420.000	-23.350	0.100
420.100	-19.382	0.100
420.200	-19.014	0.100
420.300	-31.733	0.099
420.400	-13.605	0.100
420.500	-23.416	0.099
420.600	-24.320	0.099
420.700	-21.976	0.100
420.800	-25.944	0.099
420.900	-17.154	0.100
421.000	-18.848	0.100
421.100	-20.852	0.100
421.200	-16.525	0.099
421.300	-25.463	0.100
421.400	-18.871	0.100
421.500	-26.062	0.099
421.600	-17.295	0.099
421.700	-27.235	0.100
421.800	-21.285	0.099
421.900	-25.822	0.100
422.000	-18.333	0.100
422.100	-23.027	0.100
422.200	-8.408	0.100
422.300	-21.076	0.100
422.400	-15.915	0.100
422.500	-21.014	0.100
422.600	-25.473	0.100
422.700	-40.209	0.100
422.800	-26.307	0.099
422.900	-23.477	0.099
423.000	-21.098	0.100
423.100	-23.561	0.099
423.200	-19.758	0.099
423.300	-14.893	0.099
423.400	-24.850	0.100
423.500	-27.135	0.100
423.600	-22.046	0.100
423.700	-28.593	0.100
423.800	-20.396	0.100
423.900	-32.646	0.100
424.000	-18.073	0.099
424.100	-27.510	0.099
424.200	-20.966	0.100
424.300	-21.159	0.100
424.400	-16.557	0.100
424.500	-22.013	0.100
424.600	-18.779	0.100
424.700	-19.418	0.099
424.800	-27.117	0.100
424.900	-21.764	0.100
425.000	-22.511	0.100
425.100	-21.654	0.099
425.200	-32.596	0.099
425.300	-22.411	0.099
425.400	-36.703	0.099
425.500	-32.379	0.099
425.600	1.864	0.100
425.700	-37.222	0.099
425.800	-14.269	0.100
425.900	-16.914	0.100
426.000	-30.135	0.100
426.100	-25.027	0.099
426.200	-18.322	0.099
426.300	-24.466	0.099
426.400	-21.563	0.099
426.500	-19.112	0.099
426.600	-20.882	0.099
426.700	-21.383	0.099
426.800	-18.292	0.100
426.900	-26.307	0.100
427.000	-34.363	0.100
427.100	-32.593	0.099
427.200	-26.704	0.099
427.300	-15.434	0.100
427.400	-9.740	0.100
427.500	-13.429	0.100
427.600	-34.623	0.100
427.700	-27.923	0.099
427.800	-19.277	0.100
427.900	-21.011	0.099
428.000	-25.654	0.099
428.100	-21.042	0.100
428.200	-23.405	0.100
428.300	-22.379	0.099
428.400	-20.107	0.100
428.500	-26.568	0.099
428.600	-35.579	0.099
428.700	-6.339	0.099
428.800	-13.977	0.099
428.900	-25.605	0.099
429.000	-18.632	0.099
429.100	-26.797	0.099
429.200	-20.471	0.099
429.300	-20.722	0.099
429.400	-25.392	0.100
429.500	-21.531	0.100
429.600	-16.679	0.099
429.700	-28.525	0.099
429.800	-8.820	0.100
429.900	-17.263	0.100
430.000	-21.918	0.099
430.100	-15.684	0.100
430.200	-28.014	0.099
430.300	-22.263	0.099
430.400	-21.648	0.099
430.500	-18.168	0.099
430.600	-17.649	0.100
430.700	-15.084	0.099
430.800	-21.721	0.099
430.900	-27.445	0.099
431.000	-18.623	0.099
431.100	-4.409	0.100
431.200	-19.808	0.099
431.300	-42.536	0.099
431.400	-23.235	0.099
431.500	-18.836	0.100
431.600	-9.758	0.100
431.700	-19.854	0.100
431.800	-17.187	0.099
431.900	-29.587	0.099
432.000	-28.825	0.099
432.100	-28.496	0.100
432.200	-34.308	0.099
432.300	-28.021	0.100
432.400	-20.277	0.099
432.500	-27.735	0.100
432.600	-16.682	0.100
432.700	-20.089	0.100
432.800	-17.908	0.099
432.900	-10.251	0.100
433.000	-7.800	0.100
433.100	-18.210	0.100
433.200	-18.688	0.099
433.300	-19.198	0.100
433.400	-27.661	0.099
433.500	-19.204	0.099
433.600	-24.291	0.099
433.700	-25.038	0.099
433.800	-19.739	0.100
433.900	-26.119	0.099
434.000	-21.058	0.100
434.100	-18.483	0.100
434.200	-33.009	0.100
434.300	-15.955	0.099
434.400	-18.337	0.100
434.500	-14.323	0.099
434.600	-23.865	0.099
434.700	-18.297	0.100
434.800	-21.521	0.099
434.900	-30.752	0.100
435.000	-25.951	0.099
435.100	-26.574	0.099
435.200	-23.519	0.099
435.300	-21.167	0.100
435.400	-24.888	0.099
435.500	-24.354	0.099
435.600	-29.729	0.099
435.700	-10.987	0.099
435.800	-15.973	0.099
435.900	-17.554	0.100
436.000	-23.500	0.099
436.100	-25.167	0.099
436.200	-17.778	0.099
436.300	-16.742	0.099
436.400	-19.520	0.099
436.500	-11.589	0.100
436.600	-12.762	0.099
436.700	-20.476	0.099
436.800	-22.063	0.099
436.900	-20.013	0.100
437.000	-34.619	0.099
437.100	-18.496	0.099
437.200	-17.770	0.099
437.300	-44.458	0.099
437.400	-7.850	0.100
437.500	-30.378	0.099
437.600	-35.305	0.099
437.700	-19.483	0.099
437.800	-11.245	0.099
437.900	-16.386	0.099
438.000	-18.255	0.099
438.100	-23.455	0.099
438.200	-20.999	0.100
438.300	-28.097	0.099
438.400	-15.664	0.099
438.500	-21.095	0.099
438.600	-20.999	0.099
438.700	-25.702	0.099
438.800	-11.674	0.099
438.900	-21.397	0.099
439.000	-28.631	0.100
439.100	-20.721	0.099
439.200	-23.653	0.100
439.300	-24.697	0.099
439.400	-18.610	0.099
439.500	-7.286	0.099
439.600	-23.101	0.100
439.700	-26.659	0.099
439.800	-27.273	0.099
439.900	-29.588	0.099
440.000	-21.432	0.099
440.100	-26.178	0.099
440.200	-20.247	0.100
440.300	-20.296	0.099
440.400	-17.895	0.100
440.500	-25.609	0.100
440.600	-21.227	0.099
440.700	-25.336	0.100
440.800	-22.799	0.099
440.900	-20.533	0.099
441.000	-20.569	0.100
441.100	-7.013	0.099
441.200	-30.271	0.099
441.300	-15.018	0.100
441.400	-20.941	0.100
441.500	-25.116	0.099
441.600	-17.369	0.099
441.700	-16.087	0.099
441.800	-25.228	0.100
441.900	-23.031	0.100
442.000	-21.935	0.100
442.100	-13.494	0.099
442.200	-18.086	0.099
442.300	-10.301	0.099
442.400	-14.515	0.099
442.500	-22.974	0.099
442.600	-12.169	0.099
442.700	-17.724	0.099
442.800	-18.365	0.099
442.900	-15.534	0.099
443.000	-18.474	0.100
443.100	-35.043	0.099
443.200	-24.398	0.100
443.300	-18.116	0.100
443.400	-9.767	0.100
443.500	-20.130	0.099
443.600	-18.772	0.100
443.700	-22.395	0.099
443.800	-29.129	0.099
443.900	-25.344	0.099
444.000	-11.632	0.100
444.100	-27.001	0.099
444.200	-20.298	0.099
444.300	-29.013	0.099
444.400	-1.888	0.099
444.500	-4.040	0.100
444.600	-18.281	0.099
444.700	-9.615	0.099
444.800	-20.837	0.099
444.900	-25.304	0.099
445.000	-27.183	0.100
445.100	-19.842	0.099
445.200	-15.935	0.100
445.300	-22.729	0.099
445.400	-20.750	0.100
445.500	-21.223	0.099
445.600	-18.292	0.099
445.700	-26.339	0.099
445.800	-18.515	0.099
445.900	-23.279	0.100
446.000	-29.122	0.099
446.100	-23.198	0.099
446.200	-14.575	0.099
446.300	-10.553	0.100
446.400	-21.402	0.099
446.500	-27.221	0.099
446.600	-32.368	0.100
446.700	-7.032	0.099
446.800	-12.281	0.099
446.900	-9.134	0.099
447.000	-27.030	0.099
447.100	-11.231	0.099
447.200	-29.212	0.099
447.300	-14.972	0.099
447.400	-22.958	0.099
447.500	-18.724	0.099
447.600	-20.007	0.100
447.700	-16.753	0.099
447.800	-20.508	0.099
447.900	-15.926	0.099
448.000	-22.802	0.100
448.100	-17.816	0.099
448.200	-13.813	0.099
448.300	-12.056	0.099
448.400	-13.666	0.099
448.500	-16.755	0.100
448.600	-24.266	0.099
448.700	-20.367	0.099
448.800	-31.205	0.099
448.900	-25.090	0.099
449.000	-14.420	0.099
449.100	-35.020	0.099
449.200	-22.296	0.099
449.300	-16.729	0.099
449.400	-7.393	0.099
449.500	-11.109	0.099
449.600	-21.262	0.099
449.700	-27.438	0.099
449.800	-14.488	0.099
449.900	-28.220	0.099
450.000	-14.292	0.099
450.100	-23.020	0.099
450.200	-12.047	0.100
450.300	-13.080	0.099
450.400	-14.361	0.099
450.500	-20.688	0.099
450.600	-28.679	0.099
450.700	-27.688	0.099
450.800	-20.795	0.099
450.900	-11.004	0.099
451.000	-6.852	0.099
451.100	-15.633	0.099
451.200	-17.983	0.099
451.300	-20.641	0.099
451.400	-12.187	0.099
451.500	-17.338	0.099
451.600	-8.872	0.099
451.700	-10.937	0.100
451.800	-17.657	0.099
451.900	-33.381	0.099
452.000	-24.495	0.099
452.100	-14.732	0.099
452.200	-13.281	0.099
452.300	-7.690	0.100
452.400	-11.503	0.100
452.500	-8.929	0.099
452.600	-8.814	0.100
452.700	-25.198	0.099
452.800	-24.742	0.099
452.900	-19.788	0.099
453.000	-14.670	0.099
453.100	-12.591	0.100
453.200	-30.818	0.099
453.300	-21.281	0.099
453.400	-5.748	0.099
453.500	-21.922	0.099
453.600	-20.163	0.099
453.700	-19.542	0.099
453.800	-10.281	0.099
453.900	-15.981	0.099
454.000	-15.637	0.099
454.100	-16.176	0.099
454.200	-23.840	0.099
454.300	-13.258	0.099
454.400	-18.071	0.099
454.500	-16.122	0.100
454.600	-18.772	0.100
454.700	-17.655	0.099
454.800	-6.783	0.100
454.900	-26.301	0.099
455.000	-24.016	0.099
455.100	-16.285	0.099
455.200	-17.617	0.100
455.300	-19.899	0.099
455.400	-25.827	0.099
455.500	-9.366	0.099
455.600	-12.193	0.100
455.700	-14.580	0.100
455.800	-24.338	0.099
455.900	-12.420	0.099
456.000	-21.393	0.099
456.100	-10.616	0.100
456.200	-12.794	0.100
456.300	-12.580	0.099
456.400	-8.120	0.100
456.500	-28.037	0.099
456.600	-16.586	0.099
456.700	-21.951	0.099
456.800	-12.152	0.099
456.900	-9.454	0.100
457.000	-14.289	0.099
457.100	-19.158	0.099
457.200	-19.181	0.099
457.300	-30.490	0.099
457.400	-15.566	0.100
457.500	-34.695	0.099
457.600	-20.438	0.100
457.700	-3.799	0.099
457.800	-24.879	0.099
457.900	-13.915	0.099
458.000	-21.617	0.099
458.100	-10.967	0.099
458.200	-21.230	0.099
458.300	-19.838	0.100
458.400	-17.234	0.099
458.500	-16.945	0.099
458.600	-12.926	0.099
458.700	-21.517	0.099
458.800	-16.584	0.099
458.900	-18.603	0.099
459.000	-16.837	0.100
459.100	-19.213	0.099
459.200	-11.828	0.099
459.300	-19.534	0.099
459.400	-28.966	0.099
459.500	-16.638	0.099
459.600	-13.758	0.100
459.700	-13.229	0.099
459.800	-25.420	0.099
459.900	-10.621	0.099
460.000	-18.770	0.099
460.100	-18.179	0.099
460.200	-12.367	0.100
460.300	-13.853	0.099
460.400	-7.466	0.099
460.500	-10.499	0.100
460.600	-16.955	0.100
460.700	-16.074	0.099
460.800	-24.353	0.099
460.900	-21.422	0.099
461.000	-16.886	0.099
461.100	-12.713	0.099
461.200	-14.512	0.100
461.300	-25.659	0.099
461.400	-36.477	0.099
461.500	-17.701	0.099
461.600	-18.091	0.099
461.700	-8.571	0.099
461.800	-10.239	0.099
461.900	-9.450	0.099
462.000	-4.960	0.099
462.100	-9.325	0.099
462.200	-15.159	0.100
462.300	-18.192	0.099
462.400	-15.616	0.099
462.500	-20.374	0.099
462.600	-10.825	0.099
462.700	-7.155	0.099
462.800	-25.101	0.099
462.900	-20.791	0.099
463.000	-9.417	0.100
463.100	-19.402	0.099
463.200	-18.403	0.100
463.300	-21.236	0.099
463.400	-28.025	0.099
463.500	-19.811	0.099
463.600	-16.011	0.100
463.700	-17.222	0.100
463.800	-6.827	0.099
463.900	-13.066	0.100
464.000	-9.099	0.100
464.100	-25.310	0.100
464.200	-1.986	0.099
464.300	-19.541	0.100
464.400	-22.952	0.100
464.500	-25.596	0.099
464.600	-22.700	0.100
464.700	-13.702	0.100
464.800	-21.384	0.100
464.900	-36.639	0.099
465.000	-22.015	0.100
465.100	-14.150	0.099
465.200	-31.102	0.099
465.300	-17.695	0.100
465.400	-11.643	0.099
465.500	-16.461	0.100
465.600	-13.110	0.099
465.700	-25.486	0.099
465.800	-9.753	0.099
465.900	-18.347	0.099
466.000	-19.661	0.100
466.100	-20.794	0.099
466.200	-11.593	0.099
466.300	-22.592	0.099
466.400	-19.220	0.099
466.500	-19.298	0.099
466.600	-11.920	0.099
466.700	-18.634	0.099
466.800	-15.612	0.099
466.900	-11.913	0.099
467.000	-18.135	0.099
467.100	-31.568	0.099
467.200	-10.088	0.099
467.300	-12.252	0.099
467.400	-15.181	0.099
467.500	-19.885	0.099
467.600	-17.981	0.099
467.700	-19.187	0.099
467.800	-6.739	0.099
467.900	-10.228	0.099
468.000	-4.253	0.099
468.100	-7.361	0.099
468.200	-12.149	0.099
468.300	-20.732	0.099
468.400	-15.715	0.099
468.500	-15.494	0.100
468.600	-9.882	0.099
468.700	-18.373	0.099
468.800	-27.363	0.099
468.900	-18.851	0.099
469.000	-20.788	0.099
469.100	-10.937	0.099
469.200	-23.348	0.099
469.300	-22.816	0.099
469.400	-17.696	0.099
469.500	-14.881	0.099
469.600	-11.749	0.099
469.700	-13.105	0.099
469.800	-18.786	0.099
469.900	-15.444	0.099
470.000	-22.476	0.099
470.100	-24.822	0.100
470.200	-22.925	0.099
470.300	-16.443	0.100
470.400	-10.387	0.100
470.500	-19.421	0.099
470.600	-7.944	0.099
470.700	-22.451	0.099
470.800	-14.576	0.099
470.900	-10.926	0.099
471.000	-19.263	0.099
471.100	-13.416	0.099
471.200	-17.221	0.099
471.300	-6.839	0.099
471.400	-11.737	0.099
471.500	-9.742	0.099
471.600	-26.030	0.099
471.700	-1.198	0.100
471.800	-18.067	0.099
471.900	-11.748	0.099
472.000	-23.542	0.100
472.100	-16.585	0.099
472.200	-13.276	0.099
472.300	-20.699	0.099
472.400	-15.108	0.100
472.500	-17.000	0.099
472.600	-26.408	0.099
472.700	-11.055	0.099
472.800	-21.097	0.099
472.900	-12.048	0.099
473.000	-19.442	0.099
473.100	-9.875	0.099
473.200	-12.812	0.099
473.300	-14.590	0.099
473.400	-23.773	0.099
473.500	-21.885	0.099
473.600	-8.777	0.100
473.700	-24.115	0.099
473.800	-17.492	0.099
473.900	-20.769	0.099
474.000	-20.402	0.099
474.100	-20.530	0.099
474.200	0.803	0.099
474.300	-16.682	0.099
474.400	-13.331	0.099
474.500	-9.813	0.099
474.600	-8.974	0.099
474.700	-14.314	0.099
474.800	-10.318	0.100
474.900	-22.292	0.099
475.000	-23.814	0.099
475.100	-12.362	0.099
475.200	-8.686	0.100
475.300	-17.024	0.099
475.400	-26.240	0.099
475.500	-13.349	0.099
475.600	-18.870	0.099
475.700	-18.469	0.100
475.800	-13.391	0.099
475.900	-11.386	0.100
476.000	-10.354	0.100
476.100	-25.345	0.099
476.200	-24.323	0.099
476.300	-22.546	0.099
476.400	1.145	0.100
476.500	-9.396	0.100
476.600	-24.408	0.100
476.700	-21.979	0.099
476.800	-20.715	0.099
476.900	-9.241	0.100
477.000	-11.703	0.099
477.100	-7.448	0.100
477.200	-15.183	0.100
477.300	-10.012	0.099
477.400	-27.644	0.100
477.500	-9.435	0.099
477.600	-6.457	0.099
477.700	-16.792	0.099
477.800	-18.757	0.100
477.900	-16.418	0.100
478.000	-1.463	0.099
478.100	-16.106	0.100
478.200	-21.343	0.099
478.300	-9.735	0.100
478.400	-16.349	0.100
478.500	-11.554	0.099
478.600	-14.193	0.100
478.700	-23.402	0.100
478.800	-20.203	0.100
478.900	-16.324	0.099
479.000	-18.763	0.100
479.100	-13.354	0.099
479.200	-11.953	0.099
479.300	-21.247	0.099
479.400	-16.981	0.099
479.500	-11.131	0.099
479.600	-16.359	0.100
479.700	-15.590	0.099
479.800	-28.384	0.099
479.900	-18.992	0.100
480.000	-2.245	0.100
480.100	-8.184	0.099
480.200	-8.695	0.100
480.300	-3.570	0.100
480.400	-9.062	0.099
480.500	0.839	0.099
480.600	8.089	0.100
480.700	-0.239	0.099
480.800	-11.225	0.099
480.900	-13.753	0.099
481.000	14.060	0.099
481.100	5.251	0.100
481.200	15.421	0.100
481.300	7.108	0.100
481.400	7.586	0.099
481.500	16.705	0.100
481.600	22.149	0.100
481.700	-2.521	0.100
481.800	10.349	0.100
481.900	21.395	0.100
482.000	25.194	0.100
482.100	21.665	0.100
482.200	14.045	0.099
482.300	8.123	0.099
482.400	3.829	0.100
482.500	12.486	0.100
482.600	21.516	0.100
482.700	22.173	0.100
482.800	26.805	0.100
482.900	17.314	0.100
483.000	4.887	0.099
483.100	7.274	0.100
483.200	9.703	0.099
483.300	5.799	0.100
483.400	16.836	0.100
483.500	-1.352	0.099
483.600	13.951	0.100
483.700	6.002	0.100
483.800	2.180	0.099
483.900	11.452	0.100
484.000	11.097	0.100
484.100	7.436	0.100
484.200	6.576	0.100
484.300	16.417	0.100
484.400	1.077	0.100
484.500	14.763	0.099
484.600	5.138	0.099
484.700	17.602	0.100
484.800	16.066	0.099
484.900	8.404	0.099
485.000	7.515	0.100
485.100	3.798	0.100
485.200	11.675	0.099
485.300	32.272	0.100
485.400	13.089	0.100
485.500	13.750	0.100
485.600	5.112	0.100
485.700	11.061	0.099
485.800	16.657	0.099
485.900	8.248	0.100
486.000	10.891	0.099
486.100	15.643	0.099
486.200	19.852	0.100
486.300	21.745	0.099
486.400	15.234	0.100
486.500	14.878	0.100
486.600	16.138	0.100
486.700	10.776	0.099
486.800	15.325	0.100
486.900	20.848	0.100
487.000	11.360	0.100
487.100	20.568	0.100
487.200	11.546	0.100
487.300	11.889	0.100
487.400	17.568	0.099
487.500	29.868	0.099
487.600	11.208	0.099
487.700	15.269	0.099
487.800	19.843	0.100
487.900	18.275	0.100
488.000	23.328	0.099
488.100	19.109	0.100
488.200	20.359	0.100
488.300	22.748	0.099
488.400	27.480	0.100
488.500	20.599	0.099
488.600	25.557	0.099
488.700	2.410	0.100
488.800	14.835	0.099
488.900	25.478	0.099
489.000	34.087	0.099
489.100	22.140	0.100
489.200	24.120	0.099
489.300	28.651	0.099
489.400	30.262	0.099
489.500	26.296	0.100
489.600	24.649	0.099
489.700	29.241	0.100
489.800	33.116	0.099
489.900	26.204	0.100
490.000	24.276	0.100
490.100	27.004	0.099
490.200	21.465	0.100
490.300	41.342	0.100
490.400	31.601	0.100
490.500	33.422	0.100
490.600	39.987	0.100
490.700	43.971	0.100
490.800	31.578	0.100
490.900	28.326	0.099
491.000	32.484	0.100
491.100	19.227	0.099
491.200	32.516	0.099
491.300	36.213	0.100
491.400	46.742	0.099
491.500	25.440	0.100
491.600	43.405	0.099
491.700	39.872	0.100
491.800	45.674	0.099
491.900	29.867	0.100
492.000	37.043	0.100
492.100	30.608	0.100
492.200	35.527	0.100
492.300	31.339	0.099
492.400	24.845	0.099
492.500	49.412	0.100
492.600	39.007	0.099
492.700	42.018	0.099
492.800	36.730	0.100
492.900	38.933	0.100
493.000	38.935	0.099
493.100	45.820	0.099
493.200	52.289	0.100
493.300	40.900	0.099
493.400	36.716	0.100
493.500	32.917	0.100
493.600	32.851	0.099
493.700	47.495	0.100
493.800	43.049	0.100
493.900	37.448	0.100
494.000	28.380	0.100
494.100	46.646	0.100
494.200	45.147	0.100
494.300	38.952	0.099
494.400	48.954	0.100
494.500	43.661	0.099
494.600	48.676	0.100
494.700	44.507	0.100
494.800	40.316	0.100
494.900	49.376	0.100
495.000	38.411	0.100
495.100	50.812	0.099
495.200	46.789	0.099
495.300	34.137	0.100
495.400	42.267	0.100
495.500	33.811	0.100
495.600	36.632	0.100
495.700	44.072	0.100
495.800	35.497	0.099
495.900	43.652	0.099
496.000	34.854	0.099
496.100	48.224	0.100
496.200	49.568	0.100
496.300	47.261	0.099
496.400	34.173	0.099
496.500	41.999	0.100
496.600	40.621	0.100
496.700	60.660	0.100
496.800	52.926	0.099
496.900	47.938	0.099
497.000	44.808	0.100
497.100	37.283	0.099
497.200	37.193	0.100
497.300	40.455	0.100
497.400	42.711	0.100
497.500	42.017	0.100
497.600	47.623	0.100
497.700	44.880	0.099
497.800	38.484	0.099
497.900	39.103	0.100
498.000	32.515	0.100
498.100	33.249	0.099
498.200	48.965	0.100
498.300	43.024	0.100
498.400	37.774	0.100
498.500	47.234	0.100
498.600	54.793	0.099
498.700	41.455	0.099
498.800	31.906	0.099
498.900	44.426	0.100
499.000	41.165	0.100
499.100	46.824	0.100
499.200	33.880	0.099
499.300	39.414	0.100
499.400	50.058	0.099
499.500	52.989	0.100
499.600	44.584	0.100
499.700	33.473	0.100
499.800	43.589	0.099
499.900	39.344	0.100
500.000	36.096	0.100
500.100	33.164	0.100
500.200	54.191	0.100
500.300	46.717	0.100
500.400	39.412	0.099
500.500	44.212	0.100
500.600	34.685	0.100
500.700	33.092	0.100
500.800	54.548	0.099
500.900	49.247	0.100
501.000	34.045	0.100
501.100	28.586	0.099
501.200	39.107	0.099
501.300	42.526	0.099
501.400	43.058	0.100
501.500	40.514	0.100
501.600	51.597	0.099
501.700	41.070	0.100
501.800	57.628	0.099
501.900	36.577	0.100
502.000	41.304	0.100
502.100	46.674	0.099
502.200	42.586	0.100
502.300	27.535	0.100
502.400	44.902	0.099
502.500	33.249	0.100
502.600	36.942	0.100
502.700	50.605	0.100
502.800	55.334	0.099
502.900	46.626	0.100
503.000	37.959	0.099
503.100	40.750	0.099
503.200	45.273	0.100
503.300	37.513	0.099
503.400	40.654	0.099
503.500	34.728	0.100
503.600	36.293	0.100
503.700	39.719	0.099
503.800	40.559	0.099
503.900	36.286	0.100
504.000	32.939	0.099
504.100	44.042	0.099
504.200	57.567	0.100
504.300	47.172	0.099
504.400	32.453	0.100
504.500	43.719	0.100
504.600	45.515	0.100
504.700	34.357	0.100
504.800	44.940	0.099
504.900	26.160	0.099
505.000	35.762	0.099
505.100	50.048	0.099
505.200	48.171	0.099
505.300	40.694	0.100
505.400	21.655	0.099
505.500	48.044	0.099
505.600	45.197	0.099
505.700	44.031	0.099
505.800	39.115	0.100
505.900	46.236	0.099
506.000	33.417	0.099
506.100	38.529	0.099
506.200	41.806	0.099
506.300	39.176	0.099
506.400	38.898	0.100
506.500	35.291	0.099
506.600	38.789	0.100
506.700	35.612	0.100
506.800	38.179	0.100
506.900	46.298	0.099
507.000	41.472	0.099
507.100	39.209	0.099
507.200	37.263	0.100
507.300	50.377	0.100
507.400	43.253	0.099
507.500	39.879	0.100
507.600	40.531	0.100
507.700	47.154	0.100
507.800	46.381	0.099
507.900	40.603	0.099
508.000	38.274	0.099
508.100	33.435	0.099
508.200	46.355	0.100
508.300	36.851	0.099
508.400	50.281	0.099
508.500	42.974	0.100
508.600	40.787	0.099
508.700	44.074	0.100
508.800	40.051	0.099
508.900	43.327	0.099
509.000	47.078	0.100
509.100	49.299	0.099
509.200	38.513	0.100
509.300	35.777	0.100
509.400	42.775	0.099
509.500	44.503	0.100
509.600	33.195	0.099
509.700	36.960	0.100
509.800	37.448	0.100
509.900	40.382	0.099
510.000	39.321	0.100
510.100	40.092	0.100
510.200	40.147	0.099
510.300	31.551	0.099
510.400	47.695	0.099
510.500	42.887	0.100
510.600	28.468	0.099
510.700	40.228	0.100
510.800	36.311	0.100
510.900	39.181	0.099
511.000	53.906	0.099
511.100	34.371	0.100
511.200	35.614	0.099
511.300	36.491	0.099
511.400	41.233	0.099
511.500	45.510	0.100
511.600	45.350	0.100
511.700	25.380	0.100
511.800	43.648	0.100
511.900	41.089	0.100
512.000	44.703	0.099
512.100	25.102	0.100
512.200	35.987	0.099
512.300	43.173	0.100
512.400	43.118	0.099
512.500	40.148	0.099
512.600	34.187	0.100
512.700	47.104	0.099
512.800	31.663	0.099
512.900	48.858	0.100
513.000	36.552	0.099
513.100	45.867	0.100
513.200	43.562	0.099
513.300	38.888	0.099
513.400	35.920	0.099
513.500	40.201	0.099
513.600	39.977	0.099
513.700	42.707	0.099
513.800	46.091	0.099
513.900	26.071	0.100
514.000	48.002	0.099
514.100	33.494	0.099
514.200	42.725	0.100
514.300	43.278	0.099
514.400	35.118	0.099
514.500	43.790	0.099
514.600	32.198	0.099
514.700	40.712	0.099
514.800	31.976	0.099
514.900	30.282	0.099
515.000	30.617	0.100
515.100	33.586	0.099
515.200	37.654	0.099
515.300	55.195	0.099
515.400	40.530	0.099
515.500	52.485	0.099
515.600	34.393	0.099
515.700	30.666	0.099
515.800	36.100	0.099
515.900	29.884	0.099
516.000	38.847	0.099
516.100	44.815	0.099
516.200	37.389	0.099
516.300	31.291	0.099
516.400	37.701	0.099
516.500	45.379	0.099
516.600	54.288	0.099
516.700	36.715	0.099
516.800	41.996	0.099
516.900	42.873	0.099
517.000	35.912	0.099
517.100	31.550	0.099
517.200	44.268	0.099
517.300	41.265	0.099
517.400	46.113	0.099
517.500	32.648	0.099
517.600	32.910	0.099
517.700	36.119	0.099
517.800	41.013	0.099
517.900	46.362	0.100
518.000	43.640	0.099
518.100	35.774	0.099
518.200	28.154	0.099
518.300	48.006	0.099
518.400	33.108	0.099
518.500	37.779	0.099
518.600	40.396	0.099
518.700	28.324	0.099
518.800	47.026	0.099
518.900	30.020	0.099
519.000	35.531	0.099
519.100	38.169	0.099
519.200	37.418	0.099
519.300	39.070	0.099
519.400	42.788	0.099
519.500	38.024	0.099
519.600	41.541	0.099
519.700	41.448	0.099
519.800	37.137	0.099
519.900	49.775	0.099
520.000	32.733	0.099
520.100	32.144	0.099
520.200	35.435	0.100
520.300	35.665	0.099
520.400	37.504	0.099
520.500	38.741	0.099
520.600	42.621	0.099
520.700	39.256	0.099
520.800	25.704	0.099
520.900	36.485	0.099
521.000	47.606	0.099
521.100	36.778	0.099
521.200	37.516	0.099
521.300	33.100	0.099
521.400	45.133	0.099
521.500	46.374	0.099
521.600	43.968	0.099
521.700	46.881	0.099
521.800	49.696	0.099
521.900	40.101	0.099
522.000	42.171	0.099
522.100	38.497	0.099
522.200	29.349	0.099
522.300	33.985	0.099
522.400	43.721	0.099
522.500	35.635	0.099
522.600	42.738	0.099
522.700	28.223	0.099
522.800	28.436	0.099
522.900	43.229	0.099
523.000	29.498	0.099
523.100	36.040	0.099
523.200	37.154	0.099
523.300	35.995	0.099
523.400	38.347	0.099
523.500	27.457	0.099
523.600	34.970	0.099
523.700	43.101	0.099
523.800	38.173	0.099
523.900	36.619	0.099
524.000	47.121	0.099
524.100	36.095	0.099
524.200	32.019	0.099
524.300	28.078	0.099
524.400	37.243	0.099
524.500	54.055	0.099
524.600	51.748	0.099
524.700	30.997	0.099
524.800	35.741	0.099
524.900	35.373	0.099
525.000	35.678	0.099
525.100	34.553	0.100
525.200	42.097	0.099
525.300	46.508	0.099
525.400	35.927	0.099
525.500	36.965	0.099
525.600	29.181	0.099
525.700	38.219	0.099
525.800	41.141	0.099
525.900	40.875	0.099
526.000	37.135	0.099
526.100	52.134	0.099
526.200	39.036	0.099
526.300	32.300	0.099
526.400	42.139	0.099
526.500	35.769	0.099
526.600	40.080	0.099
526.700	41.880	0.099
526.800	45.556	0.099
526.900	35.259	0.099
527.000	53.905	0.099
527.100	33.424	0.099
527.200	30.917	0.099
527.300	38.065	0.099
527.400	34.035	0.099
527.500	41.806	0.099
527.600	38.651	0.099
527.700	39.838	0.099
527.800	35.372	0.099
527.900	32.385	0.099
528.000	38.854	0.099
528.100	37.827	0.099
528.200	37.111	0.099
528.300	39.770	0.099
528.400	30.505	0.099
528.500	39.939	0.099
528.600	41.098	0.099
528.700	33.447	0.099
528.800	42.608	0.099
528.900	24.090	0.099
529.000	42.451	0.099
529.100	51.530	0.100
529.200	42.324	0.099
529.300	22.875	0.099
529.400	25.178	0.099
529.500	30.875	0.099
529.600	36.012	0.099
529.700	43.848	0.099
529.800	37.336	0.099
529.900	32.591	0.099
530.000	35.400	0.099
530.100	38.011	0.099
530.200	27.218	0.099
530.300	44.783	0.099
530.400	41.855	0.099
530.500	36.764	0.099
530.600	47.055	0.099
530.700	21.782	0.099
530.800	40.742	0.099
530.900	43.074	0.099
531.000	40.540	0.099
531.100	37.902	0.099
531.200	34.001	0.099
531.300	32.164	0.099
531.400	21.341	0.099
531.500	41.407	0.099
531.600	38.354	0.099
531.700	51.925	0.099
531.800	38.249	0.099
531.900	37.870	0.099
532.000	42.417	0.099
532.100	46.917	0.099
532.200	34.647	0.099
532.300	33.511	0.099
532.400	30.305	0.099
532.500	44.159	0.099
532.600	31.997	0.099
532.700	24.336	0.099
532.800	23.993	0.099
532.900	43.083	0.099
533.000	37.550	0.099
533.100	36.612	0.099
533.200	37.608	0.099
533.300	27.954	0.099
533.400	37.996	0.099
533.500	38.988	0.099
533.600	41.090	0.099
533.700	37.148	0.099
533.800	35.353	0.099
533.900	32.950	0.099
534.000	38.701	0.099
534.100	31.659	0.099
534.200	20.586	0.099
534.300	28.788	0.099
534.400	50.325	0.099
534.500	53.214	0.099
534.600	40.942	0.099
534.700	29.945	0.099
534.800	42.660	0.099
534.900	39.375	0.099
535.000	41.351	0.099
535.100	44.193	0.099
535.200	24.625	0.099
535.300	45.215	0.099
535.400	45.867	0.099
535.500	40.003	0.099
535.600	35.261	0.099
535.700	29.864	0.099
535.800	36.897	0.099
535.900	39.876	0.099
536.000	38.489	0.099
536.100	38.855	0.099
536.200	41.825	0.099
536.300	20.827	0.099
536.400	31.159	0.099
536.500	36.237	0.099
536.600	41.142	0.099
536.700	37.099	0.099
536.800	27.908	0.099
536.900	36.857	0.099
537.000	36.370	0.099
537.100	39.630	0.099
537.200	40.522	0.099
537.300	36.100	0.099
537.400	43.339	0.099
537.500	35.096	0.099
537.600	43.109	0.099
537.700	35.960	0.099
537.800	35.473	0.099
537.900	39.978	0.099
538.000	39.816	0.099
538.100	24.909	0.099
538.200	23.824	0.099
538.300	28.328	0.099
538.400	26.683	0.099
538.500	38.535	0.099
538.600	38.678	0.099
538.700	35.921	0.099
538.800	38.430	0.099
538.900	43.779	0.099
539.000	41.338	0.099
539.100	30.162	0.099
539.200	37.854	0.099
539.300	31.751	0.099
539.400	36.787	0.099
539.500	30.779	0.099
539.600	34.642	0.099
539.700	32.207	0.099
539.800	32.530	0.099
539.900	40.350	0.099
540.000	35.786	0.099
540.100	28.428	0.099
540.200	34.511	0.099
540.300	38.354	0.099
540.400	23.248	0.099
540.500	23.240	0.099
540.600	26.378	0.099
540.700	23.994	0.099
540.800	11.669	0.099
540.900	2.293	0.099
541.000	19.825	0.099
541.100	8.908	0.099
541.200	17.514	0.099
541.300	4.512	0.099
541.400	-0.406	0.099
541.500	3.463	0.099
541.600	8.319	0.099
541.700	2.230	0.099
541.800	5.547	0.099
541.900	-1.013	0.099
542.000	-9.785	0.099
542.100	1.108	0.099
542.200	5.142	0.099
542.300	-8.960	0.099
542.400	0.975	0.099
542.500	1.118	0.099
542.600	-13.554	0.099
542.700	-9.171	0.099
542.800	0.086	0.099
542.900	2.028	0.099
543.000	-12.912	0.099
543.100	-9.645	0.099
543.200	-11.169	0.099
543.300	-12.464	0.099
543.400	-4.558	0.099
543.500	-0.532	0.099
543.600	-6.343	0.099
543.700	-7.770	0.099
543.800	-2.541	0.099
543.900	-13.773	0.099
544.000	-9.973	0.099
544.100	-8.909	0.099
544.200	-6.582	0.099
544.300	-2.274	0.099
544.400	-6.414	0.099
544.500	-5.384	0.099
544.600	-11.012	0.099
544.700	-21.336	0.099
544.800	-6.708	0.099
544.900	-5.106	0.099
545.000	-3.748	0.099
545.100	-16.670	0.099
545.200	-14.130	0.099
545.300	-1.633	0.099
545.400	-12.143	0.099
545.500	-12.359	0.099
545.600	-17.605	0.099
545.700	-0.964	0.099
545.800	-12.642	0.099
545.900	-10.572	0.099
546.000	-21.270	0.099
546.100	-8.974	0.099
546.200	-6.485	0.099
546.300	-7.445	0.099
546.400	-8.475	0.099
546.500	-14.657	0.099
546.600	-12.156	0.099
546.700	-16.430	0.099
546.800	-10.531	0.099
546.900	-11.989	0.099
547.000	-12.557	0.099
547.100	-11.705	0.099
547.200	-8.704	0.099
547.300	-12.568	0.099
547.400	-7.382	0.099
547.500	-11.916	0.099
547.600	-3.623	0.099
547.700	-11.693	0.099
547.800	-13.285	0.099
547.900	-24.426	0.099
548.000	-4.239	0.099
548.100	-14.369	0.099
548.200	-11.666	0.099
548.300	-12.415	0.099
548.400	-11.511	0.099
548.500	-5.467	0.099
548.600	-11.737	0.099
548.700	-19.155	0.099
548.800	-21.331	0.099
548.900	-20.737	0.099
549.000	-11.868	0.099
549.100	-14.229	0.099
549.200	-8.126	0.099
549.300	-17.823	0.099
549.400	-13.171	0.099
549.500	-25.495	0.099
549.600	-17.062	0.099
549.700	-16.149	0.099
549.800	-25.320	0.099
549.900	-14.676	0.099
550.000	-15.238	0.099
550.100	-8.394	0.099
550.200	-7.932	0.099
550.300	-19.404	0.099
550.400	-23.018	0.099
550.500	-22.275	0.099
550.600	-22.265	0.099
550.700	-13.357	0.099
550.800	-20.552	0.099
550.900	-10.551	0.099
551.000	-7.846	0.099
551.100	-25.634	0.099
551.200	-24.613	0.099
551.300	-27.135	0.099
551.400	-25.731	0.099
551.500	-8.685	0.099
551.600	-8.828	0.099
551.700	-21.142	0.099
551.800	-14.381	0.099
551.900	-10.694	0.099
552.000	-8.427	0.099
552.100	-19.129	0.099
552.200	-20.856	0.099
552.300	-10.745	0.099
552.400	-11.161	0.099
552.500	-17.998	0.099
552.600	-22.769	0.099
552.700	-14.135	0.099
552.800	-39.309	0.099
552.900	-22.879	0.099
553.000	-15.390	0.099
553.100	-15.887	0.099
553.200	-14.070	0.099
553.300	-11.941	0.099
553.400	-24.743	0.099
553.500	-32.983	0.099
553.600	-19.242	0.099
553.700	-18.233	0.099
553.800	-13.266	0.099
553.900	-8.240	0.099
554.000	-24.688	0.099
554.100	-14.961	0.099
554.200	-12.396	0.099
554.300	-18.366	0.099
554.400	-24.192	0.099
554.500	-19.450	0.099
554.600	-28.668	0.099
554.700	-12.574	0.099
554.800	-22.547	0.099
554.900	-27.182	0.099
555.000	-21.830	0.099
555.100	-19.364	0.099
555.200	-16.515	0.099
555.300	-24.601	0.099
555.400	-6.239	0.099
555.500	-8.710	0.099
555.600	-20.687	0.099
555.700	-35.579	0.099
555.800	-25.152	0.099
555.900	-13.482	0.099
556.000	-34.501	0.099
556.100	-25.619	0.099
556.200	-12.329	0.099
556.300	-26.307	0.099
556.400	-23.825	0.099
556.500	-16.015	0.099
556.600	-15.818	0.099
556.700	-19.779	0.099
556.800	-29.987	0.099
556.900	-18.949	0.099
557.000	-25.043	0.099
557.100	-14.185	0.099
557.200	-26.527	0.099
557.300	-15.619	0.099
557.400	-10.170	0.099
557.500	-22.156	0.099
557.600	-15.098	0.099
557.700	-22.956	0.099
557.800	-16.079	0.099
557.900	-27.588	0.099
558.000	-18.291	0.099
558.100	-10.778	0.099
558.200	-20.487	0.099
558.300	-29.011	0.099
558.400	-21.444	0.099
558.500	-26.270	0.099
558.600	-23.285	0.099
558.700	-22.635	0.099
558.800	-7.989	0.099
558.900	-17.459	0.099
559.000	-21.487	0.099
559.100	-37.531	0.099
559.200	-15.597	0.099
559.300	-27.891	0.099
559.400	-23.185	0.099
559.500	-25.109	0.099
559.600	-27.286	0.099
559.700	-31.527	0.099
559.800	-23.138	0.099
559.900	-20.848	0.099
560.000	-18.554	0.099
560.100	-19.686	0.099
560.200	-18.739	0.099
560.300	-28.071	0.099
560.400	-18.513	0.099
560.500	-17.177	0.099
560.600	-24.051	0.099
560.700	-24.858	0.099
560.800	-22.322	0.099
560.900	-20.376	0.099
561.000	-38.875	0.099
561.100	-9.687	0.099
561.200	-12.858	0.099
561.300	-16.910	0.099
561.400	-17.467	0.099
561.500	-21.798	0.099
561.600	-26.300	0.099
561.700	-16.731	0.099
561.800	-22.466	0.099
561.900	-21.465	0.099
562.000	-31.467	0.099
562.100	-29.505	0.099
562.200	-16.594	0.099
562.300	-28.812	0.099
562.400	-29.413	0.099
562.500	-30.249	0.099
562.600	-22.643	0.099
562.700	-22.307	0.099
562.800	-21.639	0.099
562.900	-23.807	0.099
563.000	-27.290	0.099
563.100	-27.297	0.099
563.200	-25.857	0.099
563.300	-27.684	0.099
563.400	-30.778	0.099
563.500	-20.558	0.099
563.600	-17.176	0.099
563.700	-27.937	0.099
563.800	-36.245	0.099
563.900	-24.172	0.099
564.000	-35.433	0.099
564.100	-29.207	0.099
564.200	-19.093	0.099
564.300	-7.219	0.099
564.400	-26.490	0.099
564.500	-30.599	0.099
564.600	-23.127	0.099
564.700	1.103	0.099
564.800	-23.753	0.099
564.900	-16.659	0.099
565.000	-22.892	0.099
565.100	-25.442	0.099
565.200	-24.634	0.099
565.300	-20.744	0.099
565.400	-16.100	0.099
565.500	-28.907	0.099
565.600	-26.223	0.099
565.700	-19.579	0.099
565.800	-18.105	0.099
565.900	-9.851	0.099
566.000	-21.108	0.099
566.100	-28.258	0.099
566.200	-24.090	0.099
566.300	-14.880	0.099
566.400	-19.444	0.099
566.500	-31.236	0.099
566.600	-26.545	0.099
566.700	-34.044	0.099
566.800	-24.733	0.099
566.900	-24.466	0.099
567.000	-17.853	0.099
567.100	-23.884	0.099
567.200	-19.401	0.099
567.300	-22.632	0.099
567.400	-23.907	0.099
567.500	-24.344	0.099
567.600	-18.403	0.099
567.700	-18.551	0.099
567.800	-16.812	0.099
567.900	-32.159	0.099
568.000	-23.624	0.099
568.100	-37.969	0.099
568.200	-23.120	0.099
568.300	-27.978	0.099
568.400	-19.277	0.099
568.500	-13.445	0.099
568.600	-33.807	0.099
568.700	-31.789	0.099
568.800	-23.532	0.099
568.900	-29.390	0.099
569.000	-36.951	0.099
569.100	-12.701	0.099
569.200	-22.144	0.099
569.300	-22.268	0.099
569.400	-33.421	0.099
569.500	-24.079	0.099
569.600	-33.850	0.099
569.700	-20.199	0.099
569.800	-19.273	0.099
569.900	-24.341	0.099
570.000	-15.548	0.099
570.100	-18.486	0.099
570.200	-15.292	0.099
570.300	-31.698	0.099
570.400	-22.683	0.099
570.500	-26.789	0.099
570.600	-21.491	0.099
570.700	-32.749	0.099
570.800	-35.664	0.099
570.900	-33.801	0.099
571.000	-19.391	0.099
571.100	-23.892	0.099
571.200	-25.135	0.099
571.300	-29.467	0.099
571.400	-27.831	0.099
571.500	-23.121	0.099
571.600	-13.622	0.099
571.700	-24.177	0.099
571.800	-34.707	0.099
571.900	-21.114	0.099
572.000	-24.430	0.099
572.100	-23.580	0.099
572.200	-14.681	0.099
572.300	-11.785	0.099
572.400	-34.891	0.099
572.500	-18.974	0.099
572.600	-39.369	0.099
572.700	-19.764	0.099
572.800	-26.502	0.099
572.900	-29.191	0.099
573.000	-35.371	0.099
573.100	-25.139	0.099
573.200	-22.022	0.099
573.300	-21.232	0.099
573.400	-26.336	0.099
573.500	-23.249	0.099
573.600	-28.702	0.099
573.700	-24.983	0.099
573.800	-29.711	0.099
573.900	-33.599	0.099
574.000	-22.338	0.099
574.100	-27.914	0.099
574.200	-15.476	0.099
574.300	-27.403	0.099
574.400	-10.887	0.099
574.500	-26.073	0.099
574.600	-22.488	0.099
574.700	-43.893	0.099
574.800	-21.572	0.099
574.900	-27.241	0.099
575.000	-24.937	0.099
575.100	-12.635	0.099
575.200	-21.503	0.099
575.300	-32.123	0.099
575.400	-31.561	0.099
575.500	-34.449	0.099
575.600	-15.336	0.099
575.700	-19.266	0.099
575.800	-44.316	0.099
575.900	-24.160	0.099
576.000	-28.996	0.099
576.100	-27.521	0.099
576.200	-34.387	0.099
576.300	-21.277	0.099
576.400	-28.840	0.099
576.500	-13.767	0.099
576.600	-16.362	0.099
576.700	-26.843	0.099
576.800	-18.912	0.099
576.900	-21.286	0.099
577.000	-43.678	0.099
577.100	-27.859	0.099
577.200	-34.729	0.099
577.300	-35.152	0.099
577.400	-27.690	0.099
577.500	-16.957	0.099
577.600	-14.490	0.099
577.700	-23.858	0.099
577.800	-40.251	0.099
577.900	-17.849	0.099
578.000	-19.831	0.099
578.100	-24.800	0.099
578.200	-24.771	0.099
578.300	-22.336	0.099
578.400	-30.234	0.099
578.500	-44.241	0.099
578.600	-27.729	0.099
578.700	-14.827	0.099
578.800	-16.351	0.099
578.900	-18.296	0.099
579.000	-29.783	0.099
579.100	-30.748	0.099
579.200	-24.355	0.099
579.300	-20.887	0.099
579.400	-23.556	0.099
579.500	-19.739	0.099
579.600	-31.304	0.099
579.700	-27.178	0.099
579.800	-22.217	0.099
579.900	-28.066	0.099
580.000	-29.505	0.099
580.100	-24.437	0.099
580.200	-26.130	0.099
580.300	-31.826	0.099
580.400	-21.085	0.099
580.500	-10.879	0.099
580.600	-14.351	0.099
580.700	-26.092	0.099
580.800	-24.813	0.099
580.900	-17.905	0.099
581.000	-28.895	0.099
581.100	-29.062	0.099
581.200	-8.732	0.099
581.300	-22.547	0.099
581.400	-29.391	0.099
581.500	-34.777	0.099
581.600	-19.124	0.099
581.700	-17.486	0.099
581.800	-10.103	0.099
581.900	-43.483	0.099
582.000	-27.204	0.099
582.100	-16.285	0.099
582.200	-24.336	0.099
582.300	-27.781	0.099
582.400	-16.348	0.099
582.500	-17.916	0.099
582.600	-15.352	0.099
582.700	-38.798	0.099
582.800	-27.806	0.099
582.900	-13.444	0.099
583.000	-12.429	0.099
583.100	-35.538	0.099
583.200	-21.279	0.099
583.300	-24.067	0.099
583.400	-17.473	0.099
583.500	-28.074	0.099
583.600	-22.916	0.099
583.700	-28.536	0.099
583.800	-37.892	0.099
583.900	-19.018	0.099
584.000	-19.022	0.099
584.100	-25.556	0.099
584.200	-17.997	0.099
584.300	-22.453	0.099
584.400	-20.884	0.099
584.500	-9.859	0.099
584.600	-17.508	0.099
584.700	-28.629	0.099
584.800	-17.116	0.099
584.900	-12.081	0.099
585.000	-37.936	0.099
585.100	-29.727	0.099
585.200	-15.272	0.099
585.300	-18.523	0.099
585.400	-23.844	0.099
585.500	-20.447	0.099
585.600	-18.508	0.099
585.700	-22.421	0.099
585.800	-27.007	0.099
585.900	-14.641	0.099
586.000	-16.129	0.099
586.100	-24.322	0.099
586.200	-16.058	0.099
586.300	-16.154	0.099
586.400	-17.983	0.099
586.500	-30.951	0.099
586.600	-23.325	0.099
586.700	-19.331	0.099
586.800	-17.121	0.099
586.900	-22.930	0.099
587.000	-33.495	0.099
587.100	-16.785	0.099
587.200	-21.550	0.099
587.300	-21.653	0.099
587.400	-17.572	0.099
587.500	-38.145	0.099
587.600	-27.085	0.099
587.700	-27.649	0.099
587.800	-20.495	0.099
587.900	-13.286	0.099
588.000	-20.179	0.099
588.100	-20.768	0.099
588.200	-21.622	0.099
588.300	-14.215	0.099
588.400	-15.624	0.099
588.500	-33.047	0.099
588.600	-35.014	0.099
588.700	-27.661	0.099
588.800	-38.732	0.099
588.900	-29.511	0.099
589.000	-23.953	0.099
589.100	-12.741	0.099
589.200	-28.939	0.099
589.300	-21.040	0.099
589.400	-18.529	0.099
589.500	-22.791	0.099
589.600	-29.769	0.099
589.700	-22.633	0.099
589.800	-19.469	0.099
589.900	-28.491	0.099
590.000	-9.844	0.099
590.100	-15.462	0.099
590.200	-35.691	0.099
590.300	-20.895	0.099
590.400	-22.527	0.099
590.500	-20.317	0.099
590.600	-15.159	0.099
590.700	-19.994	0.099
590.800	-15.286	0.099
590.900	-30.807	0.099
591.000	-14.998	0.099
591.100	-14.446	0.099
591.200	-10.549	0.099
591.300	-25.524	0.099
591.400	-31.975	0.099
591.500	-18.092	0.099
591.600	-20.674	0.099
591.700	-6.807	0.099
591.800	-18.726	0.099
591.900	-24.060	0.099
592.000	-18.905	0.099
592.100	-15.043	0.099
592.200	-17.774	0.099
592.300	-26.447	0.099
592.400	-22.003	0.099
592.500	-29.455	0.099
592.600	-30.021	0.099
592.700	-23.362	0.099
592.800	-18.766	0.099
592.900	-10.638	0.099
593.000	-36.208	0.099
593.100	-7.725	0.099
593.200	-12.596	0.099
593.300	-17.891	0.099
593.400	-23.900	0.099
593.500	-21.288	0.099
593.600	-27.766	0.099
593.700	-28.710	0.099
593.800	-19.530	0.099
593.900	-6.705	0.099
594.000	-21.968	0.099
594.100	-23.857	0.099
594.200	-24.189	0.099
594.300	-27.795	0.099
594.400	-17.449	0.099
594.500	-23.006	0.099
594.600	-15.736	0.099
594.700	-21.080	0.099
594.800	-22.644	0.099
594.900	-13.747	0.099
595.000	-28.216	0.099
595.100	-25.736	0.099
595.200	-10.858	0.099
595.300	-23.263	0.099
595.400	-18.479	0.099
595.500	-26.404	0.099
595.600	-25.361	0.099
595.700	-18.605	0.099
595.800	-27.650	0.099
595.900	-15.888	0.099
596.000	-9.680	0.099
596.100	-13.182	0.099
596.200	-15.769	0.099
596.300	-20.206	0.099
596.400	-24.635	0.099
596.500	-26.162	0.099
596.600	-17.359	0.099
596.700	-14.091	0.099
596.800	-17.342	0.099
596.900	-32.503	0.099
597.000	-27.129	0.099
597.100	-12.613	0.099
597.200	-26.858	0.099
597.300	-25.660	0.099
597.400	-17.751	0.099
597.500	-10.281	0.099
597.600	-24.452	0.099
597.700	-18.204	0.099
597.800	-19.722	0.099
597.900	-11.405	0.099
598.000	-18.008	0.099
598.100	-16.052	0.099
598.200	-21.791	0.099
598.300	-27.662	0.099
598.400	-14.368	0.099
598.500	-25.992	0.099
598.600	-5.666	0.099
598.700	-11.876	0.099
598.800	-13.259	0.099
598.900	-14.870	0.099
599.000	-25.210	0.099
599.100	-16.518	0.099
599.200	-22.567	0.099
599.300	-18.314	0.099
599.400	-26.217	0.099
599.500	-15.347	0.099
599.600	-22.772	0.099
599.700	-17.357	0.099
599.800	-22.527	0.099
599.900	-25.680	0.099
600.000	-18.616	0.099
600.100	-24.756	0.099
600.200	-14.252	0.099
600.300	-25.062	0.099
600.400	-20.194	0.099
600.500	-16.912	0.099
600.600	-15.662	0.099
600.700	-21.640	0.099
600.800	-18.093	0.099
600.900	-15.809	0.099
601.000	-24.597	0.099
601.100	-24.080	0.099
601.200	-12.841	0.099
601.300	-25.675	0.099
601.400	-31.145	0.099
601.500	-10.458	0.099
601.600	-19.127	0.099
601.700	-20.451	0.099
601.800	-33.283	0.099
601.900	-15.263	0.099
602.000	-14.360	0.099
602.100	-23.583	0.099
602.200	-15.350	0.099
602.300	-13.959	0.099
602.400	-21.557	0.099
602.500	-12.722	0.099
602.600	-39.920	0.099
602.700	-29.461	0.099
602.800	-7.716	0.099
602.900	-29.928	0.099
603.000	-11.848	0.099
603.100	-8.168	0.099
603.200	-20.389	0.099
603.300	-35.691	0.099
603.400	-25.658	0.099
603.500	-12.622	0.099
603.600	-16.208	0.099
603.700	-12.271	0.099
603.800	-16.041	0.099
603.900	-30.685	0.099
604.000	-21.147	0.099
604.100	-17.376	0.099
604.200	-12.296	0.099
604.300	-19.764	0.099
604.400	-17.331	0.099
604.500	-20.150	0.099
604.600	-20.360	0.099
604.700	-20.102	0.099
604.800	-12.426	0.099
604.900	-4.429	0.099
605.000	-20.408	0.099
605.100	-13.574	0.099
605.200	-21.002	0.099
605.300	-22.193	0.099
605.400	-16.816	0.099
605.500	-14.291	0.099
605.600	-22.911	0.099
605.700	-8.936	0.099
605.800	-20.099	0.099
605.900	-19.400	0.099
606.000	-11.504	0.099
606.100	-19.571	0.099
606.200	-18.899	0.099
606.300	-31.423	0.099
606.400	-17.849	0.099
606.500	-14.160	0.099
606.600	-17.625	0.099
606.700	-15.868	0.099
606.800	-15.568	0.099
606.900	-10.061	0.099
607.000	-21.731	0.099
607.100	-20.143	0.100
607.200	-29.252	0.099
607.300	-15.766	0.100
607.400	-22.045	0.100
607.500	-23.996	0.100
607.600	-29.879	0.099
607.700	-19.619	0.099
607.800	-10.387	0.100
607.900	-7.454	0.100
608.000	-22.509	0.100
608.100	-20.905	0.099
608.200	-11.278	0.100
608.300	-12.038	0.100
608.400	-17.326	0.100
608.500	-26.359	0.100
608.600	-7.420	0.100
608.700	-30.052	0.100
608.800	-15.849	0.100
608.900	-19.688	0.100
609.000	-19.095	0.100
609.100	-15.233	0.100
609.200	-23.079	0.100
609.300	-21.381	0.100
609.400	-23.999	0.100
609.500	-26.164	0.100
609.600	-19.187	0.100
609.700	-12.853	0.100
609.800	-15.091	0.100
609.900	-19.197	0.100
610.000	-8.025	0.100
610.100	-27.060	0.100
610.200	-22.889	0.100
610.300	-24.942	0.100
610.400	-12.068	0.100
610.500	-10.890	0.100
610.600	-25.957	0.100
610.700	-38.414	0.100
610.800	-30.419	0.100
610.900	-5.005	0.100
611.000	-5.910	0.100
611.100	-9.043	0.100
611.200	-6.929	0.100
611.300	-15.402	0.100
611.400	-17.377	0.100
611.500	-14.063	0.100
611.600	-5.199	0.100
611.700	-19.920	0.100
611.800	-34.457	0.100
611.900	-17.464	0.100
612.000	-20.839	0.100
612.100	-19.535	0.100
612.200	-14.682	0.100
612.300	-13.633	0.100
612.400	-13.822	0.100
612.500	-11.448	0.100
612.600	-14.686	0.100
612.700	-22.655	0.100
612.800	-15.184	0.100
612.900	-17.232	0.100
613.000	-7.707	0.100
613.100	-12.536	0.100
613.200	-8.135	0.100
613.300	-27.507	0.100
613.400	-17.274	0.100
613.500	-18.455	0.100
613.600	-15.709	0.100
613.700	-18.948	0.100
613.800	-18.222	0.100
613.900	-22.257	0.100
614.000	-29.017	0.100
614.100	-15.792	0.100
614.200	-15.071	0.100
614.300	-8.097	0.100
614.400	-15.948	0.100
614.500	-15.162	0.100
614.600	-19.800	0.100
614.700	-9.805	0.100
614.800	-8.985	0.100
614.900	-15.287	0.100
615.000	-8.622	0.100
615.100	-15.880	0.100
615.200	-25.830	0.100
615.300	-23.328	0.100
615.400	-18.709	0.100
615.500	-17.505	0.100
615.600	-8.468	0.100
615.700	-15.221	0.100
615.800	-13.014	0.100
615.900	-15.412	0.100
616.000	-9.816	0.100
616.100	-19.978	0.100
616.200	-19.032	0.100
616.300	-13.560	0.100
616.400	-14.814	0.100
616.500	-6.819	0.100
616.600	-23.708	0.100
616.700	-31.447	0.100
616.800	-15.199	0.100
616.900	-0.469	0.100
617.000	-14.559	0.100
617.100	-11.110	0.100
617.200	-22.197	0.100
617.300	-27.629	0.100
617.400	-20.444	0.100
617.500	-17.209	0.100
617.600	-9.956	0.100
617.700	-17.707	0.100
617.800	-16.154	0.100
617.900	-20.323	0.100
618.000	-15.568	0.100
618.100	-20.096	0.100
618.200	-5.327	0.100
618.300	-18.936	0.100
618.400	-14.151	0.100
618.500	-33.955	0.100
618.600	-3.710	0.100
618.700	-17.916	0.100
618.800	-14.632	0.100
618.900	-8.820	0.100
619.000	-21.260	0.100
619.100	-21.096	0.100
619.200	-16.167	0.100
619.300	-16.388	0.100
619.400	-7.346	0.100
619.500	-18.171	0.100
619.600	-17.680	0.100
619.700	-14.428	0.100
619.800	-12.085	0.100
619.900	-21.763	0.100
620.000	-21.557	0.100
620.100	-10.317	0.100
620.200	-13.761	0.100
620.300	-19.671	0.100
620.400	-16.952	0.100
620.500	-11.284	0.100
620.600	-12.129	0.100
620.700	-15.938	0.100
620.800	-12.368	0.100
620.900	-10.232	0.100
621.000	-21.471	0.100
621.100	-18.267	0.100
621.200	-11.874	0.100
621.300	-17.806	0.100
621.400	-10.303	0.100
621.500	-15.166	0.100
621.600	-24.056	0.100
621.700	-24.461	0.100
621.800	-12.379	0.100
621.900	-21.856	0.100
622.000	-21.963	0.100
622.100	-10.390	0.100
622.200	-19.624	0.100
622.300	-24.044	0.100
622.400	-8.519	0.100
622.500	-8.537	0.100
622.600	-22.503	0.100
622.700	-17.567	0.100
622.800	-13.529	0.100
622.900	-7.231	0.100
623.000	-17.341	0.100
623.100	-17.752	0.100
623.200	-17.674	0.100
623.300	-23.266	0.100
623.400	-18.558	0.100
623.500	-23.157	0.100
623.600	-14.074	0.100
623.700	-15.368	0.100
623.800	-11.796	0.100
623.900	-19.129	0.100
624.000	-4.493	0.100
624.100	-17.871	0.100
624.200	-19.985	0.100
624.300	-19.487	0.100
624.400	-4.285	0.100
624.500	-19.411	0.100
624.600	-12.513	0.100
624.700	-11.352	0.100
624.800	-2.303	0.100
624.900	-11.811	0.100
625.000	-28.297	0.100
625.100	-23.965	0.100
625.200	-14.618	0.100
625.300	-12.130	0.100
625.400	-12.037	0.100
625.500	-14.850	0.100
625.600	-9.813	0.100
625.700	-17.557	0.100
625.800	-14.957	0.100
625.900	-20.215	0.100
626.000	-27.322	0.100
626.100	-11.255	0.100
626.200	-14.025	0.100
626.300	-18.820	0.100
626.400	-21.222	0.100
626.500	-19.816	0.100
626.600	-15.758	0.100
626.700	-11.780	0.100
626.800	-4.811	0.100
626.900	-4.083	0.100
627.000	-12.223	0.100
627.100	-8.197	0.100
627.200	-15.420	0.100
627.300	-21.445	0.100
627.400	-19.031	0.100
627.500	-18.554	0.100
627.600	-16.742	0.100
627.700	-13.991	0.100
627.800	-17.426	0.100
627.900	-19.409	0.100
628.000	-11.177	0.100
628.100	-19.388	0.100
628.200	-18.600	0.100
628.300	-20.017	0.100
628.400	-7.247	0.100
628.500	-7.228	0.100
628.600	-15.691	0.100
628.700	-17.854	0.100
628.800	-9.784	0.100
628.900	-18.132	0.100
629.000	-20.815	0.100
629.100	-17.013	0.099
629.200	-12.559	0.099
629.300	-14.450	0.099
629.400	-20.136	0.099
629.500	-7.271	0.099
629.600	-10.839	0.099
629.700	-8.010	0.099
629.800	-21.381	0.099
629.900	-14.104	0.099
630.000	-9.449	0.099
630.100	-4.793	0.099
630.200	-10.503	0.099
630.300	-13.443	0.099
630.400	-5.164	0.099
630.500	-8.129	0.099
630.600	-5.905	0.099
630.700	8.019	0.099
630.800	8.073	0.099
630.900	5.854	0.099
631.000	-1.113	0.099
631.100	11.061	0.099
631.200	10.005	0.099
631.300	-10.987	0.099
631.400	9.113	0.099
631.500	6.097	0.099
631.600	21.474	0.099
631.700	2.757	0.099
631.800	5.625	0.099
631.900	14.089	0.099
632.000	20.180	0.099
632.100	12.482	0.099
632.200	27.134	0.099
632.300	20.047	0.099
632.400	9.135	0.099
632.500	16.068	0.099
632.600	29.696	0.099
632.700	11.385	0.099
632.800	11.484	0.099
632.900	-2.361	0.099
633.000	14.728	0.099
633.100	8.379	0.099
633.200	13.513	0.099
633.300	22.837	0.099
633.400	10.891	0.099
633.500	13.326	0.099
633.600	2.753	0.099
633.700	17.523	0.099
633.800	10.571	0.099
633.900	5.713	0.099
634.000	17.446	0.099
634.100	1.117	0.099
634.200	1.386	0.099
634.300	22.270	0.099
634.400	16.468	0.099
634.500	17.044	0.099
634.600	15.242	0.099
634.700	12.652	0.099
634.800	18.065	0.099
634.900	12.831	0.099
635.000	9.341	0.099
635.100	9.424	0.099
635.200	11.892	0.099
635.300	6.428	0.099
635.400	23.602	0.099
635.500	18.629	0.099
635.600	9.402	0.099
635.700	4.894	0.099
635.800	9.093	0.099
635.900	18.288	0.099
636.000	13.649	0.099
636.100	20.920	0.099
636.200	15.878	0.099
636.300	15.165	0.099
636.400	19.388	0.099
636.500	-1.068	0.099
636.600	9.485	0.099
636.700	7.894	0.099
636.800	14.497	0.099
636.900	20.097	0.099
637.000	37.694	0.099
637.100	13.819	0.099
637.200	17.659	0.099
637.300	18.134	0.099
637.400	20.247	0.099
637.500	15.529	0.099
637.600	30.648	0.099
637.700	-0.008	0.099
637.800	22.085	0.099
637.900	18.233	0.099
638.000	16.457	0.099
638.100	17.267	0.099
638.200	29.300	0.099
638.300	12.265	0.099
638.400	29.516	0.099
638.500	25.883	0.099
638.600	12.688	0.099
638.700	19.438	0.099
638.800	16.692	0.099
638.900	18.031	0.099
639.000	42.321	0.099
639.100	34.513	0.099
639.200	32.657	0.099
639.300	36.802	0.099
639.400	28.427	0.099
639.500	27.879	0.099
639.600	28.952	0.099
639.700	23.280	0.099
639.800	23.753	0.099
639.900	39.328	0.099
640.000	41.048	0.099
640.100	24.888	0.099
640.200	26.090	0.099
640.300	34.919	0.099
640.400	27.167	0.099
640.500	34.815	0.099
640.600	36.329	0.099
640.700	29.381	0.099
640.800	34.536	0.099
640.900	24.208	0.099
641.000	43.336	0.099
641.100	35.937	0.099
641.200	30.468	0.099
641.300	18.603	0.099
641.400	34.333	0.099
641.500	51.820	0.099
641.600	46.907	0.099
641.700	41.723	0.099
641.800	33.175	0.099
641.900	23.456	0.099
642.000	32.798	0.099
642.100	42.728	0.099
642.200	38.017	0.099
642.300	51.027	0.099
642.400	40.829	0.099
642.500	37.200	0.099
642.600	40.765	0.099
642.700	49.371	0.099
642.800	47.471	0.099
642.900	40.252	0.099
643.000	24.341	0.099
643.100	35.202	0.099
643.200	45.591	0.099
643.300	50.171	0.099
643.400	35.550	0.099
643.500	26.669	0.099
643.600	43.556	0.099
643.700	40.542	0.099
643.800	45.403	0.099
643.900	37.355	0.099
644.000	41.733	0.099
644.100	42.375	0.099
644.200	47.540	0.099
644.300	36.016	0.099
644.400	44.750	0.099
644.500	44.003	0.099
644.600	38.376	0.099
644.700	37.056	0.099
644.800	42.297	0.099
644.900	51.340	0.099
645.000	49.726	0.099
645.100	53.138	0.099
645.200	32.116	0.099
645.300	45.274	0.099
645.400	48.100	0.099
645.500	44.602	0.099
645.600	41.345	0.099
645.700	41.041	0.099
645.800	43.046	0.099
645.900	42.109	0.099
646.000	41.710	0.099
646.100	50.643	0.099
646.200	47.400	0.099
646.300	46.715	0.099
646.400	42.426	0.099
646.500	47.125	0.099
646.600	40.799	0.099
646.700	45.672	0.099
646.800	31.586	0.099
646.900	41.073	0.099
647.000	47.290	0.099
647.100	40.567	0.099
647.200	39.498	0.099
647.300	42.432	0.099
647.400	40.984	0.099
647.500	40.981	0.099
647.600	51.547	0.099
647.700	45.792	0.099
647.800	51.624	0.099
647.900	47.037	0.099
648.000	42.047	0.099
648.100	49.635	0.099
648.200	32.141	0.099
648.300	46.158	0.099
648.400	38.734	0.099
648.500	46.447	0.099
648.600	51.667	0.099
648.700	49.620	0.099
648.800	36.675	0.099
648.900	31.486	0.099
649.000	43.298	0.099
649.100	43.391	0.099
649.200	43.048	0.099
649.300	40.229	0.099
649.400	47.922	0.099
649.500	45.475	0.099
649.600	50.581	0.099
649.700	38.291	0.099
649.800	48.943	0.099
649.900	42.237	0.099
650.000	39.363	0.099
650.100	46.134	0.099
650.200	56.054	0.099
650.300	38.770	0.099
650.400	34.908	0.099
650.500	44.826	0.099
650.600	38.730	0.099
650.700	38.243	0.099
650.800	39.827	0.099
650.900	28.279	0.099
651.000	53.783	0.099
651.100	45.625	0.099
651.200	38.131	0.099
651.300	42.218	0.099
651.400	52.905	0.099
651.500	46.753	0.099
651.600	43.053	0.099
651.700	40.086	0.099
651.800	43.741	0.099
651.900	44.044	0.099
652.000	40.167	0.099
652.100	31.730	0.099
652.200	50.566	0.099
652.300	43.503	0.099
652.400	39.834	0.099
652.500	46.170	0.099
652.600	44.787	0.099
652.700	33.405	0.099
652.800	48.956	0.099
652.900	44.804	0.099
653.000	37.675	0.099
653.100	39.509	0.099
653.200	39.058	0.099
653.300	33.520	0.099
653.400	41.518	0.099
653.500	45.783	0.099
653.600	50.481	0.099
653.700	46.973	0.099
653.800	44.931	0.099
653.900	42.243	0.099
654.000	41.210	0.099
654.100	46.305	0.099
654.200	34.282	0.099
654.300	36.120	0.099
654.400	44.404	0.099
654.500	35.870	0.099
654.600	34.265	0.099
654.700	54.963	0.099
654.800	51.786	0.099
654.900	36.111	0.099
655.000	42.076	0.099
655.100	45.455	0.099
655.200	38.676	0.099
655.300	34.416	0.099
655.400	34.192	0.099
655.500	34.765	0.099
655.600	46.569	0.099
655.700	37.908	0.099
655.800	44.056	0.099
655.900	30.464	0.099
656.000	43.377	0.099
656.100	43.160	0.099
656.200	24.410	0.099
656.300	33.245	0.099
656.400	44.136	0.099
656.500	38.055	0.099
656.600	40.441	0.099
656.700	49.914	0.099
656.800	42.988	0.099
656.900	44.026	0.099
657.000	34.045	0.099
657.100	51.372	0.099
657.200	34.581	0.099
657.300	32.532	0.099
657.400	43.072	0.099
657.500	46.210	0.099
657.600	37.223	0.099
657.700	44.467	0.099
657.800	37.900	0.099
657.900	43.651	0.099
658.000	32.291	0.099
658.100	25.938	0.099
658.200	44.404	0.099
658.300	26.835	0.099
658.400	40.070	0.099
658.500	49.552	0.099
658.600	42.489	0.099
658.700	32.902	0.099
658.800	41.371	0.099
658.900	40.216	0.099
659.000	30.611	0.099
659.100	40.819	0.099
659.200	44.052	0.099
659.300	37.672	0.099
659.400	43.869	0.099
659.500	40.097	0.099
659.600	29.915	0.099
659.700	41.025	0.099
659.800	43.987	0.099
659.900	50.856	0.099
660.000	49.414	0.099
660.100	48.582	0.099
660.200	51.481	0.099
660.300	39.868	0.099
660.400	39.776	0.099
660.500	41.733	0.099
660.600	39.872	0.099
660.700	49.246	0.099
660.800	45.605	0.099
660.900	33.982	0.099
661.000	50.259	0.099
661.100	37.048	0.099
661.200	29.816	0.099
661.300	48.152	0.099
661.400	34.241	0.099
661.500	34.396	0.099
661.600	35.710	0.099
661.700	44.428	0.099
661.800	45.036	0.099
661.900	39.289	0.099
662.000	43.845	0.099
662.100	38.933	0.099
662.200	51.960	0.099
662.300	37.969	0.099
662.400	31.166	0.099
662.500	34.234	0.099
662.600	37.194	0.099
662.700	37.151	0.099
662.800	49.419	0.099
662.900	44.390	0.099
663.000	31.240	0.099
663.100	37.380	0.099
663.200	48.608	0.099
663.300	33.776	0.099
663.400	42.607	0.099
663.500	44.364	0.099
663.600	43.373	0.099
663.700	40.195	0.099
663.800	40.858	0.099
663.900	46.690	0.099
664.000	36.112	0.099
664.100	49.760	0.099
664.200	65.927	0.099
664.300	40.039	0.099
664.400	27.441	0.099
664.500	47.900	0.099
664.600	24.626	0.099
664.700	41.824	0.099
664.800	49.819	0.099
664.900	42.523	0.099
665.000	47.995	0.099
665.100	40.195	0.099
665.200	29.105	0.099
665.300	38.796	0.099
665.400	40.930	0.099
665.500	34.137	0.099
665.600	42.955	0.099
665.700	41.163	0.099
665.800	39.481	0.099
665.900	41.844	0.099
666.000	46.968	0.099
666.100	37.351	0.099
666.200	38.902	0.099
666.300	35.879	0.099
666.400	42.098	0.099
666.500	38.920	0.099
666.600	48.941	0.099
666.700	38.216	0.099
666.800	37.800	0.099
666.900	36.236	0.099
667.000	39.192	0.099
667.100	39.393	0.099
667.200	40.129	0.099
667.300	33.849	0.099
667.400	22.847	0.099
667.500	27.909	0.099
667.600	39.781	0.099
667.700	36.329	0.099
667.800	39.233	0.099
667.900	43.893	0.099
668.000	31.273	0.099
668.100	41.615	0.099
668.200	40.963	0.099
668.300	37.623	0.099
668.400	46.262	0.099
668.500	44.053	0.099
668.600	36.691	0.099
668.700	37.973	0.099
668.800	41.527	0.099
668.900	32.311	0.099
669.000	38.779	0.099
669.100	38.882	0.099
669.200	36.202	0.099
669.300	45.979	0.099
669.400	34.525	0.099
669.500	35.269	0.099
669.600	31.282	0.099
669.700	41.667	0.100
669.800	37.046	0.099
669.900	45.316	0.099
670.000	44.141	0.099
670.100	44.451	0.099
670.200	35.251	0.099
670.300	36.792	0.099
670.400	33.854	0.099
670.500	42.669	0.099
670.600	41.582	0.099
670.700	38.545	0.099
670.800	40.344	0.099
670.900	36.847	0.099
671.000	35.807	0.099
671.100	48.806	0.099
671.200	38.736	0.099
671.300	36.796	0.099
671.400	34.679	0.099
671.500	46.604	0.099
671.600	38.525	0.099
671.700	41.674	0.099
671.800	36.224	0.099
671.900	45.274	0.099
672.000	37.774	0.099
672.100	34.916	0.099
672.200	30.623	0.099
672.300	36.508	0.099
672.400	40.854	0.099
672.500	35.290	0.099
672.600	50.864	0.099
672.700	40.248	0.099
672.800	29.676	0.100
672.900	45.121	0.099
673.000	44.886	0.099
673.100	31.757	0.099
673.200	36.951	0.099
673.300	30.256	0.099
673.400	16.024	0.099
673.500	48.741	0.099
673.600	40.523	0.099
673.700	46.014	0.099
673.800	38.113	0.099
673.900	35.095	0.099
674.000	39.899	0.099
674.100	41.399	0.099
674.200	47.386	0.099
674.300	27.568	0.099
674.400	25.028	0.099
674.500	30.830	0.099
674.600	38.056	0.099
674.700	35.398	0.099
674.800	36.837	0.099
674.900	54.029	0.099
675.000	39.594	0.099
675.100	40.724	0.099
675.200	37.123	0.099
675.300	41.747	0.099
675.400	41.835	0.099
675.500	44.919	0.099
675.600	37.474	0.099
675.700	30.197	0.099
675.800	26.909	0.099
675.900	32.072	0.099
676.000	47.548	0.099
676.100	48.735	0.099
676.200	40.906	0.099
676.300	36.256	0.099
676.400	35.058	0.099
676.500	41.967	0.099
676.600	45.672	0.099
676.700	30.267	0.099
676.800	34.008	0.099
676.900	28.583	0.099
677.000	39.257	0.099
677.100	38.006	0.099
677.200	50.628	0.099
677.300	33.884	0.099
677.400	27.553	0.099
677.500	35.709	0.099
677.600	38.908	0.099
677.700	37.061	0.099
677.800	34.004	0.099
677.900	45.649	0.099
678.000	37.443	0.099
678.100	37.585	0.099
678.200	36.145	0.099
678.300	34.286	0.099
678.400	34.627	0.099
678.500	37.372	0.099
678.600	45.175	0.099
678.700	46.868	0.099
678.800	46.664	0.099
678.900	45.403	0.099
679.000	38.442	0.099
679.100	40.529	0.099
679.200	43.122	0.099
679.300	35.166	0.099
679.400	37.686	0.099
679.500	29.025	0.099
679.600	32.971	0.099
679.700	26.733	0.099
679.800	34.390	0.099
679.900	42.793	0.099
680.000	39.566	0.099
680.100	40.262	0.099
680.200	36.948	0.099
680.300	47.929	0.099
680.400	36.898	0.099
680.500	28.183	0.099
680.600	27.593	0.099
680.700	51.848	0.099
680.800	43.753	0.099
680.900	31.136	0.099
681.000	31.368	0.099
681.100	31.246	0.099
681.200	43.287	0.099
681.300	52.878	0.099
681.400	38.201	0.099
681.500	17.575	0.099
681.600	38.026	0.099
681.700	42.379	0.099
681.800	43.181	0.099
681.900	33.247	0.099
682.000	50.258	0.099
682.100	36.076	0.099
682.200	25.984	0.099
682.300	28.697	0.099
682.400	39.523	0.099
682.500	43.127	0.099
682.600	45.605	0.099
682.700	43.925	0.099
682.800	44.297	0.099
682.900	36.088	0.099
683.000	40.891	0.099
683.100	37.064	0.099
683.200	36.209	0.099
683.300	38.064	0.099
683.400	39.296	0.099
683.500	34.961	0.099
683.600	33.430	0.099
683.700	36.403	0.099
683.800	42.070	0.099
683.900	21.166	0.099
684.000	46.641	0.099
684.100	45.529	0.099
684.200	41.859	0.099
684.300	37.124	0.099
684.400	29.037	0.099
684.500	40.176	0.099
684.600	35.983	0.099
684.700	25.061	0.099
684.800	45.552	0.099
684.900	43.797	0.099
685.000	33.381	0.099
685.100	32.679	0.099
685.200	34.317	0.099
685.300	40.312	0.099
685.400	37.858	0.099
685.500	37.793	0.099
685.600	43.557	0.099
685.700	36.327	0.099
685.800	33.375	0.099
685.900	40.733	0.099
686.000	33.388	0.099
686.100	45.198	0.099
686.200	41.751	0.099
686.300	39.827	0.099
686.400	35.952	0.099
686.500	37.935	0.099
686.600	49.468	0.099
686.700	41.679	0.099
686.800	34.079	0.099
686.900	33.770	0.099
687.000	35.455	0.099
687.100	32.872	0.099
687.200	41.890	0.099
687.300	37.737	0.099
687.400	33.873	0.099
687.500	37.889	0.099
687.600	42.573	0.099
687.700	43.579	0.099
687.800	33.443	0.099
687.900	35.648	0.099
688.000	33.726	0.099
688.100	40.199	0.099
688.200	24.995	0.099
688.300	44.115	0.099
688.400	36.942	0.099
688.500	19.372	0.099
688.600	22.198	0.099
688.700	48.175	0.099
688.800	34.515	0.099
688.900	40.892	0.099
689.000	39.284	0.099
689.100	40.781	0.099
689.200	36.384	0.099
689.300	32.267	0.099
689.400	42.368	0.099
689.500	39.806	0.099
689.600	31.487	0.099
689.700	21.716	0.099
689.800	46.242	0.099
689.900	40.831	0.099
690.000	23.639	0.099
690.100	27.284	0.099
690.200	24.767	0.099
690.300	33.775	0.099
690.400	33.498	0.099
690.500	25.315	0.099
690.600	19.607	0.099
690.700	15.157	0.099
690.800	21.364	0.099
690.900	17.651	0.099
691.000	19.216	0.099
691.100	13.739	0.099
691.200	6.957	0.099
691.300	13.263	0.099
691.400	7.264	0.099
691.500	-10.153	0.099
691.600	4.236	0.099
691.700	11.044	0.099
691.800	-12.310	0.099
691.900	-0.937	0.099
692.000	7.842	0.099
692.100	3.964	0.099
692.200	-5.237	0.099
692.300	-4.513	0.099
692.400	-12.333	0.099
692.500	1.379	0.099
692.600	-4.381	0.099
692.700	3.882	0.099
692.800	-3.993	0.099
692.900	-0.338	0.099
693.000	-6.978	0.099
693.100	-4.553	0.099
693.200	-7.327	0.099
693.300	-12.155	0.099
693.400	-22.066	0.099
693.500	-18.507	0.099
693.600	-11.700	0.099
693.700	-10.334	0.099
693.800	-3.133	0.099
693.900	-8.048	0.099
694.000	-3.496	0.099
694.100	-8.709	0.099
694.200	-22.631	0.099
694.300	-20.876	0.099
694.400	-12.056	0.099
694.500	-9.784	0.099
694.600	0.963	0.099
694.700	-1.120	0.099
694.800	-7.544	0.099
694.900	-15.785	0.099
695.000	-4.241	0.099
695.100	-6.608	0.099
695.200	-23.781	0.099
695.300	-12.481	0.099
695.400	-15.306	0.099
695.500	-19.016	0.099
695.600	-19.216	0.099
695.700	-14.970	0.099
695.800	-11.165	0.099
695.900	-8.043	0.099
696.000	0.058	0.099
696.100	-7.438	0.099
696.200	-5.031	0.099
696.300	-15.890	0.099
696.400	-13.077	0.099
696.500	-9.092	0.099
696.600	-11.699	0.099
696.700	-13.922	0.099
696.800	-15.449	0.099
696.900	-22.274	0.099
697.000	-17.300	0.099
697.100	-0.045	0.099
697.200	-8.283	0.099
697.300	-20.379	0.099
697.400	-17.207	0.099
697.500	-6.917	0.099
697.600	-17.015	0.099
697.700	-14.066	0.099
697.800	-12.410	0.099
697.900	-6.833	0.099
698.000	-24.580	0.099
698.100	-12.769	0.099
698.200	-4.709	0.099
698.300	-22.980	0.099
698.400	-15.215	0.099
698.500	-16.531	0.099
698.600	-7.211	0.099
698.700	-8.640	0.099
698.800	-8.482	0.099
698.900	-9.824	0.099
699.000	-14.357	0.099
699.100	-9.415	0.099
699.200	-28.331	0.099
699.300	-26.691	0.099
699.400	-10.569	0.099
699.500	-8.894	0.099
699.600	-16.945	0.099
699.700	-18.325	0.099
699.800	-15.526	0.099
699.900	-33.665	0.099
700.000	-8.315	0.099
700.100	-9.899	0.099
700.200	-21.784	0.099
700.300	-19.041	0.099
700.400	-11.941	0.099
700.500	-12.777	0.099
700.600	-6.953	0.099
700.700	-11.877	0.099
700.800	-19.603	0.099
700.900	-17.650	0.099
701.000	-8.277	0.099
701.100	-22.072	0.099
701.200	-11.430	0.099
701.300	-22.334	0.099
701.400	-13.028	0.099
701.500	-9.534	0.099
701.600	-18.774	0.099
701.700	-22.686	0.099
701.800	-18.610	0.099
701.900	-18.690	0.099
702.000	-24.030	0.099
702.100	-7.310	0.099
702.200	-18.509	0.099
702.300	-24.457	0.099
702.400	-32.132	0.099
702.500	-18.855	0.099
702.600	-18.564	0.099
702.700	-26.930	0.099
702.800	-13.150	0.099
702.900	-10.110	0.099
703.000	-15.017	0.099
703.100	-21.176	0.099
703.200	-21.798	0.099
703.300	-23.589	0.099
703.400	-12.470	0.099
703.500	-23.165	0.099
703.600	-24.432	0.099
703.700	-23.527	0.099
703.800	-21.786	0.099
703.900	-27.501	0.099
704.000	-7.611	0.099
704.100	-21.062	0.099
704.200	-25.296	0.099
704.300	-14.575	0.099
704.400	-18.957	0.099
704.500	-21.125	0.099
704.600	-22.669	0.099
704.700	-26.313	0.099
704.800	-20.686	0.099
704.900	-29.864	0.099
705.000	-13.798	0.099
705.100	-16.663	0.099
705.200	-14.011	0.099
705.300	-11.670	0.099
705.400	-21.441	0.099
705.500	-26.808	0.099
705.600	-31.738	0.099
705.700	-10.671	0.099
705.800	-13.035	0.099
705.900	-16.220	0.099
706.000	-20.112	0.099
706.100	-22.701	0.099
706.200	-28.646	0.099
706.300	-15.679	0.099
706.400	-22.212	0.099
706.500	-14.608	0.099
706.600	-26.532	0.099
706.700	-18.793	0.099
706.800	-20.364	0.099
706.900	-23.333	0.099
707.000	-10.322	0.099
707.100	-10.324	0.099
707.200	-19.837	0.099
707.300	-24.634	0.099
707.400	-32.327	0.099
707.500	-22.549	0.099
707.600	-32.260	0.099
707.700	-18.329	0.099
707.800	-27.769	0.099
707.900	-21.286	0.099
708.000	-15.973	0.099
708.100	-17.933	0.099
708.200	-23.750	0.099
708.300	-26.984	0.099
708.400	-22.841	0.099
708.500	-18.433	0.099
708.600	-16.857	0.099
708.700	-20.995	0.099
708.800	-32.110	0.099
708.900	-31.729	0.099
709.000	-28.632	0.099
709.100	-18.673	0.099
709.200	-22.160	0.099
709.300	-21.613	0.099
709.400	-32.776	0.099
709.500	-33.337	0.099
709.600	-35.204	0.099
709.700	-25.871	0.099
709.800	-10.621	0.099
709.900	-12.149	0.099
710.000	-19.241	0.099
710.100	-23.522	0.099
710.200	-15.331	0.099
710.300	-23.693	0.099
710.400	-30.702	0.099
710.500	-16.385	0.099
710.600	-24.439	0.099
710.700	-22.835	0.099
710.800	-28.488	0.099
710.900	-38.812	0.099
711.000	-17.268	0.099
711.100	-21.761	0.099
711.200	-29.800	0.099
711.300	-22.851	0.099
711.400	-27.241	0.099
711.500	-25.313	0.099
711.600	-21.489	0.099
711.700	-33.241	0.099
711.800	-19.149	0.099
711.900	-8.354	0.099
712.000	-23.579	0.099
712.100	-21.967	0.099
712.200	-38.762	0.099
712.300	-36.155	0.099
712.400	-30.523	0.099
712.500	-20.246	0.099
712.600	-15.972	0.099
712.700	-20.248	0.099
712.800	-18.218	0.099
712.900	-14.313	0.099
713.000	-33.604	0.099
713.100	-34.954	0.099
713.200	-21.049	0.099
713.300	-18.406	0.099
713.400	-27.243	0.099
713.500	-15.458	0.099
713.600	-23.590	0.099
713.700	-24.211	0.099
713.800	-32.675	0.099
713.900	-23.441	0.099
714.000	-19.124	0.099
714.100	-36.909	0.099
714.200	-16.001	0.099
714.300	-25.107	0.099
714.400	-22.163	0.099
714.500	-23.336	0.099
714.600	-22.232	0.099
714.700	-29.154	0.099
714.800	-21.715	0.099
714.900	-34.362	0.099
715.000	-17.943	0.099
715.100	-38.380	0.099
715.200	-11.609	0.099
715.300	-22.291	0.099
715.400	-30.972	0.099
715.500	-27.668	0.099
715.600	-27.529	0.099
715.700	-22.085	0.099
715.800	-24.001	0.099
715.900	-12.434	0.099
716.000	-14.781	0.099
716.100	-24.969	0.099
716.200	-21.839	0.099
716.300	-12.320	0.099
716.400	-31.766	0.099
716.500	-22.555	0.099
716.600	-25.534	0.099
716.700	-21.112	0.099
716.800	-37.877	0.099
716.900	-21.568	0.099
717.000	-28.816	0.099
717.100	-33.491	0.099
717.200	-30.489	0.099
717.300	-22.218	0.099
717.400	-23.177	0.099
717.500	-17.562	0.099
717.600	-26.164	0.099
717.700	-19.979	0.099
717.800	-20.752	0.099
717.900	-27.179	0.099
718.000	-26.835	0.099
718.100	-41.198	0.099
718.200	-19.997	0.099
718.300	-29.879	0.099
718.400	-23.516	0.099
718.500	-30.091	0.099
718.600	-23.300	0.099
718.700	-26.118	0.099
718.800	-16.062	0.099
718.900	-22.498	0.099
719.000	-25.609	0.099
719.100	-15.955	0.099
719.200	-32.918	0.099
719.300	-32.333	0.099
719.400	-23.227	0.099
719.500	-36.317	0.099
719.600	-18.188	0.099
719.700	-19.134	0.099
719.800	-20.143	0.099
719.900	-22.293	0.099
720.000	-23.564	0.099
720.100	-29.624	0.099
720.200	-26.889	0.099
720.300	-20.351	0.099
720.400	-23.218	0.099
720.500	-31.855	0.099
720.600	-21.810	0.100
720.700	-35.001	0.099
720.800	-21.416	0.099
720.900	-30.422	0.099
721.000	-14.827	0.099
721.100	-17.940	0.099
721.200	-37.440	0.099
721.300	-24.548	0.099
721.400	-31.526	0.099
721.500	-30.985	0.099
721.600	-24.629	0.099
721.700	-23.975	0.099
721.800	-20.781	0.099
721.900	-23.262	0.099
722.000	-36.313	0.099
722.100	-35.428	0.099
722.200	-21.257	0.099
722.300	-31.027	0.099
722.400	-30.865	0.099
722.500	-29.364	0.099
722.600	-26.544	0.099
722.700	-22.748	0.099
722.800	-19.226	0.099
722.900	-32.296	0.099
723.000	-25.437	0.099
723.100	-28.178	0.099
723.200	-27.918	0.099
723.300	-28.926	0.099
723.400	-22.967	0.099
723.500	-22.874	0.099
723.600	-34.318	0.099
723.700	-22.082	0.099
723.800	-30.862	0.099
723.900	-31.108	0.099
724.000	-25.940	0.099
724.100	-26.272	0.099
724.200	-31.324	0.099
724.300	-14.865	0.099
724.400	-29.779	0.099
724.500	-28.248	0.099
724.600	-34.935	0.099
724.700	-27.696	0.099
724.800	-21.618	0.099
724.900	-15.294	0.099
725.000	-26.274	0.099
725.100	-14.800	0.100
725.200	-14.477	0.099
725.300	-29.372	0.099
725.400	-31.764	0.099
725.500	-16.590	0.099
725.600	-29.037	0.099
725.700	-32.452	0.099
725.800	-13.025	0.099
725.900	-14.983	0.099
726.000	-11.759	0.099
726.100	-43.360	0.099
726.200	-38.439	0.099
726.300	-35.440	0.099
726.400	-34.469	0.099
726.500	-18.528	0.099
726.600	-22.491	0.099
726.700	-30.719	0.099
726.800	-33.104	0.099
726.900	-29.414	0.099
727.000	-25.838	0.099
727.100	-25.749	0.099
727.200	-31.609	0.099
727.300	-29.704	0.099
727.400	-24.300	0.099
727.500	-14.718	0.099
727.600	-22.323	0.099
727.700	-23.595	0.099
727.800	-26.896	0.099
727.900	-30.029	0.099
728.000	-26.376	0.099
728.100	-28.747	0.099
728.200	-14.738	0.099
728.300	-29.930	0.099
728.400	-23.741	0.099
728.500	-27.558	0.099
728.600	-28.046	0.099
728.700	-24.585	0.099
728.800	-22.099	0.099
728.900	-20.562	0.099
729.000	-19.417	0.099
729.100	-38.761	0.099
729.200	-19.272	0.099
729.300	-27.804	0.099
729.400	-21.990	0.099
729.500	-21.219	0.099
729.600	-20.498	0.099
729.700	-27.164	0.099
729.800	-33.334	0.099
729.900	-31.902	0.099
730.000	-19.658	0.099
730.100	-27.108	0.099
730.200	-22.156	0.099
730.300	-25.935	0.099
730.400	-13.324	0.099
730.500	-29.529	0.099
730.600	-25.257	0.099
730.700	-26.405	0.099
730.800	-30.569	0.099
730.900	-21.213	0.099
731.000	-29.117	0.099
731.100	-27.341	0.099
731.200	-21.852	0.099
731.300	-25.795	0.099
731.400	-35.129	0.099
731.500	-32.536	0.099
731.600	-27.912	0.099
731.700	-27.652	0.099
731.800	-28.756	0.099
731.900	-18.126	0.099
732.000	-23.544	0.099
732.100	-17.123	0.099
732.200	-24.424	0.099
732.300	-32.139	0.099
732.400	-6.316	0.099
732.500	-22.125	0.099
732.600	-17.694	0.099
732.700	-24.647	0.099
732.800	-31.603	0.099
732.900	-21.153	0.099
733.000	-32.184	0.099
733.100	-30.316	0.099
733.200	-21.903	0.099
733.300	-15.826	0.099
733.400	-25.739	0.099
733.500	-15.100	0.099
733.600	-21.945	0.099
733.700	-29.364	0.099
733.800	-33.401	0.099
733.900	-22.468	0.099
734.000	-33.210	0.099
734.100	-26.039	0.099
734.200	-13.489	0.099
734.300	-25.792	0.099
734.400	-17.422	0.100
734.500	-25.347	0.099
734.600	-31.588	0.099
734.700	-21.283	0.099
734.800	-21.546	0.099
734.900	-32.240	0.099
735.000	-24.000	0.099
735.100	-17.514	0.099
735.200	-19.308	0.099
735.300	-18.971	0.099
735.400	-16.167	0.099
735.500	-9.910	0.099
735.600	-34.210	0.099
735.700	-23.313	0.099
735.800	-28.289	0.099
735.900	-27.984	0.099
736.000	-22.142	0.099
736.100	-27.600	0.099
736.200	-33.680	0.099
736.300	-21.623	0.099
736.400	-14.937	0.099
736.500	-33.013	0.099
736.600	-24.787	0.099
736.700	-33.333	0.099
736.800	-15.775	0.099
736.900	-28.201	0.099
737.000	-22.764	0.099
737.100	-19.133	0.099
737.200	-29.309	0.099
737.300	-23.613	0.099
737.400	-15.061	0.099
737.500	-19.703	0.100
737.600	-24.662	0.099
737.700	-35.453	0.099
737.800	-14.569	0.099
737.900	-19.991	0.099
738.000	-18.763	0.099
738.100	-20.996	0.099
738.200	-20.714	0.099
738.300	-26.578	0.099
738.400	-19.430	0.099
738.500	-32.331	0.099
738.600	-21.983	0.099
738.700	-18.439	0.099
738.800	-7.702	0.099
738.900	-20.688	0.099
739.000	-28.545	0.099
739.100	-27.885	0.099
739.200	-18.486	0.099
739.300	-30.982	0.099
739.400	-24.541	0.099
739.500	-28.742	0.099
739.600	-25.012	0.099
739.700	-18.448	0.099
739.800	-17.475	0.099
739.900	-25.095	0.099
740.000	-26.632	0.099
740.100	-17.569	0.099
740.200	-24.166	0.099
740.300	-26.146	0.099
740.400	-17.318	0.099
740.500	-10.492	0.099
740.600	-19.860	0.099
740.700	-25.609	0.099
740.800	-16.521	0.099
740.900	-30.930	0.099
741.000	-21.363	0.099
741.100	-16.562	0.099
741.200	-11.557	0.099
741.300	-19.901	0.099
741.400	-18.690	0.099
741.500	-28.691	0.099
741.600	-20.789	0.099
741.700	-14.337	0.099
741.800	-19.317	0.099
741.900	-15.639	0.099
742.000	-26.245	0.099
742.100	-24.638	0.099
742.200	-18.910	0.099
742.300	-14.806	0.099
742.400	-25.932	0.099
742.500	-16.888	0.099
742.600	-28.664	0.099
742.700	-23.242	0.099
742.800	-29.509	0.099
742.900	-24.939	0.099
743.000	-21.647	0.099
743.100	-35.446	0.099
743.200	-22.370	0.099
743.300	-15.159	0.099
743.400	-21.439	0.099
743.500	-28.685	0.099
743.600	-20.316	0.099
743.700	-22.475	0.099
743.800	-7.286	0.099
743.900	-18.334	0.099
744.000	-31.878	0.099
744.100	-14.853	0.099
744.200	-24.688	0.099
744.300	-19.469	0.099
744.400	-16.071	0.099
744.500	-23.484	0.099
744.600	-15.469	0.099
744.700	-15.723	0.099
744.800	-26.407	0.099
744.900	-25.764	0.099
745.000	-22.541	0.099
745.100	-25.048	0.099
745.200	-16.804	0.099
745.300	-21.274	0.099
745.400	-21.975	0.099
745.500	-24.330	0.099
745.600	-8.232	0.099
745.700	-10.506	0.099
745.800	-13.788	0.099
745.900	-18.995	0.099
746.000	-21.197	0.099
746.100	-14.848	0.099
746.200	-26.585	0.099
746.300	-24.860	0.099
746.400	-17.690	0.099
746.500	-21.841	0.099
746.600	-23.251	0.099
746.700	-28.852	0.099
746.800	-22.205	0.099
746.900	-21.637	0.099
747.000	-22.775	0.099
747.100	-22.706	0.099
747.200	-18.162	0.099
747.300	-24.162	0.099
747.400	-21.161	0.099
747.500	-23.378	0.099
747.600	-24.228	0.099
747.700	-20.394	0.099
747.800	-12.567	0.099
747.900	-25.940	0.099
748.000	-24.640	0.099
748.100	-25.263	0.099
748.200	-24.844	0.099
748.300	-21.476	0.099
748.400	-24.362	0.099
748.500	-13.608	0.099
748.600	-3.034	0.099
748.700	-9.440	0.099
748.800	-22.294	0.099
748.900	-23.410	0.099
749.000	-26.271	0.099
749.100	-17.567	0.099
749.200	-13.393	0.099
749.300	-13.664	0.099
749.400	-14.693	0.099
749.500	-17.776	0.099
749.600	-30.063	0.099
749.700	-12.490	0.099
749.800	-18.379	0.099
749.900	-16.412	0.099
750.000	-22.253	0.099
750.100	-18.529	0.099
750.200	-11.653	0.099
750.300	-11.011	0.099
750.400	-9.070	0.099
750.500	-25.103	0.099
750.600	-16.373	0.099
750.700	-18.435	0.099
750.800	-21.194	0.099
750.900	-24.800	0.099
751.000	-25.587	0.099
751.100	-28.188	0.099
751.200	-29.803	0.099
751.300	-8.040	0.099
751.400	-12.787	0.099
751.500	-19.906	0.099
751.600	-21.494	0.099
751.700	-20.213	0.099
751.800	-18.883	0.099
751.900	-15.811	0.099
752.000	-22.022	0.099
752.100	-24.490	0.099
752.200	-24.548	0.099
752.300	-25.003	0.099
752.400	-17.629	0.099
752.500	-18.398	0.099
752.600	-10.393	0.099
752.700	-25.120	0.099
752.800	-20.890	0.099
752.900	-32.517	0.099
753.000	-8.148	0.099
753.100	-16.135	0.099
753.200	-19.346	0.099
753.300	-25.320	0.099
753.400	-24.532	0.099
753.500	-21.397	0.099
753.600	-16.363	0.099
753.700	-17.166	0.099
753.800	-26.876	0.099
753.900	-21.126	0.099
754.000	-27.499	0.099
754.100	-7.771	0.099
754.200	-20.148	0.099
754.300	-16.859	0.099
754.400	-24.638	0.099
754.500	-25.489	0.099
754.600	-20.847	0.099
754.700	-21.321	0.099
754.800	-17.696	0.099
754.900	-28.300	0.099
755.000	-16.017	0.099
755.100	-19.074	0.099
755.200	-12.629	0.099
755.300	-7.375	0.099
755.400	-18.965	0.099
755.500	-15.734	0.099
755.600	-25.983	0.099
755.700	-20.120	0.099
755.800	-23.134	0.099
755.900	-23.297	0.099
756.000	-26.781	0.099
756.100	-11.343	0.099
756.200	-11.501	0.099
756.300	-24.019	0.099
756.400	-32.178	0.099
756.500	-12.389	0.099
756.600	-18.152	0.099
756.700	-9.636	0.099
756.800	-18.209	0.099
756.900	-24.254	0.099
757.000	-22.099	0.099
757.100	-17.010	0.099
757.200	-18.354	0.099
757.300	-17.692	0.099
757.400	-18.429	0.099
757.500	-24.625	0.099
757.600	-12.739	0.099
757.700	-28.538	0.099
757.800	-11.901	0.099
757.900	-14.765	0.099
758.000	-20.606	0.099
758.100	-22.068	0.099
758.200	-23.312	0.099
758.300	-27.969	0.099
758.400	-18.401	0.099
758.500	-24.923	0.099
758.600	-9.838	0.099
758.700	-28.542	0.099
758.800	-13.906	0.099
758.900	-15.637	0.099
759.000	-13.542	0.099
759.100	-9.335	0.099
759.200	-12.846	0.099
759.300	-13.434	0.099
759.400	-19.450	0.099
759.500	-9.976	0.099
759.600	-26.680	0.099
759.700	-31.682	0.099
759.800	-22.915	0.099
759.900	-14.211	0.099
760.000	-22.527	0.099
760.100	-12.598	0.099
760.200	-13.463	0.099
760.300	-16.930	0.099
760.400	-6.578	0.099
760.500	-10.695	0.099
760.600	-20.631	0.099
760.700	-27.734	0.099
760.800	-18.692	0.099
760.900	-27.191	0.099
761.000	-6.848	0.099
761.100	-20.226	0.099
761.200	-18.834	0.099
761.300	-22.030	0.099
761.400	-25.401	0.099
761.500	-29.584	0.099
761.600	-16.840	0.099
761.700	-8.132	0.099
761.800	-24.207	0.099
761.900	-19.026	0.099
762.000	-19.189	0.099
762.100	-12.887	0.099
762.200	-16.219	0.099
762.300	-18.476	0.099
762.400	-21.070	0.099
762.500	-23.223	0.099
762.600	-25.439	0.099
762.700	-34.243	0.099
762.800	-6.957	0.099
762.900	-12.461	0.099
763.000	-18.608	0.099
763.100	-11.193	0.099
763.200	-14.045	0.099
763.300	-18.646	0.099
763.400	-21.554	0.099
763.500	-13.471	0.099
763.600	-11.165	0.099
763.700	-9.747	0.099
763.800	-33.984	0.099
763.900	-11.423	0.099
764.000	-9.994	0.099
764.100	-29.595	0.099
764.200	-22.142	0.099
764.300	-19.039	0.099
764.400	-13.696	0.099
764.500	-7.741	0.099
764.600	-34.062	0.099
764.700	-20.200	0.099
764.800	-4.856	0.099
764.900	-10.807	0.099
765.000	-3.374	0.099
765.100	-9.112	0.099
765.200	-14.097	0.099
765.300	-20.411	0.099
765.400	-13.979	0.099
765.500	-26.605	0.099
765.600	-11.125	0.099
765.700	-23.615	0.099
765.800	-13.412	0.099
765.900	-16.168	0.099
766.000	-18.084	0.099
766.100	-11.300	0.099
766.200	-20.954	0.099
766.300	-22.474	0.099
766.400	-21.557	0.099
766.500	-21.060	0.099
766.600	-13.077	0.099
766.700	-15.047	0.099
766.800	-16.465	0.099
766.900	-25.012	0.099
767.000	-34.820	0.099
767.100	-16.981	0.099
767.200	-22.360	0.099
767.300	-9.084	0.099
767.400	-12.041	0.099
767.500	-14.292	0.099
767.600	-16.775	0.099
767.700	-1.963	0.099
767.800	-18.349	0.099
767.900	-31.005	0.099
768.000	-18.347	0.099
768.100	-19.383	0.099
768.200	-11.775	0.099
768.300	-15.620	0.099
768.400	-24.246	0.099
768.500	-14.455	0.099
768.600	-19.609	0.099
768.700	-8.589	0.099
768.800	-19.958	0.099
768.900	-25.014	0.099
769.000	-23.091	0.099
769.100	-22.952	0.099
769.200	-15.431	0.099
769.300	-24.508	0.099
769.400	-14.204	0.099
769.500	-20.591	0.099
769.600	-7.614	0.099
769.700	-19.251	0.099
769.800	-18.230	0.099
769.900	-19.661	0.100
770.000	-4.108	0.099
770.100	-7.732	0.099
770.200	-16.387	0.099
770.300	-21.812	0.099
770.400	-12.691	0.099
770.500	-26.455	0.099
770.600	-30.003	0.099
770.700	-28.898	0.099
770.800	-24.413	0.099
770.900	1.611	0.099
771.000	-12.515	0.099
771.100	-10.442	0.099
771.200	-10.316	0.099
771.300	-18.707	0.099
771.400	-18.071	0.099
771.500	-14.105	0.099
771.600	-13.389	0.099
771.700	-33.002	0.099
771.800	-13.078	0.099
771.900	-19.895	0.099
772.000	-21.475	0.099
772.100	-12.999	0.099
772.200	-16.288	0.099
772.300	-7.268	0.100
772.400	-21.267	0.099
772.500	-24.022	0.099
772.600	-22.527	0.099
772.700	-18.715	0.099
772.800	-12.015	0.099
772.900	-17.683	0.099
773.000	-26.731	0.099
773.100	-19.738	0.099
773.200	-20.719	0.099
773.300	-19.214	0.099
773.400	-3.909	0.099
773.500	-19.837	0.099
773.600	-27.827	0.099
773.700	-14.725	0.099
773.800	-21.673	0.099
773.900	-12.492	0.099
774.000	-10.919	0.099
774.100	-14.090	0.099
774.200	-13.861	0.099
774.300	-27.052	0.099
774.400	-12.588	0.099
774.500	-20.643	0.100
774.600	-25.955	0.099
774.700	-15.493	0.099
774.800	-16.919	0.099
774.900	-11.016	0.099
775.000	-13.750	0.099
775.100	-24.392	0.099
775.200	-20.643	0.099
775.300	-14.776	0.099
775.400	-14.925	0.099
775.500	-17.505	0.099
775.600	-12.452	0.099
775.700	-10.600	0.099
775.800	-23.096	0.099
775.900	-30.626	0.099
776.000	-14.483	0.099
776.100	-20.026	0.099
776.200	-15.516	0.099
776.300	-19.867	0.099
776.400	-14.987	0.099
776.500	-19.593	0.099
776.600	-21.166	0.099
776.700	-13.076	0.099
776.800	-9.964	0.099
776.900	-8.459	0.099
777.000	-23.902	0.099
777.100	-21.009	0.099
777.200	-9.026	0.099
777.300	-28.063	0.099
777.400	-11.377	0.099
777.500	-11.808	0.099
777.600	-18.143	0.099
777.700	-24.467	0.099
777.800	-10.745	0.099
777.900	-10.636	0.099
778.000	-15.327	0.099
778.100	-23.328	0.099
778.200	-16.540	0.099
778.300	-22.276	0.099
778.400	-20.097	0.099
778.500	-24.377	0.099
778.600	-16.886	0.099
778.700	-14.528	0.099
778.800	-18.889	0.099
778.900	-8.081	0.099
779.000	-11.220	0.099
779.100	-8.419	0.099
779.200	-18.353	0.099
779.300	-11.931	0.099
779.400	-18.328	0.099
779.500	-12.092	0.099
779.600	-22.985	0.099
779.700	-25.522	0.099
779.800	-18.855	0.100
779.900	-17.883	0.099
780.000	-21.761	0.099
780.100	-12.466	0.099
780.200	-7.584	0.099
780.300	-12.466	0.099
780.400	-5.617	0.099
780.500	-7.638	0.099
780.600	-0.465	0.099
780.700	-0.799	0.099
780.800	0.601	0.099
780.900	-5.685	0.099
781.000	-0.625	0.099
781.100	10.875	0.099
781.200	-3.692	0.099
781.300	4.264	0.099
781.400	14.184	0.099
781.500	-0.910	0.099
781.600	13.909	0.099
781.700	17.280	0.099
781.800	3.678	0.099
781.900	17.906	0.099
782.000	12.686	0.099
782.100	0.327	0.099
782.200	13.223	0.099
782.300	19.096	0.099
782.400	11.965	0.099
782.500	14.977	0.099
782.600	13.700	0.099
782.700	11.238	0.099
782.800	19.872	0.099
782.900	14.308	0.099
783.000	10.351	0.099
783.100	10.589	0.099
783.200	7.617	0.099
783.300	23.257	0.099
783.400	20.641	0.099
783.500	9.203	0.099
783.600	11.396	0.099
783.700	3.362	0.099
783.800	20.576	0.099
783.900	18.713	0.099
784.000	2.634	0.099
784.100	8.901	0.099
784.200	24.521	0.099
784.300	3.109	0.099
784.400	15.909	0.099
784.500	7.488	0.099
784.600	9.177	0.099
784.700	14.386	0.099
784.800	-6.557	0.099
784.900	23.453	0.099
785.000	21.405	0.099
785.100	8.692	0.099
785.200	20.416	0.099
785.300	29.781	0.099
785.400	18.899	0.099
785.500	19.914	0.099
785.600	10.797	0.099
785.700	11.899	0.099
785.800	9.200	0.099
785.900	19.152	0.099
786.000	13.426	0.099
786.100	5.216	0.099
786.200	10.042	0.099
786.300	14.658	0.099
786.400	21.462	0.099
786.500	16.222	0.099
786.600	18.372	0.099
786.700	22.862	0.099
786.800	24.182	0.099
786.900	23.477	0.099
787.000	4.898	0.099
787.100	16.004	0.099
787.200	5.963	0.099
787.300	34.460	0.099
787.400	22.992	0.099
787.500	14.395	0.099
787.600	17.258	0.099
787.700	11.818	0.099
787.800	13.222	0.099
787.900	19.106	0.099
788.000	19.594	0.099
788.100	14.664	0.099
788.200	25.259	0.099
788.300	18.812	0.099
788.400	14.639	0.100
788.500	33.041	0.099
788.600	22.877	0.099
788.700	32.534	0.099
788.800	17.675	0.099
788.900	15.449	0.099
789.000	35.663	0.099
789.100	24.570	0.099
789.200	26.993	0.099
789.300	24.484	0.099
789.400	26.179	0.099
789.500	21.770	0.099
789.600	16.737	0.099
789.700	33.376	0.099
789.800	20.429	0.099
789.900	27.848	0.099
790.000	22.202	0.099
790.100	30.623	0.099
790.200	31.391	0.099
790.300	44.030	0.099
790.400	39.421	0.099
790.500	32.533	0.099
790.600	39.912	0.100
790.700	37.013	0.099
790.800	30.375	0.099
790.900	34.939	0.099
791.000	34.932	0.099
791.100	35.682	0.099
791.200	26.377	0.099
791.300	34.274	0.099
791.400	31.669	0.099
791.500	36.721	0.099
791.600	30.489	0.099
791.700	43.666	0.099
791.800	39.940	0.099
791.900	37.636	0.099
792.000	33.250	0.099
792.100	40.766	0.099
792.200	33.325	0.099
792.300	35.516	0.099
792.400	27.578	0.099
792.500	34.384	0.099
792.600	34.353	0.099
792.700	48.924	0.099
792.800	40.863	0.099
792.900	31.449	0.099
793.000	45.854	0.099
793.100	33.062	0.099
793.200	45.477	0.099
793.300	51.925	0.099
793.400	42.655	0.099
793.500	45.100	0.099
793.600	46.890	0.099
793.700	45.557	0.099
793.800	41.790	0.099
793.900	45.072	0.099
794.000	42.084	0.099
794.100	55.401	0.099
794.200	42.861	0.099
794.300	42.729	0.099
794.400	43.406	0.099
794.500	42.092	0.099
794.600	37.213	0.099
794.700	44.124	0.099
794.800	40.950	0.099
794.900	43.630	0.099
795.000	44.828	0.099
795.100	42.191	0.099
795.200	40.467	0.099
795.300	38.980	0.099
795.400	39.030	0.099
795.500	39.169	0.099
795.600	40.194	0.099
795.700	49.832	0.099
795.800	52.741	0.099
795.900	47.305	0.099
796.000	43.920	0.099
796.100	35.597	0.099
796.200	42.023	0.099
796.300	34.876	0.099
796.400	41.292	0.099
796.500	40.333	0.099
796.600	44.089	0.099
796.700	39.925	0.099
796.800	51.410	0.099
796.900	41.967	0.099
797.000	49.793	0.099
797.100	36.788	0.099
797.200	49.718	0.099
797.300	39.092	0.099
797.400	40.545	0.099
797.500	35.869	0.099
797.600	44.823	0.099
797.700	45.493	0.099
797.800	45.665	0.099
797.900	50.021	0.099
798.000	27.563	0.099
798.100	45.660	0.099
798.200	42.765	0.099
798.300	39.577	0.099
798.400	47.351	0.099
798.500	46.823	0.100
798.600	39.645	0.099
798.700	43.097	0.099
798.800	46.648	0.099
798.900	46.165	0.099
799.000	35.727	0.099
799.100	33.671	0.099
799.200	48.913	0.100
799.300	46.084	0.099
799.400	47.450	0.099
799.500	45.407	0.099
799.600	42.452	0.099
799.700	32.762	0.099
799.800	50.575	0.099
799.900	40.433	0.099
800.000	46.606	0.099
