time /s	I /nA	E /V
0.100	-8.500	0.100
0.200	-7.074	0.099
0.300	2.179	0.100
0.400	9.313	0.099
0.500	-19.638	0.099
0.600	25.382	0.099
0.700	-20.640	0.099
0.800	7.760	0.099
0.900	31.466	0.100
1.000	17.245	0.099
1.100	27.943	0.099
1.200	18.404	0.100
1.300	-33.405	0.099
1.400	-11.781	0.100
1.500	-6.670	0.099
1.600	-3.582	0.100
1.700	-1.358	0.099
1.800	6.521	0.099
1.900	11.467	0.100
2.000	-7.949	0.100
2.100	-4.703	0.099
2.200	-42.017	0.099
2.300	-16.427	0.099
2.400	26.785	0.099
2.500	-2.336	0.099
2.600	-56.652	0.099
2.700	6.040	0.100
2.800	25.608	0.099
2.900	-29.601	0.100
3.000	18.459	0.100
3.100	-29.349	0.099
3.200	-20.790	0.099
3.300	-20.134	0.100
3.400	8.467	0.099
3.500	1.325	0.099
3.600	-7.307	0.100
3.700	-3.330	0.099
3.800	-23.698	0.099
3.900	-34.205	0.099
4.000	34.732	0.100
4.100	-45.182	0.099
4.200	2.426	0.100
4.300	-16.811	0.099
4.400	-12.857	0.099
4.500	3.811	0.099
4.600	24.121	0.099
4.700	-25.515	0.100
4.800	3.482	0.100
4.900	0.243	0.099
5.000	-11.958	0.099
5.100	-10.969	0.100
5.200	2.647	0.100
5.300	-7.437	0.099
5.400	-4.487	0.099
5.500	17.824	0.100
5.600	-8.926	0.100
5.700	-4.199	0.100
5.800	-26.243	0.100
5.900	-7.678	0.099
6.000	3.212	0.099
6.100	-5.287	0.100
6.200	-8.409	0.100
6.300	4.379	0.099
6.400	-21.728	0.100
6.500	16.911	0.099
6.600	14.570	0.100
6.700	-24.659	0.100
6.800	0.922	0.099
6.900	7.515	0.100
7.000	17.861	0.099
7.100	-17.651	0.100
7.200	-3.542	0.099
7.300	3.166	0.100
7.400	-8.687	0.099
7.500	7.702	0.099
7.600	16.291	0.099
7.700	-10.134	0.099
7.800	-6.767	0.099
7.900	12.923	0.099
8.000	-12.800	0.099
8.100	20.282	0.099
8.200	5.656	0.100
8.300	-27.809	0.099
8.400	-6.554	0.100
8.500	-6.617	0.100
8.600	-3.425	0.099
8.700	-18.745	0.099
8.800	-0.427	0.099
8.900	-2.805	0.100
9.000	-5.066	0.099
9.100	8.926	0.099
9.200	24.594	0.099
9.300	-17.013	0.100
9.400	-15.445	0.100
9.500	-15.665	0.099
9.600	6.658	0.099
9.700	-1.430	0.099
9.800	-14.955	0.099
9.900	7.560	0.099
10.000	-17.675	0.100
10.100	-4.740	0.100
10.200	-2.646	0.099
10.300	-5.067	0.099
10.400	-2.649	0.100
10.500	-5.682	0.100
10.600	-27.820	0.099
10.700	-19.088	0.099
10.800	6.676	0.100
10.900	-13.523	0.100
11.000	0.807	0.099
11.100	-9.180	0.099
11.200	-3.623	0.099
11.300	-2.503	0.099
11.400	-7.174	0.099
11.500	-12.967	0.099
11.600	26.262	0.099
11.700	-33.144	0.099
11.800	23.973	0.099
11.900	-20.119	0.099
12.000	10.934	0.099
12.100	-3.166	0.099
12.200	-31.007	0.100
12.300	19.813	0.100
12.400	-10.650	0.100
12.500	-3.564	0.099
12.600	34.101	0.100
12.700	-12.385	0.099
12.800	-12.236	0.099
12.900	5.137	0.099
13.000	-3.405	0.099
13.100	1.551	0.100
13.200	-19.211	0.100
13.300	7.834	0.099
13.400	-4.477	0.100
13.500	4.121	0.099
13.600	-16.770	0.099
13.700	6.181	0.100
13.800	1.808	0.100
13.900	-22.369	0.099
14.000	3.451	0.099
14.100	2.640	0.100
14.200	-28.412	0.099
14.300	3.328	0.099
14.400	5.572	0.099
14.500	5.739	0.099
14.600	-11.169	0.099
14.700	-1.111	0.099
14.800	-2.680	0.099
14.900	-3.900	0.099
15.000	2.907	0.099
15.100	-17.020	0.099
15.200	2.692	0.100
15.300	-12.538	0.099
15.400	21.016	0.099
15.500	-14.421	0.099
15.600	-10.843	0.099
15.700	-6.332	0.099
15.800	7.269	0.100
15.900	-14.698	0.099
16.000	-8.045	0.099
16.100	-1.646	0.099
16.200	-8.326	0.099
16.300	-21.594	0.099
16.400	-19.030	0.099
16.500	-1.559	0.100
16.600	-8.217	0.099
16.700	-0.659	0.099
16.800	-0.716	0.099
16.900	1.691	0.100
17.000	1.340	0.100
17.100	-10.981	0.100
17.200	0.976	0.100
17.300	-7.905	0.100
17.400	-8.593	0.100
17.500	16.828	0.100
17.600	-22.341	0.100
17.700	-14.090	0.099
17.800	-11.503	0.100
17.900	1.560	0.100
18.000	1.736	0.099
18.100	-29.508	0.100
18.200	18.379	0.100
18.300	-4.167	0.099
18.400	-23.031	0.099
18.500	-5.591	0.099
18.600	-5.092	0.100
18.700	-5.727	0.099
18.800	-4.147	0.100
18.900	-5.228	0.100
19.000	-12.443	0.100
19.100	10.260	0.100
19.200	-21.171	0.099
19.300	6.543	0.100
19.400	-2.840	0.099
19.500	-0.487	0.099
19.600	-5.161	0.099
19.700	-14.339	0.099
19.800	0.192	0.099
19.900	-15.566	0.099
20.000	-32.856	0.099
20.100	-3.819	0.100
20.200	-19.047	0.099
20.300	6.828	0.099
20.400	1.614	0.100
20.500	-33.860	0.100
20.600	5.586	0.099
20.700	2.346	0.100
20.800	-9.270	0.099
20.900	-9.875	0.100
21.000	14.741	0.099
21.100	-9.782	0.099
21.200	0.210	0.099
21.300	-1.923	0.100
21.400	7.510	0.099
21.500	-9.344	0.099
21.600	-6.907	0.099
21.700	-6.124	0.099
21.800	-2.503	0.100
21.900	-6.565	0.099
22.000	-1.693	0.100
22.100	-0.371	0.100
22.200	-11.496	0.099
22.300	6.500	0.099
22.400	-11.471	0.100
22.500	6.247	0.099
22.600	-0.139	0.100
22.700	-11.669	0.100
22.800	19.654	0.100
22.900	-15.743	0.100
23.000	5.952	0.099
23.100	13.114	0.100
23.200	-9.195	0.100
23.300	3.051	0.100
23.400	-17.453	0.100
23.500	-14.322	0.100
23.600	-7.222	0.099
23.700	-4.488	0.099
23.800	6.952	0.099
23.900	-6.932	0.100
24.000	7.743	0.099
24.100	5.543	0.099
24.200	-7.370	0.099
24.300	-5.131	0.099
24.400	3.986	0.099
24.500	7.179	0.100
24.600	-20.744	0.100
24.700	-12.452	0.099
24.800	-9.520	0.100
24.900	-8.801	0.099
25.000	1.802	0.100
25.100	-7.602	0.099
25.200	-13.091	0.100
25.300	-13.258	0.100
25.400	3.205	0.100
25.500	-14.197	0.099
25.600	1.245	0.099
25.700	4.800	0.100
25.800	-23.606	0.100
25.900	-6.634	0.099
26.000	-0.623	0.100
26.100	15.998	0.099
26.200	-30.925	0.100
26.300	-12.665	0.100
26.400	7.631	0.099
26.500	-12.192	0.099
26.600	-8.999	0.100
26.700	10.904	0.100
26.800	2.731	0.099
26.900	-5.545	0.100
27.000	-12.677	0.099
27.100	1.942	0.100
27.200	7.345	0.100
27.300	-4.990	0.099
27.400	2.883	0.099
27.500	-15.892	0.100
27.600	-20.979	0.100
27.700	-5.034	0.099
27.800	-2.141	0.100
27.900	-2.621	0.099
28.000	-19.812	0.099
28.100	2.581	0.099
28.200	6.024	0.099
28.300	-3.347	0.100
28.400	6.655	0.100
28.500	-2.385	0.100
28.600	-22.072	0.100
28.700	8.381	0.100
28.800	0.180	0.100
28.900	2.687	0.099
29.000	2.692	0.100
29.100	-11.885	0.099
29.200	6.807	0.100
29.300	-13.207	0.100
29.400	-42.250	0.100
29.500	-0.677	0.099
29.600	11.252	0.100
29.700	-3.474	0.099
29.800	-26.286	0.100
29.900	-4.641	0.099
30.000	-14.251	0.100
30.100	7.202	0.100
30.200	18.542	0.100
30.300	10.334	0.100
30.400	-17.906	0.099
30.500	30.661	0.100
30.600	-11.996	0.099
30.700	10.745	0.100
30.800	-22.528	0.099
30.900	18.391	0.100
31.000	-4.069	0.099
31.100	-12.763	0.099
31.200	17.299	0.100
31.300	-11.593	0.100
31.400	5.356	0.100
31.500	1.644	0.100
31.600	14.359	0.100
31.700	-19.519	0.099
31.800	-8.066	0.099
31.900	1.449	0.100
32.000	23.584	0.100
32.100	6.941	0.099
32.200	3.876	0.099
32.300	0.248	0.099
32.400	19.807	0.099
32.500	5.196	0.099
32.600	5.725	0.099
32.700	12.288	0.100
32.800	21.288	0.100
32.900	19.404	0.099
33.000	17.166	0.100
33.100	-1.440	0.100
33.200	9.039	0.100
33.300	14.016	0.099
33.400	-5.825	0.100
33.500	21.935	0.100
33.600	33.301	0.100
33.700	29.509	0.100
33.800	13.775	0.100
33.900	17.810	0.100
34.000	34.381	0.100
34.100	24.706	0.100
34.200	6.325	0.100
34.300	18.548	0.100
34.400	39.762	0.099
34.500	20.650	0.100
34.600	14.040	0.100
34.700	31.668	0.100
34.800	10.566	0.100
34.900	33.949	0.100
35.000	29.081	0.100
35.100	34.262	0.100
35.200	11.799	0.100
35.300	47.979	0.099
35.400	31.721	0.100
35.500	32.905	0.100
35.600	7.939	0.100
35.700	37.772	0.100
35.800	43.343	0.100
35.900	41.368	0.100
36.000	24.495	0.100
36.100	50.432	0.100
36.200	31.985	0.100
36.300	15.652	0.099
36.400	29.927	0.100
36.500	17.910	0.099
36.600	39.559	0.100
36.700	30.124	0.100
36.800	35.450	0.100
36.900	53.230	0.100
37.000	16.868	0.100
37.100	13.082	0.100
37.200	49.418	0.100
37.300	13.994	0.100
37.400	21.113	0.100
37.500	26.117	0.100
37.600	37.114	0.100
37.700	33.470	0.100
37.800	15.807	0.100
37.900	25.887	0.100
38.000	40.243	0.100
38.100	38.381	0.100
38.200	15.268	0.099
38.300	54.265	0.100
38.400	4.892	0.100
38.500	37.794	0.100
38.600	38.552	0.100
38.700	17.637	0.100
38.800	41.642	0.100
38.900	34.671	0.100
39.000	22.978	0.099
39.100	26.503	0.100
39.200	27.157	0.100
39.300	32.122	0.099
39.400	31.133	0.100
39.500	-6.689	0.100
39.600	10.990	0.100
39.700	41.426	0.100
39.800	8.817	0.099
39.900	18.625	0.100
40.000	38.164	0.100
40.100	18.201	0.100
40.200	25.022	0.099
40.300	45.097	0.100
40.400	21.216	0.100
40.500	18.388	0.100
40.600	40.896	0.099
40.700	25.884	0.099
40.800	15.531	0.100
40.900	25.129	0.100
41.000	9.143	0.100
41.100	28.785	0.100
41.200	34.516	0.100
41.300	9.221	0.099
41.400	34.611	0.099
41.500	25.593	0.099
41.600	13.423	0.100
41.700	22.299	0.100
41.800	20.475	0.099
41.900	-6.066	0.099
42.000	22.494	0.099
42.100	33.203	0.100
42.200	17.699	0.099
42.300	31.201	0.099
42.400	15.233	0.100
42.500	27.819	0.100
42.600	8.180	0.099
42.700	18.006	0.100
42.800	7.388	0.100
42.900	28.444	0.099
43.000	12.241	0.099
43.100	10.891	0.099
43.200	18.229	0.099
43.300	16.074	0.099
43.400	34.842	0.099
43.500	4.306	0.100
43.600	19.328	0.100
43.700	14.768	0.099
43.800	-2.757	0.100
43.900	32.376	0.100
44.000	15.885	0.100
44.100	24.501	0.100
44.200	14.045	0.100
44.300	2.131	0.100
44.400	32.687	0.099
44.500	8.996	0.100
44.600	19.601	0.100
44.700	28.193	0.100
44.800	22.212	0.100
44.900	30.140	0.100
45.000	-13.392	0.100
45.100	19.907	0.100
45.200	26.265	0.100
45.300	-21.424	0.100
45.400	31.934	0.100
45.500	37.824	0.100
45.600	8.043	0.100
45.700	32.913	0.100
45.800	-0.111	0.100
45.900	4.348	0.100
46.000	8.254	0.100
46.100	-5.299	0.100
46.200	34.792	0.100
46.300	25.724	0.099
46.400	16.148	0.099
46.500	11.726	0.099
46.600	-3.296	0.099
46.700	23.822	0.099
46.800	19.038	0.099
46.900	16.054	0.099
47.000	15.484	0.100
47.100	30.783	0.099
47.200	5.610	0.099
47.300	11.170	0.099
47.400	-4.445	0.099
47.500	14.667	0.099
47.600	34.241	0.100
47.700	29.168	0.099
47.800	8.899	0.099
47.900	3.759	0.100
48.000	1.091	0.100
48.100	34.675	0.099
48.200	-1.957	0.100
48.300	19.944	0.099
48.400	15.480	0.100
48.500	25.349	0.099
48.600	20.026	0.099
48.700	17.200	0.099
48.800	15.420	0.100
48.900	27.214	0.100
49.000	18.281	0.100
49.100	16.987	0.099
49.200	18.697	0.100
49.300	18.247	0.100
49.400	46.136	0.100
49.500	6.755	0.099
49.600	7.516	0.100
49.700	6.678	0.099
49.800	41.808	0.099
49.900	9.560	0.099
50.000	23.707	0.099
50.100	-5.820	0.100
50.200	34.249	0.100
50.300	32.278	0.100
50.400	15.888	0.099
50.500	7.417	0.100
50.600	16.420	0.100
50.700	33.270	0.100
50.800	23.020	0.099
50.900	13.332	0.100
51.000	24.800	0.100
51.100	14.317	0.100
51.200	20.802	0.100
51.300	22.426	0.100
51.400	12.484	0.099
51.500	18.557	0.100
51.600	37.106	0.100
51.700	5.267	0.100
51.800	24.926	0.100
51.900	20.400	0.100
52.000	19.319	0.100
52.100	12.276	0.100
52.200	6.929	0.099
52.300	31.246	0.099
52.400	36.574	0.100
52.500	18.030	0.099
52.600	24.429	0.099
52.700	21.476	0.099
52.800	0.851	0.099
52.900	16.261	0.100
53.000	39.610	0.099
53.100	32.720	0.099
53.200	31.725	0.099
53.300	7.882	0.100
53.400	24.089	0.099
53.500	20.202	0.099
53.600	20.497	0.099
53.700	16.855	0.099
53.800	12.690	0.099
53.900	19.314	0.100
54.000	17.360	0.099
54.100	2.788	0.099
54.200	23.526	0.100
54.300	32.124	0.099
54.400	29.282	0.100
54.500	30.811	0.099
54.600	11.940	0.099
54.700	18.677	0.099
54.800	26.488	0.100
54.900	26.541	0.099
55.000	20.064	0.099
55.100	13.122	0.100
55.200	25.501	0.100
55.300	23.020	0.100
55.400	37.020	0.099
55.500	23.552	0.100
55.600	29.822	0.100
55.700	6.075	0.099
55.800	18.203	0.099
55.900	45.179	0.099
56.000	42.130	0.100
56.100	12.607	0.100
56.200	30.668	0.099
56.300	17.788	0.099
56.400	23.706	0.100
56.500	31.475	0.100
56.600	3.396	0.100
56.700	10.476	0.099
56.800	31.371	0.100
56.900	18.060	0.100
57.000	34.218	0.099
57.100	29.121	0.100
57.200	16.092	0.100
57.300	42.668	0.100
57.400	7.012	0.099
57.500	20.278	0.100
57.600	7.137	0.100
57.700	2.619	0.100
57.800	5.243	0.100
57.900	39.046	0.099
58.000	18.502	0.099
58.100	18.461	0.100
58.200	16.210	0.099
58.300	40.931	0.100
58.400	14.596	0.099
58.500	14.433	0.100
58.600	41.316	0.100
58.700	16.410	0.099
58.800	34.612	0.099
58.900	1.127	0.099
59.000	28.150	0.099
59.100	15.014	0.099
59.200	37.770	0.100
59.300	21.673	0.099
59.400	20.176	0.099
59.500	31.961	0.100
59.600	17.167	0.100
59.700	18.028	0.099
59.800	27.869	0.099
59.900	13.747	0.099
60.000	17.222	0.099
60.100	25.208	0.099
60.200	19.606	0.099
60.300	12.673	0.099
60.400	20.170	0.100
60.500	24.932	0.100
60.600	23.579	0.099
60.700	11.815	0.100
60.800	34.850	0.100
60.900	27.373	0.099
61.000	2.766	0.100
61.100	24.425	0.099
61.200	25.890	0.100
61.300	17.460	0.099
61.400	36.780	0.099
61.500	30.735	0.099
61.600	23.605	0.099
61.700	28.814	0.100
61.800	39.798	0.100
61.900	13.963	0.099
62.000	18.013	0.100
62.100	14.990	0.100
62.200	31.605	0.100
62.300	30.705	0.100
62.400	22.107	0.100
62.500	41.310	0.099
62.600	2.600	0.100
62.700	32.249	0.100
62.800	17.695	0.100
62.900	38.730	0.099
63.000	3.202	0.099
63.100	46.226	0.100
63.200	28.804	0.100
63.300	18.210	0.100
63.400	41.860	0.099
63.500	21.492	0.099
63.600	31.352	0.099
63.700	35.842	0.100
63.800	38.530	0.099
63.900	0.653	0.100
64.000	22.220	0.100
64.100	35.396	0.100
64.200	14.207	0.099
64.300	33.225	0.100
64.400	19.481	0.099
64.500	33.214	0.099
64.600	26.336	0.100
64.700	22.366	0.100
64.800	25.013	0.100
64.900	27.070	0.100
65.000	17.594	0.099
65.100	7.447	0.099
65.200	8.477	0.099
65.300	31.144	0.100
65.400	15.914	0.099
65.500	16.443	0.100
65.600	32.362	0.100
65.700	15.170	0.100
65.800	18.144	0.100
65.900	25.693	0.100
66.000	17.394	0.100
66.100	21.009	0.099
66.200	47.347	0.100
66.300	32.729	0.100
66.400	35.021	0.099
66.500	20.717	0.100
66.600	38.953	0.099
66.700	9.506	0.100
66.800	40.978	0.100
66.900	28.903	0.099
67.000	37.794	0.100
67.100	32.495	0.100
67.200	0.284	0.099
67.300	37.010	0.100
67.400	7.954	0.100
67.500	23.702	0.099
67.600	32.435	0.099
67.700	41.711	0.100
67.800	15.184	0.099
67.900	26.991	0.099
68.000	27.835	0.100
68.100	33.150	0.100
68.200	32.950	0.099
68.300	37.174	0.100
68.400	24.224	0.099
68.500	26.068	0.099
68.600	33.925	0.100
68.700	26.873	0.100
68.800	20.277	0.099
68.900	22.437	0.099
69.000	30.274	0.099
69.100	23.140	0.100
69.200	33.478	0.100
69.300	23.182	0.099
69.400	24.578	0.099
69.500	24.181	0.099
69.600	25.565	0.100
69.700	26.845	0.100
69.800	33.103	0.100
69.900	5.722	0.099
70.000	43.248	0.100
70.100	25.150	0.100
70.200	21.075	0.099
70.300	21.738	0.099
70.400	18.750	0.100
70.500	35.913	0.100
70.600	30.839	0.099
70.700	25.406	0.100
70.800	-7.262	0.099
70.900	53.725	0.100
71.000	21.955	0.099
71.100	31.460	0.100
71.200	31.519	0.099
71.300	40.429	0.100
71.400	18.588	0.099
71.500	27.055	0.100
71.600	28.385	0.099
71.700	25.391	0.100
71.800	19.341	0.099
71.900	31.084	0.100
72.000	29.741	0.099
72.100	34.541	0.100
72.200	17.778	0.100
72.300	20.867	0.100
72.400	33.949	0.100
72.500	10.178	0.099
72.600	31.539	0.100
72.700	38.903	0.099
72.800	19.091	0.099
72.900	32.505	0.100
73.000	12.869	0.100
73.100	8.603	0.099
73.200	26.789	0.099
73.300	35.652	0.100
73.400	20.128	0.100
73.500	18.641	0.099
73.600	37.086	0.099
73.700	33.079	0.100
73.800	21.431	0.100
73.900	17.192	0.100
74.000	38.227	0.099
74.100	47.442	0.100
74.200	23.205	0.100
74.300	35.214	0.100
74.400	28.081	0.099
74.500	18.647	0.099
74.600	16.205	0.099
74.700	29.722	0.100
74.800	33.172	0.100
74.900	17.954	0.100
75.000	32.889	0.100
75.100	30.550	0.100
75.200	20.457	0.100
75.300	35.916	0.100
75.400	22.366	0.100
75.500	27.896	0.099
75.600	12.913	0.099
75.700	23.909	0.099
75.800	26.746	0.100
75.900	25.516	0.099
76.000	39.323	0.100
76.100	44.882	0.099
76.200	43.031	0.100
76.300	25.088	0.099
76.400	23.691	0.099
76.500	28.089	0.100
76.600	38.190	0.099
76.700	20.262	0.100
76.800	23.155	0.099
76.900	40.689	0.099
77.000	23.650	0.099
77.100	24.827	0.100
77.200	26.663	0.099
77.300	34.312	0.100
77.400	23.862	0.100
77.500	36.395	0.099
77.600	20.118	0.099
77.700	21.207	0.100
77.800	32.283	0.099
77.900	18.745	0.099
78.000	17.780	0.099
78.100	34.174	0.100
78.200	16.334	0.099
78.300	39.869	0.100
78.400	24.153	0.099
78.500	29.599	0.099
78.600	16.036	0.100
78.700	28.935	0.100
78.800	24.251	0.099
78.900	9.311	0.099
79.000	10.801	0.099
79.100	27.594	0.099
79.200	33.941	0.099
79.300	17.817	0.100
79.400	47.805	0.099
79.500	34.280	0.099
79.600	32.197	0.099
79.700	20.867	0.099
79.800	28.020	0.099
79.900	23.378	0.099
80.000	30.863	0.099
80.100	37.954	0.100
80.200	38.144	0.099
80.300	34.980	0.100
80.400	29.481	0.099
80.500	4.806	0.099
80.600	40.678	0.099
80.700	31.507	0.099
80.800	14.913	0.099
80.900	35.855	0.099
81.000	32.330	0.099
81.100	31.988	0.099
81.200	34.572	0.100
81.300	13.404	0.099
81.400	20.503	0.099
81.500	36.561	0.100
81.600	15.472	0.100
81.700	25.398	0.099
81.800	48.766	0.099
81.900	27.225	0.100
82.000	20.217	0.099
82.100	19.079	0.100
82.200	37.850	0.100
82.300	32.195	0.099
82.400	50.127	0.099
82.500	35.904	0.100
82.600	28.510	0.100
82.700	30.768	0.099
82.800	39.915	0.099
82.900	18.864	0.099
83.000	18.483	0.099
83.100	41.861	0.100
83.200	36.213	0.099
83.300	36.898	0.099
83.400	14.489	0.099
83.500	31.087	0.099
83.600	26.767	0.100
83.700	22.045	0.099
83.800	30.709	0.099
83.900	22.425	0.099
84.000	8.558	0.099
84.100	34.816	0.099
84.200	26.228	0.100
84.300	24.256	0.100
84.400	25.624	0.099
84.500	27.270	0.099
84.600	22.887	0.100
84.700	30.273	0.099
84.800	32.562	0.099
84.900	39.763	0.099
85.000	30.774	0.099
85.100	30.906	0.099
85.200	45.783	0.099
85.300	4.721	0.099
85.400	27.141	0.100
85.500	41.066	0.099
85.600	13.677	0.099
85.700	22.184	0.100
85.800	41.193	0.099
85.900	31.052	0.099
86.000	20.912	0.099
86.100	34.259	0.099
86.200	31.393	0.099
86.300	10.015	0.099
86.400	38.833	0.099
86.500	44.843	0.099
86.600	31.758	0.100
86.700	38.998	0.099
86.800	32.484	0.100
86.900	30.643	0.099
87.000	21.692	0.099
87.100	23.013	0.099
87.200	13.775	0.100
87.300	39.075	0.100
87.400	27.127	0.099
87.500	13.263	0.099
87.600	22.772	0.099
87.700	44.377	0.100
87.800	56.570	0.100
87.900	26.780	0.100
88.000	29.391	0.100
88.100	37.028	0.100
88.200	33.594	0.100
88.300	30.072	0.099
88.400	46.578	0.099
88.500	2.675	0.099
88.600	37.606	0.099
88.700	27.564	0.099
88.800	47.125	0.099
88.900	21.385	0.099
89.000	33.876	0.099
89.100	45.786	0.099
89.200	22.730	0.099
89.300	28.216	0.099
89.400	21.266	0.099
89.500	34.476	0.099
89.600	18.290	0.099
89.700	23.561	0.099
89.800	37.256	0.100
89.900	4.843	0.100
90.000	25.607	0.099
90.100	17.558	0.099
90.200	24.000	0.099
90.300	19.319	0.099
90.400	42.676	0.099
90.500	30.515	0.099
90.600	33.983	0.099
90.700	3.367	0.100
90.800	34.733	0.099
90.900	6.888	0.100
91.000	14.697	0.099
91.100	17.826	0.099
91.200	11.120	0.099
91.300	6.261	0.099
91.400	10.554	0.099
91.500	13.391	0.100
91.600	-5.283	0.099
91.700	-6.105	0.099
91.800	24.280	0.100
91.900	11.720	0.099
92.000	9.508	0.099
92.100	0.714	0.100
92.200	18.754	0.099
92.300	13.924	0.099
92.400	6.030	0.099
92.500	8.834	0.099
92.600	-1.876	0.099
92.700	14.452	0.099
92.800	0.710	0.099
92.900	7.630	0.100
93.000	6.396	0.099
93.100	0.185	0.099
93.200	5.945	0.100
93.300	5.073	0.099
93.400	-2.888	0.100
93.500	-12.146	0.099
93.600	-6.745	0.099
93.700	12.855	0.099
93.800	1.616	0.099
93.900	-5.891	0.099
94.000	-14.961	0.099
94.100	15.921	0.100
94.200	-17.429	0.099
94.300	-6.122	0.099
94.400	4.432	0.099
94.500	-2.214	0.100
94.600	-7.301	0.099
94.700	-16.543	0.099
94.800	-2.860	0.099
94.900	9.103	0.099
95.000	-20.912	0.099
95.100	-5.788	0.100
95.200	-8.055	0.099
95.300	-17.322	0.100
95.400	15.157	0.099
95.500	2.163	0.099
95.600	-5.224	0.099
95.700	-11.291	0.100
95.800	-17.432	0.099
95.900	7.899	0.099
96.000	-15.725	0.099
96.100	-12.995	0.099
96.200	-5.781	0.099
96.300	-3.346	0.099
96.400	8.961	0.100
96.500	-14.436	0.099
96.600	-20.006	0.099
96.700	9.416	0.099
96.800	-22.378	0.100
96.900	-21.758	0.099
97.000	-1.107	0.099
97.100	-8.356	0.099
97.200	-15.996	0.099
97.300	4.182	0.099
97.400	-21.139	0.099
97.500	-18.176	0.099
97.600	1.938	0.099
97.700	14.049	0.099
97.800	-24.288	0.099
97.900	-12.927	0.099
98.000	-22.653	0.099
98.100	-8.926	0.099
98.200	-13.921	0.099
98.300	-4.902	0.099
98.400	-14.900	0.099
98.500	-4.623	0.099
98.600	-27.930	0.099
98.700	9.937	0.099
98.800	-34.089	0.099
98.900	5.588	0.099
99.000	-10.036	0.099
99.100	-14.321	0.099
99.200	-2.784	0.099
99.300	-23.650	0.099
99.400	-6.433	0.099
99.500	-6.988	0.099
99.600	-5.617	0.099
99.700	-25.589	0.099
99.800	-7.588	0.099
99.900	-11.355	0.099
100.000	15.157	0.100
100.100	1.210	0.099
100.200	-7.940	0.099
100.300	-14.490	0.099
100.400	-9.050	0.099
100.500	-7.779	0.099
100.600	5.705	0.099
100.700	-21.097	0.099
100.800	-14.238	0.099
100.900	-7.469	0.099
101.000	-3.634	0.099
101.100	22.314	0.099
101.200	-14.673	0.099
101.300	-1.084	0.099
101.400	-16.521	0.099
101.500	-6.995	0.099
101.600	9.850	0.099
101.700	-5.107	0.099
101.800	-10.927	0.099
101.900	-19.191	0.099
102.000	-23.688	0.099
102.100	-7.381	0.099
102.200	-1.455	0.099
102.300	-7.351	0.099
102.400	-28.831	0.100
102.500	5.303	0.099
102.600	0.942	0.099
102.700	-2.625	0.099
102.800	-8.112	0.100
102.900	2.977	0.099
103.000	0.243	0.099
103.100	-25.212	0.099
103.200	-2.368	0.099
103.300	-11.128	0.099
103.400	-11.488	0.099
103.500	0.604	0.099
103.600	-5.976	0.099
103.700	-5.444	0.099
103.800	9.681	0.099
103.900	-4.602	0.099
104.000	-28.597	0.099
104.100	-24.657	0.099
104.200	4.806	0.099
104.300	-11.747	0.099
104.400	-6.134	0.099
104.500	17.418	0.099
104.600	-19.780	0.099
104.700	-11.699	0.099
104.800	-16.507	0.100
104.900	0.417	0.099
105.000	-10.876	0.099
105.100	-11.041	0.099
105.200	15.312	0.099
105.300	-10.238	0.099
105.400	4.374	0.099
105.500	-19.841	0.099
105.600	-13.439	0.099
105.700	-4.175	0.099
105.800	-11.998	0.099
105.900	-20.065	0.099
106.000	-14.132	0.099
106.100	-13.950	0.099
106.200	-1.987	0.099
106.300	-17.121	0.099
106.400	-3.184	0.099
106.500	10.599	0.099
106.600	20.209	0.099
106.700	-15.404	0.099
106.800	-20.834	0.099
106.900	-10.350	0.099
107.000	10.822	0.099
107.100	-23.349	0.099
107.200	-2.698	0.099
107.300	8.404	0.099
107.400	-18.518	0.099
107.500	-12.130	0.099
107.600	-3.491	0.099
107.700	-2.112	0.099
107.800	-7.769	0.100
107.900	-16.046	0.099
108.000	-4.534	0.099
108.100	-6.823	0.099
108.200	10.738	0.099
108.300	-5.101	0.099
108.400	-14.941	0.099
108.500	17.584	0.099
108.600	-20.926	0.099
108.700	-23.747	0.099
108.800	-16.266	0.099
108.900	-25.100	0.100
109.000	-22.763	0.099
109.100	-10.200	0.099
109.200	-15.215	0.099
109.300	-9.885	0.099
109.400	-1.929	0.099
109.500	-23.939	0.099
109.600	-4.812	0.099
109.700	4.717	0.100
109.800	-6.133	0.099
109.900	-14.763	0.099
110.000	18.696	0.099
110.100	-14.111	0.099
110.200	-21.137	0.099
110.300	-12.923	0.099
110.400	-12.841	0.099
110.500	-0.288	0.099
110.600	-16.522	0.099
110.700	-1.338	0.099
110.800	-29.689	0.099
110.900	-12.517	0.099
111.000	-9.878	0.099
111.100	-13.314	0.099
111.200	-18.317	0.099
111.300	-11.982	0.099
111.400	-13.985	0.099
111.500	-8.437	0.100
111.600	7.428	0.099
111.700	-1.185	0.099
111.800	4.731	0.100
111.900	-29.097	0.099
112.000	2.135	0.099
112.100	-1.001	0.099
112.200	-18.031	0.099
112.300	-10.147	0.099
112.400	12.461	0.099
112.500	-15.702	0.099
112.600	-10.826	0.099
112.700	-6.523	0.099
112.800	-12.607	0.099
112.900	-11.665	0.099
113.000	-12.710	0.099
113.100	-14.778	0.099
113.200	-9.062	0.099
113.300	-32.644	0.099
113.400	-24.152	0.099
113.500	-6.372	0.099
113.600	-15.424	0.099
113.700	-12.823	0.099
113.800	-3.233	0.099
113.900	6.025	0.099
114.000	-12.676	0.099
114.100	-10.344	0.099
114.200	-12.246	0.099
114.300	-28.520	0.099
114.400	1.602	0.099
114.500	-4.827	0.099
114.600	2.305	0.099
114.700	-10.550	0.099
114.800	-6.602	0.100
114.900	-13.591	0.099
115.000	-7.184	0.099
115.100	-12.432	0.100
115.200	-31.280	0.099
115.300	10.845	0.099
115.400	-17.578	0.099
115.500	10.797	0.099
115.600	-9.245	0.099
115.700	-19.701	0.099
115.800	-10.033	0.099
115.900	-3.662	0.099
116.000	-12.625	0.099
116.100	-0.620	0.099
116.200	-17.357	0.099
116.300	-11.593	0.099
116.400	-22.312	0.099
116.500	-22.091	0.099
116.600	-9.529	0.099
116.700	-22.703	0.099
116.800	-19.281	0.099
116.900	5.298	0.099
117.000	-14.334	0.099
117.100	-3.927	0.099
117.200	-13.832	0.100
117.300	-14.536	0.099
117.400	0.474	0.100
117.500	-15.553	0.099
117.600	11.000	0.099
117.700	-0.709	0.099
117.800	-5.696	0.099
117.900	-11.865	0.099
118.000	-45.732	0.099
118.100	29.638	0.099
118.200	-14.005	0.099
118.300	-0.592	0.099
118.400	-20.617	0.099
118.500	-13.535	0.099
118.600	-0.183	0.099
118.700	6.619	0.099
118.800	-8.976	0.099
118.900	-5.999	0.099
119.000	-16.087	0.099
119.100	-27.676	0.099
119.200	-13.285	0.100
119.300	-13.053	0.099
119.400	-33.152	0.099
119.500	-8.672	0.099
119.600	-5.793	0.099
119.700	-18.835	0.099
119.800	-14.373	0.099
119.900	-8.440	0.099
120.000	-3.118	0.099
120.100	-13.480	0.099
120.200	-7.903	0.099
120.300	-0.335	0.099
120.400	-0.537	0.099
120.500	-10.125	0.099
120.600	-5.671	0.099
120.700	-29.954	0.099
120.800	-13.509	0.100
120.900	-38.196	0.099
121.000	8.812	0.099
121.100	-8.048	0.099
121.200	-33.385	0.100
121.300	-12.087	0.099
121.400	-5.336	0.100
121.500	-20.088	0.099
121.600	-5.688	0.099
121.700	-3.763	0.099
121.800	-14.100	0.099
121.900	-6.721	0.099
122.000	-2.339	0.099
122.100	-16.063	0.099
122.200	-20.662	0.099
122.300	-16.054	0.099
122.400	-13.164	0.099
122.500	-6.844	0.100
122.600	-20.444	0.099
122.700	-6.401	0.099
122.800	-4.432	0.099
122.900	-34.120	0.099
123.000	-2.483	0.099
123.100	-28.298	0.099
123.200	7.857	0.099
123.300	-11.308	0.100
123.400	5.830	0.099
123.500	-34.849	0.099
123.600	-9.828	0.099
123.700	-13.827	0.099
123.800	6.853	0.099
123.900	-17.635	0.100
124.000	-15.480	0.099
124.100	-9.664	0.099
124.200	-11.190	0.099
124.300	-15.836	0.099
124.400	-19.460	0.099
124.500	-15.078	0.099
124.600	-0.735	0.100
124.700	-7.695	0.099
124.800	-29.916	0.099
124.900	-10.453	0.099
125.000	-3.255	0.099
125.100	-27.651	0.100
125.200	18.318	0.099
125.300	-17.683	0.099
125.400	-27.871	0.099
125.500	-23.911	0.099
125.600	-26.044	0.099
125.700	-12.076	0.099
125.800	-3.353	0.099
125.900	0.192	0.100
126.000	-9.400	0.099
126.100	-23.202	0.099
126.200	-14.507	0.099
126.300	-15.248	0.099
126.400	-2.158	0.099
126.500	-2.692	0.099
126.600	-25.858	0.099
126.700	-20.080	0.099
126.800	-29.116	0.099
126.900	-35.028	0.099
127.000	0.955	0.099
127.100	-9.779	0.099
127.200	-22.706	0.099
127.300	-33.312	0.099
127.400	9.001	0.099
127.500	-15.293	0.099
127.600	-19.473	0.099
127.700	-10.257	0.099
127.800	-23.086	0.099
127.900	-0.383	0.099
128.000	-8.997	0.099
128.100	-13.092	0.099
128.200	-1.646	0.099
128.300	2.171	0.099
128.400	-21.994	0.099
128.500	-19.701	0.099
128.600	12.967	0.099
128.700	-22.175	0.099
128.800	-12.628	0.099
128.900	-13.790	0.099
129.000	-8.875	0.099
129.100	-23.123	0.099
129.200	-18.321	0.099
129.300	5.156	0.100
129.400	-25.444	0.099
129.500	-8.723	0.099
129.600	-9.363	0.099
129.700	-5.974	0.099
129.800	-4.895	0.100
129.900	-19.093	0.099
130.000	-8.245	0.099
130.100	-0.777	0.099
130.200	-5.892	0.099
130.300	-26.116	0.099
130.400	6.782	0.099
130.500	-38.921	0.099
130.600	-12.206	0.099
130.700	-13.862	0.099
130.800	-6.154	0.099
130.900	-7.018	0.100
131.000	-1.133	0.099
131.100	-23.751	0.099
131.200	-24.288	0.099
131.300	-17.691	0.099
131.400	-6.420	0.099
131.500	-23.006	0.099
131.600	-19.768	0.099
131.700	-9.535	0.099
131.800	-14.212	0.099
131.900	0.424	0.099
132.000	-25.751	0.099
132.100	-0.378	0.099
132.200	-6.349	0.100
132.300	-27.118	0.099
132.400	-14.056	0.099
132.500	-0.432	0.099
132.600	-11.297	0.099
132.700	-17.622	0.099
132.800	-19.558	0.099
132.900	-1.657	0.099
133.000	-13.691	0.099
133.100	-7.869	0.099
133.200	-10.488	0.099
133.300	-40.202	0.099
133.400	-25.945	0.099
133.500	-22.851	0.099
133.600	-2.992	0.099
133.700	7.632	0.099
133.800	-22.102	0.100
133.900	-22.089	0.099
134.000	-12.803	0.099
134.100	1.599	0.099
134.200	-19.235	0.099
134.300	6.811	0.099
134.400	-7.788	0.099
134.500	-28.722	0.100
134.600	-14.373	0.099
134.700	-2.132	0.099
134.800	-31.931	0.099
134.900	-0.959	0.100
135.000	-27.603	0.099
135.100	-7.442	0.099
135.200	-11.825	0.099
135.300	-21.088	0.100
135.400	7.465	0.099
135.500	-14.525	0.099
135.600	-10.512	0.099
135.700	-12.243	0.100
135.800	-13.546	0.099
135.900	-24.690	0.099
136.000	-9.375	0.100
136.100	-10.305	0.100
136.200	-19.625	0.099
136.300	-0.813	0.099
136.400	-22.539	0.099
136.500	-17.668	0.099
136.600	-19.258	0.099
136.700	7.062	0.099
136.800	-20.828	0.099
136.900	-0.969	0.100
137.000	-12.992	0.099
137.100	-7.034	0.100
137.200	-18.777	0.099
137.300	-24.733	0.099
137.400	-7.274	0.099
137.500	-18.208	0.099
137.600	-14.445	0.100
137.700	-8.735	0.099
137.800	8.795	0.099
137.900	-12.352	0.099
138.000	-16.975	0.100
138.100	-18.224	0.100
138.200	-12.790	0.099
138.300	-0.854	0.100
138.400	-10.716	0.099
138.500	-16.532	0.100
138.600	2.614	0.099
138.700	-4.060	0.099
138.800	-9.811	0.100
138.900	1.611	0.099
139.000	-13.971	0.099
139.100	-9.535	0.099
139.200	-21.059	0.099
139.300	-28.857	0.099
139.400	-22.240	0.099
139.500	-0.890	0.100
139.600	-1.611	0.099
139.700	-26.460	0.099
139.800	-7.095	0.099
139.900	-14.942	0.099
140.000	-15.633	0.099
140.100	-14.503	0.100
140.200	-17.472	0.100
140.300	-16.482	0.100
140.400	-15.008	0.099
140.500	-8.798	0.100
140.600	-16.636	0.099
140.700	-12.921	0.099
140.800	-22.396	0.100
140.900	-18.143	0.100
141.000	10.804	0.099
141.100	-8.180	0.100
141.200	-18.966	0.099
141.300	-10.665	0.099
141.400	-19.625	0.099
141.500	-2.621	0.100
141.600	-17.922	0.100
141.700	-8.003	0.099
141.800	-10.189	0.099
141.900	-44.190	0.099
142.000	7.045	0.099
142.100	-0.924	0.099
142.200	-17.462	0.099
142.300	-14.109	0.100
142.400	-11.710	0.099
142.500	-17.338	0.100
142.600	-1.809	0.100
142.700	-0.043	0.100
142.800	-5.955	0.099
142.900	-3.594	0.100
143.000	-22.103	0.100
143.100	-5.798	0.099
143.200	-7.839	0.099
143.300	-22.825	0.099
143.400	-9.883	0.099
143.500	-21.764	0.100
143.600	-14.513	0.099
143.700	-11.235	0.099
143.800	-10.041	0.099
143.900	-9.675	0.099
144.000	-10.906	0.099
144.100	4.370	0.099
144.200	-10.623	0.099
144.300	-31.463	0.099
144.400	-19.027	0.100
144.500	0.198	0.100
144.600	-19.890	0.100
144.700	4.326	0.100
144.800	-7.595	0.099
144.900	-8.722	0.099
145.000	-10.332	0.099
145.100	-0.823	0.100
145.200	-8.596	0.100
145.300	-18.713	0.099
145.400	-2.313	0.099
145.500	-0.149	0.099
145.600	-6.884	0.100
145.700	-5.796	0.099
145.800	-19.848	0.100
145.900	-8.548	0.099
146.000	-9.804	0.100
146.100	-17.617	0.099
146.200	-28.522	0.100
146.300	-6.576	0.099
146.400	-21.050	0.099
146.500	-25.608	0.099
146.600	5.954	0.099
146.700	-8.503	0.100
146.800	-3.504	0.099
146.900	-5.317	0.099
147.000	-11.156	0.099
147.100	-21.264	0.100
147.200	-22.306	0.099
147.300	-31.586	0.099
147.400	-21.918	0.099
147.500	18.481	0.100
147.600	4.970	0.099
147.700	-17.113	0.099
147.800	-13.773	0.099
147.900	-17.982	0.099
148.000	-2.795	0.099
148.100	-8.506	0.099
148.200	-8.771	0.100
148.300	-5.655	0.100
148.400	-7.629	0.099
148.500	-24.940	0.100
148.600	-11.589	0.100
148.700	-22.344	0.099
148.800	4.990	0.099
148.900	-4.208	0.099
149.000	-12.929	0.099
149.100	-5.369	0.099
149.200	-43.182	0.099
149.300	-18.891	0.099
149.400	-11.446	0.099
149.500	-6.240	0.099
149.600	12.785	0.099
149.700	16.854	0.099
149.800	3.886	0.100
149.900	2.732	0.100
150.000	-23.081	0.099
150.100	2.794	0.100
150.200	-4.479	0.099
150.300	-12.645	0.099
150.400	-13.533	0.099
150.500	0.328	0.099
150.600	-23.493	0.099
150.700	-4.396	0.099
150.800	-35.040	0.100
150.900	-11.413	0.100
151.000	6.539	0.099
151.100	-6.478	0.100
151.200	-11.267	0.099
151.300	6.771	0.100
151.400	-13.367	0.099
151.500	-11.157	0.099
151.600	-14.366	0.099
151.700	-17.635	0.099
151.800	-11.451	0.099
151.900	-3.662	0.099
152.000	-9.233	0.099
152.100	-11.760	0.099
152.200	-12.348	0.100
152.300	1.793	0.099
152.400	-40.442	0.100
152.500	8.778	0.099
152.600	-14.174	0.099
152.700	16.420	0.099
152.800	-13.111	0.099
152.900	-15.867	0.099
153.000	0.226	0.099
153.100	-18.346	0.099
153.200	1.262	0.099
153.300	-21.450	0.099
153.400	-19.153	0.100
153.500	-6.235	0.099
153.600	6.317	0.099
153.700	-11.070	0.099
153.800	-24.806	0.099
153.900	16.653	0.099
154.000	-7.385	0.099
154.100	-31.373	0.099
154.200	-9.665	0.099
154.300	-8.727	0.100
154.400	-1.289	0.099
154.500	-14.982	0.099
154.600	-23.421	0.099
154.700	-15.522	0.099
154.800	-12.662	0.099
154.900	-12.528	0.100
155.000	-9.077	0.100
155.100	-19.342	0.099
155.200	-10.410	0.099
155.300	-6.195	0.099
155.400	1.987	0.099
155.500	-0.612	0.100
155.600	2.300	0.099
155.700	-10.119	0.099
155.800	-18.340	0.099
155.900	4.655	0.099
156.000	-16.931	0.099
156.100	-27.180	0.099
156.200	2.793	0.099
156.300	-4.838	0.099
156.400	-15.234	0.099
156.500	-1.811	0.100
156.600	-30.407	0.099
156.700	-14.349	0.099
156.800	-1.338	0.099
156.900	-4.181	0.099
157.000	9.622	0.100
157.100	-32.417	0.099
157.200	-14.589	0.099
157.300	1.060	0.100
157.400	-23.634	0.099
157.500	-15.634	0.099
157.600	-1.463	0.099
157.700	-9.662	0.099
157.800	-26.912	0.099
157.900	-7.917	0.099
158.000	-10.976	0.100
158.100	-28.456	0.099
158.200	-29.923	0.099
158.300	-6.994	0.099
158.400	-22.271	0.100
158.500	-20.402	0.099
158.600	-6.701	0.099
158.700	-4.207	0.100
158.800	8.500	0.100
158.900	-15.224	0.099
159.000	-16.924	0.099
159.100	-7.238	0.099
159.200	-1.680	0.099
159.300	-2.825	0.099
159.400	-27.164	0.099
159.500	-21.395	0.099
159.600	-2.701	0.100
159.700	-15.405	0.099
159.800	-7.715	0.100
159.900	-20.994	0.099
160.000	2.586	0.099
160.100	13.606	0.100
160.200	-6.054	0.099
160.300	-13.046	0.099
160.400	-28.051	0.099
160.500	-20.284	0.099
160.600	-16.404	0.099
160.700	-5.611	0.099
160.800	-7.967	0.099
160.900	11.724	0.099
161.000	-11.047	0.099
161.100	-36.995	0.099
161.200	-7.847	0.099
161.300	-2.087	0.099
161.400	-20.082	0.099
161.500	-10.120	0.099
161.600	-0.441	0.100
161.700	-0.212	0.099
161.800	-7.864	0.099
161.900	-15.161	0.099
162.000	-4.171	0.099
162.100	-10.344	0.099
162.200	-10.024	0.099
162.300	-0.077	0.099
162.400	-8.792	0.099
162.500	-15.453	0.099
162.600	6.054	0.099
162.700	-4.602	0.099
162.800	17.298	0.099
162.900	-5.949	0.099
163.000	-5.912	0.099
163.100	-3.623	0.099
163.200	-8.258	0.099
163.300	-4.514	0.099
163.400	-5.787	0.099
163.500	-18.769	0.099
163.600	-31.470	0.099
163.700	-29.648	0.100
163.800	6.580	0.099
163.900	-23.670	0.099
164.000	-6.160	0.099
164.100	-8.821	0.099
164.200	-17.146	0.099
164.300	-0.657	0.099
164.400	-9.276	0.099
164.500	-8.871	0.099
164.600	2.760	0.099
164.700	-4.161	0.099
164.800	-26.790	0.099
164.900	-1.125	0.099
165.000	10.925	0.099
165.100	1.989	0.099
165.200	-18.374	0.099
165.300	-38.154	0.099
165.400	-4.198	0.099
165.500	-0.748	0.099
165.600	-13.316	0.099
165.700	6.612	0.099
165.800	-28.165	0.099
165.900	-10.883	0.099
166.000	-8.835	0.100
166.100	1.448	0.099
166.200	-21.965	0.099
166.300	-16.814	0.099
166.400	0.502	0.099
166.500	-16.212	0.099
166.600	-8.343	0.099
166.700	-7.792	0.099
166.800	-6.646	0.099
166.900	-3.208	0.099
167.000	-21.686	0.099
167.100	-8.291	0.099
167.200	9.519	0.099
167.300	-20.107	0.099
167.400	-0.232	0.099
167.500	8.597	0.099
167.600	4.463	0.099
167.700	-15.217	0.099
167.800	-12.269	0.099
167.900	-5.906	0.099
168.000	-6.028	0.099
168.100	-6.594	0.099
168.200	-17.832	0.099
168.300	1.047	0.099
168.400	-18.485	0.099
168.500	-14.616	0.099
168.600	-12.655	0.099
168.700	0.930	0.099
168.800	-5.100	0.099
168.900	-19.085	0.099
169.000	-26.047	0.099
169.100	10.387	0.099
169.200	-13.570	0.099
169.300	-2.883	0.099
169.400	-4.959	0.100
169.500	-8.927	0.100
169.600	-15.842	0.099
169.700	2.362	0.099
169.800	-15.270	0.099
169.900	-21.352	0.099
170.000	-8.110	0.099
170.100	-13.318	0.099
170.200	-3.837	0.100
170.300	-8.643	0.099
170.400	-4.116	0.099
170.500	-17.700	0.099
170.600	12.862	0.099
170.700	-23.769	0.099
170.800	-6.378	0.099
170.900	-19.449	0.099
171.000	-12.969	0.099
171.100	-0.904	0.099
171.200	-2.711	0.099
171.300	-14.373	0.099
171.400	-11.206	0.099
171.500	0.267	0.099
171.600	-0.935	0.099
171.700	-16.989	0.099
171.800	-11.121	0.099
171.900	-14.515	0.099
172.000	-0.691	0.099
172.100	-4.519	0.099
172.200	-7.647	0.099
172.300	-17.804	0.099
172.400	-26.634	0.099
172.500	7.702	0.099
172.600	-2.902	0.099
172.700	-10.448	0.099
172.800	-13.417	0.100
172.900	-11.362	0.099
173.000	-25.188	0.099
173.100	-15.425	0.099
173.200	-13.577	0.099
173.300	-0.454	0.099
173.400	-21.752	0.099
173.500	-24.182	0.099
173.600	12.768	0.099
173.700	-12.117	0.099
173.800	-2.474	0.099
173.900	-9.724	0.099
174.000	-15.658	0.099
174.100	-5.212	0.099
174.200	6.308	0.099
174.300	-8.593	0.099
174.400	-3.694	0.099
174.500	-13.946	0.099
174.600	-8.127	0.099
174.700	-9.527	0.099
174.800	-7.554	0.099
174.900	-18.903	0.099
175.000	-12.524	0.099
175.100	5.732	0.099
175.200	-9.491	0.099
175.300	-11.972	0.099
175.400	18.136	0.099
175.500	-4.547	0.099
175.600	-18.338	0.099
175.700	4.863	0.099
175.800	2.328	0.099
175.900	-20.049	0.099
176.000	-7.094	0.099
176.100	-17.497	0.099
176.200	-14.087	0.099
176.300	1.198	0.099
176.400	-14.844	0.099
176.500	1.486	0.099
176.600	-24.026	0.099
176.700	-28.320	0.099
176.800	-6.463	0.099
176.900	-1.288	0.099
177.000	-3.713	0.099
177.100	-33.160	0.099
177.200	-1.128	0.099
177.300	-9.780	0.099
177.400	-0.532	0.100
177.500	-12.406	0.100
177.600	-12.806	0.099
177.700	-0.813	0.100
177.800	-19.824	0.099
177.900	-2.309	0.099
178.000	-10.292	0.099
178.100	-5.726	0.099
178.200	-7.668	0.099
178.300	5.463	0.099
178.400	-21.108	0.099
178.500	-14.841	0.099
178.600	4.659	0.099
178.700	-10.133	0.100
178.800	-20.811	0.099
178.900	-10.409	0.099
179.000	-13.875	0.099
179.100	-6.412	0.099
179.200	8.417	0.099
179.300	-23.975	0.099
179.400	3.328	0.099
179.500	-12.835	0.099
179.600	-27.974	0.099
179.700	-8.417	0.100
179.800	10.455	0.100
179.900	-23.804	0.099
180.000	11.662	0.100
180.100	-21.545	0.099
180.200	-23.838	0.099
180.300	19.221	0.099
180.400	-5.208	0.099
180.500	1.010	0.100
180.600	-1.427	0.099
180.700	-4.346	0.100
180.800	8.694	0.099
180.900	-2.689	0.099
181.000	36.513	0.100
181.100	5.607	0.099
181.200	16.240	0.099
181.300	7.733	0.099
181.400	16.242	0.099
181.500	28.963	0.099
181.600	14.981	0.100
181.700	26.347	0.099
181.800	15.636	0.099
181.900	27.681	0.099
182.000	11.300	0.099
182.100	27.517	0.099
182.200	39.838	0.099
182.300	13.495	0.099
182.400	13.160	0.099
182.500	5.805	0.099
182.600	38.103	0.099
182.700	44.811	0.099
182.800	16.511	0.099
182.900	20.750	0.099
183.000	20.152	0.099
183.100	22.835	0.099
183.200	37.004	0.099
183.300	20.018	0.099
183.400	24.726	0.099
183.500	23.701	0.099
183.600	27.209	0.099
183.700	28.292	0.099
183.800	17.706	0.099
183.900	31.116	0.100
184.000	4.823	0.099
184.100	26.853	0.099
184.200	49.696	0.099
184.300	13.624	0.099
184.400	8.346	0.099
184.500	23.502	0.099
184.600	20.283	0.099
184.700	11.388	0.099
184.800	12.059	0.099
184.900	12.416	0.099
185.000	18.122	0.099
185.100	15.661	0.099
185.200	19.593	0.099
185.300	24.592	0.099
185.400	18.380	0.099
185.500	14.219	0.099
185.600	28.319	0.099
185.700	-11.554	0.099
185.800	46.965	0.100
185.900	30.482	0.099
186.000	9.583	0.100
186.100	23.388	0.100
186.200	26.504	0.099
186.300	22.940	0.100
186.400	22.372	0.099
186.500	12.746	0.099
186.600	17.589	0.099
186.700	28.903	0.100
186.800	21.629	0.099
186.900	16.509	0.099
187.000	18.183	0.099
187.100	34.157	0.099
187.200	24.178	0.100
187.300	12.084	0.099
187.400	11.488	0.099
187.500	13.771	0.099
187.600	42.431	0.099
187.700	34.801	0.099
187.800	11.284	0.099
187.900	8.099	0.099
188.000	18.831	0.099
188.100	43.222	0.099
188.200	25.650	0.099
188.300	19.110	0.099
188.400	36.443	0.099
188.500	14.109	0.099
188.600	12.370	0.099
188.700	27.954	0.100
188.800	28.223	0.100
188.900	41.112	0.099
189.000	21.086	0.099
189.100	7.715	0.099
189.200	28.095	0.100
189.300	22.456	0.100
189.400	49.483	0.100
189.500	23.420	0.100
189.600	36.232	0.100
189.700	20.047	0.099
189.800	19.641	0.100
189.900	23.828	0.099
190.000	32.923	0.099
190.100	41.608	0.100
190.200	31.384	0.099
190.300	28.185	0.100
190.400	43.180	0.099
190.500	31.418	0.100
190.600	30.063	0.100
190.700	25.611	0.100
190.800	37.039	0.099
190.900	36.192	0.100
191.000	35.840	0.099
191.100	26.811	0.099
191.200	26.904	0.100
191.300	42.156	0.099
191.400	38.894	0.099
191.500	13.811	0.099
191.600	43.639	0.100
191.700	32.046	0.100
191.800	13.781	0.099
191.900	29.371	0.099
192.000	37.495	0.099
192.100	22.270	0.099
192.200	38.430	0.099
192.300	61.735	0.100
192.400	32.534	0.099
192.500	40.499	0.099
192.600	36.623	0.100
192.700	20.345	0.099
192.800	36.304	0.100
192.900	31.771	0.099
193.000	26.839	0.099
193.100	41.302	0.099
193.200	49.870	0.100
193.300	47.113	0.100
193.400	41.139	0.100
193.500	42.854	0.100
193.600	29.550	0.100
193.700	30.600	0.100
193.800	27.539	0.099
193.900	9.290	0.099
194.000	41.827	0.100
194.100	45.129	0.099
194.200	44.241	0.099
194.300	16.044	0.099
194.400	29.437	0.099
194.500	24.620	0.100
194.600	44.812	0.099
194.700	30.815	0.099
194.800	27.424	0.100
194.900	31.396	0.099
195.000	37.916	0.099
195.100	41.280	0.099
195.200	38.930	0.099
195.300	30.978	0.099
195.400	42.160	0.100
195.500	31.819	0.100
195.600	41.632	0.099
195.700	47.941	0.099
195.800	30.234	0.099
195.900	41.711	0.099
196.000	53.964	0.100
196.100	9.000	0.099
196.200	33.975	0.099
196.300	27.760	0.099
196.400	36.414	0.099
196.500	40.788	0.099
196.600	50.643	0.099
196.700	41.103	0.099
196.800	40.745	0.099
196.900	27.378	0.099
197.000	32.404	0.099
197.100	43.125	0.099
197.200	42.085	0.100
197.300	45.509	0.099
197.400	38.530	0.099
197.500	42.392	0.099
197.600	17.502	0.099
197.700	27.824	0.099
197.800	28.988	0.099
197.900	48.229	0.099
198.000	9.070	0.099
198.100	24.945	0.099
198.200	31.306	0.099
198.300	35.799	0.099
198.400	36.982	0.099
198.500	38.212	0.099
198.600	49.063	0.099
198.700	22.757	0.099
198.800	10.690	0.099
198.900	29.669	0.099
199.000	17.688	0.099
199.100	57.555	0.099
199.200	33.402	0.099
199.300	49.300	0.099
199.400	20.955	0.099
199.500	42.073	0.099
199.600	20.591	0.099
199.700	16.542	0.099
199.800	31.336	0.099
199.900	43.337	0.099
200.000	41.614	0.099
200.100	20.613	0.099
200.200	61.875	0.100
200.300	13.832	0.099
200.400	25.248	0.099
200.500	35.370	0.099
200.600	42.962	0.099
200.700	17.172	0.099
200.800	42.779	0.099
200.900	30.048	0.099
201.000	37.742	0.099
201.100	23.089	0.099
201.200	50.246	0.099
201.300	47.111	0.099
201.400	33.286	0.099
201.500	41.640	0.099
201.600	34.779	0.099
201.700	41.608	0.099
201.800	31.442	0.099
201.900	30.677	0.100
202.000	38.759	0.099
202.100	35.907	0.099
202.200	32.527	0.100
202.300	27.596	0.099
202.400	34.042	0.099
202.500	29.096	0.100
202.600	49.068	0.099
202.700	30.031	0.099
202.800	20.208	0.099
202.900	35.439	0.099
203.000	32.670	0.100
203.100	35.553	0.099
203.200	28.171	0.099
203.300	28.275	0.099
203.400	47.089	0.099
203.500	38.670	0.099
203.600	34.534	0.099
203.700	5.267	0.099
203.800	42.314	0.099
203.900	46.443	0.099
204.000	31.187	0.099
204.100	40.980	0.099
204.200	30.484	0.099
204.300	46.284	0.100
204.400	31.618	0.099
204.500	26.428	0.099
204.600	29.208	0.099
204.700	31.350	0.099
204.800	20.136	0.099
204.900	38.400	0.099
205.000	36.041	0.099
205.100	44.451	0.099
205.200	35.106	0.099
205.300	38.502	0.099
205.400	50.756	0.099
205.500	21.611	0.099
205.600	30.973	0.099
205.700	26.414	0.099
205.800	11.289	0.099
205.900	48.402	0.099
206.000	39.187	0.099
206.100	26.014	0.099
206.200	47.294	0.099
206.300	16.008	0.099
206.400	43.653	0.099
206.500	41.308	0.099
206.600	19.828	0.099
206.700	36.860	0.099
206.800	55.040	0.099
206.900	45.371	0.099
207.000	36.178	0.099
207.100	33.709	0.099
207.200	40.056	0.099
207.300	17.000	0.099
207.400	21.238	0.099
207.500	18.016	0.099
207.600	29.075	0.099
207.700	38.337	0.099
207.800	54.683	0.099
207.900	22.496	0.099
208.000	28.816	0.099
208.100	38.073	0.099
208.200	20.763	0.099
208.300	23.410	0.099
208.400	55.762	0.099
208.500	42.801	0.099
208.600	28.560	0.099
208.700	23.125	0.099
208.800	33.546	0.099
208.900	37.488	0.099
209.000	22.706	0.099
209.100	41.031	0.099
209.200	47.635	0.099
209.300	23.041	0.099
209.400	8.751	0.099
209.500	49.811	0.099
209.600	50.076	0.099
209.700	20.006	0.099
209.800	23.403	0.099
209.900	36.337	0.099
210.000	39.251	0.099
210.100	26.933	0.099
210.200	33.745	0.099
210.300	32.650	0.099
210.400	26.295	0.099
210.500	35.832	0.099
210.600	21.651	0.099
210.700	36.317	0.099
210.800	32.379	0.099
210.900	41.721	0.099
211.000	-1.507	0.099
211.100	37.391	0.099
211.200	57.864	0.099
211.300	49.577	0.099
211.400	42.667	0.099
211.500	13.622	0.099
211.600	27.401	0.099
211.700	40.528	0.099
211.800	46.841	0.099
211.900	29.065	0.099
212.000	26.335	0.099
212.100	42.905	0.099
212.200	36.911	0.099
212.300	36.259	0.099
212.400	30.525	0.099
212.500	45.534	0.099
212.600	41.503	0.099
212.700	46.291	0.099
212.800	46.738	0.099
212.900	36.409	0.099
213.000	35.217	0.099
213.100	41.931	0.099
213.200	37.020	0.099
213.300	33.876	0.099
213.400	26.495	0.099
213.500	45.940	0.099
213.600	38.785	0.099
213.700	44.898	0.099
213.800	16.357	0.099
213.900	37.942	0.099
214.000	20.755	0.099
214.100	37.787	0.099
214.200	22.687	0.099
214.300	15.104	0.099
214.400	25.686	0.099
214.500	37.152	0.099
214.600	31.879	0.099
214.700	34.842	0.099
214.800	42.568	0.099
214.900	27.209	0.099
215.000	25.145	0.099
215.100	41.045	0.099
215.200	19.544	0.099
215.300	48.030	0.099
215.400	23.039	0.099
215.500	37.037	0.099
215.600	43.079	0.099
215.700	12.534	0.099
215.800	47.907	0.099
215.900	13.796	0.099
216.000	32.349	0.099
216.100	12.860	0.099
216.200	43.894	0.099
216.300	25.263	0.099
216.400	29.059	0.099
216.500	40.149	0.099
216.600	31.422	0.099
216.700	35.789	0.099
216.800	28.802	0.099
216.900	32.122	0.099
217.000	8.263	0.099
217.100	42.065	0.099
217.200	26.919	0.099
217.300	27.708	0.099
217.400	39.317	0.099
217.500	54.362	0.099
217.600	24.352	0.099
217.700	31.855	0.099
217.800	31.798	0.099
217.900	20.431	0.099
218.000	36.133	0.099
218.100	45.713	0.099
218.200	41.157	0.099
218.300	38.613	0.099
218.400	25.787	0.099
218.500	26.544	0.099
218.600	13.711	0.099
218.700	44.290	0.099
218.800	25.431	0.099
218.900	43.873	0.099
219.000	41.522	0.099
219.100	26.863	0.099
219.200	14.103	0.099
219.300	46.556	0.099
219.400	17.242	0.099
219.500	42.046	0.099
219.600	27.367	0.099
219.700	21.567	0.099
219.800	39.367	0.099
219.900	22.521	0.099
220.000	40.413	0.099
220.100	53.291	0.099
220.200	14.269	0.099
220.300	40.913	0.099
220.400	42.106	0.099
220.500	32.262	0.099
220.600	43.157	0.099
220.700	9.297	0.099
220.800	28.861	0.099
220.900	29.255	0.099
221.000	39.525	0.099
221.100	28.606	0.099
221.200	30.684	0.099
221.300	18.475	0.099
221.400	31.225	0.099
221.500	43.454	0.099
221.600	31.538	0.099
221.700	24.011	0.099
221.800	11.571	0.099
221.900	40.344	0.099
222.000	23.160	0.099
222.100	40.002	0.099
222.200	35.157	0.099
222.300	27.742	0.099
222.400	20.042	0.099
222.500	34.450	0.099
222.600	25.883	0.099
222.700	48.147	0.099
222.800	33.125	0.099
222.900	7.687	0.099
223.000	58.322	0.099
223.100	19.720	0.099
223.200	24.917	0.099
223.300	41.572	0.099
223.400	28.655	0.099
223.500	34.679	0.099
223.600	26.195	0.099
223.700	18.275	0.099
223.800	50.248	0.099
223.900	13.847	0.099
224.000	23.998	0.099
224.100	45.325	0.099
224.200	22.318	0.099
224.300	25.860	0.099
224.400	25.239	0.099
224.500	48.541	0.099
224.600	21.263	0.099
224.700	31.813	0.099
224.800	36.800	0.099
224.900	23.509	0.099
225.000	32.590	0.099
225.100	39.557	0.099
225.200	48.162	0.099
225.300	32.432	0.099
225.400	11.496	0.099
225.500	37.409	0.099
225.600	17.535	0.099
225.700	32.990	0.099
225.800	24.685	0.099
225.900	31.058	0.099
226.000	30.940	0.099
226.100	28.812	0.099
226.200	40.018	0.099
226.300	27.177	0.099
226.400	19.190	0.099
226.500	51.675	0.099
226.600	22.766	0.099
226.700	27.319	0.099
226.800	9.362	0.099
226.900	24.850	0.099
227.000	44.523	0.099
227.100	30.402	0.099
227.200	22.020	0.099
227.300	17.351	0.099
227.400	32.686	0.099
227.500	30.659	0.099
227.600	6.348	0.099
227.700	39.380	0.099
227.800	23.873	0.099
227.900	32.994	0.099
228.000	27.714	0.099
228.100	36.589	0.099
228.200	36.171	0.099
228.300	24.465	0.099
228.400	44.347	0.099
228.500	22.598	0.099
228.600	27.648	0.099
228.700	29.533	0.099
228.800	35.668	0.099
228.900	42.485	0.099
229.000	33.568	0.099
229.100	27.280	0.099
229.200	20.963	0.099
229.300	40.390	0.099
229.400	29.886	0.099
229.500	40.630	0.099
229.600	21.615	0.099
229.700	33.612	0.099
229.800	23.073	0.099
229.900	60.352	0.099
230.000	32.943	0.099
230.100	24.592	0.099
230.200	51.578	0.099
230.300	27.417	0.099
230.400	32.536	0.099
230.500	30.701	0.099
230.600	37.406	0.099
230.700	36.939	0.099
230.800	41.015	0.099
230.900	5.710	0.099
231.000	24.526	0.099
231.100	43.674	0.099
231.200	19.514	0.099
231.300	43.387	0.099
231.400	24.085	0.099
231.500	30.048	0.099
231.600	51.286	0.099
231.700	22.774	0.099
231.800	51.751	0.099
231.900	43.731	0.099
232.000	15.731	0.099
232.100	45.630	0.099
232.200	43.300	0.099
232.300	29.225	0.099
232.400	21.847	0.099
232.500	21.141	0.099
232.600	17.616	0.099
232.700	35.810	0.099
232.800	40.466	0.099
232.900	37.059	0.099
233.000	16.819	0.099
233.100	42.763	0.099
233.200	41.422	0.099
233.300	44.617	0.099
233.400	20.556	0.099
233.500	24.186	0.099
233.600	35.193	0.099
233.700	28.819	0.099
233.800	15.607	0.099
233.900	40.821	0.099
234.000	39.782	0.099
234.100	42.532	0.099
234.200	9.731	0.099
234.300	36.658	0.099
234.400	26.189	0.099
234.500	34.537	0.099
234.600	29.619	0.099
234.700	17.934	0.099
234.800	31.673	0.099
234.900	35.566	0.099
235.000	32.085	0.099
235.100	30.530	0.099
235.200	27.695	0.099
235.300	27.000	0.099
235.400	28.855	0.099
235.500	29.145	0.099
235.600	30.650	0.099
235.700	44.940	0.099
235.800	41.239	0.099
235.900	32.788	0.099
236.000	15.538	0.099
236.100	26.768	0.099
236.200	44.308	0.099
236.300	15.426	0.099
236.400	21.192	0.099
236.500	24.875	0.099
236.600	18.642	0.099
236.700	39.723	0.099
236.800	39.797	0.099
236.900	46.674	0.099
237.000	27.972	0.099
237.100	25.760	0.099
237.200	42.616	0.099
237.300	26.266	0.099
237.400	23.740	0.099
237.500	23.135	0.099
237.600	32.201	0.099
237.700	35.384	0.099
237.800	31.451	0.099
237.900	30.650	0.099
238.000	31.992	0.099
238.100	31.911	0.099
238.200	26.634	0.099
238.300	25.135	0.099
238.400	24.626	0.099
238.500	45.405	0.099
238.600	19.361	0.099
238.700	33.175	0.099
238.800	29.898	0.099
238.900	31.413	0.099
239.000	35.627	0.099
239.100	29.553	0.099
239.200	17.155	0.099
239.300	40.142	0.099
239.400	30.023	0.099
239.500	40.264	0.099
239.600	13.927	0.099
239.700	31.316	0.099
239.800	32.480	0.099
239.900	40.928	0.099
240.000	22.160	0.099
240.100	16.177	0.099
240.200	8.889	0.099
240.300	34.020	0.099
240.400	37.941	0.099
240.500	11.652	0.099
240.600	-10.647	0.099
240.700	5.018	0.099
240.800	25.059	0.099
240.900	10.903	0.099
241.000	-1.405	0.099
241.100	24.209	0.099
241.200	-10.172	0.099
241.300	21.227	0.099
241.400	2.404	0.099
241.500	8.321	0.099
241.600	0.616	0.099
241.700	20.949	0.099
241.800	1.432	0.099
241.900	2.209	0.099
242.000	-15.090	0.099
242.100	-3.921	0.099
242.200	3.361	0.099
242.300	-10.760	0.099
242.400	0.760	0.099
242.500	-1.140	0.099
242.600	-11.968	0.099
242.700	6.847	0.099
242.800	15.571	0.099
242.900	1.925	0.099
243.000	-2.945	0.099
243.100	-9.910	0.099
243.200	-10.363	0.099
243.300	-8.726	0.099
243.400	-3.658	0.099
243.500	-2.613	0.099
243.600	-27.033	0.099
243.700	-14.754	0.099
243.800	-0.310	0.099
243.900	-17.629	0.099
244.000	-5.864	0.099
244.100	1.209	0.099
244.200	-9.421	0.099
244.300	-24.325	0.099
244.400	-2.576	0.099
244.500	6.873	0.099
244.600	-45.939	0.099
244.700	-0.514	0.099
244.800	-11.475	0.099
244.900	-10.733	0.099
245.000	8.324	0.099
245.100	-10.967	0.099
245.200	-4.969	0.099
245.300	-14.858	0.099
245.400	-23.060	0.099
245.500	1.175	0.099
245.600	-29.582	0.099
245.700	-28.692	0.099
245.800	-12.982	0.099
245.900	-23.187	0.099
246.000	2.173	0.099
246.100	-24.986	0.099
246.200	19.753	0.099
246.300	-19.995	0.099
246.400	-11.745	0.099
246.500	-10.616	0.099
246.600	-7.143	0.099
246.700	-20.884	0.099
246.800	-10.711	0.099
246.900	-13.361	0.099
247.000	-4.595	0.099
247.100	-6.462	0.099
247.200	-22.153	0.099
247.300	-17.699	0.099
247.400	-6.365	0.099
247.500	-19.296	0.099
247.600	-12.895	0.099
247.700	-28.597	0.099
247.800	-14.585	0.099
247.900	-18.825	0.099
248.000	-5.960	0.099
248.100	-16.637	0.099
248.200	-10.763	0.099
248.300	-8.339	0.099
248.400	-6.634	0.099
248.500	-21.442	0.099
248.600	-11.789	0.099
248.700	-17.408	0.099
248.800	-4.548	0.099
248.900	-17.919	0.099
249.000	-14.909	0.099
249.100	-17.278	0.099
249.200	-13.041	0.099
249.300	-17.714	0.099
249.400	-9.149	0.099
249.500	-15.614	0.099
249.600	-1.378	0.099
249.700	-15.316	0.099
249.800	-24.768	0.099
249.900	-22.646	0.099
250.000	-9.150	0.099
250.100	-21.555	0.099
250.200	-24.629	0.099
250.300	-10.344	0.099
250.400	-3.825	0.099
250.500	-23.404	0.099
250.600	-6.450	0.099
250.700	-17.710	0.099
250.800	-21.181	0.099
250.900	-16.732	0.099
251.000	-5.807	0.099
251.100	-39.584	0.099
251.200	-23.453	0.099
251.300	-18.295	0.099
251.400	-15.890	0.099
251.500	-23.809	0.099
251.600	-8.923	0.099
251.700	-13.097	0.099
251.800	-14.326	0.099
251.900	-23.576	0.099
252.000	-14.030	0.099
252.100	-5.872	0.099
252.200	-17.223	0.099
252.300	-18.002	0.099
252.400	-16.397	0.099
252.500	-13.025	0.099
252.600	-19.394	0.099
252.700	-27.952	0.099
252.800	-24.794	0.099
252.900	-15.483	0.099
253.000	-23.261	0.099
253.100	-18.395	0.099
253.200	-18.168	0.099
253.300	-6.714	0.099
253.400	-25.703	0.099
253.500	-16.209	0.099
253.600	-25.021	0.099
253.700	-4.483	0.099
253.800	-14.629	0.099
253.900	-23.936	0.099
254.000	-6.261	0.099
254.100	-5.725	0.099
254.200	-11.756	0.099
254.300	-17.952	0.099
254.400	-30.278	0.099
254.500	-17.297	0.099
254.600	-37.355	0.099
254.700	-34.996	0.099
254.800	-6.109	0.099
254.900	-18.875	0.099
255.000	-18.582	0.099
255.100	-12.046	0.099
255.200	-9.200	0.099
255.300	-17.158	0.099
255.400	-44.489	0.099
255.500	-7.082	0.099
255.600	-22.605	0.099
255.700	-43.989	0.099
255.800	-7.499	0.099
255.900	-17.279	0.099
256.000	2.654	0.099
256.100	-22.268	0.099
256.200	-31.140	0.099
256.300	-27.893	0.099
256.400	2.180	0.099
256.500	-33.441	0.099
256.600	-16.687	0.099
256.700	-29.566	0.099
256.800	-0.067	0.099
256.900	-17.843	0.099
257.000	-33.857	0.099
257.100	-17.187	0.099
257.200	-29.105	0.099
257.300	-19.092	0.099
257.400	-44.385	0.099
257.500	1.244	0.099
257.600	-20.965	0.099
257.700	-20.162	0.099
257.800	-30.729	0.099
257.900	-22.176	0.099
258.000	-26.939	0.099
258.100	0.412	0.099
258.200	-12.394	0.099
258.300	-21.458	0.099
258.400	-20.339	0.099
258.500	-18.185	0.099
258.600	-27.503	0.099
258.700	-30.869	0.099
258.800	-22.928	0.099
258.900	-20.367	0.099
259.000	-28.495	0.099
259.100	-23.283	0.099
259.200	-33.746	0.099
259.300	-5.793	0.099
259.400	-20.701	0.099
259.500	-7.705	0.099
259.600	-22.186	0.099
259.700	-17.908	0.099
259.800	-7.737	0.099
259.900	-33.337	0.099
260.000	-34.980	0.099
260.100	-5.287	0.099
260.200	-9.336	0.099
260.300	-8.018	0.099
260.400	-32.437	0.099
260.500	-26.331	0.099
260.600	-20.668	0.099
260.700	-9.426	0.099
260.800	-22.495	0.099
260.900	-0.719	0.099
261.000	-22.266	0.099
261.100	-25.148	0.099
261.200	-1.907	0.099
261.300	-39.854	0.099
261.400	-18.267	0.099
261.500	-19.960	0.099
261.600	-18.467	0.099
261.700	-11.607	0.099
261.800	-13.334	0.099
261.900	-31.016	0.099
262.000	-28.160	0.099
262.100	-33.031	0.099
262.200	-21.004	0.099
262.300	-47.969	0.099
262.400	-2.912	0.099
262.500	-5.683	0.099
262.600	-35.401	0.099
262.700	-8.200	0.099
262.800	-35.354	0.099
262.900	-24.773	0.099
263.000	-29.348	0.099
263.100	-20.189	0.099
263.200	5.292	0.099
263.300	-43.882	0.099
263.400	-24.127	0.099
263.500	-42.224	0.099
263.600	-18.456	0.099
263.700	-30.704	0.099
263.800	-4.671	0.099
263.900	-56.634	0.099
264.000	-21.436	0.099
264.100	8.946	0.099
264.200	-33.665	0.099
264.300	3.386	0.099
264.400	-20.303	0.099
264.500	0.187	0.099
264.600	-28.072	0.099
264.700	-32.166	0.099
264.800	-6.285	0.099
264.900	-15.340	0.099
265.000	-31.305	0.099
265.100	-4.709	0.099
265.200	-34.588	0.099
265.300	-18.779	0.099
265.400	-29.305	0.099
265.500	-11.951	0.099
265.600	-44.694	0.099
265.700	5.060	0.099
265.800	-24.286	0.099
265.900	-31.182	0.099
266.000	-34.974	0.099
266.100	-16.769	0.099
266.200	-16.235	0.099
266.300	-9.579	0.099
266.400	-23.961	0.099
266.500	-14.606	0.099
266.600	-15.355	0.099
266.700	-35.895	0.099
266.800	-5.920	0.099
266.900	-17.461	0.099
267.000	-46.345	0.099
267.100	-18.491	0.099
267.200	0.956	0.099
267.300	-20.550	0.099
267.400	-20.115	0.099
267.500	-23.599	0.099
267.600	-46.648	0.099
267.700	-7.531	0.099
267.800	-30.324	0.099
267.900	-31.393	0.099
268.000	-39.758	0.099
268.100	-22.713	0.099
268.200	-8.262	0.099
268.300	-40.099	0.099
268.400	-24.146	0.099
268.500	-32.331	0.099
268.600	-5.154	0.099
268.700	-28.925	0.099
268.800	-24.767	0.099
268.900	-18.084	0.099
269.000	-20.450	0.099
269.100	-33.461	0.099
269.200	-8.780	0.099
269.300	-29.515	0.099
269.400	-14.732	0.099
269.500	-25.878	0.099
269.600	-30.923	0.099
269.700	-23.268	0.099
269.800	-29.766	0.099
269.900	-32.134	0.099
270.000	-12.117	0.099
270.100	-22.010	0.099
270.200	-29.340	0.099
270.300	-18.426	0.099
270.400	-9.700	0.099
270.500	-25.229	0.099
270.600	-16.135	0.099
270.700	-16.824	0.099
270.800	-31.844	0.099
270.900	-38.492	0.099
271.000	-25.016	0.099
271.100	-19.429	0.099
271.200	-14.989	0.099
271.300	-13.718	0.099
271.400	-51.951	0.099
271.500	-24.621	0.099
271.600	-0.129	0.099
271.700	-30.705	0.099
271.800	-9.986	0.099
271.900	-17.433	0.099
272.000	-35.391	0.099
272.100	-15.463	0.099
272.200	-13.644	0.099
272.300	-32.025	0.099
272.400	-31.571	0.099
272.500	-21.279	0.099
272.600	-21.203	0.099
272.700	-24.668	0.099
272.800	-8.381	0.099
272.900	-17.341	0.099
273.000	-30.630	0.099
273.100	-17.371	0.099
273.200	-30.520	0.099
273.300	-28.824	0.099
273.400	-11.311	0.099
273.500	-13.013	0.099
273.600	-26.274	0.099
273.700	-23.914	0.099
273.800	-33.156	0.099
273.900	-31.171	0.099
274.000	-12.283	0.099
274.100	-30.606	0.099
274.200	-10.758	0.099
274.300	-29.651	0.099
274.400	-7.517	0.099
274.500	-27.021	0.099
274.600	-10.036	0.099
274.700	-30.990	0.099
274.800	-5.119	0.099
274.900	2.023	0.099
275.000	-18.372	0.099
275.100	-26.668	0.099
275.200	-10.524	0.099
275.300	-32.973	0.099
275.400	4.054	0.099
275.500	-34.435	0.099
275.600	-36.685	0.099
275.700	-35.599	0.099
275.800	-24.943	0.099
275.900	-38.477	0.099
276.000	-19.627	0.099
276.100	-17.905	0.099
276.200	-24.263	0.099
276.300	-1.230	0.099
276.400	-20.342	0.099
276.500	-30.736	0.099
276.600	-24.408	0.099
276.700	-29.922	0.099
276.800	-12.459	0.099
276.900	-0.211	0.099
277.000	-26.828	0.099
277.100	-36.641	0.099
277.200	-31.200	0.099
277.300	-7.608	0.099
277.400	-17.522	0.099
277.500	-33.923	0.099
277.600	-12.061	0.099
277.700	-10.880	0.099
277.800	-24.889	0.099
277.900	-18.340	0.099
278.000	-4.599	0.099
278.100	-42.341	0.099
278.200	-25.230	0.099
278.300	-18.767	0.099
278.400	-16.006	0.099
278.500	-13.444	0.099
278.600	-35.521	0.099
278.700	-41.210	0.099
278.800	-27.396	0.099
278.900	1.601	0.099
279.000	-22.380	0.099
279.100	-36.670	0.099
279.200	-9.522	0.099
279.300	-18.252	0.099
279.400	2.405	0.099
279.500	-15.518	0.099
279.600	-30.902	0.099
279.700	-4.551	0.099
279.800	-8.075	0.099
279.900	-32.684	0.099
280.000	-22.212	0.099
280.100	-9.585	0.099
280.200	-22.467	0.099
280.300	-15.418	0.099
280.400	-23.325	0.099
280.500	-23.028	0.099
280.600	-7.519	0.099
280.700	-15.911	0.099
280.800	-24.268	0.099
280.900	-20.827	0.099
281.000	-24.681	0.099
281.100	-24.859	0.099
281.200	-19.547	0.099
281.300	-21.269	0.099
281.400	-24.430	0.099
281.500	-32.622	0.099
281.600	-19.060	0.099
281.700	-27.032	0.099
281.800	-10.694	0.099
281.900	-29.747	0.099
282.000	-28.865	0.099
282.100	-32.453	0.099
282.200	-10.020	0.099
282.300	-24.820	0.099
282.400	-13.231	0.099
282.500	-17.507	0.099
282.600	-30.086	0.099
282.700	-5.243	0.099
282.800	-38.320	0.099
282.900	-1.730	0.099
283.000	-22.227	0.099
283.100	-16.022	0.099
283.200	-12.885	0.099
283.300	-11.695	0.099
283.400	-23.801	0.099
283.500	-32.185	0.099
283.600	-18.689	0.099
283.700	-20.778	0.099
283.800	-14.831	0.099
283.900	-34.840	0.099
284.000	-9.345	0.099
284.100	-17.321	0.099
284.200	-48.087	0.099
284.300	4.792	0.099
284.400	-25.190	0.099
284.500	-4.239	0.099
284.600	-14.278	0.099
284.700	-14.462	0.099
284.800	-18.181	0.099
284.900	-36.699	0.099
285.000	-24.803	0.099
285.100	-20.069	0.099
285.200	-20.153	0.099
285.300	5.437	0.099
285.400	-21.683	0.099
285.500	-24.211	0.099
285.600	-14.366	0.099
285.700	-27.614	0.099
285.800	-24.818	0.099
285.900	-28.110	0.099
286.000	-24.075	0.099
286.100	-19.733	0.099
286.200	-29.461	0.099
286.300	-17.826	0.099
286.400	-26.393	0.099
286.500	-15.470	0.099
286.600	-5.385	0.099
286.700	-27.311	0.099
286.800	-27.122	0.099
286.900	-5.950	0.099
287.000	-22.069	0.099
287.100	-14.231	0.099
287.200	-6.613	0.099
287.300	-24.823	0.099
287.400	-13.932	0.099
287.500	-9.169	0.099
287.600	-9.393	0.099
287.700	-23.439	0.099
287.800	-15.108	0.099
287.900	-40.497	0.099
288.000	-23.698	0.099
288.100	-6.038	0.099
288.200	-47.180	0.099
288.300	-15.135	0.099
288.400	-32.091	0.099
288.500	-11.856	0.099
288.600	-9.961	0.099
288.700	-15.453	0.100
288.800	-35.003	0.099
288.900	4.890	0.100
289.000	-33.149	0.099
289.100	-15.115	0.099
289.200	-2.351	0.100
289.300	-9.592	0.099
289.400	-31.885	0.100
289.500	-26.859	0.099
289.600	-31.323	0.100
289.700	-32.789	0.100
289.800	-5.336	0.100
289.900	5.308	0.100
290.000	-18.448	0.100
290.100	-44.908	0.100
290.200	-27.806	0.100
290.300	-26.752	0.100
290.400	-27.550	0.100
290.500	-25.161	0.100
290.600	-7.299	0.100
290.700	-14.268	0.100
290.800	-29.305	0.100
290.900	-9.250	0.100
291.000	-19.538	0.100
291.100	-24.459	0.100
291.200	-12.148	0.100
291.300	0.188	0.100
291.400	-0.252	0.100
291.500	-38.831	0.100
291.600	-4.891	0.100
291.700	-20.314	0.100
291.800	-24.472	0.100
291.900	-29.742	0.100
292.000	-18.084	0.100
292.100	-15.942	0.100
292.200	-21.927	0.100
292.300	-13.564	0.100
292.400	-19.305	0.100
292.500	-34.796	0.100
292.600	-4.380	0.100
292.700	-21.708	0.100
292.800	-14.645	0.100
292.900	-4.461	0.100
293.000	-13.154	0.100
293.100	-11.288	0.100
293.200	-15.693	0.100
293.300	-21.488	0.100
293.400	-14.904	0.100
293.500	-14.472	0.100
293.600	-21.610	0.100
293.700	-16.784	0.100
293.800	-26.197	0.100
293.900	-23.790	0.100
294.000	-25.072	0.100
294.100	-10.782	0.100
294.200	-9.161	0.100
294.300	-11.555	0.100
294.400	-16.284	0.100
294.500	-9.941	0.100
294.600	-14.000	0.100
294.700	-18.835	0.100
294.800	-9.377	0.100
294.900	-32.539	0.100
295.000	-26.675	0.100
295.100	-5.675	0.100
295.200	-16.786	0.100
295.300	1.257	0.100
295.400	-13.459	0.100
295.500	-27.050	0.100
295.600	-28.598	0.100
295.700	-6.491	0.100
295.800	-25.316	0.100
295.900	-18.046	0.100
296.000	-23.484	0.100
296.100	-7.204	0.100
296.200	-30.146	0.100
296.300	-15.790	0.100
296.400	-5.478	0.100
296.500	-6.579	0.100
296.600	-42.413	0.100
296.700	-20.035	0.100
296.800	-8.201	0.100
296.900	-17.583	0.100
297.000	-6.879	0.100
297.100	-22.097	0.100
297.200	-31.801	0.100
297.300	-7.756	0.100
297.400	-11.897	0.100
297.500	-16.677	0.100
297.600	-20.558	0.100
297.700	-33.320	0.100
297.800	-16.653	0.100
297.900	-12.654	0.100
298.000	-7.861	0.100
298.100	-27.975	0.100
298.200	-8.782	0.100
298.300	5.231	0.100
298.400	-8.709	0.100
298.500	-17.796	0.100
298.600	-5.231	0.100
298.700	-11.082	0.100
298.800	-23.268	0.100
298.900	-12.493	0.100
299.000	-9.700	0.100
299.100	-14.930	0.100
299.200	-6.008	0.100
299.300	-26.300	0.100
299.400	-16.737	0.100
299.500	-21.531	0.100
299.600	-9.592	0.100
299.700	-33.523	0.100
299.800	6.112	0.100
299.900	-20.823	0.100
300.000	-29.399	0.100
300.100	-36.217	0.100
300.200	-18.870	0.100
300.300	-13.120	0.100
300.400	-19.593	0.100
300.500	-38.366	0.100
300.600	-3.449	0.100
300.700	-10.994	0.100
300.800	-18.122	0.100
300.900	-8.247	0.100
301.000	-12.254	0.100
301.100	-12.943	0.100
301.200	-22.933	0.100
301.300	-16.075	0.100
301.400	-22.612	0.100
301.500	-10.710	0.100
301.600	-16.188	0.100
301.700	-10.929	0.100
301.800	-5.816	0.100
301.900	-10.967	0.100
302.000	-4.902	0.100
302.100	1.182	0.100
302.200	-23.097	0.100
302.300	-33.495	0.100
302.400	-26.995	0.100
302.500	-9.787	0.100
302.600	5.308	0.100
302.700	0.682	0.100
302.800	-16.054	0.100
302.900	-5.943	0.100
303.000	-11.299	0.100
303.100	-33.984	0.100
303.200	-4.690	0.100
303.300	-0.625	0.100
303.400	-33.572	0.100
303.500	-17.205	0.100
303.600	-9.197	0.100
303.700	-25.763	0.100
303.800	-22.303	0.100
303.900	2.281	0.100
304.000	-21.056	0.100
304.100	-15.521	0.100
304.200	4.824	0.100
304.300	-19.607	0.100
304.400	-20.792	0.100
304.500	-6.520	0.100
304.600	-27.067	0.100
304.700	-20.923	0.100
304.800	-10.442	0.100
304.900	1.691	0.100
305.000	-44.546	0.100
305.100	-36.474	0.100
305.200	-4.771	0.100
305.300	-5.199	0.100
305.400	-4.918	0.100
305.500	-12.329	0.100
305.600	-26.948	0.100
305.700	-10.824	0.100
305.800	-33.019	0.100
305.900	13.961	0.100
306.000	-16.577	0.100
306.100	-15.987	0.100
306.200	-11.654	0.100
306.300	-21.978	0.100
306.400	-2.286	0.100
306.500	-16.831	0.100
306.600	1.083	0.100
306.700	-15.909	0.100
306.800	-36.950	0.100
306.900	-7.077	0.100
307.000	0.326	0.100
307.100	-13.797	0.100
307.200	-15.741	0.100
307.300	-14.257	0.100
307.400	-27.124	0.100
307.500	-3.689	0.100
307.600	-21.735	0.100
307.700	-0.908	0.100
307.800	-10.063	0.100
307.900	-11.384	0.100
308.000	-11.726	0.100
308.100	-10.671	0.100
308.200	4.803	0.100
308.300	-24.349	0.100
308.400	-15.190	0.100
308.500	-16.218	0.100
308.600	-3.422	0.100
308.700	-24.754	0.100
308.800	-10.531	0.100
308.900	-19.854	0.100
309.000	-22.446	0.100
309.100	-11.742	0.100
309.200	-15.120	0.100
309.300	-14.558	0.100
309.400	-5.783	0.100
309.500	-8.076	0.100
309.600	-4.137	0.100
309.700	-21.291	0.100
309.800	-1.669	0.100
309.900	-9.487	0.100
310.000	-15.820	0.100
310.100	-13.749	0.100
310.200	-16.143	0.100
310.300	4.168	0.100
310.400	-49.021	0.100
310.500	-16.121	0.100
310.600	-18.924	0.100
310.700	-10.718	0.100
310.800	-16.594	0.100
310.900	-25.132	0.099
311.000	-1.031	0.100
311.100	-14.091	0.100
311.200	1.123	0.099
311.300	-35.317	0.100
311.400	0.322	0.100
311.500	-32.187	0.099
311.600	6.705	0.100
311.700	-37.769	0.100
311.800	3.080	0.100
311.900	-11.464	0.100
312.000	-28.370	0.099
312.100	-23.665	0.099
312.200	-6.267	0.100
312.300	5.408	0.099
312.400	-30.513	0.099
312.500	-41.023	0.099
312.600	14.831	0.100
312.700	-19.805	0.099
312.800	-2.146	0.099
312.900	-17.887	0.099
313.000	-15.520	0.099
313.100	9.129	0.100
313.200	-13.517	0.099
313.300	-27.982	0.099
313.400	-0.728	0.099
313.500	-1.225	0.099
313.600	-26.470	0.099
313.700	-4.761	0.099
313.800	-43.207	0.099
313.900	-14.406	0.099
314.000	-6.393	0.099
314.100	-21.071	0.099
314.200	-2.826	0.099
314.300	-18.511	0.099
314.400	-7.363	0.099
314.500	10.086	0.099
314.600	-27.670	0.099
314.700	-5.932	0.099
314.800	-15.177	0.099
314.900	-20.555	0.099
315.000	-24.594	0.099
315.100	-11.647	0.099
315.200	-11.264	0.099
315.300	-20.989	0.099
315.400	-18.248	0.099
315.500	-19.893	0.099
315.600	0.226	0.099
315.700	-24.831	0.099
315.800	-30.636	0.099
315.900	-10.837	0.099
316.000	-33.876	0.100
316.100	-0.001	0.099
316.200	-16.630	0.099
316.300	-6.233	0.100
316.400	-21.099	0.099
316.500	-10.179	0.099
316.600	-25.322	0.099
316.700	-17.280	0.099
316.800	-29.110	0.099
316.900	4.040	0.099
317.000	-25.601	0.099
317.100	-15.737	0.099
317.200	-17.453	0.099
317.300	-6.568	0.099
317.400	-5.424	0.099
317.500	-12.376	0.099
317.600	-1.687	0.099
317.700	-7.925	0.099
317.800	-8.630	0.099
317.900	-26.312	0.099
318.000	-8.625	0.099
318.100	-28.035	0.099
318.200	-21.393	0.099
318.300	-1.016	0.099
318.400	-17.489	0.099
318.500	2.933	0.099
318.600	-3.868	0.099
318.700	-27.516	0.099
318.800	-15.238	0.099
318.900	-17.667	0.100
319.000	-13.549	0.099
319.100	-10.040	0.099
319.200	-17.074	0.099
319.300	6.977	0.099
319.400	-35.813	0.099
319.500	9.167	0.099
319.600	-3.249	0.100
319.700	-23.095	0.100
319.800	8.168	0.099
319.900	-22.921	0.099
320.000	-16.377	0.099
320.100	-10.637	0.099
320.200	-30.944	0.099
320.300	-9.469	0.099
320.400	-15.616	0.099
320.500	-24.306	0.099
320.600	-17.090	0.099
320.700	-7.492	0.099
320.800	-34.639	0.099
320.900	1.160	0.100
321.000	-4.057	0.099
321.100	4.741	0.099
321.200	-11.009	0.099
321.300	-10.396	0.099
321.400	8.206	0.099
321.500	-23.474	0.099
321.600	-6.558	0.099
321.700	-9.322	0.099
321.800	4.966	0.099
321.900	-17.362	0.099
322.000	-15.553	0.099
322.100	-15.492	0.099
322.200	-3.686	0.099
322.300	10.027	0.099
322.400	-14.190	0.099
322.500	-32.669	0.100
322.600	-9.230	0.099
322.700	-5.813	0.099
322.800	-8.395	0.099
322.900	9.596	0.099
323.000	-28.059	0.099
323.100	-4.393	0.099
323.200	-13.944	0.099
323.300	-22.141	0.100
323.400	-11.738	0.099
323.500	-7.753	0.099
323.600	7.845	0.099
323.700	-11.683	0.099
323.800	-27.773	0.099
323.900	-11.994	0.099
324.000	-5.224	0.099
324.100	-20.330	0.099
324.200	-1.275	0.099
324.300	-12.002	0.099
324.400	-6.064	0.099
324.500	-8.892	0.099
324.600	-12.754	0.100
324.700	-16.242	0.099
324.800	-6.339	0.099
324.900	1.731	0.099
325.000	-17.142	0.099
325.100	3.021	0.099
325.200	-12.583	0.099
325.300	-15.082	0.099
325.400	-15.769	0.099
325.500	-27.527	0.099
325.600	-10.032	0.099
325.700	-2.667	0.099
325.800	-11.169	0.099
325.900	-20.338	0.099
326.000	-24.106	0.099
326.100	-3.308	0.099
326.200	2.630	0.099
326.300	-0.305	0.099
326.400	-19.151	0.099
326.500	-31.419	0.099
326.600	-3.577	0.099
326.700	-11.062	0.099
326.800	-6.768	0.099
326.900	-15.973	0.099
327.000	-16.187	0.099
327.100	4.108	0.099
327.200	-27.257	0.099
327.300	-27.317	0.099
327.400	-18.336	0.099
327.500	-31.224	0.099
327.600	-8.283	0.099
327.700	-12.659	0.099
327.800	-12.179	0.099
327.900	24.659	0.099
328.000	-0.557	0.099
328.100	-23.418	0.100
328.200	-7.439	0.099
328.300	-12.242	0.099
328.400	-12.010	0.099
328.500	-15.929	0.099
328.600	5.243	0.099
328.700	-21.014	0.099
328.800	-2.052	0.099
328.900	-14.671	0.099
329.000	-10.206	0.099
329.100	-11.419	0.099
329.200	-11.744	0.099
329.300	-31.957	0.099
329.400	11.116	0.099
329.500	2.607	0.099
329.600	-16.276	0.099
329.700	7.013	0.099
329.800	-12.490	0.099
329.900	-20.772	0.099
330.000	-31.414	0.099
330.100	-20.856	0.099
330.200	-3.217	0.099
330.300	6.523	0.099
330.400	-3.107	0.099
330.500	3.272	0.099
330.600	4.873	0.099
330.700	6.700	0.099
330.800	25.860	0.099
330.900	10.567	0.099
331.000	-8.669	0.099
331.100	37.856	0.099
331.200	33.423	0.099
331.300	2.644	0.099
331.400	23.997	0.099
331.500	3.495	0.099
331.600	31.883	0.099
331.700	23.301	0.099
331.800	26.264	0.099
331.900	34.382	0.099
332.000	43.566	0.100
332.100	12.704	0.099
332.200	32.211	0.099
332.300	26.123	0.099
332.400	41.461	0.099
332.500	16.633	0.099
332.600	20.716	0.099
332.700	14.438	0.099
332.800	31.416	0.099
332.900	25.609	0.099
333.000	29.935	0.099
333.100	26.830	0.099
333.200	2.868	0.099
333.300	36.523	0.100
333.400	0.034	0.099
333.500	28.401	0.099
333.600	11.385	0.099
333.700	24.365	0.099
333.800	17.933	0.099
333.900	15.185	0.099
334.000	26.335	0.099
334.100	15.776	0.099
334.200	21.962	0.099
334.300	5.056	0.099
334.400	13.638	0.099
334.500	37.744	0.099
334.600	7.349	0.099
334.700	10.459	0.099
334.800	16.296	0.099
334.900	32.707	0.099
335.000	27.704	0.099
335.100	6.838	0.099
335.200	2.026	0.099
335.300	-13.669	0.099
335.400	30.890	0.099
335.500	37.512	0.099
335.600	4.999	0.099
335.700	21.473	0.099
335.800	30.356	0.099
335.900	22.591	0.099
336.000	31.480	0.099
336.100	-29.827	0.099
336.200	30.950	0.099
336.300	6.644	0.099
336.400	48.316	0.099
336.500	27.891	0.099
336.600	11.376	0.099
336.700	17.769	0.099
336.800	22.419	0.099
336.900	-10.076	0.099
337.000	23.685	0.099
337.100	28.155	0.099
337.200	18.710	0.099
337.300	7.381	0.099
337.400	23.099	0.099
337.500	24.349	0.099
337.600	24.681	0.099
337.700	15.062	0.099
337.800	24.600	0.099
337.900	36.003	0.099
338.000	22.405	0.099
338.100	4.773	0.099
338.200	30.435	0.099
338.300	32.969	0.099
338.400	19.297	0.099
338.500	9.944	0.099
338.600	30.406	0.099
338.700	26.849	0.099
338.800	8.539	0.099
338.900	22.889	0.099
339.000	41.635	0.099
339.100	27.598	0.099
339.200	22.946	0.099
339.300	28.714	0.099
339.400	29.137	0.099
339.500	28.114	0.099
339.600	36.911	0.099
339.700	22.362	0.099
339.800	24.208	0.099
339.900	30.144	0.099
340.000	32.026	0.099
340.100	32.239	0.099
340.200	18.784	0.099
340.300	26.074	0.099
340.400	43.818	0.099
340.500	16.710	0.099
340.600	31.928	0.099
340.700	22.583	0.099
340.800	45.925	0.099
340.900	26.465	0.099
341.000	35.373	0.099
341.100	31.197	0.099
341.200	44.634	0.099
341.300	39.695	0.099
341.400	23.523	0.099
341.500	38.754	0.099
341.600	30.498	0.099
341.700	37.349	0.099
341.800	26.965	0.099
341.900	53.614	0.099
342.000	26.138	0.099
342.100	29.276	0.099
342.200	18.158	0.099
342.300	38.035	0.099
342.400	43.371	0.099
342.500	25.297	0.099
342.600	38.471	0.099
342.700	45.147	0.099
342.800	40.401	0.099
342.900	24.754	0.099
343.000	41.896	0.099
343.100	42.780	0.099
343.200	28.651	0.099
343.300	12.814	0.099
343.400	60.615	0.099
343.500	17.270	0.099
343.600	31.184	0.099
343.700	32.629	0.099
343.800	36.276	0.099
343.900	24.111	0.099
344.000	21.392	0.099
344.100	74.520	0.099
344.200	43.820	0.099
344.300	17.450	0.099
344.400	48.023	0.099
344.500	42.793	0.099
344.600	33.284	0.099
344.700	57.524	0.099
344.800	37.272	0.099
344.900	35.154	0.099
345.000	39.951	0.099
345.100	31.602	0.099
345.200	46.170	0.099
345.300	33.856	0.099
345.400	53.316	0.099
345.500	22.300	0.100
345.600	48.584	0.099
345.700	34.370	0.099
345.800	54.341	0.099
345.900	29.554	0.099
346.000	44.477	0.099
346.100	40.909	0.099
346.200	41.942	0.099
346.300	38.745	0.099
346.400	44.627	0.099
346.500	42.421	0.099
346.600	29.446	0.099
346.700	53.340	0.100
346.800	40.093	0.100
346.900	28.579	0.099
347.000	36.018	0.099
347.100	56.916	0.099
347.200	48.410	0.099
347.300	37.183	0.099
347.400	48.025	0.099
347.500	41.679	0.099
347.600	55.572	0.099
347.700	58.415	0.099
347.800	41.427	0.100
347.900	42.158	0.099
348.000	30.058	0.099
348.100	47.865	0.099
348.200	55.470	0.099
348.300	32.768	0.099
348.400	56.945	0.099
348.500	25.187	0.099
348.600	46.382	0.099
348.700	36.021	0.099
348.800	14.865	0.099
348.900	69.442	0.099
349.000	38.874	0.099
349.100	62.652	0.099
349.200	34.218	0.099
349.300	21.109	0.099
349.400	47.018	0.099
349.500	56.160	0.099
349.600	59.504	0.099
349.700	39.376	0.100
349.800	70.345	0.099
349.900	27.808	0.099
350.000	53.373	0.099
350.100	73.138	0.099
350.200	44.486	0.099
350.300	40.178	0.099
350.400	46.924	0.099
350.500	16.879	0.099
350.600	32.639	0.099
350.700	51.577	0.099
350.800	43.747	0.099
350.900	42.120	0.099
351.000	29.749	0.099
351.100	54.457	0.099
351.200	41.910	0.099
351.300	31.044	0.099
351.400	34.151	0.099
351.500	56.245	0.099
351.600	45.679	0.099
351.700	23.569	0.099
351.800	50.580	0.099
351.900	28.641	0.099
352.000	42.215	0.099
352.100	52.038	0.099
352.200	45.153	0.099
352.300	39.268	0.099
352.400	48.513	0.099
352.500	53.644	0.099
352.600	32.036	0.099
352.700	43.950	0.099
352.800	40.472	0.099
352.900	38.240	0.099
353.000	35.199	0.099
353.100	48.882	0.099
353.200	58.418	0.099
353.300	28.490	0.099
353.400	15.033	0.099
353.500	40.438	0.099
353.600	57.560	0.099
353.700	30.824	0.099
353.800	28.803	0.099
353.900	55.911	0.099
354.000	44.676	0.100
354.100	50.369	0.099
354.200	27.161	0.099
354.300	42.714	0.099
354.400	46.992	0.099
354.500	51.840	0.099
354.600	26.841	0.099
354.700	34.106	0.099
354.800	47.576	0.099
354.900	39.853	0.099
355.000	45.611	0.099
355.100	34.849	0.099
355.200	36.979	0.099
355.300	47.941	0.099
355.400	36.452	0.099
355.500	46.096	0.099
355.600	37.410	0.099
355.700	43.208	0.099
355.800	67.254	0.099
355.900	48.033	0.099
356.000	17.936	0.099
356.100	35.789	0.099
356.200	34.281	0.099
356.300	40.366	0.099
356.400	33.209	0.099
356.500	64.656	0.099
356.600	47.577	0.099
356.700	50.955	0.099
356.800	29.370	0.099
356.900	50.892	0.099
357.000	26.110	0.100
357.100	51.775	0.100
357.200	38.111	0.099
357.300	34.951	0.099
357.400	48.642	0.099
357.500	41.967	0.099
357.600	55.129	0.099
357.700	35.516	0.099
357.800	40.852	0.099
357.900	39.558	0.099
358.000	45.463	0.099
358.100	36.828	0.099
358.200	30.386	0.099
358.300	44.654	0.099
358.400	13.793	0.099
358.500	66.247	0.099
358.600	47.026	0.099
358.700	44.771	0.099
358.800	18.499	0.099
358.900	56.095	0.099
359.000	48.752	0.099
359.100	43.494	0.099
359.200	48.373	0.099
359.300	48.001	0.099
359.400	54.168	0.099
359.500	28.929	0.099
359.600	33.083	0.099
359.700	43.501	0.100
359.800	37.306	0.099
359.900	54.081	0.099
360.000	50.873	0.099
360.100	36.910	0.099
360.200	50.399	0.099
360.300	21.516	0.099
360.400	32.866	0.099
360.500	50.538	0.099
360.600	39.212	0.099
360.700	40.532	0.099
360.800	45.679	0.099
360.900	37.909	0.099
361.000	40.949	0.099
361.100	39.393	0.099
361.200	36.434	0.099
361.300	47.823	0.099
361.400	47.229	0.099
361.500	42.620	0.099
361.600	44.068	0.099
361.700	35.602	0.099
361.800	41.011	0.099
361.900	39.032	0.099
362.000	36.254	0.099
362.100	27.203	0.099
362.200	50.259	0.100
362.300	33.323	0.099
362.400	36.418	0.099
362.500	34.570	0.099
362.600	34.197	0.099
362.700	46.220	0.099
362.800	36.088	0.099
362.900	44.703	0.099
363.000	36.513	0.099
363.100	30.897	0.099
363.200	30.472	0.099
363.300	69.308	0.099
363.400	48.813	0.100
363.500	54.433	0.099
363.600	37.587	0.099
363.700	59.745	0.099
363.800	24.771	0.099
363.900	55.037	0.099
364.000	38.161	0.099
364.100	34.286	0.099
364.200	43.128	0.099
364.300	36.983	0.099
364.400	56.832	0.099
364.500	32.517	0.099
364.600	36.616	0.099
364.700	43.141	0.099
364.800	32.058	0.100
364.900	29.792	0.099
365.000	30.122	0.099
365.100	29.815	0.099
365.200	22.891	0.099
365.300	57.536	0.099
365.400	55.057	0.099
365.500	31.284	0.099
365.600	39.085	0.099
365.700	27.526	0.099
365.800	32.772	0.099
365.900	21.690	0.099
366.000	56.498	0.100
366.100	52.408	0.099
366.200	40.397	0.099
366.300	48.228	0.099
366.400	25.580	0.099
366.500	30.719	0.099
366.600	49.937	0.099
366.700	31.897	0.099
366.800	33.704	0.099
366.900	42.241	0.099
367.000	30.680	0.099
367.100	37.232	0.099
367.200	46.381	0.099
367.300	23.132	0.099
367.400	40.797	0.099
367.500	61.235	0.099
367.600	36.993	0.099
367.700	39.660	0.099
367.800	37.339	0.099
367.900	40.569	0.099
368.000	28.124	0.099
368.100	54.115	0.099
368.200	33.579	0.099
368.300	33.759	0.099
368.400	50.734	0.099
368.500	47.034	0.099
368.600	30.280	0.099
368.700	26.076	0.099
368.800	30.829	0.099
368.900	34.838	0.099
369.000	37.753	0.099
369.100	45.395	0.099
369.200	42.495	0.099
369.300	56.213	0.099
369.400	32.516	0.099
369.500	36.511	0.099
369.600	35.236	0.099
369.700	40.210	0.100
369.800	61.343	0.099
369.900	51.802	0.099
370.000	23.820	0.099
370.100	37.896	0.099
370.200	23.198	0.100
370.300	54.424	0.099
370.400	40.154	0.099
370.500	32.377	0.099
370.600	24.273	0.099
370.700	52.151	0.099
370.800	38.641	0.099
370.900	25.863	0.099
371.000	20.640	0.099
371.100	51.589	0.099
371.200	35.824	0.099
371.300	50.710	0.099
371.400	18.463	0.099
371.500	32.144	0.099
371.600	60.741	0.099
371.700	48.301	0.099
371.800	47.206	0.099
371.900	24.084	0.099
372.000	43.166	0.099
372.100	39.756	0.099
372.200	19.822	0.099
372.300	40.439	0.100
372.400	33.748	0.099
372.500	30.894	0.099
372.600	45.089	0.100
372.700	41.930	0.099
372.800	30.865	0.099
372.900	38.725	0.099
373.000	61.777	0.099
373.100	40.345	0.099
373.200	27.936	0.099
373.300	31.682	0.099
373.400	57.957	0.100
373.500	36.455	0.099
373.600	22.751	0.099
373.700	39.870	0.100
373.800	33.750	0.099
373.900	39.909	0.099
374.000	39.410	0.100
374.100	38.789	0.099
374.200	41.463	0.099
374.300	51.070	0.100
374.400	38.698	0.099
374.500	42.875	0.100
374.600	35.207	0.099
374.700	21.431	0.099
374.800	41.411	0.099
374.900	38.136	0.099
375.000	24.262	0.099
375.100	31.320	0.099
375.200	54.966	0.099
375.300	41.703	0.099
375.400	30.506	0.099
375.500	27.265	0.099
375.600	30.373	0.099
375.700	49.484	0.099
375.800	34.266	0.099
375.900	34.985	0.099
376.000	46.492	0.099
376.100	14.442	0.099
376.200	44.254	0.099
376.300	42.297	0.100
376.400	30.056	0.099
376.500	27.168	0.099
376.600	66.282	0.099
376.700	33.427	0.099
376.800	48.629	0.099
376.900	31.674	0.099
377.000	44.096	0.099
377.100	25.740	0.099
377.200	20.853	0.099
377.300	52.855	0.099
377.400	32.717	0.099
377.500	49.751	0.099
377.600	38.867	0.099
377.700	25.408	0.099
377.800	39.891	0.099
377.900	40.681	0.099
378.000	39.039	0.099
378.100	26.752	0.099
378.200	50.333	0.099
378.300	37.098	0.100
378.400	37.410	0.100
378.500	35.623	0.099
378.600	22.894	0.100
378.700	47.185	0.099
378.800	8.791	0.099
378.900	30.261	0.099
379.000	51.480	0.099
379.100	33.275	0.099
379.200	60.845	0.099
379.300	44.062	0.099
379.400	36.796	0.099
379.500	62.419	0.100
379.600	35.586	0.100
379.700	24.740	0.099
379.800	25.695	0.099
379.900	36.864	0.099
380.000	43.576	0.099
380.100	34.066	0.099
380.200	23.536	0.099
380.300	76.941	0.099
380.400	19.628	0.099
380.500	35.586	0.099
380.600	44.094	0.099
380.700	51.841	0.099
380.800	33.051	0.099
380.900	26.873	0.099
381.000	37.935	0.099
381.100	42.629	0.099
381.200	35.611	0.099
381.300	24.745	0.099
381.400	48.074	0.099
381.500	44.705	0.099
381.600	48.228	0.099
381.700	31.336	0.099
381.800	28.999	0.099
381.900	40.311	0.099
382.000	41.109	0.099
382.100	46.713	0.099
382.200	54.819	0.099
382.300	37.370	0.099
382.400	2.409	0.099
382.500	50.735	0.099
382.600	14.008	0.099
382.700	52.890	0.099
382.800	43.540	0.099
382.900	30.665	0.099
383.000	49.191	0.099
383.100	46.615	0.099
383.200	30.458	0.099
383.300	10.705	0.099
383.400	36.569	0.099
383.500	41.717	0.099
383.600	42.206	0.099
383.700	59.527	0.099
383.800	32.634	0.099
383.900	40.815	0.099
384.000	45.949	0.099
384.100	28.386	0.099
384.200	25.464	0.099
384.300	57.706	0.099
384.400	43.563	0.099
384.500	27.805	0.099
384.600	25.209	0.099
384.700	38.256	0.099
384.800	53.120	0.099
384.900	36.484	0.099
385.000	23.992	0.099
385.100	34.021	0.099
385.200	25.897	0.099
385.300	62.800	0.099
385.400	33.511	0.099
385.500	39.987	0.099
385.600	37.803	0.099
385.700	25.009	0.099
385.800	43.770	0.099
385.900	31.076	0.099
386.000	32.853	0.099
386.100	56.877	0.099
386.200	38.804	0.099
386.300	46.447	0.099
386.400	17.796	0.099
386.500	47.502	0.099
386.600	31.825	0.099
386.700	48.915	0.099
386.800	42.422	0.099
386.900	57.278	0.099
387.000	40.704	0.099
387.100	29.529	0.099
387.200	42.262	0.099
387.300	36.986	0.099
387.400	37.468	0.099
387.500	49.219	0.099
387.600	21.717	0.099
387.700	34.479	0.099
387.800	31.524	0.099
387.900	30.472	0.099
388.000	34.706	0.099
388.100	49.534	0.099
388.200	38.654	0.099
388.300	30.665	0.099
388.400	41.703	0.099
388.500	54.313	0.099
388.600	44.763	0.099
388.700	43.332	0.099
388.800	21.052	0.099
388.900	35.569	0.099
389.000	37.708	0.099
389.100	32.555	0.099
389.200	28.818	0.099
389.300	29.897	0.099
389.400	31.283	0.099
389.500	45.383	0.099
389.600	41.791	0.099
389.700	16.247	0.099
389.800	49.253	0.099
389.900	36.152	0.099
390.000	36.480	0.099
390.100	35.443	0.099
390.200	44.554	0.099
390.300	30.409	0.099
390.400	22.099	0.099
390.500	10.119	0.099
390.600	15.308	0.099
390.700	31.939	0.099
390.800	30.193	0.099
390.900	17.259	0.099
391.000	21.804	0.100
391.100	5.739	0.099
391.200	25.167	0.099
391.300	-11.941	0.099
391.400	9.528	0.099
391.500	3.764	0.099
391.600	23.431	0.099
391.700	-15.852	0.099
391.800	4.773	0.099
391.900	3.471	0.099
392.000	-6.135	0.099
392.100	3.395	0.099
392.200	10.043	0.099
392.300	1.145	0.099
392.400	-7.386	0.099
392.500	4.051	0.099
392.600	-2.250	0.099
392.700	-16.216	0.099
392.800	-1.263	0.099
392.900	-3.911	0.099
393.000	2.551	0.099
393.100	-9.288	0.099
393.200	2.331	0.099
393.300	-26.313	0.099
393.400	-9.095	0.099
393.500	-0.453	0.099
393.600	-5.409	0.099
393.700	-5.638	0.099
393.800	-12.835	0.099
393.900	4.386	0.099
394.000	-4.695	0.099
394.100	-3.539	0.099
394.200	-19.688	0.099
394.300	-0.158	0.099
394.400	-10.036	0.099
394.500	-0.863	0.099
394.600	2.044	0.099
394.700	-27.299	0.099
394.800	-1.093	0.099
394.900	0.101	0.099
395.000	0.612	0.099
395.100	-8.855	0.099
395.200	-11.734	0.099
395.300	-6.105	0.099
395.400	13.074	0.099
395.500	-38.472	0.099
395.600	19.741	0.099
395.700	-17.869	0.099
395.800	-5.074	0.099
395.900	-8.499	0.099
396.000	-17.721	0.099
396.100	-14.482	0.099
396.200	-21.936	0.099
396.300	-5.956	0.099
396.400	-19.749	0.099
396.500	-5.653	0.099
396.600	-9.353	0.099
396.700	-17.921	0.099
396.800	-25.526	0.099
396.900	-17.477	0.099
397.000	-27.571	0.099
397.100	-5.237	0.100
397.200	-5.913	0.099
397.300	-29.800	0.100
397.400	-17.197	0.099
397.500	-3.124	0.099
397.600	-28.835	0.099
397.700	2.124	0.099
397.800	-11.367	0.099
397.900	-19.851	0.099
398.000	0.930	0.099
398.100	-11.957	0.099
398.200	-24.138	0.099
398.300	10.292	0.099
398.400	-8.627	0.099
398.500	-25.463	0.099
398.600	-19.973	0.099
398.700	-7.746	0.099
398.800	-13.418	0.099
398.900	-21.865	0.099
399.000	5.490	0.099
399.100	-9.003	0.099
399.200	-8.296	0.099
399.300	0.223	0.099
399.400	-1.822	0.100
399.500	-11.544	0.099
399.600	-14.330	0.099
399.700	-24.900	0.099
399.800	-10.380	0.099
399.900	4.371	0.100
400.000	-12.671	0.099
400.100	-23.725	0.099
400.200	-39.822	0.099
400.300	-34.728	0.099
400.400	-16.385	0.099
400.500	-13.236	0.099
400.600	-11.761	0.099
400.700	4.907	0.099
400.800	-34.233	0.099
400.900	-5.744	0.099
401.000	-8.480	0.099
401.100	-20.913	0.099
401.200	-25.940	0.099
401.300	21.530	0.099
401.400	-18.940	0.099
401.500	-27.213	0.099
401.600	-1.270	0.099
401.700	-11.555	0.099
401.800	-7.239	0.100
401.900	-17.083	0.099
402.000	-10.105	0.100
402.100	-15.712	0.099
402.200	-36.887	0.100
402.300	-0.144	0.099
402.400	-31.100	0.099
402.500	-10.008	0.099
402.600	-33.280	0.099
402.700	-4.726	0.099
402.800	-40.150	0.099
402.900	4.283	0.099
403.000	4.757	0.099
403.100	-6.022	0.099
403.200	-19.126	0.099
403.300	-27.962	0.099
403.400	5.497	0.099
403.500	-27.951	0.099
403.600	10.605	0.099
403.700	-16.374	0.099
403.800	-13.582	0.099
403.900	-12.748	0.099
404.000	-15.875	0.099
404.100	-13.577	0.099
404.200	-19.064	0.099
404.300	-14.052	0.099
404.400	-5.423	0.099
404.500	-9.327	0.099
404.600	-16.446	0.099
404.700	-13.777	0.099
404.800	-35.290	0.099
404.900	-13.915	0.099
405.000	-5.990	0.099
405.100	-24.732	0.099
405.200	-14.426	0.099
405.300	-26.618	0.099
405.400	-26.516	0.099
405.500	10.180	0.099
405.600	-15.263	0.099
405.700	-8.373	0.099
405.800	-24.939	0.099
405.900	-7.574	0.099
406.000	-21.713	0.099
406.100	-15.623	0.099
406.200	4.519	0.099
406.300	-16.998	0.099
406.400	-9.938	0.099
406.500	-9.001	0.099
406.600	-22.462	0.099
406.700	-29.298	0.100
406.800	-12.304	0.099
406.900	-25.565	0.099
407.000	-18.819	0.099
407.100	-22.677	0.099
407.200	-6.945	0.099
407.300	-30.450	0.099
407.400	-23.873	0.099
407.500	-15.552	0.099
407.600	-14.498	0.099
407.700	-12.716	0.100
407.800	-3.913	0.099
407.900	-22.492	0.099
408.000	-31.965	0.099
408.100	-21.505	0.099
408.200	-17.964	0.099
408.300	-2.044	0.099
408.400	-27.706	0.099
408.500	-30.700	0.099
408.600	-17.243	0.099
408.700	-3.429	0.099
408.800	-13.290	0.099
408.900	-27.492	0.099
409.000	-18.168	0.099
409.100	-26.359	0.099
409.200	-14.899	0.099
409.300	-36.991	0.099
409.400	-2.226	0.099
409.500	-8.894	0.099
409.600	-32.475	0.099
409.700	-12.597	0.099
409.800	-15.378	0.099
409.900	-22.671	0.099
410.000	-31.464	0.099
410.100	-17.066	0.099
410.200	-19.538	0.099
410.300	-15.867	0.099
410.400	-36.010	0.099
410.500	-12.939	0.099
410.600	-18.425	0.099
410.700	-28.103	0.099
410.800	-34.860	0.099
410.900	-18.322	0.099
411.000	2.858	0.099
411.100	-17.477	0.099
411.200	-15.367	0.099
411.300	-21.589	0.099
411.400	-24.902	0.099
411.500	-3.414	0.099
411.600	-19.292	0.099
411.700	-4.662	0.099
411.800	-16.229	0.099
411.900	-13.359	0.099
412.000	-34.476	0.099
412.100	-3.515	0.099
412.200	-14.194	0.099
412.300	-24.809	0.099
412.400	-2.535	0.099
412.500	-25.168	0.099
412.600	-24.396	0.099
412.700	-8.895	0.099
412.800	-8.656	0.099
412.900	-31.188	0.099
413.000	-38.457	0.099
413.100	-17.097	0.099
413.200	-28.202	0.099
413.300	-10.291	0.099
413.400	-9.533	0.099
413.500	-7.834	0.099
413.600	-21.514	0.099
413.700	-32.416	0.099
413.800	-22.223	0.099
413.900	6.025	0.099
414.000	-27.502	0.100
414.100	-10.497	0.099
414.200	-28.342	0.099
414.300	-29.135	0.099
414.400	-13.384	0.099
414.500	-22.644	0.099
414.600	4.154	0.099
414.700	-8.096	0.099
414.800	-39.645	0.099
414.900	-5.011	0.100
415.000	-15.673	0.099
415.100	-13.404	0.099
415.200	-30.563	0.099
415.300	-21.575	0.099
415.400	-28.663	0.099
415.500	-13.451	0.099
415.600	-6.411	0.099
415.700	-22.014	0.099
415.800	-21.898	0.099
415.900	-13.776	0.099
416.000	-24.246	0.099
416.100	-19.916	0.099
416.200	-16.946	0.099
416.300	-18.413	0.099
416.400	-9.910	0.099
416.500	-12.450	0.099
416.600	-11.096	0.099
416.700	-18.287	0.099
416.800	-35.749	0.099
416.900	-41.667	0.099
417.000	-6.434	0.099
417.100	-21.311	0.099
417.200	-18.722	0.099
417.300	-13.406	0.100
417.400	-32.233	0.100
417.500	5.626	0.100
417.600	-30.778	0.099
417.700	-12.096	0.099
417.800	-43.369	0.100
417.900	-46.131	0.099
418.000	-8.617	0.099
418.100	-32.384	0.099
418.200	-33.963	0.099
418.300	-0.040	0.099
418.400	-26.308	0.099
418.500	-27.834	0.099
418.600	-18.890	0.099
418.700	-26.551	0.099
418.800	-8.685	0.099
418.900	-15.232	0.099
419.000	-27.519	0.099
419.100	-17.596	0.099
419.200	6.015	0.099
419.300	-10.485	0.099
419.400	-26.702	0.100
419.500	-27.190	0.099
419.600	-15.463	0.099
419.700	-18.922	0.099
419.800	-38.397	0.099
419.900	-29.949	0.099
420.000	-20.678	0.099
420.100	-27.880	0.099
420.200	-22.365	0.099
420.300	-11.779	0.099
420.400	-20.949	0.099
420.500	-16.337	0.099
420.600	-34.387	0.099
420.700	-24.673	0.099
420.800	-9.647	0.099
420.900	-28.565	0.099
421.000	-17.965	0.099
421.100	-25.605	0.099
421.200	-21.076	0.099
421.300	-47.345	0.099
421.400	-32.157	0.099
421.500	-12.024	0.099
421.600	-30.347	0.099
421.700	-14.121	0.099
421.800	-33.937	0.099
421.900	-30.107	0.100
422.000	-25.092	0.099
422.100	-22.834	0.099
422.200	-24.005	0.099
422.300	-2.099	0.099
422.400	-28.803	0.099
422.500	-31.412	0.099
422.600	-30.075	0.099
422.700	-9.858	0.099
422.800	-19.251	0.099
422.900	-17.165	0.099
423.000	-27.537	0.099
423.100	-30.855	0.099
423.200	7.924	0.099
423.300	-12.805	0.099
423.400	-40.689	0.099
423.500	-27.241	0.099
423.600	-8.385	0.100
423.700	-8.822	0.100
423.800	-33.539	0.099
423.900	-11.691	0.099
424.000	-28.558	0.099
424.100	-13.245	0.099
424.200	-4.745	0.099
424.300	-19.196	0.099
424.400	-40.104	0.100
424.500	-12.017	0.099
424.600	-22.214	0.099
424.700	-49.368	0.099
424.800	-27.948	0.099
424.900	8.466	0.099
425.000	-22.089	0.099
425.100	-16.643	0.099
425.200	-51.521	0.099
425.300	-0.109	0.099
425.400	-29.394	0.099
425.500	-39.716	0.099
425.600	-27.912	0.099
425.700	-18.668	0.099
425.800	-17.438	0.099
425.900	-17.023	0.099
426.000	-29.674	0.099
426.100	-16.144	0.099
426.200	-14.406	0.099
426.300	-20.009	0.099
426.400	-3.845	0.099
426.500	-31.506	0.099
426.600	-22.891	0.099
426.700	-8.023	0.099
426.800	-31.818	0.099
426.900	-47.905	0.099
427.000	-34.871	0.099
427.100	-5.901	0.099
427.200	0.710	0.099
427.300	-35.065	0.099
427.400	-13.901	0.099
427.500	-31.123	0.099
427.600	-21.111	0.099
427.700	-17.964	0.099
427.800	-10.073	0.099
427.900	1.028	0.099
428.000	-14.714	0.099
428.100	-34.772	0.099
428.200	-33.181	0.099
428.300	-10.606	0.099
428.400	-5.296	0.099
428.500	-13.021	0.099
428.600	-15.472	0.099
428.700	-13.788	0.099
428.800	-22.810	0.099
428.900	-13.530	0.099
429.000	-41.777	0.099
429.100	-8.671	0.099
429.200	-8.515	0.099
429.300	-29.918	0.100
429.400	-18.882	0.099
429.500	-25.891	0.099
429.600	-15.788	0.099
429.700	-19.820	0.099
429.800	-16.122	0.099
429.900	-31.118	0.099
430.000	-23.666	0.099
430.100	-19.728	0.099
430.200	-42.904	0.099
430.300	-29.976	0.099
430.400	-1.899	0.099
430.500	-22.860	0.099
430.600	-6.113	0.099
430.700	-21.242	0.099
430.800	-33.132	0.099
430.900	-10.909	0.099
431.000	-13.774	0.099
431.100	-7.496	0.099
431.200	4.635	0.099
431.300	-47.166	0.099
431.400	-36.839	0.099
431.500	5.795	0.099
431.600	-12.339	0.099
431.700	-23.279	0.099
431.800	-27.214	0.099
431.900	5.026	0.099
432.000	-47.449	0.099
432.100	-16.035	0.099
432.200	-31.811	0.099
432.300	-11.633	0.099
432.400	-32.961	0.099
432.500	-16.949	0.099
432.600	-20.718	0.099
432.700	-7.403	0.099
432.800	-27.275	0.099
432.900	-24.874	0.099
433.000	-20.034	0.099
433.100	-8.289	0.099
433.200	-10.886	0.099
433.300	-18.221	0.099
433.400	-29.948	0.099
433.500	-7.382	0.099
433.600	-26.431	0.099
433.700	-34.370	0.099
433.800	-38.215	0.099
433.900	-1.149	0.099
434.000	-13.948	0.099
434.100	-22.940	0.099
434.200	-23.105	0.099
434.300	1.407	0.099
434.400	-13.283	0.099
434.500	-22.309	0.099
434.600	-4.755	0.099
434.700	-19.221	0.099
434.800	-4.680	0.099
434.900	-1.471	0.099
435.000	-21.809	0.099
435.100	-25.237	0.099
435.200	-15.841	0.099
435.300	-34.497	0.099
435.400	-6.571	0.099
435.500	1.064	0.099
435.600	-33.789	0.099
435.700	-23.541	0.099
435.800	-38.925	0.099
435.900	-17.296	0.099
436.000	-39.646	0.099
436.100	-7.948	0.099
436.200	-31.961	0.099
436.300	-20.680	0.099
436.400	23.993	0.099
436.500	-28.423	0.099
436.600	-18.080	0.099
436.700	-17.579	0.099
436.800	-5.773	0.100
436.900	-21.872	0.099
437.000	4.918	0.099
437.100	-28.430	0.099
437.200	-38.134	0.099
437.300	-8.111	0.099
437.400	-12.285	0.099
437.500	-10.171	0.099
437.600	-23.608	0.099
437.700	-13.851	0.099
437.800	-24.526	0.099
437.900	-37.931	0.099
438.000	-24.763	0.099
438.100	-39.920	0.099
438.200	-3.415	0.099
438.300	-4.808	0.099
438.400	-4.389	0.099
438.500	-25.993	0.099
438.600	-20.701	0.099
438.700	-15.003	0.099
438.800	-18.444	0.099
438.900	-25.058	0.099
439.000	-14.722	0.099
439.100	-11.524	0.099
439.200	-16.708	0.099
439.300	-38.683	0.099
439.400	-15.146	0.099
439.500	-18.383	0.099
439.600	-16.418	0.099
439.700	-16.266	0.099
439.800	3.808	0.100
439.900	4.883	0.099
440.000	-21.589	0.099
440.100	-34.034	0.099
440.200	-7.734	0.099
440.300	-32.480	0.099
440.400	-15.432	0.099
440.500	-22.272	0.099
440.600	-21.267	0.099
440.700	-14.411	0.099
440.800	-19.546	0.100
440.900	-13.415	0.099
441.000	-19.214	0.100
441.100	-14.396	0.099
441.200	-16.113	0.099
441.300	-16.012	0.100
441.400	-20.286	0.099
441.500	-23.829	0.099
441.600	3.079	0.099
441.700	-7.616	0.099
441.800	1.604	0.099
441.900	-21.849	0.099
442.000	-18.617	0.099
442.100	-35.832	0.099
442.200	-4.741	0.099
442.300	-30.296	0.099
442.400	-14.517	0.099
442.500	-18.292	0.099
442.600	-22.466	0.099
442.700	-2.251	0.099
442.800	-19.638	0.099
442.900	-19.585	0.099
443.000	-20.575	0.099
443.100	10.612	0.099
443.200	-21.114	0.099
443.300	-22.753	0.099
443.400	-24.971	0.099
443.500	-10.909	0.099
443.600	-12.387	0.099
443.700	-17.649	0.099
443.800	10.153	0.099
443.900	-30.213	0.099
444.000	-36.725	0.099
444.100	-23.146	0.099
444.200	-20.588	0.099
444.300	0.871	0.099
444.400	-12.247	0.099
444.500	-10.020	0.099
444.600	-42.466	0.099
444.700	-6.762	0.099
444.800	-12.149	0.099
444.900	-40.798	0.099
445.000	-27.492	0.099
445.100	-15.326	0.099
445.200	-4.855	0.099
445.300	-17.874	0.099
445.400	-9.526	0.099
445.500	-17.960	0.099
445.600	-10.466	0.099
445.700	-14.927	0.099
445.800	-32.864	0.099
445.900	-25.397	0.099
446.000	-26.927	0.099
446.100	-14.589	0.099
446.200	-13.647	0.099
446.300	-26.501	0.099
446.400	-12.172	0.099
446.500	-16.277	0.099
446.600	-19.133	0.099
446.700	-6.600	0.099
446.800	-17.768	0.099
446.900	-17.253	0.099
447.000	-5.376	0.099
447.100	-21.997	0.099
447.200	-35.426	0.099
447.300	-20.927	0.099
447.400	-15.773	0.099
447.500	-14.103	0.099
447.600	-18.855	0.099
447.700	-16.415	0.099
447.800	-9.651	0.099
447.900	-7.786	0.099
448.000	-13.702	0.099
448.100	-34.830	0.099
448.200	-21.679	0.099
448.300	5.774	0.099
448.400	-15.234	0.099
448.500	-31.693	0.099
448.600	-20.168	0.099
448.700	-17.257	0.099
448.800	-25.571	0.099
448.900	-13.427	0.099
449.000	-9.787	0.099
449.100	-30.335	0.099
449.200	-12.758	0.099
449.300	-23.694	0.099
449.400	-26.517	0.099
449.500	-16.462	0.099
449.600	-35.860	0.099
449.700	-20.214	0.099
449.800	-7.248	0.099
449.900	-4.338	0.099
450.000	-30.461	0.099
450.100	3.022	0.099
450.200	-5.332	0.099
450.300	-18.068	0.099
450.400	-19.829	0.099
450.500	2.340	0.099
450.600	-12.994	0.099
450.700	-21.337	0.099
450.800	-29.157	0.099
450.900	-0.232	0.099
451.000	-14.131	0.099
451.100	0.931	0.099
451.200	-13.030	0.099
451.300	-12.873	0.099
451.400	-13.796	0.099
451.500	-19.593	0.099
451.600	-20.623	0.099
451.700	-26.517	0.099
451.800	-18.417	0.099
451.900	-0.982	0.099
452.000	-20.733	0.099
452.100	-3.417	0.099
452.200	-9.674	0.099
452.300	-15.658	0.099
452.400	-12.069	0.099
452.500	-32.593	0.099
452.600	-10.245	0.099
452.700	-20.063	0.099
452.800	-10.509	0.099
452.900	0.319	0.099
453.000	-3.696	0.099
453.100	-25.290	0.099
453.200	-16.713	0.099
453.300	2.670	0.099
453.400	6.596	0.099
453.500	-13.977	0.099
453.600	-29.209	0.100
453.700	-14.248	0.099
453.800	-10.207	0.099
453.900	-8.752	0.099
454.000	-9.704	0.099
454.100	-20.096	0.099
454.200	-10.108	0.099
454.300	-21.119	0.099
454.400	-19.593	0.099
454.500	-18.854	0.099
454.600	-24.987	0.099
454.700	-18.960	0.099
454.800	-17.740	0.099
454.900	-9.036	0.099
455.000	-2.122	0.099
455.100	-46.459	0.099
455.200	-2.449	0.099
455.300	-10.680	0.099
455.400	-23.301	0.099
455.500	-11.705	0.099
455.600	-24.768	0.099
455.700	-17.259	0.099
455.800	-14.690	0.099
455.900	3.822	0.099
456.000	-28.564	0.100
456.100	-1.794	0.099
456.200	-24.221	0.099
456.300	-26.344	0.099
456.400	6.278	0.099
456.500	-22.225	0.099
456.600	-23.862	0.099
456.700	-1.363	0.099
456.800	-16.128	0.100
456.900	-21.139	0.099
457.000	-21.060	0.099
457.100	-6.795	0.099
457.200	-21.051	0.099
457.300	-12.578	0.099
457.400	-10.175	0.099
457.500	-15.562	0.099
457.600	-20.216	0.099
457.700	-18.506	0.099
457.800	-14.271	0.099
457.900	-17.234	0.099
458.000	-27.516	0.099
458.100	-31.493	0.099
458.200	3.052	0.099
458.300	-12.414	0.099
458.400	-0.486	0.099
458.500	1.951	0.099
458.600	-27.276	0.099
458.700	-8.974	0.099
458.800	-11.676	0.100
458.900	-15.340	0.099
459.000	-37.515	0.099
459.100	-8.154	0.099
459.200	-31.543	0.099
459.300	-13.108	0.099
459.400	0.505	0.099
459.500	-26.546	0.099
459.600	-17.526	0.099
459.700	-22.013	0.099
459.800	-24.835	0.099
459.900	-4.189	0.099
460.000	-10.408	0.099
460.100	-21.172	0.099
460.200	-11.140	0.099
460.300	-16.471	0.099
460.400	-8.346	0.099
460.500	-10.712	0.099
460.600	-7.489	0.099
460.700	-15.532	0.099
460.800	-18.508	0.099
460.900	-25.218	0.099
461.000	-4.279	0.099
461.100	-25.480	0.099
461.200	-0.973	0.099
461.300	-36.509	0.099
461.400	-14.313	0.099
461.500	4.886	0.099
461.600	-8.823	0.099
461.700	23.670	0.099
461.800	-23.258	0.099
461.900	-4.685	0.099
462.000	2.298	0.099
462.100	-26.410	0.100
462.200	-17.288	0.099
462.300	-6.788	0.099
462.400	-19.968	0.099
462.500	-26.672	0.099
462.600	-12.298	0.099
462.700	-9.483	0.099
462.800	-7.201	0.099
462.900	-23.928	0.099
463.000	1.545	0.099
463.100	-13.871	0.099
463.200	-14.101	0.099
463.300	-12.826	0.099
463.400	-24.862	0.099
463.500	-14.571	0.099
463.600	-6.130	0.099
463.700	-26.167	0.099
463.800	-10.040	0.099
463.900	-35.368	0.099
464.000	-10.258	0.099
464.100	-6.824	0.099
464.200	-11.410	0.099
464.300	-6.687	0.099
464.400	-19.115	0.099
464.500	-3.726	0.099
464.600	-23.775	0.099
464.700	-11.417	0.099
464.800	-4.386	0.099
464.900	-27.350	0.099
465.000	-10.363	0.099
465.100	-14.112	0.099
465.200	-21.621	0.099
465.300	-18.578	0.099
465.400	6.187	0.099
465.500	-7.947	0.099
465.600	-16.409	0.099
465.700	-0.609	0.099
465.800	-17.830	0.099
465.900	2.447	0.099
466.000	-13.171	0.099
466.100	-20.508	0.099
466.200	-2.094	0.099
466.300	-20.403	0.099
466.400	14.866	0.100
466.500	-20.847	0.099
466.600	-7.678	0.099
466.700	-27.221	0.099
466.800	3.300	0.099
466.900	-33.426	0.099
467.000	-9.165	0.100
467.100	-33.570	0.099
467.200	-19.345	0.099
467.300	-6.456	0.099
467.400	-9.179	0.099
467.500	-8.184	0.099
467.600	-4.233	0.099
467.700	0.845	0.099
467.800	-18.159	0.099
467.900	-26.335	0.099
468.000	-27.955	0.099
468.100	-14.899	0.099
468.200	-20.317	0.099
468.300	-16.163	0.099
468.400	-15.699	0.099
468.500	-3.049	0.099
468.600	-7.920	0.099
468.700	-3.847	0.099
468.800	-27.665	0.099
468.900	-24.907	0.099
469.000	-19.338	0.099
469.100	-21.348	0.099
469.200	2.207	0.099
469.300	-11.827	0.099
469.400	-6.561	0.099
469.500	-31.293	0.099
469.600	-21.611	0.100
469.700	7.752	0.099
469.800	-19.568	0.099
469.900	-5.293	0.099
470.000	-11.236	0.099
470.100	-26.792	0.099
470.200	10.223	0.099
470.300	-2.602	0.099
470.400	-9.103	0.099
470.500	-1.486	0.099
470.600	-33.512	0.099
470.700	10.675	0.099
470.800	3.335	0.099
470.900	1.324	0.099
471.000	-24.321	0.099
471.100	-14.119	0.099
471.200	-9.401	0.099
471.300	3.273	0.099
471.400	-6.453	0.099
471.500	-6.764	0.099
471.600	-10.117	0.099
471.700	-17.631	0.099
471.800	-25.155	0.099
471.900	-8.217	0.099
472.000	-20.145	0.099
472.100	-3.035	0.099
472.200	0.521	0.099
472.300	-21.017	0.099
472.400	-8.273	0.099
472.500	-27.230	0.099
472.600	-21.353	0.099
472.700	12.185	0.099
472.800	-23.642	0.099
472.900	-18.032	0.099
473.000	-3.017	0.099
473.100	-5.936	0.099
473.200	-24.796	0.099
473.300	-1.512	0.099
473.400	-4.856	0.099
473.500	-35.477	0.099
473.600	-23.634	0.099
473.700	-17.884	0.099
473.800	-13.823	0.099
473.900	-15.008	0.099
474.000	6.374	0.099
474.100	-36.564	0.099
474.200	4.315	0.099
474.300	-23.332	0.099
474.400	-5.519	0.099
474.500	0.247	0.099
474.600	-14.763	0.099
474.700	1.902	0.099
474.800	5.054	0.099
474.900	-10.686	0.099
475.000	-12.327	0.099
475.100	-10.741	0.099
475.200	-8.950	0.099
475.300	-34.035	0.099
475.400	4.301	0.099
475.500	-6.123	0.099
475.600	-15.577	0.099
475.700	-20.400	0.099
475.800	-27.453	0.099
475.900	1.423	0.099
476.000	-26.908	0.099
476.100	-7.014	0.099
476.200	-21.154	0.099
476.300	-8.810	0.099
476.400	-6.246	0.099
476.500	-10.875	0.099
476.600	-24.660	0.099
476.700	-4.793	0.099
476.800	-9.150	0.099
476.900	-15.822	0.099
477.000	-18.348	0.099
477.100	-37.693	0.099
477.200	-7.748	0.099
477.300	-13.570	0.099
477.400	-3.256	0.099
477.500	-7.077	0.099
477.600	-2.645	0.099
477.700	-0.550	0.099
477.800	-15.326	0.099
477.900	-19.084	0.099
478.000	-12.918	0.099
478.100	-34.248	0.099
478.200	-13.987	0.099
478.300	-14.676	0.099
478.400	11.300	0.099
478.500	-19.345	0.099
478.600	-17.271	0.099
478.700	-9.716	0.099
478.800	-20.869	0.099
478.900	9.424	0.099
479.000	-23.128	0.099
479.100	-3.306	0.099
479.200	-17.630	0.099
479.300	-18.396	0.099
479.400	-26.219	0.099
479.500	-7.121	0.099
479.600	-6.182	0.099
479.700	2.528	0.099
479.800	-0.835	0.099
479.900	11.650	0.099
480.000	-1.020	0.099
480.100	-29.873	0.099
480.200	-4.117	0.099
480.300	9.722	0.099
480.400	-14.418	0.099
480.500	-7.008	0.100
480.600	11.535	0.099
480.700	9.896	0.099
480.800	8.272	0.099
480.900	3.042	0.099
481.000	13.329	0.099
481.100	15.733	0.099
481.200	26.216	0.099
481.300	15.504	0.099
481.400	13.453	0.099
481.500	22.864	0.100
481.600	2.797	0.099
481.700	36.544	0.099
481.800	22.818	0.099
481.900	37.544	0.099
482.000	27.923	0.099
482.100	17.054	0.099
482.200	27.226	0.099
482.300	20.106	0.099
482.400	29.623	0.099
482.500	22.988	0.099
482.600	20.228	0.099
482.700	43.069	0.100
482.800	19.340	0.099
482.900	39.536	0.099
483.000	16.820	0.099
483.100	20.133	0.099
483.200	14.118	0.100
483.300	23.137	0.099
483.400	15.732	0.099
483.500	44.531	0.100
483.600	18.100	0.099
483.700	29.280	0.099
483.800	22.930	0.100
483.900	16.652	0.099
484.000	14.409	0.099
484.100	33.934	0.099
484.200	19.545	0.099
484.300	24.490	0.100
484.400	22.841	0.099
484.500	13.529	0.099
484.600	18.614	0.099
484.700	8.846	0.099
484.800	27.346	0.100
484.900	14.355	0.099
485.000	17.006	0.099
485.100	22.308	0.099
485.200	19.029	0.099
485.300	29.437	0.099
485.400	15.808	0.099
485.500	29.073	0.099
485.600	11.069	0.099
485.700	16.344	0.099
485.800	25.035	0.100
485.900	-4.803	0.099
486.000	30.245	0.099
486.100	16.316	0.099
486.200	43.786	0.099
486.300	18.789	0.099
486.400	41.628	0.099
486.500	29.405	0.099
486.600	9.396	0.099
486.700	16.996	0.099
486.800	38.182	0.099
486.900	1.605	0.099
487.000	24.529	0.099
487.100	26.144	0.099
487.200	19.249	0.099
487.300	22.994	0.099
487.400	35.817	0.100
487.500	22.377	0.100
487.600	19.197	0.099
487.700	37.753	0.099
487.800	17.739	0.099
487.900	20.565	0.099
488.000	5.430	0.099
488.100	22.547	0.100
488.200	36.035	0.099
488.300	12.070	0.099
488.400	17.717	0.099
488.500	44.466	0.099
488.600	22.126	0.099
488.700	24.173	0.099
488.800	20.442	0.099
488.900	43.075	0.099
489.000	26.329	0.099
489.100	14.624	0.099
489.200	32.121	0.099
489.300	0.308	0.099
489.400	15.551	0.099
489.500	39.245	0.099
489.600	28.858	0.099
489.700	10.958	0.099
489.800	-1.225	0.099
489.900	62.171	0.099
490.000	12.206	0.099
490.100	51.697	0.099
490.200	19.838	0.099
490.300	24.076	0.099
490.400	34.492	0.100
490.500	19.988	0.099
490.600	25.223	0.099
490.700	9.253	0.099
490.800	41.310	0.099
490.900	31.795	0.099
491.000	28.176	0.099
491.100	24.192	0.099
491.200	36.535	0.099
491.300	36.877	0.099
491.400	24.411	0.099
491.500	35.472	0.099
491.600	17.691	0.099
491.700	47.457	0.099
491.800	41.729	0.099
491.900	31.258	0.099
492.000	30.345	0.099
492.100	30.245	0.099
492.200	13.766	0.099
492.300	44.020	0.099
492.400	15.493	0.099
492.500	58.834	0.099
492.600	34.495	0.099
492.700	58.892	0.099
492.800	27.181	0.099
492.900	30.852	0.099
493.000	25.738	0.099
493.100	54.725	0.099
493.200	44.946	0.099
493.300	55.027	0.099
493.400	9.831	0.099
493.500	35.137	0.099
493.600	42.552	0.099
493.700	30.253	0.099
493.800	41.950	0.099
493.900	57.412	0.099
494.000	24.975	0.099
494.100	56.192	0.099
494.200	37.795	0.099
494.300	44.574	0.099
494.400	24.105	0.099
494.500	35.983	0.100
494.600	43.272	0.099
494.700	41.078	0.099
494.800	44.078	0.099
494.900	40.506	0.099
495.000	56.937	0.099
495.100	31.919	0.100
495.200	34.354	0.099
495.300	43.058	0.099
495.400	22.573	0.099
495.500	43.181	0.099
495.600	53.538	0.099
495.700	45.241	0.100
495.800	42.547	0.099
495.900	32.396	0.099
496.000	33.957	0.100
496.100	42.814	0.099
496.200	47.120	0.099
496.300	29.697	0.099
496.400	35.353	0.100
496.500	50.192	0.099
496.600	42.908	0.099
496.700	43.629	0.099
496.800	36.390	0.099
496.900	39.656	0.099
497.000	50.658	0.100
497.100	51.733	0.100
497.200	45.269	0.099
497.300	37.284	0.099
497.400	42.550	0.099
497.500	67.718	0.099
497.600	50.615	0.100
497.700	42.129	0.099
497.800	56.438	0.099
497.900	36.070	0.099
498.000	27.293	0.099
498.100	39.529	0.099
498.200	42.345	0.099
498.300	34.922	0.099
498.400	42.757	0.099
498.500	48.901	0.099
498.600	41.383	0.099
498.700	46.871	0.099
498.800	35.199	0.099
498.900	44.789	0.099
499.000	53.573	0.099
499.100	42.169	0.099
499.200	35.387	0.099
499.300	41.827	0.099
499.400	42.018	0.099
499.500	28.509	0.099
499.600	44.609	0.100
499.700	37.349	0.099
499.800	52.123	0.100
499.900	60.962	0.100
500.000	27.805	0.100
500.100	47.097	0.099
500.200	40.569	0.099
500.300	39.433	0.099
500.400	66.983	0.099
500.500	32.360	0.099
500.600	50.180	0.100
500.700	45.877	0.099
500.800	47.034	0.099
500.900	31.661	0.099
501.000	39.741	0.099
501.100	52.659	0.100
501.200	42.893	0.099
501.300	41.745	0.100
501.400	50.910	0.100
501.500	51.372	0.099
501.600	38.650	0.099
501.700	31.591	0.099
501.800	44.519	0.099
501.900	45.209	0.099
502.000	40.217	0.099
502.100	63.650	0.099
502.200	52.410	0.099
502.300	46.743	0.100
502.400	33.406	0.100
502.500	34.911	0.099
502.600	47.760	0.099
502.700	59.463	0.099
502.800	36.420	0.099
502.900	23.591	0.099
503.000	48.198	0.099
503.100	62.041	0.099
503.200	24.952	0.099
503.300	43.204	0.099
503.400	47.615	0.099
503.500	40.094	0.099
503.600	48.968	0.100
503.700	52.820	0.099
503.800	21.117	0.099
503.900	56.805	0.099
504.000	22.625	0.099
504.100	35.184	0.099
504.200	46.390	0.099
504.300	51.257	0.099
504.400	28.505	0.099
504.500	21.759	0.099
504.600	42.273	0.099
504.700	48.312	0.099
504.800	43.918	0.099
504.900	57.704	0.099
505.000	48.656	0.100
505.100	23.407	0.099
505.200	64.151	0.099
505.300	31.409	0.099
505.400	26.766	0.099
505.500	48.676	0.099
505.600	27.674	0.099
505.700	55.391	0.099
505.800	47.589	0.099
505.900	39.860	0.099
506.000	45.895	0.099
506.100	44.705	0.099
506.200	59.498	0.100
506.300	32.233	0.099
506.400	52.824	0.099
506.500	43.929	0.099
506.600	22.671	0.099
506.700	45.985	0.099
506.800	50.650	0.099
506.900	44.567	0.099
507.000	40.465	0.099
507.100	42.321	0.099
507.200	46.070	0.099
507.300	38.449	0.099
507.400	42.203	0.099
507.500	43.480	0.099
507.600	46.271	0.099
507.700	45.943	0.099
507.800	19.250	0.099
507.900	43.759	0.099
508.000	38.215	0.099
508.100	32.011	0.099
508.200	25.172	0.099
508.300	23.664	0.099
508.400	46.515	0.100
508.500	55.257	0.099
508.600	37.165	0.099
508.700	50.786	0.099
508.800	39.645	0.099
508.900	20.464	0.099
509.000	50.351	0.099
509.100	62.965	0.099
509.200	32.086	0.099
509.300	33.827	0.099
509.400	62.246	0.099
509.500	53.114	0.100
509.600	38.838	0.099
509.700	42.353	0.100
509.800	39.820	0.099
509.900	53.249	0.099
510.000	20.021	0.099
510.100	57.961	0.099
510.200	52.348	0.099
510.300	39.519	0.099
510.400	45.198	0.099
510.500	27.389	0.099
510.600	29.412	0.099
510.700	45.759	0.099
510.800	58.792	0.099
510.900	30.579	0.099
511.000	42.857	0.099
511.100	49.553	0.099
511.200	47.451	0.099
511.300	35.231	0.099
511.400	50.786	0.099
511.500	60.099	0.099
511.600	22.826	0.099
511.700	39.812	0.099
511.800	23.350	0.099
511.900	36.847	0.099
512.000	32.440	0.099
512.100	12.865	0.099
512.200	39.344	0.099
512.300	48.435	0.099
512.400	44.670	0.099
512.500	34.760	0.099
512.600	52.873	0.099
512.700	40.152	0.099
512.800	39.018	0.099
512.900	32.447	0.099
513.000	52.433	0.099
513.100	56.976	0.099
513.200	42.319	0.099
513.300	50.752	0.099
513.400	24.648	0.099
513.500	23.656	0.099
513.600	41.637	0.099
513.700	42.953	0.099
513.800	41.015	0.099
513.900	36.499	0.099
514.000	22.243	0.099
514.100	52.245	0.099
514.200	42.485	0.099
514.300	31.853	0.099
514.400	51.565	0.099
514.500	47.992	0.099
514.600	16.292	0.099
514.700	54.198	0.099
514.800	44.154	0.100
514.900	53.647	0.099
515.000	33.717	0.099
515.100	39.745	0.099
515.200	55.666	0.099
515.300	43.252	0.099
515.400	53.637	0.099
515.500	47.667	0.099
515.600	30.607	0.099
515.700	14.728	0.099
515.800	46.454	0.099
515.900	28.866	0.099
516.000	25.227	0.099
516.100	52.378	0.099
516.200	57.979	0.099
516.300	21.079	0.099
516.400	61.920	0.099
516.500	24.606	0.099
516.600	32.109	0.099
516.700	30.542	0.099
516.800	73.149	0.099
516.900	30.396	0.099
517.000	44.296	0.099
517.100	38.702	0.099
517.200	48.546	0.099
517.300	54.932	0.100
517.400	20.872	0.099
517.500	45.919	0.100
517.600	52.648	0.099
517.700	31.886	0.099
517.800	31.381	0.099
517.900	17.678	0.099
518.000	34.788	0.099
518.100	50.117	0.099
518.200	54.899	0.099
518.300	38.603	0.099
518.400	41.505	0.099
518.500	38.831	0.099
518.600	15.902	0.099
518.700	55.561	0.099
518.800	35.603	0.099
518.900	55.275	0.099
519.000	36.896	0.099
519.100	26.734	0.099
519.200	44.553	0.099
519.300	27.055	0.100
519.400	70.790	0.099
519.500	35.928	0.099
519.600	32.235	0.099
519.700	30.830	0.099
519.800	25.601	0.099
519.900	45.354	0.099
520.000	39.635	0.099
520.100	45.957	0.099
520.200	41.725	0.099
520.300	45.521	0.099
520.400	32.530	0.099
520.500	27.120	0.099
520.600	39.572	0.099
520.700	30.825	0.100
520.800	29.127	0.099
520.900	50.238	0.099
521.000	29.825	0.099
521.100	43.571	0.099
521.200	52.802	0.099
521.300	45.268	0.099
521.400	26.079	0.099
521.500	59.035	0.099
521.600	41.561	0.100
521.700	20.719	0.099
521.800	38.642	0.099
521.900	37.201	0.099
522.000	47.262	0.099
522.100	47.388	0.099
522.200	41.016	0.099
522.300	73.883	0.099
522.400	37.466	0.099
522.500	35.760	0.099
522.600	35.071	0.099
522.700	33.628	0.099
522.800	62.302	0.099
522.900	35.748	0.099
523.000	55.654	0.099
523.100	30.182	0.099
523.200	36.206	0.099
523.300	41.353	0.099
523.400	53.802	0.099
523.500	37.398	0.099
523.600	23.067	0.099
523.700	40.940	0.100
523.800	54.391	0.099
523.900	34.087	0.099
524.000	16.473	0.099
524.100	53.295	0.099
524.200	51.569	0.099
524.300	38.101	0.099
524.400	23.121	0.099
524.500	37.543	0.099
524.600	45.010	0.099
524.700	56.671	0.099
524.800	40.976	0.099
524.900	37.580	0.099
525.000	35.445	0.099
525.100	36.456	0.099
525.200	38.906	0.099
525.300	51.612	0.099
525.400	59.439	0.099
525.500	48.690	0.099
525.600	34.981	0.099
525.700	46.780	0.099
525.800	33.153	0.099
525.900	28.212	0.099
526.000	40.203	0.099
526.100	37.278	0.099
526.200	25.916	0.099
526.300	49.915	0.099
526.400	51.904	0.099
526.500	44.584	0.099
526.600	50.179	0.099
526.700	23.383	0.099
526.800	31.567	0.100
526.900	49.034	0.099
527.000	31.105	0.099
527.100	43.661	0.099
527.200	24.285	0.099
527.300	50.193	0.099
527.400	48.800	0.099
527.500	17.252	0.099
527.600	50.663	0.099
527.700	37.278	0.099
527.800	27.922	0.099
527.900	38.051	0.099
528.000	48.151	0.099
528.100	46.399	0.099
528.200	13.361	0.099
528.300	31.323	0.099
528.400	52.719	0.099
528.500	57.749	0.099
528.600	13.933	0.099
528.700	36.595	0.099
528.800	34.603	0.099
528.900	32.541	0.099
529.000	45.389	0.099
529.100	51.310	0.099
529.200	41.077	0.099
529.300	17.735	0.099
529.400	27.167	0.099
529.500	49.072	0.099
529.600	35.759	0.099
529.700	29.476	0.099
529.800	57.261	0.099
529.900	54.142	0.099
530.000	34.067	0.099
530.100	62.408	0.099
530.200	19.589	0.099
530.300	35.441	0.099
530.400	38.793	0.099
530.500	54.763	0.099
530.600	38.912	0.099
530.700	22.503	0.099
530.800	40.240	0.099
530.900	54.463	0.099
531.000	20.121	0.099
531.100	55.639	0.099
531.200	53.502	0.099
531.300	35.830	0.099
531.400	24.710	0.099
531.500	51.856	0.099
531.600	13.194	0.099
531.700	36.820	0.099
531.800	40.676	0.099
531.900	59.611	0.099
532.000	34.904	0.099
532.100	35.004	0.099
532.200	35.613	0.099
532.300	42.583	0.100
532.400	35.181	0.099
532.500	36.876	0.099
532.600	34.691	0.100
532.700	62.581	0.099
532.800	42.104	0.099
532.900	19.949	0.099
533.000	32.802	0.099
533.100	35.890	0.099
533.200	41.299	0.099
533.300	43.159	0.099
533.400	33.441	0.100
533.500	37.880	0.099
533.600	41.250	0.099
533.700	39.876	0.099
533.800	46.881	0.099
533.900	54.519	0.099
534.000	36.211	0.100
534.100	40.749	0.099
534.200	7.570	0.099
534.300	42.250	0.099
534.400	46.084	0.099
534.500	26.738	0.099
534.600	20.762	0.099
534.700	54.074	0.099
534.800	73.754	0.099
534.900	32.820	0.099
535.000	50.023	0.099
535.100	42.472	0.099
535.200	45.413	0.099
535.300	43.978	0.099
535.400	36.854	0.099
535.500	34.954	0.100
535.600	41.547	0.099
535.700	37.408	0.100
535.800	37.197	0.099
535.900	51.725	0.099
536.000	34.138	0.099
536.100	34.717	0.099
536.200	45.494	0.099
536.300	37.868	0.100
536.400	27.282	0.099
536.500	52.207	0.099
536.600	29.638	0.099
536.700	22.299	0.099
536.800	43.613	0.099
536.900	43.549	0.099
537.000	43.810	0.099
537.100	42.233	0.099
537.200	26.541	0.099
537.300	59.874	0.099
537.400	11.316	0.099
537.500	40.045	0.099
537.600	33.021	0.099
537.700	57.974	0.099
537.800	50.007	0.100
537.900	36.256	0.099
538.000	33.400	0.099
538.100	33.495	0.099
538.200	43.326	0.099
538.300	38.335	0.099
538.400	19.427	0.099
538.500	60.061	0.099
538.600	45.668	0.100
538.700	27.359	0.099
538.800	41.866	0.099
538.900	50.097	0.099
539.000	39.945	0.099
539.100	54.203	0.099
539.200	40.557	0.099
539.300	31.450	0.100
539.400	35.407	0.099
539.500	43.143	0.099
539.600	22.503	0.099
539.700	59.691	0.099
539.800	36.032	0.099
539.900	31.087	0.099
540.000	34.127	0.099
540.100	30.516	0.099
540.200	53.699	0.099
540.300	-1.440	0.099
540.400	21.920	0.099
540.500	27.752	0.099
540.600	24.996	0.100
540.700	0.581	0.099
540.800	32.098	0.100
540.900	8.905	0.099
541.000	17.591	0.099
541.100	13.923	0.099
541.200	-13.362	0.099
541.300	-2.632	0.099
541.400	11.159	0.099
541.500	-1.158	0.099
541.600	-0.932	0.099
541.700	26.579	0.100
541.800	-9.078	0.099
541.900	-11.839	0.100
542.000	-3.116	0.099
542.100	8.243	0.099
542.200	-3.970	0.100
542.300	9.816	0.099
542.400	-3.973	0.099
542.500	-12.575	0.099
542.600	-6.247	0.100
542.700	9.853	0.100
542.800	-8.395	0.099
542.900	-9.529	0.099
543.000	-14.632	0.099
543.100	2.686	0.099
543.200	-0.007	0.100
543.300	1.032	0.100
543.400	-16.294	0.099
543.500	-6.819	0.100
543.600	-12.952	0.099
543.700	-5.576	0.099
543.800	-16.359	0.099
543.900	-0.422	0.099
544.000	-3.447	0.099
544.100	-10.748	0.100
544.200	-12.355	0.099
544.300	-5.438	0.099
544.400	-17.454	0.099
544.500	2.519	0.100
544.600	-15.901	0.099
544.700	-13.038	0.099
544.800	5.018	0.099
544.900	-10.620	0.099
545.000	7.583	0.099
545.100	-32.879	0.099
545.200	-17.791	0.099
545.300	-11.655	0.099
545.400	-6.694	0.099
545.500	-30.909	0.099
545.600	-7.210	0.099
545.700	-3.661	0.099
545.800	-21.056	0.099
545.900	-13.229	0.099
546.000	-7.170	0.099
546.100	1.973	0.099
546.200	-12.745	0.099
546.300	-23.805	0.099
546.400	-18.845	0.099
546.500	-12.999	0.099
546.600	-12.564	0.099
546.700	-9.665	0.100
546.800	3.712	0.099
546.900	-20.744	0.100
547.000	-13.310	0.099
547.100	-6.269	0.100
547.200	-17.960	0.099
547.300	-3.370	0.099
547.400	-7.862	0.099
547.500	-1.101	0.099
547.600	-11.569	0.099
547.700	-29.468	0.099
547.800	4.091	0.099
547.900	-26.333	0.099
548.000	-9.979	0.099
548.100	-13.861	0.099
548.200	-17.912	0.100
548.300	-38.737	0.100
548.400	-1.968	0.099
548.500	-16.463	0.099
548.600	-14.683	0.099
548.700	-26.765	0.099
548.800	-3.508	0.099
548.900	-1.514	0.099
549.000	-27.067	0.099
549.100	-20.639	0.099
549.200	-8.551	0.100
549.300	-4.091	0.099
549.400	-19.451	0.100
549.500	-24.772	0.099
549.600	-6.541	0.099
549.700	-31.682	0.099
549.800	-25.043	0.099
549.900	-15.054	0.099
550.000	-10.488	0.100
550.100	-16.716	0.100
550.200	-27.312	0.099
550.300	-15.709	0.100
550.400	-5.571	0.099
550.500	-24.372	0.099
550.600	-9.175	0.099
550.700	-37.881	0.099
550.800	-7.629	0.100
550.900	-0.556	0.099
551.000	-10.756	0.099
551.100	-23.191	0.100
551.200	-17.017	0.100
551.300	-8.321	0.100
551.400	-26.924	0.099
551.500	-35.566	0.099
551.600	-14.669	0.099
551.700	-27.234	0.100
551.800	-4.392	0.099
551.900	-20.945	0.100
552.000	-16.126	0.099
552.100	-17.404	0.100
552.200	2.281	0.100
552.300	-30.163	0.100
552.400	-13.642	0.099
552.500	-18.848	0.099
552.600	-16.623	0.100
552.700	-7.648	0.099
552.800	-21.960	0.099
552.900	-25.471	0.100
553.000	-23.248	0.100
553.100	-35.498	0.099
553.200	-20.839	0.099
553.300	-28.279	0.100
553.400	-41.118	0.099
553.500	-16.176	0.099
553.600	-19.051	0.099
553.700	9.688	0.100
553.800	-4.662	0.100
553.900	-28.014	0.099
554.000	-17.639	0.100
554.100	-10.852	0.099
554.200	-26.066	0.100
554.300	-26.968	0.100
554.400	-17.705	0.099
554.500	-8.401	0.100
554.600	-28.866	0.100
554.700	-6.325	0.100
554.800	-19.546	0.099
554.900	-9.603	0.100
555.000	-21.938	0.100
555.100	-32.793	0.099
555.200	-8.814	0.100
555.300	-27.633	0.099
555.400	-10.946	0.100
555.500	-25.128	0.099
555.600	-29.220	0.099
555.700	-23.318	0.100
555.800	-23.534	0.099
555.900	-8.539	0.100
556.000	-18.691	0.100
556.100	-8.180	0.100
556.200	-20.011	0.100
556.300	-24.062	0.099
556.400	-10.267	0.100
556.500	-14.011	0.099
556.600	-6.578	0.099
556.700	-4.058	0.099
556.800	-20.693	0.099
556.900	-7.335	0.100
557.000	-28.416	0.099
557.100	-37.467	0.100
557.200	-9.806	0.099
557.300	-36.885	0.099
557.400	-13.951	0.099
557.500	-15.365	0.099
557.600	-15.334	0.099
557.700	-29.905	0.100
557.800	-30.476	0.099
557.900	-33.269	0.099
558.000	-13.597	0.099
558.100	-13.074	0.100
558.200	-17.773	0.100
558.300	-16.644	0.099
558.400	-35.445	0.100
558.500	-17.664	0.099
558.600	-10.678	0.100
558.700	-22.879	0.099
558.800	-37.090	0.099
558.900	-24.456	0.099
559.000	-10.397	0.100
559.100	-12.091	0.100
559.200	-27.029	0.099
559.300	-31.368	0.100
559.400	-18.609	0.100
559.500	-41.613	0.099
559.600	-11.532	0.099
559.700	-27.299	0.099
559.800	-27.223	0.100
559.900	-20.961	0.099
560.000	-14.061	0.099
560.100	-21.396	0.100
560.200	-21.051	0.099
560.300	-27.383	0.099
560.400	-38.259	0.099
560.500	-11.450	0.100
560.600	-8.786	0.099
560.700	-13.567	0.100
560.800	-17.932	0.100
560.900	-43.588	0.099
561.000	-7.600	0.099
561.100	-11.301	0.100
561.200	-19.240	0.099
561.300	-22.642	0.099
561.400	-12.663	0.099
561.500	-19.200	0.100
561.600	-38.512	0.100
561.700	-6.193	0.100
561.800	-36.869	0.099
561.900	5.383	0.099
562.000	-35.183	0.100
562.100	-20.598	0.100
562.200	-16.238	0.099
562.300	3.890	0.099
562.400	-28.220	0.099
562.500	-20.655	0.099
562.600	-27.063	0.099
562.700	-26.386	0.099
562.800	-35.363	0.099
562.900	-22.187	0.099
563.000	-37.219	0.099
563.100	-15.660	0.099
563.200	-16.112	0.099
563.300	-14.252	0.099
563.400	-41.536	0.099
563.500	-13.200	0.099
563.600	-16.433	0.100
563.700	-24.073	0.099
563.800	-32.430	0.100
563.900	-23.581	0.099
564.000	-12.226	0.099
564.100	-25.437	0.099
564.200	-20.595	0.099
564.300	-12.141	0.099
564.400	-16.382	0.099
564.500	-25.487	0.099
564.600	-31.180	0.099
564.700	-45.022	0.100
564.800	-24.891	0.099
564.900	-5.186	0.099
565.000	-7.302	0.099
565.100	-26.796	0.099
565.200	-24.918	0.100
565.300	-26.374	0.099
565.400	-26.737	0.099
565.500	-29.924	0.100
565.600	-17.408	0.099
565.700	-8.943	0.099
565.800	-36.254	0.099
565.900	-17.120	0.099
566.000	-14.233	0.099
566.100	-40.486	0.100
566.200	-19.843	0.099
566.300	-21.791	0.099
566.400	-34.232	0.099
566.500	-8.551	0.099
566.600	-22.128	0.099
566.700	-45.619	0.100
566.800	-27.473	0.099
566.900	-12.471	0.099
567.000	-8.541	0.099
567.100	-52.761	0.099
567.200	-11.749	0.099
567.300	-24.496	0.099
567.400	-34.359	0.099
567.500	-19.361	0.100
567.600	-20.963	0.099
567.700	-9.477	0.099
567.800	-26.986	0.099
567.900	-20.395	0.100
568.000	-30.836	0.099
568.100	-22.877	0.099
568.200	-12.522	0.099
568.300	-25.480	0.099
568.400	-3.199	0.099
568.500	-17.117	0.099
568.600	-41.095	0.099
568.700	-28.656	0.100
568.800	-43.663	0.099
568.900	-5.087	0.099
569.000	-42.345	0.099
569.100	-2.245	0.100
569.200	-25.430	0.099
569.300	-20.431	0.099
569.400	-28.760	0.100
569.500	-10.599	0.099
569.600	-28.746	0.099
569.700	-42.269	0.100
569.800	-27.941	0.099
569.900	-9.372	0.099
570.000	-35.740	0.099
570.100	-25.772	0.099
570.200	-21.612	0.099
570.300	-28.822	0.100
570.400	-24.782	0.100
570.500	-18.080	0.099
570.600	-0.865	0.099
570.700	-34.355	0.100
570.800	-33.472	0.099
570.900	-17.652	0.099
571.000	-26.733	0.099
571.100	-35.026	0.099
571.200	-40.625	0.099
571.300	-2.592	0.099
571.400	-26.962	0.099
571.500	-21.035	0.099
571.600	-46.511	0.099
571.700	0.885	0.099
571.800	-28.532	0.099
571.900	-9.120	0.099
572.000	-29.478	0.099
572.100	-16.425	0.099
572.200	-18.752	0.099
572.300	-28.266	0.099
572.400	-22.303	0.099
572.500	-11.380	0.099
572.600	-7.694	0.099
572.700	-18.860	0.099
572.800	-11.073	0.100
572.900	-34.292	0.099
573.000	-18.186	0.099
573.100	-28.859	0.100
573.200	-14.741	0.100
573.300	-23.511	0.100
573.400	-30.582	0.099
573.500	-19.196	0.099
573.600	-30.568	0.099
573.700	-29.243	0.099
573.800	-0.193	0.099
573.900	-15.512	0.099
574.000	-19.320	0.099
574.100	-22.909	0.099
574.200	-12.988	0.100
574.300	-14.630	0.099
574.400	-12.198	0.099
574.500	-14.218	0.099
574.600	-34.833	0.099
574.700	-51.785	0.099
574.800	-3.577	0.099
574.900	-27.181	0.099
575.000	-19.020	0.099
575.100	-27.055	0.100
575.200	-9.744	0.100
575.300	-19.209	0.099
575.400	-13.517	0.099
575.500	-8.612	0.099
575.600	-43.110	0.099
575.700	-7.723	0.100
575.800	-12.513	0.099
575.900	-25.665	0.099
576.000	-14.080	0.099
576.100	-27.019	0.100
576.200	-2.431	0.099
576.300	-29.127	0.099
576.400	-3.195	0.099
576.500	-26.839	0.099
576.600	-25.460	0.100
576.700	-28.439	0.099
576.800	-15.992	0.099
576.900	-7.662	0.100
577.000	-44.196	0.099
577.100	-16.136	0.099
577.200	-25.472	0.099
577.300	-33.826	0.099
577.400	-19.787	0.099
577.500	-30.099	0.099
577.600	-10.394	0.099
577.700	-16.468	0.100
577.800	-43.100	0.099
577.900	-12.461	0.099
578.000	-15.788	0.099
578.100	-12.311	0.099
578.200	-21.695	0.100
578.300	4.259	0.099
578.400	-31.380	0.099
578.500	-26.773	0.099
578.600	-36.022	0.099
578.700	-16.972	0.099
578.800	-13.870	0.100
578.900	-23.605	0.099
579.000	-32.463	0.100
579.100	-14.372	0.099
579.200	-26.939	0.099
579.300	-12.109	0.099
579.400	-30.653	0.099
579.500	-16.903	0.099
579.600	-41.861	0.099
579.700	-16.948	0.099
579.800	-3.384	0.100
579.900	-21.386	0.099
580.000	-5.077	0.099
580.100	-16.513	0.099
580.200	-27.821	0.099
580.300	-19.334	0.099
580.400	-34.779	0.099
580.500	-22.868	0.099
580.600	-2.867	0.099
580.700	-23.318	0.099
580.800	-28.224	0.099
580.900	10.005	0.099
581.000	-23.644	0.099
581.100	-7.161	0.099
581.200	-17.239	0.099
581.300	-18.552	0.099
581.400	-21.147	0.099
581.500	-9.212	0.099
581.600	-10.582	0.100
581.700	-20.260	0.100
581.800	-22.220	0.099
581.900	-22.917	0.099
582.000	-24.683	0.099
582.100	-31.674	0.099
582.200	-17.840	0.099
582.300	-20.869	0.099
582.400	-23.618	0.100
582.500	-13.774	0.099
582.600	-30.173	0.099
582.700	-18.930	0.100
582.800	-24.011	0.099
582.900	1.367	0.099
583.000	-14.300	0.100
583.100	-7.083	0.099
583.200	-13.956	0.100
583.300	-24.627	0.100
583.400	-12.085	0.100
583.500	-18.285	0.100
583.600	-33.443	0.099
583.700	-5.474	0.099
583.800	-50.174	0.099
583.900	-13.812	0.099
584.000	-19.443	0.100
584.100	-36.472	0.099
584.200	-25.708	0.100
584.300	-14.501	0.099
584.400	-19.184	0.100
584.500	-17.380	0.099
584.600	-3.689	0.099
584.700	-16.155	0.099
584.800	-8.568	0.099
584.900	-10.804	0.099
585.000	-19.695	0.099
585.100	-37.248	0.099
585.200	-15.787	0.099
585.300	-21.922	0.100
585.400	-28.055	0.099
585.500	-1.191	0.099
585.600	-22.826	0.100
585.700	-15.983	0.099
585.800	-34.851	0.099
585.900	-42.269	0.099
586.000	-17.974	0.099
586.100	-9.977	0.099
586.200	-14.510	0.099
586.300	-4.985	0.099
586.400	-15.561	0.099
586.500	-18.664	0.099
586.600	-24.175	0.100
586.700	-26.496	0.099
586.800	-8.989	0.100
586.900	-41.165	0.099
587.000	-32.219	0.099
587.100	-4.587	0.099
587.200	-24.059	0.099
587.300	-16.714	0.099
587.400	-9.258	0.099
587.500	-20.411	0.100
587.600	-20.842	0.099
587.700	-35.214	0.099
587.800	-26.440	0.099
587.900	-21.872	0.100
588.000	-25.307	0.099
588.100	-4.182	0.099
588.200	-32.087	0.099
588.300	-29.496	0.099
588.400	-10.147	0.099
588.500	-24.141	0.099
588.600	-21.482	0.099
588.700	-12.693	0.099
588.800	-6.162	0.099
588.900	-20.361	0.100
589.000	-7.934	0.099
589.100	-21.784	0.099
589.200	-25.612	0.099
589.300	-17.891	0.099
589.400	-16.374	0.100
589.500	-31.011	0.099
589.600	-28.841	0.100
589.700	-19.893	0.099
589.800	-11.933	0.099
589.900	-17.221	0.099
590.000	-14.964	0.099
590.100	-18.230	0.099
590.200	12.548	0.100
590.300	-32.484	0.100
590.400	-33.318	0.099
590.500	-22.856	0.100
590.600	-16.198	0.099
590.700	-39.299	0.099
590.800	-18.162	0.099
590.900	-3.766	0.099
591.000	-9.794	0.099
591.100	-15.010	0.099
591.200	-19.527	0.099
591.300	-18.637	0.099
591.400	-25.982	0.100
591.500	-7.745	0.099
591.600	-15.849	0.099
591.700	-23.807	0.099
591.800	-21.510	0.099
591.900	-4.378	0.099
592.000	-7.208	0.099
592.100	-13.537	0.100
592.200	-2.523	0.100
592.300	-12.219	0.100
592.400	-26.682	0.099
592.500	-14.830	0.099
592.600	-8.057	0.100
592.700	-15.912	0.099
592.800	6.667	0.100
592.900	-20.015	0.099
593.000	-21.169	0.100
593.100	-15.775	0.099
593.200	-12.446	0.099
593.300	-36.344	0.100
593.400	-19.599	0.099
593.500	-10.431	0.099
593.600	-13.867	0.100
593.700	-2.476	0.100
593.800	-20.581	0.099
593.900	-36.065	0.099
594.000	-5.772	0.100
594.100	-11.148	0.100
594.200	-23.898	0.100
594.300	-18.287	0.099
594.400	-14.191	0.099
594.500	-27.743	0.099
594.600	-23.893	0.099
594.700	-9.960	0.099
594.800	-17.857	0.099
594.900	-21.887	0.100
595.000	-9.831	0.099
595.100	-22.541	0.100
595.200	-21.690	0.099
595.300	-29.719	0.099
595.400	-24.124	0.100
595.500	-15.803	0.099
595.600	-8.444	0.100
595.700	-21.843	0.099
595.800	-25.758	0.100
595.900	-37.951	0.099
596.000	-14.758	0.099
596.100	4.388	0.099
596.200	-22.288	0.099
596.300	-8.359	0.100
596.400	-21.778	0.099
596.500	-32.278	0.099
596.600	-33.209	0.100
596.700	-28.064	0.099
596.800	-24.937	0.099
596.900	-10.592	0.100
597.000	-11.590	0.099
597.100	-30.765	0.099
597.200	-15.682	0.100
597.300	-25.914	0.100
597.400	-10.465	0.099
597.500	-23.020	0.100
597.600	-29.964	0.099
597.700	-22.025	0.100
597.800	-37.818	0.100
597.900	-8.429	0.100
598.000	-6.072	0.099
598.100	-20.519	0.100
598.200	-13.244	0.100
598.300	-23.209	0.099
598.400	-28.695	0.099
598.500	-13.238	0.100
598.600	-24.760	0.100
598.700	-19.973	0.100
598.800	-4.194	0.100
598.900	-1.633	0.100
599.000	-21.752	0.100
599.100	-23.844	0.100
599.200	-12.132	0.100
599.300	-29.934	0.099
599.400	-10.973	0.100
599.500	-29.164	0.099
599.600	-32.958	0.100
599.700	-15.100	0.100
599.800	-17.270	0.100
599.900	-25.188	0.100
600.000	-18.303	0.100
600.100	-9.996	0.100
600.200	-22.277	0.099
600.300	-18.860	0.100
600.400	-22.931	0.100
600.500	-18.646	0.100
600.600	-26.180	0.100
600.700	-6.771	0.100
600.800	-17.460	0.100
600.900	-13.267	0.100
601.000	-17.367	0.100
601.100	-4.669	0.100
601.200	-23.156	0.100
601.300	-11.303	0.100
601.400	-26.828	0.100
601.500	5.106	0.100
601.600	-9.357	0.100
601.700	-18.131	0.100
601.800	-21.070	0.100
601.900	-8.555	0.099
602.000	-19.196	0.100
602.100	-29.335	0.099
602.200	-31.898	0.100
602.300	-13.859	0.099
602.400	-5.626	0.100
602.500	-13.958	0.100
602.600	-21.045	0.100
602.700	-22.765	0.099
602.800	-10.647	0.100
602.900	-19.782	0.100
603.000	4.372	0.100
603.100	-23.695	0.100
603.200	-15.780	0.099
603.300	-9.109	0.100
603.400	-25.264	0.100
603.500	4.311	0.100
603.600	-8.178	0.100
603.700	-14.640	0.100
603.800	-7.726	0.100
603.900	-5.800	0.100
604.000	-9.150	0.099
604.100	-11.935	0.100
604.200	-10.972	0.100
604.300	-23.940	0.100
604.400	-6.848	0.100
604.500	-18.920	0.100
604.600	-40.580	0.099
604.700	-20.787	0.100
604.800	-49.116	0.099
604.900	5.791	0.100
605.000	-21.967	0.099
605.100	-33.779	0.099
605.200	-28.332	0.099
605.300	-22.369	0.099
605.400	-11.871	0.100
605.500	-24.067	0.099
605.600	26.762	0.100
605.700	-31.392	0.100
605.800	-13.124	0.100
605.900	-4.929	0.099
606.000	-18.873	0.100
606.100	-33.854	0.099
606.200	-17.833	0.099
606.300	5.266	0.100
606.400	-14.458	0.100
606.500	-15.576	0.100
606.600	-19.711	0.100
606.700	-15.367	0.100
606.800	-9.851	0.100
606.900	-20.562	0.099
607.000	-5.682	0.100
607.100	-7.450	0.099
607.200	-14.678	0.100
607.300	-27.110	0.100
607.400	-28.091	0.099
607.500	-7.217	0.099
607.600	-24.104	0.099
607.700	-4.813	0.099
607.800	-5.532	0.100
607.900	-3.845	0.100
608.000	-23.449	0.100
608.100	-17.620	0.100
608.200	3.363	0.100
608.300	-47.504	0.099
608.400	-8.450	0.100
608.500	-24.229	0.100
608.600	-8.840	0.100
608.700	-17.828	0.099
608.800	-23.754	0.100
608.900	-28.991	0.099
609.000	-2.518	0.099
609.100	-8.414	0.100
609.200	-16.618	0.099
609.300	-13.154	0.100
609.400	-16.567	0.100
609.500	-3.399	0.099
609.600	-9.659	0.099
609.700	-17.784	0.100
609.800	-9.485	0.100
609.900	-28.029	0.100
610.000	-3.371	0.100
610.100	5.775	0.099
610.200	-8.847	0.100
610.300	-9.369	0.100
610.400	-28.850	0.099
610.500	-30.741	0.100
610.600	4.605	0.100
610.700	-25.694	0.099
610.800	-8.440	0.100
610.900	-24.148	0.099
611.000	-4.250	0.100
611.100	-30.182	0.099
611.200	-35.485	0.099
611.300	18.369	0.100
611.400	-10.266	0.099
611.500	-11.036	0.099
611.600	-12.827	0.100
611.700	-39.422	0.099
611.800	-32.529	0.099
611.900	-3.546	0.099
612.000	-0.141	0.100
612.100	-1.834	0.099
612.200	-6.680	0.100
612.300	-24.308	0.100
612.400	-27.620	0.099
612.500	-0.246	0.100
612.600	-21.912	0.100
612.700	-6.731	0.100
612.800	-18.032	0.100
612.900	-18.252	0.099
613.000	-11.363	0.099
613.100	-31.006	0.100
613.200	0.211	0.100
613.300	-3.399	0.100
613.400	-8.777	0.099
613.500	-23.663	0.100
613.600	-16.010	0.099
613.700	-7.085	0.100
613.800	-20.132	0.100
613.900	-0.848	0.099
614.000	-40.297	0.099
614.100	-6.561	0.099
614.200	0.411	0.099
614.300	-23.208	0.100
614.400	-20.957	0.100
614.500	-19.539	0.099
614.600	-8.542	0.099
614.700	1.448	0.100
614.800	-19.755	0.100
614.900	-12.074	0.099
615.000	-29.311	0.099
615.100	2.555	0.100
615.200	8.158	0.099
615.300	-18.713	0.099
615.400	-7.706	0.099
615.500	-12.621	0.099
615.600	-22.551	0.100
615.700	-6.686	0.099
615.800	6.067	0.099
615.900	-15.994	0.099
616.000	-3.298	0.099
616.100	-2.918	0.099
616.200	-17.189	0.099
616.300	-27.461	0.100
616.400	-31.873	0.099
616.500	13.103	0.099
616.600	-7.302	0.100
616.700	-14.693	0.100
616.800	-3.608	0.099
616.900	-11.400	0.099
617.000	-15.926	0.099
617.100	-3.023	0.100
617.200	-32.487	0.100
617.300	-20.436	0.099
617.400	-9.036	0.099
617.500	-11.134	0.100
617.600	-34.076	0.099
617.700	-4.904	0.099
617.800	-28.667	0.100
617.900	-16.644	0.100
618.000	-4.606	0.099
618.100	-1.791	0.099
618.200	-17.750	0.100
618.300	-9.270	0.100
618.400	-9.314	0.100
618.500	-17.095	0.099
618.600	-23.814	0.099
618.700	-0.494	0.100
618.800	-33.345	0.099
618.900	-9.698	0.099
619.000	-14.468	0.099
619.100	-5.856	0.099
619.200	1.189	0.099
619.300	-27.460	0.099
619.400	0.375	0.099
619.500	-18.957	0.099
619.600	-6.995	0.100
619.700	-34.675	0.100
619.800	-33.121	0.099
619.900	-1.022	0.099
620.000	-4.799	0.099
620.100	-13.444	0.099
620.200	-37.201	0.099
620.300	-1.006	0.099
620.400	-20.036	0.099
620.500	-24.863	0.099
620.600	-5.190	0.099
620.700	1.672	0.100
620.800	-14.557	0.099
620.900	-11.587	0.099
621.000	-16.106	0.099
621.100	-5.143	0.099
621.200	-8.551	0.100
621.300	-7.273	0.099
621.400	-32.365	0.100
621.500	-1.338	0.099
621.600	-1.269	0.099
621.700	-13.518	0.099
621.800	-10.803	0.099
621.900	-15.564	0.100
622.000	-16.285	0.100
622.100	-3.899	0.100
622.200	-13.050	0.099
622.300	-0.516	0.099
622.400	-25.553	0.099
622.500	-22.742	0.100
622.600	-29.193	0.100
622.700	-1.904	0.099
622.800	4.749	0.100
622.900	-23.736	0.099
623.000	-19.350	0.099
623.100	-13.853	0.099
623.200	-23.768	0.099
623.300	-27.460	0.099
623.400	13.827	0.099
623.500	-31.367	0.099
623.600	-18.326	0.100
623.700	-10.311	0.099
623.800	-14.454	0.099
623.900	-19.932	0.099
624.000	-13.248	0.099
624.100	-2.060	0.099
624.200	-26.989	0.099
624.300	-2.785	0.100
624.400	-5.341	0.100
624.500	-14.935	0.099
624.600	-9.708	0.099
624.700	0.853	0.100
624.800	-26.837	0.099
624.900	-8.719	0.099
625.000	-9.977	0.099
625.100	-17.919	0.100
625.200	-9.706	0.100
625.300	-38.119	0.100
625.400	-15.761	0.100
625.500	-18.434	0.100
625.600	-17.057	0.099
625.700	-0.048	0.100
625.800	-3.090	0.100
625.900	-17.334	0.100
626.000	-9.058	0.099
626.100	-1.700	0.099
626.200	-29.569	0.100
626.300	-20.810	0.099
626.400	-0.987	0.100
626.500	-13.223	0.100
626.600	-13.466	0.099
626.700	-19.780	0.100
626.800	-10.625	0.099
626.900	-7.805	0.100
627.000	5.594	0.099
627.100	-3.760	0.099
627.200	-2.006	0.099
627.300	-7.628	0.099
627.400	-24.518	0.099
627.500	-13.377	0.099
627.600	-6.258	0.099
627.700	-20.002	0.100
627.800	-22.352	0.099
627.900	-9.987	0.099
628.000	-27.331	0.099
628.100	-9.346	0.099
628.200	-17.930	0.100
628.300	-13.703	0.099
628.400	-0.738	0.099
628.500	-6.046	0.099
628.600	-16.433	0.099
628.700	-3.588	0.099
628.800	-11.104	0.099
628.900	-19.722	0.099
629.000	-44.917	0.099
629.100	2.668	0.099
629.200	-0.579	0.100
629.300	5.578	0.099
629.400	-27.889	0.099
629.500	-26.787	0.099
629.600	-2.370	0.099
629.700	-0.108	0.099
629.800	-25.338	0.099
629.900	-24.968	0.100
630.000	5.750	0.100
630.100	-16.224	0.099
630.200	-7.704	0.099
630.300	5.264	0.100
630.400	-5.446	0.100
630.500	2.194	0.100
630.600	-2.777	0.099
630.700	15.069	0.099
630.800	17.213	0.099
630.900	12.042	0.099
631.000	17.119	0.099
631.100	9.155	0.099
631.200	31.334	0.100
631.300	25.751	0.099
631.400	20.121	0.099
631.500	25.739	0.100
631.600	47.025	0.100
631.700	31.423	0.099
631.800	26.799	0.100
631.900	36.993	0.099
632.000	30.474	0.099
632.100	31.029	0.100
632.200	37.267	0.099
632.300	6.703	0.100
632.400	24.640	0.099
632.500	12.042	0.099
632.600	13.263	0.099
632.700	52.517	0.100
632.800	29.280	0.100
632.900	23.100	0.099
633.000	42.508	0.100
633.100	14.365	0.099
633.200	27.567	0.099
633.300	32.075	0.099
633.400	13.742	0.099
633.500	31.795	0.099
633.600	37.291	0.100
633.700	10.622	0.100
633.800	17.425	0.099
633.900	33.804	0.100
634.000	31.692	0.100
634.100	30.449	0.100
634.200	35.871	0.099
634.300	29.589	0.100
634.400	10.715	0.099
634.500	33.085	0.100
634.600	2.780	0.099
634.700	14.498	0.100
634.800	31.103	0.100
634.900	15.850	0.100
635.000	31.447	0.099
635.100	3.443	0.099
635.200	19.930	0.099
635.300	18.843	0.099
635.400	28.928	0.100
635.500	19.808	0.100
635.600	36.451	0.099
635.700	-4.834	0.099
635.800	9.131	0.099
635.900	22.447	0.099
636.000	-1.777	0.100
636.100	25.641	0.099
636.200	31.908	0.099
636.300	24.618	0.099
636.400	25.736	0.099
636.500	19.724	0.099
636.600	3.556	0.099
636.700	15.232	0.099
636.800	24.897	0.100
636.900	21.029	0.100
637.000	13.213	0.099
637.100	18.898	0.099
637.200	12.296	0.099
637.300	11.011	0.100
637.400	10.048	0.099
637.500	43.916	0.100
637.600	38.461	0.100
637.700	39.118	0.099
637.800	2.848	0.099
637.900	30.369	0.100
638.000	1.900	0.100
638.100	18.924	0.100
638.200	27.965	0.100
638.300	2.856	0.100
638.400	42.489	0.100
638.500	36.370	0.100
638.600	-3.881	0.100
638.700	30.577	0.100
638.800	31.142	0.100
638.900	27.021	0.100
639.000	19.233	0.099
639.100	28.486	0.099
639.200	12.801	0.100
639.300	27.937	0.100
639.400	16.518	0.099
639.500	18.299	0.099
639.600	21.484	0.100
639.700	11.177	0.100
639.800	35.662	0.100
639.900	6.850	0.100
640.000	45.642	0.099
640.100	21.493	0.099
640.200	24.360	0.099
640.300	40.059	0.100
640.400	43.767	0.099
640.500	12.928	0.099
640.600	24.299	0.100
640.700	14.814	0.099
640.800	34.278	0.100
640.900	19.642	0.100
641.000	24.436	0.099
641.100	23.082	0.099
641.200	6.728	0.099
641.300	54.188	0.100
641.400	29.542	0.099
641.500	33.720	0.100
641.600	19.094	0.100
641.700	35.428	0.100
641.800	45.035	0.099
641.900	33.170	0.100
642.000	33.524	0.099
642.100	32.165	0.099
642.200	28.068	0.100
642.300	35.400	0.100
642.400	52.647	0.099
642.500	22.708	0.099
642.600	31.999	0.100
642.700	36.362	0.099
642.800	16.454	0.099
642.900	30.979	0.099
643.000	34.900	0.099
643.100	30.966	0.099
643.200	47.316	0.099
643.300	51.100	0.099
643.400	24.692	0.100
643.500	33.364	0.099
643.600	38.294	0.099
643.700	40.588	0.100
643.800	33.844	0.100
643.900	40.054	0.099
644.000	28.524	0.099
644.100	57.858	0.100
644.200	49.327	0.100
644.300	30.203	0.100
644.400	26.194	0.100
644.500	33.416	0.100
644.600	22.168	0.099
644.700	63.706	0.099
644.800	25.939	0.100
644.900	26.205	0.099
645.000	55.830	0.099
645.100	34.036	0.100
645.200	39.251	0.100
645.300	45.543	0.100
645.400	45.566	0.099
645.500	52.310	0.099
645.600	47.411	0.099
645.700	44.387	0.099
645.800	48.542	0.099
645.900	41.494	0.100
646.000	51.661	0.100
646.100	32.877	0.099
646.200	44.234	0.099
646.300	30.010	0.100
646.400	63.375	0.100
646.500	48.327	0.099
646.600	52.462	0.099
646.700	36.117	0.100
646.800	45.249	0.100
646.900	38.319	0.100
647.000	48.732	0.100
647.100	52.148	0.099
647.200	48.480	0.100
647.300	50.077	0.100
647.400	50.403	0.100
647.500	47.976	0.100
647.600	32.673	0.099
647.700	40.713	0.099
647.800	44.089	0.099
647.900	57.239	0.100
648.000	46.719	0.100
648.100	51.893	0.100
648.200	40.170	0.100
648.300	37.828	0.100
648.400	33.630	0.099
648.500	27.896	0.099
648.600	58.130	0.100
648.700	49.858	0.099
648.800	50.421	0.100
648.900	57.654	0.100
649.000	52.118	0.099
649.100	36.921	0.100
649.200	32.348	0.100
649.300	46.623	0.100
649.400	33.965	0.100
649.500	48.268	0.099
649.600	28.011	0.099
649.700	48.984	0.100
649.800	56.433	0.099
649.900	48.431	0.100
650.000	57.288	0.100
650.100	47.869	0.099
650.200	29.521	0.100
650.300	40.589	0.100
650.400	32.267	0.100
650.500	42.179	0.100
650.600	40.811	0.099
650.700	40.137	0.099
650.800	29.578	0.099
650.900	60.270	0.099
651.000	45.438	0.099
651.100	47.646	0.100
651.200	46.283	0.100
651.300	47.398	0.099
651.400	39.737	0.099
651.500	51.910	0.099
651.600	43.765	0.099
651.700	50.306	0.099
651.800	41.836	0.100
651.900	49.125	0.099
652.000	33.119	0.099
652.100	61.026	0.099
652.200	53.960	0.100
652.300	63.069	0.099
652.400	32.759	0.099
652.500	43.161	0.099
652.600	36.075	0.099
652.700	42.805	0.099
652.800	40.861	0.099
652.900	69.805	0.099
653.000	54.328	0.100
653.100	51.140	0.099
653.200	24.623	0.100
653.300	60.796	0.099
653.400	51.741	0.099
653.500	54.708	0.100
653.600	26.399	0.099
653.700	39.609	0.099
653.800	51.580	0.099
653.900	41.074	0.099
654.000	40.834	0.099
654.100	37.308	0.099
654.200	32.026	0.099
654.300	36.328	0.099
654.400	59.456	0.099
654.500	51.925	0.099
654.600	24.459	0.099
654.700	55.358	0.099
654.800	40.340	0.100
654.900	41.511	0.100
655.000	39.604	0.099
655.100	55.541	0.099
655.200	53.890	0.100
655.300	33.867	0.099
655.400	56.476	0.099
655.500	38.304	0.099
655.600	46.164	0.099
655.700	57.761	0.099
655.800	41.717	0.099
655.900	39.572	0.099
656.000	27.327	0.099
656.100	39.109	0.100
656.200	38.498	0.099
656.300	49.596	0.099
656.400	61.293	0.099
656.500	34.440	0.099
656.600	54.838	0.100
656.700	35.591	0.099
656.800	40.384	0.100
656.900	59.329	0.100
657.000	29.372	0.099
657.100	43.829	0.100
657.200	47.811	0.100
657.300	46.108	0.100
657.400	38.610	0.099
657.500	27.856	0.099
657.600	47.952	0.100
657.700	44.661	0.099
657.800	39.750	0.100
657.900	23.694	0.099
658.000	37.185	0.099
658.100	35.355	0.099
658.200	49.682	0.100
658.300	30.414	0.099
658.400	41.203	0.100
658.500	42.370	0.100
658.600	44.753	0.100
658.700	36.135	0.099
658.800	42.091	0.100
658.900	33.162	0.100
659.000	53.877	0.100
659.100	25.424	0.099
659.200	41.630	0.099
659.300	44.556	0.100
659.400	40.671	0.099
659.500	33.376	0.099
659.600	33.747	0.099
659.700	55.045	0.100
659.800	61.977	0.100
659.900	42.247	0.100
660.000	25.050	0.099
660.100	25.345	0.099
660.200	35.457	0.100
660.300	42.280	0.100
660.400	32.142	0.100
660.500	52.516	0.100
660.600	34.878	0.099
660.700	60.192	0.099
660.800	9.358	0.099
660.900	48.036	0.100
661.000	48.510	0.099
661.100	38.711	0.100
661.200	51.261	0.099
661.300	46.313	0.099
661.400	37.030	0.100
661.500	45.759	0.099
661.600	16.629	0.099
661.700	54.009	0.100
661.800	38.749	0.099
661.900	35.115	0.099
662.000	60.646	0.100
662.100	34.166	0.099
662.200	60.063	0.099
662.300	31.031	0.099
662.400	53.202	0.100
662.500	42.613	0.100
662.600	42.797	0.099
662.700	50.491	0.100
662.800	34.145	0.100
662.900	34.363	0.100
663.000	46.438	0.100
663.100	23.935	0.099
663.200	45.954	0.100
663.300	55.030	0.100
663.400	43.414	0.099
663.500	51.929	0.099
663.600	25.463	0.100
663.700	31.269	0.099
663.800	35.788	0.100
663.900	48.788	0.100
664.000	33.106	0.099
664.100	58.114	0.099
664.200	47.589	0.099
664.300	33.070	0.099
664.400	37.322	0.099
664.500	32.275	0.100
664.600	52.522	0.099
664.700	50.374	0.100
664.800	29.435	0.100
664.900	28.601	0.099
665.000	28.760	0.099
665.100	47.870	0.099
665.200	30.171	0.099
665.300	51.570	0.100
665.400	40.739	0.099
665.500	30.353	0.100
665.600	50.604	0.100
665.700	26.855	0.100
665.800	35.629	0.099
665.900	46.145	0.099
666.000	43.843	0.099
666.100	46.471	0.099
666.200	36.315	0.100
666.300	28.322	0.100
666.400	28.612	0.099
666.500	50.635	0.099
666.600	40.312	0.099
666.700	40.340	0.100
666.800	39.663	0.100
666.900	46.996	0.099
667.000	35.148	0.100
667.100	32.058	0.099
667.200	43.803	0.099
667.300	33.374	0.099
667.400	54.354	0.099
667.500	51.592	0.099
667.600	28.502	0.099
667.700	47.766	0.099
667.800	24.669	0.099
667.900	36.337	0.099
668.000	31.109	0.100
668.100	45.478	0.099
668.200	40.770	0.099
668.300	39.414	0.099
668.400	41.260	0.099
668.500	21.087	0.099
668.600	40.021	0.099
668.700	42.284	0.099
668.800	46.822	0.099
668.900	19.507	0.099
669.000	49.553	0.100
669.100	40.772	0.099
669.200	43.305	0.100
669.300	33.586	0.099
669.400	39.682	0.099
669.500	27.547	0.099
669.600	28.453	0.099
669.700	47.831	0.099
669.800	53.126	0.099
669.900	46.909	0.100
670.000	32.597	0.099
670.100	41.687	0.099
670.200	54.426	0.100
670.300	20.458	0.100
670.400	40.578	0.099
670.500	48.070	0.099
670.600	34.359	0.099
670.700	50.523	0.100
670.800	24.789	0.099
670.900	45.321	0.099
671.000	41.247	0.100
671.100	56.609	0.099
671.200	51.586	0.100
671.300	32.865	0.099
671.400	42.923	0.100
671.500	53.524	0.099
671.600	28.159	0.100
671.700	33.369	0.099
671.800	42.159	0.099
671.900	52.571	0.099
672.000	48.437	0.099
672.100	51.789	0.100
672.200	24.808	0.099
672.300	72.627	0.100
672.400	25.641	0.099
672.500	30.518	0.099
672.600	27.052	0.099
672.700	49.315	0.099
672.800	40.953	0.100
672.900	35.372	0.099
673.000	32.639	0.099
673.100	50.260	0.099
673.200	39.484	0.100
673.300	46.127	0.100
673.400	51.081	0.100
673.500	30.838	0.099
673.600	45.095	0.099
673.700	33.673	0.099
673.800	53.977	0.100
673.900	36.103	0.099
674.000	30.460	0.100
674.100	41.307	0.100
674.200	38.120	0.099
674.300	41.993	0.100
674.400	51.770	0.099
674.500	33.448	0.100
674.600	49.234	0.100
674.700	15.965	0.099
674.800	53.670	0.099
674.900	33.790	0.099
675.000	28.616	0.099
675.100	40.149	0.099
675.200	54.008	0.099
675.300	25.318	0.099
675.400	45.227	0.099
675.500	38.985	0.099
675.600	28.021	0.099
675.700	37.691	0.099
675.800	38.336	0.099
675.900	37.790	0.099
676.000	14.727	0.100
676.100	65.827	0.099
676.200	42.914	0.099
676.300	36.960	0.099
676.400	35.167	0.099
676.500	35.646	0.099
676.600	40.184	0.100
676.700	33.102	0.099
676.800	36.111	0.100
676.900	29.385	0.099
677.000	37.431	0.099
677.100	45.469	0.099
677.200	55.666	0.100
677.300	26.755	0.100
677.400	53.899	0.099
677.500	29.750	0.099
677.600	55.400	0.100
677.700	38.577	0.099
677.800	23.087	0.099
677.900	33.007	0.099
678.000	41.604	0.100
678.100	41.728	0.100
678.200	47.626	0.099
678.300	46.122	0.099
678.400	40.534	0.099
678.500	42.635	0.099
678.600	54.934	0.099
678.700	53.350	0.099
678.800	50.086	0.099
678.900	65.744	0.099
679.000	31.352	0.099
679.100	52.239	0.100
679.200	59.324	0.099
679.300	51.950	0.100
679.400	37.627	0.099
679.500	48.262	0.099
679.600	40.285	0.100
679.700	52.263	0.099
679.800	28.759	0.100
679.900	45.074	0.099
680.000	24.645	0.099
680.100	39.158	0.099
680.200	38.889	0.099
680.300	33.843	0.100
680.400	33.932	0.099
680.500	34.942	0.099
680.600	34.776	0.100
680.700	38.810	0.099
680.800	44.060	0.100
680.900	48.845	0.099
681.000	49.936	0.100
681.100	51.126	0.099
681.200	30.649	0.099
681.300	52.598	0.100
681.400	40.568	0.100
681.500	47.118	0.100
681.600	13.764	0.099
681.700	51.941	0.099
681.800	32.245	0.099
681.900	35.587	0.100
682.000	33.653	0.100
682.100	47.296	0.099
682.200	55.517	0.099
682.300	23.797	0.100
682.400	26.570	0.100
682.500	44.056	0.100
682.600	25.389	0.099
682.700	23.865	0.099
682.800	33.087	0.099
682.900	39.852	0.099
683.000	51.408	0.100
683.100	33.695	0.099
683.200	40.053	0.100
683.300	45.130	0.099
683.400	55.602	0.099
683.500	28.957	0.100
683.600	31.478	0.099
683.700	31.464	0.099
683.800	26.831	0.099
683.900	44.047	0.099
684.000	41.119	0.100
684.100	38.345	0.099
684.200	52.866	0.100
684.300	41.796	0.100
684.400	51.667	0.100
684.500	46.225	0.100
684.600	39.206	0.099
684.700	52.146	0.099
684.800	43.199	0.099
684.900	34.699	0.100
685.000	53.537	0.100
685.100	31.873	0.099
685.200	33.278	0.100
685.300	39.987	0.099
685.400	31.886	0.100
685.500	53.379	0.100
685.600	39.245	0.099
685.700	38.936	0.100
685.800	37.122	0.099
685.900	28.829	0.100
686.000	48.922	0.100
686.100	26.606	0.099
686.200	43.971	0.099
686.300	43.476	0.099
686.400	42.488	0.099
686.500	31.091	0.099
686.600	48.237	0.099
686.700	51.850	0.099
686.800	48.183	0.099
686.900	28.458	0.099
687.000	45.057	0.099
687.100	30.668	0.100
687.200	55.251	0.100
687.300	39.028	0.100
687.400	37.910	0.099
687.500	30.613	0.100
687.600	34.458	0.099
687.700	45.425	0.100
687.800	35.205	0.099
687.900	28.894	0.099
688.000	40.383	0.099
688.100	41.177	0.099
688.200	41.374	0.099
688.300	51.088	0.100
688.400	28.291	0.099
688.500	14.304	0.099
688.600	43.376	0.100
688.700	35.312	0.099
688.800	57.959	0.100
688.900	18.723	0.100
689.000	22.879	0.099
689.100	22.631	0.099
689.200	26.530	0.099
689.300	56.890	0.099
689.400	40.157	0.099
689.500	57.015	0.100
689.600	41.650	0.099
689.700	27.414	0.100
689.800	47.319	0.100
689.900	35.026	0.099
690.000	37.489	0.100
690.100	28.482	0.099
690.200	43.664	0.100
690.300	42.282	0.100
690.400	16.396	0.099
690.500	18.813	0.099
690.600	7.800	0.099
690.700	19.857	0.099
690.800	18.945	0.099
690.900	6.230	0.100
691.000	5.224	0.100
691.100	9.596	0.099
691.200	15.619	0.099
691.300	9.229	0.099
691.400	-3.526	0.099
691.500	4.035	0.099
691.600	-2.890	0.099
691.700	2.574	0.099
691.800	-5.555	0.099
691.900	7.279	0.099
692.000	-4.822	0.099
692.100	-13.462	0.099
692.200	8.422	0.099
692.300	-7.565	0.099
692.400	-2.963	0.099
692.500	-8.264	0.099
692.600	-1.484	0.099
692.700	-35.233	0.099
692.800	-4.789	0.099
692.900	8.483	0.099
693.000	-7.631	0.099
693.100	-5.125	0.099
693.200	-4.958	0.099
693.300	-24.410	0.099
693.400	4.125	0.099
693.500	-8.791	0.099
693.600	-4.776	0.099
693.700	-32.865	0.100
693.800	-10.591	0.099
693.900	24.163	0.099
694.000	-10.693	0.099
694.100	-2.590	0.099
694.200	-21.286	0.099
694.300	5.027	0.099
694.400	2.985	0.099
694.500	-25.527	0.099
694.600	-1.162	0.100
694.700	-19.628	0.099
694.800	-15.566	0.099
694.900	-15.997	0.099
695.000	0.673	0.100
695.100	-18.577	0.099
695.200	-49.852	0.099
695.300	-4.573	0.099
695.400	2.453	0.099
695.500	-20.208	0.099
695.600	-14.263	0.099
695.700	-0.139	0.099
695.800	-5.142	0.099
695.900	-25.046	0.099
696.000	12.448	0.099
696.100	-34.472	0.099
696.200	-14.728	0.099
696.300	-16.238	0.099
696.400	-21.050	0.099
696.500	-2.034	0.099
696.600	-8.339	0.099
696.700	-16.985	0.099
696.800	4.355	0.099
696.900	13.334	0.099
697.000	-23.252	0.099
697.100	-31.234	0.099
697.200	1.818	0.099
697.300	-16.291	0.099
697.400	-14.449	0.099
697.500	-45.799	0.099
697.600	-21.518	0.100
697.700	5.694	0.099
697.800	-12.751	0.099
697.900	-3.763	0.099
698.000	-8.897	0.100
698.100	-10.733	0.099
698.200	-27.575	0.099
698.300	-27.250	0.100
698.400	-4.785	0.099
698.500	-26.984	0.099
698.600	1.472	0.099
698.700	2.384	0.099
698.800	-18.519	0.099
698.900	-16.124	0.099
699.000	-29.897	0.099
699.100	-7.178	0.099
699.200	2.858	0.099
699.300	-5.058	0.099
699.400	-15.000	0.099
699.500	-14.564	0.099
699.600	-24.801	0.099
699.700	-16.913	0.099
699.800	-21.643	0.099
699.900	-10.232	0.099
700.000	-25.765	0.099
700.100	1.623	0.100
700.200	-40.624	0.099
700.300	-20.553	0.099
700.400	-26.572	0.099
700.500	-13.155	0.099
700.600	-8.465	0.099
700.700	-13.504	0.099
700.800	-24.993	0.099
700.900	-16.532	0.099
701.000	-16.653	0.099
701.100	-34.738	0.099
701.200	-8.297	0.099
701.300	-17.720	0.099
701.400	-17.510	0.099
701.500	-27.873	0.100
701.600	-16.821	0.099
701.700	-12.124	0.099
701.800	-21.203	0.099
701.900	-18.250	0.099
702.000	-25.264	0.099
702.100	-14.151	0.100
702.200	-17.569	0.099
702.300	-6.909	0.099
702.400	-19.513	0.099
702.500	-22.603	0.099
702.600	-12.055	0.099
702.700	-12.928	0.100
702.800	-17.500	0.100
702.900	-28.166	0.100
703.000	-23.279	0.099
703.100	-11.959	0.099
703.200	-19.104	0.099
703.300	-2.518	0.099
703.400	-28.164	0.099
703.500	-25.072	0.100
703.600	-13.809	0.099
703.700	-3.521	0.099
703.800	-13.169	0.099
703.900	-19.057	0.100
704.000	-25.737	0.099
704.100	-27.660	0.099
704.200	-8.595	0.099
704.300	-4.410	0.099
704.400	-46.197	0.099
704.500	-18.870	0.099
704.600	-17.720	0.099
704.700	-16.395	0.099
704.800	-25.651	0.099
704.900	-13.894	0.099
705.000	-23.163	0.099
705.100	-12.513	0.100
705.200	-0.627	0.099
705.300	-25.274	0.099
705.400	-44.167	0.100
705.500	-8.216	0.099
705.600	7.601	0.099
705.700	-36.172	0.099
705.800	-15.620	0.099
705.900	-20.695	0.099
706.000	-11.906	0.100
706.100	-29.841	0.099
706.200	-22.376	0.099
706.300	-24.491	0.099
706.400	-16.339	0.099
706.500	-19.509	0.099
706.600	-10.496	0.099
706.700	-29.240	0.099
706.800	-0.093	0.099
706.900	-20.349	0.099
707.000	-31.535	0.099
707.100	-31.730	0.100
707.200	7.566	0.099
707.300	-17.372	0.099
707.400	-20.045	0.099
707.500	-36.392	0.099
707.600	2.686	0.099
707.700	-18.605	0.099
707.800	-29.806	0.099
707.900	-17.328	0.099
708.000	-12.363	0.099
708.100	-29.646	0.099
708.200	-37.369	0.099
708.300	-19.181	0.099
708.400	-13.086	0.100
708.500	-16.480	0.100
708.600	-14.497	0.100
708.700	-34.198	0.099
708.800	10.143	0.099
708.900	-24.924	0.099
709.000	0.435	0.099
709.100	-25.437	0.099
709.200	-21.127	0.099
709.300	-22.198	0.099
709.400	-27.596	0.099
709.500	-23.345	0.099
709.600	-42.943	0.099
709.700	-12.448	0.099
709.800	-23.273	0.099
709.900	-29.843	0.099
710.000	-17.621	0.099
710.100	-17.601	0.099
710.200	-31.407	0.099
710.300	-6.176	0.099
710.400	-41.793	0.099
710.500	-11.733	0.100
710.600	-33.400	0.099
710.700	-0.755	0.099
710.800	-34.052	0.099
710.900	-23.365	0.099
711.000	-15.854	0.099
711.100	-13.453	0.099
711.200	-28.770	0.099
711.300	-26.940	0.099
711.400	-48.140	0.099
711.500	-21.181	0.099
711.600	-29.126	0.099
711.700	-6.968	0.099
711.800	-16.366	0.099
711.900	-19.624	0.099
712.000	-17.994	0.099
712.100	-27.765	0.099
712.200	-17.991	0.100
712.300	-35.775	0.099
712.400	-10.514	0.099
712.500	-25.820	0.099
712.600	-29.073	0.099
712.700	-8.929	0.099
712.800	-16.610	0.100
712.900	-13.819	0.099
713.000	-22.469	0.099
713.100	-24.730	0.099
713.200	-14.896	0.099
713.300	-21.769	0.099
713.400	4.341	0.100
713.500	-37.800	0.099
713.600	-25.949	0.099
713.700	-17.272	0.100
713.800	-21.992	0.099
713.900	-24.913	0.099
714.000	-22.572	0.100
714.100	-43.633	0.099
714.200	-29.442	0.099
714.300	-21.420	0.100
714.400	-30.879	0.099
714.500	-19.434	0.099
714.600	-32.346	0.099
714.700	-16.521	0.099
714.800	-31.864	0.099
714.900	-5.166	0.100
715.000	-34.270	0.100
715.100	1.262	0.099
715.200	-22.722	0.099
715.300	-36.808	0.099
715.400	-5.191	0.100
715.500	-18.865	0.100
715.600	-1.769	0.099
715.700	-33.271	0.099
715.800	-31.896	0.099
715.900	-18.187	0.099
716.000	-33.181	0.099
716.100	-17.880	0.099
716.200	-4.869	0.099
716.300	-20.340	0.099
716.400	-49.703	0.099
716.500	-22.685	0.100
716.600	-37.868	0.099
716.700	-19.555	0.100
716.800	-31.251	0.099
716.900	-34.973	0.099
717.000	-30.180	0.099
717.100	-23.372	0.100
717.200	-24.983	0.100
717.300	-17.116	0.100
717.400	-17.533	0.099
717.500	-15.448	0.099
717.600	-42.174	0.099
717.700	-9.638	0.099
717.800	-19.176	0.099
717.900	-14.141	0.099
718.000	-29.766	0.099
718.100	16.388	0.099
718.200	-20.236	0.099
718.300	-36.294	0.099
718.400	-6.442	0.100
718.500	-16.103	0.099
718.600	-22.764	0.099
718.700	-13.290	0.099
718.800	-17.458	0.099
718.900	-24.584	0.100
719.000	-24.396	0.100
719.100	-40.102	0.099
719.200	-34.724	0.100
719.300	-32.163	0.099
719.400	-13.184	0.099
719.500	-6.047	0.100
719.600	-14.455	0.100
719.700	-14.127	0.099
719.800	-33.219	0.100
719.900	-38.868	0.099
720.000	-23.621	0.099
720.100	-14.053	0.099
720.200	-40.023	0.099
720.300	-26.603	0.099
720.400	-23.158	0.100
720.500	-26.833	0.099
720.600	-11.613	0.099
720.700	4.987	0.099
720.800	-32.703	0.099
720.900	-52.211	0.099
721.000	-12.891	0.099
721.100	-31.587	0.100
721.200	-20.091	0.099
721.300	-11.346	0.099
721.400	-15.507	0.099
721.500	-21.035	0.099
721.600	-13.489	0.100
721.700	-26.226	0.100
721.800	-23.061	0.099
721.900	-36.461	0.099
722.000	-19.720	0.100
722.100	-20.575	0.099
722.200	-24.469	0.100
722.300	-29.383	0.100
722.400	-19.451	0.100
722.500	-45.623	0.099
722.600	-19.941	0.100
722.700	-8.262	0.100
722.800	3.271	0.100
722.900	-37.981	0.099
723.000	-30.360	0.099
723.100	-29.374	0.099
723.200	-18.820	0.099
723.300	-23.097	0.100
723.400	-20.559	0.100
723.500	-29.374	0.099
723.600	-16.405	0.099
723.700	-6.959	0.100
723.800	-26.732	0.100
723.900	-38.170	0.100
724.000	-10.577	0.100
724.100	-17.128	0.099
724.200	-41.483	0.099
724.300	-0.539	0.099
724.400	-30.311	0.100
724.500	-12.513	0.100
724.600	-50.119	0.100
724.700	-23.860	0.099
724.800	-18.342	0.099
724.900	-44.854	0.099
725.000	-21.964	0.100
725.100	-26.987	0.099
725.200	-24.101	0.099
725.300	-31.561	0.100
725.400	-15.248	0.099
725.500	-12.452	0.099
725.600	-41.413	0.100
725.700	-23.227	0.099
725.800	-30.425	0.100
725.900	-41.527	0.099
726.000	-30.100	0.099
726.100	-21.313	0.099
726.200	-14.456	0.099
726.300	-18.892	0.100
726.400	-38.220	0.099
726.500	-20.995	0.100
726.600	-35.974	0.100
726.700	-35.984	0.099
726.800	-37.619	0.099
726.900	-12.767	0.099
727.000	-16.654	0.099
727.100	-32.153	0.100
727.200	-11.612	0.099
727.300	-30.700	0.099
727.400	-30.581	0.099
727.500	-29.715	0.099
727.600	-27.712	0.099
727.700	-33.989	0.099
727.800	-25.513	0.099
727.900	-19.534	0.099
728.000	-31.349	0.099
728.100	-8.981	0.099
728.200	-47.826	0.100
728.300	-29.482	0.099
728.400	-6.859	0.099
728.500	-45.050	0.099
728.600	-30.458	0.099
728.700	-25.809	0.099
728.800	-19.916	0.100
728.900	-36.012	0.099
729.000	-23.465	0.099
729.100	-11.673	0.099
729.200	-23.271	0.099
729.300	-23.949	0.100
729.400	-10.133	0.099
729.500	-51.208	0.099
729.600	-14.453	0.099
729.700	-4.785	0.099
729.800	-4.285	0.099
729.900	-38.755	0.099
730.000	-27.275	0.099
730.100	-4.722	0.099
730.200	-36.783	0.099
730.300	-32.283	0.099
730.400	-13.828	0.099
730.500	-29.012	0.099
730.600	-9.291	0.099
730.700	-20.628	0.099
730.800	-33.532	0.099
730.900	-9.713	0.099
731.000	-21.117	0.099
731.100	-31.091	0.099
731.200	-5.685	0.100
731.300	-29.194	0.100
731.400	-16.519	0.099
731.500	-33.390	0.099
731.600	-30.544	0.099
731.700	-36.631	0.099
731.800	-16.786	0.099
731.900	-6.497	0.099
732.000	-35.117	0.099
732.100	-10.745	0.099
732.200	-28.712	0.099
732.300	-42.054	0.099
732.400	-13.280	0.099
732.500	-18.622	0.099
732.600	-25.271	0.100
732.700	-6.703	0.099
732.800	-10.210	0.099
732.900	-28.978	0.099
733.000	-8.312	0.099
733.100	-25.611	0.099
733.200	-22.798	0.100
733.300	-27.891	0.099
733.400	-15.062	0.099
733.500	5.022	0.099
733.600	-29.029	0.099
733.700	-34.531	0.099
733.800	-5.156	0.100
733.900	-19.923	0.099
734.000	-34.721	0.099
734.100	-7.428	0.100
734.200	-31.419	0.100
734.300	-40.130	0.100
734.400	-28.286	0.099
734.500	-26.352	0.099
734.600	-7.336	0.099
734.700	-8.155	0.099
734.800	-38.462	0.099
734.900	-13.622	0.099
735.000	-28.848	0.099
735.100	-28.708	0.099
735.200	-22.081	0.099
735.300	-13.164	0.099
735.400	2.261	0.099
735.500	-28.439	0.099
735.600	-23.541	0.099
735.700	-35.747	0.099
735.800	-15.867	0.099
735.900	5.456	0.099
736.000	-28.654	0.099
736.100	-36.220	0.099
736.200	-19.339	0.099
736.300	-24.692	0.099
736.400	-44.706	0.099
736.500	-25.498	0.099
736.600	-1.270	0.099
736.700	-30.216	0.099
736.800	-19.177	0.099
736.900	-4.416	0.099
737.000	-41.333	0.099
737.100	-4.983	0.099
737.200	-21.495	0.099
737.300	-20.765	0.100
737.400	-12.933	0.100
737.500	-2.775	0.099
737.600	-20.070	0.099
737.700	-19.491	0.099
737.800	-23.255	0.099
737.900	-35.922	0.100
738.000	-34.532	0.099
738.100	-29.586	0.099
738.200	-0.433	0.099
738.300	-18.533	0.100
738.400	-3.615	0.100
738.500	-30.213	0.099
738.600	-3.039	0.099
738.700	-18.659	0.099
738.800	-19.825	0.099
738.900	-24.279	0.099
739.000	-9.680	0.099
739.100	-11.591	0.100
739.200	-31.246	0.099
739.300	-28.320	0.099
739.400	-33.158	0.099
739.500	-32.299	0.099
739.600	-10.343	0.099
739.700	3.133	0.100
739.800	-13.903	0.099
739.900	-25.209	0.099
740.000	-14.634	0.099
740.100	-27.900	0.099
740.200	0.544	0.099
740.300	-14.434	0.100
740.400	-12.155	0.099
740.500	-6.582	0.099
740.600	-38.031	0.099
740.700	-28.560	0.099
740.800	-4.140	0.099
740.900	-15.855	0.099
741.000	-38.494	0.099
741.100	8.135	0.099
741.200	-23.413	0.099
741.300	-32.889	0.099
741.400	-23.476	0.100
741.500	5.620	0.100
741.600	-8.741	0.100
741.700	-23.803	0.099
741.800	-18.348	0.099
741.900	-10.050	0.099
742.000	-29.809	0.099
742.100	-17.154	0.099
742.200	-23.491	0.099
742.300	-26.782	0.099
742.400	-12.348	0.099
742.500	-29.162	0.099
742.600	-1.870	0.099
742.700	-11.972	0.099
742.800	-30.418	0.099
742.900	-16.540	0.099
743.000	-36.700	0.099
743.100	-14.239	0.099
743.200	-13.492	0.099
743.300	-6.306	0.099
743.400	-10.616	0.099
743.500	-23.139	0.099
743.600	-12.265	0.099
743.700	-17.047	0.100
743.800	-30.038	0.099
743.900	-15.165	0.099
744.000	-24.288	0.099
744.100	-39.070	0.099
744.200	-26.990	0.099
744.300	4.101	0.099
744.400	-25.776	0.099
744.500	-20.341	0.099
744.600	-13.289	0.099
744.700	-24.839	0.099
744.800	-7.670	0.099
744.900	-29.527	0.099
745.000	-12.916	0.099
745.100	-31.148	0.099
745.200	0.102	0.099
745.300	-7.187	0.099
745.400	-23.774	0.099
745.500	-13.922	0.099
745.600	-9.707	0.099
745.700	-15.756	0.099
745.800	-3.327	0.099
745.900	-24.425	0.099
746.000	-22.003	0.099
746.100	-11.842	0.100
746.200	-8.347	0.099
746.300	-11.289	0.099
746.400	-15.553	0.099
746.500	-14.473	0.099
746.600	-44.283	0.099
746.700	4.354	0.099
746.800	-32.450	0.099
746.900	-22.733	0.099
747.000	-43.171	0.099
747.100	10.763	0.099
747.200	-8.637	0.099
747.300	-20.704	0.099
747.400	-17.209	0.099
747.500	-3.331	0.100
747.600	-15.218	0.099
747.700	-4.441	0.099
747.800	-35.908	0.100
747.900	-17.772	0.099
748.000	-14.236	0.100
748.100	-29.901	0.099
748.200	-25.307	0.099
748.300	-28.225	0.099
748.400	-8.037	0.099
748.500	-40.228	0.099
748.600	-11.732	0.100
748.700	-23.277	0.100
748.800	-14.219	0.099
748.900	-5.165	0.099
749.000	-25.393	0.099
749.100	-22.372	0.099
749.200	-26.898	0.099
749.300	-21.989	0.099
749.400	-13.072	0.099
749.500	-5.840	0.099
749.600	-20.485	0.099
749.700	-18.568	0.099
749.800	-11.131	0.099
749.900	-25.488	0.099
750.000	-29.555	0.099
750.100	-2.029	0.099
750.200	15.740	0.099
750.300	20.833	0.100
750.400	-15.687	0.099
750.500	-47.088	0.099
750.600	-12.387	0.099
750.700	-16.174	0.099
750.800	-17.666	0.099
750.900	-4.906	0.099
751.000	-10.392	0.099
751.100	-11.299	0.100
751.200	-13.838	0.099
751.300	-21.272	0.099
751.400	-18.702	0.099
751.500	-16.423	0.099
751.600	-7.120	0.099
751.700	-31.027	0.099
751.800	-17.689	0.099
751.900	-7.348	0.099
752.000	-6.859	0.100
752.100	-25.323	0.099
752.200	-3.657	0.099
752.300	-26.165	0.099
752.400	-20.605	0.099
752.500	-10.490	0.100
752.600	-23.039	0.099
752.700	-10.368	0.099
752.800	-11.738	0.099
752.900	-23.974	0.099
753.000	-17.462	0.099
753.100	-16.347	0.099
753.200	-22.209	0.099
753.300	-8.660	0.099
753.400	-12.328	0.099
753.500	-18.511	0.099
753.600	-15.943	0.099
753.700	-12.369	0.099
753.800	-12.077	0.099
753.900	-17.079	0.099
754.000	-13.542	0.100
754.100	-31.132	0.099
754.200	-11.738	0.099
754.300	-26.123	0.099
754.400	-3.512	0.099
754.500	-15.104	0.099
754.600	-8.714	0.099
754.700	-35.443	0.099
754.800	-14.517	0.099
754.900	-21.627	0.099
755.000	-15.256	0.099
755.100	-38.064	0.100
755.200	2.935	0.099
755.300	-32.444	0.099
755.400	-24.625	0.099
755.500	-21.653	0.099
755.600	-21.325	0.099
755.700	-38.763	0.099
755.800	-0.729	0.099
755.900	-25.526	0.099
756.000	-12.436	0.099
756.100	-14.607	0.099
756.200	5.107	0.099
756.300	-9.737	0.099
756.400	-18.779	0.099
756.500	-20.106	0.099
756.600	-10.073	0.099
756.700	-13.996	0.099
756.800	-26.423	0.100
756.900	-35.468	0.099
757.000	-0.940	0.099
757.100	-14.072	0.099
757.200	-6.456	0.099
757.300	-4.080	0.099
757.400	0.258	0.099
757.500	-25.022	0.099
757.600	2.767	0.099
757.700	-34.771	0.099
757.800	-4.069	0.099
757.900	-9.659	0.099
758.000	-13.098	0.099
758.100	-26.585	0.099
758.200	-37.852	0.099
758.300	-10.063	0.099
758.400	-14.073	0.100
758.500	-4.700	0.099
758.600	-35.056	0.099
758.700	-25.611	0.099
758.800	-12.409	0.099
758.900	-9.818	0.100
759.000	-20.697	0.099
759.100	8.239	0.099
759.200	-0.858	0.099
759.300	-25.166	0.099
759.400	-10.051	0.099
759.500	-10.666	0.099
759.600	-25.280	0.099
759.700	-9.085	0.099
759.800	-8.843	0.099
759.900	-25.161	0.099
760.000	-22.828	0.099
760.100	-0.116	0.099
760.200	-27.248	0.099
760.300	-7.137	0.099
760.400	-10.767	0.099
760.500	-28.334	0.099
760.600	-26.829	0.099
760.700	-28.819	0.099
760.800	-20.527	0.099
760.900	-28.230	0.099
761.000	-13.677	0.099
761.100	-18.760	0.099
761.200	-21.971	0.099
761.300	-15.326	0.099
761.400	-14.320	0.099
761.500	-28.800	0.099
761.600	5.101	0.099
761.700	-22.520	0.099
761.800	-16.623	0.099
761.900	-20.759	0.099
762.000	-21.768	0.099
762.100	-18.452	0.099
762.200	-11.607	0.099
762.300	-28.950	0.099
762.400	-22.100	0.099
762.500	-13.670	0.099
762.600	-24.004	0.099
762.700	-13.870	0.099
762.800	-13.350	0.099
762.900	-1.788	0.099
763.000	-12.758	0.099
763.100	0.701	0.099
763.200	-27.420	0.099
763.300	-4.638	0.099
763.400	-29.237	0.099
763.500	5.300	0.099
763.600	-21.136	0.099
763.700	-5.933	0.099
763.800	-22.579	0.099
763.900	-3.090	0.099
764.000	-13.134	0.099
764.100	-11.062	0.099
764.200	-24.557	0.099
764.300	-17.333	0.099
764.400	-9.853	0.099
764.500	-20.321	0.099
764.600	-21.616	0.099
764.700	-13.524	0.099
764.800	-21.888	0.099
764.900	-16.329	0.099
765.000	-1.716	0.099
765.100	-31.895	0.099
765.200	-5.376	0.099
765.300	-21.832	0.099
765.400	-14.653	0.099
765.500	-1.214	0.099
765.600	-28.586	0.099
765.700	-18.294	0.099
765.800	-16.012	0.099
765.900	-12.628	0.099
766.000	-24.572	0.100
766.100	-12.936	0.099
766.200	-31.214	0.099
766.300	-26.643	0.099
766.400	-4.536	0.099
766.500	-14.822	0.099
766.600	-9.406	0.099
766.700	-7.175	0.099
766.800	-9.416	0.099
766.900	-20.148	0.099
767.000	-6.783	0.099
767.100	4.725	0.099
767.200	-9.802	0.099
767.300	-24.386	0.099
767.400	-16.739	0.099
767.500	-4.020	0.099
767.600	-18.307	0.099
767.700	-34.579	0.099
767.800	-7.300	0.099
767.900	3.360	0.099
768.000	-25.480	0.099
768.100	-8.190	0.099
768.200	-7.716	0.099
768.300	-29.056	0.099
768.400	-19.716	0.099
768.500	6.421	0.099
768.600	-9.199	0.099
768.700	-17.099	0.099
768.800	-18.811	0.099
768.900	-28.617	0.099
769.000	-3.945	0.099
769.100	-1.918	0.099
769.200	-33.174	0.099
769.300	-10.416	0.099
769.400	-9.442	0.099
769.500	-25.673	0.099
769.600	-32.808	0.099
769.700	1.987	0.099
769.800	-14.097	0.099
769.900	-12.401	0.099
770.000	-12.182	0.099
770.100	-27.001	0.099
770.200	-10.789	0.099
770.300	-15.577	0.099
770.400	-22.794	0.099
770.500	3.392	0.099
770.600	-10.644	0.099
770.700	-19.442	0.099
770.800	1.705	0.099
770.900	-5.429	0.099
771.000	1.725	0.099
771.100	-20.794	0.099
771.200	-14.308	0.099
771.300	-10.159	0.099
771.400	-43.294	0.099
771.500	-19.483	0.099
771.600	-18.185	0.099
771.700	-4.342	0.099
771.800	-9.991	0.099
771.900	-7.637	0.100
772.000	-5.445	0.099
772.100	-22.776	0.099
772.200	4.658	0.099
772.300	-11.951	0.100
772.400	-24.363	0.099
772.500	14.877	0.099
772.600	-37.545	0.099
772.700	-21.616	0.099
772.800	-4.033	0.099
772.900	-20.154	0.099
773.000	-18.836	0.099
773.100	-24.166	0.099
773.200	-9.889	0.099
773.300	-12.466	0.099
773.400	-12.855	0.099
773.500	0.494	0.099
773.600	-19.679	0.099
773.700	-20.725	0.099
773.800	-34.349	0.099
773.900	-9.624	0.099
774.000	2.327	0.100
774.100	-13.700	0.099
774.200	-13.758	0.099
774.300	-19.249	0.099
774.400	-2.506	0.099
774.500	-19.436	0.099
774.600	-3.346	0.099
774.700	-21.308	0.099
774.800	-14.344	0.099
774.900	-13.145	0.099
775.000	10.441	0.099
775.100	-20.167	0.099
775.200	-1.921	0.099
775.300	-5.758	0.099
775.400	-28.990	0.099
775.500	-8.757	0.099
775.600	-15.807	0.099
775.700	-18.864	0.099
775.800	-11.633	0.099
775.900	-16.614	0.099
776.000	-7.197	0.099
776.100	-7.952	0.099
776.200	-2.111	0.099
776.300	0.665	0.100
776.400	-26.124	0.099
776.500	-10.745	0.099
776.600	-24.575	0.099
776.700	-13.308	0.099
776.800	-4.031	0.099
776.900	-21.258	0.099
777.000	-12.908	0.099
777.100	-14.761	0.099
777.200	-27.816	0.099
777.300	-5.389	0.099
777.400	-16.554	0.099
777.500	4.328	0.099
777.600	3.113	0.099
777.700	-18.444	0.099
777.800	-13.946	0.099
777.900	-12.763	0.099
778.000	-11.508	0.099
778.100	-32.777	0.099
778.200	18.209	0.099
778.300	-24.988	0.099
778.400	-10.866	0.099
778.500	-23.390	0.099
778.600	-8.882	0.099
778.700	-23.559	0.099
778.800	-15.379	0.099
778.900	-0.722	0.099
779.000	-20.448	0.099
779.100	-7.859	0.099
779.200	-18.081	0.099
779.300	-9.463	0.099
779.400	-4.360	0.099
779.500	-1.707	0.099
779.600	-5.330	0.100
779.700	-11.282	0.100
779.800	-3.334	0.099
779.900	-23.381	0.099
780.000	-19.789	0.099
780.100	-3.407	0.099
780.200	-16.571	0.099
780.300	-10.214	0.099
780.400	-10.424	0.099
780.500	-17.732	0.099
780.600	-3.739	0.099
780.700	22.561	0.099
780.800	7.805	0.099
780.900	31.366	0.099
781.000	17.812	0.099
781.100	15.525	0.099
781.200	15.360	0.099
781.300	24.458	0.099
781.400	30.117	0.099
781.500	29.776	0.099
781.600	24.315	0.099
781.700	17.832	0.099
781.800	32.880	0.099
781.900	30.350	0.099
782.000	23.095	0.099
782.100	16.663	0.099
782.200	13.868	0.099
782.300	41.610	0.099
782.400	43.917	0.099
782.500	26.531	0.099
782.600	13.088	0.099
782.700	28.457	0.099
782.800	38.154	0.099
782.900	32.126	0.099
783.000	20.085	0.099
783.100	35.111	0.099
783.200	43.301	0.100
783.300	28.261	0.099
783.400	31.560	0.099
783.500	32.068	0.099
783.600	38.061	0.099
783.700	19.833	0.099
783.800	23.494	0.099
783.900	30.912	0.099
784.000	5.248	0.099
784.100	21.451	0.099
784.200	38.736	0.099
784.300	16.591	0.099
784.400	12.285	0.099
784.500	28.249	0.099
784.600	22.817	0.099
784.700	30.358	0.099
784.800	15.797	0.099
784.900	21.563	0.099
785.000	15.508	0.099
785.100	27.766	0.099
785.200	28.242	0.099
785.300	19.512	0.099
785.400	28.989	0.099
785.500	13.255	0.099
785.600	19.018	0.099
785.700	13.696	0.099
785.800	45.122	0.099
785.900	24.151	0.099
786.000	-6.893	0.099
786.100	20.618	0.099
786.200	27.827	0.099
786.300	23.079	0.099
786.400	20.271	0.099
786.500	19.619	0.099
786.600	24.118	0.099
786.700	4.225	0.099
786.800	17.642	0.099
786.900	7.919	0.099
787.000	28.130	0.099
787.100	24.102	0.099
787.200	19.333	0.099
787.300	20.031	0.099
787.400	11.875	0.099
787.500	43.359	0.099
787.600	36.887	0.099
787.700	27.345	0.099
787.800	25.660	0.099
787.900	26.303	0.099
788.000	19.439	0.099
788.100	25.058	0.099
788.200	21.143	0.099
788.300	5.636	0.099
788.400	45.175	0.099
788.500	10.501	0.099
788.600	21.538	0.099
788.700	17.581	0.099
788.800	5.769	0.099
788.900	26.481	0.099
789.000	30.761	0.099
789.100	13.252	0.099
789.200	24.958	0.099
789.300	10.252	0.099
789.400	12.570	0.099
789.500	14.187	0.099
789.600	15.355	0.099
789.700	10.637	0.099
789.800	17.755	0.099
789.900	22.716	0.099
790.000	39.306	0.099
790.100	27.188	0.099
790.200	33.482	0.099
790.300	16.910	0.099
790.400	22.284	0.099
790.500	26.376	0.099
790.600	36.540	0.099
790.700	30.716	0.099
790.800	27.222	0.099
790.900	13.423	0.099
791.000	41.361	0.100
791.100	-0.193	0.099
791.200	39.130	0.099
791.300	20.581	0.100
791.400	30.222	0.099
791.500	30.968	0.099
791.600	14.964	0.099
791.700	39.596	0.099
791.800	38.691	0.099
791.900	10.168	0.099
792.000	30.498	0.099
792.100	15.956	0.099
792.200	33.007	0.099
792.300	40.123	0.099
792.400	31.855	0.099
792.500	27.005	0.099
792.600	16.917	0.099
792.700	35.220	0.099
792.800	33.040	0.099
792.900	55.490	0.100
793.000	35.195	0.099
793.100	26.661	0.099
793.200	37.546	0.099
793.300	24.139	0.099
793.400	51.247	0.099
793.500	23.500	0.099
793.600	31.014	0.099
793.700	43.692	0.099
793.800	31.160	0.099
793.900	44.961	0.099
794.000	19.615	0.099
794.100	58.684	0.099
794.200	42.930	0.099
794.300	24.405	0.099
794.400	29.846	0.099
794.500	70.675	0.099
794.600	30.066	0.099
794.700	46.923	0.099
794.800	29.308	0.099
794.900	56.928	0.099
795.000	33.323	0.099
795.100	63.943	0.099
795.200	47.326	0.099
795.300	27.982	0.099
795.400	41.426	0.099
795.500	36.648	0.099
795.600	54.129	0.099
795.700	35.999	0.100
795.800	33.995	0.099
795.900	28.854	0.099
796.000	21.694	0.099
796.100	63.613	0.099
796.200	38.160	0.099
796.300	33.298	0.099
796.400	36.911	0.099
796.500	48.459	0.099
796.600	30.212	0.099
796.700	54.668	0.099
796.800	41.790	0.099
796.900	41.859	0.099
797.000	42.529	0.099
797.100	47.863	0.100
797.200	33.853	0.100
797.300	62.269	0.099
797.400	44.100	0.099
797.500	42.469	0.099
797.600	32.207	0.099
797.700	55.462	0.099
797.800	40.611	0.099
797.900	31.877	0.099
798.000	52.121	0.099
798.100	42.343	0.099
798.200	44.753	0.099
798.300	50.367	0.099
798.400	35.208	0.099
798.500	53.160	0.099
798.600	44.477	0.099
798.700	47.518	0.099
798.800	55.695	0.099
798.900	40.526	0.099
799.000	43.115	0.099
799.100	27.254	0.099
799.200	49.397	0.099
799.300	44.465	0.099
799.400	32.986	0.099
799.500	57.786	0.099
799.600	56.498	0.099
799.700	32.148	0.099
799.800	35.164	0.099
799.900	55.784	0.099
800.000	51.788	0.099
