time /s	I /nA	E /V
0.100	-20.520	0.100
0.200	-4.269	0.100
0.300	6.424	0.100
0.400	-19.700	0.100
0.500	-6.790	0.100
0.600	-2.110	0.100
0.700	10.163	0.100
0.800	-21.474	0.100
0.900	-3.012	0.100
1.000	-19.805	0.100
1.100	-10.127	0.100
1.200	-14.358	0.100
1.300	-3.888	0.100
1.400	-10.683	0.100
1.500	-14.643	0.100
1.600	0.221	0.100
1.700	-3.777	0.100
1.800	-8.536	0.100
1.900	-9.958	0.100
2.000	-17.876	0.100
2.100	-10.561	0.100
2.200	-1.352	0.100
2.300	-14.955	0.100
2.400	-22.274	0.100
2.500	-22.967	0.100
2.600	-3.289	0.100
2.700	-9.895	0.100
2.800	-16.423	0.100
2.900	0.734	0.100
3.000	-26.324	0.100
3.100	-10.077	0.100
3.200	-19.383	0.100
3.300	-7.385	0.100
3.400	-7.102	0.100
3.500	-15.474	0.100
3.600	-17.619	0.100
3.700	-11.630	0.100
3.800	-11.989	0.100
3.900	-2.272	0.100
4.000	-8.636	0.100
4.100	9.125	0.100
4.200	-38.711	0.100
4.300	-6.172	0.100
4.400	0.924	0.100
4.500	-20.127	0.100
4.600	-17.496	0.100
4.700	-1.759	0.100
4.800	-14.986	0.100
4.900	6.159	0.100
5.000	-6.084	0.100
5.100	-24.864	0.100
5.200	-4.847	0.100
5.300	0.654	0.100
5.400	1.482	0.100
5.500	-16.390	0.100
5.600	-7.765	0.100
5.700	-25.967	0.100
5.800	-5.759	0.100
5.900	-8.054	0.100
6.000	-12.375	0.100
6.100	-4.115	0.100
6.200	-34.693	0.100
6.300	-5.192	0.100
6.400	4.300	0.100
6.500	-7.729	0.100
6.600	-8.755	0.100
6.700	-9.602	0.100
6.800	9.114	0.100
6.900	-23.374	0.100
7.000	3.869	0.100
7.100	-20.801	0.100
7.200	-7.184	0.100
7.300	-4.932	0.100
7.400	-16.695	0.100
7.500	-18.416	0.100
7.600	-23.652	0.100
7.700	-18.655	0.100
7.800	-6.818	0.100
7.900	-5.872	0.100
8.000	-3.147	0.100
8.100	-16.989	0.100
8.200	-20.271	0.100
8.300	-20.457	0.100
8.400	5.354	0.100
8.500	-1.293	0.100
8.600	-24.207	0.100
8.700	-8.749	0.100
8.800	-10.858	0.100
8.900	-19.086	0.100
9.000	3.523	0.100
9.100	3.400	0.100
9.200	-15.010	0.100
9.300	-32.588	0.100
9.400	3.357	0.100
9.500	-16.856	0.100
9.600	-5.772	0.100
9.700	-13.446	0.100
9.800	-15.246	0.100
9.900	3.841	0.100
10.000	-16.360	0.100
10.100	-11.987	0.100
10.200	-14.423	0.100
10.300	-8.141	0.100
10.400	13.326	0.100
10.500	-3.897	0.100
10.600	-19.533	0.100
10.700	-27.183	0.100
10.800	-18.583	0.100
10.900	-21.859	0.100
11.000	8.958	0.100
11.100	-0.909	0.100
11.200	4.491	0.100
11.300	-20.752	0.100
11.400	-9.274	0.100
11.500	-8.315	0.100
11.600	-8.614	0.100
11.700	4.709	0.100
11.800	-14.531	0.100
11.900	-7.653	0.100
12.000	-2.696	0.100
12.100	-10.209	0.100
12.200	-11.628	0.100
12.300	-9.443	0.100
12.400	-11.756	0.100
12.500	-11.231	0.100
12.600	-6.346	0.100
12.700	-27.684	0.100
12.800	-22.372	0.100
12.900	3.216	0.100
13.000	-31.328	0.100
13.100	0.953	0.100
13.200	5.314	0.100
13.300	-21.319	0.100
13.400	-20.989	0.100
13.500	-1.655	0.100
13.600	-7.114	0.100
13.700	-10.406	0.100
13.800	-21.566	0.100
13.900	-5.766	0.100
14.000	3.616	0.100
14.100	-4.618	0.100
14.200	-32.902	0.100
14.300	-17.690	0.100
14.400	5.727	0.100
14.500	-3.371	0.100
14.600	-20.475	0.100
14.700	-14.038	0.100
14.800	-6.196	0.100
14.900	-11.325	0.100
15.000	-2.278	0.100
15.100	-20.954	0.100
15.200	-6.135	0.100
15.300	-16.171	0.100
15.400	1.966	0.100
15.500	-6.563	0.100
15.600	-33.738	0.100
15.700	-18.137	0.100
15.800	3.637	0.100
15.900	15.500	0.100
16.000	-11.845	0.100
16.100	-11.266	0.100
16.200	-13.258	0.100
16.300	-12.207	0.100
16.400	-7.866	0.100
16.500	-20.078	0.100
16.600	-4.489	0.100
16.700	-16.809	0.100
16.800	-19.984	0.100
16.900	-13.369	0.100
17.000	4.782	0.100
17.100	-13.767	0.100
17.200	-2.912	0.100
17.300	-7.678	0.100
17.400	4.088	0.100
17.500	-17.492	0.100
17.600	-9.548	0.100
17.700	1.290	0.100
17.800	-21.491	0.100
17.900	-2.077	0.100
18.000	-10.307	0.100
18.100	-7.995	0.100
18.200	-23.923	0.100
18.300	-27.704	0.100
18.400	2.293	0.100
18.500	-2.718	0.100
18.600	-26.154	0.100
18.700	-9.451	0.100
18.800	-19.190	0.100
18.900	-2.052	0.100
19.000	10.389	0.100
19.100	-16.038	0.100
19.200	-25.856	0.100
19.300	1.332	0.100
19.400	-13.815	0.100
19.500	-11.562	0.100
19.600	6.614	0.100
19.700	-6.281	0.100
19.800	-8.504	0.100
19.900	-9.841	0.100
20.000	-7.870	0.100
20.100	-3.211	0.100
20.200	-10.057	0.100
20.300	-5.651	0.100
20.400	-1.700	0.100
20.500	-15.007	0.100
20.600	-0.200	0.100
20.700	-20.062	0.100
20.800	-6.927	0.100
20.900	-0.387	0.100
21.000	-34.607	0.100
21.100	-1.681	0.100
21.200	-3.552	0.100
21.300	-1.963	0.100
21.400	-10.300	0.100
21.500	-2.966	0.100
21.600	-4.109	0.100
21.700	-8.615	0.100
21.800	-7.680	0.100
21.900	2.632	0.100
22.000	-3.672	0.100
22.100	-5.900	0.100
22.200	-3.106	0.100
22.300	5.014	0.100
22.400	-14.403	0.100
22.500	-21.722	0.100
22.600	-8.417	0.100
22.700	3.604	0.100
22.800	-27.869	0.100
22.900	-14.308	0.100
23.000	-12.394	0.100
23.100	-5.965	0.100
23.200	-13.724	0.100
23.300	-4.599	0.100
23.400	-8.635	0.100
23.500	-14.094	0.100
23.600	-15.207	0.100
23.700	-24.123	0.100
23.800	4.101	0.100
23.900	-0.630	0.100
24.000	-6.386	0.100
24.100	-10.470	0.100
24.200	1.696	0.100
24.300	-13.119	0.100
24.400	-9.322	0.100
24.500	-8.788	0.100
24.600	-8.530	0.100
24.700	-8.045	0.100
24.800	-10.928	0.100
24.900	-14.825	0.100
25.000	16.884	0.100
25.100	-13.268	0.100
25.200	-11.443	0.100
25.300	-27.237	0.100
25.400	1.134	0.100
25.500	-6.164	0.100
25.600	0.322	0.100
25.700	-18.570	0.100
25.800	1.362	0.100
25.900	-7.606	0.100
26.000	-18.895	0.100
26.100	-13.176	0.100
26.200	-11.671	0.100
26.300	-10.135	0.100
26.400	-12.663	0.100
26.500	-7.773	0.100
26.600	-12.797	0.100
26.700	-5.035	0.100
26.800	-16.122	0.100
26.900	-1.890	0.100
27.000	13.323	0.100
27.100	-15.665	0.100
27.200	-0.222	0.100
27.300	-22.034	0.100
27.400	-9.333	0.100
27.500	-15.173	0.100
27.600	10.840	0.100
27.700	-8.859	0.100
27.800	-5.502	0.100
27.900	-0.218	0.100
28.000	-18.377	0.100
28.100	-12.957	0.100
28.200	1.290	0.100
28.300	-3.445	0.100
28.400	-1.367	0.100
28.500	-0.151	0.100
28.600	-11.336	0.100
28.700	-2.905	0.100
28.800	-26.127	0.100
28.900	0.696	0.100
29.000	-3.020	0.100
29.100	-10.705	0.100
29.200	1.756	0.100
29.300	-6.320	0.100
29.400	-10.934	0.100
29.500	-30.350	0.100
29.600	0.832	0.100
29.700	-2.549	0.100
29.800	-16.911	0.100
29.900	-5.767	0.100
30.000	-0.312	0.100
30.100	-15.433	0.100
30.200	-1.687	0.100
30.300	6.765	0.100
30.400	-5.300	0.100
30.500	8.816	0.100
30.600	-4.622	0.100
30.700	2.714	0.100
30.800	-10.531	0.100
30.900	-5.107	0.100
31.000	-10.373	0.100
31.100	0.735	0.100
31.200	-6.090	0.100
31.300	-4.980	0.100
31.400	14.870	0.100
31.500	-1.440	0.100
31.600	-4.330	0.100
31.700	14.253	0.100
31.800	15.154	0.100
31.900	9.527	0.100
32.000	11.523	0.100
32.100	7.454	0.100
32.200	14.065	0.100
32.300	8.895	0.100
32.400	5.428	0.100
32.500	-2.568	0.100
32.600	15.677	0.100
32.700	-2.365	0.100
32.800	17.466	0.100
32.900	13.287	0.100
33.000	19.449	0.100
33.100	25.512	0.100
33.200	10.481	0.100
33.300	19.290	0.100
33.400	9.590	0.100
33.500	37.501	0.100
33.600	7.118	0.100
33.700	14.016	0.100
33.800	28.511	0.100
33.900	36.258	0.100
34.000	20.938	0.100
34.100	20.362	0.100
34.200	34.532	0.100
34.300	27.477	0.100
34.400	23.535	0.100
34.500	32.493	0.100
34.600	15.843	0.100
34.700	31.710	0.100
34.800	13.348	0.100
34.900	31.335	0.100
35.000	28.612	0.100
35.100	35.532	0.100
35.200	20.551	0.100
35.300	37.276	0.100
35.400	40.845	0.100
35.500	39.395	0.100
35.600	35.600	0.100
35.700	13.418	0.100
35.800	21.171	0.100
35.900	33.801	0.100
36.000	44.969	0.100
36.100	41.464	0.100
36.200	29.366	0.100
36.300	36.048	0.100
36.400	22.433	0.100
36.500	47.703	0.100
36.600	43.142	0.100
36.700	44.162	0.100
36.800	35.963	0.100
36.900	28.545	0.100
37.000	30.576	0.100
37.100	51.042	0.100
37.200	43.948	0.100
37.300	27.872	0.100
37.400	38.973	0.100
37.500	43.211	0.100
37.600	29.966	0.100
37.700	32.186	0.100
37.800	26.831	0.100
37.900	35.323	0.100
38.000	32.893	0.100
38.100	20.201	0.100
38.200	40.237	0.100
38.300	43.800	0.100
38.400	32.939	0.100
38.500	51.001	0.100
38.600	57.203	0.100
38.700	37.244	0.100
38.800	9.232	0.100
38.900	46.543	0.100
39.000	30.432	0.100
39.100	35.467	0.100
39.200	32.912	0.100
39.300	25.024	0.100
39.400	54.473	0.100
39.500	28.164	0.100
39.600	29.428	0.100
39.700	28.356	0.100
39.800	45.034	0.100
39.900	28.795	0.100
40.000	23.699	0.100
40.100	36.492	0.100
40.200	41.938	0.100
40.300	16.481	0.100
40.400	23.747	0.100
40.500	24.911	0.100
40.600	49.546	0.100
40.700	15.158	0.100
40.800	29.903	0.100
40.900	30.931	0.100
41.000	31.470	0.100
41.100	23.522	0.100
41.200	28.995	0.100
41.300	41.108	0.100
41.400	20.152	0.100
41.500	22.985	0.100
41.600	20.105	0.100
41.700	20.313	0.100
41.800	36.070	0.100
41.900	44.624	0.100
42.000	15.867	0.100
42.100	38.329	0.100
42.200	23.699	0.100
42.300	21.562	0.100
42.400	38.423	0.100
42.500	28.639	0.100
42.600	12.449	0.100
42.700	14.869	0.100
42.800	6.669	0.100
42.900	36.530	0.100
43.000	22.917	0.100
43.100	18.291	0.100
43.200	36.296	0.100
43.300	17.669	0.100
43.400	29.377	0.100
43.500	10.625	0.100
43.600	24.042	0.100
43.700	37.883	0.100
43.800	29.741	0.100
43.900	-1.877	0.100
44.000	11.574	0.100
44.100	48.386	0.100
44.200	18.482	0.100
44.300	25.720	0.100
44.400	22.027	0.100
44.500	12.736	0.100
44.600	28.284	0.100
44.700	20.414	0.100
44.800	13.164	0.100
44.900	19.489	0.100
45.000	32.870	0.100
45.100	25.619	0.100
45.200	21.947	0.100
45.300	24.965	0.100
45.400	19.626	0.100
45.500	17.406	0.100
45.600	29.993	0.100
45.700	10.897	0.100
45.800	28.447	0.100
45.900	25.613	0.100
46.000	10.419	0.100
46.100	14.794	0.100
46.200	27.272	0.100
46.300	36.583	0.100
46.400	17.201	0.100
46.500	8.040	0.100
46.600	6.442	0.100
46.700	16.705	0.100
46.800	44.521	0.100
46.900	30.320	0.100
47.000	14.751	0.100
47.100	22.487	0.100
47.200	14.889	0.100
47.300	31.672	0.100
47.400	38.381	0.100
47.500	24.269	0.100
47.600	0.682	0.100
47.700	22.369	0.100
47.800	4.027	0.100
47.900	40.587	0.100
48.000	19.502	0.100
48.100	33.429	0.100
48.200	20.003	0.100
48.300	17.067	0.100
48.400	16.955	0.100
48.500	30.235	0.100
48.600	30.712	0.100
48.700	40.809	0.100
48.800	15.714	0.100
48.900	20.129	0.100
49.000	9.147	0.100
49.100	7.944	0.100
49.200	38.345	0.100
49.300	16.393	0.100
49.400	-1.037	0.100
49.500	20.499	0.100
49.600	43.047	0.100
49.700	21.863	0.100
49.800	31.769	0.100
49.900	15.799	0.100
50.000	21.737	0.100
50.100	11.073	0.100
50.200	16.331	0.100
50.300	14.292	0.100
50.400	27.530	0.100
50.500	-1.997	0.100
50.600	32.828	0.100
50.700	31.897	0.100
50.800	21.049	0.100
50.900	13.761	0.100
51.000	17.879	0.100
51.100	11.316	0.100
51.200	4.195	0.100
51.300	48.731	0.100
51.400	34.644	0.100
51.500	-0.363	0.100
51.600	17.886	0.100
51.700	7.963	0.100
51.800	38.828	0.100
51.900	9.623	0.100
52.000	45.022	0.100
52.100	17.499	0.100
52.200	12.930	0.100
52.300	32.695	0.100
52.400	11.423	0.100
52.500	24.962	0.100
52.600	15.848	0.100
52.700	6.023	0.100
52.800	59.067	0.100
52.900	22.878	0.100
53.000	24.933	0.100
53.100	26.624	0.100
53.200	24.826	0.100
53.300	17.728	0.100
53.400	8.525	0.100
53.500	37.012	0.100
53.600	27.072	0.100
53.700	5.877	0.100
53.800	16.328	0.100
53.900	44.807	0.100
54.000	15.472	0.100
54.100	17.845	0.100
54.200	-7.476	0.100
54.300	12.426	0.100
54.400	47.392	0.100
54.500	7.771	0.100
54.600	18.852	0.100
54.700	49.257	0.100
54.800	29.412	0.100
54.900	17.061	0.100
55.000	17.335	0.100
55.100	30.923	0.100
55.200	33.654	0.100
55.300	16.192	0.100
55.400	14.435	0.100
55.500	35.367	0.100
55.600	12.926	0.100
55.700	25.213	0.100
55.800	22.965	0.100
55.900	27.838	0.100
56.000	21.340	0.100
56.100	8.112	0.100
56.200	18.979	0.100
56.300	21.216	0.100
56.400	30.267	0.100
56.500	19.229	0.100
56.600	21.163	0.100
56.700	18.687	0.100
56.800	12.883	0.100
56.900	43.526	0.100
57.000	31.517	0.100
57.100	22.586	0.100
57.200	17.994	0.100
57.300	14.871	0.100
57.400	23.413	0.100
57.500	35.772	0.100
57.600	25.747	0.100
57.700	31.782	0.100
57.800	14.769	0.100
57.900	45.233	0.100
58.000	14.488	0.100
58.100	23.150	0.100
58.200	23.571	0.100
58.300	21.209	0.100
58.400	37.074	0.100
58.500	6.568	0.100
58.600	40.154	0.100
58.700	23.334	0.100
58.800	31.082	0.100
58.900	26.765	0.100
59.000	28.392	0.100
59.100	14.847	0.100
59.200	9.358	0.100
59.300	36.275	0.100
59.400	22.057	0.100
59.500	40.834	0.100
59.600	2.394	0.100
59.700	19.036	0.100
59.800	30.841	0.100
59.900	32.928	0.100
60.000	34.575	0.100
60.100	18.881	0.100
60.200	13.269	0.100
60.300	13.577	0.100
60.400	34.049	0.100
60.500	41.270	0.100
60.600	34.150	0.100
60.700	42.754	0.100
60.800	32.131	0.100
60.900	31.151	0.100
61.000	19.580	0.100
61.100	21.372	0.100
61.200	24.048	0.100
61.300	6.398	0.100
61.400	33.126	0.100
61.500	42.801	0.100
61.600	34.073	0.100
61.700	10.939	0.100
61.800	13.392	0.100
61.900	24.529	0.100
62.000	25.851	0.100
62.100	28.040	0.100
62.200	37.034	0.100
62.300	24.603	0.100
62.400	30.748	0.100
62.500	22.000	0.100
62.600	20.914	0.100
62.700	38.008	0.100
62.800	21.753	0.100
62.900	36.895	0.100
63.000	38.064	0.100
63.100	31.316	0.100
63.200	35.825	0.100
63.300	24.443	0.100
63.400	15.117	0.100
63.500	34.318	0.100
63.600	38.688	0.100
63.700	6.950	0.100
63.800	39.129	0.100
63.900	32.452	0.100
64.000	24.477	0.100
64.100	19.141	0.100
64.200	20.177	0.100
64.300	23.210	0.100
64.400	11.987	0.100
64.500	5.306	0.100
64.600	19.808	0.100
64.700	40.699	0.100
64.800	22.794	0.100
64.900	15.825	0.100
65.000	36.475	0.100
65.100	6.043	0.100
65.200	19.485	0.100
65.300	16.156	0.100
65.400	34.154	0.100
65.500	23.768	0.100
65.600	22.140	0.100
65.700	38.880	0.100
65.800	19.817	0.100
65.900	21.361	0.100
66.000	45.362	0.100
66.100	20.949	0.100
66.200	23.733	0.100
66.300	37.706	0.100
66.400	36.949	0.100
66.500	34.668	0.100
66.600	20.464	0.100
66.700	48.918	0.100
66.800	18.864	0.100
66.900	43.574	0.100
67.000	26.495	0.100
67.100	6.280	0.100
67.200	15.655	0.100
67.300	18.485	0.100
67.400	40.328	0.100
67.500	5.674	0.100
67.600	23.435	0.100
67.700	33.309	0.100
67.800	26.894	0.100
67.900	27.345	0.100
68.000	21.620	0.100
68.100	26.829	0.100
68.200	24.637	0.100
68.300	28.835	0.100
68.400	35.905	0.100
68.500	30.539	0.100
68.600	27.214	0.100
68.700	21.512	0.100
68.800	25.658	0.100
68.900	44.512	0.100
69.000	28.670	0.100
69.100	24.300	0.100
69.200	27.717	0.100
69.300	32.100	0.100
69.400	26.742	0.100
69.500	18.000	0.100
69.600	30.696	0.100
69.700	20.053	0.100
69.800	26.097	0.100
69.900	24.243	0.100
70.000	29.899	0.100
70.100	27.044	0.100
70.200	35.938	0.100
70.300	18.081	0.100
70.400	18.072	0.100
70.500	18.746	0.100
70.600	20.450	0.100
70.700	39.383	0.100
70.800	24.670	0.100
70.900	35.474	0.100
71.000	49.416	0.100
71.100	12.919	0.100
71.200	14.283	0.100
71.300	24.862	0.100
71.400	23.117	0.100
71.500	36.077	0.100
71.600	17.780	0.100
71.700	32.040	0.100
71.800	44.335	0.100
71.900	25.223	0.100
72.000	24.161	0.100
72.100	25.695	0.100
72.200	12.001	0.100
72.300	38.386	0.100
72.400	29.434	0.100
72.500	31.461	0.100
72.600	32.948	0.100
72.700	41.413	0.100
72.800	20.229	0.100
72.900	19.816	0.100
73.000	29.428	0.100
73.100	17.473	0.100
73.200	33.525	0.100
73.300	35.091	0.100
73.400	27.357	0.100
73.500	18.635	0.100
73.600	15.394	0.100
73.700	10.040	0.100
73.800	30.945	0.100
73.900	36.204	0.100
74.000	13.842	0.100
74.100	22.958	0.100
74.200	35.875	0.100
74.300	36.801	0.100
74.400	19.116	0.100
74.500	42.457	0.100
74.600	30.601	0.100
74.700	34.505	0.100
74.800	30.870	0.100
74.900	25.513	0.100
75.000	32.276	0.100
75.100	33.058	0.100
75.200	27.874	0.100
75.300	32.771	0.100
75.400	38.097	0.100
75.500	2.786	0.100
75.600	28.936	0.100
75.700	19.423	0.100
75.800	35.186	0.100
75.900	45.225	0.100
76.000	48.413	0.100
76.100	34.840	0.100
76.200	26.751	0.100
76.300	29.825	0.100
76.400	35.024	0.100
76.500	23.083	0.100
76.600	9.796	0.100
76.700	26.346	0.100
76.800	23.652	0.100
76.900	26.496	0.100
77.000	30.987	0.100
77.100	22.138	0.100
77.200	29.021	0.100
77.300	19.321	0.100
77.400	22.724	0.100
77.500	40.556	0.100
77.600	30.554	0.100
77.700	19.843	0.100
77.800	30.086	0.100
77.900	20.581	0.100
78.000	35.886	0.100
78.100	24.756	0.100
78.200	26.585	0.100
78.300	32.878	0.100
78.400	34.686	0.100
78.500	41.958	0.100
78.600	24.075	0.100
78.700	22.132	0.100
78.800	32.946	0.100
78.900	31.084	0.100
79.000	31.551	0.100
79.100	33.045	0.100
79.200	16.575	0.100
79.300	38.758	0.100
79.400	42.352	0.100
79.500	31.528	0.100
79.600	37.187	0.100
79.700	23.643	0.100
79.800	32.932	0.100
79.900	11.448	0.100
80.000	37.716	0.100
80.100	37.187	0.100
80.200	30.179	0.100
80.300	31.102	0.100
80.400	31.660	0.100
80.500	30.129	0.100
80.600	40.779	0.100
80.700	43.481	0.100
80.800	7.274	0.100
80.900	36.780	0.100
81.000	33.764	0.100
81.100	27.534	0.100
81.200	22.877	0.100
81.300	32.761	0.100
81.400	28.638	0.100
81.500	20.537	0.100
81.600	43.913	0.100
81.700	9.205	0.100
81.800	34.440	0.100
81.900	33.706	0.100
82.000	31.138	0.100
82.100	31.094	0.100
82.200	39.285	0.100
82.300	24.428	0.100
82.400	42.523	0.100
82.500	42.510	0.100
82.600	25.987	0.100
82.700	21.194	0.100
82.800	45.562	0.100
82.900	28.096	0.100
83.000	47.287	0.100
83.100	25.117	0.100
83.200	25.987	0.100
83.300	25.177	0.100
83.400	20.960	0.100
83.500	27.453	0.100
83.600	23.377	0.100
83.700	53.325	0.100
83.800	38.825	0.100
83.900	21.433	0.100
84.000	36.340	0.100
84.100	45.349	0.100
84.200	41.237	0.100
84.300	9.708	0.100
84.400	29.563	0.100
84.500	33.315	0.100
84.600	16.626	0.100
84.700	35.316	0.100
84.800	39.982	0.100
84.900	39.212	0.100
85.000	33.606	0.100
85.100	44.540	0.100
85.200	44.984	0.100
85.300	7.700	0.100
85.400	16.282	0.100
85.500	42.429	0.100
85.600	42.489	0.100
85.700	29.299	0.100
85.800	35.583	0.100
85.900	25.155	0.100
86.000	37.595	0.100
86.100	26.545	0.100
86.200	32.205	0.100
86.300	25.669	0.100
86.400	42.886	0.100
86.500	34.915	0.100
86.600	40.685	0.100
86.700	41.710	0.100
86.800	20.419	0.100
86.900	12.435	0.100
87.000	24.949	0.100
87.100	35.094	0.100
87.200	46.619	0.100
87.300	25.474	0.100
87.400	27.830	0.100
87.500	39.684	0.100
87.600	25.954	0.100
87.700	62.517	0.100
87.800	37.751	0.100
87.900	32.838	0.100
88.000	17.275	0.100
88.100	31.481	0.100
88.200	38.107	0.100
88.300	26.313	0.100
88.400	58.261	0.100
88.500	29.217	0.100
88.600	8.643	0.100
88.700	41.457	0.100
88.800	24.397	0.100
88.900	29.101	0.100
89.000	43.766	0.100
89.100	32.651	0.100
89.200	21.114	0.100
89.300	36.070	0.100
89.400	31.740	0.100
89.500	49.303	0.100
89.600	17.785	0.100
89.700	32.950	0.100
89.800	32.818	0.100
89.900	22.737	0.100
90.000	29.317	0.100
90.100	32.646	0.100
90.200	39.737	0.100
90.300	24.977	0.100
90.400	14.732	0.100
90.500	27.919	0.100
90.600	25.271	0.100
90.700	28.134	0.100
90.800	10.329	0.100
90.900	-3.513	0.100
91.000	23.833	0.100
91.100	25.949	0.100
91.200	7.534	0.100
91.300	33.440	0.100
91.400	18.867	0.100
91.500	8.748	0.100
91.600	29.850	0.100
91.700	4.775	0.100
91.800	-7.440	0.100
91.900	-2.134	0.100
92.000	-8.262	0.100
92.100	12.838	0.100
92.200	3.735	0.100
92.300	18.908	0.100
92.400	0.449	0.100
92.500	9.261	0.100
92.600	-9.228	0.100
92.700	5.857	0.100
92.800	4.980	0.100
92.900	-9.860	0.100
93.000	-1.515	0.100
93.100	-9.324	0.100
93.200	1.875	0.100
93.300	-4.558	0.100
93.400	-7.021	0.100
93.500	0.107	0.100
93.600	-16.002	0.100
93.700	-7.068	0.100
93.800	-7.648	0.100
93.900	0.963	0.100
94.000	-7.941	0.100
94.100	-11.660	0.100
94.200	-21.839	0.100
94.300	12.440	0.100
94.400	1.975	0.100
94.500	-26.599	0.100
94.600	-9.720	0.100
94.700	-10.866	0.100
94.800	-4.015	0.100
94.900	-23.924	0.100
95.000	-19.677	0.100
95.100	-4.507	0.100
95.200	-2.510	0.100
95.300	-29.657	0.100
95.400	-7.195	0.100
95.500	-29.824	0.100
95.600	-16.071	0.100
95.700	-37.526	0.100
95.800	2.519	0.100
95.900	-30.393	0.100
96.000	0.400	0.100
96.100	-11.631	0.100
96.200	-13.476	0.100
96.300	-31.865	0.100
96.400	-21.585	0.100
96.500	-15.277	0.100
96.600	-17.708	0.100
96.700	-25.576	0.100
96.800	-23.814	0.100
96.900	-5.807	0.100
97.000	-23.036	0.100
97.100	-11.271	0.100
97.200	-38.505	0.100
97.300	2.618	0.100
97.400	-5.580	0.100
97.500	-35.588	0.100
97.600	-33.734	0.100
97.700	-13.733	0.100
97.800	10.258	0.100
97.900	-18.135	0.100
98.000	-14.912	0.100
98.100	-19.773	0.100
98.200	-14.455	0.100
98.300	-24.152	0.100
98.400	-10.894	0.100
98.500	-17.263	0.100
98.600	-8.213	0.100
98.700	-24.190	0.100
98.800	-14.912	0.100
98.900	-3.962	0.100
99.000	-28.999	0.100
99.100	-19.791	0.100
99.200	-23.101	0.100
99.300	-19.357	0.100
99.400	-22.216	0.100
99.500	-20.838	0.100
99.600	-15.883	0.100
99.700	-9.928	0.100
99.800	-19.801	0.100
99.900	5.692	0.100
100.000	-20.635	0.100
100.100	-5.362	0.100
100.200	-16.138	0.100
100.300	-33.502	0.100
100.400	-6.421	0.100
100.500	1.258	0.100
100.600	-27.949	0.100
100.700	-20.583	0.100
100.800	-23.039	0.100
100.900	-1.500	0.100
101.000	-26.711	0.100
101.100	-8.316	0.100
101.200	-15.629	0.100
101.300	-14.598	0.100
101.400	-9.950	0.100
101.500	-11.878	0.100
101.600	-13.421	0.100
101.700	-22.980	0.100
101.800	-23.694	0.100
101.900	-25.862	0.100
102.000	-14.042	0.100
102.100	-3.933	0.100
102.200	-6.734	0.100
102.300	-8.206	0.100
102.400	-15.603	0.100
102.500	-2.646	0.100
102.600	-14.577	0.100
102.700	-12.809	0.100
102.800	-12.932	0.100
102.900	-14.493	0.100
103.000	-10.996	0.100
103.100	-10.288	0.100
103.200	-18.000	0.100
103.300	-8.508	0.100
103.400	0.331	0.100
103.500	-24.283	0.100
103.600	-27.913	0.100
103.700	-22.234	0.100
103.800	-19.180	0.100
103.900	-15.866	0.100
104.000	-5.660	0.100
104.100	-17.544	0.100
104.200	-21.447	0.100
104.300	-15.924	0.100
104.400	0.205	0.100
104.500	-22.117	0.100
104.600	-3.699	0.100
104.700	-30.310	0.100
104.800	-18.566	0.100
104.900	-21.382	0.100
105.000	-2.667	0.100
105.100	-27.775	0.100
105.200	0.820	0.100
105.300	-11.044	0.100
105.400	-4.876	0.100
105.500	-17.317	0.100
105.600	-26.790	0.100
105.700	-41.900	0.100
105.800	-25.584	0.100
105.900	9.711	0.100
106.000	-2.966	0.100
106.100	12.764	0.100
106.200	-11.430	0.100
106.300	-16.353	0.100
106.400	-36.757	0.100
106.500	0.140	0.100
106.600	-19.054	0.100
106.700	-13.249	0.100
106.800	-10.070	0.100
106.900	-19.946	0.100
107.000	-21.519	0.100
107.100	-8.076	0.100
107.200	-23.159	0.100
107.300	-10.233	0.100
107.400	-0.736	0.100
107.500	12.480	0.100
107.600	-36.674	0.100
107.700	-3.881	0.100
107.800	-22.800	0.100
107.900	-5.912	0.100
108.000	-14.376	0.100
108.100	-36.980	0.100
108.200	-11.933	0.100
108.300	-12.931	0.100
108.400	-17.573	0.100
108.500	-3.366	0.100
108.600	-24.952	0.100
108.700	-2.027	0.100
108.800	-2.856	0.100
108.900	-11.256	0.100
109.000	-5.912	0.100
109.100	-28.137	0.100
109.200	-6.120	0.100
109.300	-5.018	0.100
109.400	-7.150	0.100
109.500	-12.093	0.100
109.600	-28.731	0.100
109.700	-36.814	0.100
109.800	-9.049	0.100
109.900	-14.807	0.100
110.000	-22.288	0.100
110.100	-2.490	0.100
110.200	-3.722	0.100
110.300	-17.347	0.100
110.400	-17.396	0.100
110.500	-31.087	0.100
110.600	-20.042	0.100
110.700	-16.708	0.100
110.800	-17.122	0.100
110.900	-10.135	0.100
111.000	-2.135	0.100
111.100	-17.598	0.100
111.200	-22.207	0.100
111.300	-5.400	0.100
111.400	-26.973	0.100
111.500	-8.278	0.100
111.600	-6.024	0.100
111.700	0.191	0.100
111.800	-7.758	0.100
111.900	-31.078	0.100
112.000	2.433	0.100
112.100	-19.049	0.100
112.200	-16.786	0.100
112.300	-6.311	0.100
112.400	-16.386	0.100
112.500	-24.940	0.100
112.600	-12.923	0.100
112.700	-21.565	0.100
112.800	-12.161	0.100
112.900	-25.802	0.100
113.000	-5.703	0.100
113.100	-5.416	0.100
113.200	-6.677	0.100
113.300	-10.904	0.100
113.400	-6.941	0.100
113.500	-6.201	0.100
113.600	-14.209	0.100
113.700	-28.897	0.100
113.800	-14.912	0.100
113.900	-16.624	0.100
114.000	-11.984	0.100
114.100	0.654	0.100
114.200	-20.983	0.100
114.300	-13.461	0.100
114.400	-4.940	0.100
114.500	-15.059	0.100
114.600	-20.850	0.100
114.700	-12.112	0.100
114.800	-8.778	0.100
114.900	-6.753	0.100
115.000	-11.005	0.100
115.100	2.535	0.100
115.200	-8.779	0.100
115.300	-1.197	0.100
115.400	-20.967	0.100
115.500	-20.374	0.100
115.600	-14.027	0.100
115.700	0.561	0.100
115.800	-22.400	0.100
115.900	-19.337	0.100
116.000	-13.809	0.100
116.100	-24.851	0.100
116.200	-31.952	0.100
116.300	-10.659	0.100
116.400	-3.501	0.100
116.500	-7.825	0.100
116.600	-32.576	0.100
116.700	-9.249	0.100
116.800	-25.741	0.100
116.900	12.529	0.100
117.000	-20.037	0.100
117.100	-3.007	0.100
117.200	-26.778	0.100
117.300	-2.915	0.100
117.400	-20.941	0.100
117.500	-20.990	0.100
117.600	-38.812	0.100
117.700	2.732	0.100
117.800	-24.833	0.100
117.900	8.599	0.100
118.000	-15.368	0.100
118.100	-23.869	0.100
118.200	-31.429	0.100
118.300	0.259	0.100
118.400	-22.549	0.100
118.500	-20.695	0.100
118.600	-4.603	0.100
118.700	-2.669	0.100
118.800	-28.923	0.100
118.900	-9.623	0.100
119.000	-7.669	0.100
119.100	-9.697	0.100
119.200	-14.396	0.100
119.300	-9.973	0.100
119.400	-11.151	0.100
119.500	-6.676	0.100
119.600	-10.054	0.100
119.700	-26.492	0.100
119.800	7.515	0.100
119.900	-34.000	0.100
120.000	-5.170	0.100
120.100	-1.727	0.100
120.200	-14.009	0.100
120.300	-29.299	0.100
120.400	-31.852	0.100
120.500	-4.267	0.100
120.600	-5.860	0.100
120.700	-3.101	0.100
120.800	-5.980	0.100
120.900	-32.544	0.100
121.000	-21.990	0.100
121.100	-38.373	0.100
121.200	-8.551	0.100
121.300	-1.125	0.100
121.400	-15.952	0.100
121.500	-31.342	0.100
121.600	-25.533	0.100
121.700	-13.440	0.100
121.800	-7.389	0.100
121.900	-16.661	0.100
122.000	-11.243	0.100
122.100	-23.168	0.100
122.200	-20.399	0.100
122.300	-11.805	0.100
122.400	-10.918	0.100
122.500	-10.888	0.100
122.600	-14.817	0.100
122.700	-14.067	0.100
122.800	-11.022	0.100
122.900	-16.267	0.100
123.000	-10.592	0.100
123.100	-3.550	0.100
123.200	-9.793	0.100
123.300	-12.745	0.100
123.400	-7.576	0.100
123.500	-20.317	0.100
123.600	-33.796	0.100
123.700	-4.504	0.100
123.800	-17.496	0.100
123.900	-28.776	0.100
124.000	-12.599	0.100
124.100	-25.295	0.100
124.200	-12.020	0.100
124.300	-27.486	0.100
124.400	-25.449	0.100
124.500	0.401	0.100
124.600	9.057	0.100
124.700	-19.461	0.100
124.800	-9.651	0.100
124.900	-22.155	0.100
125.000	-32.970	0.100
125.100	-25.835	0.100
125.200	-23.183	0.100
125.300	-7.000	0.100
125.400	-5.373	0.100
125.500	-16.082	0.100
125.600	-6.508	0.100
125.700	-17.195	0.100
125.800	-24.841	0.100
125.900	-22.047	0.100
126.000	-8.373	0.100
126.100	-17.755	0.100
126.200	-22.352	0.100
126.300	7.495	0.100
126.400	-15.008	0.100
126.500	-13.913	0.100
126.600	-25.787	0.100
126.700	-7.165	0.100
126.800	-33.406	0.100
126.900	-18.814	0.100
127.000	-6.290	0.100
127.100	-8.598	0.100
127.200	-21.439	0.100
127.300	-25.873	0.100
127.400	-16.417	0.100
127.500	-14.994	0.100
127.600	-10.444	0.100
127.700	-32.529	0.100
127.800	-7.161	0.100
127.900	-35.737	0.100
128.000	-13.815	0.100
128.100	-9.735	0.100
128.200	-22.732	0.100
128.300	-8.270	0.100
128.400	-10.268	0.100
128.500	-12.505	0.100
128.600	-30.969	0.100
128.700	-36.593	0.100
128.800	-12.547	0.100
128.900	-3.947	0.100
129.000	-9.161	0.100
129.100	-19.373	0.100
129.200	-9.337	0.100
129.300	-36.047	0.100
129.400	-13.476	0.100
129.500	-7.536	0.100
129.600	-12.914	0.100
129.700	-25.377	0.100
129.800	-7.538	0.100
129.900	-10.397	0.100
130.000	-16.429	0.099
130.100	-23.109	0.099
130.200	-18.806	0.099
130.300	-15.340	0.100
130.400	-28.996	0.099
130.500	-19.740	0.099
130.600	-30.212	0.099
130.700	-19.058	0.099
130.800	-13.618	0.099
130.900	-21.531	0.099
131.000	-3.080	0.099
131.100	-8.080	0.099
131.200	-19.970	0.099
131.300	-9.395	0.099
131.400	-23.534	0.099
131.500	-23.535	0.099
131.600	-9.500	0.099
131.700	-9.769	0.099
131.800	-24.993	0.099
131.900	-18.401	0.099
132.000	-21.174	0.099
132.100	-17.681	0.099
132.200	-17.232	0.099
132.300	-12.441	0.099
132.400	-30.948	0.099
132.500	1.080	0.099
132.600	-16.657	0.099
132.700	-8.657	0.099
132.800	-14.320	0.099
132.900	-28.780	0.099
133.000	-11.482	0.099
133.100	-12.257	0.099
133.200	-21.732	0.099
133.300	-18.229	0.099
133.400	-19.678	0.099
133.500	-17.105	0.099
133.600	-19.174	0.099
133.700	-23.579	0.099
133.800	-6.440	0.099
133.900	-23.962	0.099
134.000	-15.188	0.099
134.100	-17.234	0.099
134.200	-0.434	0.099
134.300	-17.988	0.099
134.400	-28.508	0.099
134.500	-8.565	0.099
134.600	-8.946	0.099
134.700	-22.796	0.099
134.800	-21.496	0.099
134.900	-9.058	0.099
135.000	-21.593	0.099
135.100	-1.445	0.099
135.200	-20.440	0.099
135.300	-16.675	0.099
135.400	-15.782	0.099
135.500	-27.003	0.099
135.600	-9.416	0.099
135.700	-9.897	0.099
135.800	-25.549	0.099
135.900	-15.328	0.099
136.000	-27.378	0.099
136.100	-8.010	0.099
136.200	-2.165	0.099
136.300	-26.521	0.099
136.400	-23.709	0.099
136.500	-24.490	0.099
136.600	-11.884	0.099
136.700	-5.529	0.099
136.800	-13.565	0.099
136.900	-16.484	0.099
137.000	-22.635	0.099
137.100	-27.576	0.099
137.200	-24.981	0.099
137.300	5.862	0.099
137.400	-13.296	0.099
137.500	-7.895	0.099
137.600	-16.931	0.099
137.700	-11.108	0.099
137.800	-17.969	0.099
137.900	-27.575	0.099
138.000	-25.635	0.099
138.100	-21.531	0.099
138.200	-36.784	0.099
138.300	-26.598	0.099
138.400	-8.093	0.099
138.500	-8.454	0.099
138.600	-13.423	0.099
138.700	-20.686	0.099
138.800	-13.507	0.099
138.900	-1.715	0.099
139.000	-0.896	0.099
139.100	-28.898	0.099
139.200	-7.460	0.099
139.300	-19.853	0.099
139.400	-39.657	0.099
139.500	-21.843	0.099
139.600	-8.373	0.099
139.700	-22.090	0.099
139.800	-7.870	0.099
139.900	-19.473	0.099
140.000	-27.245	0.099
140.100	0.150	0.099
140.200	-23.422	0.099
140.300	-9.082	0.099
140.400	-11.235	0.099
140.500	-10.353	0.099
140.600	-19.312	0.099
140.700	-26.711	0.099
140.800	-10.291	0.099
140.900	-30.885	0.099
141.000	0.034	0.099
141.100	-5.667	0.099
141.200	-16.651	0.099
141.300	-9.950	0.099
141.400	-10.403	0.099
141.500	-16.592	0.099
141.600	-17.033	0.099
141.700	-26.075	0.099
141.800	-0.821	0.099
141.900	-8.763	0.099
142.000	-27.450	0.099
142.100	-19.017	0.099
142.200	-3.546	0.099
142.300	-3.104	0.099
142.400	-17.054	0.099
142.500	-21.089	0.099
142.600	-13.240	0.099
142.700	-2.050	0.099
142.800	6.980	0.099
142.900	-20.651	0.099
143.000	-10.854	0.099
143.100	-20.893	0.099
143.200	-7.668	0.099
143.300	-13.864	0.099
143.400	1.525	0.099
143.500	-4.282	0.099
143.600	-10.393	0.099
143.700	-40.870	0.099
143.800	-20.545	0.099
143.900	-7.177	0.099
144.000	-6.361	0.099
144.100	-15.163	0.099
144.200	-10.288	0.099
144.300	-19.237	0.099
144.400	-7.297	0.099
144.500	-5.375	0.099
144.600	-13.152	0.099
144.700	-21.122	0.099
144.800	-37.458	0.099
144.900	-18.645	0.099
145.000	-5.672	0.099
145.100	-10.039	0.099
145.200	0.518	0.099
145.300	-8.918	0.099
145.400	-18.294	0.099
145.500	-15.050	0.099
145.600	-17.841	0.099
145.700	-7.905	0.099
145.800	-19.634	0.099
145.900	-6.576	0.099
146.000	3.423	0.099
146.100	-16.641	0.099
146.200	-14.472	0.099
146.300	-8.946	0.099
146.400	-6.493	0.099
146.500	-41.493	0.099
146.600	-10.400	0.099
146.700	-16.248	0.099
146.800	-16.665	0.099
146.900	0.787	0.099
147.000	-20.027	0.099
147.100	0.128	0.099
147.200	-14.211	0.099
147.300	-13.596	0.099
147.400	-8.461	0.099
147.500	-15.896	0.099
147.600	-4.686	0.099
147.700	-29.662	0.100
147.800	-3.422	0.099
147.900	-23.676	0.099
148.000	-19.170	0.099
148.100	-14.821	0.099
148.200	-7.454	0.099
148.300	-10.295	0.099
148.400	-11.208	0.100
148.500	-11.123	0.100
148.600	-16.768	0.099
148.700	-24.404	0.099
148.800	-17.014	0.099
148.900	10.590	0.099
149.000	-4.471	0.100
149.100	-8.268	0.099
149.200	-10.568	0.099
149.300	-10.662	0.100
149.400	-10.267	0.099
149.500	-15.118	0.099
149.600	-3.830	0.100
149.700	-12.753	0.099
149.800	-21.264	0.100
149.900	-23.841	0.099
150.000	-12.873	0.099
150.100	-19.323	0.099
150.200	-5.299	0.099
150.300	-14.786	0.099
150.400	-2.249	0.099
150.500	-15.317	0.100
150.600	-23.660	0.099
150.700	-4.147	0.099
150.800	-32.665	0.099
150.900	-4.714	0.099
151.000	10.066	0.099
151.100	-16.349	0.099
151.200	-17.050	0.099
151.300	-17.288	0.099
151.400	-0.695	0.099
151.500	-23.776	0.100
151.600	-29.663	0.099
151.700	-8.812	0.099
151.800	-5.241	0.099
151.900	-27.559	0.099
152.000	0.668	0.099
152.100	-32.252	0.100
152.200	-27.294	0.099
152.300	-0.072	0.099
152.400	-13.754	0.100
152.500	-7.334	0.099
152.600	2.910	0.099
152.700	-23.804	0.099
152.800	-13.603	0.100
152.900	-11.925	0.100
153.000	-19.546	0.099
153.100	-8.771	0.100
153.200	-17.079	0.100
153.300	-22.369	0.099
153.400	0.384	0.099
153.500	-15.343	0.099
153.600	-19.859	0.100
153.700	-19.298	0.100
153.800	-13.695	0.099
153.900	-5.620	0.100
154.000	3.987	0.100
154.100	-23.844	0.100
154.200	-33.590	0.100
154.300	11.221	0.100
154.400	-20.164	0.100
154.500	-9.710	0.099
154.600	-20.987	0.100
154.700	-8.560	0.100
154.800	-3.402	0.099
154.900	-23.451	0.100
155.000	2.472	0.100
155.100	-5.709	0.099
155.200	-16.086	0.100
155.300	-14.435	0.100
155.400	-12.232	0.100
155.500	-16.950	0.100
155.600	-26.173	0.100
155.700	-8.581	0.099
155.800	-11.084	0.100
155.900	-17.192	0.099
156.000	-14.677	0.099
156.100	-16.569	0.100
156.200	-7.584	0.100
156.300	-28.705	0.100
156.400	-19.646	0.100
156.500	-11.294	0.099
156.600	-25.087	0.099
156.700	-8.661	0.100
156.800	-11.260	0.100
156.900	-17.867	0.100
157.000	-28.124	0.099
157.100	-13.248	0.100
157.200	-13.189	0.100
157.300	-8.942	0.100
157.400	-13.642	0.100
157.500	-10.525	0.100
157.600	-14.779	0.100
157.700	-13.965	0.100
157.800	-7.955	0.100
157.900	3.543	0.099
158.000	-8.791	0.100
158.100	-18.114	0.100
158.200	-19.474	0.100
158.300	-11.211	0.099
158.400	-15.714	0.100
158.500	-16.128	0.100
158.600	-12.873	0.100
158.700	-20.497	0.100
158.800	-26.314	0.100
158.900	-14.882	0.100
159.000	-2.958	0.100
159.100	-7.600	0.100
159.200	-20.544	0.100
159.300	-7.596	0.100
159.400	-3.982	0.099
159.500	-15.473	0.100
159.600	-7.624	0.100
159.700	-8.758	0.100
159.800	-11.179	0.099
159.900	-0.271	0.099
160.000	-29.838	0.100
160.100	-10.146	0.100
160.200	3.095	0.100
160.300	-23.753	0.100
160.400	-9.579	0.100
160.500	-11.663	0.100
160.600	-9.652	0.100
160.700	-15.707	0.100
160.800	-13.489	0.099
160.900	-23.155	0.100
161.000	-22.180	0.100
161.100	-21.015	0.099
161.200	-4.989	0.100
161.300	-3.955	0.100
161.400	-11.400	0.100
161.500	-4.201	0.100
161.600	-17.931	0.100
161.700	-21.547	0.100
161.800	-18.258	0.100
161.900	-5.318	0.100
162.000	-12.745	0.099
162.100	-5.346	0.100
162.200	-19.474	0.100
162.300	-24.264	0.100
162.400	-15.837	0.100
162.500	-22.824	0.100
162.600	2.325	0.099
162.700	-13.293	0.100
162.800	-26.363	0.100
162.900	-19.852	0.100
163.000	0.808	0.099
163.100	-28.919	0.099
163.200	-8.163	0.099
163.300	-11.098	0.100
163.400	-11.107	0.099
163.500	-19.299	0.099
163.600	-6.961	0.100
163.700	-11.310	0.099
163.800	-14.888	0.100
163.900	-20.375	0.100
164.000	-14.647	0.100
164.100	-7.939	0.100
164.200	-19.969	0.100
164.300	-10.665	0.100
164.400	-2.005	0.100
164.500	-12.938	0.100
164.600	-11.728	0.100
164.700	-9.709	0.099
164.800	-17.269	0.100
164.900	-7.563	0.100
165.000	-8.130	0.100
165.100	-19.389	0.100
165.200	-23.261	0.099
165.300	-3.152	0.100
165.400	-3.985	0.099
165.500	-23.510	0.100
165.600	-7.284	0.100
165.700	-1.192	0.100
165.800	-19.719	0.100
165.900	-0.334	0.099
166.000	-12.196	0.100
166.100	-21.845	0.100
166.200	-22.957	0.099
166.300	-8.688	0.099
166.400	-6.077	0.100
166.500	-34.730	0.100
166.600	-1.625	0.100
166.700	-22.498	0.100
166.800	-2.492	0.100
166.900	-11.500	0.099
167.000	-10.402	0.100
167.100	-4.467	0.100
167.200	-25.477	0.100
167.300	-8.405	0.100
167.400	-2.083	0.100
167.500	2.815	0.100
167.600	-8.872	0.100
167.700	-10.747	0.100
167.800	-16.790	0.100
167.900	-2.811	0.100
168.000	-28.085	0.100
168.100	-15.305	0.100
168.200	1.579	0.100
168.300	-5.280	0.099
168.400	-13.674	0.100
168.500	-1.110	0.100
168.600	-21.219	0.099
168.700	-28.439	0.100
168.800	-9.161	0.100
168.900	4.688	0.100
169.000	-17.445	0.100
169.100	-11.445	0.100
169.200	-1.269	0.100
169.300	-31.419	0.100
169.400	-4.299	0.100
169.500	-12.097	0.100
169.600	-22.899	0.100
169.700	-15.278	0.099
169.800	-1.318	0.100
169.900	-24.479	0.100
170.000	-14.280	0.100
170.100	-1.739	0.100
170.200	-1.138	0.100
170.300	-19.368	0.100
170.400	-7.914	0.100
170.500	-20.698	0.100
170.600	-7.258	0.100
170.700	-7.604	0.100
170.800	-22.866	0.099
170.900	-13.671	0.099
171.000	4.291	0.099
171.100	-9.786	0.099
171.200	-1.484	0.100
171.300	-2.344	0.099
171.400	-40.124	0.100
171.500	3.559	0.100
171.600	2.691	0.099
171.700	-1.111	0.100
171.800	-21.129	0.100
171.900	-26.149	0.100
172.000	17.191	0.100
172.100	-20.305	0.100
172.200	-14.518	0.100
172.300	-16.602	0.100
172.400	11.583	0.100
172.500	-29.824	0.100
172.600	20.248	0.099
172.700	-9.202	0.099
172.800	-15.593	0.100
172.900	-12.541	0.099
173.000	-17.251	0.100
173.100	1.290	0.099
173.200	-5.437	0.100
173.300	-17.892	0.099
173.400	-22.021	0.100
173.500	-0.256	0.099
173.600	-5.818	0.100
173.700	-10.234	0.100
173.800	-15.970	0.100
173.900	-4.326	0.100
174.000	-17.784	0.100
174.100	-13.929	0.100
174.200	-23.290	0.100
174.300	1.248	0.100
174.400	-12.046	0.100
174.500	-2.691	0.100
174.600	-11.144	0.099
174.700	3.095	0.099
174.800	-11.768	0.100
174.900	-6.676	0.100
175.000	-8.693	0.100
175.100	-11.058	0.100
175.200	-33.913	0.100
175.300	-1.272	0.100
175.400	-28.632	0.100
175.500	-17.984	0.100
175.600	-24.365	0.100
175.700	-19.821	0.100
175.800	-19.111	0.100
175.900	0.536	0.100
176.000	-6.565	0.100
176.100	-11.810	0.100
176.200	0.451	0.100
176.300	0.928	0.100
176.400	-11.010	0.100
176.500	7.476	0.100
176.600	-12.713	0.100
176.700	-19.042	0.100
176.800	-1.868	0.100
176.900	-15.246	0.100
177.000	1.899	0.100
177.100	-10.287	0.100
177.200	-0.967	0.100
177.300	-15.488	0.100
177.400	-1.191	0.100
177.500	-29.991	0.100
177.600	-14.302	0.100
177.700	-22.176	0.100
177.800	-22.561	0.100
177.900	-3.164	0.100
178.000	-11.083	0.100
178.100	-16.223	0.100
178.200	0.198	0.100
178.300	-33.223	0.100
178.400	-30.928	0.100
178.500	-24.429	0.100
178.600	6.165	0.100
178.700	-2.734	0.099
178.800	-32.506	0.100
178.900	3.014	0.100
179.000	-15.214	0.100
179.100	-0.219	0.100
179.200	-21.256	0.100
179.300	-15.958	0.100
179.400	-22.521	0.100
179.500	-9.451	0.100
179.600	-13.262	0.100
179.700	-4.571	0.100
179.800	-16.811	0.100
179.900	-18.381	0.100
180.000	-23.294	0.100
180.100	1.655	0.100
180.200	2.833	0.100
180.300	3.444	0.100
180.400	-6.702	0.100
180.500	-9.775	0.100
180.600	-13.440	0.100
180.700	-33.070	0.100
180.800	-3.602	0.100
180.900	23.587	0.100
181.000	-15.173	0.100
181.100	11.455	0.100
181.200	7.279	0.100
181.300	3.372	0.100
181.400	3.005	0.100
181.500	1.180	0.100
181.600	-1.694	0.100
181.700	3.169	0.100
181.800	-4.761	0.100
181.900	23.529	0.100
182.000	-0.874	0.100
182.100	41.276	0.100
182.200	28.896	0.100
182.300	7.287	0.100
182.400	28.129	0.100
182.500	14.950	0.100
182.600	-3.413	0.100
182.700	24.652	0.100
182.800	14.936	0.100
182.900	37.361	0.100
183.000	33.561	0.100
183.100	20.893	0.100
183.200	30.355	0.100
183.300	27.098	0.100
183.400	27.758	0.100
183.500	45.152	0.100
183.600	27.773	0.100
183.700	30.062	0.100
183.800	20.996	0.100
183.900	8.343	0.100
184.000	31.451	0.100
184.100	35.520	0.100
184.200	18.114	0.100
184.300	14.495	0.100
184.400	20.169	0.100
184.500	31.791	0.100
184.600	15.942	0.100
184.700	22.911	0.100
184.800	32.250	0.100
184.900	9.706	0.100
185.000	33.480	0.100
185.100	31.288	0.100
185.200	9.300	0.100
185.300	13.990	0.100
185.400	32.531	0.100
185.500	33.453	0.100
185.600	15.894	0.100
185.700	19.798	0.100
185.800	27.536	0.100
185.900	13.337	0.100
186.000	14.547	0.100
186.100	40.959	0.100
186.200	24.007	0.100
186.300	20.599	0.100
186.400	-8.263	0.100
186.500	35.973	0.100
186.600	29.709	0.100
186.700	35.291	0.100
186.800	19.322	0.100
186.900	21.950	0.100
187.000	28.995	0.100
187.100	5.493	0.100
187.200	32.524	0.100
187.300	20.668	0.100
187.400	4.921	0.100
187.500	22.056	0.100
187.600	23.605	0.100
187.700	29.172	0.100
187.800	42.466	0.100
187.900	42.193	0.100
188.000	38.955	0.100
188.100	33.455	0.100
188.200	20.064	0.100
188.300	28.433	0.100
188.400	34.426	0.100
188.500	35.236	0.100
188.600	34.129	0.100
188.700	41.715	0.100
188.800	33.244	0.100
188.900	42.539	0.100
189.000	30.837	0.100
189.100	47.743	0.100
189.200	30.048	0.100
189.300	40.222	0.100
189.400	37.321	0.100
189.500	34.359	0.100
189.600	40.610	0.100
189.700	34.991	0.100
189.800	49.018	0.100
189.900	32.409	0.100
190.000	22.191	0.100
190.100	44.338	0.100
190.200	40.749	0.100
190.300	13.531	0.100
190.400	41.341	0.100
190.500	39.717	0.100
190.600	45.885	0.100
190.700	40.854	0.100
190.800	63.974	0.100
190.900	22.405	0.100
191.000	48.301	0.100
191.100	36.973	0.100
191.200	33.552	0.100
191.300	38.204	0.100
191.400	50.679	0.100
191.500	51.888	0.100
191.600	15.008	0.099
191.700	37.733	0.099
191.800	47.992	0.100
191.900	49.499	0.099
192.000	57.712	0.099
192.100	37.378	0.099
192.200	69.154	0.099
192.300	35.012	0.099
192.400	71.133	0.099
192.500	48.758	0.099
192.600	52.146	0.099
192.700	48.619	0.099
192.800	39.586	0.099
192.900	47.725	0.099
193.000	45.097	0.099
193.100	38.798	0.099
193.200	45.170	0.099
193.300	62.887	0.099
193.400	50.545	0.099
193.500	53.127	0.099
193.600	47.593	0.099
193.700	47.119	0.099
193.800	50.798	0.099
193.900	40.903	0.099
194.000	47.970	0.099
194.100	55.897	0.099
194.200	31.521	0.099
194.300	57.516	0.099
194.400	49.257	0.099
194.500	22.534	0.099
194.600	40.322	0.099
194.700	60.581	0.099
194.800	52.296	0.099
194.900	30.167	0.099
195.000	46.821	0.099
195.100	45.445	0.099
195.200	56.413	0.099
195.300	46.293	0.099
195.400	55.782	0.099
195.500	41.853	0.099
195.600	44.059	0.099
195.700	37.638	0.099
195.800	47.909	0.099
195.900	33.711	0.099
196.000	68.333	0.099
196.100	42.675	0.099
196.200	37.051	0.099
196.300	37.387	0.099
196.400	46.134	0.099
196.500	55.345	0.099
196.600	41.357	0.099
196.700	43.438	0.099
196.800	58.404	0.099
196.900	31.930	0.099
197.000	28.445	0.099
197.100	51.920	0.099
197.200	38.649	0.099
197.300	45.151	0.099
197.400	34.122	0.099
197.500	66.163	0.099
197.600	53.626	0.099
197.700	32.734	0.099
197.800	40.173	0.099
197.900	57.588	0.099
198.000	27.980	0.099
198.100	29.196	0.099
198.200	44.548	0.099
198.300	53.143	0.099
198.400	45.245	0.099
198.500	60.082	0.099
198.600	41.764	0.099
198.700	67.415	0.099
198.800	50.371	0.099
198.900	50.036	0.099
199.000	28.914	0.099
199.100	50.680	0.099
199.200	53.695	0.099
199.300	37.862	0.099
199.400	43.764	0.099
199.500	66.596	0.099
199.600	43.114	0.099
199.700	33.773	0.099
199.800	58.136	0.099
199.900	44.876	0.099
200.000	41.503	0.099
200.100	37.333	0.099
200.200	54.612	0.099
200.300	37.585	0.099
200.400	49.154	0.099
200.500	46.734	0.099
200.600	52.642	0.099
200.700	37.093	0.099
200.800	48.903	0.099
200.900	35.810	0.099
201.000	36.273	0.099
201.100	30.358	0.099
201.200	43.881	0.099
201.300	46.793	0.099
201.400	50.176	0.099
201.500	50.760	0.099
201.600	37.731	0.099
201.700	54.036	0.099
201.800	25.068	0.099
201.900	35.117	0.099
202.000	39.201	0.099
202.100	50.886	0.099
202.200	39.512	0.099
202.300	40.456	0.099
202.400	50.307	0.099
202.500	41.997	0.099
202.600	55.009	0.099
202.700	37.812	0.099
202.800	46.263	0.099
202.900	50.458	0.099
203.000	53.631	0.099
203.100	40.670	0.099
203.200	25.231	0.099
203.300	61.103	0.099
203.400	31.143	0.099
203.500	33.881	0.099
203.600	55.795	0.099
203.700	34.869	0.099
203.800	31.883	0.099
203.900	39.354	0.099
204.000	28.439	0.099
204.100	35.983	0.099
204.200	40.714	0.099
204.300	54.977	0.099
204.400	36.923	0.099
204.500	52.188	0.099
204.600	45.015	0.099
204.700	52.842	0.099
204.800	39.500	0.099
204.900	38.938	0.099
205.000	40.464	0.099
205.100	47.342	0.099
205.200	36.865	0.099
205.300	37.325	0.099
205.400	45.626	0.099
205.500	63.684	0.099
205.600	47.453	0.099
205.700	39.232	0.099
205.800	35.738	0.099
205.900	54.417	0.099
206.000	48.046	0.099
206.100	32.209	0.099
206.200	32.824	0.099
206.300	67.971	0.099
206.400	32.373	0.099
206.500	35.815	0.099
206.600	43.613	0.099
206.700	37.877	0.099
206.800	44.927	0.099
206.900	49.243	0.099
207.000	42.371	0.099
207.100	32.704	0.099
207.200	44.436	0.099
207.300	31.885	0.099
207.400	40.055	0.099
207.500	46.489	0.099
207.600	28.449	0.099
207.700	43.067	0.099
207.800	41.689	0.099
207.900	46.492	0.099
208.000	49.706	0.099
208.100	29.324	0.099
208.200	59.640	0.099
208.300	63.312	0.099
208.400	47.364	0.099
208.500	49.226	0.099
208.600	48.041	0.099
208.700	38.312	0.099
208.800	41.480	0.099
208.900	35.589	0.099
209.000	38.355	0.099
209.100	40.029	0.099
209.200	58.516	0.099
209.300	44.581	0.099
209.400	35.856	0.099
209.500	27.334	0.099
209.600	40.967	0.099
209.700	45.550	0.099
209.800	37.357	0.099
209.900	47.064	0.099
210.000	38.990	0.099
210.100	29.587	0.099
210.200	31.150	0.099
210.300	52.046	0.099
210.400	55.908	0.099
210.500	44.517	0.099
210.600	25.925	0.099
210.700	48.289	0.099
210.800	34.772	0.099
210.900	44.807	0.099
211.000	49.767	0.099
211.100	47.666	0.099
211.200	34.182	0.099
211.300	27.738	0.099
211.400	49.674	0.099
211.500	42.243	0.099
211.600	40.100	0.099
211.700	34.841	0.099
211.800	43.369	0.099
211.900	18.082	0.099
212.000	40.337	0.099
212.100	45.663	0.099
212.200	48.623	0.099
212.300	24.867	0.099
212.400	42.560	0.099
212.500	34.719	0.099
212.600	40.132	0.099
212.700	37.985	0.099
212.800	50.870	0.099
212.900	43.515	0.099
213.000	55.871	0.099
213.100	36.820	0.099
213.200	39.988	0.099
213.300	54.377	0.099
213.400	41.460	0.099
213.500	36.964	0.099
213.600	33.383	0.099
213.700	38.329	0.099
213.800	33.150	0.099
213.900	71.829	0.100
214.000	30.447	0.099
214.100	40.220	0.099
214.200	49.532	0.099
214.300	34.654	0.100
214.400	30.308	0.100
214.500	45.139	0.100
214.600	53.995	0.100
214.700	25.818	0.100
214.800	45.161	0.100
214.900	45.361	0.100
215.000	42.413	0.100
215.100	55.636	0.100
215.200	35.650	0.100
215.300	39.577	0.100
215.400	28.060	0.100
215.500	36.029	0.100
215.600	49.242	0.100
215.700	33.256	0.100
215.800	43.092	0.100
215.900	49.455	0.100
216.000	38.831	0.100
216.100	61.400	0.100
216.200	41.209	0.100
216.300	34.283	0.100
216.400	59.826	0.100
216.500	48.781	0.100
216.600	46.157	0.100
216.700	41.989	0.100
216.800	30.080	0.100
216.900	29.507	0.100
217.000	46.912	0.100
217.100	30.578	0.100
217.200	48.542	0.100
217.300	48.716	0.100
217.400	35.460	0.100
217.500	47.547	0.100
217.600	37.873	0.100
217.700	52.597	0.100
217.800	28.916	0.100
217.900	81.094	0.100
218.000	53.335	0.100
218.100	38.906	0.100
218.200	40.228	0.100
218.300	33.055	0.100
218.400	60.986	0.100
218.500	28.027	0.100
218.600	56.095	0.100
218.700	32.971	0.100
218.800	44.383	0.100
218.900	48.959	0.100
219.000	44.294	0.100
219.100	36.004	0.100
219.200	46.016	0.100
219.300	49.737	0.100
219.400	49.828	0.100
219.500	36.094	0.099
219.600	17.081	0.099
219.700	29.351	0.099
219.800	57.339	0.099
219.900	36.577	0.099
220.000	11.621	0.099
220.100	45.123	0.099
220.200	45.354	0.099
220.300	63.867	0.099
220.400	37.775	0.099
220.500	37.553	0.099
220.600	45.876	0.099
220.700	52.947	0.099
220.800	34.656	0.099
220.900	50.551	0.099
221.000	44.820	0.099
221.100	45.657	0.099
221.200	31.751	0.099
221.300	41.739	0.099
221.400	38.732	0.099
221.500	49.254	0.099
221.600	42.299	0.099
221.700	48.939	0.099
221.800	42.349	0.099
221.900	41.748	0.099
222.000	26.287	0.099
222.100	38.683	0.100
222.200	54.782	0.099
222.300	31.826	0.099
222.400	48.429	0.099
222.500	45.012	0.100
222.600	14.939	0.099
222.700	51.473	0.099
222.800	44.798	0.099
222.900	43.925	0.099
223.000	43.990	0.099
223.100	57.909	0.099
223.200	51.903	0.099
223.300	35.867	0.099
223.400	40.097	0.099
223.500	51.539	0.099
223.600	30.009	0.099
223.700	10.581	0.099
223.800	28.802	0.099
223.900	37.308	0.099
224.000	60.651	0.099
224.100	44.458	0.099
224.200	36.457	0.099
224.300	48.242	0.099
224.400	51.524	0.099
224.500	35.333	0.099
224.600	59.613	0.099
224.700	29.569	0.099
224.800	49.451	0.099
224.900	52.516	0.099
225.000	57.556	0.099
225.100	31.119	0.099
225.200	36.454	0.099
225.300	37.617	0.099
225.400	49.504	0.099
225.500	37.396	0.099
225.600	53.201	0.099
225.700	28.342	0.099
225.800	37.485	0.099
225.900	46.228	0.099
226.000	27.617	0.099
226.100	41.283	0.099
226.200	32.511	0.099
226.300	42.998	0.099
226.400	41.969	0.099
226.500	50.666	0.099
226.600	45.503	0.099
226.700	29.011	0.099
226.800	40.577	0.099
226.900	48.639	0.099
227.000	34.511	0.099
227.100	54.184	0.099
227.200	27.617	0.099
227.300	37.504	0.099
227.400	47.081	0.099
227.500	26.516	0.099
227.600	32.181	0.099
227.700	39.629	0.099
227.800	51.431	0.099
227.900	53.888	0.099
228.000	39.329	0.099
228.100	36.565	0.099
228.200	32.684	0.099
228.300	38.749	0.099
228.400	42.168	0.099
228.500	40.603	0.099
228.600	48.891	0.099
228.700	55.716	0.099
228.800	41.214	0.099
228.900	47.734	0.099
229.000	51.766	0.099
229.100	44.933	0.099
229.200	61.498	0.099
229.300	25.103	0.099
229.400	35.268	0.099
229.500	25.651	0.099
229.600	47.319	0.099
229.700	54.643	0.099
229.800	43.222	0.099
229.900	34.136	0.099
230.000	32.223	0.099
230.100	52.663	0.099
230.200	30.515	0.099
230.300	23.386	0.099
230.400	10.353	0.099
230.500	30.448	0.099
230.600	51.193	0.099
230.700	48.709	0.099
230.800	27.892	0.099
230.900	43.080	0.099
231.000	49.727	0.099
231.100	43.232	0.099
231.200	39.822	0.099
231.300	48.007	0.099
231.400	36.100	0.099
231.500	30.724	0.099
231.600	34.728	0.099
231.700	57.263	0.099
231.800	46.055	0.099
231.900	33.201	0.099
232.000	60.421	0.099
232.100	42.302	0.099
232.200	41.455	0.099
232.300	41.928	0.099
232.400	28.436	0.099
232.500	43.080	0.099
232.600	42.686	0.099
232.700	41.401	0.099
232.800	32.143	0.099
232.900	46.453	0.099
233.000	38.182	0.099
233.100	27.104	0.099
233.200	35.361	0.099
233.300	26.009	0.099
233.400	44.798	0.099
233.500	41.296	0.099
233.600	39.109	0.099
233.700	30.758	0.099
233.800	34.117	0.099
233.900	40.775	0.099
234.000	43.193	0.099
234.100	36.120	0.099
234.200	15.177	0.099
234.300	30.720	0.099
234.400	37.090	0.099
234.500	37.137	0.099
234.600	41.693	0.099
234.700	55.129	0.099
234.800	42.996	0.099
234.900	41.414	0.099
235.000	33.303	0.099
235.100	36.199	0.099
235.200	43.514	0.099
235.300	30.070	0.099
235.400	42.058	0.099
235.500	59.695	0.099
235.600	15.676	0.099
235.700	37.542	0.099
235.800	63.435	0.099
235.900	39.710	0.099
236.000	46.926	0.099
236.100	44.764	0.099
236.200	41.787	0.099
236.300	20.125	0.099
236.400	35.101	0.099
236.500	32.008	0.099
236.600	46.633	0.100
236.700	31.238	0.099
236.800	43.757	0.100
236.900	45.076	0.100
237.000	40.364	0.100
237.100	38.796	0.100
237.200	55.308	0.100
237.300	54.328	0.100
237.400	52.731	0.100
237.500	34.684	0.100
237.600	55.522	0.100
237.700	23.152	0.100
237.800	20.069	0.100
237.900	29.200	0.100
238.000	50.849	0.100
238.100	35.021	0.100
238.200	35.627	0.100
238.300	53.899	0.100
238.400	38.659	0.100
238.500	16.600	0.100
238.600	53.299	0.100
238.700	57.779	0.100
238.800	52.675	0.100
238.900	38.595	0.100
239.000	35.624	0.100
239.100	36.155	0.100
239.200	41.676	0.100
239.300	29.368	0.100
239.400	57.432	0.100
239.500	45.190	0.100
239.600	29.389	0.100
239.700	42.879	0.100
239.800	39.624	0.100
239.900	35.926	0.100
240.000	41.716	0.100
240.100	36.026	0.100
240.200	40.229	0.100
240.300	39.614	0.100
240.400	36.403	0.100
240.500	29.992	0.100
240.600	45.697	0.100
240.700	31.004	0.100
240.800	28.972	0.100
240.900	38.100	0.100
241.000	38.454	0.100
241.100	11.008	0.100
241.200	25.289	0.100
241.300	29.609	0.100
241.400	20.466	0.100
241.500	14.079	0.100
241.600	3.778	0.100
241.700	9.942	0.100
241.800	28.235	0.100
241.900	24.141	0.100
242.000	10.895	0.100
242.100	32.146	0.100
242.200	-21.635	0.100
242.300	-5.373	0.100
242.400	3.393	0.100
242.500	25.569	0.100
242.600	-10.873	0.100
242.700	10.459	0.100
242.800	-2.788	0.100
242.900	8.809	0.100
243.000	-4.188	0.100
243.100	-6.068	0.100
243.200	5.671	0.100
243.300	7.358	0.100
243.400	-2.798	0.100
243.500	-16.453	0.100
243.600	-6.662	0.100
243.700	13.746	0.100
243.800	-18.391	0.100
243.900	24.100	0.100
244.000	-12.488	0.100
244.100	8.132	0.100
244.200	-2.635	0.100
244.300	-4.128	0.100
244.400	-15.845	0.100
244.500	7.055	0.100
244.600	-6.191	0.100
244.700	-10.271	0.100
244.800	4.053	0.100
244.900	-28.915	0.100
245.000	0.846	0.100
245.100	-22.814	0.100
245.200	15.087	0.100
245.300	-1.271	0.100
245.400	-13.358	0.100
245.500	-25.831	0.100
245.600	10.658	0.100
245.700	-12.027	0.100
245.800	-6.049	0.100
245.900	0.877	0.100
246.000	-13.039	0.100
246.100	-17.784	0.100
246.200	-15.585	0.100
246.300	-12.257	0.100
246.400	-13.934	0.100
246.500	1.346	0.100
246.600	-13.839	0.100
246.700	-22.374	0.100
246.800	-0.686	0.100
246.900	1.130	0.100
247.000	-11.846	0.100
247.100	-12.522	0.100
247.200	-1.452	0.100
247.300	-26.483	0.100
247.400	-18.354	0.100
247.500	-14.396	0.099
247.600	-4.354	0.099
247.700	-15.299	0.099
247.800	-15.944	0.099
247.900	-29.830	0.099
248.000	-12.130	0.099
248.100	-8.452	0.099
248.200	-1.438	0.099
248.300	1.043	0.099
248.400	-15.196	0.099
248.500	-10.865	0.099
248.600	-6.817	0.099
248.700	-15.752	0.099
248.800	-20.844	0.099
248.900	-8.394	0.099
249.000	-14.950	0.099
249.100	-10.509	0.099
249.200	-17.261	0.099
249.300	-12.663	0.099
249.400	-16.257	0.099
249.500	-27.879	0.099
249.600	3.254	0.099
249.700	1.429	0.099
249.800	-33.004	0.099
249.900	-0.755	0.099
250.000	-14.790	0.099
250.100	-16.614	0.099
250.200	-10.873	0.099
250.300	-15.201	0.099
250.400	-13.431	0.099
250.500	-19.623	0.099
250.600	-20.747	0.099
250.700	-10.414	0.099
250.800	-27.735	0.099
250.900	-25.742	0.099
251.000	-17.006	0.099
251.100	-11.729	0.099
251.200	-18.676	0.099
251.300	1.587	0.099
251.400	-25.974	0.099
251.500	-13.196	0.099
251.600	-11.496	0.099
251.700	-17.757	0.099
251.800	-26.017	0.099
251.900	-17.801	0.099
252.000	-9.544	0.099
252.100	-18.073	0.099
252.200	-15.337	0.099
252.300	-25.523	0.099
252.400	-32.894	0.099
252.500	-11.961	0.099
252.600	-12.905	0.099
252.700	-23.838	0.099
252.800	-13.214	0.099
252.900	-15.322	0.099
253.000	-10.308	0.099
253.100	-29.740	0.099
253.200	-12.957	0.099
253.300	-14.083	0.099
253.400	-26.913	0.099
253.500	5.423	0.099
253.600	-31.899	0.099
253.700	-24.423	0.099
253.800	-8.565	0.099
253.900	-23.788	0.099
254.000	-0.826	0.099
254.100	-6.337	0.099
254.200	-28.525	0.099
254.300	-12.197	0.099
254.400	-24.219	0.099
254.500	-17.426	0.099
254.600	1.784	0.099
254.700	-48.688	0.099
254.800	-33.654	0.099
254.900	-28.092	0.099
255.000	-23.657	0.099
255.100	1.776	0.099
255.200	-9.990	0.099
255.300	-27.246	0.099
255.400	4.745	0.099
255.500	-16.989	0.099
255.600	-15.281	0.099
255.700	-20.992	0.099
255.800	-19.376	0.099
255.900	-18.598	0.099
256.000	6.218	0.099
256.100	-35.813	0.099
256.200	-21.779	0.099
256.300	1.734	0.099
256.400	-22.588	0.099
256.500	-16.732	0.099
256.600	-36.237	0.099
256.700	-26.068	0.099
256.800	-8.231	0.099
256.900	-15.336	0.099
257.000	-21.418	0.099
257.100	-9.724	0.099
257.200	-24.008	0.099
257.300	-24.940	0.099
257.400	-44.529	0.099
257.500	-7.908	0.099
257.600	-22.491	0.099
257.700	-25.025	0.099
257.800	-17.751	0.099
257.900	-9.537	0.099
258.000	-33.382	0.099
258.100	-9.742	0.099
258.200	-10.413	0.099
258.300	-31.032	0.099
258.400	-14.092	0.099
258.500	-46.328	0.099
258.600	-26.806	0.099
258.700	-17.630	0.099
258.800	-7.518	0.099
258.900	-8.485	0.099
259.000	-43.995	0.099
259.100	-24.296	0.099
259.200	-40.630	0.099
259.300	-7.668	0.099
259.400	0.515	0.099
259.500	-33.693	0.099
259.600	-43.808	0.099
259.700	-9.680	0.099
259.800	-19.092	0.099
259.900	-6.578	0.099
260.000	-16.860	0.099
260.100	-30.263	0.099
260.200	-22.621	0.099
260.300	-16.371	0.099
260.400	-19.011	0.099
260.500	-14.503	0.099
260.600	-37.063	0.099
260.700	-43.796	0.099
260.800	-5.774	0.099
260.900	-17.025	0.099
261.000	-27.793	0.099
261.100	-14.835	0.099
261.200	-11.167	0.099
261.300	-23.578	0.099
261.400	-35.333	0.099
261.500	-33.889	0.099
261.600	-20.937	0.099
261.700	-22.283	0.099
261.800	-16.514	0.099
261.900	-35.563	0.099
262.000	-15.466	0.099
262.100	-20.090	0.099
262.200	-27.145	0.099
262.300	-18.857	0.099
262.400	-24.052	0.099
262.500	-32.790	0.099
262.600	-28.466	0.099
262.700	-29.707	0.099
262.800	-13.085	0.099
262.900	-23.519	0.099
263.000	-24.307	0.099
263.100	-10.766	0.099
263.200	-18.212	0.099
263.300	-13.925	0.099
263.400	-16.159	0.099
263.500	-27.924	0.099
263.600	-45.954	0.099
263.700	-23.387	0.099
263.800	-27.276	0.099
263.900	-15.255	0.099
264.000	-22.764	0.099
264.100	-9.762	0.099
264.200	-31.765	0.099
264.300	-19.388	0.100
264.400	-6.694	0.099
264.500	-23.300	0.099
264.600	-28.225	0.100
264.700	-21.493	0.100
264.800	-9.942	0.100
264.900	-24.539	0.100
265.000	-32.716	0.100
265.100	-15.486	0.100
265.200	-30.343	0.100
265.300	-11.224	0.100
265.400	-22.762	0.100
265.500	-16.747	0.100
265.600	-17.875	0.100
265.700	-15.160	0.100
265.800	-27.307	0.100
265.900	-31.122	0.100
266.000	-30.720	0.100
266.100	-13.136	0.100
266.200	-46.014	0.099
266.300	-17.822	0.099
266.400	-41.162	0.100
266.500	-36.762	0.100
266.600	-12.153	0.100
266.700	2.676	0.100
266.800	-33.012	0.100
266.900	-22.060	0.100
267.000	-6.625	0.100
267.100	-25.357	0.100
267.200	-18.068	0.100
267.300	-15.529	0.100
267.400	-9.269	0.100
267.500	-11.917	0.100
267.600	-22.955	0.100
267.700	-17.939	0.100
267.800	-15.288	0.100
267.900	-17.753	0.100
268.000	-23.918	0.100
268.100	-6.838	0.100
268.200	-36.220	0.100
268.300	-16.806	0.100
268.400	-14.399	0.100
268.500	-37.321	0.100
268.600	-11.479	0.100
268.700	-23.777	0.100
268.800	-28.003	0.100
268.900	-14.740	0.100
269.000	-16.050	0.100
269.100	-22.208	0.100
269.200	-59.978	0.100
269.300	-9.935	0.100
269.400	-12.803	0.100
269.500	-22.905	0.100
269.600	-28.867	0.100
269.700	-40.763	0.100
269.800	-16.913	0.100
269.900	-28.995	0.100
270.000	-19.135	0.100
270.100	-24.022	0.100
270.200	-21.375	0.100
270.300	-31.707	0.100
270.400	-22.785	0.100
270.500	-9.581	0.100
270.600	-23.713	0.100
270.700	-17.173	0.100
270.800	-39.957	0.100
270.900	-23.184	0.100
271.000	-10.252	0.100
271.100	-30.785	0.100
271.200	-17.157	0.100
271.300	-28.268	0.100
271.400	-31.223	0.100
271.500	-43.383	0.100
271.600	-10.967	0.100
271.700	-13.659	0.100
271.800	-14.918	0.100
271.900	-10.680	0.100
272.000	-36.119	0.100
272.100	-47.946	0.100
272.200	-13.426	0.100
272.300	-23.241	0.100
272.400	-21.328	0.100
272.500	-37.625	0.100
272.600	-16.448	0.100
272.700	-45.123	0.100
272.800	-5.363	0.100
272.900	-13.783	0.100
273.000	-26.115	0.100
273.100	-20.268	0.100
273.200	-27.507	0.100
273.300	5.409	0.100
273.400	-45.080	0.100
273.500	-20.015	0.100
273.600	-20.173	0.100
273.700	-18.129	0.100
273.800	-32.513	0.100
273.900	-31.921	0.100
274.000	-17.389	0.100
274.100	-20.840	0.100
274.200	-35.712	0.100
274.300	4.294	0.100
274.400	-23.198	0.100
274.500	-10.267	0.100
274.600	-38.642	0.100
274.700	-39.427	0.100
274.800	-23.880	0.100
274.900	-13.367	0.100
275.000	-20.696	0.100
275.100	-17.041	0.100
275.200	-34.620	0.100
275.300	-17.213	0.100
275.400	-33.077	0.100
275.500	-34.959	0.100
275.600	-19.517	0.100
275.700	-18.368	0.100
275.800	-15.261	0.100
275.900	-13.423	0.100
276.000	-30.336	0.100
276.100	-24.564	0.100
276.200	-12.412	0.100
276.300	-30.040	0.100
276.400	-17.798	0.100
276.500	-21.278	0.100
276.600	-30.269	0.100
276.700	-14.495	0.100
276.800	-18.799	0.100
276.900	-17.211	0.100
277.000	-18.798	0.100
277.100	-33.150	0.100
277.200	-19.035	0.100
277.300	-11.295	0.100
277.400	-19.268	0.100
277.500	-19.375	0.100
277.600	-30.802	0.100
277.700	-21.423	0.100
277.800	-45.063	0.100
277.900	-0.284	0.100
278.000	-14.673	0.100
278.100	13.432	0.100
278.200	-26.648	0.100
278.300	-14.943	0.100
278.400	-30.858	0.100
278.500	-14.304	0.100
278.600	-19.182	0.100
278.700	-31.257	0.100
278.800	-35.911	0.100
278.900	-13.845	0.100
279.000	-1.021	0.100
279.100	-14.723	0.100
279.200	-19.468	0.100
279.300	-33.978	0.100
279.400	-17.825	0.100
279.500	-15.034	0.100
279.600	-9.746	0.100
279.700	-32.584	0.100
279.800	-47.120	0.100
279.900	-23.129	0.100
280.000	-37.238	0.100
280.100	-21.640	0.100
280.200	-10.997	0.100
280.300	-9.037	0.100
280.400	-20.036	0.100
280.500	-12.535	0.100
280.600	-32.129	0.100
280.700	-32.051	0.100
280.800	-27.959	0.100
280.900	-25.409	0.100
281.000	-0.552	0.100
281.100	-11.265	0.100
281.200	-11.593	0.100
281.300	-32.913	0.100
281.400	-18.667	0.100
281.500	-14.668	0.100
281.600	-11.511	0.100
281.700	-18.143	0.100
281.800	-25.204	0.100
281.900	-20.596	0.100
282.000	-26.090	0.100
282.100	-33.957	0.100
282.200	-5.996	0.100
282.300	-2.279	0.100
282.400	-25.814	0.100
282.500	-32.547	0.100
282.600	-1.495	0.100
282.700	-9.312	0.100
282.800	-16.169	0.100
282.900	-19.488	0.100
283.000	-21.759	0.100
283.100	-11.018	0.100
283.200	-36.584	0.100
283.300	-31.897	0.100
283.400	-4.430	0.100
283.500	-18.976	0.100
283.600	-19.640	0.100
283.700	-12.520	0.100
283.800	-36.622	0.100
283.900	-16.273	0.100
284.000	-23.235	0.100
284.100	-19.631	0.100
284.200	-15.414	0.100
284.300	-12.016	0.100
284.400	-25.275	0.100
284.500	-22.274	0.100
284.600	-31.920	0.100
284.700	-22.974	0.100
284.800	-27.955	0.100
284.900	-29.968	0.100
285.000	1.762	0.100
285.100	-37.429	0.100
285.200	-18.726	0.100
285.300	-20.712	0.100
285.400	-23.168	0.100
285.500	-16.527	0.100
285.600	-36.480	0.100
285.700	-17.111	0.100
285.800	-15.624	0.100
285.900	-17.821	0.100
286.000	-28.253	0.100
286.100	0.878	0.100
286.200	-13.951	0.100
286.300	-18.285	0.100
286.400	-26.129	0.100
286.500	-29.033	0.100
286.600	-12.844	0.100
286.700	-32.881	0.100
286.800	-24.964	0.100
286.900	-25.192	0.100
287.000	-17.020	0.100
287.100	-19.936	0.100
287.200	-24.713	0.100
287.300	-19.289	0.100
287.400	-28.326	0.100
287.500	-24.419	0.100
287.600	-17.851	0.100
287.700	-33.418	0.100
287.800	-26.454	0.100
287.900	-17.621	0.100
288.000	-27.668	0.100
288.100	-11.800	0.100
288.200	-32.808	0.100
288.300	-10.281	0.100
288.400	-26.215	0.100
288.500	-27.018	0.100
288.600	-20.312	0.100
288.700	-10.073	0.100
288.800	-20.262	0.100
288.900	-16.935	0.100
289.000	-2.894	0.100
289.100	-5.680	0.100
289.200	-54.593	0.100
289.300	-14.035	0.100
289.400	-23.624	0.100
289.500	-13.968	0.100
289.600	-29.612	0.100
289.700	-26.638	0.100
289.800	-21.226	0.100
289.900	-12.809	0.100
290.000	-15.019	0.100
290.100	-21.110	0.100
290.200	-27.235	0.100
290.300	-26.376	0.100
290.400	-21.870	0.100
290.500	-16.045	0.100
290.600	-12.075	0.100
290.700	-20.089	0.100
290.800	-35.301	0.100
290.900	-31.556	0.100
291.000	-11.808	0.100
291.100	-23.950	0.100
291.200	-11.405	0.100
291.300	-9.177	0.100
291.400	-20.275	0.100
291.500	-19.356	0.100
291.600	-22.523	0.100
291.700	-1.495	0.100
291.800	-14.365	0.100
291.900	-37.860	0.100
292.000	-40.751	0.099
292.100	-8.357	0.100
292.200	-19.243	0.100
292.300	-9.396	0.100
292.400	-19.409	0.100
292.500	-20.705	0.100
292.600	-20.002	0.100
292.700	-5.627	0.100
292.800	-16.116	0.100
292.900	-31.736	0.100
293.000	-5.820	0.100
293.100	-9.230	0.100
293.200	-40.277	0.100
293.300	-13.038	0.100
293.400	-23.135	0.100
293.500	-7.691	0.100
293.600	-27.706	0.100
293.700	-31.476	0.100
293.800	-15.518	0.100
293.900	-18.879	0.100
294.000	-19.910	0.100
294.100	-22.157	0.100
294.200	-10.165	0.100
294.300	-27.169	0.100
294.400	-10.888	0.100
294.500	-36.121	0.100
294.600	-10.688	0.100
294.700	-30.807	0.100
294.800	-15.027	0.100
294.900	-12.560	0.100
295.000	-27.912	0.100
295.100	-18.989	0.100
295.200	-29.734	0.100
295.300	-21.955	0.100
295.400	-0.730	0.100
295.500	-15.817	0.100
295.600	-16.399	0.100
295.700	-18.837	0.100
295.800	-23.789	0.100
295.900	-21.092	0.100
296.000	-2.234	0.100
296.100	-28.317	0.100
296.200	-29.694	0.100
296.300	-5.191	0.100
296.400	-21.526	0.100
296.500	-9.656	0.100
296.600	-23.334	0.100
296.700	-2.887	0.100
296.800	-40.331	0.100
296.900	-12.863	0.100
297.000	-9.850	0.100
297.100	-21.636	0.100
297.200	-21.032	0.100
297.300	-27.926	0.100
297.400	-3.729	0.100
297.500	-4.717	0.100
297.600	-4.598	0.100
297.700	-22.773	0.100
297.800	-14.661	0.100
297.900	-40.983	0.100
298.000	-14.841	0.100
298.100	-16.824	0.100
298.200	-26.163	0.100
298.300	-44.131	0.100
298.400	-17.021	0.100
298.500	-8.791	0.100
298.600	-18.386	0.100
298.700	-19.748	0.100
298.800	-10.375	0.100
298.900	-10.174	0.100
299.000	-23.343	0.100
299.100	-13.354	0.100
299.200	-19.390	0.100
299.300	-16.836	0.100
299.400	0.378	0.100
299.500	-21.174	0.100
299.600	-30.256	0.100
299.700	-29.809	0.100
299.800	1.326	0.100
299.900	-27.039	0.100
300.000	-19.958	0.100
300.100	-26.965	0.100
300.200	-21.448	0.100
300.300	-9.880	0.100
300.400	-26.379	0.100
300.500	-10.554	0.100
300.600	-14.921	0.100
300.700	-15.134	0.100
300.800	-5.677	0.100
300.900	-27.108	0.100
301.000	-28.247	0.100
301.100	-10.025	0.100
301.200	-13.930	0.100
301.300	-18.696	0.100
301.400	-12.093	0.100
301.500	-20.199	0.100
301.600	-23.610	0.100
301.700	-19.221	0.100
301.800	-18.521	0.100
301.900	-4.153	0.100
302.000	-17.849	0.100
302.100	-7.958	0.100
302.200	-10.984	0.100
302.300	-8.949	0.100
302.400	-16.809	0.100
302.500	-13.984	0.100
302.600	-15.693	0.100
302.700	-26.275	0.100
302.800	-18.573	0.100
302.900	-30.099	0.100
303.000	-30.687	0.100
303.100	-11.137	0.100
303.200	-9.601	0.100
303.300	-18.520	0.100
303.400	-17.985	0.100
303.500	-30.397	0.100
303.600	-19.555	0.100
303.700	-8.883	0.100
303.800	-24.177	0.100
303.900	-21.224	0.100
304.000	-20.236	0.100
304.100	-9.253	0.100
304.200	-8.593	0.100
304.300	-13.924	0.100
304.400	-6.920	0.100
304.500	5.645	0.100
304.600	-54.228	0.100
304.700	-30.103	0.100
304.800	-23.611	0.100
304.900	-34.444	0.100
305.000	-16.074	0.100
305.100	-30.535	0.100
305.200	-16.828	0.100
305.300	-23.569	0.100
305.400	-6.053	0.100
305.500	-35.275	0.100
305.600	-5.323	0.100
305.700	-11.271	0.100
305.800	-33.146	0.100
305.900	-9.214	0.100
306.000	-16.504	0.100
306.100	-8.661	0.100
306.200	-26.026	0.100
306.300	-20.510	0.100
306.400	-17.229	0.100
306.500	-11.392	0.100
306.600	-15.585	0.100
306.700	-16.297	0.100
306.800	-14.142	0.100
306.900	-16.019	0.100
307.000	-14.326	0.100
307.100	-25.985	0.100
307.200	-35.859	0.100
307.300	-16.756	0.100
307.400	-18.823	0.100
307.500	-12.789	0.100
307.600	-5.210	0.100
307.700	-14.452	0.100
307.800	-19.895	0.100
307.900	-29.908	0.100
308.000	-6.100	0.100
308.100	-28.456	0.100
308.200	-16.807	0.100
308.300	-24.899	0.100
308.400	-15.514	0.100
308.500	-5.067	0.100
308.600	-20.889	0.100
308.700	-28.760	0.100
308.800	-20.515	0.100
308.900	-4.201	0.100
309.000	-32.047	0.100
309.100	-17.246	0.100
309.200	-29.358	0.100
309.300	-20.077	0.100
309.400	-13.193	0.100
309.500	-20.579	0.100
309.600	-38.012	0.100
309.700	-19.583	0.100
309.800	1.199	0.100
309.900	-19.686	0.100
310.000	-7.590	0.100
310.100	-25.782	0.100
310.200	-12.833	0.100
310.300	-8.007	0.100
310.400	-1.386	0.100
310.500	-18.212	0.100
310.600	-11.499	0.100
310.700	-22.247	0.100
310.800	-12.809	0.100
310.900	-19.907	0.100
311.000	-15.449	0.100
311.100	-23.809	0.100
311.200	-14.610	0.100
311.300	-14.400	0.100
311.400	-28.658	0.100
311.500	-22.718	0.100
311.600	-19.811	0.100
311.700	-21.567	0.100
311.800	-19.197	0.100
311.900	-6.194	0.100
312.000	-16.313	0.100
312.100	-14.980	0.100
312.200	-27.630	0.100
312.300	-16.380	0.100
312.400	4.589	0.100
312.500	-12.068	0.100
312.600	-13.057	0.100
312.700	-18.503	0.100
312.800	-0.678	0.100
312.900	-12.262	0.100
313.000	-2.545	0.100
313.100	-40.633	0.100
313.200	-7.393	0.100
313.300	-23.523	0.100
313.400	-9.345	0.100
313.500	-25.029	0.100
313.600	-23.666	0.100
313.700	-13.257	0.100
313.800	-24.856	0.100
313.900	-15.817	0.100
314.000	-15.172	0.100
314.100	0.005	0.100
314.200	-27.329	0.100
314.300	-7.095	0.100
314.400	-13.905	0.100
314.500	-1.176	0.100
314.600	-32.339	0.100
314.700	-13.298	0.100
314.800	-5.401	0.100
314.900	7.635	0.100
315.000	-19.331	0.100
315.100	-23.912	0.100
315.200	-24.493	0.100
315.300	-6.311	0.100
315.400	-31.814	0.100
315.500	-5.104	0.100
315.600	0.586	0.100
315.700	-22.722	0.100
315.800	-17.466	0.100
315.900	-10.486	0.100
316.000	-27.067	0.100
316.100	-13.368	0.100
316.200	-12.069	0.100
316.300	-18.338	0.100
316.400	-13.070	0.100
316.500	-30.792	0.100
316.600	4.503	0.100
316.700	-14.910	0.100
316.800	-26.975	0.100
316.900	-17.772	0.100
317.000	-14.704	0.100
317.100	-6.641	0.100
317.200	-28.279	0.100
317.300	-15.308	0.100
317.400	-4.311	0.100
317.500	-8.846	0.100
317.600	-20.564	0.100
317.700	-10.199	0.100
317.800	-21.671	0.100
317.900	-12.930	0.100
318.000	-19.562	0.100
318.100	-11.709	0.100
318.200	-3.262	0.100
318.300	-20.661	0.100
318.400	-14.883	0.100
318.500	-6.612	0.100
318.600	-13.061	0.100
318.700	-20.043	0.100
318.800	-20.197	0.100
318.900	-12.851	0.100
319.000	0.501	0.100
319.100	-18.562	0.100
319.200	-19.190	0.100
319.300	-17.956	0.100
319.400	-13.434	0.100
319.500	-38.172	0.100
319.600	-9.276	0.100
319.700	-20.147	0.100
319.800	-8.757	0.100
319.900	-5.661	0.100
320.000	-15.747	0.100
320.100	-9.658	0.100
320.200	-23.662	0.100
320.300	-9.619	0.100
320.400	-26.535	0.100
320.500	-12.833	0.100
320.600	-15.417	0.100
320.700	-38.180	0.100
320.800	-14.434	0.100
320.900	-13.703	0.100
321.000	-10.483	0.100
321.100	-25.240	0.100
321.200	-21.613	0.100
321.300	2.544	0.100
321.400	-8.519	0.100
321.500	-4.776	0.100
321.600	-4.534	0.100
321.700	-6.274	0.100
321.800	-37.190	0.100
321.900	-22.279	0.100
322.000	-21.077	0.100
322.100	-19.071	0.100
322.200	2.394	0.100
322.300	-16.964	0.100
322.400	-28.172	0.100
322.500	-41.960	0.100
322.600	-7.986	0.100
322.700	-30.834	0.100
322.800	-7.456	0.100
322.900	0.185	0.100
323.000	-25.367	0.100
323.100	-9.319	0.100
323.200	-10.822	0.100
323.300	-19.537	0.100
323.400	-22.831	0.100
323.500	-15.604	0.100
323.600	-24.809	0.100
323.700	-18.091	0.100
323.800	1.634	0.100
323.900	-3.404	0.100
324.000	-25.063	0.100
324.100	-24.994	0.100
324.200	3.936	0.100
324.300	-4.315	0.100
324.400	-17.671	0.100
324.500	-29.512	0.100
324.600	2.632	0.100
324.700	-9.008	0.100
324.800	-14.841	0.100
324.900	-9.128	0.100
325.000	-23.331	0.100
325.100	-8.930	0.100
325.200	-1.162	0.100
325.300	-23.561	0.100
325.400	-14.649	0.100
325.500	-21.167	0.100
325.600	-6.964	0.100
325.700	-9.908	0.100
325.800	-7.500	0.100
325.900	-45.271	0.100
326.000	-11.413	0.100
326.100	-16.653	0.100
326.200	-20.810	0.100
326.300	-7.672	0.100
326.400	-16.347	0.100
326.500	-28.198	0.100
326.600	-1.557	0.100
326.700	-12.919	0.100
326.800	1.090	0.100
326.900	-26.030	0.100
327.000	-13.660	0.100
327.100	-25.069	0.100
327.200	-14.382	0.100
327.300	-18.347	0.100
327.400	-12.908	0.100
327.500	-29.764	0.100
327.600	-12.219	0.100
327.700	4.239	0.100
327.800	-3.635	0.100
327.900	-14.678	0.100
328.000	-10.391	0.100
328.100	-15.937	0.100
328.200	-10.565	0.100
328.300	-21.938	0.100
328.400	-22.071	0.100
328.500	-19.447	0.100
328.600	1.420	0.100
328.700	-23.036	0.100
328.800	-19.150	0.100
328.900	-12.521	0.100
329.000	-9.232	0.100
329.100	-29.796	0.100
329.200	-8.623	0.100
329.300	-14.373	0.100
329.400	-21.468	0.100
329.500	16.236	0.100
329.600	-25.644	0.100
329.700	1.530	0.100
329.800	-21.255	0.100
329.900	-6.380	0.100
330.000	-24.771	0.100
330.100	-11.222	0.100
330.200	7.121	0.100
330.300	-16.090	0.100
330.400	-7.583	0.100
330.500	-16.297	0.100
330.600	-11.554	0.100
330.700	-23.995	0.100
330.800	2.046	0.100
330.900	-7.375	0.100
331.000	5.579	0.100
331.100	-2.220	0.100
331.200	-6.997	0.100
331.300	7.171	0.100
331.400	-5.813	0.100
331.500	12.064	0.100
331.600	14.011	0.100
331.700	11.722	0.100
331.800	21.388	0.100
331.900	9.029	0.100
332.000	12.548	0.100
332.100	16.847	0.100
332.200	37.205	0.100
332.300	10.368	0.100
332.400	29.631	0.100
332.500	12.371	0.100
332.600	24.568	0.100
332.700	56.304	0.100
332.800	27.519	0.100
332.900	28.902	0.100
333.000	28.152	0.100
333.100	11.177	0.100
333.200	29.738	0.100
333.300	23.272	0.100
333.400	16.688	0.100
333.500	13.909	0.100
333.600	16.511	0.100
333.700	27.524	0.100
333.800	6.143	0.100
333.900	32.871	0.100
334.000	23.282	0.100
334.100	29.321	0.100
334.200	26.748	0.100
334.300	15.739	0.100
334.400	25.953	0.100
334.500	-0.388	0.100
334.600	17.256	0.100
334.700	22.946	0.100
334.800	8.294	0.100
334.900	4.852	0.100
335.000	15.292	0.100
335.100	27.483	0.100
335.200	39.563	0.100
335.300	25.505	0.100
335.400	24.981	0.100
335.500	16.044	0.100
335.600	20.210	0.100
335.700	14.016	0.100
335.800	5.681	0.100
335.900	22.186	0.100
336.000	24.880	0.100
336.100	20.667	0.100
336.200	13.234	0.100
336.300	8.442	0.100
336.400	31.810	0.100
336.500	17.290	0.100
336.600	15.813	0.100
336.700	27.691	0.100
336.800	27.123	0.100
336.900	20.055	0.100
337.000	31.667	0.100
337.100	13.141	0.100
337.200	14.067	0.100
337.300	24.774	0.100
337.400	18.600	0.100
337.500	18.850	0.100
337.600	38.437	0.100
337.700	23.526	0.100
337.800	17.735	0.100
337.900	14.315	0.100
338.000	36.798	0.100
338.100	31.129	0.100
338.200	24.195	0.100
338.300	28.903	0.100
338.400	21.322	0.100
338.500	42.932	0.100
338.600	16.321	0.100
338.700	7.305	0.100
338.800	43.335	0.100
338.900	25.267	0.100
339.000	24.970	0.100
339.100	29.535	0.100
339.200	29.356	0.100
339.300	36.350	0.100
339.400	16.045	0.100
339.500	25.175	0.100
339.600	52.511	0.100
339.700	15.552	0.100
339.800	31.894	0.100
339.900	42.496	0.100
340.000	31.510	0.100
340.100	40.160	0.100
340.200	31.619	0.100
340.300	28.281	0.100
340.400	52.543	0.100
340.500	34.125	0.100
340.600	36.667	0.100
340.700	36.123	0.100
340.800	14.211	0.100
340.900	50.074	0.100
341.000	52.625	0.100
341.100	37.286	0.100
341.200	36.700	0.100
341.300	47.060	0.100
341.400	18.584	0.100
341.500	29.152	0.100
341.600	40.425	0.100
341.700	44.989	0.100
341.800	48.714	0.100
341.900	24.520	0.100
342.000	55.531	0.100
342.100	51.511	0.100
342.200	32.823	0.100
342.300	30.179	0.100
342.400	35.743	0.100
342.500	35.785	0.100
342.600	39.228	0.100
342.700	32.250	0.100
342.800	43.460	0.100
342.900	59.407	0.100
343.000	65.249	0.100
343.100	48.842	0.100
343.200	54.048	0.100
343.300	24.342	0.100
343.400	42.074	0.100
343.500	45.728	0.100
343.600	62.299	0.100
343.700	43.534	0.100
343.800	49.348	0.100
343.900	38.664	0.100
344.000	70.061	0.100
344.100	65.571	0.100
344.200	63.819	0.100
344.300	42.468	0.100
344.400	39.023	0.100
344.500	43.713	0.100
344.600	59.999	0.100
344.700	64.223	0.100
344.800	54.671	0.100
344.900	61.867	0.100
345.000	45.421	0.100
345.100	41.598	0.100
345.200	52.346	0.099
345.300	61.912	0.099
345.400	50.744	0.099
345.500	45.595	0.099
345.600	50.343	0.099
345.700	63.439	0.099
345.800	19.699	0.099
345.900	57.622	0.099
346.000	34.662	0.099
346.100	33.569	0.099
346.200	59.888	0.099
346.300	65.251	0.099
346.400	65.512	0.099
346.500	44.729	0.099
346.600	55.769	0.099
346.700	64.991	0.099
346.800	64.576	0.099
346.900	48.643	0.099
347.000	51.423	0.099
347.100	44.751	0.099
347.200	35.311	0.099
347.300	53.462	0.099
347.400	45.749	0.099
347.500	54.257	0.099
347.600	58.691	0.099
347.700	59.887	0.099
347.800	58.412	0.099
347.900	40.899	0.099
348.000	51.523	0.099
348.100	35.536	0.099
348.200	51.630	0.099
348.300	52.047	0.099
348.400	51.952	0.099
348.500	43.962	0.099
348.600	45.244	0.099
348.700	59.993	0.099
348.800	63.269	0.099
348.900	63.175	0.099
349.000	57.452	0.099
349.100	46.489	0.099
349.200	57.403	0.099
349.300	49.921	0.099
349.400	57.576	0.099
349.500	53.267	0.099
349.600	58.267	0.099
349.700	61.072	0.099
349.800	46.984	0.099
349.900	57.107	0.099
350.000	52.556	0.099
350.100	39.357	0.099
350.200	58.373	0.099
350.300	53.457	0.099
350.400	42.708	0.099
350.500	44.043	0.099
350.600	56.319	0.099
350.700	49.763	0.099
350.800	63.417	0.099
350.900	57.820	0.099
351.000	33.082	0.099
351.100	41.142	0.099
351.200	48.503	0.099
351.300	49.172	0.099
351.400	36.401	0.099
351.500	30.313	0.099
351.600	61.900	0.099
351.700	54.445	0.099
351.800	50.810	0.099
351.900	69.753	0.099
352.000	51.060	0.099
352.100	54.601	0.099
352.200	39.397	0.099
352.300	59.841	0.099
352.400	36.844	0.099
352.500	44.229	0.099
352.600	40.522	0.099
352.700	52.998	0.099
352.800	53.785	0.099
352.900	34.781	0.099
353.000	33.320	0.099
353.100	49.126	0.099
353.200	55.332	0.099
353.300	50.608	0.099
353.400	47.546	0.099
353.500	38.474	0.099
353.600	40.120	0.099
353.700	72.410	0.099
353.800	42.623	0.099
353.900	51.445	0.099
354.000	43.781	0.099
354.100	33.729	0.099
354.200	60.966	0.099
354.300	39.325	0.099
354.400	52.577	0.099
354.500	42.406	0.099
354.600	59.126	0.099
354.700	55.479	0.099
354.800	49.476	0.099
354.900	47.270	0.099
355.000	56.238	0.099
355.100	56.957	0.099
355.200	37.191	0.099
355.300	34.724	0.099
355.400	26.713	0.099
355.500	41.525	0.099
355.600	51.864	0.099
355.700	51.503	0.099
355.800	50.315	0.099
355.900	51.168	0.099
356.000	29.240	0.099
356.100	50.346	0.099
356.200	57.336	0.099
356.300	35.384	0.099
356.400	46.948	0.099
356.500	23.698	0.099
356.600	56.584	0.099
356.700	47.526	0.099
356.800	27.072	0.099
356.900	20.557	0.099
357.000	66.159	0.099
357.100	55.725	0.099
357.200	55.194	0.099
357.300	42.347	0.099
357.400	32.398	0.099
357.500	46.325	0.099
357.600	50.322	0.099
357.700	51.224	0.099
357.800	39.265	0.099
357.900	52.917	0.099
358.000	32.647	0.099
358.100	57.717	0.099
358.200	42.244	0.099
358.300	31.902	0.099
358.400	56.250	0.099
358.500	38.759	0.099
358.600	49.119	0.099
358.700	63.683	0.099
358.800	48.846	0.099
358.900	58.147	0.099
359.000	57.794	0.099
359.100	31.693	0.099
359.200	49.914	0.099
359.300	54.907	0.099
359.400	55.635	0.099
359.500	28.075	0.099
359.600	31.738	0.099
359.700	52.029	0.099
359.800	58.930	0.099
359.900	39.176	0.099
360.000	47.484	0.099
360.100	30.602	0.099
360.200	40.260	0.099
360.300	69.060	0.099
360.400	38.329	0.099
360.500	60.589	0.099
360.600	28.418	0.099
360.700	32.558	0.099
360.800	60.433	0.099
360.900	43.192	0.099
361.000	50.707	0.099
361.100	34.946	0.099
361.200	50.751	0.099
361.300	51.793	0.099
361.400	59.310	0.099
361.500	45.352	0.099
361.600	34.756	0.099
361.700	62.475	0.099
361.800	50.811	0.099
361.900	41.229	0.099
362.000	47.985	0.099
362.100	35.198	0.099
362.200	41.961	0.099
362.300	43.720	0.100
362.400	54.813	0.100
362.500	39.857	0.100
362.600	48.554	0.100
362.700	56.964	0.100
362.800	50.096	0.100
362.900	47.033	0.100
363.000	72.992	0.100
363.100	43.181	0.100
363.200	35.110	0.100
363.300	44.013	0.100
363.400	59.742	0.100
363.500	40.615	0.100
363.600	35.559	0.100
363.700	35.205	0.100
363.800	56.248	0.100
363.900	50.178	0.100
364.000	55.487	0.100
364.100	60.787	0.100
364.200	45.956	0.100
364.300	37.819	0.100
364.400	47.931	0.100
364.500	49.792	0.100
364.600	49.701	0.100
364.700	38.714	0.100
364.800	24.698	0.100
364.900	60.858	0.100
365.000	51.290	0.100
365.100	53.980	0.100
365.200	48.884	0.100
365.300	35.305	0.100
365.400	50.234	0.100
365.500	45.458	0.100
365.600	53.121	0.100
365.700	62.952	0.100
365.800	38.395	0.100
365.900	52.776	0.100
366.000	72.105	0.100
366.100	39.193	0.100
366.200	44.678	0.100
366.300	52.623	0.100
366.400	50.422	0.100
366.500	34.124	0.100
366.600	29.148	0.100
366.700	36.618	0.100
366.800	44.716	0.100
366.900	58.435	0.100
367.000	51.824	0.100
367.100	27.491	0.100
367.200	42.258	0.100
367.300	53.887	0.100
367.400	53.011	0.100
367.500	68.476	0.100
367.600	54.815	0.100
367.700	44.489	0.100
367.800	38.349	0.100
367.900	18.226	0.100
368.000	53.691	0.100
368.100	48.942	0.100
368.200	56.744	0.100
368.300	39.739	0.100
368.400	60.143	0.100
368.500	50.748	0.100
368.600	54.900	0.100
368.700	26.920	0.100
368.800	45.908	0.100
368.900	48.886	0.100
369.000	49.409	0.100
369.100	33.010	0.100
369.200	39.856	0.100
369.300	35.413	0.100
369.400	37.970	0.100
369.500	52.832	0.100
369.600	62.353	0.100
369.700	40.357	0.100
369.800	29.016	0.100
369.900	43.607	0.100
370.000	56.907	0.100
370.100	58.502	0.100
370.200	39.307	0.100
370.300	31.342	0.100
370.400	46.405	0.100
370.500	31.910	0.100
370.600	47.356	0.100
370.700	45.332	0.100
370.800	47.321	0.100
370.900	57.758	0.100
371.000	53.341	0.100
371.100	47.528	0.100
371.200	56.936	0.100
371.300	32.717	0.100
371.400	55.689	0.100
371.500	35.789	0.100
371.600	55.265	0.100
371.700	33.774	0.100
371.800	50.731	0.100
371.900	46.723	0.100
372.000	47.693	0.100
372.100	39.015	0.100
372.200	51.062	0.100
372.300	43.899	0.100
372.400	48.616	0.100
372.500	47.240	0.100
372.600	46.792	0.100
372.700	49.374	0.100
372.800	44.153	0.100
372.900	39.790	0.100
373.000	46.406	0.100
373.100	40.323	0.100
373.200	43.081	0.100
373.300	35.647	0.100
373.400	37.448	0.100
373.500	49.973	0.100
373.600	58.347	0.100
373.700	50.583	0.100
373.800	40.612	0.100
373.900	53.230	0.100
374.000	49.560	0.100
374.100	51.521	0.100
374.200	52.377	0.100
374.300	37.628	0.100
374.400	40.726	0.100
374.500	43.395	0.100
374.600	33.717	0.100
374.700	22.890	0.100
374.800	45.413	0.100
374.900	45.406	0.100
375.000	40.310	0.100
375.100	38.518	0.100
375.200	37.923	0.100
375.300	36.351	0.100
375.400	60.119	0.100
375.500	48.237	0.100
375.600	38.398	0.100
375.700	57.719	0.100
375.800	51.339	0.100
375.900	41.704	0.100
376.000	63.429	0.100
376.100	23.071	0.100
376.200	35.049	0.100
376.300	49.682	0.100
376.400	37.767	0.100
376.500	57.697	0.100
376.600	43.970	0.100
376.700	41.159	0.100
376.800	31.905	0.100
376.900	52.763	0.100
377.000	51.358	0.100
377.100	38.504	0.100
377.200	55.196	0.100
377.300	36.896	0.100
377.400	58.736	0.100
377.500	49.186	0.100
377.600	40.337	0.100
377.700	25.067	0.100
377.800	46.491	0.100
377.900	46.032	0.100
378.000	32.348	0.100
378.100	45.781	0.100
378.200	46.832	0.100
378.300	28.745	0.100
378.400	35.871	0.100
378.500	49.151	0.100
378.600	53.401	0.100
378.700	50.187	0.100
378.800	57.067	0.100
378.900	39.750	0.100
379.000	44.090	0.100
379.100	13.642	0.100
379.200	45.848	0.100
379.300	55.891	0.100
379.400	23.092	0.100
379.500	60.948	0.100
379.600	43.719	0.100
379.700	48.982	0.100
379.800	45.610	0.100
379.900	32.176	0.100
380.000	31.617	0.100
380.100	66.385	0.100
380.200	49.744	0.100
380.300	53.229	0.100
380.400	31.684	0.100
380.500	61.803	0.100
380.600	41.500	0.100
380.700	54.964	0.100
380.800	22.286	0.100
380.900	31.172	0.100
381.000	56.780	0.100
381.100	38.633	0.100
381.200	55.645	0.100
381.300	45.345	0.100
381.400	48.727	0.100
381.500	40.808	0.100
381.600	23.977	0.100
381.700	46.723	0.100
381.800	52.807	0.100
381.900	30.011	0.100
382.000	48.980	0.100
382.100	55.701	0.100
382.200	34.350	0.100
382.300	23.855	0.100
382.400	50.608	0.100
382.500	50.007	0.100
382.600	44.632	0.100
382.700	40.728	0.100
382.800	54.375	0.100
382.900	35.640	0.100
383.000	43.589	0.100
383.100	42.484	0.100
383.200	40.054	0.100
383.300	54.644	0.100
383.400	28.365	0.100
383.500	31.645	0.100
383.600	63.437	0.100
383.700	47.873	0.100
383.800	47.599	0.100
383.900	57.535	0.100
384.000	2.727	0.100
384.100	49.406	0.100
384.200	39.161	0.100
384.300	49.628	0.100
384.400	49.580	0.100
384.500	36.251	0.100
384.600	39.636	0.100
384.700	48.842	0.100
384.800	44.664	0.100
384.900	31.255	0.100
385.000	36.901	0.100
385.100	45.510	0.100
385.200	43.476	0.100
385.300	45.823	0.100
385.400	39.477	0.100
385.500	34.120	0.100
385.600	38.999	0.100
385.700	29.706	0.100
385.800	33.108	0.100
385.900	41.241	0.100
386.000	58.676	0.100
386.100	34.412	0.100
386.200	50.441	0.100
386.300	51.567	0.100
386.400	39.303	0.100
386.500	48.145	0.100
386.600	52.147	0.100
386.700	42.339	0.100
386.800	47.572	0.100
386.900	37.469	0.100
387.000	51.462	0.100
387.100	51.350	0.100
387.200	51.678	0.100
387.300	25.607	0.100
387.400	31.814	0.100
387.500	35.094	0.100
387.600	53.398	0.100
387.700	39.719	0.100
387.800	55.548	0.100
387.900	41.516	0.100
388.000	46.473	0.100
388.100	25.874	0.100
388.200	54.060	0.100
388.300	51.474	0.100
388.400	29.197	0.100
388.500	49.313	0.100
388.600	37.633	0.100
388.700	50.393	0.100
388.800	31.407	0.100
388.900	48.450	0.100
389.000	26.689	0.100
389.100	42.039	0.100
389.200	50.219	0.100
389.300	51.307	0.100
389.400	38.649	0.100
389.500	30.760	0.100
389.600	32.355	0.100
389.700	47.226	0.100
389.800	35.970	0.100
389.900	29.266	0.100
390.000	40.110	0.100
390.100	41.227	0.100
390.200	44.766	0.100
390.300	37.780	0.100
390.400	33.592	0.100
390.500	49.906	0.100
390.600	60.015	0.100
390.700	22.612	0.100
390.800	29.658	0.100
390.900	38.015	0.100
391.000	36.340	0.100
391.100	22.317	0.100
391.200	38.272	0.100
391.300	19.730	0.100
391.400	-0.243	0.100
391.500	18.167	0.100
391.600	4.125	0.100
391.700	10.907	0.100
391.800	5.471	0.100
391.900	13.675	0.100
392.000	17.768	0.100
392.100	6.639	0.100
392.200	14.134	0.100
392.300	6.901	0.100
392.400	4.474	0.100
392.500	10.610	0.100
392.600	8.579	0.100
392.700	-7.048	0.100
392.800	-14.001	0.100
392.900	-9.177	0.100
393.000	-9.044	0.100
393.100	-3.137	0.100
393.200	2.826	0.100
393.300	-16.916	0.100
393.400	-5.221	0.100
393.500	-8.973	0.100
393.600	-5.138	0.100
393.700	1.049	0.100
393.800	6.362	0.100
393.900	0.129	0.100
394.000	-12.156	0.100
394.100	-0.837	0.100
394.200	-3.033	0.100
394.300	-8.192	0.100
394.400	-2.242	0.100
394.500	-5.399	0.100
394.600	-0.400	0.100
394.700	-14.735	0.100
394.800	-18.946	0.100
394.900	-16.466	0.100
395.000	-16.207	0.100
395.100	0.790	0.100
395.200	-15.237	0.100
395.300	-13.642	0.100
395.400	-11.159	0.100
395.500	-17.044	0.100
395.600	7.248	0.100
395.700	-11.433	0.100
395.800	-15.300	0.100
395.900	-7.937	0.100
396.000	-9.290	0.100
396.100	-19.097	0.100
396.200	-23.774	0.100
396.300	-15.530	0.100
396.400	-10.964	0.100
396.500	-14.591	0.100
396.600	-12.953	0.100
396.700	-12.154	0.100
396.800	-15.993	0.100
396.900	-16.427	0.100
397.000	-19.138	0.100
397.100	-9.620	0.100
397.200	-8.202	0.100
397.300	-15.161	0.100
397.400	-6.564	0.100
397.500	-27.496	0.100
397.600	-21.219	0.100
397.700	-5.952	0.100
397.800	-15.256	0.100
397.900	-19.379	0.100
398.000	-17.990	0.100
398.100	-5.340	0.100
398.200	-14.926	0.100
398.300	-7.928	0.100
398.400	-17.089	0.100
398.500	-28.825	0.100
398.600	-15.062	0.100
398.700	-17.276	0.100
398.800	-5.338	0.100
398.900	-15.154	0.100
399.000	-18.098	0.100
399.100	-12.486	0.100
399.200	10.382	0.100
399.300	-22.935	0.100
399.400	-26.894	0.100
399.500	-15.253	0.100
399.600	-14.687	0.100
399.700	-22.512	0.100
399.800	-2.491	0.100
399.900	-17.202	0.100
400.000	-23.667	0.100
400.100	-11.140	0.100
400.200	-19.535	0.100
400.300	-30.075	0.100
400.400	-16.304	0.100
400.500	-7.829	0.100
400.600	-23.340	0.100
400.700	-19.332	0.100
400.800	-22.902	0.100
400.900	-30.510	0.100
401.000	-16.806	0.100
401.100	-10.377	0.100
401.200	-13.338	0.100
401.300	-38.773	0.099
401.400	0.744	0.099
401.500	-30.284	0.099
401.600	-23.842	0.099
401.700	-16.902	0.099
401.800	-14.413	0.099
401.900	-26.899	0.099
402.000	-24.500	0.099
402.100	-18.197	0.099
402.200	-18.075	0.099
402.300	-16.859	0.099
402.400	-22.811	0.099
402.500	-21.951	0.099
402.600	-32.957	0.099
402.700	-5.901	0.099
402.800	-20.058	0.099
402.900	-10.095	0.099
403.000	-19.784	0.099
403.100	-18.279	0.099
403.200	-30.077	0.099
403.300	-11.684	0.099
403.400	-23.305	0.099
403.500	-16.186	0.099
403.600	-25.333	0.099
403.700	-12.848	0.099
403.800	-24.442	0.099
403.900	-25.065	0.099
404.000	-14.267	0.099
404.100	-21.904	0.099
404.200	-24.979	0.099
404.300	-17.669	0.099
404.400	-40.595	0.099
404.500	-4.517	0.099
404.600	-13.244	0.099
404.700	-32.403	0.099
404.800	-42.981	0.099
404.900	-22.259	0.099
405.000	-17.513	0.099
405.100	-10.821	0.099
405.200	-22.673	0.099
405.300	-27.163	0.099
405.400	-22.418	0.099
405.500	-32.697	0.099
405.600	1.527	0.099
405.700	-14.628	0.099
405.800	-22.876	0.099
405.900	-33.503	0.099
406.000	-5.487	0.099
406.100	-21.634	0.099
406.200	-21.611	0.099
406.300	-42.019	0.099
406.400	-24.735	0.099
406.500	-16.458	0.099
406.600	-14.217	0.099
406.700	-35.300	0.099
406.800	-28.020	0.099
406.900	-30.130	0.099
407.000	-18.525	0.099
407.100	-18.920	0.099
407.200	-38.539	0.099
407.300	-18.625	0.099
407.400	-27.370	0.099
407.500	-26.808	0.099
407.600	-27.720	0.099
407.700	-3.917	0.099
407.800	-43.126	0.099
407.900	-0.320	0.099
408.000	-21.869	0.099
408.100	-21.849	0.099
408.200	-23.853	0.099
408.300	-20.259	0.099
408.400	-37.723	0.099
408.500	-5.661	0.099
408.600	-5.904	0.099
408.700	-27.613	0.099
408.800	-24.904	0.099
408.900	-30.400	0.099
409.000	-17.296	0.099
409.100	-16.601	0.099
409.200	-10.774	0.099
409.300	-37.404	0.099
409.400	-26.842	0.099
409.500	-34.069	0.099
409.600	-33.995	0.099
409.700	-26.287	0.099
409.800	-7.095	0.099
409.900	-11.663	0.099
410.000	-24.620	0.099
410.100	-43.202	0.099
410.200	-13.177	0.099
410.300	-27.638	0.099
410.400	-26.137	0.099
410.500	-23.174	0.099
410.600	-30.024	0.099
410.700	-28.169	0.099
410.800	-22.337	0.099
410.900	-18.839	0.099
411.000	-27.500	0.099
411.100	-13.759	0.099
411.200	-6.785	0.099
411.300	-34.737	0.099
411.400	-23.308	0.099
411.500	-29.561	0.099
411.600	-19.067	0.099
411.700	-23.917	0.099
411.800	-23.503	0.099
411.900	-26.068	0.099
412.000	-20.660	0.099
412.100	-32.586	0.099
412.200	-32.662	0.099
412.300	-25.999	0.099
412.400	-25.080	0.099
412.500	-41.864	0.099
412.600	-14.058	0.099
412.700	-14.363	0.099
412.800	-21.050	0.099
412.900	-34.710	0.099
413.000	-21.093	0.099
413.100	-38.203	0.099
413.200	-32.009	0.099
413.300	-27.615	0.099
413.400	-23.388	0.099
413.500	-15.596	0.099
413.600	-10.268	0.099
413.700	-31.825	0.099
413.800	-29.276	0.099
413.900	-16.938	0.099
414.000	-48.719	0.099
414.100	-22.303	0.099
414.200	-19.334	0.099
414.300	-35.678	0.099
414.400	-44.560	0.099
414.500	-40.283	0.099
414.600	-20.873	0.099
414.700	-35.132	0.099
414.800	-29.903	0.099
414.900	-40.713	0.099
415.000	-38.825	0.099
415.100	-14.141	0.099
415.200	-15.005	0.099
415.300	-43.862	0.099
415.400	-23.434	0.099
415.500	-12.680	0.099
415.600	-28.075	0.099
415.700	-36.197	0.099
415.800	-33.997	0.099
415.900	-27.785	0.099
416.000	-42.419	0.099
416.100	-26.855	0.099
416.200	-16.863	0.099
416.300	-30.855	0.099
416.400	-31.123	0.099
416.500	-17.784	0.099
416.600	-33.136	0.099
416.700	-34.915	0.099
416.800	-21.151	0.099
416.900	-31.220	0.099
417.000	-19.517	0.099
417.100	-48.449	0.099
417.200	-31.374	0.099
417.300	-29.366	0.099
417.400	-35.814	0.099
417.500	-40.668	0.099
417.600	-31.306	0.099
417.700	-15.844	0.099
417.800	-44.692	0.099
417.900	-37.562	0.099
418.000	-33.133	0.099
418.100	-37.108	0.099
418.200	-18.316	0.099
418.300	-27.297	0.099
418.400	-40.911	0.099
418.500	-32.814	0.099
418.600	-12.594	0.099
418.700	-32.958	0.099
418.800	-26.791	0.099
418.900	-12.366	0.099
419.000	-40.920	0.099
419.100	-18.736	0.099
419.200	-45.782	0.099
419.300	-3.434	0.099
419.400	-21.063	0.099
419.500	-13.909	0.099
419.600	-26.938	0.099
419.700	-25.928	0.099
419.800	-23.952	0.099
419.900	-44.435	0.099
420.000	-22.518	0.099
420.100	-11.268	0.099
420.200	-31.214	0.099
420.300	-31.983	0.099
420.400	-31.389	0.099
420.500	-26.120	0.099
420.600	-33.427	0.099
420.700	-25.398	0.099
420.800	-11.439	0.099
420.900	-36.563	0.100
421.000	-8.496	0.099
421.100	-30.879	0.099
421.200	-34.305	0.100
421.300	-33.578	0.100
421.400	-49.059	0.100
421.500	-24.116	0.100
421.600	-28.230	0.100
421.700	-7.566	0.100
421.800	-19.967	0.100
421.900	-46.408	0.100
422.000	-34.013	0.100
422.100	-23.094	0.100
422.200	-21.665	0.100
422.300	-8.319	0.100
422.400	-48.493	0.100
422.500	-32.723	0.100
422.600	-21.390	0.100
422.700	-38.672	0.100
422.800	-37.606	0.100
422.900	-42.104	0.100
423.000	-20.013	0.100
423.100	-32.463	0.100
423.200	-32.211	0.100
423.300	-26.390	0.100
423.400	-18.955	0.100
423.500	-24.795	0.099
423.600	-30.975	0.099
423.700	-17.918	0.099
423.800	-43.148	0.100
423.900	-29.242	0.099
424.000	-26.933	0.100
424.100	-15.681	0.099
424.200	-11.578	0.100
424.300	-31.596	0.100
424.400	-42.428	0.100
424.500	-20.477	0.100
424.600	-41.345	0.099
424.700	-26.239	0.100
424.800	-22.384	0.100
424.900	-7.444	0.100
425.000	-44.263	0.100
425.100	-33.529	0.100
425.200	-49.391	0.100
425.300	-15.504	0.100
425.400	-24.878	0.100
425.500	-18.498	0.099
425.600	-30.304	0.099
425.700	-31.538	0.100
425.800	-6.321	0.100
425.900	-33.278	0.100
426.000	1.252	0.099
426.100	-48.156	0.099
426.200	-25.014	0.100
426.300	-35.275	0.100
426.400	-15.569	0.100
426.500	-19.930	0.100
426.600	-25.017	0.100
426.700	-38.335	0.099
426.800	-23.496	0.100
426.900	-16.291	0.100
427.000	-16.551	0.100
427.100	-37.905	0.100
427.200	-33.720	0.099
427.300	-28.729	0.100
427.400	-13.275	0.100
427.500	-21.675	0.100
427.600	-26.150	0.100
427.700	-17.820	0.100
427.800	-40.900	0.100
427.900	-16.577	0.100
428.000	-62.557	0.100
428.100	-30.842	0.100
428.200	-25.657	0.100
428.300	-18.456	0.100
428.400	-31.901	0.099
428.500	-6.480	0.100
428.600	-25.282	0.100
428.700	-44.165	0.100
428.800	-12.728	0.100
428.900	-25.317	0.099
429.000	-40.188	0.100
429.100	-2.907	0.099
429.200	-20.466	0.100
429.300	-34.803	0.100
429.400	-42.685	0.100
429.500	-23.793	0.100
429.600	-28.374	0.100
429.700	-31.063	0.100
429.800	-10.474	0.100
429.900	-12.545	0.100
430.000	-26.862	0.100
430.100	-26.223	0.100
430.200	-21.617	0.100
430.300	-19.394	0.100
430.400	-26.240	0.100
430.500	-15.587	0.100
430.600	-12.553	0.100
430.700	-36.158	0.100
430.800	-38.303	0.100
430.900	-14.434	0.100
431.000	-28.022	0.100
431.100	-28.277	0.100
431.200	-33.573	0.100
431.300	-26.734	0.100
431.400	-35.767	0.100
431.500	-2.483	0.100
431.600	-28.356	0.099
431.700	-23.909	0.100
431.800	-18.435	0.100
431.900	-35.893	0.100
432.000	-23.081	0.100
432.100	-37.555	0.100
432.200	-29.204	0.100
432.300	-17.277	0.100
432.400	-27.502	0.100
432.500	-31.027	0.100
432.600	-26.289	0.100
432.700	-31.407	0.100
432.800	-8.363	0.100
432.900	-26.973	0.099
433.000	-29.858	0.099
433.100	-28.844	0.099
433.200	-25.996	0.100
433.300	-20.197	0.100
433.400	-13.777	0.100
433.500	-16.599	0.099
433.600	-25.681	0.100
433.700	-22.291	0.099
433.800	-34.217	0.100
433.900	-33.949	0.099
434.000	-13.329	0.100
434.100	-21.371	0.100
434.200	-21.611	0.099
434.300	-18.803	0.100
434.400	-27.902	0.100
434.500	-22.970	0.100
434.600	-34.608	0.100
434.700	-29.664	0.099
434.800	-27.383	0.099
434.900	-17.353	0.100
435.000	-12.139	0.100
435.100	-40.156	0.100
435.200	-39.855	0.099
435.300	-23.295	0.100
435.400	-4.562	0.099
435.500	-27.446	0.100
435.600	-17.763	0.100
435.700	-25.463	0.100
435.800	-28.117	0.100
435.900	-8.899	0.100
436.000	-23.677	0.100
436.100	-29.931	0.100
436.200	-28.784	0.100
436.300	-21.688	0.100
436.400	-20.497	0.100
436.500	-20.356	0.100
436.600	-30.337	0.100
436.700	-24.485	0.100
436.800	-34.675	0.100
436.900	-23.989	0.100
437.000	-19.903	0.100
437.100	-36.215	0.100
437.200	-16.949	0.100
437.300	-12.608	0.100
437.400	-14.212	0.100
437.500	-22.629	0.100
437.600	-29.765	0.100
437.700	-16.813	0.100
437.800	-23.243	0.100
437.900	-5.769	0.100
438.000	-19.254	0.100
438.100	-15.706	0.100
438.200	-21.132	0.100
438.300	-6.699	0.100
438.400	-29.181	0.100
438.500	-27.036	0.100
438.600	-19.810	0.100
438.700	-18.915	0.100
438.800	-23.375	0.100
438.900	-37.132	0.100
439.000	-22.588	0.100
439.100	-18.999	0.100
439.200	-33.434	0.100
439.300	-31.261	0.100
439.400	-9.654	0.100
439.500	-36.669	0.100
439.600	-12.770	0.100
439.700	-43.921	0.100
439.800	-3.266	0.100
439.900	-19.988	0.100
440.000	-18.319	0.100
440.100	-13.907	0.100
440.200	-36.055	0.100
440.300	-13.504	0.100
440.400	-12.592	0.100
440.500	-11.585	0.100
440.600	-31.514	0.099
440.700	-35.378	0.100
440.800	-11.084	0.099
440.900	-20.661	0.100
441.000	-37.274	0.100
441.100	-15.442	0.100
441.200	-18.843	0.100
441.300	-9.043	0.100
441.400	-20.327	0.100
441.500	-20.427	0.100
441.600	-15.522	0.100
441.700	-19.266	0.100
441.800	-30.366	0.100
441.900	-24.697	0.100
442.000	-29.467	0.100
442.100	-9.301	0.100
442.200	-12.787	0.100
442.300	-45.340	0.100
442.400	-23.326	0.100
442.500	-6.872	0.100
442.600	-35.292	0.100
442.700	-15.497	0.100
442.800	-21.500	0.100
442.900	-31.038	0.100
443.000	-10.065	0.100
443.100	-23.597	0.100
443.200	-12.079	0.100
443.300	-29.736	0.100
443.400	-13.825	0.100
443.500	-34.482	0.100
443.600	-18.453	0.100
443.700	-23.356	0.100
443.800	-25.725	0.100
443.900	-45.089	0.100
444.000	-25.308	0.100
444.100	-14.681	0.100
444.200	-3.666	0.100
444.300	-15.262	0.100
444.400	-17.890	0.100
444.500	-19.764	0.100
444.600	-28.145	0.100
444.700	-16.473	0.100
444.800	-16.397	0.100
444.900	-13.579	0.100
445.000	-17.800	0.100
445.100	-24.058	0.100
445.200	-11.550	0.100
445.300	-21.344	0.100
445.400	-23.232	0.100
445.500	-39.517	0.100
445.600	-15.509	0.100
445.700	-22.066	0.100
445.800	-25.652	0.100
445.900	-15.365	0.100
446.000	-50.243	0.100
446.100	-22.191	0.100
446.200	-31.729	0.100
446.300	-3.637	0.100
446.400	-27.050	0.100
446.500	-4.416	0.100
446.600	-38.827	0.100
446.700	-1.893	0.100
446.800	-11.862	0.100
446.900	-41.293	0.100
447.000	-23.571	0.100
447.100	-29.349	0.100
447.200	-19.637	0.100
447.300	-29.723	0.100
447.400	-19.912	0.100
447.500	-18.145	0.100
447.600	-22.546	0.099
447.700	-30.829	0.100
447.800	-14.840	0.100
447.900	-24.899	0.100
448.000	-23.708	0.100
448.100	-28.447	0.099
448.200	-5.069	0.100
448.300	-9.912	0.099
448.400	-3.143	0.100
448.500	-17.499	0.100
448.600	-22.591	0.100
448.700	-10.540	0.100
448.800	-31.451	0.100
448.900	-40.345	0.100
449.000	-24.559	0.100
449.100	-41.576	0.099
449.200	-15.885	0.100
449.300	-15.335	0.100
449.400	-20.310	0.100
449.500	-18.920	0.100
449.600	-15.506	0.100
449.700	-28.441	0.100
449.800	-27.457	0.100
449.900	-23.952	0.100
450.000	-18.463	0.100
450.100	-16.257	0.100
450.200	-11.296	0.099
450.300	-17.638	0.100
450.400	-2.200	0.100
450.500	-39.093	0.100
450.600	-26.854	0.100
450.700	-12.544	0.100
450.800	-12.133	0.100
450.900	-28.740	0.100
451.000	-28.060	0.100
451.100	-25.574	0.100
451.200	-28.274	0.100
451.300	-22.270	0.100
451.400	-22.591	0.099
451.500	-25.480	0.100
451.600	-19.929	0.100
451.700	-15.815	0.100
451.800	-15.158	0.100
451.900	-16.770	0.099
452.000	-17.534	0.100
452.100	-11.804	0.100
452.200	-3.836	0.100
452.300	-23.733	0.100
452.400	-30.990	0.100
452.500	2.071	0.100
452.600	-10.339	0.100
452.700	-21.531	0.100
452.800	-42.629	0.100
452.900	-25.599	0.099
453.000	-24.693	0.100
453.100	-14.709	0.100
453.200	-14.772	0.100
453.300	-10.661	0.100
453.400	-6.986	0.100
453.500	-23.891	0.100
453.600	-1.874	0.100
453.700	-31.357	0.100
453.800	-11.764	0.100
453.900	-3.467	0.100
454.000	-8.178	0.100
454.100	-25.454	0.100
454.200	-31.079	0.100
454.300	-14.853	0.100
454.400	-19.902	0.100
454.500	-21.077	0.100
454.600	-8.122	0.100
454.700	-18.637	0.100
454.800	-13.619	0.100
454.900	-6.367	0.100
455.000	-16.021	0.100
455.100	-14.801	0.100
455.200	-31.911	0.100
455.300	-11.225	0.100
455.400	-22.978	0.100
455.500	-0.557	0.100
455.600	-23.210	0.100
455.700	-26.650	0.100
455.800	-15.131	0.100
455.900	-26.133	0.100
456.000	-19.504	0.100
456.100	-12.639	0.100
456.200	-27.554	0.100
456.300	-13.844	0.100
456.400	-19.595	0.099
456.500	-1.722	0.100
456.600	-27.219	0.100
456.700	-48.059	0.099
456.800	-4.038	0.100
456.900	-20.949	0.100
457.000	2.617	0.100
457.100	-38.307	0.100
457.200	-12.747	0.100
457.300	-29.471	0.100
457.400	-27.748	0.100
457.500	-4.035	0.100
457.600	-18.518	0.100
457.700	-4.021	0.100
457.800	-5.677	0.100
457.900	-35.163	0.100
458.000	-4.700	0.100
458.100	-7.515	0.100
458.200	-28.739	0.100
458.300	-32.959	0.100
458.400	-38.419	0.100
458.500	-35.015	0.099
458.600	-5.005	0.100
458.700	-3.772	0.100
458.800	-31.661	0.100
458.900	-20.064	0.100
459.000	-3.184	0.100
459.100	-16.209	0.100
459.200	-22.577	0.100
459.300	-30.417	0.099
459.400	-22.047	0.100
459.500	-0.747	0.099
459.600	-9.952	0.100
459.700	-13.673	0.100
459.800	-12.566	0.099
459.900	-23.982	0.100
460.000	0.628	0.100
460.100	11.119	0.100
460.200	-31.632	0.100
460.300	-32.102	0.100
460.400	-26.993	0.100
460.500	-19.817	0.100
460.600	-15.938	0.100
460.700	-27.157	0.100
460.800	-23.252	0.100
460.900	-24.921	0.100
461.000	-13.334	0.100
461.100	-20.841	0.100
461.200	-26.271	0.100
461.300	-13.620	0.100
461.400	-13.914	0.099
461.500	-5.501	0.100
461.600	-16.854	0.099
461.700	-12.972	0.100
461.800	-16.637	0.100
461.900	-6.753	0.099
462.000	-14.288	0.100
462.100	-23.263	0.100
462.200	-25.917	0.100
462.300	-26.473	0.100
462.400	-3.783	0.100
462.500	-21.299	0.099
462.600	-21.342	0.099
462.700	-13.342	0.100
462.800	-11.958	0.100
462.900	-9.809	0.100
463.000	-12.450	0.100
463.100	-19.797	0.100
463.200	-14.777	0.099
463.300	-3.331	0.100
463.400	-12.332	0.100
463.500	-28.309	0.100
463.600	-23.660	0.100
463.700	-13.759	0.100
463.800	-11.569	0.100
463.900	-19.382	0.100
464.000	-29.500	0.100
464.100	-29.242	0.100
464.200	-19.467	0.099
464.300	-1.608	0.100
464.400	1.589	0.100
464.500	1.856	0.100
464.600	-37.231	0.100
464.700	-22.374	0.100
464.800	-18.214	0.100
464.900	-20.253	0.100
465.000	-14.355	0.100
465.100	-14.061	0.100
465.200	-30.997	0.099
465.300	-10.130	0.100
465.400	-24.637	0.099
465.500	-20.245	0.100
465.600	-4.309	0.100
465.700	-6.327	0.099
465.800	3.867	0.099
465.900	-10.643	0.100
466.000	-39.050	0.100
466.100	-17.143	0.100
466.200	-13.195	0.100
466.300	-18.638	0.100
466.400	-41.076	0.099
466.500	-23.756	0.100
466.600	-11.944	0.100
466.700	-33.346	0.099
466.800	-14.152	0.099
466.900	-10.021	0.099
467.000	-16.794	0.099
467.100	-18.971	0.099
467.200	-5.624	0.100
467.300	-15.815	0.100
467.400	-18.858	0.100
467.500	-26.184	0.100
467.600	-11.839	0.100
467.700	-23.285	0.099
467.800	-31.326	0.099
467.900	-29.490	0.099
468.000	-11.721	0.099
468.100	-4.860	0.100
468.200	-23.294	0.099
468.300	-23.399	0.099
468.400	-24.923	0.099
468.500	-12.246	0.099
468.600	-22.473	0.100
468.700	-8.342	0.099
468.800	-21.548	0.099
468.900	-15.877	0.099
469.000	-9.858	0.099
469.100	-18.697	0.099
469.200	-19.467	0.099
469.300	-14.039	0.099
469.400	-35.137	0.099
469.500	-16.324	0.099
469.600	-9.039	0.099
469.700	-7.513	0.100
469.800	-11.918	0.099
469.900	-27.265	0.100
470.000	-14.134	0.100
470.100	-19.204	0.100
470.200	-26.488	0.100
470.300	-12.743	0.100
470.400	-34.021	0.100
470.500	-8.171	0.099
470.600	-23.468	0.100
470.700	-12.283	0.099
470.800	-39.204	0.100
470.900	-20.848	0.099
471.000	-0.744	0.100
471.100	-19.020	0.099
471.200	-14.715	0.099
471.300	-10.736	0.099
471.400	-22.222	0.100
471.500	-25.424	0.099
471.600	-4.333	0.100
471.700	-3.600	0.099
471.800	-37.048	0.100
471.900	-4.839	0.099
472.000	-14.666	0.099
472.100	-1.262	0.099
472.200	-16.088	0.100
472.300	-10.120	0.099
472.400	-12.116	0.099
472.500	-22.657	0.099
472.600	-12.651	0.099
472.700	-15.809	0.100
472.800	-9.366	0.099
472.900	-13.248	0.099
473.000	-15.811	0.099
473.100	-35.895	0.099
473.200	-30.554	0.100
473.300	-5.185	0.099
473.400	-3.225	0.099
473.500	-17.133	0.099
473.600	-12.671	0.099
473.700	-24.244	0.099
473.800	-19.987	0.100
473.900	-11.174	0.099
474.000	-27.658	0.100
474.100	-9.822	0.099
474.200	-9.702	0.100
474.300	-24.434	0.099
474.400	-18.078	0.099
474.500	-2.607	0.100
474.600	-16.607	0.099
474.700	-9.062	0.099
474.800	-15.448	0.099
474.900	-17.745	0.100
475.000	-29.908	0.099
475.100	3.744	0.099
475.200	-7.597	0.099
475.300	-13.033	0.099
475.400	-32.647	0.100
475.500	-16.073	0.099
475.600	-2.272	0.099
475.700	-4.737	0.099
475.800	-37.251	0.099
475.900	-26.166	0.099
476.000	-2.297	0.099
476.100	-3.080	0.099
476.200	-31.758	0.099
476.300	-22.974	0.099
476.400	-12.718	0.099
476.500	-16.864	0.099
476.600	-8.586	0.099
476.700	-13.184	0.099
476.800	-24.215	0.099
476.900	-27.317	0.099
477.000	-11.232	0.099
477.100	-25.826	0.099
477.200	-5.823	0.099
477.300	-26.037	0.099
477.400	-17.345	0.099
477.500	-11.843	0.099
477.600	-14.024	0.099
477.700	-16.267	0.100
477.800	-17.072	0.099
477.900	-7.754	0.100
478.000	-17.256	0.099
478.100	-13.713	0.099
478.200	-16.477	0.099
478.300	-1.983	0.099
478.400	-28.931	0.100
478.500	-8.877	0.099
478.600	-22.946	0.099
478.700	-18.242	0.099
478.800	1.292	0.100
478.900	-6.508	0.099
479.000	-17.108	0.099
479.100	-11.785	0.099
479.200	-17.505	0.099
479.300	-7.850	0.099
479.400	-21.526	0.099
479.500	-5.170	0.099
479.600	-18.720	0.099
479.700	-12.710	0.099
479.800	-33.254	0.099
479.900	-0.525	0.099
480.000	-5.670	0.099
480.100	-9.191	0.100
480.200	-29.555	0.100
480.300	-16.748	0.099
480.400	-25.231	0.100
480.500	-15.585	0.099
480.600	-2.319	0.100
480.700	-17.858	0.099
480.800	-5.222	0.099
480.900	-13.958	0.099
481.000	-6.791	0.100
481.100	2.269	0.099
481.200	1.779	0.099
481.300	-6.306	0.100
481.400	-1.080	0.099
481.500	-2.561	0.099
481.600	27.929	0.099
481.700	9.758	0.099
481.800	14.144	0.100
481.900	6.478	0.099
482.000	30.500	0.099
482.100	30.460	0.100
482.200	26.476	0.099
482.300	6.508	0.099
482.400	29.511	0.099
482.500	18.472	0.099
482.600	35.208	0.100
482.700	18.859	0.099
482.800	33.497	0.099
482.900	8.933	0.099
483.000	-8.342	0.099
483.100	36.082	0.099
483.200	20.418	0.099
483.300	26.726	0.099
483.400	26.805	0.099
483.500	26.480	0.099
483.600	14.504	0.099
483.700	19.750	0.099
483.800	18.877	0.100
483.900	35.440	0.099
484.000	9.870	0.099
484.100	19.999	0.099
484.200	21.786	0.099
484.300	20.472	0.100
484.400	24.897	0.100
484.500	4.135	0.099
484.600	23.480	0.100
484.700	15.155	0.099
484.800	15.447	0.099
484.900	16.027	0.099
485.000	18.598	0.099
485.100	27.383	0.099
485.200	22.897	0.100
485.300	27.920	0.099
485.400	23.733	0.099
485.500	5.583	0.099
485.600	25.011	0.099
485.700	30.262	0.099
485.800	16.284	0.100
485.900	5.709	0.099
486.000	18.001	0.099
486.100	24.793	0.099
486.200	27.420	0.099
486.300	-0.697	0.100
486.400	35.110	0.099
486.500	26.921	0.099
486.600	15.291	0.100
486.700	2.112	0.099
486.800	34.940	0.100
486.900	28.740	0.100
487.000	21.648	0.099
487.100	27.774	0.099
487.200	32.898	0.100
487.300	24.522	0.099
487.400	12.351	0.100
487.500	18.942	0.099
487.600	21.707	0.099
487.700	19.039	0.099
487.800	20.792	0.099
487.900	-3.110	0.099
488.000	22.128	0.100
488.100	19.878	0.099
488.200	29.095	0.099
488.300	28.069	0.099
488.400	14.936	0.100
488.500	49.885	0.099
488.600	10.850	0.099
488.700	24.341	0.099
488.800	27.445	0.099
488.900	28.401	0.099
489.000	18.256	0.099
489.100	18.164	0.099
489.200	9.963	0.099
489.300	35.285	0.099
489.400	30.762	0.100
489.500	36.461	0.099
489.600	26.996	0.099
489.700	44.857	0.100
489.800	20.721	0.099
489.900	38.282	0.099
490.000	26.051	0.099
490.100	27.963	0.099
490.200	27.548	0.099
490.300	25.548	0.099
490.400	25.747	0.099
490.500	40.800	0.099
490.600	8.823	0.099
490.700	43.889	0.100
490.800	31.685	0.100
490.900	34.380	0.099
491.000	27.271	0.099
491.100	25.337	0.099
491.200	38.276	0.100
491.300	26.695	0.099
491.400	22.923	0.100
491.500	55.662	0.100
491.600	40.702	0.099
491.700	21.997	0.099
491.800	27.374	0.099
491.900	26.591	0.099
492.000	26.420	0.099
492.100	40.882	0.099
492.200	55.628	0.099
492.300	35.917	0.100
492.400	31.910	0.099
492.500	48.780	0.099
492.600	44.230	0.099
492.700	50.739	0.099
492.800	34.943	0.099
492.900	46.778	0.099
493.000	36.556	0.099
493.100	47.721	0.100
493.200	43.620	0.099
493.300	58.278	0.099
493.400	72.415	0.100
493.500	34.442	0.100
493.600	56.065	0.099
493.700	46.849	0.099
493.800	53.888	0.099
493.900	63.440	0.099
494.000	40.666	0.100
494.100	51.162	0.099
494.200	37.944	0.099
494.300	48.205	0.099
494.400	37.169	0.099
494.500	55.162	0.099
494.600	44.824	0.100
494.700	34.581	0.099
494.800	57.544	0.099
494.900	56.557	0.100
495.000	53.202	0.099
495.100	51.822	0.100
495.200	60.893	0.100
495.300	34.375	0.099
495.400	48.288	0.099
495.500	67.005	0.099
495.600	70.024	0.099
495.700	43.241	0.099
495.800	41.865	0.099
495.900	59.629	0.099
496.000	59.059	0.099
496.100	50.323	0.100
496.200	52.475	0.099
496.300	63.243	0.099
496.400	37.709	0.099
496.500	55.268	0.099
496.600	73.246	0.100
496.700	56.200	0.100
496.800	45.205	0.100
496.900	46.543	0.100
497.000	46.384	0.099
497.100	58.770	0.100
497.200	57.352	0.099
497.300	60.639	0.100
497.400	42.578	0.100
497.500	57.158	0.100
497.600	40.101	0.100
497.700	76.710	0.099
497.800	62.332	0.099
497.900	54.951	0.100
498.000	54.292	0.099
498.100	50.756	0.100
498.200	52.431	0.100
498.300	59.364	0.100
498.400	53.407	0.099
498.500	45.989	0.099
498.600	59.816	0.100
498.700	50.723	0.100
498.800	63.630	0.100
498.900	39.631	0.100
499.000	50.209	0.100
499.100	49.893	0.099
499.200	62.187	0.099
499.300	46.224	0.100
499.400	60.225	0.099
499.500	50.097	0.099
499.600	37.994	0.099
499.700	58.865	0.100
499.800	52.435	0.100
499.900	54.699	0.100
500.000	56.098	0.099
500.100	57.518	0.100
500.200	51.293	0.100
500.300	33.554	0.099
500.400	70.963	0.100
500.500	47.036	0.100
500.600	52.786	0.099
500.700	51.263	0.099
500.800	47.168	0.099
500.900	50.167	0.099
501.000	40.654	0.099
501.100	53.218	0.100
501.200	72.795	0.099
501.300	42.796	0.099
501.400	40.151	0.099
501.500	61.900	0.099
501.600	57.646	0.099
501.700	58.511	0.100
501.800	55.585	0.099
501.900	59.308	0.100
502.000	42.372	0.099
502.100	28.621	0.099
502.200	50.866	0.100
502.300	39.369	0.100
502.400	61.489	0.099
502.500	62.364	0.099
502.600	58.489	0.100
502.700	39.655	0.099
502.800	56.719	0.099
502.900	26.372	0.099
503.000	65.343	0.099
503.100	60.771	0.099
503.200	65.850	0.100
503.300	52.295	0.099
503.400	47.103	0.100
503.500	49.650	0.099
503.600	44.137	0.099
503.700	44.087	0.099
503.800	59.900	0.100
503.900	45.858	0.099
504.000	37.039	0.099
504.100	56.470	0.099
504.200	42.443	0.099
504.300	46.827	0.100
504.400	30.232	0.099
504.500	63.388	0.099
504.600	49.573	0.100
504.700	45.519	0.099
504.800	65.449	0.099
504.900	59.598	0.099
505.000	40.802	0.099
505.100	58.828	0.099
505.200	42.876	0.100
505.300	50.880	0.099
505.400	29.140	0.100
505.500	59.448	0.100
505.600	65.636	0.099
505.700	60.225	0.099
505.800	67.161	0.099
505.900	61.969	0.099
506.000	52.323	0.099
506.100	56.629	0.100
506.200	38.609	0.099
506.300	40.355	0.100
506.400	68.056	0.099
506.500	55.826	0.099
506.600	54.186	0.099
506.700	39.398	0.100
506.800	48.895	0.099
506.900	60.838	0.099
507.000	36.507	0.099
507.100	60.399	0.099
507.200	30.241	0.099
507.300	48.092	0.099
507.400	47.153	0.099
507.500	36.197	0.099
507.600	33.954	0.099
507.700	55.262	0.099
507.800	53.234	0.100
507.900	60.010	0.099
508.000	46.360	0.099
508.100	50.079	0.099
508.200	49.258	0.099
508.300	39.111	0.099
508.400	64.805	0.099
508.500	44.236	0.099
508.600	46.243	0.099
508.700	63.010	0.099
508.800	43.422	0.100
508.900	47.470	0.099
509.000	57.267	0.099
509.100	46.363	0.100
509.200	52.677	0.099
509.300	40.248	0.099
509.400	66.203	0.099
509.500	56.628	0.099
509.600	35.473	0.100
509.700	49.085	0.099
509.800	40.417	0.099
509.900	54.569	0.099
510.000	44.076	0.099
510.100	62.475	0.099
510.200	48.707	0.100
510.300	46.077	0.099
510.400	65.819	0.099
510.500	44.184	0.099
510.600	61.250	0.099
510.700	37.772	0.100
510.800	56.240	0.099
510.900	53.547	0.099
511.000	43.346	0.099
511.100	44.015	0.099
511.200	41.569	0.099
511.300	64.177	0.099
511.400	57.097	0.099
511.500	52.569	0.099
511.600	32.202	0.099
511.700	49.673	0.099
511.800	52.822	0.100
511.900	46.443	0.099
512.000	41.819	0.100
512.100	38.344	0.099
512.200	43.614	0.099
512.300	40.817	0.099
512.400	46.841	0.100
512.500	65.511	0.099
512.600	34.682	0.099
512.700	44.245	0.099
512.800	61.888	0.099
512.900	42.776	0.099
513.000	36.556	0.099
513.100	43.481	0.099
513.200	50.830	0.099
513.300	47.126	0.099
513.400	50.358	0.099
513.500	16.805	0.099
513.600	60.707	0.100
513.700	50.873	0.100
513.800	38.578	0.099
513.900	51.836	0.099
514.000	45.603	0.099
514.100	32.214	0.099
514.200	55.551	0.099
514.300	58.862	0.100
514.400	53.702	0.099
514.500	33.099	0.099
514.600	45.191	0.099
514.700	58.611	0.099
514.800	40.794	0.099
514.900	51.669	0.099
515.000	40.551	0.099
515.100	35.820	0.099
515.200	36.709	0.099
515.300	55.513	0.099
515.400	56.017	0.099
515.500	40.684	0.099
515.600	54.741	0.099
515.700	54.047	0.099
515.800	59.010	0.099
515.900	52.229	0.099
516.000	53.707	0.099
516.100	26.528	0.099
516.200	57.036	0.099
516.300	49.258	0.099
516.400	40.844	0.099
516.500	52.914	0.099
516.600	54.021	0.099
516.700	46.309	0.099
516.800	21.340	0.099
516.900	50.865	0.099
517.000	54.295	0.099
517.100	43.897	0.100
517.200	39.006	0.100
517.300	48.658	0.099
517.400	39.629	0.099
517.500	30.257	0.099
517.600	78.001	0.099
517.700	43.073	0.099
517.800	31.596	0.099
517.900	48.667	0.099
518.000	58.041	0.099
518.100	49.986	0.100
518.200	33.032	0.099
518.300	58.890	0.099
518.400	39.604	0.099
518.500	69.170	0.099
518.600	52.724	0.099
518.700	31.793	0.099
518.800	56.678	0.099
518.900	45.358	0.099
519.000	27.412	0.099
519.100	60.731	0.099
519.200	54.736	0.100
519.300	50.760	0.099
519.400	40.997	0.100
519.500	43.184	0.099
519.600	43.164	0.099
519.700	56.069	0.100
519.800	51.829	0.100
519.900	24.757	0.099
520.000	36.588	0.099
520.100	47.654	0.099
520.200	35.155	0.099
520.300	48.664	0.099
520.400	46.054	0.099
520.500	46.517	0.099
520.600	24.004	0.100
520.700	48.520	0.099
520.800	52.537	0.100
520.900	55.021	0.099
521.000	31.971	0.099
521.100	35.874	0.099
521.200	58.215	0.100
521.300	45.895	0.100
521.400	49.640	0.099
521.500	52.459	0.100
521.600	46.218	0.099
521.700	43.942	0.099
521.800	41.508	0.099
521.900	35.927	0.099
522.000	48.420	0.099
522.100	51.904	0.099
522.200	50.030	0.099
522.300	56.114	0.099
522.400	51.337	0.100
522.500	44.836	0.099
522.600	41.379	0.099
522.700	52.327	0.099
522.800	38.694	0.099
522.900	42.652	0.099
523.000	37.761	0.100
523.100	50.583	0.100
523.200	53.928	0.100
523.300	44.879	0.099
523.400	53.673	0.099
523.500	47.470	0.100
523.600	9.055	0.099
523.700	48.228	0.099
523.800	43.933	0.099
523.900	54.168	0.099
524.000	50.797	0.100
524.100	49.076	0.099
524.200	30.791	0.099
524.300	40.280	0.099
524.400	27.303	0.099
524.500	46.860	0.099
524.600	40.350	0.099
524.700	48.624	0.099
524.800	47.247	0.099
524.900	56.528	0.099
525.000	39.361	0.099
525.100	58.973	0.099
525.200	44.274	0.099
525.300	38.672	0.099
525.400	66.069	0.099
525.500	49.786	0.099
525.600	49.813	0.099
525.700	39.913	0.099
525.800	26.825	0.099
525.900	62.822	0.099
526.000	44.428	0.099
526.100	42.117	0.099
526.200	49.540	0.099
526.300	46.329	0.099
526.400	55.052	0.099
526.500	59.516	0.099
526.600	28.771	0.099
526.700	41.815	0.099
526.800	51.784	0.099
526.900	33.417	0.099
527.000	47.575	0.099
527.100	52.565	0.099
527.200	44.320	0.099
527.300	29.170	0.099
527.400	41.522	0.099
527.500	59.254	0.099
527.600	61.597	0.099
527.700	23.579	0.099
527.800	46.268	0.099
527.900	51.850	0.100
528.000	27.001	0.099
528.100	58.086	0.099
528.200	54.314	0.099
528.300	52.376	0.099
528.400	37.343	0.099
528.500	42.006	0.099
528.600	40.769	0.099
528.700	57.615	0.099
528.800	37.385	0.099
528.900	45.041	0.100
529.000	35.640	0.099
529.100	32.190	0.099
529.200	44.437	0.099
529.300	22.951	0.099
529.400	55.960	0.099
529.500	51.709	0.099
529.600	33.632	0.099
529.700	63.067	0.099
529.800	44.951	0.099
529.900	37.352	0.099
530.000	41.687	0.099
530.100	28.950	0.099
530.200	56.190	0.099
530.300	38.552	0.100
530.400	67.344	0.099
530.500	52.636	0.099
530.600	28.099	0.099
530.700	48.172	0.100
530.800	44.286	0.099
530.900	43.560	0.099
531.000	51.099	0.099
531.100	46.309	0.100
531.200	45.002	0.099
531.300	28.853	0.099
531.400	39.274	0.100
531.500	32.597	0.099
531.600	42.597	0.099
531.700	36.226	0.099
531.800	46.314	0.099
531.900	54.614	0.099
532.000	35.472	0.099
532.100	19.224	0.099
532.200	45.132	0.099
532.300	36.784	0.099
532.400	54.946	0.099
532.500	40.326	0.099
532.600	66.071	0.099
532.700	35.760	0.099
532.800	60.182	0.099
532.900	50.779	0.099
533.000	33.639	0.099
533.100	31.147	0.099
533.200	39.645	0.099
533.300	47.589	0.099
533.400	55.507	0.099
533.500	42.868	0.099
533.600	31.083	0.099
533.700	53.432	0.099
533.800	59.299	0.099
533.900	57.049	0.099
534.000	34.099	0.100
534.100	35.594	0.100
534.200	40.273	0.099
534.300	45.165	0.099
534.400	37.645	0.099
534.500	40.440	0.099
534.600	41.668	0.099
534.700	56.642	0.099
534.800	41.380	0.099
534.900	38.473	0.099
535.000	35.876	0.099
535.100	37.246	0.099
535.200	60.224	0.099
535.300	49.662	0.099
535.400	39.802	0.099
535.500	32.163	0.099
535.600	44.574	0.099
535.700	34.075	0.099
535.800	36.470	0.099
535.900	39.324	0.099
536.000	55.492	0.100
536.100	58.312	0.099
536.200	36.218	0.100
536.300	43.756	0.099
536.400	49.541	0.099
536.500	26.110	0.099
536.600	43.762	0.099
536.700	37.585	0.099
536.800	35.727	0.099
536.900	35.981	0.099
537.000	39.157	0.099
537.100	46.814	0.099
537.200	38.716	0.099
537.300	56.439	0.099
537.400	58.966	0.099
537.500	37.086	0.099
537.600	43.238	0.099
537.700	45.442	0.099
537.800	37.485	0.099
537.900	48.582	0.099
538.000	49.676	0.099
538.100	45.522	0.099
538.200	36.809	0.100
538.300	57.266	0.099
538.400	42.543	0.100
538.500	47.261	0.099
538.600	45.726	0.100
538.700	45.184	0.099
538.800	46.856	0.099
538.900	53.925	0.100
539.000	39.890	0.099
539.100	36.378	0.099
539.200	49.257	0.099
539.300	40.067	0.099
539.400	42.974	0.099
539.500	63.549	0.099
539.600	49.994	0.100
539.700	38.466	0.100
539.800	53.468	0.099
539.900	43.303	0.099
540.000	44.351	0.099
540.100	40.661	0.099
540.200	57.410	0.099
540.300	35.954	0.099
540.400	43.290	0.099
540.500	46.927	0.099
540.600	45.645	0.099
540.700	40.996	0.100
540.800	37.733	0.099
540.900	25.791	0.099
541.000	32.576	0.099
541.100	38.747	0.099
541.200	7.949	0.099
541.300	27.555	0.100
541.400	7.141	0.099
541.500	8.848	0.099
541.600	11.166	0.099
541.700	-0.577	0.099
541.800	5.712	0.099
541.900	9.457	0.099
542.000	8.269	0.100
542.100	-4.849	0.099
542.200	0.881	0.099
542.300	6.589	0.099
542.400	1.072	0.099
542.500	6.375	0.099
542.600	-3.425	0.099
542.700	1.267	0.100
542.800	4.592	0.099
542.900	-12.289	0.099
543.000	0.067	0.100
543.100	8.183	0.099
543.200	-14.541	0.099
543.300	-12.063	0.099
543.400	3.321	0.099
543.500	-12.713	0.099
543.600	0.339	0.100
543.700	-15.978	0.099
543.800	-13.751	0.099
543.900	-4.926	0.099
544.000	-12.075	0.099
544.100	10.357	0.099
544.200	-10.632	0.099
544.300	3.521	0.099
544.400	1.040	0.100
544.500	-9.883	0.099
544.600	-18.323	0.099
544.700	-9.280	0.099
544.800	-1.837	0.099
544.900	-15.834	0.099
545.000	-9.794	0.100
545.100	-6.442	0.099
545.200	-12.115	0.099
545.300	-13.701	0.099
545.400	-14.732	0.099
545.500	-12.865	0.099
545.600	-14.471	0.099
545.700	-6.497	0.099
545.800	-4.671	0.099
545.900	1.076	0.099
546.000	-24.382	0.099
546.100	-11.154	0.100
546.200	-19.450	0.099
546.300	-4.670	0.099
546.400	-9.949	0.099
546.500	-19.663	0.099
546.600	-25.492	0.099
546.700	-5.789	0.099
546.800	-14.169	0.099
546.900	-4.032	0.099
547.000	-9.265	0.099
547.100	-13.805	0.099
547.200	-4.221	0.099
547.300	-17.661	0.100
547.400	-13.657	0.099
547.500	-17.918	0.100
547.600	-23.690	0.099
547.700	-21.047	0.099
547.800	-16.380	0.099
547.900	-15.884	0.099
548.000	-6.371	0.100
548.100	-18.936	0.099
548.200	-20.509	0.099
548.300	-35.342	0.099
548.400	-15.668	0.099
548.500	1.313	0.099
548.600	-14.165	0.100
548.700	-14.165	0.100
548.800	-17.589	0.099
548.900	-18.581	0.099
549.000	-1.999	0.099
549.100	-7.120	0.099
549.200	-19.472	0.099
549.300	-18.174	0.100
549.400	-26.620	0.099
549.500	-20.576	0.099
549.600	-16.413	0.099
549.700	-15.896	0.099
549.800	-19.876	0.100
549.900	-6.103	0.099
550.000	-24.966	0.099
550.100	-20.942	0.100
550.200	-35.479	0.099
550.300	-25.883	0.099
550.400	-26.705	0.099
550.500	-15.833	0.099
550.600	-19.709	0.099
550.700	-5.092	0.099
550.800	-13.505	0.099
550.900	-26.080	0.100
551.000	-24.033	0.099
551.100	-12.419	0.100
551.200	-29.295	0.100
551.300	-33.123	0.100
551.400	-19.374	0.099
551.500	-2.671	0.099
551.600	-21.738	0.099
551.700	-10.324	0.100
551.800	-25.144	0.100
551.900	-29.770	0.099
552.000	-17.299	0.099
552.100	-28.231	0.100
552.200	-22.392	0.099
552.300	-8.767	0.099
552.400	-9.653	0.100
552.500	-26.085	0.099
552.600	-20.726	0.099
552.700	-19.288	0.099
552.800	-27.658	0.099
552.900	-27.334	0.100
553.000	-8.597	0.100
553.100	-23.223	0.100
553.200	-26.195	0.100
553.300	-20.034	0.099
553.400	-33.840	0.100
553.500	-26.600	0.100
553.600	-19.119	0.099
553.700	-15.139	0.099
553.800	-34.584	0.100
553.900	-35.912	0.099
554.000	-17.576	0.099
554.100	-22.552	0.099
554.200	-30.758	0.100
554.300	-52.201	0.099
554.400	-16.123	0.099
554.500	-18.335	0.100
554.600	-26.518	0.099
554.700	-14.834	0.099
554.800	-29.147	0.100
554.900	-25.771	0.100
555.000	-25.999	0.099
555.100	-7.194	0.099
555.200	-7.553	0.099
555.300	-18.961	0.099
555.400	-21.503	0.099
555.500	-36.033	0.099
555.600	-22.349	0.099
555.700	-28.680	0.099
555.800	-26.633	0.099
555.900	-25.770	0.099
556.000	-16.032	0.099
556.100	-11.261	0.100
556.200	-41.421	0.099
556.300	-10.516	0.100
556.400	-17.525	0.100
556.500	-29.688	0.099
556.600	-27.827	0.100
556.700	-18.966	0.099
556.800	-25.711	0.099
556.900	-31.253	0.099
557.000	-39.806	0.099
557.100	-33.272	0.099
557.200	-18.981	0.099
557.300	-23.932	0.099
557.400	-39.376	0.099
557.500	-36.490	0.099
557.600	-19.584	0.099
557.700	-28.887	0.099
557.800	-15.808	0.100
557.900	-25.961	0.099
558.000	-30.195	0.099
558.100	-13.805	0.099
558.200	-13.785	0.099
558.300	-39.782	0.099
558.400	-9.994	0.100
558.500	-24.979	0.099
558.600	-40.491	0.099
558.700	-10.687	0.099
558.800	-27.300	0.100
558.900	-25.242	0.100
559.000	-21.113	0.099
559.100	-17.633	0.099
559.200	-33.465	0.099
559.300	-37.843	0.099
559.400	-16.513	0.099
559.500	-32.835	0.099
559.600	-13.517	0.099
559.700	-27.620	0.099
559.800	-25.297	0.099
559.900	-12.904	0.099
560.000	-27.757	0.099
560.100	-16.600	0.099
560.200	-23.740	0.100
560.300	-21.062	0.099
560.400	-18.490	0.100
560.500	-31.256	0.100
560.600	-32.375	0.100
560.700	-33.632	0.099
560.800	-33.634	0.099
560.900	-24.736	0.100
561.000	-40.726	0.100
561.100	-19.101	0.100
561.200	-25.547	0.099
561.300	-26.866	0.100
561.400	-29.598	0.099
561.500	-9.728	0.100
561.600	-24.853	0.099
561.700	-28.214	0.100
561.800	-22.160	0.099
561.900	-14.668	0.099
562.000	-20.873	0.100
562.100	-30.012	0.100
562.200	-30.723	0.100
562.300	-19.484	0.100
562.400	-21.916	0.099
562.500	-43.002	0.099
562.600	-30.384	0.100
562.700	-35.282	0.100
562.800	-26.851	0.100
562.900	-34.531	0.099
563.000	-22.097	0.100
563.100	-39.686	0.100
563.200	-20.506	0.099
563.300	-18.725	0.100
563.400	-28.409	0.100
563.500	-28.086	0.099
563.600	-31.833	0.100
563.700	-25.531	0.100
563.800	-42.200	0.099
563.900	-20.273	0.099
564.000	-28.515	0.100
564.100	-22.763	0.099
564.200	-40.565	0.100
564.300	-20.138	0.099
564.400	-38.792	0.100
564.500	-26.406	0.099
564.600	-39.860	0.099
564.700	-32.054	0.099
564.800	-33.377	0.100
564.900	-22.484	0.099
565.000	-23.397	0.099
565.100	-24.186	0.099
565.200	-33.327	0.099
565.300	-16.564	0.100
565.400	-32.571	0.100
565.500	-28.011	0.099
565.600	-40.760	0.100
565.700	-21.891	0.100
565.800	-22.433	0.100
565.900	-34.914	0.099
566.000	-15.758	0.099
566.100	-28.729	0.100
566.200	-34.227	0.099
566.300	-48.515	0.100
566.400	-31.014	0.100
566.500	-20.609	0.100
566.600	-20.168	0.099
566.700	-31.946	0.099
566.800	-33.471	0.099
566.900	-41.380	0.100
567.000	-25.783	0.100
567.100	-11.803	0.100
567.200	-28.115	0.099
567.300	-31.352	0.099
567.400	-23.285	0.099
567.500	-8.300	0.100
567.600	-27.124	0.099
567.700	-20.794	0.100
567.800	-50.891	0.099
567.900	-11.821	0.099
568.000	-27.926	0.100
568.100	-34.944	0.100
568.200	-23.020	0.100
568.300	-17.864	0.100
568.400	-32.053	0.099
568.500	-40.847	0.100
568.600	-19.029	0.099
568.700	-40.790	0.099
568.800	-14.213	0.099
568.900	-17.701	0.099
569.000	-21.168	0.100
569.100	-28.804	0.099
569.200	-52.323	0.100
569.300	-21.266	0.099
569.400	-48.212	0.099
569.500	-31.161	0.100
569.600	-43.785	0.100
569.700	-34.413	0.099
569.800	-25.828	0.100
569.900	-29.474	0.100
570.000	-41.241	0.099
570.100	-39.701	0.099
570.200	-10.934	0.100
570.300	-27.204	0.100
570.400	-19.803	0.100
570.500	-31.542	0.099
570.600	-26.085	0.099
570.700	-28.648	0.099
570.800	-1.863	0.100
570.900	-48.546	0.100
571.000	-28.822	0.100
571.100	-31.322	0.100
571.200	-23.410	0.099
571.300	-32.883	0.100
571.400	-46.841	0.099
571.500	-19.019	0.100
571.600	-19.032	0.100
571.700	-12.953	0.100
571.800	-31.428	0.100
571.900	-28.418	0.100
572.000	-15.991	0.100
572.100	-46.385	0.100
572.200	-25.600	0.099
572.300	-20.955	0.100
572.400	-51.741	0.099
572.500	-41.157	0.099
572.600	-23.706	0.099
572.700	-31.913	0.099
572.800	-23.453	0.099
572.900	-11.438	0.099
573.000	-22.705	0.099
573.100	-44.253	0.099
573.200	-21.081	0.100
573.300	-32.964	0.099
573.400	-47.318	0.100
573.500	-15.836	0.100
573.600	-27.258	0.100
573.700	-46.577	0.099
573.800	-26.010	0.099
573.900	2.220	0.100
574.000	-26.595	0.099
574.100	-54.042	0.099
574.200	-14.126	0.099
574.300	-31.159	0.099
574.400	-27.767	0.099
574.500	-5.770	0.100
574.600	-32.688	0.099
574.700	-49.895	0.099
574.800	-40.111	0.099
574.900	-18.537	0.099
575.000	-42.550	0.099
575.100	-24.484	0.099
575.200	-15.699	0.099
575.300	-13.940	0.100
575.400	-34.050	0.099
575.500	-22.618	0.099
575.600	-41.310	0.099
575.700	-12.583	0.099
575.800	-8.977	0.099
575.900	-29.507	0.099
576.000	-36.479	0.100
576.100	-26.121	0.100
576.200	-21.350	0.100
576.300	-31.183	0.099
576.400	-31.085	0.099
576.500	-32.836	0.100
576.600	-37.258	0.100
576.700	-20.198	0.099
576.800	-18.967	0.099
576.900	-28.371	0.099
577.000	-28.525	0.100
577.100	-22.771	0.099
577.200	-19.445	0.099
577.300	-46.991	0.099
577.400	-27.831	0.100
577.500	-20.319	0.099
577.600	-21.901	0.100
577.700	-29.089	0.099
577.800	-37.333	0.100
577.900	-24.545	0.099
578.000	-36.161	0.099
578.100	-25.225	0.099
578.200	-10.906	0.099
578.300	-27.696	0.100
578.400	-29.440	0.099
578.500	-30.830	0.099
578.600	-15.199	0.099
578.700	-40.356	0.099
578.800	-31.282	0.099
578.900	-22.636	0.099
579.000	-39.637	0.099
579.100	-12.557	0.099
579.200	-24.412	0.099
579.300	-40.839	0.099
579.400	-19.386	0.099
579.500	-17.141	0.099
579.600	-22.348	0.099
579.700	-23.499	0.099
579.800	-24.368	0.099
579.900	-22.567	0.099
580.000	-22.822	0.099
580.100	-31.340	0.099
580.200	-27.417	0.099
580.300	-27.901	0.099
580.400	-27.163	0.099
580.500	-28.374	0.099
580.600	-36.682	0.099
580.700	-27.217	0.099
580.800	-15.031	0.099
580.900	-17.432	0.099
581.000	-49.365	0.099
581.100	-26.862	0.099
581.200	-34.833	0.099
581.300	-12.349	0.099
581.400	-35.852	0.099
581.500	-18.123	0.099
581.600	-18.550	0.099
581.700	-34.558	0.099
581.800	-37.417	0.099
581.900	-14.990	0.099
582.000	-38.802	0.099
582.100	-26.061	0.099
582.200	-22.356	0.099
582.300	-19.115	0.099
582.400	-36.190	0.100
582.500	-11.959	0.100
582.600	-30.055	0.100
582.700	-25.798	0.099
582.800	-23.833	0.100
582.900	-29.660	0.099
583.000	-6.045	0.099
583.100	-25.284	0.099
583.200	-22.275	0.099
583.300	-28.389	0.099
583.400	-23.278	0.099
583.500	-30.333	0.099
583.600	-41.417	0.099
583.700	-18.785	0.099
583.800	-21.293	0.099
583.900	-49.613	0.099
584.000	-19.465	0.099
584.100	-15.914	0.099
584.200	-57.823	0.099
584.300	-23.054	0.099
584.400	-40.862	0.099
584.500	-15.445	0.100
584.600	-12.092	0.100
584.700	-30.315	0.100
584.800	-47.840	0.099
584.900	-32.036	0.100
585.000	-22.995	0.099
585.100	-11.446	0.100
585.200	-37.527	0.099
585.300	-33.973	0.100
585.400	-23.921	0.100
585.500	-36.093	0.100
585.600	-27.799	0.100
585.700	-17.496	0.099
585.800	-23.244	0.100
585.900	-29.349	0.099
586.000	-44.442	0.099
586.100	-8.885	0.099
586.200	-21.183	0.099
586.300	-17.754	0.099
586.400	-6.199	0.099
586.500	-26.814	0.100
586.600	-15.170	0.100
586.700	-36.952	0.099
586.800	-41.875	0.100
586.900	-5.429	0.099
587.000	-13.178	0.100
587.100	-10.545	0.100
587.200	-43.718	0.099
587.300	-43.052	0.099
587.400	-34.970	0.099
587.500	-52.217	0.099
587.600	-18.098	0.100
587.700	-14.132	0.099
587.800	-36.857	0.099
587.900	-32.797	0.099
588.000	-29.821	0.100
588.100	-5.042	0.100
588.200	-30.081	0.100
588.300	-49.991	0.099
588.400	6.870	0.100
588.500	-22.398	0.099
588.600	-26.722	0.099
588.700	-29.992	0.099
588.800	-34.576	0.099
588.900	-16.833	0.099
589.000	-17.593	0.100
589.100	-39.245	0.099
589.200	-12.688	0.100
589.300	-32.877	0.100
589.400	-30.160	0.100
589.500	-31.717	0.099
589.600	-12.884	0.099
589.700	-28.702	0.100
589.800	-18.437	0.099
589.900	-19.328	0.100
590.000	-23.447	0.099
590.100	-14.698	0.100
590.200	-20.205	0.099
590.300	-26.462	0.100
590.400	-14.067	0.100
590.500	-36.719	0.100
590.600	-13.325	0.100
590.700	-11.414	0.099
590.800	-6.085	0.099
590.900	-34.159	0.099
591.000	-29.898	0.099
591.100	-31.425	0.100
591.200	-26.417	0.099
591.300	-11.698	0.100
591.400	-25.268	0.100
591.500	-32.408	0.099
591.600	-16.042	0.100
591.700	-20.760	0.099
591.800	-21.372	0.099
591.900	-29.087	0.100
592.000	-11.725	0.099
592.100	-20.551	0.100
592.200	-35.972	0.099
592.300	-6.784	0.100
592.400	-19.832	0.099
592.500	-29.117	0.099
592.600	-21.559	0.100
592.700	-18.819	0.099
592.800	-26.503	0.100
592.900	-14.167	0.100
593.000	-30.010	0.100
593.100	-29.934	0.099
593.200	-47.069	0.100
593.300	-11.839	0.100
593.400	-3.186	0.100
593.500	-31.190	0.099
593.600	-25.382	0.100
593.700	-20.177	0.099
593.800	-24.511	0.099
593.900	-35.276	0.100
594.000	-13.986	0.099
594.100	-31.256	0.100
594.200	-17.749	0.099
594.300	-28.883	0.100
594.400	2.723	0.100
594.500	-31.347	0.099
594.600	-35.648	0.099
594.700	-17.702	0.099
594.800	-17.638	0.099
594.900	-18.850	0.100
595.000	-22.285	0.100
595.100	-21.637	0.100
595.200	-31.881	0.099
595.300	-38.288	0.099
595.400	-27.665	0.100
595.500	-9.411	0.099
595.600	-7.102	0.099
595.700	-15.367	0.100
595.800	-42.977	0.099
595.900	-19.056	0.099
596.000	-17.791	0.100
596.100	-13.299	0.099
596.200	-14.009	0.099
596.300	-27.975	0.099
596.400	-23.725	0.099
596.500	-38.935	0.099
596.600	4.740	0.099
596.700	-19.881	0.100
596.800	-18.214	0.100
596.900	-6.423	0.099
597.000	-23.323	0.100
597.100	-27.688	0.099
597.200	-24.000	0.099
597.300	-15.360	0.099
597.400	-14.459	0.099
597.500	-29.602	0.099
597.600	-23.179	0.100
597.700	-24.594	0.099
597.800	-25.659	0.099
597.900	-7.408	0.099
598.000	-8.785	0.099
598.100	-25.858	0.099
598.200	-17.024	0.100
598.300	-19.578	0.099
598.400	-34.488	0.100
598.500	-25.569	0.100
598.600	-18.699	0.100
598.700	-15.162	0.100
598.800	-27.878	0.099
598.900	-17.466	0.099
599.000	-21.501	0.099
599.100	-15.362	0.099
599.200	-26.172	0.099
599.300	-35.839	0.099
599.400	-12.136	0.100
599.500	-25.680	0.099
599.600	-26.429	0.100
599.700	-23.983	0.100
599.800	-22.707	0.099
599.900	-17.407	0.100
600.000	-27.461	0.100
600.100	-14.974	0.100
600.200	-24.448	0.099
600.300	-22.741	0.099
600.400	-25.521	0.100
600.500	-11.910	0.099
600.600	-17.454	0.100
600.700	-15.481	0.099
600.800	-22.258	0.099
600.900	-33.315	0.100
601.000	-13.086	0.099
601.100	-29.124	0.099
601.200	-16.607	0.100
601.300	-35.635	0.099
601.400	-45.307	0.099
601.500	-13.162	0.099
601.600	-16.422	0.099
601.700	-22.414	0.099
601.800	-24.994	0.099
601.900	-12.644	0.099
602.000	-21.149	0.100
602.100	-42.245	0.099
602.200	-13.677	0.100
602.300	-38.594	0.100
602.400	-11.287	0.099
602.500	-10.613	0.100
602.600	-30.192	0.099
602.700	-19.725	0.099
602.800	9.367	0.099
602.900	-6.526	0.099
603.000	-31.187	0.099
603.100	-10.115	0.099
603.200	-14.331	0.099
603.300	-25.531	0.100
603.400	-26.120	0.100
603.500	-16.449	0.099
603.600	-28.875	0.100
603.700	-7.936	0.099
603.800	-18.693	0.100
603.900	-20.756	0.100
604.000	-21.501	0.099
604.100	-26.446	0.099
604.200	-23.821	0.099
604.300	-11.136	0.100
604.400	-13.928	0.099
604.500	-14.484	0.100
604.600	-6.272	0.099
604.700	-16.923	0.099
604.800	-16.731	0.099
604.900	-21.111	0.100
605.000	-14.391	0.100
605.100	-23.116	0.100
605.200	-33.250	0.099
605.300	-13.161	0.099
605.400	-35.100	0.100
605.500	-27.095	0.100
605.600	-24.468	0.099
605.700	-14.614	0.100
605.800	-15.318	0.099
605.900	-29.328	0.100
606.000	-15.582	0.099
606.100	-15.607	0.099
606.200	-20.430	0.099
606.300	-16.302	0.100
606.400	-19.840	0.100
606.500	-17.885	0.099
606.600	-18.837	0.100
606.700	-22.224	0.100
606.800	-19.924	0.099
606.900	-22.478	0.100
607.000	-20.562	0.099
607.100	-20.754	0.099
607.200	-23.742	0.100
607.300	-25.850	0.099
607.400	-14.085	0.099
607.500	-22.223	0.099
607.600	-21.417	0.100
607.700	-16.319	0.099
607.800	-28.136	0.099
607.900	-26.437	0.099
608.000	-16.449	0.099
608.100	-8.502	0.099
608.200	-16.918	0.100
608.300	-31.191	0.099
608.400	5.924	0.100
608.500	-9.000	0.099
608.600	-17.722	0.099
608.700	-8.137	0.099
608.800	-6.988	0.099
608.900	-16.701	0.100
609.000	-33.545	0.099
609.100	-6.097	0.100
609.200	5.326	0.100
609.300	-22.794	0.100
609.400	-27.555	0.099
609.500	-32.412	0.099
609.600	-19.986	0.099
609.700	2.636	0.100
609.800	-22.147	0.099
609.900	-31.599	0.100
610.000	-21.243	0.099
610.100	-31.009	0.100
610.200	-19.325	0.100
610.300	-27.237	0.100
610.400	-18.178	0.099
610.500	-13.687	0.099
610.600	-13.042	0.100
610.700	-8.267	0.100
610.800	-11.054	0.099
610.900	-31.215	0.100
611.000	-18.837	0.100
611.100	-17.518	0.100
611.200	-12.502	0.100
611.300	-23.653	0.100
611.400	-22.852	0.100
611.500	-15.355	0.099
611.600	-14.696	0.100
611.700	-35.883	0.100
611.800	-0.584	0.100
611.900	-4.686	0.100
612.000	-21.534	0.099
612.100	-12.177	0.100
612.200	-25.801	0.100
612.300	-25.246	0.100
612.400	-32.250	0.100
612.500	-20.144	0.099
612.600	-29.950	0.100
612.700	-20.001	0.100
612.800	1.244	0.100
612.900	-23.029	0.100
613.000	5.032	0.100
613.100	-36.152	0.100
613.200	-22.705	0.100
613.300	-10.616	0.100
613.400	-23.173	0.100
613.500	-21.271	0.100
613.600	-37.090	0.100
613.700	-16.876	0.100
613.800	-5.619	0.099
613.900	-27.452	0.100
614.000	-34.893	0.100
614.100	-11.506	0.099
614.200	-12.530	0.100
614.300	-17.324	0.099
614.400	-17.343	0.100
614.500	-38.074	0.100
614.600	-24.348	0.100
614.700	-5.384	0.100
614.800	-15.708	0.100
614.900	-3.391	0.100
615.000	-11.256	0.100
615.100	-14.730	0.100
615.200	-20.088	0.100
615.300	-24.221	0.100
615.400	-8.164	0.099
615.500	-8.924	0.100
615.600	-20.043	0.099
615.700	-29.908	0.100
615.800	-21.694	0.100
615.900	-16.205	0.099
616.000	-12.819	0.099
616.100	-10.543	0.100
616.200	-22.875	0.099
616.300	2.455	0.099
616.400	-32.879	0.099
616.500	-28.654	0.099
616.600	-9.158	0.100
616.700	-15.757	0.100
616.800	-31.541	0.100
616.900	-15.097	0.099
617.000	-9.896	0.100
617.100	-32.046	0.100
617.200	-33.346	0.100
617.300	-28.083	0.099
617.400	-30.680	0.099
617.500	-30.683	0.099
617.600	-11.727	0.100
617.700	1.641	0.099
617.800	-20.014	0.099
617.900	-13.913	0.099
618.000	-24.945	0.100
618.100	-23.900	0.100
618.200	-17.937	0.100
618.300	-7.182	0.099
618.400	-20.734	0.100
618.500	-15.757	0.099
618.600	-10.045	0.099
618.700	-13.459	0.100
618.800	-19.354	0.100
618.900	-22.174	0.100
619.000	-15.388	0.100
619.100	-16.180	0.100
619.200	-13.792	0.099
619.300	-27.077	0.100
619.400	-22.524	0.099
619.500	-18.697	0.099
619.600	-12.443	0.100
619.700	-20.372	0.100
619.800	-41.009	0.099
619.900	-8.374	0.099
620.000	-29.659	0.100
620.100	-17.975	0.099
620.200	-43.312	0.099
620.300	-7.245	0.099
620.400	-17.376	0.100
620.500	-16.607	0.099
620.600	-35.406	0.099
620.700	-0.819	0.100
620.800	-26.019	0.100
620.900	-26.277	0.099
621.000	5.833	0.099
621.100	-22.525	0.099
621.200	-25.668	0.099
621.300	-26.293	0.099
621.400	-20.654	0.100
621.500	-23.388	0.099
621.600	-23.976	0.099
621.700	-2.613	0.100
621.800	-18.319	0.099
621.900	-6.250	0.099
622.000	-25.494	0.100
622.100	-12.674	0.099
622.200	-22.837	0.099
622.300	-32.069	0.099
622.400	8.149	0.099
622.500	-14.079	0.099
622.600	-29.900	0.099
622.700	-11.063	0.100
622.800	-8.971	0.099
622.900	-26.153	0.100
623.000	-26.111	0.099
623.100	-11.853	0.099
623.200	-12.624	0.099
623.300	-18.330	0.099
623.400	-18.018	0.099
623.500	-25.697	0.099
623.600	-33.547	0.099
623.700	-27.147	0.099
623.800	-8.342	0.099
623.900	-8.398	0.099
624.000	-10.252	0.099
624.100	-5.715	0.099
624.200	-18.211	0.099
624.300	-11.506	0.100
624.400	-15.280	0.099
624.500	-20.822	0.100
624.600	1.306	0.099
624.700	-6.684	0.100
624.800	-5.047	0.100
624.900	-24.443	0.099
625.000	-36.181	0.099
625.100	-9.226	0.099
625.200	-15.206	0.099
625.300	-21.336	0.099
625.400	-24.974	0.099
625.500	-3.170	0.099
625.600	-15.344	0.100
625.700	-1.699	0.100
625.800	-40.209	0.099
625.900	-16.193	0.099
626.000	-19.174	0.099
626.100	-5.175	0.099
626.200	-1.477	0.099
626.300	-10.007	0.099
626.400	-11.489	0.099
626.500	-35.683	0.099
626.600	-20.292	0.099
626.700	-5.525	0.099
626.800	-17.432	0.099
626.900	-21.414	0.099
627.000	-18.944	0.099
627.100	-9.700	0.099
627.200	-7.388	0.099
627.300	-12.246	0.099
627.400	-20.002	0.099
627.500	-2.467	0.099
627.600	-18.691	0.099
627.700	-11.925	0.100
627.800	-20.092	0.099
627.900	-25.530	0.099
628.000	-29.469	0.099
628.100	-7.347	0.100
628.200	-23.067	0.099
628.300	-18.603	0.099
628.400	-11.254	0.099
628.500	-19.233	0.100
628.600	-9.410	0.099
628.700	-25.963	0.099
628.800	-7.181	0.099
628.900	-9.856	0.099
629.000	-13.447	0.099
629.100	-10.920	0.099
629.200	-23.255	0.099
629.300	-13.405	0.099
629.400	-14.866	0.099
629.500	-33.990	0.099
629.600	-4.493	0.099
629.700	-24.157	0.099
629.800	-3.496	0.099
629.900	-45.144	0.099
630.000	-3.319	0.099
630.100	-13.232	0.099
630.200	-21.524	0.099
630.300	-35.053	0.099
630.400	7.836	0.099
630.500	-11.280	0.099
630.600	-10.542	0.099
630.700	-20.306	0.100
630.800	-11.371	0.099
630.900	-13.700	0.099
631.000	5.498	0.099
631.100	-19.179	0.099
631.200	-5.799	0.099
631.300	1.669	0.099
631.400	0.673	0.099
631.500	20.388	0.099
631.600	5.521	0.099
631.700	11.242	0.100
631.800	28.602	0.099
631.900	19.694	0.099
632.000	19.918	0.100
632.100	0.428	0.099
632.200	29.108	0.100
632.300	17.296	0.100
632.400	15.029	0.099
632.500	18.884	0.099
632.600	5.315	0.099
632.700	34.512	0.099
632.800	9.379	0.099
632.900	43.448	0.099
633.000	13.710	0.099
633.100	38.933	0.099
633.200	27.144	0.099
633.300	31.264	0.100
633.400	26.065	0.100
633.500	14.217	0.099
633.600	22.244	0.099
633.700	20.379	0.100
633.800	19.555	0.099
633.900	27.430	0.100
634.000	11.944	0.099
634.100	12.781	0.099
634.200	27.912	0.100
634.300	8.849	0.099
634.400	24.451	0.099
634.500	39.637	0.099
634.600	23.727	0.099
634.700	26.484	0.100
634.800	24.266	0.100
634.900	5.192	0.099
635.000	47.837	0.100
635.100	10.429	0.100
635.200	4.586	0.100
635.300	33.534	0.099
635.400	37.496	0.099
635.500	27.162	0.099
635.600	-10.600	0.099
635.700	18.955	0.100
635.800	19.073	0.099
635.900	28.784	0.100
636.000	27.264	0.099
636.100	9.628	0.099
636.200	16.174	0.099
636.300	16.473	0.099
636.400	18.323	0.099
636.500	18.596	0.099
636.600	-0.827	0.099
636.700	23.700	0.099
636.800	41.253	0.100
636.900	-0.646	0.100
637.000	16.060	0.100
637.100	19.028	0.099
637.200	22.668	0.100
637.300	1.778	0.099
637.400	14.334	0.099
637.500	29.592	0.100
637.600	14.992	0.099
637.700	38.635	0.099
637.800	9.081	0.099
637.900	16.361	0.099
638.000	43.293	0.099
638.100	24.761	0.100
638.200	26.582	0.099
638.300	20.175	0.100
638.400	14.321	0.099
638.500	14.742	0.099
638.600	11.905	0.099
638.700	17.634	0.099
638.800	20.935	0.099
638.900	19.048	0.099
639.000	16.371	0.099
639.100	24.552	0.099
639.200	29.571	0.099
639.300	27.926	0.099
639.400	24.960	0.099
639.500	17.827	0.099
639.600	16.091	0.099
639.700	32.366	0.099
639.800	28.478	0.099
639.900	24.690	0.100
640.000	29.807	0.099
640.100	35.186	0.099
640.200	31.070	0.099
640.300	21.597	0.099
640.400	26.503	0.099
640.500	19.678	0.099
640.600	21.053	0.099
640.700	47.782	0.099
640.800	29.021	0.099
640.900	40.705	0.099
641.000	24.015	0.099
641.100	42.801	0.099
641.200	24.733	0.099
641.300	2.121	0.099
641.400	41.979	0.099
641.500	32.381	0.099
641.600	42.638	0.099
641.700	17.031	0.099
641.800	40.094	0.099
641.900	42.662	0.099
642.000	27.942	0.099
642.100	31.446	0.099
642.200	30.410	0.099
642.300	20.447	0.099
642.400	36.895	0.099
642.500	44.493	0.099
642.600	34.640	0.099
642.700	44.783	0.100
642.800	41.352	0.099
642.900	32.425	0.099
643.000	34.975	0.099
643.100	51.979	0.100
643.200	39.935	0.099
643.300	34.841	0.100
643.400	58.253	0.099
643.500	29.444	0.099
643.600	40.422	0.099
643.700	22.426	0.099
643.800	50.911	0.099
643.900	41.624	0.100
644.000	49.952	0.099
644.100	29.655	0.099
644.200	45.605	0.099
644.300	47.835	0.099
644.400	55.017	0.100
644.500	30.944	0.099
644.600	50.633	0.100
644.700	59.235	0.099
644.800	52.602	0.100
644.900	46.686	0.099
645.000	43.335	0.100
645.100	43.697	0.099
645.200	57.701	0.099
645.300	40.014	0.099
645.400	50.572	0.100
645.500	58.496	0.100
645.600	52.803	0.099
645.700	58.688	0.099
645.800	41.544	0.100
645.900	52.835	0.099
646.000	43.489	0.100
646.100	48.230	0.099
646.200	57.834	0.099
646.300	56.736	0.099
646.400	46.236	0.099
646.500	44.819	0.099
646.600	58.717	0.100
646.700	62.231	0.100
646.800	45.164	0.099
646.900	58.468	0.100
647.000	70.765	0.100
647.100	60.365	0.100
647.200	35.355	0.099
647.300	59.744	0.099
647.400	48.705	0.100
647.500	36.097	0.099
647.600	48.021	0.100
647.700	60.773	0.099
647.800	71.115	0.099
647.900	53.434	0.099
648.000	43.625	0.099
648.100	58.842	0.100
648.200	58.590	0.100
648.300	49.800	0.100
648.400	45.676	0.099
648.500	47.576	0.099
648.600	55.123	0.099
648.700	53.035	0.099
648.800	47.083	0.099
648.900	55.863	0.099
649.000	69.583	0.100
649.100	52.776	0.099
649.200	50.649	0.100
649.300	45.812	0.100
649.400	54.060	0.099
649.500	46.323	0.099
649.600	42.512	0.100
649.700	66.145	0.099
649.800	52.006	0.099
649.900	61.469	0.099
650.000	62.423	0.099
650.100	52.874	0.099
650.200	56.755	0.100
650.300	54.473	0.099
650.400	59.963	0.099
650.500	18.258	0.099
650.600	44.410	0.099
650.700	62.079	0.099
650.800	51.522	0.099
650.900	61.094	0.099
651.000	51.603	0.099
651.100	57.521	0.099
651.200	57.109	0.100
651.300	45.874	0.100
651.400	57.089	0.099
651.500	43.171	0.099
651.600	58.418	0.100
651.700	50.370	0.099
651.800	56.807	0.099
651.900	44.201	0.099
652.000	58.229	0.099
652.100	51.045	0.100
652.200	41.219	0.100
652.300	57.041	0.100
652.400	54.024	0.099
652.500	54.758	0.099
652.600	48.968	0.100
652.700	32.374	0.099
652.800	42.049	0.099
652.900	54.042	0.100
653.000	54.572	0.100
653.100	46.910	0.099
653.200	47.287	0.099
653.300	47.563	0.099
653.400	63.725	0.099
653.500	57.540	0.099
653.600	31.532	0.100
653.700	58.166	0.099
653.800	57.227	0.100
653.900	43.164	0.100
654.000	38.442	0.099
654.100	50.494	0.099
654.200	44.221	0.099
654.300	53.615	0.099
654.400	52.103	0.100
654.500	55.614	0.099
654.600	65.842	0.100
654.700	41.817	0.099
654.800	37.779	0.099
654.900	42.672	0.099
655.000	37.350	0.099
655.100	32.156	0.099
655.200	47.987	0.099
655.300	61.354	0.099
655.400	53.966	0.099
655.500	54.875	0.099
655.600	44.757	0.100
655.700	45.117	0.099
655.800	47.469	0.099
655.900	50.300	0.099
656.000	50.813	0.100
656.100	38.160	0.099
656.200	59.784	0.100
656.300	40.616	0.100
656.400	50.369	0.099
656.500	17.894	0.099
656.600	48.104	0.100
656.700	52.600	0.099
656.800	71.252	0.099
656.900	67.767	0.100
657.000	53.048	0.099
657.100	45.721	0.100
657.200	44.986	0.100
657.300	61.052	0.100
657.400	56.297	0.099
657.500	42.198	0.100
657.600	61.892	0.099
657.700	40.115	0.100
657.800	45.642	0.099
657.900	33.793	0.099
658.000	39.284	0.099
658.100	36.664	0.099
658.200	26.196	0.099
658.300	49.078	0.100
658.400	59.454	0.099
658.500	28.857	0.099
658.600	37.138	0.099
658.700	43.801	0.099
658.800	56.756	0.099
658.900	46.031	0.099
659.000	50.695	0.099
659.100	35.325	0.099
659.200	51.259	0.099
659.300	35.085	0.099
659.400	45.368	0.099
659.500	47.804	0.099
659.600	49.560	0.099
659.700	54.048	0.099
659.800	52.532	0.099
659.900	50.619	0.099
660.000	57.114	0.099
660.100	46.169	0.099
660.200	44.746	0.099
660.300	58.128	0.099
660.400	56.678	0.099
660.500	49.478	0.099
660.600	31.675	0.099
660.700	52.517	0.099
660.800	44.456	0.099
660.900	46.537	0.099
661.000	50.873	0.099
661.100	41.738	0.099
661.200	35.566	0.099
661.300	47.484	0.099
661.400	48.548	0.099
661.500	42.083	0.099
661.600	49.159	0.099
661.700	57.444	0.100
661.800	71.299	0.099
661.900	49.780	0.100
662.000	70.023	0.099
662.100	39.487	0.100
662.200	42.006	0.099
662.300	24.965	0.099
662.400	46.085	0.100
662.500	45.640	0.100
662.600	38.389	0.099
662.700	75.944	0.099
662.800	36.489	0.099
662.900	37.220	0.099
663.000	51.220	0.100
663.100	64.802	0.099
663.200	46.679	0.099
663.300	48.645	0.100
663.400	53.402	0.100
663.500	57.073	0.100
663.600	39.822	0.100
663.700	36.334	0.099
663.800	37.942	0.099
663.900	60.103	0.099
664.000	50.873	0.099
664.100	53.218	0.099
664.200	57.834	0.099
664.300	54.111	0.100
664.400	30.404	0.099
664.500	30.550	0.099
664.600	61.303	0.099
664.700	54.270	0.099
664.800	34.445	0.099
664.900	37.956	0.099
665.000	54.947	0.099
665.100	64.475	0.099
665.200	48.729	0.099
665.300	33.519	0.099
665.400	53.151	0.100
665.500	65.332	0.099
665.600	39.472	0.100
665.700	41.756	0.099
665.800	49.791	0.099
665.900	44.640	0.099
666.000	46.884	0.099
666.100	59.272	0.099
666.200	44.646	0.099
666.300	43.744	0.100
666.400	50.053	0.099
666.500	50.211	0.099
666.600	41.117	0.100
666.700	42.140	0.099
666.800	42.024	0.099
666.900	47.919	0.099
667.000	68.611	0.100
667.100	37.637	0.100
667.200	51.701	0.100
667.300	52.810	0.099
667.400	40.252	0.099
667.500	31.843	0.099
667.600	69.327	0.100
667.700	43.570	0.099
667.800	48.612	0.099
667.900	33.079	0.100
668.000	43.775	0.100
668.100	60.292	0.099
668.200	48.172	0.099
668.300	40.568	0.100
668.400	32.466	0.099
668.500	54.782	0.099
668.600	42.738	0.099
668.700	60.608	0.099
668.800	36.736	0.099
668.900	46.344	0.100
669.000	57.888	0.100
669.100	40.292	0.099
669.200	46.149	0.099
669.300	39.262	0.099
669.400	36.751	0.100
669.500	66.854	0.099
669.600	46.004	0.100
669.700	39.566	0.099
669.800	45.614	0.099
669.900	55.417	0.099
670.000	51.385	0.099
670.100	53.811	0.099
670.200	57.541	0.100
670.300	59.607	0.099
670.400	36.461	0.099
670.500	39.872	0.099
670.600	38.972	0.099
670.700	71.290	0.100
670.800	57.533	0.100
670.900	47.682	0.100
671.000	66.463	0.099
671.100	38.380	0.100
671.200	49.123	0.100
671.300	46.443	0.099
671.400	51.049	0.099
671.500	32.253	0.100
671.600	54.285	0.100
671.700	55.199	0.099
671.800	39.881	0.099
671.900	55.713	0.100
672.000	52.488	0.099
672.100	38.563	0.100
672.200	44.142	0.099
672.300	41.972	0.099
672.400	28.077	0.099
672.500	59.699	0.099
672.600	38.348	0.099
672.700	34.066	0.099
672.800	44.215	0.100
672.900	39.436	0.099
673.000	62.653	0.100
673.100	61.622	0.100
673.200	37.810	0.099
673.300	41.531	0.100
673.400	38.289	0.099
673.500	45.963	0.099
673.600	49.059	0.099
673.700	47.928	0.099
673.800	42.616	0.099
673.900	45.949	0.099
674.000	43.466	0.099
674.100	36.668	0.099
674.200	35.254	0.099
674.300	50.378	0.099
674.400	46.841	0.099
674.500	39.612	0.099
674.600	67.076	0.100
674.700	37.525	0.099
674.800	42.526	0.099
674.900	41.418	0.099
675.000	39.207	0.099
675.100	57.957	0.099
675.200	54.525	0.099
675.300	40.636	0.099
675.400	52.630	0.099
675.500	34.161	0.099
675.600	47.381	0.100
675.700	47.586	0.100
675.800	56.945	0.100
675.900	35.517	0.099
676.000	44.883	0.100
676.100	38.968	0.100
676.200	45.156	0.099
676.300	39.639	0.099
676.400	43.388	0.099
676.500	46.556	0.099
676.600	39.210	0.099
676.700	48.456	0.099
676.800	66.684	0.099
676.900	40.280	0.100
677.000	40.613	0.100
677.100	30.561	0.099
677.200	48.650	0.099
677.300	42.769	0.100
677.400	37.305	0.099
677.500	48.982	0.099
677.600	58.947	0.100
677.700	42.931	0.100
677.800	49.676	0.100
677.900	41.462	0.099
678.000	46.854	0.100
678.100	40.544	0.099
678.200	40.653	0.099
678.300	51.287	0.099
678.400	55.015	0.100
678.500	40.778	0.099
678.600	70.918	0.099
678.700	38.444	0.099
678.800	40.787	0.099
678.900	39.105	0.099
679.000	52.801	0.099
679.100	51.498	0.099
679.200	41.586	0.099
679.300	42.292	0.099
679.400	45.327	0.099
679.500	40.840	0.100
679.600	41.342	0.100
679.700	50.203	0.099
679.800	50.524	0.100
679.900	58.534	0.100
680.000	42.224	0.100
680.100	52.467	0.100
680.200	50.857	0.099
680.300	38.954	0.099
680.400	65.170	0.099
680.500	69.208	0.099
680.600	59.272	0.099
680.700	49.922	0.099
680.800	42.983	0.099
680.900	42.485	0.099
681.000	39.633	0.099
681.100	35.151	0.099
681.200	58.412	0.099
681.300	52.222	0.099
681.400	59.508	0.099
681.500	45.945	0.099
681.600	41.356	0.099
681.700	50.934	0.099
681.800	40.031	0.099
681.900	25.193	0.099
682.000	51.999	0.099
682.100	53.396	0.099
682.200	50.750	0.099
682.300	51.498	0.099
682.400	48.119	0.099
682.500	52.602	0.099
682.600	53.927	0.099
682.700	54.132	0.099
682.800	33.445	0.099
682.900	43.965	0.099
683.000	53.655	0.099
683.100	36.286	0.099
683.200	37.728	0.100
683.300	35.236	0.100
683.400	35.414	0.100
683.500	27.369	0.099
683.600	65.987	0.099
683.700	35.925	0.100
683.800	26.623	0.100
683.900	23.841	0.099
684.000	45.159	0.099
684.100	62.115	0.100
684.200	47.042	0.099
684.300	51.569	0.100
684.400	41.887	0.100
684.500	52.808	0.099
684.600	45.085	0.099
684.700	20.847	0.099
684.800	38.954	0.099
684.900	57.501	0.099
685.000	34.741	0.099
685.100	22.179	0.099
685.200	51.387	0.099
685.300	33.793	0.099
685.400	33.831	0.099
685.500	36.238	0.099
685.600	59.899	0.099
685.700	33.672	0.099
685.800	53.831	0.099
685.900	27.414	0.099
686.000	43.107	0.100
686.100	53.326	0.100
686.200	46.264	0.100
686.300	32.222	0.099
686.400	32.296	0.099
686.500	33.920	0.099
686.600	43.841	0.099
686.700	38.710	0.099
686.800	44.190	0.099
686.900	45.962	0.099
687.000	37.544	0.100
687.100	35.480	0.100
687.200	49.846	0.100
687.300	24.084	0.099
687.400	42.939	0.099
687.500	60.482	0.100
687.600	44.313	0.100
687.700	28.228	0.099
687.800	43.106	0.100
687.900	36.137	0.099
688.000	30.503	0.099
688.100	31.724	0.099
688.200	51.470	0.099
688.300	54.095	0.099
688.400	52.148	0.099
688.500	54.956	0.100
688.600	35.332	0.099
688.700	36.922	0.099
688.800	49.586	0.099
688.900	37.355	0.099
689.000	56.761	0.099
689.100	39.280	0.100
689.200	42.562	0.099
689.300	34.858	0.100
689.400	42.004	0.099
689.500	39.919	0.099
689.600	34.740	0.099
689.700	41.698	0.100
689.800	29.801	0.099
689.900	21.291	0.099
690.000	64.387	0.099
690.100	31.665	0.099
690.200	47.323	0.099
690.300	58.875	0.099
690.400	52.128	0.100
690.500	45.028	0.100
690.600	45.304	0.099
690.700	66.460	0.099
690.800	30.713	0.100
690.900	34.033	0.099
691.000	37.088	0.100
691.100	13.809	0.099
691.200	17.335	0.099
691.300	26.874	0.099
691.400	2.438	0.099
691.500	-8.979	0.100
691.600	11.521	0.100
691.700	15.470	0.100
691.800	-8.961	0.099
691.900	-12.871	0.099
692.000	-1.732	0.099
692.100	20.807	0.100
692.200	-9.007	0.099
692.300	6.227	0.099
692.400	-2.041	0.099
692.500	-7.624	0.099
692.600	2.625	0.100
692.700	-21.297	0.099
692.800	-4.419	0.099
692.900	0.024	0.099
693.000	14.909	0.099
693.100	-20.979	0.099
693.200	-49.338	0.099
693.300	-6.287	0.099
693.400	-9.568	0.099
693.500	-5.228	0.099
693.600	-6.946	0.099
693.700	-10.939	0.099
693.800	-16.048	0.099
693.900	-24.096	0.099
694.000	-0.890	0.099
694.100	-19.449	0.099
694.200	-0.815	0.099
694.300	1.969	0.099
694.400	-13.140	0.099
694.500	-16.187	0.100
694.600	5.446	0.099
694.700	-11.357	0.099
694.800	-22.825	0.099
694.900	9.701	0.099
695.000	-22.518	0.099
695.100	-9.971	0.099
695.200	-6.831	0.099
695.300	-19.045	0.099
695.400	-8.375	0.099
695.500	-14.409	0.099
695.600	-21.083	0.099
695.700	-18.322	0.099
695.800	-6.114	0.099
695.900	-17.950	0.099
696.000	-9.119	0.099
696.100	-21.277	0.099
696.200	-17.997	0.099
696.300	-7.270	0.099
696.400	-15.523	0.099
696.500	-4.814	0.099
696.600	-20.306	0.099
696.700	-21.498	0.099
696.800	-26.725	0.099
696.900	-9.912	0.099
697.000	3.884	0.099
697.100	-15.028	0.099
697.200	-3.612	0.099
697.300	-21.046	0.099
697.400	-22.981	0.099
697.500	-4.918	0.099
697.600	-26.092	0.099
697.700	-31.099	0.099
697.800	-24.146	0.100
697.900	-20.707	0.099
698.000	-14.011	0.099
698.100	-24.473	0.099
698.200	-19.677	0.099
698.300	-10.397	0.099
698.400	-24.777	0.099
698.500	-17.550	0.099
698.600	-17.377	0.099
698.700	-4.955	0.099
698.800	-10.203	0.100
698.900	-22.636	0.100
699.000	-18.815	0.099
699.100	-18.591	0.099
699.200	-18.272	0.100
699.300	-13.360	0.099
699.400	-14.176	0.099
699.500	-36.811	0.099
699.600	-8.846	0.099
699.700	-12.325	0.099
699.800	-30.662	0.100
699.900	-21.056	0.099
700.000	-11.743	0.099
700.100	-11.272	0.099
700.200	-12.629	0.099
700.300	-27.036	0.099
700.400	-15.997	0.099
700.500	-32.557	0.099
700.600	-16.059	0.099
700.700	-17.932	0.099
700.800	-14.473	0.099
700.900	-27.092	0.099
701.000	-11.409	0.100
701.100	-26.643	0.099
701.200	-21.081	0.099
701.300	-22.063	0.100
701.400	-28.378	0.099
701.500	-13.741	0.099
701.600	-12.389	0.099
701.700	-22.891	0.099
701.800	-13.943	0.099
701.900	-12.675	0.099
702.000	-43.981	0.099
702.100	8.582	0.099
702.200	-22.347	0.099
702.300	-19.960	0.099
702.400	-34.204	0.100
702.500	-23.507	0.099
702.600	-19.966	0.099
702.700	-24.726	0.099
702.800	-22.167	0.099
702.900	-24.207	0.099
703.000	-34.852	0.099
703.100	-18.018	0.100
703.200	-17.730	0.099
703.300	-21.779	0.100
703.400	-42.226	0.099
703.500	-33.668	0.099
703.600	-14.539	0.099
703.700	-22.962	0.099
703.800	-29.835	0.099
703.900	-7.433	0.100
704.000	-23.656	0.100
704.100	-47.457	0.099
704.200	-28.929	0.099
704.300	-15.727	0.099
704.400	-28.375	0.099
704.500	-13.852	0.100
704.600	-24.911	0.099
704.700	-19.359	0.099
704.800	-38.276	0.099
704.900	-26.187	0.099
705.000	-26.459	0.100
705.100	-32.095	0.099
705.200	-20.446	0.099
705.300	-18.691	0.100
705.400	-39.787	0.099
705.500	-7.901	0.100
705.600	-17.801	0.099
705.700	-31.625	0.099
705.800	-43.234	0.099
705.900	-29.158	0.100
706.000	-9.911	0.099
706.100	-29.520	0.099
706.200	1.278	0.100
706.300	-33.361	0.100
706.400	-30.403	0.099
706.500	-33.968	0.099
706.600	-33.486	0.099
706.700	-36.915	0.099
706.800	-22.864	0.099
706.900	-30.051	0.099
707.000	-25.798	0.100
707.100	-14.669	0.100
707.200	-20.125	0.099
707.300	-36.626	0.099
707.400	-27.366	0.099
707.500	-45.641	0.099
707.600	-20.015	0.099
707.700	-11.629	0.100
707.800	-21.436	0.099
707.900	-37.016	0.099
708.000	-33.652	0.099
708.100	-30.161	0.099
708.200	-25.867	0.099
708.300	-22.850	0.099
708.400	-13.828	0.100
708.500	-23.812	0.100
708.600	-30.895	0.100
708.700	-6.070	0.099
708.800	-27.243	0.100
708.900	-30.097	0.100
709.000	-30.179	0.099
709.100	-36.384	0.099
709.200	-23.912	0.100
709.300	-13.928	0.100
709.400	-23.079	0.099
709.500	-18.410	0.099
709.600	-30.211	0.100
709.700	-22.380	0.099
709.800	-34.341	0.099
709.900	-33.625	0.099
710.000	-26.355	0.100
710.100	-19.778	0.099
710.200	-31.294	0.099
710.300	-10.970	0.099
710.400	-17.862	0.099
710.500	-30.905	0.099
710.600	-31.037	0.100
710.700	-32.113	0.099
710.800	-20.320	0.099
710.900	-40.016	0.100
711.000	-8.834	0.099
711.100	-22.066	0.100
711.200	-51.063	0.099
711.300	-34.662	0.100
711.400	-40.037	0.100
711.500	-15.124	0.099
711.600	-24.552	0.100
711.700	-27.465	0.100
711.800	-37.287	0.100
711.900	-18.225	0.100
712.000	-40.822	0.099
712.100	-31.663	0.099
712.200	-15.079	0.099
712.300	-20.002	0.100
712.400	-36.654	0.100
712.500	-22.800	0.100
712.600	-14.451	0.099
712.700	-26.840	0.099
712.800	-21.888	0.100
712.900	-21.426	0.099
713.000	-27.284	0.099
713.100	-24.620	0.099
713.200	-22.394	0.099
713.300	-27.454	0.099
713.400	-30.750	0.099
713.500	-43.704	0.099
713.600	-24.054	0.099
713.700	-33.214	0.099
713.800	-42.908	0.099
713.900	-28.373	0.099
714.000	-23.807	0.100
714.100	-31.131	0.099
714.200	-23.065	0.099
714.300	-21.903	0.099
714.400	-25.136	0.099
714.500	-26.814	0.099
714.600	-28.144	0.099
714.700	-22.949	0.099
714.800	-35.128	0.100
714.900	-12.543	0.099
715.000	-38.848	0.099
715.100	-38.984	0.099
715.200	-47.061	0.099
715.300	-20.881	0.099
715.400	-24.176	0.099
715.500	-41.862	0.099
715.600	-31.613	0.099
715.700	-30.658	0.099
715.800	-24.386	0.099
715.900	-52.066	0.099
716.000	-17.964	0.099
716.100	-30.692	0.099
716.200	-26.187	0.100
716.300	-32.614	0.099
716.400	-36.631	0.099
716.500	-40.823	0.100
716.600	-9.709	0.099
716.700	-13.822	0.099
716.800	-26.516	0.099
716.900	-24.775	0.099
717.000	-38.545	0.099
717.100	-18.406	0.099
717.200	-29.525	0.099
717.300	-6.258	0.099
717.400	-41.045	0.099
717.500	-31.461	0.099
717.600	-24.358	0.099
717.700	-38.255	0.100
717.800	-28.505	0.099
717.900	-40.485	0.100
718.000	-31.061	0.100
718.100	-36.976	0.100
718.200	-17.067	0.100
718.300	-38.669	0.099
718.400	-23.213	0.099
718.500	-39.206	0.100
718.600	-34.136	0.099
718.700	-17.545	0.099
718.800	-40.712	0.100
718.900	-15.014	0.100
719.000	-25.211	0.100
719.100	-31.081	0.099
719.200	-13.388	0.099
719.300	-43.376	0.099
719.400	-31.590	0.100
719.500	-33.997	0.099
719.600	-46.105	0.099
719.700	-36.766	0.100
719.800	-33.027	0.100
719.900	-18.979	0.099
720.000	-28.048	0.100
720.100	-11.811	0.100
720.200	-34.812	0.099
720.300	-28.013	0.100
720.400	-32.027	0.100
720.500	-31.478	0.099
720.600	-19.649	0.100
720.700	-34.755	0.099
720.800	-26.455	0.100
720.900	-30.705	0.100
721.000	-35.584	0.100
721.100	-44.889	0.099
721.200	-40.317	0.099
721.300	-13.304	0.100
721.400	-21.254	0.099
721.500	-31.193	0.099
721.600	-42.409	0.099
721.700	-25.514	0.100
721.800	-32.129	0.099
721.900	-21.748	0.100
722.000	-17.727	0.100
722.100	-41.098	0.100
722.200	-30.491	0.100
722.300	-22.143	0.099
722.400	-23.975	0.099
722.500	-45.152	0.099
722.600	-19.679	0.099
722.700	-28.508	0.100
722.800	-26.552	0.100
722.900	-30.413	0.100
723.000	-22.124	0.100
723.100	-47.668	0.099
723.200	-34.934	0.100
723.300	-32.371	0.100
723.400	-26.982	0.099
723.500	-23.319	0.099
723.600	-29.333	0.100
723.700	-54.130	0.100
723.800	-5.671	0.100
723.900	-29.343	0.099
724.000	-44.739	0.100
724.100	-15.560	0.099
724.200	-31.893	0.100
724.300	-25.643	0.099
724.400	-43.141	0.099
724.500	-13.232	0.100
724.600	-31.106	0.100
724.700	-27.415	0.100
724.800	-12.109	0.099
724.900	-37.617	0.100
725.000	-26.371	0.099
725.100	-37.288	0.099
725.200	-40.228	0.099
725.300	-18.302	0.099
725.400	-24.539	0.100
725.500	-46.723	0.099
725.600	-25.235	0.099
725.700	-39.469	0.100
725.800	-27.586	0.100
725.900	-20.479	0.099
726.000	-32.483	0.099
726.100	-13.695	0.100
726.200	-25.236	0.099
726.300	-30.121	0.099
726.400	-32.365	0.100
726.500	-24.544	0.100
726.600	-24.191	0.100
726.700	-37.547	0.099
726.800	-33.000	0.099
726.900	-29.444	0.099
727.000	-35.241	0.099
727.100	-48.511	0.099
727.200	-38.819	0.099
727.300	-17.015	0.099
727.400	-32.652	0.099
727.500	-32.248	0.099
727.600	-20.629	0.099
727.700	-39.779	0.100
727.800	-34.138	0.099
727.900	-9.601	0.100
728.000	-9.875	0.099
728.100	-39.844	0.099
728.200	-20.385	0.099
728.300	-34.742	0.100
728.400	-16.131	0.099
728.500	-32.648	0.099
728.600	-25.316	0.099
728.700	-49.123	0.099
728.800	-25.251	0.100
728.900	-16.171	0.100
729.000	-29.338	0.100
729.100	-40.133	0.099
729.200	-31.272	0.099
729.300	-33.429	0.099
729.400	-7.303	0.099
729.500	-21.810	0.100
729.600	-23.124	0.100
729.700	-18.250	0.100
729.800	-25.313	0.100
729.900	-32.314	0.100
730.000	-14.489	0.099
730.100	-42.643	0.099
730.200	-35.468	0.099
730.300	-17.786	0.099
730.400	-15.120	0.099
730.500	-14.663	0.100
730.600	-26.380	0.099
730.700	-19.924	0.099
730.800	-41.180	0.099
730.900	-33.349	0.099
731.000	-45.860	0.099
731.100	-10.461	0.099
731.200	-49.386	0.099
731.300	-21.542	0.099
731.400	-36.809	0.100
731.500	-17.820	0.100
731.600	-21.712	0.100
731.700	-26.972	0.099
731.800	-31.396	0.100
731.900	-30.070	0.099
732.000	-16.730	0.099
732.100	-30.319	0.099
732.200	-37.996	0.100
732.300	-32.328	0.099
732.400	-11.139	0.100
732.500	-32.924	0.099
732.600	-41.333	0.099
732.700	-36.669	0.099
732.800	-29.064	0.099
732.900	-33.149	0.099
733.000	-20.898	0.099
733.100	-24.994	0.099
733.200	-14.625	0.100
733.300	-20.831	0.099
733.400	-42.722	0.099
733.500	3.395	0.099
733.600	-22.806	0.099
733.700	-28.450	0.099
733.800	-33.455	0.100
733.900	-44.568	0.099
734.000	-13.311	0.099
734.100	1.223	0.099
734.200	-28.186	0.099
734.300	-16.618	0.099
734.400	-32.392	0.099
734.500	-14.985	0.099
734.600	-21.691	0.100
734.700	-30.709	0.100
734.800	-34.419	0.099
734.900	-24.163	0.100
735.000	-24.908	0.100
735.100	-26.523	0.099
735.200	-19.349	0.099
735.300	-37.590	0.099
735.400	-12.791	0.099
735.500	-40.721	0.099
735.600	-4.255	0.099
735.700	-27.839	0.099
735.800	-21.824	0.100
735.900	-38.228	0.099
736.000	-25.482	0.099
736.100	-2.362	0.100
736.200	-37.673	0.100
736.300	-30.681	0.099
736.400	-22.954	0.099
736.500	-25.127	0.100
736.600	-35.681	0.099
736.700	-19.486	0.100
736.800	-8.418	0.099
736.900	-24.858	0.099
737.000	-43.905	0.099
737.100	-15.936	0.099
737.200	-39.327	0.099
737.300	-11.365	0.099
737.400	-50.751	0.099
737.500	-28.071	0.100
737.600	-20.678	0.099
737.700	-31.079	0.099
737.800	-20.439	0.099
737.900	-27.956	0.100
738.000	-21.317	0.099
738.100	-39.506	0.099
738.200	-8.549	0.099
738.300	-23.272	0.099
738.400	-31.315	0.100
738.500	-27.837	0.100
738.600	-37.360	0.099
738.700	-8.111	0.100
738.800	-28.352	0.100
738.900	-21.165	0.100
739.000	-6.577	0.100
739.100	-51.943	0.099
739.200	-3.238	0.100
739.300	-30.049	0.099
739.400	-5.702	0.100
739.500	-11.678	0.099
739.600	-24.135	0.099
739.700	-31.126	0.100
739.800	-28.551	0.099
739.900	-18.864	0.099
740.000	-24.150	0.100
740.100	-22.020	0.100
740.200	-23.477	0.100
740.300	-21.004	0.099
740.400	-20.073	0.099
740.500	-39.398	0.100
740.600	-29.191	0.100
740.700	-26.471	0.100
740.800	-8.825	0.099
740.900	-18.268	0.099
741.000	-33.384	0.099
741.100	-27.935	0.100
741.200	-27.017	0.099
741.300	-26.338	0.099
741.400	-11.431	0.099
741.500	-30.194	0.100
741.600	-22.034	0.099
741.700	-24.872	0.099
741.800	-30.763	0.099
741.900	-20.794	0.100
742.000	-46.736	0.099
742.100	-11.031	0.099
742.200	-13.004	0.100
742.300	-10.994	0.099
742.400	-35.585	0.099
742.500	-17.996	0.100
742.600	-20.559	0.100
742.700	-38.467	0.099
742.800	-21.712	0.099
742.900	-16.612	0.099
743.000	-17.682	0.100
743.100	-26.672	0.100
743.200	-12.644	0.099
743.300	-31.290	0.099
743.400	-29.057	0.099
743.500	-41.325	0.099
743.600	-6.959	0.100
743.700	-24.838	0.100
743.800	-18.784	0.100
743.900	-28.830	0.099
744.000	-19.878	0.099
744.100	-20.905	0.099
744.200	-12.776	0.100
744.300	-17.758	0.100
744.400	-3.636	0.099
744.500	-23.881	0.099
744.600	-35.336	0.100
744.700	-19.092	0.099
744.800	-12.620	0.099
744.900	-22.773	0.100
745.000	-26.879	0.100
745.100	-27.910	0.099
745.200	-15.099	0.099
745.300	-22.614	0.099
745.400	-18.093	0.100
745.500	-30.550	0.099
745.600	-25.733	0.099
745.700	-34.648	0.099
745.800	-16.006	0.100
745.900	-25.071	0.100
746.000	-9.549	0.099
746.100	-21.537	0.100
746.200	-36.021	0.100
746.300	-21.621	0.100
746.400	-19.076	0.099
746.500	-19.145	0.099
746.600	-25.114	0.099
746.700	-22.148	0.100
746.800	-24.189	0.099
746.900	-24.772	0.099
747.000	-41.064	0.099
747.100	-34.032	0.099
747.200	-17.539	0.099
747.300	-0.826	0.100
747.400	-23.695	0.099
747.500	-7.597	0.099
747.600	-17.117	0.099
747.700	-31.276	0.099
747.800	-40.157	0.099
747.900	-9.797	0.099
748.000	-8.468	0.100
748.100	-18.466	0.099
748.200	-19.082	0.099
748.300	-18.345	0.099
748.400	-43.397	0.100
748.500	-13.131	0.099
748.600	-32.986	0.100
748.700	-18.655	0.099
748.800	-16.947	0.099
748.900	-22.201	0.100
749.000	-12.390	0.099
749.100	-11.781	0.100
749.200	-34.133	0.099
749.300	-17.708	0.099
749.400	-12.764	0.099
749.500	-31.577	0.099
749.600	-32.998	0.099
749.700	-31.145	0.099
749.800	-7.751	0.100
749.900	-10.374	0.099
750.000	-25.302	0.100
750.100	-9.960	0.099
750.200	-55.214	0.099
750.300	-18.513	0.099
750.400	-20.469	0.099
750.500	-2.112	0.099
750.600	-17.293	0.099
750.700	-16.303	0.099
750.800	-29.173	0.100
750.900	-19.579	0.099
751.000	-21.050	0.099
751.100	-17.995	0.099
751.200	-31.296	0.100
751.300	-7.516	0.099
751.400	-24.600	0.100
751.500	-17.037	0.100
751.600	-26.631	0.100
751.700	-20.999	0.099
751.800	-32.284	0.099
751.900	-15.474	0.100
752.000	-12.522	0.099
752.100	-7.331	0.100
752.200	-26.812	0.099
752.300	-21.609	0.099
752.400	-40.227	0.099
752.500	-21.242	0.100
752.600	-25.600	0.099
752.700	-21.998	0.099
752.800	-18.013	0.100
752.900	-25.240	0.099
753.000	-39.045	0.100
753.100	-7.777	0.099
753.200	0.315	0.099
753.300	-13.055	0.099
753.400	-32.475	0.099
753.500	-23.330	0.099
753.600	-26.075	0.099
753.700	-32.948	0.099
753.800	-23.136	0.100
753.900	-17.023	0.099
754.000	-32.194	0.099
754.100	-3.178	0.099
754.200	-32.936	0.099
754.300	6.458	0.099
754.400	-23.541	0.100
754.500	-18.872	0.099
754.600	-20.722	0.099
754.700	-16.246	0.099
754.800	-8.323	0.100
754.900	-23.272	0.100
755.000	-19.752	0.099
755.100	-14.077	0.099
755.200	-40.948	0.099
755.300	-12.295	0.099
755.400	-7.080	0.099
755.500	-19.256	0.099
755.600	-16.771	0.100
755.700	-24.180	0.099
755.800	-8.673	0.099
755.900	-29.987	0.099
756.000	-19.144	0.099
756.100	-15.622	0.100
756.200	-18.490	0.099
756.300	-14.713	0.099
756.400	-36.472	0.099
756.500	-24.578	0.099
756.600	-31.567	0.099
756.700	-29.561	0.099
756.800	-20.037	0.100
756.900	-28.838	0.100
757.000	-19.108	0.099
757.100	-11.743	0.099
757.200	-13.538	0.100
757.300	-17.881	0.099
757.400	-20.559	0.099
757.500	-6.307	0.100
757.600	-33.771	0.099
757.700	-23.829	0.100
757.800	-9.738	0.099
757.900	-22.848	0.099
758.000	-29.527	0.099
758.100	-26.358	0.099
758.200	-30.490	0.100
758.300	-35.216	0.099
758.400	-10.363	0.100
758.500	-4.368	0.100
758.600	-30.670	0.099
758.700	-6.995	0.100
758.800	-20.231	0.099
758.900	-20.623	0.100
759.000	-4.136	0.100
759.100	-13.550	0.100
759.200	-20.459	0.100
759.300	-20.434	0.099
759.400	-28.331	0.099
759.500	-5.400	0.100
759.600	-13.674	0.099
759.700	-30.627	0.099
759.800	-18.724	0.099
759.900	-21.170	0.099
760.000	-13.382	0.099
760.100	-15.006	0.099
760.200	-13.915	0.099
760.300	-23.334	0.100
760.400	-26.267	0.100
760.500	-9.152	0.100
760.600	-33.646	0.099
760.700	-11.177	0.099
760.800	-13.965	0.099
760.900	-17.845	0.099
761.000	-26.307	0.099
761.100	-33.586	0.099
761.200	-5.721	0.099
761.300	-11.040	0.100
761.400	-13.199	0.099
761.500	-13.789	0.100
761.600	-22.587	0.099
761.700	-22.553	0.099
761.800	-19.245	0.099
761.900	-18.464	0.099
762.000	-11.713	0.099
762.100	-13.881	0.099
762.200	-24.318	0.100
762.300	-24.845	0.099
762.400	-13.710	0.099
762.500	-23.364	0.099
762.600	-19.585	0.099
762.700	-18.602	0.099
762.800	-5.880	0.100
762.900	-18.459	0.100
763.000	-26.478	0.099
763.100	-2.291	0.099
763.200	-12.671	0.099
763.300	-40.868	0.099
763.400	-33.239	0.099
763.500	-21.333	0.099
763.600	-17.291	0.100
763.700	-9.752	0.099
763.800	-14.731	0.100
763.900	-36.374	0.099
764.000	-12.920	0.099
764.100	-21.943	0.099
764.200	-18.864	0.099
764.300	-22.007	0.100
764.400	11.279	0.099
764.500	-48.903	0.099
764.600	-19.060	0.099
764.700	-17.357	0.099
764.800	-17.285	0.099
764.900	-53.918	0.100
765.000	-26.210	0.100
765.100	-20.840	0.099
765.200	-15.880	0.099
765.300	-12.813	0.099
765.400	-2.212	0.100
765.500	-12.683	0.099
765.600	-20.298	0.099
765.700	-18.399	0.100
765.800	-11.701	0.100
765.900	-15.720	0.099
766.000	-8.381	0.100
766.100	-26.570	0.099
766.200	-27.678	0.099
766.300	-20.799	0.099
766.400	-25.544	0.099
766.500	-17.564	0.099
766.600	-21.635	0.099
766.700	-4.475	0.100
766.800	-10.765	0.099
766.900	-29.169	0.100
767.000	-17.099	0.099
767.100	-18.191	0.099
767.200	-11.449	0.099
767.300	-13.368	0.099
767.400	-14.233	0.100
767.500	-20.766	0.099
767.600	-16.715	0.099
767.700	-16.660	0.099
767.800	-17.918	0.099
767.900	-18.798	0.100
768.000	-6.937	0.099
768.100	-23.506	0.099
768.200	-8.996	0.099
768.300	-3.978	0.099
768.400	-29.362	0.099
768.500	-21.843	0.099
768.600	-16.414	0.099
768.700	-4.416	0.099
768.800	-16.625	0.099
768.900	-19.694	0.099
769.000	-22.339	0.100
769.100	-10.004	0.099
769.200	-8.592	0.099
769.300	-32.958	0.099
769.400	-36.201	0.099
769.500	-2.783	0.099
769.600	-26.331	0.099
769.700	-15.096	0.099
769.800	-16.789	0.100
769.900	-29.257	0.099
770.000	-7.720	0.100
770.100	-3.516	0.099
770.200	-17.305	0.099
770.300	-13.478	0.099
770.400	-52.588	0.099
770.500	-23.298	0.099
770.600	-30.271	0.099
770.700	-2.593	0.099
770.800	3.148	0.099
770.900	-14.626	0.099
771.000	-20.048	0.099
771.100	-17.038	0.099
771.200	-22.284	0.099
771.300	0.382	0.100
771.400	-13.577	0.100
771.500	-21.440	0.099
771.600	-8.722	0.099
771.700	-32.962	0.099
771.800	-1.684	0.099
771.900	-17.538	0.099
772.000	-55.844	0.099
772.100	-14.862	0.099
772.200	-12.669	0.099
772.300	-12.981	0.099
772.400	-20.970	0.099
772.500	-15.512	0.099
772.600	-24.964	0.099
772.700	-18.014	0.099
772.800	-32.950	0.099
772.900	-5.393	0.099
773.000	-23.100	0.099
773.100	-18.099	0.099
773.200	-7.261	0.099
773.300	-17.472	0.099
773.400	-10.603	0.099
773.500	-51.142	0.099
773.600	-13.053	0.099
773.700	-14.359	0.099
773.800	-22.676	0.099
773.900	-13.311	0.099
774.000	-15.096	0.099
774.100	-13.929	0.099
774.200	-35.196	0.099
774.300	-4.092	0.099
774.400	-17.351	0.099
774.500	-13.074	0.099
774.600	-11.838	0.099
774.700	-29.049	0.099
774.800	-12.465	0.099
774.900	-24.690	0.099
775.000	-18.263	0.099
775.100	-29.369	0.099
775.200	-8.759	0.099
775.300	0.097	0.099
775.400	-32.427	0.099
775.500	-17.642	0.099
775.600	-27.940	0.099
775.700	-9.386	0.099
775.800	-14.533	0.099
775.900	-17.867	0.099
776.000	-23.450	0.099
776.100	1.468	0.099
776.200	-23.444	0.099
776.300	-20.028	0.099
776.400	-33.102	0.099
776.500	-10.194	0.099
776.600	-17.764	0.099
776.700	-18.189	0.099
776.800	-9.795	0.099
776.900	-16.661	0.099
777.000	-29.751	0.099
777.100	-24.891	0.099
777.200	-17.335	0.099
777.300	-29.587	0.099
777.400	-18.017	0.099
777.500	-12.097	0.099
777.600	-19.289	0.099
777.700	-16.296	0.099
777.800	-23.622	0.099
777.900	-18.797	0.099
778.000	-18.829	0.099
778.100	-21.889	0.099
778.200	-24.722	0.099
778.300	-8.752	0.099
778.400	-11.612	0.099
778.500	-4.463	0.099
778.600	-0.235	0.099
778.700	-23.615	0.099
778.800	-7.505	0.099
778.900	-16.528	0.099
779.000	-2.552	0.099
779.100	-20.829	0.099
779.200	-5.599	0.100
779.300	-17.153	0.099
779.400	-40.923	0.099
779.500	-20.200	0.099
779.600	-21.577	0.099
779.700	-13.926	0.099
779.800	-23.865	0.099
779.900	-13.405	0.099
780.000	-18.629	0.099
780.100	-20.737	0.099
780.200	-22.635	0.100
780.300	-8.390	0.099
780.400	-32.449	0.099
780.500	-17.351	0.099
780.600	-19.578	0.099
780.700	-20.923	0.099
780.800	-19.723	0.099
780.900	-8.693	0.099
781.000	-13.533	0.099
781.100	7.428	0.099
781.200	20.684	0.099
781.300	-2.867	0.099
781.400	9.097	0.099
781.500	3.672	0.099
781.600	0.750	0.099
781.700	2.106	0.099
781.800	21.165	0.099
781.900	22.624	0.099
782.000	3.155	0.099
782.100	16.969	0.099
782.200	21.654	0.099
782.300	14.365	0.099
782.400	28.784	0.099
782.500	0.577	0.099
782.600	19.398	0.099
782.700	41.453	0.099
782.800	27.767	0.099
782.900	4.387	0.099
783.000	23.142	0.099
783.100	24.077	0.099
783.200	34.297	0.099
783.300	16.625	0.099
783.400	9.318	0.099
783.500	29.066	0.099
783.600	25.797	0.099
783.700	19.160	0.099
783.800	19.625	0.099
783.900	30.670	0.099
784.000	30.952	0.099
784.100	15.573	0.099
784.200	27.830	0.099
784.300	19.999	0.099
784.400	19.375	0.099
784.500	13.096	0.100
784.600	24.871	0.099
784.700	20.770	0.099
784.800	18.367	0.099
784.900	29.476	0.099
785.000	7.512	0.099
785.100	24.765	0.099
785.200	35.619	0.099
785.300	-6.565	0.099
785.400	24.852	0.099
785.500	27.631	0.099
785.600	18.446	0.099
785.700	25.396	0.099
785.800	5.092	0.099
785.900	25.863	0.099
786.000	-3.157	0.099
786.100	8.267	0.099
786.200	10.496	0.099
786.300	11.373	0.099
786.400	19.510	0.099
786.500	14.626	0.099
786.600	23.735	0.099
786.700	11.749	0.099
786.800	12.998	0.099
786.900	18.501	0.099
787.000	16.721	0.099
787.100	36.644	0.099
787.200	7.729	0.099
787.300	13.438	0.099
787.400	11.305	0.099
787.500	27.672	0.099
787.600	17.731	0.099
787.700	7.746	0.099
787.800	29.466	0.099
787.900	13.148	0.099
788.000	22.335	0.099
788.100	23.098	0.099
788.200	16.083	0.099
788.300	30.285	0.099
788.400	19.613	0.099
788.500	15.367	0.099
788.600	8.806	0.099
788.700	12.873	0.099
788.800	13.602	0.099
788.900	28.015	0.099
789.000	28.826	0.100
789.100	13.983	0.099
789.200	34.365	0.099
789.300	20.371	0.099
789.400	25.189	0.099
789.500	-5.486	0.099
789.600	6.802	0.099
789.700	20.406	0.099
789.800	38.773	0.099
789.900	23.444	0.099
790.000	35.997	0.099
790.100	16.505	0.099
790.200	45.408	0.099
790.300	15.597	0.099
790.400	32.637	0.100
790.500	51.850	0.099
790.600	24.076	0.099
790.700	26.650	0.099
790.800	43.364	0.099
790.900	25.650	0.099
791.000	37.946	0.099
791.100	9.386	0.100
791.200	7.084	0.099
791.300	50.905	0.099
791.400	28.592	0.099
791.500	25.169	0.099
791.600	18.919	0.099
791.700	26.348	0.099
791.800	33.270	0.099
791.900	27.252	0.099
792.000	20.646	0.099
792.100	22.630	0.099
792.200	20.887	0.099
792.300	38.800	0.100
792.400	41.997	0.099
792.500	33.411	0.099
792.600	37.219	0.099
792.700	39.462	0.100
792.800	24.193	0.099
792.900	39.243	0.099
793.000	55.357	0.099
793.100	46.729	0.099
793.200	37.822	0.099
793.300	37.312	0.100
793.400	40.132	0.099
793.500	37.537	0.099
793.600	46.348	0.099
793.700	47.021	0.099
793.800	35.780	0.099
793.900	44.847	0.099
794.000	42.887	0.100
794.100	42.319	0.099
794.200	40.956	0.099
794.300	39.718	0.099
794.400	29.085	0.099
794.500	52.211	0.100
794.600	36.528	0.099
794.700	44.496	0.099
794.800	36.796	0.100
794.900	61.138	0.099
795.000	50.538	0.099
795.100	53.959	0.099
795.200	53.180	0.099
795.300	43.484	0.099
795.400	53.701	0.099
795.500	48.606	0.099
795.600	51.686	0.099
795.700	37.588	0.099
795.800	48.221	0.099
795.900	45.053	0.099
796.000	43.692	0.099
796.100	69.543	0.099
796.200	29.469	0.099
796.300	61.621	0.099
796.400	63.861	0.100
796.500	44.446	0.099
796.600	52.355	0.099
796.700	44.922	0.099
796.800	57.497	0.099
796.900	47.551	0.099
797.000	61.849	0.099
797.100	55.158	0.099
797.200	57.045	0.099
797.300	50.201	0.099
797.400	54.568	0.099
797.500	56.893	0.100
797.600	68.159	0.099
797.700	52.756	0.100
797.800	57.441	0.099
797.900	50.510	0.099
798.000	67.306	0.099
798.100	42.701	0.099
798.200	61.883	0.099
798.300	39.318	0.099
798.400	38.779	0.099
798.500	58.270	0.099
798.600	79.906	0.099
798.700	48.708	0.099
798.800	48.039	0.099
798.900	58.934	0.100
799.000	66.173	0.099
799.100	41.703	0.099
799.200	52.926	0.099
799.300	46.617	0.099
799.400	40.471	0.100
799.500	58.956	0.100
799.600	47.998	0.099
799.700	64.621	0.099
799.800	55.176	0.099
799.900	53.032	0.100
800.000	65.241	0.099
